SpectraSuite Data File
++++++++++++++++++++++++++++++++++++
Date: Fri Feb 01 14:34:16 EST 2013
User: group
Dark Spectrum Present: No
Reference Spectrum Present: No
Number of Sampled Component Spectra: 1
Spectrometers: USB2E7196
Integration Time (usec): 70000 (USB2E7196)
Spectra Averaged: 10 (USB2E7196)
Boxcar Smoothing: 10 (USB2E7196)
Correct for Electrical Dark: No (USB2E7196)
Strobe/Lamp Enabled: No (USB2E7196)
Correct for Detector Non-linearity: No (USB2E7196)
Correct for Stray Light: No (USB2E7196)
Number of Pixels in Processed Spectrum: 2048
>>>>>Begin Processed Spectral Data<<<<<
339.09	0.00
339.48	216.10
339.86	217.80
340.24	217.60
340.63	219.70
341.01	224.50
341.39	223.40
341.78	224.20
342.16	225.60
342.54	224.40
342.93	214.65
343.31	225.46
343.69	225.96
344.07	226.27
344.46	226.83
344.84	227.35
345.22	227.55
345.60	227.78
345.99	227.93
346.37	228.07
346.75	228.30
347.13	228.34
347.52	228.39
347.90	228.46
348.28	228.43
348.66	228.52
349.05	228.41
349.43	228.46
349.81	228.53
350.19	228.71
350.57	228.72
350.96	228.74
351.34	228.91
351.72	229.10
352.10	229.39
352.48	229.43
352.87	229.50
353.25	229.55
353.63	229.67
354.01	229.79
354.39	229.92
354.77	229.98
355.15	230.11
355.54	230.07
355.92	230.16
356.30	230.21
356.68	230.37
357.06	230.44
357.44	230.47
357.82	230.55
358.20	230.56
358.58	230.67
358.97	230.73
359.35	230.87
359.73	230.90
360.11	230.97
360.49	231.03
360.87	231.04
361.25	231.22
361.63	231.23
362.01	231.34
362.39	231.35
362.77	231.37
363.15	231.43
363.53	231.51
363.91	231.51
364.29	231.51
364.67	231.36
365.05	231.45
365.43	231.52
365.81	231.50
366.19	231.55
366.57	231.47
366.95	231.51
367.33	231.45
367.71	231.38
368.09	231.36
368.47	231.29
368.85	231.13
369.23	231.02
369.61	231.00
369.99	230.99
370.37	230.92
370.75	231.07
371.13	230.96
371.51	230.91
371.89	230.87
372.27	230.76
372.65	230.79
373.03	230.70
373.41	230.55
373.78	230.52
374.16	230.34
374.54	230.32
374.92	230.17
375.30	229.95
375.68	229.89
376.06	229.78
376.44	229.65
376.82	229.66
377.19	229.59
377.57	229.40
377.95	229.17
378.33	229.10
378.71	228.87
379.09	228.80
379.47	228.66
379.84	228.48
380.22	228.45
380.60	228.22
380.98	228.14
381.36	228.11
381.73	228.07
382.11	228.05
382.49	227.97
382.87	227.85
383.25	227.74
383.62	227.94
384.00	227.77
384.38	227.71
384.76	227.60
385.13	227.55
385.51	227.58
385.89	227.56
386.27	227.45
386.64	227.36
387.02	227.38
387.40	227.33
387.78	227.23
388.15	227.30
388.53	227.24
388.91	227.22
389.29	227.13
389.66	227.08
390.04	227.09
390.42	227.16
390.79	227.19
391.17	227.33
391.55	226.98
391.92	227.01
392.30	227.11
392.68	227.12
393.05	227.15
393.43	227.13
393.81	227.16
394.18	227.22
394.56	227.23
394.94	227.24
395.31	227.29
395.69	227.47
396.06	227.45
396.44	227.56
396.82	227.66
397.19	227.82
397.57	227.85
397.95	227.88
398.32	227.90
398.70	228.01
399.07	228.14
399.45	228.37
399.82	228.57
400.20	228.72
400.58	228.97
400.95	228.98
401.33	229.27
401.70	229.64
402.08	229.85
402.45	230.12
402.83	230.35
403.20	230.65
403.58	230.93
403.95	231.22
404.33	231.50
404.71	231.72
405.08	232.15
405.46	232.61
405.83	233.12
406.21	233.42
406.58	233.90
406.96	234.35
407.33	234.80
407.70	235.27
408.08	235.85
408.45	236.38
408.83	237.10
409.20	237.70
409.58	238.27
409.95	239.07
410.33	239.89
410.70	240.64
411.08	241.50
411.45	242.42
411.82	243.31
412.20	244.38
412.57	245.61
412.95	246.53
413.32	247.72
413.69	249.00
414.07	250.52
414.44	252.02
414.82	253.50
415.19	255.23
415.56	257.03
415.94	258.83
416.31	260.89
416.68	262.97
417.06	265.20
417.43	267.35
417.81	269.82
418.18	272.39
418.55	275.24
418.93	278.17
419.30	281.19
419.67	284.40
420.04	287.61
420.42	291.02
420.79	295.09
421.16	299.04
421.54	303.12
421.91	307.35
422.28	311.69
422.66	316.34
423.03	320.88
423.40	325.69
423.77	330.80
424.15	335.93
424.52	341.13
424.89	346.98
425.26	352.68
425.64	358.04
426.01	363.76
426.38	369.76
426.75	375.94
427.13	382.37
427.50	389.12
427.87	396.29
428.24	403.31
428.61	410.00
428.99	417.35
429.36	425.28
429.73	433.10
430.10	440.88
430.47	448.78
430.85	457.03
431.22	465.55
431.59	474.72
431.96	483.32
432.33	493.28
432.70	502.51
433.08	513.64
433.45	524.04
433.82	534.39
434.19	546.01
434.56	557.28
434.93	568.06
435.30	578.55
435.68	590.24
436.05	601.90
436.42	613.43
436.79	623.90
437.16	635.27
437.53	647.16
437.90	659.08
438.27	670.65
438.64	682.76
439.01	693.91
439.38	703.82
439.75	713.56
440.13	724.79
440.50	735.59
440.87	744.17
441.24	753.40
441.61	763.75
441.98	771.29
442.35	779.91
442.72	788.77
443.09	797.52
443.46	803.09
443.83	807.00
444.20	810.51
444.57	815.92
444.94	818.61
445.31	821.63
445.68	824.34
446.05	826.38
446.42	826.58
446.79	826.44
447.16	826.49
447.53	826.92
447.90	823.60
448.27	820.40
448.64	815.64
449.01	812.38
449.37	805.62
449.74	799.09
450.11	791.04
450.48	782.33
450.85	773.50
451.22	766.17
451.59	759.13
451.96	752.52
452.33	742.62
452.70	734.34
453.07	723.81
453.43	713.10
453.80	702.97
454.17	692.76
454.54	683.63
454.91	673.11
455.28	663.14
455.65	653.85
456.02	644.33
456.38	636.15
456.75	625.85
457.12	617.33
457.49	608.65
457.86	600.48
458.23	593.43
458.59	585.45
458.96	577.25
459.33	570.14
459.70	563.06
460.07	557.20
460.43	550.51
460.80	544.20
461.17	538.72
461.54	532.79
461.91	527.28
462.27	521.25
462.64	516.45
463.01	510.91
463.38	505.61
463.74	500.39
464.11	495.72
464.48	491.71
464.85	487.13
465.21	483.91
465.58	480.44
465.95	476.00
466.32	472.45
466.68	469.01
467.05	465.38
467.42	461.63
467.78	458.02
468.15	454.43
468.52	451.83
468.88	448.46
469.25	445.25
469.62	442.81
469.98	440.20
470.35	437.71
470.72	435.26
471.08	432.71
471.45	430.60
471.82	428.19
472.18	425.75
472.55	424.03
472.92	422.00
473.28	420.00
473.65	418.20
474.02	416.44
474.38	414.74
474.75	413.29
475.11	411.74
475.48	410.55
475.85	409.49
476.21	408.31
476.58	407.51
476.94	406.66
477.31	405.86
477.67	405.22
478.04	404.40
478.41	403.82
478.77	403.37
479.14	402.76
479.50	402.51
479.87	402.37
480.23	402.25
480.60	402.00
480.96	401.98
481.33	402.34
481.69	402.54
482.06	402.64
482.42	402.67
482.79	403.05
483.15	403.46
483.52	404.19
483.88	404.63
484.25	405.20
484.61	406.07
484.98	406.75
485.34	407.81
485.71	409.11
486.07	410.32
486.44	411.51
486.80	413.00
487.17	414.51
487.53	416.10
487.90	417.90
488.26	419.86
488.62	422.02
488.99	423.76
489.35	425.73
489.72	428.02
490.08	430.41
490.44	432.82
490.81	435.30
491.17	437.65
491.54	440.49
491.90	443.15
492.26	446.16
492.63	449.18
492.99	452.11
493.36	455.04
493.72	458.34
494.08	461.62
494.45	465.06
494.81	468.65
495.17	472.19
495.54	475.92
495.90	479.70
496.26	483.42
496.63	487.55
496.99	491.74
497.35	496.02
497.72	500.60
498.08	505.07
498.44	509.65
498.80	514.40
499.17	519.24
499.53	523.92
499.89	528.79
500.26	533.42
500.62	538.08
500.98	543.30
501.34	548.28
501.71	553.51
502.07	558.29
502.43	563.53
502.79	568.63
503.16	573.73
503.52	578.74
503.88	583.71
504.24	588.78
504.60	594.00
504.97	599.13
505.33	604.22
505.69	609.57
506.05	614.64
506.41	619.72
506.78	624.45
507.14	629.60
507.50	634.69
507.86	640.10
508.22	645.54
508.59	650.36
508.95	655.61
509.31	660.70
509.67	665.81
510.03	670.33
510.39	675.37
510.75	680.24
511.12	685.02
511.48	689.92
511.84	694.67
512.20	699.19
512.56	703.69
512.92	708.11
513.28	712.30
513.64	716.44
514.00	720.52
514.37	724.81
514.73	728.82
515.09	732.30
515.45	735.83
515.81	739.34
516.17	743.22
516.53	746.66
516.89	750.03
517.25	753.48
517.61	757.18
517.97	760.40
518.33	763.22
518.69	766.42
519.05	769.48
519.41	772.41
519.77	775.71
520.13	779.02
520.49	781.67
520.85	784.35
521.21	787.20
521.57	790.12
521.93	792.78
522.29	795.82
522.65	798.64
523.01	801.28
523.37	803.56
523.73	805.97
524.09	808.29
524.45	810.50
524.81	812.82
525.17	815.43
525.53	818.01
525.89	820.58
526.25	823.05
526.61	825.33
526.97	827.70
527.33	829.75
527.68	831.86
528.04	834.35
528.40	836.74
528.76	839.42
529.12	841.75
529.48	844.08
529.84	845.85
530.20	848.25
530.56	850.90
530.91	854.10
531.27	856.70
531.63	859.29
531.99	861.91
532.35	864.24
532.71	866.24
533.07	868.78
533.42	871.47
533.78	873.84
534.14	875.99
534.50	878.01
534.86	880.61
535.21	882.60
535.57	885.08
535.93	887.53
536.29	889.74
536.65	891.80
537.00	893.98
537.36	896.60
537.72	898.94
538.08	901.04
538.44	902.80
538.79	904.77
539.15	906.96
539.51	909.10
539.87	911.66
540.22	914.20
540.58	916.79
540.94	918.90
541.29	921.17
541.65	923.94
542.01	926.78
542.37	929.01
542.72	931.26
543.08	933.78
543.44	936.24
543.79	938.43
544.15	941.23
544.51	944.41
544.87	947.07
545.22	949.55
545.58	952.17
545.94	954.71
546.29	957.20
546.65	959.28
547.01	961.79
547.36	964.11
547.72	966.22
548.07	967.82
548.43	970.19
548.79	972.44
549.14	974.68
549.50	976.75
549.86	978.90
550.21	981.29
550.57	983.34
550.92	985.47
551.28	987.57
551.64	989.77
551.99	991.70
552.35	993.59
552.70	996.13
553.06	998.50
553.41	1000.56
553.77	1002.93
554.13	1005.36
554.48	1007.54
554.84	1009.79
555.19	1011.83
555.55	1014.47
555.90	1016.67
556.26	1018.80
556.61	1020.69
556.97	1022.77
557.32	1024.86
557.68	1027.27
558.03	1029.40
558.39	1031.47
558.74	1033.82
559.10	1035.53
559.45	1037.60
559.81	1039.84
560.16	1041.10
560.52	1042.78
560.87	1045.06
561.23	1046.57
561.58	1048.81
561.94	1050.72
562.29	1052.61
562.64	1054.43
563.00	1055.99
563.35	1057.70
563.71	1059.71
564.06	1061.50
564.42	1063.17
564.77	1065.02
565.12	1066.71
565.48	1068.70
565.83	1070.13
566.19	1071.75
566.54	1073.30
566.89	1074.39
567.25	1075.63
567.60	1077.44
567.96	1079.01
568.31	1080.27
568.66	1081.79
569.02	1082.58
569.37	1083.77
569.72	1084.50
570.08	1085.57
570.43	1086.11
570.78	1086.61
571.14	1087.28
571.49	1087.89
571.84	1089.04
572.20	1089.32
572.55	1089.52
572.90	1089.30
573.26	1089.94
573.61	1090.03
573.96	1090.09
574.31	1089.84
574.67	1089.64
575.02	1088.93
575.37	1088.45
575.72	1087.39
576.08	1086.93
576.43	1086.50
576.78	1085.94
577.13	1085.57
577.49	1085.37
577.84	1084.97
578.19	1084.56
578.54	1083.53
578.90	1082.68
579.25	1081.18
579.60	1080.21
579.95	1079.27
580.30	1078.11
580.66	1076.47
581.01	1075.01
581.36	1073.88
581.71	1072.95
582.06	1071.81
582.42	1070.61
582.77	1069.11
583.12	1068.15
583.47	1066.81
583.82	1065.59
584.17	1063.60
584.53	1062.24
584.88	1060.49
585.23	1058.85
585.58	1057.20
585.93	1055.73
586.28	1054.34
586.63	1052.79
586.98	1051.44
587.34	1049.80
587.69	1048.16
588.04	1046.84
588.39	1045.49
588.74	1043.24
589.09	1041.25
589.44	1039.00
589.79	1037.39
590.14	1035.87
590.49	1033.94
590.84	1031.81
591.19	1029.78
591.54	1027.59
591.89	1025.02
592.25	1022.65
592.60	1020.00
592.95	1017.50
593.30	1014.72
593.65	1011.84
594.00	1009.53
594.35	1007.27
594.70	1004.10
595.05	1001.63
595.40	998.76
595.75	995.53
596.10	993.30
596.45	990.95
596.80	988.89
597.15	986.35
597.50	983.15
597.85	980.50
598.19	977.88
598.54	975.20
598.89	972.88
599.24	970.35
599.59	967.84
599.94	965.89
600.29	963.22
600.64	960.71
600.99	957.90
601.34	954.98
601.69	951.72
602.04	949.27
602.39	946.50
602.74	943.79
603.08	941.41
603.43	938.72
603.78	936.12
604.13	933.09
604.48	930.11
604.83	927.70
605.18	924.78
605.53	921.52
605.87	918.05
606.22	915.37
606.57	912.26
606.92	909.37
607.27	905.90
607.62	903.27
607.96	900.31
608.31	897.62
608.66	894.41
609.01	891.00
609.36	887.56
609.70	883.81
610.05	880.29
610.40	877.12
610.75	873.57
611.10	869.65
611.44	865.88
611.79	862.55
612.14	858.84
612.49	854.90
612.83	851.63
613.18	848.09
613.53	844.32
613.88	840.68
614.22	836.96
614.57	833.44
614.92	829.70
615.27	826.33
615.61	822.60
615.96	819.10
616.31	816.00
616.65	813.30
617.00	810.31
617.35	806.98
617.70	803.29
618.04	799.79
618.39	796.29
618.74	793.00
619.08	789.30
619.43	785.67
619.78	782.58
620.12	779.10
620.47	775.73
620.82	772.03
621.16	768.73
621.51	765.50
621.85	762.05
622.20	758.50
622.55	754.99
622.89	751.70
623.24	748.64
623.59	745.31
623.93	741.70
624.28	738.18
624.62	735.11
624.97	731.96
625.32	728.92
625.66	726.20
626.01	723.04
626.35	720.05
626.70	717.40
627.04	714.38
627.39	711.03
627.73	708.24
628.08	705.41
628.43	702.16
628.77	698.80
629.12	695.69
629.46	692.73
629.81	689.44
630.15	686.27
630.50	682.70
630.84	679.04
631.19	675.60
631.53	672.47
631.88	668.97
632.22	665.33
632.57	662.21
632.91	658.67
633.26	655.46
633.60	652.34
633.95	648.90
634.29	645.64
634.64	642.94
634.98	639.78
635.32	636.91
635.67	634.27
636.01	631.51
636.36	628.48
636.70	625.47
637.05	622.86
637.39	620.16
637.73	617.63
638.08	615.38
638.42	612.92
638.77	610.32
639.11	607.62
639.45	605.30
639.80	602.40
640.14	599.88
640.49	597.30
640.83	594.30
641.17	591.63
641.52	589.00
641.86	586.16
642.20	583.60
642.55	580.77
642.89	578.02
643.23	575.04
643.58	572.76
643.92	570.03
644.26	567.28
644.61	564.80
644.95	562.15
645.29	559.24
645.64	556.54
645.98	554.07
646.32	551.89
646.66	549.30
647.01	546.72
647.35	544.10
647.69	541.64
648.04	539.37
648.38	536.88
648.72	534.31
649.06	531.68
649.41	529.06
649.75	526.27
650.09	523.65
650.43	521.38
650.78	518.58
651.12	516.10
651.46	513.69
651.80	511.09
652.14	508.72
652.49	506.46
652.83	504.05
653.17	501.33
653.51	498.55
653.85	496.07
654.20	493.77
654.54	491.37
654.88	488.81
655.22	486.27
655.56	483.70
655.90	481.43
656.25	479.35
656.59	476.88
656.93	474.95
657.27	472.64
657.61	470.11
657.95	468.02
658.29	465.99
658.64	463.95
658.98	461.61
659.32	459.33
659.66	457.22
660.00	454.96
660.34	453.02
660.68	450.92
661.02	448.75
661.36	446.73
661.70	444.66
662.05	442.80
662.39	441.03
662.73	439.06
663.07	437.31
663.41	435.42
663.75	433.68
664.09	431.85
664.43	430.05
664.77	428.32
665.11	426.43
665.45	424.41
665.79	422.36
666.13	420.54
666.47	418.69
666.81	416.57
667.15	414.66
667.49	412.85
667.83	411.25
668.17	409.50
668.51	407.60
668.85	405.85
669.19	404.15
669.53	402.40
669.87	400.80
670.21	398.92
670.55	397.13
670.89	395.79
671.23	394.01
671.57	392.44
671.91	390.82
672.25	389.31
672.58	387.96
672.92	386.26
673.26	384.91
673.60	383.58
673.94	382.36
674.28	381.20
674.62	380.03
674.96	378.55
675.30	377.37
675.64	376.04
675.97	374.79
676.31	373.35
676.65	372.04
676.99	370.72
677.33	369.42
677.67	368.10
678.01	366.41
678.34	365.24
678.68	364.05
679.02	362.79
679.36	361.52
679.70	360.09
680.04	359.01
680.37	357.68
680.71	356.36
681.05	355.15
681.39	353.85
681.73	352.62
682.06	351.57
682.40	350.47
682.74	349.45
683.08	348.39
683.42	347.24
683.75	346.12
684.09	344.94
684.43	343.87
684.77	342.81
685.10	341.82
685.44	340.65
685.78	339.50
686.12	338.52
686.45	337.37
686.79	336.35
687.13	335.41
687.46	334.38
687.80	333.36
688.14	332.31
688.48	331.32
688.81	330.15
689.15	329.06
689.49	327.88
689.82	326.85
690.16	325.65
690.50	324.76
690.83	323.68
691.17	322.79
691.51	321.88
691.84	320.97
692.18	320.02
692.52	319.00
692.85	318.07
693.19	317.19
693.52	316.45
693.86	315.56
694.20	314.57
694.53	313.70
694.87	312.80
695.21	311.85
695.54	310.98
695.88	310.02
696.21	309.19
696.55	308.30
696.88	307.44
697.22	306.67
697.56	305.80
697.89	305.05
698.23	304.17
698.56	303.25
698.90	302.47
699.23	301.62
699.57	300.81
699.90	299.99
700.24	299.07
700.58	298.23
700.91	297.40
701.25	296.73
701.58	296.12
701.92	295.36
702.25	294.75
702.59	294.00
702.92	293.38
703.26	292.60
703.59	292.04
703.93	291.48
704.26	290.72
704.60	290.06
704.93	289.39
705.26	288.75
705.60	288.10
705.93	287.42
706.27	286.84
706.60	286.19
706.94	285.61
707.27	284.92
707.61	284.26
707.94	283.69
708.27	283.01
708.61	282.24
708.94	281.75
709.28	281.06
709.61	280.43
709.94	279.88
710.28	279.37
710.61	278.70
710.95	277.95
711.28	277.63
711.61	277.10
711.95	276.50
712.28	275.81
712.61	275.24
712.95	274.86
713.28	274.41
713.61	273.92
713.95	273.44
714.28	273.06
714.61	272.42
714.95	272.04
715.28	271.59
715.61	271.22
715.95	270.60
716.28	270.12
716.61	269.78
716.95	269.29
717.28	268.93
717.61	268.60
717.94	268.29
718.28	267.53
718.61	267.09
718.94	266.71
719.27	266.50
719.61	266.21
719.94	265.68
720.27	265.14
720.60	264.69
720.94	264.29
721.27	263.87
721.60	263.68
721.93	263.23
722.27	262.96
722.60	262.50
722.93	262.24
723.26	261.99
723.59	261.58
723.93	261.32
724.26	260.80
724.59	260.45
724.92	260.08
725.25	259.98
725.59	259.69
725.92	259.46
726.25	259.16
726.58	258.89
726.91	258.58
727.24	258.34
727.57	258.20
727.91	257.90
728.24	257.81
728.57	257.43
728.90	257.25
729.23	256.81
729.56	256.68
729.89	256.43
730.22	256.10
730.55	255.85
730.89	255.59
731.22	255.48
731.55	255.18
731.88	254.89
732.21	254.67
732.54	254.29
732.87	254.00
733.20	253.83
733.53	253.51
733.86	253.30
734.19	253.08
734.52	252.76
734.85	252.79
735.18	252.37
735.51	252.32
735.84	252.07
736.17	251.98
736.50	251.62
736.83	251.57
737.16	251.30
737.49	251.09
737.82	250.77
738.15	250.49
738.48	250.23
738.81	250.00
739.14	249.73
739.47	249.56
739.80	249.36
740.13	249.00
740.46	248.71
740.79	248.35
741.12	248.20
741.45	248.01
741.78	247.47
742.11	247.27
742.44	246.96
742.77	246.65
743.10	246.30
743.43	246.11
743.75	245.70
744.08	245.79
744.41	245.50
744.74	245.25
745.07	245.10
745.40	244.91
745.73	244.78
746.06	244.57
746.39	244.43
746.71	244.24
747.04	244.10
747.37	243.93
747.70	243.84
748.03	243.60
748.36	243.43
748.68	243.31
749.01	243.17
749.34	242.95
749.67	242.81
750.00	242.73
750.33	242.68
750.65	242.64
750.98	242.24
751.31	242.14
751.64	241.93
751.97	241.81
752.29	241.70
752.62	241.42
752.95	241.15
753.28	240.92
753.60	240.65
753.93	240.50
754.26	240.30
754.59	240.05
754.91	239.85
755.24	239.70
755.57	239.53
755.90	239.39
756.22	239.30
756.55	239.11
756.88	238.92
757.20	238.66
757.53	238.42
757.86	238.30
758.19	238.18
758.51	238.16
758.84	237.99
759.17	237.89
759.49	237.86
759.82	237.86
760.15	237.78
760.47	237.74
760.80	237.65
761.13	237.65
761.45	237.60
761.78	237.54
762.11	237.41
762.43	237.30
762.76	237.18
763.08	237.07
763.41	237.06
763.74	237.04
764.06	237.04
764.39	236.95
764.71	236.98
765.04	236.96
765.37	236.84
765.69	236.69
766.02	236.55
766.34	236.41
766.67	236.34
767.00	236.30
767.32	236.34
767.65	236.38
767.97	236.30
768.30	236.33
768.62	236.30
768.95	236.21
769.27	236.27
769.60	236.31
769.92	236.24
770.25	236.16
770.57	236.05
770.90	235.90
771.22	235.89
771.55	235.75
771.87	235.76
772.20	235.82
772.52	235.92
772.85	236.09
773.17	236.12
773.50	236.11
773.82	236.12
774.15	235.98
774.47	235.82
774.80	235.74
775.12	235.61
775.45	235.60
775.77	235.71
776.09	235.54
776.42	235.40
776.74	235.33
777.07	235.24
777.39	235.12
777.72	235.06
778.04	235.05
778.36	234.98
778.69	234.87
779.01	234.80
779.33	234.70
779.66	234.49
779.98	234.37
780.31	234.25
780.63	234.24
780.95	234.27
781.28	234.26
781.60	234.24
781.92	234.24
782.25	234.08
782.57	233.92
782.89	233.95
783.22	233.86
783.54	233.80
783.86	233.73
784.19	233.65
784.51	233.67
784.83	233.47
785.16	233.35
785.48	233.20
785.80	233.11
786.12	233.10
786.45	233.07
786.77	233.02
787.09	232.95
787.42	232.86
787.74	232.71
788.06	232.58
788.38	232.45
788.71	232.37
789.03	232.37
789.35	232.36
789.67	232.27
789.99	232.28
790.32	232.36
790.64	232.30
790.96	232.45
791.28	232.39
791.61	232.36
791.93	232.41
792.25	232.39
792.57	232.44
792.89	232.27
793.21	232.14
793.54	232.06
793.86	231.98
794.18	231.80
794.50	231.67
794.82	231.56
795.14	231.62
795.47	231.59
795.79	231.44
796.11	231.34
796.43	231.24
796.75	231.21
797.07	230.99
797.39	231.05
797.71	230.94
798.04	230.90
798.36	230.91
798.68	230.78
799.00	230.75
799.32	230.60
799.64	230.51
799.96	230.50
800.28	230.43
800.60	230.41
800.92	230.47
801.24	230.48
801.56	230.57
801.89	230.44
802.21	230.35
802.53	230.38
802.85	230.43
803.17	230.61
803.49	230.58
803.81	230.58
804.13	230.53
804.45	230.42
804.77	230.35
805.09	230.32
805.41	230.34
805.73	230.39
806.05	230.30
806.37	230.40
806.69	230.37
807.01	230.43
807.33	230.34
807.65	230.30
807.97	230.41
808.28	230.29
808.60	230.23
808.92	230.30
809.24	230.44
809.56	230.35
809.88	230.13
810.20	230.20
810.52	230.25
810.84	230.14
811.16	230.13
811.48	230.08
811.80	230.07
812.12	230.02
812.43	230.06
812.75	230.05
813.07	230.00
813.39	229.99
813.71	229.88
814.03	229.87
814.35	229.84
814.67	229.75
814.98	229.77
815.30	229.75
815.62	229.63
815.94	229.45
816.26	229.57
816.58	229.59
816.89	229.49
817.21	229.39
817.53	229.44
817.85	229.37
818.17	229.42
818.48	229.43
818.80	229.46
819.12	229.44
819.44	229.46
819.76	229.45
820.07	229.52
820.39	229.50
820.71	229.59
821.03	229.55
821.34	229.52
821.66	229.53
821.98	229.70
822.30	229.70
822.61	229.77
822.93	229.64
823.25	229.56
823.57	229.60
823.88	229.68
824.20	229.53
824.52	229.58
824.83	229.55
825.15	229.47
825.47	229.39
825.79	229.32
826.10	229.30
826.42	229.30
826.74	229.39
827.05	229.34
827.37	229.33
827.69	229.37
828.00	229.40
828.32	229.38
828.64	229.27
828.95	229.48
829.27	229.46
829.58	229.41
829.90	229.58
830.22	229.57
830.53	229.52
830.85	229.56
831.17	229.51
831.48	229.44
831.80	229.45
832.11	229.46
832.43	229.46
832.75	229.45
833.06	229.57
833.38	229.43
833.69	229.55
834.01	229.49
834.32	229.50
834.64	229.53
834.96	229.50
835.27	229.60
835.59	229.44
835.90	229.34
836.22	229.39
836.53	229.16
836.85	229.00
837.16	229.27
837.48	229.38
837.79	229.46
838.11	229.50
838.42	229.60
838.74	229.66
839.05	229.55
839.37	229.52
839.68	229.36
840.00	229.27
840.31	229.28
840.63	229.34
840.94	229.32
841.26	229.24
841.57	229.35
841.88	229.30
842.20	229.27
842.51	229.24
842.83	229.26
843.14	229.43
843.46	229.60
843.77	229.49
844.08	229.36
844.40	229.28
844.71	229.29
845.03	229.12
845.34	229.09
845.65	229.12
845.97	229.12
846.28	229.12
846.60	229.24
846.91	229.18
847.22	229.17
847.54	229.21
847.85	229.27
848.16	229.14
848.48	229.07
848.79	229.06
849.10	229.13
849.42	229.17
849.73	229.06
850.04	228.90
850.36	228.78
850.67	228.96
850.98	229.00
851.30	229.06
851.61	229.07
851.92	229.02
852.23	229.08
852.55	229.03
852.86	229.01
853.17	228.95
853.49	228.98
853.80	229.01
854.11	228.96
854.42	228.99
854.74	228.96
855.05	228.97
855.36	228.96
855.67	229.02
855.99	228.97
856.30	229.23
856.61	229.34
856.92	229.34
857.23	229.24
857.55	229.27
857.86	229.26
858.17	229.30
858.48	229.25
858.79	229.22
859.11	229.25
859.42	229.27
859.73	229.27
860.04	229.34
860.35	229.25
860.66	229.17
860.98	229.05
861.29	229.14
861.60	229.10
861.91	229.15
862.22	229.07
862.53	229.07
862.84	228.85
863.16	228.80
863.47	228.86
863.78	228.75
864.09	228.76
864.40	228.74
864.71	228.81
865.02	228.87
865.33	228.84
865.64	228.86
865.95	228.84
866.27	228.96
866.58	228.97
866.89	229.04
867.20	229.06
867.51	229.07
867.82	229.04
868.13	229.04
868.44	229.00
868.75	229.05
869.06	229.02
869.37	229.03
869.68	228.96
869.99	228.99
870.30	229.10
870.61	229.12
870.92	229.07
871.23	229.00
871.54	229.00
871.85	229.07
872.16	229.11
872.47	229.10
872.78	228.94
873.09	228.85
873.40	228.90
873.71	228.92
874.02	228.94
874.33	228.98
874.64	229.00
874.95	229.06
875.26	228.94
875.56	228.94
875.87	228.93
876.18	228.96
876.49	229.01
876.80	228.90
877.11	228.82
877.42	228.97
877.73	229.02
878.04	229.05
878.35	228.99
878.66	228.92
878.96	228.98
879.27	229.01
879.58	228.95
879.89	228.80
880.20	228.90
880.51	228.90
880.82	228.91
881.12	228.94
881.43	228.90
881.74	228.88
882.05	228.81
882.36	228.80
882.67	228.82
882.97	228.61
883.28	228.72
883.59	228.72
883.90	228.61
884.21	228.56
884.51	228.50
884.82	228.45
885.13	228.49
885.44	228.35
885.74	228.35
886.05	228.37
886.36	228.40
886.67	228.31
886.98	228.37
887.28	228.34
887.59	228.36
887.90	228.27
888.20	228.36
888.51	228.41
888.82	228.40
889.13	228.40
889.43	228.60
889.74	228.48
890.05	228.43
890.35	228.44
890.66	228.47
890.97	228.40
891.28	228.33
891.58	228.30
891.89	228.36
892.20	228.31
892.50	228.30
892.81	228.28
893.12	228.18
893.42	228.10
893.73	228.01
894.04	227.94
894.34	228.03
894.65	227.96
894.95	227.96
895.26	227.92
895.57	228.06
895.87	227.85
896.18	227.93
896.48	227.94
896.79	227.96
897.10	227.85
897.40	227.95
897.71	228.04
898.01	228.04
898.32	227.99
898.63	228.04
898.93	228.07
899.24	228.04
899.54	228.10
899.85	228.18
900.15	228.26
900.46	228.29
900.76	228.27
901.07	228.46
901.38	228.49
901.68	228.54
901.99	228.41
902.29	228.52
902.60	228.59
902.90	228.56
903.21	228.60
903.51	228.71
903.82	228.77
904.12	228.82
904.43	228.82
904.73	228.84
905.03	228.86
905.34	229.15
905.64	229.24
905.95	229.27
906.25	229.21
906.56	229.18
906.86	229.22
907.17	229.16
907.47	229.07
907.77	229.03
908.08	229.05
908.38	228.99
908.69	228.97
908.99	228.89
909.30	228.98
909.60	228.89
909.90	228.82
910.21	228.82
910.51	228.81
910.81	228.78
911.12	228.85
911.42	228.78
911.73	228.55
912.03	228.51
912.33	228.47
912.64	228.41
912.94	228.35
913.24	228.27
913.55	228.35
913.85	228.28
914.15	228.35
914.46	228.24
914.76	228.30
915.06	228.30
915.37	228.18
915.67	228.11
915.97	228.11
916.27	228.07
916.58	228.03
916.88	227.89
917.18	227.91
917.49	228.00
917.79	228.09
918.09	228.02
918.39	228.04
918.70	228.07
919.00	228.11
919.30	228.20
919.60	228.14
919.91	228.03
920.21	228.10
920.51	227.99
920.81	227.96
921.12	227.88
921.42	227.78
921.72	227.90
922.02	227.98
922.32	228.00
922.63	228.05
922.93	228.07
923.23	228.11
923.53	228.10
923.83	228.02
924.13	228.09
924.44	228.04
924.74	228.09
925.04	228.11
925.34	228.05
925.64	228.04
925.94	228.05
926.24	228.23
926.55	228.16
926.85	228.18
927.15	228.20
927.45	228.35
927.75	228.39
928.05	228.46
928.35	228.42
928.65	228.45
928.95	228.45
929.26	228.41
929.56	228.50
929.86	228.53
930.16	228.39
930.46	228.27
930.76	228.31
931.06	228.24
931.36	228.17
931.66	228.27
931.96	228.25
932.26	228.32
932.56	228.24
932.86	228.23
933.16	228.38
933.46	228.48
933.76	228.44
934.06	228.51
934.36	228.53
934.66	228.44
934.96	228.37
935.26	228.46
935.56	228.53
935.86	228.52
936.16	228.46
936.46	228.60
936.76	228.65
937.06	228.64
937.36	228.61
937.66	228.75
937.96	228.77
938.26	228.81
938.56	228.81
938.86	228.79
939.16	228.93
939.46	228.84
939.76	228.82
940.06	228.86
940.35	228.83
940.65	228.75
940.95	228.93
941.25	228.88
941.55	228.84
941.85	228.86
942.15	228.86
942.45	228.98
942.75	228.94
943.04	228.92
943.34	229.00
943.64	229.04
943.94	228.91
944.24	228.92
944.54	228.78
944.84	228.81
945.13	228.82
945.43	228.76
945.73	228.74
946.03	228.66
946.33	228.66
946.62	228.57
946.92	228.54
947.22	228.43
947.52	228.50
947.82	228.51
948.11	228.47
948.41	228.40
948.71	228.30
949.01	228.26
949.31	228.22
949.60	228.20
949.90	228.26
950.20	228.28
950.50	228.20
950.79	228.20
951.09	228.22
951.39	228.16
951.69	228.07
951.98	228.09
952.28	228.13
952.58	228.05
952.87	228.02
953.17	227.98
953.47	227.96
953.76	227.87
954.06	227.74
954.36	227.68
954.66	227.71
954.95	227.71
955.25	227.81
955.55	227.93
955.84	227.86
956.14	227.80
956.44	227.71
956.73	227.68
957.03	227.77
957.32	227.76
957.62	227.69
957.92	227.70
958.21	227.70
958.51	227.95
958.81	227.96
959.10	227.99
959.40	228.12
959.69	228.09
959.99	228.09
960.29	228.21
960.58	228.24
960.88	228.25
961.17	228.36
961.47	228.35
961.76	228.20
962.06	228.25
962.36	228.12
962.65	228.22
962.95	228.20
963.24	228.22
963.54	228.12
963.83	228.19
964.13	228.26
964.42	228.20
964.72	227.99
965.01	228.02
965.31	228.00
965.60	227.93
965.90	228.03
966.19	228.07
966.49	228.00
966.78	227.96
967.08	227.94
967.37	227.86
967.67	227.76
967.96	227.82
968.26	227.92
968.55	227.95
968.85	227.91
969.14	227.93
969.43	227.88
969.73	227.90
970.02	227.93
970.32	227.85
970.61	227.85
970.91	227.76
971.20	227.73
971.49	227.83
971.79	227.88
972.08	227.77
972.38	227.77
972.67	227.87
972.96	227.95
973.26	228.05
973.55	228.08
973.85	228.06
974.14	228.11
974.43	228.13
974.73	228.18
975.02	228.25
975.31	228.23
975.61	228.29
975.90	228.33
976.19	228.38
976.49	228.43
976.78	228.50
977.07	228.57
977.37	228.55
977.66	228.57
977.95	228.59
978.24	228.75
978.54	228.93
978.83	228.84
979.12	228.86
979.42	228.96
979.71	228.94
980.00	228.97
980.29	228.93
980.59	228.81
980.88	228.87
981.17	228.84
981.46	228.94
981.76	228.85
982.05	228.93
982.34	228.93
982.63	229.00
982.93	228.96
983.22	228.94
983.51	228.93
983.80	228.85
984.09	228.83
984.39	228.76
984.68	228.63
984.97	228.57
985.26	228.46
985.55	228.25
985.85	228.26
986.14	228.30
986.43	228.43
986.72	228.37
987.01	228.35
987.30	228.30
987.59	228.31
987.89	228.37
988.18	228.28
988.47	228.21
988.76	228.19
989.05	228.18
989.34	228.19
989.63	228.26
989.92	228.27
990.22	228.23
990.51	228.29
990.80	228.36
991.09	228.48
991.38	228.45
991.67	228.48
991.96	228.50
992.25	228.45
992.54	228.26
992.83	228.29
993.12	228.21
993.41	228.24
993.70	228.11
993.99	228.14
994.28	228.18
994.58	228.27
994.87	228.16
995.16	228.07
995.45	228.03
995.74	227.91
996.03	227.94
996.32	227.88
996.61	227.83
996.90	227.64
997.19	227.60
997.48	227.65
997.77	227.66
998.06	227.55
998.34	227.55
998.63	227.52
998.92	227.51
999.21	227.59
999.50	227.55
999.79	227.54
1000.08	227.49
1000.37	227.39
1000.66	227.30
1000.95	227.30
1001.24	227.39
1001.53	227.41
1001.82	227.36
1002.11	227.38
1002.40	227.46
1002.68	227.40
1002.97	227.60
1003.26	227.52
1003.55	227.56
1003.84	227.54
1004.13	227.58
1004.42	227.56
1004.71	227.56
1004.99	227.52
1005.28	227.59
1005.57	227.60
1005.86	227.67
1006.15	227.64
1006.44	227.62
1006.72	227.64
1007.01	227.78
1007.30	227.75
1007.59	227.72
1007.88	227.76
1008.17	227.68
1008.45	227.70
1008.74	227.68
1009.03	227.58
1009.32	227.63
1009.60	227.66
1009.89	227.75
1010.18	227.75
1010.47	227.85
1010.76	227.96
1011.04	228.00
1011.33	227.99
1011.62	227.96
1011.91	227.91
1012.19	228.07
1012.48	228.25
1012.77	228.27
1013.05	228.30
1013.34	228.36
1013.63	228.55
1013.92	228.57
1014.20	228.64
1014.49	228.57
1014.78	228.69
1015.06	228.59
1015.35	228.71
1015.64	228.70
1015.92	228.73
1016.21	228.74
1016.50	228.70
1016.78	228.82
1017.07	228.85
1017.36	228.89
1017.64	228.98
1017.93	229.10
1018.22	229.04
1018.50	229.03
1018.79	229.11
1019.08	229.10
1019.36	229.17
1019.65	229.09
1019.93	229.20
1020.22	229.21
1020.51	229.43
1020.79	229.33
1021.08	228.60
1021.36	229.90
1021.65	230.00
1021.94	229.90
1022.22	230.10
1022.51	230.00
1022.79	228.80
1023.08	229.00
1023.36	232.20
1023.65	227.40
>>>>>End Processed Spectral Data<<<<<
