SpectraSuite Data File
++++++++++++++++++++++++++++++++++++
Date: Fri Feb 01 14:36:21 EST 2013
User: group
Dark Spectrum Present: No
Reference Spectrum Present: No
Number of Sampled Component Spectra: 1
Spectrometers: USB2E7196
Integration Time (usec): 70000 (USB2E7196)
Spectra Averaged: 10 (USB2E7196)
Boxcar Smoothing: 10 (USB2E7196)
Correct for Electrical Dark: No (USB2E7196)
Strobe/Lamp Enabled: No (USB2E7196)
Correct for Detector Non-linearity: No (USB2E7196)
Correct for Stray Light: No (USB2E7196)
Number of Pixels in Processed Spectrum: 2048
>>>>>Begin Processed Spectral Data<<<<<
339.09	0.00
339.48	215.20
339.86	218.80
340.24	218.80
340.63	219.40
341.01	223.50
341.39	222.30
341.78	222.50
342.16	225.30
342.54	223.40
342.93	213.93
343.31	224.75
343.69	225.40
344.07	225.80
344.46	226.22
344.84	226.59
345.22	226.72
345.60	227.01
345.99	227.27
346.37	227.39
346.75	227.55
347.13	227.61
347.52	227.69
347.90	227.87
348.28	227.92
348.66	227.90
349.05	227.81
349.43	227.89
349.81	227.94
350.19	227.91
350.57	227.97
350.96	228.06
351.34	228.18
351.72	228.21
352.10	228.35
352.48	228.39
352.87	228.54
353.25	228.70
353.63	228.78
354.01	228.89
354.39	229.11
354.77	229.21
355.15	229.40
355.54	229.44
355.92	229.46
356.30	229.49
356.68	229.76
357.06	229.93
357.44	229.96
357.82	230.00
358.20	230.10
358.58	230.20
358.97	230.26
359.35	230.30
359.73	230.39
360.11	230.43
360.49	230.51
360.87	230.57
361.25	230.64
361.63	230.80
362.01	230.87
362.39	230.78
362.77	230.79
363.15	230.76
363.53	230.94
363.91	231.08
364.29	231.23
364.67	231.08
365.05	230.95
365.43	231.02
365.81	231.09
366.19	231.12
366.57	231.17
366.95	231.14
367.33	231.06
367.71	231.00
368.09	230.94
368.47	230.93
368.85	230.80
369.23	230.86
369.61	230.67
369.99	230.65
370.37	230.60
370.75	230.72
371.13	230.54
371.51	230.35
371.89	230.20
372.27	230.15
372.65	230.07
373.03	230.10
373.41	230.06
373.78	230.06
374.16	229.89
374.54	229.85
374.92	229.78
375.30	229.73
375.68	229.59
376.06	229.50
376.44	229.31
376.82	229.38
377.19	229.18
377.57	229.12
377.95	228.89
378.33	228.83
378.71	228.54
379.09	228.52
379.47	228.54
379.84	228.42
380.22	228.24
380.60	228.15
380.98	228.11
381.36	227.98
381.73	227.72
382.11	227.68
382.49	227.59
382.87	227.43
383.25	227.38
383.62	227.53
384.00	227.50
384.38	227.51
384.76	227.37
385.13	227.39
385.51	227.34
385.89	227.29
386.27	227.14
386.64	227.24
387.02	227.17
387.40	226.98
387.78	226.90
388.15	226.90
388.53	226.81
388.91	226.76
389.29	226.66
389.66	226.71
390.04	226.76
390.42	226.70
390.79	226.75
391.17	226.72
391.55	226.56
391.92	226.46
392.30	226.52
392.68	226.48
393.05	226.48
393.43	226.44
393.81	226.56
394.18	226.67
394.56	226.61
394.94	226.83
395.31	226.90
395.69	227.07
396.06	227.14
396.44	227.24
396.82	227.33
397.19	227.52
397.57	227.60
397.95	227.70
398.32	227.68
398.70	227.78
399.07	227.94
399.45	227.99
399.82	228.14
400.20	228.12
400.58	228.38
400.95	228.41
401.33	228.58
401.70	228.87
402.08	229.02
402.45	229.23
402.83	229.34
403.20	229.51
403.58	229.68
403.95	229.90
404.33	230.17
404.71	230.32
405.08	230.67
405.46	230.93
405.83	231.14
406.21	231.50
406.58	231.75
406.96	232.06
407.33	232.39
407.70	232.80
408.08	233.40
408.45	233.73
408.83	234.22
409.20	234.74
409.58	235.06
409.95	235.50
410.33	235.95
410.70	236.44
411.08	237.00
411.45	237.53
411.82	238.14
412.20	238.78
412.57	239.56
412.95	240.10
413.32	240.93
413.69	241.78
414.07	242.72
414.44	243.71
414.82	244.70
415.19	245.79
415.56	246.83
415.94	248.05
416.31	249.33
416.68	250.54
417.06	251.95
417.43	253.31
417.81	255.00
418.18	256.70
418.55	258.43
418.93	260.38
419.30	262.23
419.67	264.11
420.04	266.31
420.42	268.48
420.79	271.13
421.16	273.60
421.54	276.10
421.91	278.70
422.28	281.43
422.66	284.28
423.03	287.19
423.40	290.08
423.77	293.19
424.15	296.42
424.52	299.80
424.89	303.42
425.26	307.00
425.64	310.35
426.01	314.00
426.38	317.82
426.75	321.55
427.13	325.63
427.50	329.87
427.87	334.13
428.24	338.39
428.61	342.35
428.99	346.88
429.36	352.02
429.73	357.07
430.10	361.89
430.47	366.90
430.85	372.09
431.22	377.49
431.59	383.11
431.96	388.56
432.33	394.61
432.70	400.41
433.08	407.39
433.45	413.81
433.82	420.08
434.19	427.15
434.56	434.14
434.93	440.79
435.30	447.50
435.68	454.90
436.05	462.20
436.42	469.43
436.79	475.89
437.16	482.87
437.53	490.20
437.90	497.63
438.27	504.92
438.64	512.30
439.01	519.44
439.38	525.70
439.75	531.79
440.13	538.71
440.50	545.39
440.87	550.77
441.24	556.62
441.61	562.94
441.98	567.70
442.35	573.10
442.72	578.64
443.09	583.98
443.46	587.28
443.83	589.93
444.20	592.17
444.57	595.31
444.94	596.93
445.31	598.75
445.68	600.41
446.05	601.69
446.42	601.82
446.79	601.80
447.16	601.62
447.53	601.85
447.90	599.85
448.27	597.85
448.64	594.74
449.01	592.79
449.37	588.80
449.74	584.82
450.11	580.20
450.48	574.94
450.85	569.37
451.22	564.69
451.59	560.17
451.96	556.12
452.33	550.24
452.70	545.10
453.07	538.60
453.43	532.27
453.80	525.66
454.17	519.41
454.54	513.38
454.91	506.92
455.28	500.42
455.65	494.56
456.02	488.71
456.38	483.66
456.75	477.10
457.12	471.63
457.49	466.36
457.86	461.00
458.23	456.52
458.59	451.53
458.96	446.54
459.33	441.87
459.70	437.20
460.07	433.55
460.43	429.20
460.80	425.13
461.17	421.40
461.54	417.60
461.91	413.95
462.27	410.25
462.64	407.16
463.01	403.84
463.38	400.60
463.74	397.08
464.11	394.07
464.48	391.38
464.85	388.49
465.21	386.10
465.58	383.76
465.95	380.88
466.32	378.65
466.68	376.33
467.05	373.88
467.42	371.53
467.78	369.14
468.15	366.75
468.52	365.01
468.88	362.69
469.25	360.76
469.62	359.12
469.98	357.39
470.35	355.76
470.72	354.07
471.08	352.29
471.45	350.80
471.82	349.20
472.18	347.60
472.55	346.52
472.92	345.05
473.28	343.59
473.65	342.31
474.02	340.94
474.38	339.80
474.75	339.09
475.11	337.98
475.48	337.09
475.85	336.36
476.21	335.53
476.58	334.93
476.94	334.32
477.31	333.80
477.67	333.03
478.04	332.38
478.41	331.94
478.77	331.62
479.14	331.16
479.50	330.79
479.87	330.52
480.23	330.20
480.60	329.96
480.96	329.83
481.33	329.70
481.69	329.71
482.06	329.57
482.42	329.28
482.79	329.32
483.15	329.47
483.52	329.76
483.88	329.89
484.25	329.85
484.61	329.96
484.98	330.08
485.34	330.59
485.71	331.03
486.07	331.44
486.44	331.76
486.80	332.34
487.17	332.99
487.53	333.68
487.90	334.39
488.26	335.25
488.62	336.12
488.99	336.89
489.35	337.63
489.72	338.63
490.08	339.71
490.44	340.59
490.81	341.50
491.17	342.40
491.54	343.47
491.90	344.66
492.26	346.01
492.63	347.23
492.99	348.43
493.36	349.60
493.72	351.06
494.08	352.45
494.45	353.93
494.81	355.37
495.17	356.79
495.54	358.17
495.90	359.70
496.26	361.09
496.63	362.64
496.99	364.30
497.35	365.92
497.72	367.54
498.08	369.23
498.44	370.98
498.80	372.76
499.17	374.42
499.53	376.05
499.89	377.62
500.26	379.23
500.62	380.67
500.98	382.45
501.34	383.81
501.71	385.53
502.07	386.88
502.43	388.18
502.79	389.58
503.16	391.08
503.52	392.40
503.88	393.77
504.24	395.18
504.60	396.53
504.97	397.82
505.33	399.10
505.69	400.47
506.05	401.60
506.41	402.70
506.78	403.73
507.14	404.97
507.50	406.12
507.86	407.23
508.22	408.35
508.59	409.19
508.95	410.13
509.31	410.90
509.67	411.88
510.03	412.81
510.39	413.60
510.75	414.39
511.12	415.21
511.48	416.00
511.84	416.88
512.20	417.38
512.56	418.06
512.92	418.50
513.28	418.89
513.64	419.30
514.00	419.68
514.37	420.29
514.73	420.64
515.09	420.86
515.45	421.15
515.81	421.52
516.17	421.88
516.53	422.19
516.89	422.42
517.25	422.66
517.61	422.99
517.97	423.24
518.33	423.41
518.69	423.49
519.05	423.76
519.41	423.71
519.77	424.16
520.13	424.42
520.49	424.80
520.85	425.19
521.21	425.59
521.57	425.98
521.93	426.17
522.29	426.51
522.65	426.84
523.01	427.15
523.37	427.56
523.73	428.03
524.09	428.59
524.45	429.17
524.81	429.49
525.17	430.13
525.53	430.94
525.89	431.56
526.25	432.44
526.61	433.06
526.97	433.93
527.33	434.71
527.68	435.65
528.04	436.66
528.40	437.45
528.76	438.56
529.12	439.93
529.48	441.31
529.84	442.70
530.20	444.35
530.56	445.83
530.91	447.48
531.27	449.13
531.63	450.63
531.99	452.29
532.35	454.11
532.71	456.00
533.07	457.82
533.42	460.06
533.78	462.03
534.14	464.26
534.50	466.45
534.86	468.87
535.21	471.08
535.57	473.54
535.93	476.30
536.29	478.74
536.65	481.19
537.00	483.78
537.36	486.50
537.72	489.20
538.08	492.06
538.44	494.88
538.79	497.65
539.15	500.71
539.51	503.89
539.87	507.12
540.22	510.15
540.58	513.50
540.94	516.68
541.29	519.90
541.65	523.16
542.01	526.69
542.37	529.91
542.72	533.38
543.08	536.86
543.44	540.36
543.79	544.00
544.15	547.78
544.51	551.50
544.87	555.19
545.22	559.05
545.58	562.91
545.94	566.64
546.29	570.50
546.65	574.33
547.01	577.93
547.36	581.90
547.72	585.78
548.07	589.50
548.43	593.27
548.79	597.25
549.14	601.05
549.50	604.90
549.86	608.96
550.21	612.74
550.57	616.69
550.92	620.61
551.28	624.63
551.64	628.34
551.99	632.36
552.35	636.19
552.70	639.79
553.06	643.96
553.41	648.06
553.77	652.24
554.13	656.38
554.48	660.58
554.84	664.60
555.19	668.60
555.55	672.87
555.90	676.92
556.26	680.89
556.61	684.92
556.97	688.94
557.32	693.08
557.68	697.11
558.03	701.07
558.39	705.04
558.74	709.02
559.10	713.20
559.45	717.02
559.81	721.21
560.16	725.30
560.52	729.00
560.87	732.79
561.23	736.48
561.58	740.49
561.94	744.35
562.29	747.88
562.64	751.52
563.00	754.71
563.35	758.74
563.71	762.74
564.06	766.65
564.42	770.14
564.77	773.28
565.12	777.06
565.48	780.62
565.83	783.92
566.19	787.41
566.54	790.45
566.89	793.95
567.25	797.19
567.60	800.52
567.96	803.90
568.31	807.11
568.66	810.31
569.02	813.18
569.37	815.93
569.72	819.28
570.08	822.40
570.43	825.45
570.78	827.96
571.14	830.41
571.49	832.82
571.84	835.48
572.20	838.28
572.55	840.61
572.90	843.04
573.26	845.74
573.61	848.05
573.96	850.08
574.31	851.85
574.67	853.43
575.02	855.07
575.37	856.63
575.72	858.04
576.08	859.62
576.43	860.95
576.78	862.60
577.13	863.93
577.49	865.17
577.84	866.70
578.19	867.85
578.54	868.85
578.90	869.98
579.25	870.92
579.60	871.62
579.95	872.37
580.30	872.85
580.66	873.20
581.01	873.29
581.36	874.24
581.71	875.20
582.06	876.29
582.42	876.81
582.77	877.26
583.12	877.86
583.47	878.42
583.82	878.96
584.17	879.08
584.53	879.29
584.88	879.29
585.23	879.47
585.58	879.55
585.93	879.60
586.28	879.79
586.63	880.14
586.98	880.43
587.34	880.55
587.69	880.95
588.04	881.06
588.39	881.30
588.74	880.87
589.09	880.16
589.44	879.22
589.79	879.18
590.14	879.09
590.49	878.65
590.84	877.69
591.19	877.23
591.54	876.60
591.89	875.32
592.25	874.95
592.60	873.72
592.95	872.77
593.30	872.07
593.65	871.01
594.00	869.49
594.35	868.51
594.70	867.11
595.05	865.77
595.40	864.54
595.75	863.09
596.10	861.93
596.45	860.82
596.80	859.89
597.15	858.79
597.50	857.40
597.85	856.58
598.19	855.76
598.54	854.55
598.89	853.48
599.24	852.63
599.59	851.35
599.94	850.34
600.29	849.28
600.64	847.73
600.99	846.06
601.34	845.16
601.69	843.30
602.04	841.82
602.39	840.00
602.74	838.64
603.08	837.57
603.43	836.35
603.78	835.18
604.13	833.81
604.48	831.72
604.83	830.09
605.18	828.08
605.53	826.05
605.87	823.82
606.22	822.15
606.57	820.21
606.92	818.24
607.27	816.56
607.62	814.76
607.96	813.30
608.31	811.79
608.66	809.59
609.01	807.71
609.36	805.57
609.70	803.36
610.05	801.01
610.40	798.66
610.75	796.31
611.10	793.65
611.44	790.96
611.79	788.80
612.14	786.21
612.49	783.40
612.83	780.82
613.18	778.67
613.53	776.13
613.88	773.61
614.22	770.95
614.57	768.08
614.92	765.44
615.27	762.84
615.61	759.87
615.96	757.24
616.31	754.87
616.65	752.79
617.00	750.61
617.35	748.25
617.70	745.74
618.04	743.06
618.39	740.60
618.74	738.10
619.08	735.48
619.43	732.97
619.78	730.89
620.12	728.52
620.47	725.91
620.82	723.08
621.16	720.45
621.51	718.13
621.85	715.62
622.20	712.82
622.55	709.94
622.89	707.55
623.24	705.20
623.59	702.78
623.93	700.40
624.28	697.79
624.62	695.29
624.97	692.85
625.32	690.52
625.66	688.07
626.01	685.82
626.35	683.31
626.70	680.84
627.04	678.48
627.39	675.81
627.73	673.25
628.08	670.93
628.43	668.57
628.77	666.03
629.12	663.51
629.46	661.08
629.81	658.65
630.15	656.07
630.50	653.20
630.84	650.45
631.19	647.37
631.53	644.73
631.88	641.89
632.22	638.86
632.57	636.08
632.91	633.49
633.26	630.67
633.60	628.12
633.95	625.44
634.29	622.69
634.64	620.30
634.98	617.74
635.32	615.17
635.67	613.00
636.01	610.45
636.36	607.90
636.70	605.65
637.05	603.14
637.39	600.95
637.73	598.70
638.08	596.42
638.42	594.31
638.77	592.11
639.11	589.75
639.45	587.46
639.80	585.13
640.14	582.76
640.49	580.50
640.83	578.09
641.17	575.84
641.52	573.37
641.86	571.07
642.20	568.88
642.55	566.61
642.89	564.03
643.23	561.52
643.58	559.38
643.92	556.79
644.26	554.38
644.61	551.98
644.95	549.69
645.29	547.12
645.64	544.57
645.98	542.16
646.32	539.86
646.66	537.60
647.01	535.26
647.35	532.84
647.69	530.60
648.04	528.41
648.38	525.97
648.72	523.52
649.06	520.92
649.41	518.58
649.75	515.93
650.09	513.64
650.43	511.48
650.78	508.86
651.12	506.53
651.46	504.21
651.80	501.85
652.14	499.60
652.49	497.52
652.83	495.47
653.17	493.02
653.51	490.79
653.85	488.58
654.20	486.26
654.54	483.95
654.88	481.46
655.22	478.98
655.56	476.55
655.90	474.48
656.25	472.44
656.59	470.20
656.93	468.24
657.27	466.10
657.61	463.89
657.95	461.85
658.29	459.73
658.64	457.72
658.98	455.62
659.32	453.21
659.66	450.90
660.00	448.74
660.34	446.71
660.68	444.54
661.02	442.57
661.36	440.68
661.70	438.80
662.05	437.09
662.39	435.50
662.73	433.85
663.07	431.98
663.41	430.38
663.75	428.44
664.09	426.71
664.43	424.93
664.77	423.14
665.11	421.49
665.45	419.92
665.79	418.20
666.13	416.59
666.47	415.18
666.81	413.58
667.15	411.74
667.49	410.12
667.83	408.57
668.17	406.74
668.51	404.89
668.85	403.36
669.19	401.81
669.53	399.99
669.87	398.44
670.21	396.99
670.55	395.31
670.89	394.10
671.23	392.66
671.57	391.06
671.91	389.56
672.25	388.00
672.58	386.55
672.92	385.11
673.26	383.68
673.60	382.28
673.94	380.93
674.28	379.78
674.62	378.67
674.96	377.38
675.30	376.28
675.64	375.20
675.97	373.93
676.31	372.60
676.65	371.37
676.99	370.08
677.33	368.74
677.67	367.40
678.01	365.93
678.34	364.53
678.68	363.36
679.02	362.26
679.36	361.15
679.70	359.87
680.04	358.63
680.37	357.31
680.71	356.06
681.05	355.02
681.39	353.83
681.73	352.62
682.06	351.56
682.40	350.34
682.74	349.28
683.08	348.13
683.42	346.86
683.75	345.75
684.09	344.61
684.43	343.39
684.77	342.33
685.10	341.19
685.44	340.13
685.78	339.06
686.12	337.83
686.45	336.81
686.79	335.60
687.13	334.59
687.46	333.58
687.80	332.37
688.14	331.26
688.48	330.20
688.81	329.00
689.15	327.89
689.49	326.75
689.82	325.70
690.16	324.54
690.50	323.52
690.83	322.63
691.17	321.70
691.51	320.76
691.84	319.96
692.18	319.01
692.52	317.92
692.85	316.93
693.19	316.06
693.52	315.00
693.86	314.11
694.20	313.18
694.53	312.32
694.87	311.61
695.21	310.56
695.54	309.70
695.88	308.88
696.21	307.95
696.55	307.26
696.88	306.36
697.22	305.47
697.56	304.72
697.89	303.77
698.23	302.90
698.56	302.20
698.90	301.24
699.23	300.45
699.57	299.65
699.90	298.85
700.24	298.06
700.58	297.34
700.91	296.58
701.25	296.03
701.58	295.39
701.92	294.53
702.25	293.85
702.59	293.17
702.92	292.54
703.26	291.86
703.59	291.25
703.93	290.80
704.26	290.27
704.60	289.59
704.93	288.98
705.26	288.36
705.60	287.79
705.93	287.18
706.27	286.62
706.60	286.14
706.94	285.58
707.27	284.95
707.61	284.40
707.94	283.92
708.27	283.17
708.61	282.50
708.94	282.03
709.28	281.59
709.61	280.98
709.94	280.42
710.28	280.00
710.61	279.33
710.95	278.48
711.28	278.05
711.61	277.62
711.95	277.13
712.28	276.56
712.61	275.94
712.95	275.47
713.28	275.08
713.61	274.61
713.95	274.05
714.28	273.55
714.61	272.98
714.95	272.54
715.28	272.04
715.61	271.50
715.95	271.04
716.28	270.56
716.61	270.12
716.95	269.65
717.28	269.06
717.61	268.76
717.94	268.34
718.28	267.83
718.61	267.38
718.94	266.90
719.27	266.54
719.61	266.11
719.94	265.66
720.27	265.25
720.60	264.88
720.94	264.60
721.27	264.26
721.60	264.03
721.93	263.68
722.27	263.43
722.60	263.19
722.93	262.79
723.26	262.33
723.59	262.01
723.93	261.61
724.26	261.26
724.59	260.83
724.92	260.54
725.25	260.23
725.59	259.79
725.92	259.48
726.25	259.07
726.58	258.62
726.91	258.26
727.24	257.90
727.57	257.42
727.91	257.05
728.24	256.82
728.57	256.41
728.90	256.03
729.23	255.58
729.56	255.25
729.89	254.99
730.22	254.70
730.55	254.35
730.89	254.13
731.22	253.91
731.55	253.59
731.88	253.25
732.21	252.84
732.54	252.64
732.87	252.28
733.20	252.03
733.53	251.90
733.86	251.69
734.19	251.33
734.52	251.17
734.85	251.00
735.18	250.61
735.51	250.44
735.84	250.18
736.17	250.06
736.50	249.74
736.83	249.73
737.16	249.52
737.49	249.37
737.82	249.06
738.15	248.90
738.48	248.66
738.81	248.66
739.14	248.45
739.47	248.18
739.80	248.03
740.13	247.83
740.46	247.63
740.79	247.44
741.12	247.36
741.45	247.10
741.78	246.84
742.11	246.79
742.44	246.54
742.77	246.53
743.10	246.34
743.43	246.20
743.75	245.89
744.08	245.98
744.41	245.72
744.74	245.62
745.07	245.47
745.40	245.46
745.73	245.30
746.06	245.31
746.39	245.23
746.71	245.11
747.04	245.05
747.37	244.91
747.70	244.82
748.03	244.60
748.36	244.58
748.68	244.41
749.01	244.11
749.34	244.00
749.67	243.80
750.00	243.66
750.33	243.64
750.65	243.48
750.98	243.09
751.31	242.94
751.64	242.88
751.97	242.89
752.29	242.77
752.62	242.47
752.95	242.25
753.28	242.06
753.60	241.95
753.93	241.83
754.26	241.81
754.59	241.62
754.91	241.44
755.24	241.32
755.57	241.19
755.90	241.12
756.22	241.01
756.55	240.78
756.88	240.63
757.20	240.30
757.53	240.07
757.86	239.95
758.19	239.85
758.51	239.69
758.84	239.35
759.17	239.14
759.49	239.06
759.82	239.03
760.15	238.97
760.47	238.86
760.80	238.73
761.13	238.50
761.45	238.34
761.78	238.25
762.11	238.09
762.43	237.90
762.76	237.79
763.08	237.60
763.41	237.48
763.74	237.36
764.06	237.21
764.39	237.23
764.71	237.15
765.04	237.08
765.37	236.95
765.69	236.83
766.02	236.73
766.34	236.55
766.67	236.34
767.00	236.28
767.32	236.21
767.65	236.22
767.97	236.20
768.30	236.10
768.62	235.91
768.95	235.84
769.27	235.78
769.60	235.77
769.92	235.63
770.25	235.55
770.57	235.37
770.90	235.36
771.22	235.10
771.55	235.00
771.87	234.88
772.20	234.82
772.52	234.94
772.85	235.09
773.17	235.14
773.50	235.03
773.82	234.84
774.15	234.72
774.47	234.42
774.80	234.30
775.12	234.24
775.45	234.21
775.77	234.12
776.09	234.13
776.42	233.92
776.74	233.94
777.07	233.82
777.39	233.80
777.72	233.81
778.04	233.88
778.36	233.76
778.69	233.71
779.01	233.60
779.33	233.37
779.66	233.09
779.98	232.90
780.31	232.88
780.63	232.98
780.95	232.93
781.28	232.98
781.60	232.97
781.92	232.95
782.25	232.94
782.57	232.98
782.89	232.85
783.22	232.87
783.54	232.84
783.86	232.85
784.19	232.83
784.51	232.78
784.83	232.65
785.16	232.69
785.48	232.58
785.80	232.60
786.12	232.55
786.45	232.54
786.77	232.60
787.09	232.62
787.42	232.60
787.74	232.55
788.06	232.57
788.38	232.50
788.71	232.44
789.03	232.51
789.35	232.51
789.67	232.40
789.99	232.50
790.32	232.45
790.64	232.42
790.96	232.53
791.28	232.46
791.61	232.54
791.93	232.57
792.25	232.60
792.57	232.64
792.89	232.67
793.21	232.61
793.54	232.52
793.86	232.47
794.18	232.40
794.50	232.36
794.82	232.20
795.14	232.20
795.47	232.16
795.79	232.16
796.11	231.99
796.43	232.06
796.75	231.96
797.07	231.96
797.39	231.93
797.71	231.78
798.04	231.80
798.36	231.75
798.68	231.68
799.00	231.71
799.32	231.67
799.64	231.69
799.96	231.69
800.28	231.71
800.60	231.68
800.92	231.73
801.24	231.72
801.56	231.82
801.89	231.78
802.21	231.92
802.53	231.84
802.85	231.98
803.17	232.03
803.49	231.93
803.81	231.88
804.13	231.85
804.45	231.82
804.77	231.75
805.09	231.74
805.41	231.64
805.73	231.60
806.05	231.50
806.37	231.39
806.69	231.38
807.01	231.37
807.33	231.32
807.65	231.14
807.97	231.15
808.28	231.02
808.60	230.98
808.92	230.82
809.24	230.90
809.56	230.78
809.88	230.76
810.20	230.78
810.52	230.73
810.84	230.72
811.16	230.69
811.48	230.68
811.80	230.65
812.12	230.68
812.43	230.68
812.75	230.59
813.07	230.58
813.39	230.51
813.71	230.47
814.03	230.45
814.35	230.48
814.67	230.32
814.98	230.28
815.30	230.28
815.62	230.22
815.94	229.98
816.26	229.93
816.58	229.78
816.89	229.70
817.21	229.67
817.53	229.62
817.85	229.50
818.17	229.49
818.48	229.30
818.80	229.28
819.12	229.16
819.44	229.18
819.76	229.05
820.07	228.98
820.39	228.86
820.71	228.88
821.03	228.76
821.34	228.84
821.66	228.79
821.98	228.74
822.30	228.73
822.61	228.90
822.93	228.85
823.25	228.82
823.57	228.85
823.88	228.94
824.20	228.88
824.52	228.95
824.83	228.84
825.15	228.83
825.47	228.81
825.79	228.87
826.10	228.82
826.42	228.95
826.74	229.08
827.05	229.17
827.37	229.14
827.69	229.16
828.00	229.13
828.32	229.19
828.64	229.20
828.95	229.25
829.27	229.20
829.58	229.17
829.90	229.23
830.22	229.21
830.53	229.17
830.85	229.24
831.17	229.22
831.48	229.34
831.80	229.46
832.11	229.44
832.43	229.39
832.75	229.37
833.06	229.40
833.38	229.33
833.69	229.25
834.01	229.22
834.32	229.32
834.64	229.36
834.96	229.30
835.27	229.29
835.59	229.18
835.90	229.10
836.22	229.17
836.53	229.09
836.85	229.14
837.16	229.28
837.48	229.23
837.79	229.33
838.11	229.20
838.42	229.21
838.74	229.21
839.05	229.23
839.37	229.30
839.68	229.20
840.00	229.10
840.31	229.16
840.63	229.10
840.94	228.96
841.26	228.86
841.57	228.94
841.88	228.93
842.20	228.99
842.51	228.96
842.83	228.84
843.14	229.06
843.46	228.98
843.77	228.88
844.08	228.93
844.40	228.84
844.71	228.92
845.03	228.84
845.34	228.84
845.65	228.80
845.97	228.80
846.28	228.76
846.60	228.87
846.91	228.86
847.22	228.87
847.54	228.86
847.85	228.96
848.16	228.92
848.48	228.91
848.79	229.04
849.10	229.07
849.42	229.10
849.73	228.96
850.04	228.94
850.36	228.91
850.67	228.90
850.98	228.82
851.30	228.82
851.61	228.92
851.92	228.94
852.23	229.10
852.55	229.00
852.86	229.01
853.17	228.96
853.49	228.90
853.80	229.06
854.11	229.19
854.42	229.20
854.74	229.20
855.05	229.20
855.36	229.07
855.67	228.97
855.99	229.00
856.30	229.19
856.61	229.25
856.92	229.19
857.23	229.15
857.55	229.13
857.86	229.00
858.17	229.00
858.48	228.97
858.79	228.86
859.11	228.80
859.42	228.86
859.73	228.80
860.04	228.90
860.35	228.80
860.66	228.65
860.98	228.52
861.29	228.50
861.60	228.44
861.91	228.44
862.22	228.60
862.53	228.56
862.84	228.34
863.16	228.34
863.47	228.32
863.78	228.25
864.09	228.29
864.40	228.37
864.71	228.31
865.02	228.35
865.33	228.34
865.64	228.43
865.95	228.40
866.27	228.56
866.58	228.48
866.89	228.48
867.20	228.55
867.51	228.55
867.82	228.44
868.13	228.54
868.44	228.50
868.75	228.45
869.06	228.54
869.37	228.53
869.68	228.53
869.99	228.59
870.30	228.68
870.61	228.70
870.92	228.77
871.23	228.72
871.54	228.69
871.85	228.64
872.16	228.68
872.47	228.73
872.78	228.61
873.09	228.59
873.40	228.52
873.71	228.60
874.02	228.64
874.33	228.74
874.64	228.65
874.95	228.79
875.26	228.78
875.56	228.64
875.87	228.62
876.18	228.59
876.49	228.81
876.80	228.77
877.11	228.75
877.42	228.65
877.73	228.69
878.04	228.68
878.35	228.77
878.66	228.71
878.96	228.66
879.27	228.61
879.58	228.68
879.89	228.70
880.20	228.63
880.51	228.57
880.82	228.51
881.12	228.53
881.43	228.38
881.74	228.37
882.05	228.38
882.36	228.40
882.67	228.39
882.97	228.10
883.28	228.08
883.59	228.08
883.90	228.03
884.21	227.95
884.51	227.86
884.82	227.76
885.13	227.76
885.44	227.71
885.74	227.78
886.05	227.61
886.36	227.58
886.67	227.56
886.98	227.71
887.28	227.81
887.59	227.85
887.90	227.94
888.20	227.88
888.51	227.93
888.82	227.97
889.13	227.97
889.43	228.10
889.74	228.22
890.05	228.16
890.35	228.23
890.66	228.32
890.97	228.40
891.28	228.46
891.58	228.44
891.89	228.46
892.20	228.28
892.50	228.42
892.81	228.36
893.12	228.34
893.42	228.24
893.73	228.21
894.04	228.22
894.34	228.17
894.65	228.18
894.95	228.10
895.26	228.04
895.57	228.11
895.87	227.93
896.18	227.83
896.48	227.87
896.79	227.86
897.10	227.81
897.40	227.78
897.71	227.67
898.01	227.77
898.32	227.75
898.63	227.90
898.93	227.79
899.24	227.91
899.54	227.91
899.85	227.86
900.15	227.83
900.46	227.78
900.76	227.76
901.07	227.81
901.38	227.94
901.68	227.94
901.99	227.80
902.29	227.93
902.60	227.95
902.90	227.96
903.21	227.98
903.51	227.95
903.82	228.05
904.12	228.14
904.43	228.10
904.73	228.12
905.03	228.17
905.34	228.46
905.64	228.40
905.95	228.43
906.25	228.47
906.56	228.48
906.86	228.52
907.17	228.61
907.47	228.56
907.77	228.50
908.08	228.44
908.38	228.51
908.69	228.45
908.99	228.46
909.30	228.48
909.60	228.51
909.90	228.62
910.21	228.47
910.51	228.42
910.81	228.42
911.12	228.42
911.42	228.38
911.73	228.15
912.03	228.20
912.33	228.16
912.64	228.16
912.94	228.17
913.24	228.09
913.55	228.02
913.85	228.02
914.15	228.01
914.46	228.08
914.76	228.13
915.06	228.16
915.37	228.18
915.67	228.21
915.97	228.14
916.27	227.98
916.58	228.10
916.88	228.08
917.18	228.05
917.49	228.11
917.79	228.16
918.09	228.21
918.39	228.24
918.70	228.39
919.00	228.34
919.30	228.46
919.60	228.50
919.91	228.44
920.21	228.56
920.51	228.54
920.81	228.51
921.12	228.50
921.42	228.45
921.72	228.40
922.02	228.43
922.32	228.46
922.63	228.55
922.93	228.67
923.23	228.64
923.53	228.65
923.83	228.69
924.13	228.69
924.44	228.66
924.74	228.59
925.04	228.57
925.34	228.61
925.64	228.43
925.94	228.42
926.24	228.60
926.55	228.50
926.85	228.62
927.15	228.65
927.45	228.63
927.75	228.66
928.05	228.77
928.35	228.66
928.65	228.68
928.95	228.69
929.26	228.57
929.56	228.68
929.86	228.73
930.16	228.64
930.46	228.61
930.76	228.60
931.06	228.57
931.36	228.42
931.66	228.48
931.96	228.49
932.26	228.50
932.56	228.40
932.86	228.46
933.16	228.37
933.46	228.34
933.76	228.33
934.06	228.26
934.36	228.20
934.66	228.21
934.96	228.15
935.26	228.14
935.56	228.15
935.86	228.07
936.16	227.97
936.46	227.91
936.76	227.87
937.06	227.76
937.36	227.80
937.66	227.84
937.96	227.72
938.26	227.70
938.56	227.64
938.86	227.63
939.16	227.59
939.46	227.58
939.76	227.50
940.06	227.37
940.35	227.37
940.65	227.25
940.95	227.19
941.25	227.19
941.55	227.13
941.85	227.09
942.15	227.20
942.45	227.23
942.75	227.17
943.04	227.22
943.34	227.32
943.64	227.27
943.94	227.28
944.24	227.36
944.54	227.40
944.84	227.51
945.13	227.45
945.43	227.44
945.73	227.40
946.03	227.42
946.33	227.47
946.62	227.54
946.92	227.59
947.22	227.60
947.52	227.58
947.82	227.64
948.11	227.67
948.41	227.70
948.71	227.65
949.01	227.64
949.31	227.63
949.60	227.64
949.90	227.70
950.20	227.73
950.50	227.75
950.79	227.78
951.09	227.66
951.39	227.77
951.69	227.72
951.98	227.84
952.28	227.90
952.58	227.98
952.87	227.96
953.17	227.96
953.47	228.02
953.76	228.03
954.06	228.07
954.36	228.01
954.66	227.88
954.95	227.97
955.25	228.07
955.55	228.13
955.84	228.10
956.14	228.14
956.44	228.19
956.73	228.10
957.03	228.04
957.32	228.12
957.62	228.02
957.92	228.10
958.21	228.02
958.51	228.36
958.81	228.46
959.10	228.50
959.40	228.60
959.69	228.62
959.99	228.78
960.29	228.75
960.58	228.73
960.88	228.93
961.17	228.97
961.47	228.99
961.76	228.94
962.06	228.94
962.36	229.02
962.65	229.05
962.95	229.08
963.24	229.10
963.54	229.11
963.83	229.18
964.13	229.27
964.42	229.20
964.72	228.94
965.01	228.83
965.31	228.76
965.60	228.71
965.90	228.87
966.19	228.75
966.49	228.73
966.78	228.75
967.08	228.64
967.37	228.56
967.67	228.51
967.96	228.51
968.26	228.56
968.55	228.41
968.85	228.24
969.14	228.26
969.43	228.25
969.73	228.22
970.02	228.17
970.32	228.12
970.61	228.11
970.91	228.03
971.20	227.95
971.49	227.99
971.79	227.91
972.08	227.69
972.38	227.61
972.67	227.60
972.96	227.54
973.26	227.44
973.55	227.54
973.85	227.56
974.14	227.57
974.43	227.48
974.73	227.54
975.02	227.48
975.31	227.42
975.61	227.46
975.90	227.45
976.19	227.42
976.49	227.41
976.78	227.45
977.07	227.42
977.37	227.53
977.66	227.49
977.95	227.52
978.24	227.56
978.54	227.69
978.83	227.72
979.12	227.83
979.42	227.91
979.71	227.87
980.00	227.85
980.29	227.80
980.59	227.90
980.88	227.86
981.17	228.01
981.46	228.02
981.76	227.94
982.05	228.03
982.34	228.12
982.63	228.08
982.93	228.12
983.22	228.23
983.51	228.24
983.80	228.26
984.09	228.31
984.39	228.27
984.68	228.21
984.97	228.18
985.26	228.13
985.55	228.10
985.85	228.07
986.14	228.11
986.43	228.13
986.72	228.08
987.01	228.03
987.30	228.00
987.59	228.12
987.89	228.15
988.18	228.20
988.47	228.17
988.76	228.20
989.05	228.20
989.34	228.13
989.63	228.19
989.92	228.23
990.22	228.20
990.51	228.20
990.80	228.20
991.09	228.16
991.38	228.19
991.67	228.11
991.96	228.03
992.25	228.01
992.54	227.91
992.83	227.92
993.12	228.07
993.41	228.13
993.70	228.11
993.99	228.14
994.28	228.03
994.58	227.98
994.87	227.96
995.16	227.86
995.45	227.81
995.74	227.72
996.03	227.69
996.32	227.71
996.61	227.80
996.90	227.83
997.19	227.80
997.48	227.80
997.77	227.80
998.06	227.87
998.34	227.81
998.63	227.89
998.92	227.83
999.21	227.74
999.50	227.71
999.79	227.67
1000.08	227.60
1000.37	227.56
1000.66	227.64
1000.95	227.67
1001.24	227.65
1001.53	227.73
1001.82	227.66
1002.11	227.65
1002.40	227.65
1002.68	227.66
1002.97	227.70
1003.26	227.72
1003.55	227.62
1003.84	227.63
1004.13	227.65
1004.42	227.71
1004.71	227.80
1004.99	227.85
1005.28	227.77
1005.57	227.71
1005.86	227.67
1006.15	227.73
1006.44	227.70
1006.72	227.50
1007.01	227.47
1007.30	227.48
1007.59	227.45
1007.88	227.50
1008.17	227.50
1008.45	227.42
1008.74	227.30
1009.03	227.22
1009.32	227.21
1009.60	227.27
1009.89	227.23
1010.18	227.17
1010.47	227.10
1010.76	226.97
1011.04	227.09
1011.33	227.19
1011.62	227.18
1011.91	227.18
1012.19	227.25
1012.48	227.21
1012.77	227.30
1013.05	227.42
1013.34	227.52
1013.63	227.56
1013.92	227.61
1014.20	227.59
1014.49	227.64
1014.78	227.61
1015.06	227.61
1015.35	227.62
1015.64	227.66
1015.92	227.73
1016.21	227.80
1016.50	227.79
1016.78	227.87
1017.07	227.77
1017.36	227.73
1017.64	227.76
1017.93	227.78
1018.22	227.73
1018.50	227.84
1018.79	227.87
1019.08	227.73
1019.36	227.72
1019.65	227.71
1019.93	227.78
1020.22	227.87
1020.51	227.93
1020.79	228.07
1021.08	227.80
1021.36	227.90
1021.65	227.70
1021.94	228.00
1022.22	228.30
1022.51	228.20
1022.79	229.90
1023.08	229.40
1023.36	229.20
1023.65	228.70
>>>>>End Processed Spectral Data<<<<<
