SpectraSuite Data File
++++++++++++++++++++++++++++++++++++
Date: Fri Feb 01 14:35:32 EST 2013
User: group
Dark Spectrum Present: No
Reference Spectrum Present: No
Number of Sampled Component Spectra: 1
Spectrometers: USB2E7196
Integration Time (usec): 70000 (USB2E7196)
Spectra Averaged: 10 (USB2E7196)
Boxcar Smoothing: 10 (USB2E7196)
Correct for Electrical Dark: No (USB2E7196)
Strobe/Lamp Enabled: No (USB2E7196)
Correct for Detector Non-linearity: No (USB2E7196)
Correct for Stray Light: No (USB2E7196)
Number of Pixels in Processed Spectrum: 2048
>>>>>Begin Processed Spectral Data<<<<<
339.09	0.00
339.48	218.10
339.86	217.00
340.24	219.20
340.63	219.10
341.01	223.70
341.39	223.10
341.78	224.60
342.16	226.40
342.54	226.20
342.93	214.44
343.31	225.36
343.69	225.81
344.07	226.32
344.46	226.70
344.84	227.10
345.22	227.29
345.60	227.45
345.99	227.63
346.37	227.73
346.75	227.81
347.13	227.76
347.52	227.90
347.90	228.02
348.28	228.00
348.66	228.03
349.05	227.94
349.43	227.98
349.81	228.01
350.19	227.97
350.57	228.08
350.96	228.12
351.34	228.06
351.72	228.15
352.10	228.17
352.48	228.16
352.87	228.22
353.25	228.21
353.63	228.37
354.01	228.44
354.39	228.45
354.77	228.47
355.15	228.61
355.54	228.57
355.92	228.61
356.30	228.67
356.68	228.88
357.06	229.04
357.44	229.19
357.82	229.28
358.20	229.34
358.58	229.39
358.97	229.44
359.35	229.61
359.73	229.64
360.11	229.77
360.49	229.85
360.87	229.80
361.25	230.00
361.63	230.04
362.01	230.06
362.39	230.13
362.77	230.20
363.15	230.26
363.53	230.29
363.91	230.29
364.29	230.29
364.67	230.21
365.05	230.25
365.43	230.21
365.81	230.34
366.19	230.52
366.57	230.51
366.95	230.53
367.33	230.39
367.71	230.43
368.09	230.38
368.47	230.49
368.85	230.54
369.23	230.50
369.61	230.39
369.99	230.46
370.37	230.42
370.75	230.47
371.13	230.34
371.51	230.24
371.89	230.17
372.27	230.18
372.65	230.03
373.03	229.90
373.41	229.81
373.78	229.64
374.16	229.47
374.54	229.43
374.92	229.36
375.30	229.46
375.68	229.36
376.06	229.26
376.44	229.16
376.82	229.17
377.19	229.01
377.57	228.99
377.95	228.80
378.33	228.80
378.71	228.69
379.09	228.77
379.47	228.77
379.84	228.70
380.22	228.62
380.60	228.48
380.98	228.39
381.36	228.37
381.73	228.22
382.11	228.19
382.49	228.04
382.87	227.96
383.25	227.85
383.62	227.96
384.00	227.93
384.38	227.84
384.76	227.88
385.13	227.96
385.51	227.91
385.89	227.82
386.27	227.73
386.64	227.59
387.02	227.52
387.40	227.41
387.78	227.40
388.15	227.33
388.53	227.29
388.91	227.34
389.29	227.27
389.66	227.34
390.04	227.29
390.42	227.39
390.79	227.37
391.17	227.30
391.55	227.15
391.92	227.19
392.30	227.22
392.68	227.08
393.05	227.05
393.43	227.03
393.81	227.12
394.18	227.08
394.56	227.18
394.94	227.14
395.31	227.19
395.69	227.18
396.06	227.25
396.44	227.44
396.82	227.34
397.19	227.52
397.57	227.53
397.95	227.58
398.32	227.60
398.70	227.60
399.07	227.82
399.45	227.86
399.82	227.88
400.20	227.92
400.58	228.06
400.95	228.16
401.33	228.33
401.70	228.54
402.08	228.69
402.45	228.80
402.83	229.06
403.20	229.32
403.58	229.52
403.95	229.77
404.33	229.98
404.71	230.28
405.08	230.56
405.46	230.85
405.83	231.20
406.21	231.38
406.58	231.71
406.96	231.92
407.33	232.34
407.70	232.68
408.08	233.41
408.45	233.90
408.83	234.39
409.20	234.83
409.58	235.31
409.95	235.86
410.33	236.49
410.70	236.98
411.08	237.64
411.45	238.39
411.82	239.13
412.20	239.95
412.57	240.85
412.95	241.71
413.32	242.77
413.69	243.73
414.07	244.96
414.44	246.20
414.82	247.28
415.19	248.52
415.56	249.95
415.94	251.22
416.31	252.79
416.68	254.33
417.06	256.04
417.43	257.71
417.81	259.79
418.18	261.79
418.55	263.97
418.93	266.16
419.30	268.46
419.67	270.85
420.04	273.23
420.42	275.97
420.79	279.02
421.16	281.93
421.54	285.10
421.91	288.37
422.28	291.70
422.66	295.40
423.03	299.00
423.40	302.65
423.77	306.49
424.15	310.47
424.52	314.67
424.89	319.31
425.26	323.58
425.64	327.39
426.01	331.78
426.38	336.50
426.75	341.29
427.13	346.18
427.50	351.50
427.87	356.93
428.24	362.17
428.61	367.22
428.99	372.91
429.36	378.88
429.73	384.77
430.10	390.60
430.47	396.62
430.85	402.80
431.22	409.39
431.59	416.45
431.96	423.08
432.33	430.39
432.70	437.47
433.08	445.83
433.45	453.85
433.82	461.77
434.19	470.33
434.56	478.77
434.93	486.99
435.30	494.95
435.68	503.96
436.05	512.80
436.42	521.47
436.79	529.48
437.16	538.08
437.53	547.06
437.90	556.16
438.27	564.90
438.64	574.12
439.01	582.23
439.38	589.71
439.75	597.04
440.13	605.24
440.50	613.09
440.87	619.69
441.24	626.81
441.61	634.51
441.98	640.21
442.35	646.84
442.72	653.50
443.09	660.08
443.46	664.37
443.83	667.35
444.20	669.99
444.57	673.59
444.94	675.60
445.31	678.13
445.68	680.20
446.05	681.87
446.42	681.82
446.79	681.98
447.16	681.66
447.53	681.73
447.90	679.60
448.27	677.36
448.64	673.72
449.01	671.56
449.37	666.62
449.74	661.92
450.11	656.08
450.48	649.57
450.85	642.71
451.22	636.84
451.59	631.43
451.96	626.52
452.33	619.23
452.70	612.94
453.07	604.76
453.43	596.81
453.80	588.83
454.17	581.34
454.54	574.26
454.91	566.44
455.28	558.80
455.65	551.67
456.02	544.34
456.38	538.13
456.75	529.93
457.12	523.12
457.49	516.44
457.86	510.02
458.23	504.64
458.59	498.72
458.96	492.56
459.33	487.08
459.70	481.41
460.07	477.17
460.43	472.04
460.80	467.20
461.17	462.94
461.54	458.50
461.91	453.98
462.27	449.65
462.64	446.02
463.01	441.90
463.38	437.78
463.74	433.81
464.11	430.36
464.48	427.11
464.85	423.86
465.21	421.29
465.58	418.54
465.95	415.12
466.32	412.35
466.68	409.56
467.05	406.78
467.42	404.02
467.78	401.05
468.15	398.40
468.52	396.24
468.88	393.39
469.25	390.99
469.62	389.24
469.98	387.15
470.35	385.11
470.72	383.23
471.08	381.32
471.45	379.63
471.82	377.68
472.18	375.80
472.55	374.33
472.92	372.63
473.28	371.03
473.65	369.47
474.02	367.84
474.38	366.55
474.75	365.44
475.11	364.24
475.48	363.17
475.85	362.17
476.21	361.27
476.58	360.60
476.94	359.90
477.31	359.07
477.67	358.31
478.04	357.68
478.41	357.36
478.77	357.00
479.14	356.47
479.50	356.27
479.87	356.24
480.23	356.17
480.60	355.95
480.96	355.71
481.33	355.85
481.69	355.87
482.06	355.87
482.42	355.88
482.79	356.01
483.15	356.43
483.52	356.80
483.88	357.08
484.25	357.39
484.61	357.70
484.98	357.99
485.34	358.66
485.71	359.34
486.07	359.91
486.44	360.43
486.80	361.30
487.17	362.16
487.53	363.00
487.90	363.89
488.26	365.10
488.62	366.23
488.99	367.16
489.35	368.39
489.72	369.87
490.08	371.31
490.44	372.70
490.81	374.20
491.17	375.70
491.54	377.48
491.90	379.08
492.26	380.91
492.63	382.90
492.99	384.64
493.36	386.60
493.72	388.61
494.08	390.54
494.45	392.60
494.81	394.70
495.17	396.97
495.54	399.21
495.90	401.54
496.26	403.83
496.63	406.35
496.99	408.84
497.35	411.23
497.72	413.69
498.08	416.40
498.44	418.92
498.80	421.80
499.17	424.42
499.53	427.09
499.89	429.65
500.26	432.31
500.62	435.04
500.98	437.63
501.34	440.08
501.71	443.05
502.07	445.63
502.43	448.22
502.79	450.69
503.16	453.32
503.52	455.95
503.88	458.49
504.24	461.10
504.60	463.63
504.97	466.22
505.33	468.59
505.69	471.06
506.05	473.52
506.41	475.48
506.78	477.63
507.14	479.83
507.50	482.25
507.86	484.53
508.22	486.68
508.59	488.76
508.95	491.13
509.31	492.96
509.67	495.09
510.03	497.17
510.39	499.17
510.75	500.99
511.12	502.74
511.48	504.52
511.84	506.22
512.20	507.89
512.56	509.49
512.92	511.42
513.28	512.89
513.64	514.25
514.00	515.77
514.37	517.17
514.73	518.79
515.09	519.91
515.45	521.03
515.81	522.18
516.17	523.48
516.53	524.51
516.89	525.47
517.25	526.47
517.61	527.36
517.97	528.16
518.33	528.94
518.69	529.77
519.05	530.85
519.41	531.72
519.77	532.84
520.13	533.80
520.49	534.46
520.85	535.41
521.21	536.18
521.57	537.14
521.93	537.90
522.29	538.76
522.65	539.57
523.01	540.27
523.37	540.91
523.73	541.80
524.09	542.70
524.45	543.70
524.81	544.50
525.17	545.59
525.53	546.66
525.89	547.82
526.25	548.77
526.61	549.73
526.97	550.80
527.33	551.79
527.68	552.79
528.04	553.90
528.40	554.89
528.76	556.22
529.12	557.54
529.48	559.10
529.84	560.26
530.20	561.70
530.56	563.64
530.91	565.42
531.27	567.13
531.63	568.67
531.99	570.40
532.35	572.13
532.71	573.59
533.07	575.53
533.42	577.50
533.78	579.56
534.14	581.61
534.50	583.42
534.86	585.63
535.21	587.52
535.57	589.82
535.93	592.10
536.29	594.47
536.65	596.60
537.00	598.90
537.36	601.38
537.72	603.90
538.08	605.83
538.44	608.28
538.79	610.56
539.15	612.90
539.51	615.55
539.87	618.32
540.22	621.26
540.58	624.40
540.94	627.21
541.29	629.99
541.65	632.78
542.01	635.96
542.37	638.69
542.72	641.95
543.08	644.70
543.44	647.71
543.79	650.70
544.15	653.70
544.51	657.07
544.87	660.32
545.22	663.68
545.58	667.33
545.94	670.52
546.29	673.77
546.65	677.14
547.01	680.51
547.36	683.82
547.72	686.96
548.07	689.95
548.43	693.11
548.79	696.46
549.14	699.77
549.50	703.13
549.86	706.46
550.21	709.70
550.57	713.35
550.92	716.89
551.28	720.11
551.64	723.80
551.99	727.07
552.35	730.39
552.70	733.75
553.06	737.12
553.41	740.83
553.77	744.43
554.13	748.00
554.48	751.61
554.84	755.10
555.19	758.76
555.55	762.18
555.90	765.77
556.26	769.26
556.61	772.43
556.97	775.76
557.32	779.24
557.68	782.68
558.03	785.92
558.39	789.05
558.74	792.57
559.10	795.99
559.45	799.27
559.81	802.93
560.16	806.27
560.52	809.32
560.87	812.64
561.23	815.74
561.58	819.42
561.94	822.36
562.29	825.52
562.64	828.62
563.00	831.57
563.35	834.61
563.71	837.57
564.06	841.14
564.42	844.19
564.77	847.30
565.12	850.33
565.48	853.57
565.83	856.73
566.19	859.78
566.54	862.18
566.89	864.98
567.25	867.54
567.60	870.40
567.96	873.24
568.31	875.81
568.66	878.62
569.02	880.70
569.37	883.21
569.72	885.45
570.08	887.72
570.43	890.29
570.78	892.27
571.14	894.32
571.49	896.25
571.84	898.54
572.20	900.33
572.55	902.07
572.90	903.52
573.26	905.21
573.61	906.86
573.96	908.51
574.31	909.60
574.67	910.53
575.02	911.34
575.37	912.53
575.72	913.29
576.08	914.32
576.43	915.14
576.78	915.82
577.13	916.89
577.49	917.83
577.84	918.19
578.19	919.30
578.54	920.00
578.90	920.58
579.25	920.53
579.60	920.98
579.95	921.01
580.30	921.24
580.66	921.08
581.01	921.01
581.36	921.27
581.71	921.75
582.06	921.93
582.42	921.92
582.77	921.81
583.12	921.97
583.47	921.90
583.82	922.15
584.17	922.06
584.53	921.56
584.88	921.25
585.23	920.93
585.58	920.29
585.93	920.06
586.28	919.89
586.63	919.84
586.98	919.57
587.34	919.84
587.69	919.45
588.04	919.32
588.39	919.01
588.74	917.88
589.09	917.03
589.44	916.39
589.79	915.73
590.14	915.02
590.49	914.01
590.84	912.90
591.19	911.92
591.54	910.64
591.89	909.40
592.25	908.55
592.60	907.26
592.95	906.05
593.30	904.42
593.65	902.62
594.00	900.95
594.35	899.63
594.70	897.52
595.05	896.02
595.40	894.33
595.75	892.53
596.10	891.34
596.45	889.81
596.80	888.11
597.15	886.71
597.50	884.79
597.85	883.43
598.19	882.00
598.54	880.50
598.89	879.22
599.24	877.77
599.59	875.57
599.94	874.20
600.29	872.34
600.64	871.03
600.99	869.18
601.34	867.64
601.69	865.35
602.04	863.67
602.39	861.85
602.74	860.26
603.08	858.46
603.43	857.12
603.78	855.08
604.13	853.25
604.48	851.13
604.83	849.75
605.18	847.36
605.53	844.91
605.87	842.26
606.22	840.21
606.57	838.17
606.92	836.20
607.27	834.20
607.62	832.44
607.96	830.00
608.31	828.14
608.66	825.70
609.01	823.33
609.36	820.80
609.70	818.16
610.05	815.31
610.40	812.95
610.75	809.94
611.10	807.24
611.44	804.36
611.79	801.83
612.14	798.80
612.49	795.63
612.83	792.86
613.18	790.24
613.53	787.21
613.88	784.40
614.22	781.42
614.57	778.02
614.92	774.91
615.27	772.10
615.61	768.93
615.96	766.07
616.31	763.42
616.65	761.14
617.00	758.46
617.35	755.87
617.70	752.58
618.04	749.30
618.39	746.40
618.74	743.76
619.08	740.70
619.43	737.94
619.78	735.64
620.12	732.83
620.47	730.13
620.82	727.31
621.16	724.46
621.51	721.86
621.85	719.48
622.20	716.58
622.55	713.70
622.89	711.07
623.24	708.38
623.59	705.67
623.93	702.78
624.28	699.99
624.62	697.32
624.97	695.18
625.32	693.00
625.66	690.88
626.01	688.26
626.35	685.67
626.70	683.04
627.04	680.52
627.39	677.94
627.73	675.31
628.08	672.80
628.43	670.27
628.77	667.39
629.12	664.59
629.46	661.90
629.81	659.20
630.15	656.32
630.50	653.52
630.84	650.63
631.19	647.60
631.53	644.66
631.88	641.55
632.22	638.43
632.57	635.67
632.91	632.58
633.26	629.84
633.60	627.21
633.95	624.13
634.29	621.43
634.64	618.96
634.98	616.15
635.32	613.73
635.67	611.16
636.01	608.94
636.36	606.23
636.70	603.92
637.05	601.47
637.39	599.29
637.73	597.02
638.08	594.84
638.42	592.72
638.77	590.58
639.11	588.22
639.45	585.89
639.80	583.47
640.14	581.22
640.49	578.94
640.83	576.62
641.17	574.59
641.52	572.23
641.86	569.76
642.20	567.59
642.55	564.99
642.89	562.49
643.23	559.92
643.58	558.05
643.92	555.71
644.26	553.33
644.61	551.12
644.95	548.84
645.29	546.30
645.64	543.68
645.98	541.41
646.32	539.28
646.66	536.80
647.01	534.38
647.35	532.05
647.69	529.59
648.04	527.32
648.38	524.82
648.72	522.30
649.06	519.78
649.41	517.28
649.75	514.60
650.09	512.17
650.43	509.81
650.78	507.11
651.12	504.59
651.46	502.32
651.80	499.68
652.14	497.30
652.49	495.16
652.83	493.13
653.17	490.64
653.51	488.20
653.85	486.01
654.20	483.76
654.54	481.35
654.88	478.97
655.22	476.53
655.56	474.36
655.90	472.26
656.25	470.15
656.59	467.89
656.93	466.12
657.27	464.02
657.61	461.72
657.95	459.71
658.29	457.64
658.64	455.60
658.98	453.50
659.32	451.19
659.66	448.89
660.00	446.64
660.34	444.67
660.68	442.74
661.02	440.67
661.36	438.58
661.70	436.68
662.05	434.80
662.39	433.12
662.73	431.15
663.07	429.32
663.41	427.50
663.75	425.78
664.09	423.91
664.43	422.12
664.77	420.53
665.11	418.67
665.45	416.88
665.79	414.94
666.13	413.17
666.47	411.49
666.81	409.88
667.15	408.09
667.49	406.34
667.83	404.64
668.17	403.06
668.51	401.51
668.85	399.86
669.19	398.49
669.53	396.70
669.87	395.17
670.21	393.54
670.55	392.09
670.89	390.71
671.23	389.20
671.57	387.70
671.91	386.14
672.25	384.70
672.58	383.38
672.92	382.15
673.26	381.04
673.60	379.81
673.94	378.45
674.28	377.25
674.62	376.26
674.96	374.98
675.30	373.79
675.64	372.51
675.97	371.26
676.31	369.84
676.65	368.67
676.99	367.52
677.33	366.35
677.67	364.99
678.01	363.65
678.34	362.55
678.68	361.34
679.02	360.28
679.36	359.14
679.70	357.80
680.04	356.51
680.37	355.24
680.71	354.04
681.05	352.83
681.39	351.93
681.73	350.64
682.06	349.63
682.40	348.55
682.74	347.58
683.08	346.64
683.42	345.54
683.75	344.46
684.09	343.35
684.43	342.29
684.77	341.29
685.10	340.18
685.44	338.96
685.78	337.91
686.12	336.77
686.45	335.71
686.79	334.60
687.13	333.72
687.46	332.60
687.80	331.47
688.14	330.47
688.48	329.24
688.81	328.24
689.15	327.12
689.49	326.03
689.82	325.09
690.16	323.91
690.50	323.03
690.83	322.12
691.17	321.09
691.51	320.14
691.84	319.27
692.18	318.40
692.52	317.42
692.85	316.63
693.19	315.80
693.52	314.97
693.86	314.24
694.20	313.36
694.53	312.62
694.87	311.69
695.21	310.88
695.54	309.93
695.88	308.88
696.21	307.92
696.55	307.10
696.88	306.20
697.22	305.47
697.56	304.58
697.89	303.67
698.23	302.90
698.56	301.96
698.90	301.08
699.23	300.17
699.57	299.40
699.90	298.42
700.24	297.61
700.58	296.79
700.91	296.06
701.25	295.35
701.58	294.61
701.92	294.08
702.25	293.35
702.59	292.70
702.92	292.08
703.26	291.49
703.59	290.75
703.93	290.15
704.26	289.50
704.60	288.81
704.93	288.20
705.26	287.45
705.60	286.97
705.93	286.36
706.27	285.90
706.60	285.54
706.94	285.10
707.27	284.39
707.61	283.80
707.94	283.14
708.27	282.37
708.61	281.56
708.94	280.86
709.28	280.41
709.61	279.90
709.94	279.47
710.28	278.92
710.61	278.40
710.95	277.74
711.28	277.34
711.61	276.80
711.95	276.30
712.28	275.80
712.61	275.27
712.95	274.86
713.28	274.33
713.61	273.53
713.95	272.98
714.28	272.53
714.61	271.90
714.95	271.41
715.28	271.00
715.61	270.61
715.95	270.24
716.28	269.73
716.61	269.22
716.95	268.70
717.28	268.29
717.61	267.86
717.94	267.43
718.28	266.80
718.61	266.50
718.94	266.04
719.27	265.78
719.61	265.34
719.94	264.98
720.27	264.51
720.60	264.24
720.94	263.90
721.27	263.47
721.60	263.30
721.93	263.02
722.27	262.69
722.60	262.38
722.93	262.00
723.26	261.62
723.59	261.33
723.93	261.01
724.26	260.66
724.59	260.42
724.92	260.11
725.25	259.95
725.59	259.55
725.92	259.21
726.25	258.71
726.58	258.53
726.91	258.21
727.24	257.91
727.57	257.66
727.91	257.35
728.24	257.27
728.57	256.93
728.90	256.65
729.23	256.46
729.56	256.27
729.89	255.99
730.22	255.71
730.55	255.39
730.89	255.23
731.22	254.99
731.55	254.54
731.88	254.28
732.21	253.97
732.54	253.71
732.87	253.57
733.20	253.44
733.53	253.08
733.86	252.82
734.19	252.57
734.52	252.38
734.85	252.25
735.18	251.86
735.51	251.73
735.84	251.40
736.17	251.10
736.50	250.70
736.83	250.73
737.16	250.47
737.49	250.26
737.82	249.98
738.15	249.78
738.48	249.67
738.81	249.53
739.14	249.28
739.47	248.98
739.80	248.68
740.13	248.52
740.46	248.32
740.79	248.03
741.12	247.81
741.45	247.48
741.78	247.22
742.11	247.08
742.44	246.69
742.77	246.60
743.10	246.38
743.43	246.19
743.75	245.78
744.08	245.89
744.41	245.68
744.74	245.40
745.07	245.17
745.40	245.09
745.73	244.95
746.06	244.73
746.39	244.74
746.71	244.59
747.04	244.36
747.37	244.17
747.70	244.04
748.03	243.91
748.36	243.81
748.68	243.60
749.01	243.39
749.34	243.36
749.67	243.16
750.00	243.01
750.33	243.04
750.65	242.88
750.98	242.50
751.31	242.35
751.64	242.26
751.97	242.21
752.29	242.06
752.62	241.82
752.95	241.67
753.28	241.45
753.60	241.32
753.93	241.26
754.26	241.15
754.59	241.00
754.91	240.79
755.24	240.66
755.57	240.49
755.90	240.36
756.22	240.16
756.55	239.98
756.88	239.80
757.20	239.65
757.53	239.49
757.86	239.30
758.19	239.28
758.51	239.12
758.84	238.93
759.17	238.72
759.49	238.51
759.82	238.55
760.15	238.51
760.47	238.39
760.80	238.21
761.13	238.19
761.45	238.05
761.78	238.08
762.11	238.06
762.43	237.93
762.76	237.92
763.08	237.94
763.41	238.01
763.74	237.94
764.06	237.76
764.39	237.71
764.71	237.58
765.04	237.39
765.37	237.29
765.69	237.31
766.02	237.11
766.34	237.12
766.67	237.00
767.00	236.84
767.32	236.79
767.65	236.82
767.97	236.68
768.30	236.60
768.62	236.54
768.95	236.40
769.27	236.38
769.60	236.23
769.92	236.09
770.25	235.85
770.57	235.82
770.90	235.74
771.22	235.54
771.55	235.54
771.87	235.47
772.20	235.43
772.52	235.48
772.85	235.73
773.17	235.65
773.50	235.50
773.82	235.41
774.15	235.34
774.47	235.17
774.80	235.06
775.12	235.00
775.45	234.80
775.77	234.71
776.09	234.63
776.42	234.63
776.74	234.48
777.07	234.41
777.39	234.33
777.72	234.23
778.04	234.24
778.36	234.15
778.69	234.12
779.01	234.06
779.33	233.69
779.66	233.45
779.98	233.38
780.31	233.37
780.63	233.40
780.95	233.34
781.28	233.23
781.60	233.14
781.92	233.03
782.25	233.03
782.57	233.01
782.89	232.90
783.22	232.83
783.54	232.84
783.86	232.87
784.19	232.80
784.51	232.76
784.83	232.71
785.16	232.74
785.48	232.73
785.80	232.72
786.12	232.75
786.45	232.63
786.77	232.53
787.09	232.42
787.42	232.29
787.74	232.26
788.06	232.31
788.38	232.25
788.71	232.26
789.03	232.15
789.35	232.09
789.67	232.11
789.99	232.08
790.32	232.06
790.64	232.00
790.96	232.18
791.28	232.13
791.61	232.05
791.93	231.93
792.25	231.79
792.57	231.92
792.89	231.89
793.21	231.90
793.54	231.87
793.86	231.80
794.18	231.91
794.50	231.82
794.82	231.67
795.14	231.73
795.47	231.77
795.79	231.83
796.11	231.79
796.43	231.68
796.75	231.61
797.07	231.57
797.39	231.53
797.71	231.28
798.04	231.20
798.36	231.21
798.68	231.20
799.00	231.16
799.32	230.98
799.64	230.90
799.96	230.89
800.28	230.95
800.60	230.98
800.92	230.85
801.24	230.78
801.56	230.79
801.89	230.71
802.21	230.68
802.53	230.59
802.85	230.53
803.17	230.74
803.49	230.68
803.81	230.67
804.13	230.69
804.45	230.71
804.77	230.71
805.09	230.68
805.41	230.65
805.73	230.73
806.05	230.68
806.37	230.70
806.69	230.63
807.01	230.55
807.33	230.50
807.65	230.47
807.97	230.55
808.28	230.53
808.60	230.52
808.92	230.53
809.24	230.61
809.56	230.68
809.88	230.50
810.20	230.48
810.52	230.46
810.84	230.40
811.16	230.37
811.48	230.36
811.80	230.39
812.12	230.49
812.43	230.52
812.75	230.56
813.07	230.49
813.39	230.51
813.71	230.43
814.03	230.41
814.35	230.38
814.67	230.32
814.98	230.29
815.30	230.23
815.62	230.16
815.94	229.98
816.26	230.04
816.58	230.06
816.89	230.05
817.21	230.07
817.53	230.00
817.85	229.91
818.17	229.88
818.48	229.87
818.80	229.67
819.12	229.52
819.44	229.41
819.76	229.44
820.07	229.40
820.39	229.42
820.71	229.40
821.03	229.31
821.34	229.23
821.66	229.22
821.98	229.27
822.30	229.26
822.61	229.44
822.93	229.25
823.25	229.10
823.57	229.13
823.88	229.12
824.20	229.13
824.52	229.17
824.83	229.17
825.15	229.17
825.47	229.23
825.79	229.25
826.10	229.20
826.42	229.17
826.74	229.27
827.05	229.35
827.37	229.41
827.69	229.42
828.00	229.48
828.32	229.46
828.64	229.46
828.95	229.50
829.27	229.37
829.58	229.40
829.90	229.53
830.22	229.52
830.53	229.48
830.85	229.55
831.17	229.48
831.48	229.54
831.80	229.56
832.11	229.54
832.43	229.55
832.75	229.57
833.06	229.69
833.38	229.54
833.69	229.53
834.01	229.49
834.32	229.60
834.64	229.51
834.96	229.54
835.27	229.45
835.59	229.32
835.90	229.21
836.22	229.17
836.53	229.04
836.85	228.98
837.16	229.20
837.48	229.08
837.79	229.08
838.11	229.04
838.42	228.91
838.74	228.99
839.05	228.95
839.37	228.91
839.68	228.81
840.00	228.77
840.31	228.77
840.63	228.74
840.94	228.63
841.26	228.62
841.57	228.63
841.88	228.65
842.20	228.76
842.51	228.90
842.83	228.89
843.14	229.04
843.46	229.04
843.77	228.99
844.08	229.01
844.40	229.06
844.71	229.04
845.03	229.10
845.34	229.05
845.65	229.09
845.97	229.11
846.28	229.15
846.60	229.25
846.91	229.19
847.22	229.20
847.54	229.25
847.85	229.28
848.16	229.28
848.48	229.20
848.79	229.21
849.10	229.22
849.42	229.21
849.73	229.02
850.04	229.04
850.36	228.80
850.67	228.80
850.98	228.79
851.30	228.82
851.61	228.76
851.92	228.70
852.23	228.65
852.55	228.70
852.86	228.62
853.17	228.58
853.49	228.63
853.80	228.65
854.11	228.66
854.42	228.67
854.74	228.64
855.05	228.79
855.36	228.74
855.67	228.74
855.99	228.81
856.30	229.07
856.61	229.15
856.92	229.18
857.23	229.20
857.55	229.24
857.86	229.17
858.17	229.27
858.48	229.19
858.79	229.13
859.11	229.03
859.42	229.11
859.73	229.10
860.04	229.02
860.35	229.02
860.66	228.96
860.98	229.03
861.29	228.99
861.60	228.89
861.91	228.85
862.22	228.79
862.53	228.78
862.84	228.47
863.16	228.38
863.47	228.36
863.78	228.32
864.09	228.37
864.40	228.45
864.71	228.30
865.02	228.37
865.33	228.44
865.64	228.53
865.95	228.49
866.27	228.60
866.58	228.62
866.89	228.60
867.20	228.54
867.51	228.50
867.82	228.57
868.13	228.66
868.44	228.64
868.75	228.61
869.06	228.53
869.37	228.63
869.68	228.62
869.99	228.60
870.30	228.52
870.61	228.42
870.92	228.33
871.23	228.39
871.54	228.50
871.85	228.58
872.16	228.54
872.47	228.55
872.78	228.30
873.09	228.29
873.40	228.21
873.71	228.22
874.02	228.15
874.33	228.13
874.64	228.02
874.95	228.05
875.26	228.09
875.56	228.11
875.87	228.09
876.18	228.04
876.49	228.20
876.80	228.27
877.11	228.30
877.42	228.29
877.73	228.30
878.04	228.18
878.35	228.22
878.66	228.24
878.96	228.11
879.27	228.23
879.58	228.30
879.89	228.37
880.20	228.51
880.51	228.57
880.82	228.60
881.12	228.52
881.43	228.50
881.74	228.51
882.05	228.52
882.36	228.46
882.67	228.51
882.97	228.39
883.28	228.40
883.59	228.36
883.90	228.43
884.21	228.46
884.51	228.49
884.82	228.43
885.13	228.45
885.44	228.46
885.74	228.46
886.05	228.43
886.36	228.44
886.67	228.46
886.98	228.57
887.28	228.60
887.59	228.77
887.90	228.75
888.20	228.73
888.51	228.80
888.82	228.81
889.13	228.86
889.43	229.01
889.74	228.98
890.05	228.89
890.35	228.90
890.66	228.85
890.97	228.75
891.28	228.73
891.58	228.66
891.89	228.73
892.20	228.70
892.50	228.75
892.81	228.56
893.12	228.51
893.42	228.47
893.73	228.41
894.04	228.37
894.34	228.37
894.65	228.39
894.95	228.37
895.26	228.45
895.57	228.50
895.87	228.42
896.18	228.56
896.48	228.63
896.79	228.66
897.10	228.64
897.40	228.67
897.71	228.67
898.01	228.73
898.32	228.77
898.63	228.77
898.93	228.79
899.24	228.93
899.54	228.83
899.85	228.69
900.15	228.63
900.46	228.78
900.76	228.77
901.07	228.76
901.38	228.61
901.68	228.63
901.99	228.55
902.29	228.53
902.60	228.41
902.90	228.45
903.21	228.35
903.51	228.45
903.82	228.47
904.12	228.43
904.43	228.37
904.73	228.30
905.03	228.28
905.34	228.41
905.64	228.25
905.95	228.26
906.25	228.33
906.56	228.30
906.86	228.22
907.17	228.22
907.47	228.18
907.77	228.30
908.08	228.24
908.38	228.18
908.69	228.13
908.99	228.20
909.30	228.16
909.60	228.26
909.90	228.18
910.21	228.05
910.51	227.96
910.81	227.98
911.12	227.95
911.42	227.89
911.73	227.67
912.03	227.80
912.33	227.77
912.64	227.76
912.94	227.77
913.24	227.70
913.55	227.77
913.85	227.66
914.15	227.67
914.46	227.72
914.76	227.80
915.06	227.76
915.37	227.65
915.67	227.62
915.97	227.55
916.27	227.53
916.58	227.65
916.88	227.74
917.18	227.74
917.49	227.89
917.79	227.99
918.09	227.97
918.39	228.03
918.70	228.10
919.00	228.12
919.30	228.15
919.60	228.13
919.91	228.11
920.21	228.30
920.51	228.19
920.81	228.18
921.12	228.10
921.42	228.10
921.72	228.20
922.02	228.27
922.32	228.24
922.63	228.28
922.93	228.43
923.23	228.41
923.53	228.35
923.83	228.20
924.13	228.27
924.44	228.22
924.74	228.32
925.04	228.42
925.34	228.41
925.64	228.41
925.94	228.47
926.24	228.48
926.55	228.37
926.85	228.50
927.15	228.52
927.45	228.50
927.75	228.51
928.05	228.41
928.35	228.34
928.65	228.45
928.95	228.43
929.26	228.36
929.56	228.46
929.86	228.49
930.16	228.51
930.46	228.48
930.76	228.56
931.06	228.45
931.36	228.38
931.66	228.39
931.96	228.40
932.26	228.44
932.56	228.47
932.86	228.47
933.16	228.43
933.46	228.36
933.76	228.48
934.06	228.51
934.36	228.70
934.66	228.71
934.96	228.66
935.26	228.68
935.56	228.68
935.86	228.51
936.16	228.61
936.46	228.63
936.76	228.59
937.06	228.51
937.36	228.46
937.66	228.38
937.96	228.40
938.26	228.44
938.56	228.36
938.86	228.34
939.16	228.46
939.46	228.45
939.76	228.44
940.06	228.42
940.35	228.34
940.65	228.13
940.95	228.14
941.25	228.04
941.55	228.03
941.85	227.94
942.15	228.01
942.45	227.98
942.75	227.97
943.04	227.95
943.34	228.10
943.64	228.09
943.94	228.06
944.24	227.96
944.54	227.90
944.84	227.86
945.13	227.74
945.43	227.73
945.73	227.75
946.03	227.80
946.33	227.70
946.62	227.73
946.92	227.82
947.22	227.90
947.52	227.89
947.82	227.91
948.11	227.86
948.41	227.89
948.71	227.90
949.01	227.90
949.31	227.95
949.60	227.83
949.90	227.86
950.20	227.87
950.50	227.94
950.79	227.90
951.09	227.87
951.39	227.90
951.69	227.75
951.98	227.79
952.28	227.83
952.58	227.92
952.87	227.99
953.17	227.94
953.47	227.87
953.76	228.04
954.06	228.00
954.36	228.03
954.66	227.94
954.95	227.96
955.25	228.01
955.55	228.06
955.84	228.06
956.14	228.06
956.44	228.14
956.73	228.16
957.03	228.19
957.32	228.20
957.62	228.32
957.92	228.50
958.21	228.50
958.51	228.66
958.81	228.70
959.10	228.60
959.40	228.65
959.69	228.67
959.99	228.55
960.29	228.60
960.58	228.71
960.88	228.85
961.17	228.81
961.47	228.81
961.76	228.73
962.06	228.80
962.36	228.88
962.65	228.81
962.95	228.70
963.24	228.69
963.54	228.85
963.83	228.73
964.13	228.69
964.42	228.63
964.72	228.55
965.01	228.43
965.31	228.49
965.60	228.48
965.90	228.61
966.19	228.57
966.49	228.51
966.78	228.49
967.08	228.53
967.37	228.48
967.67	228.41
967.96	228.52
968.26	228.52
968.55	228.51
968.85	228.59
969.14	228.68
969.43	228.73
969.73	228.62
970.02	228.69
970.32	228.67
970.61	228.64
970.91	228.50
971.20	228.54
971.49	228.53
971.79	228.48
972.08	228.30
972.38	228.46
972.67	228.53
972.96	228.51
973.26	228.41
973.55	228.54
973.85	228.61
974.14	228.48
974.43	228.63
974.73	228.51
975.02	228.38
975.31	228.33
975.61	228.29
975.90	228.25
976.19	228.24
976.49	228.17
976.78	228.14
977.07	228.22
977.37	228.19
977.66	228.25
977.95	228.24
978.24	228.32
978.54	228.29
978.83	228.13
979.12	228.18
979.42	228.16
979.71	228.14
980.00	228.10
980.29	228.08
980.59	227.89
980.88	227.97
981.17	228.07
981.46	228.02
981.76	227.97
982.05	228.06
982.34	228.17
982.63	228.18
982.93	228.14
983.22	228.13
983.51	228.10
983.80	228.04
984.09	228.12
984.39	228.06
984.68	227.99
984.97	228.11
985.26	228.03
985.55	227.96
985.85	227.90
986.14	227.90
986.43	227.96
986.72	227.90
987.01	227.92
987.30	227.80
987.59	227.91
987.89	227.92
988.18	227.97
988.47	227.96
988.76	227.98
989.05	228.10
989.34	228.01
989.63	228.08
989.92	228.05
990.22	228.00
990.51	228.04
990.80	228.14
991.09	228.07
991.38	228.16
991.67	228.20
991.96	228.24
992.25	228.26
992.54	228.28
992.83	228.30
993.12	228.24
993.41	228.40
993.70	228.41
993.99	228.53
994.28	228.49
994.58	228.39
994.87	228.41
995.16	228.32
995.45	228.38
995.74	228.25
996.03	228.40
996.32	228.45
996.61	228.56
996.90	228.51
997.19	228.50
997.48	228.48
997.77	228.54
998.06	228.46
998.34	228.40
998.63	228.45
998.92	228.53
999.21	228.66
999.50	228.66
999.79	228.60
1000.08	228.55
1000.37	228.50
1000.66	228.43
1000.95	228.51
1001.24	228.57
1001.53	228.60
1001.82	228.74
1002.11	228.65
1002.40	228.67
1002.68	228.67
1002.97	228.88
1003.26	228.98
1003.55	229.00
1003.84	228.99
1004.13	229.12
1004.42	229.18
1004.71	229.10
1004.99	229.07
1005.28	229.02
1005.57	228.99
1005.86	229.02
1006.15	229.06
1006.44	229.10
1006.72	229.20
1007.01	229.16
1007.30	229.14
1007.59	229.13
1007.88	229.08
1008.17	229.09
1008.45	229.00
1008.74	228.88
1009.03	228.82
1009.32	228.80
1009.60	228.74
1009.89	228.71
1010.18	228.70
1010.47	228.70
1010.76	228.71
1011.04	228.69
1011.33	228.74
1011.62	228.79
1011.91	228.81
1012.19	228.80
1012.48	228.75
1012.77	228.72
1013.05	228.75
1013.34	228.76
1013.63	228.68
1013.92	228.74
1014.20	228.70
1014.49	228.72
1014.78	228.78
1015.06	228.52
1015.35	228.51
1015.64	228.47
1015.92	228.59
1016.21	228.48
1016.50	228.47
1016.78	228.47
1017.07	228.51
1017.36	228.41
1017.64	228.36
1017.93	228.25
1018.22	228.28
1018.50	228.27
1018.79	228.14
1019.08	228.06
1019.36	228.03
1019.65	228.06
1019.93	228.05
1020.22	228.02
1020.51	228.19
1020.79	228.08
1021.08	229.60
1021.36	227.80
1021.65	225.70
1021.94	227.80
1022.22	227.60
1022.51	227.70
1022.79	228.90
1023.08	227.50
1023.36	231.50
1023.65	227.10
>>>>>End Processed Spectral Data<<<<<
