SpectraSuite Data File
++++++++++++++++++++++++++++++++++++
Date: Fri Feb 01 14:39:48 EST 2013
User: group
Dark Spectrum Present: No
Reference Spectrum Present: No
Number of Sampled Component Spectra: 1
Spectrometers: USB2E7196
Integration Time (usec): 70000 (USB2E7196)
Spectra Averaged: 10 (USB2E7196)
Boxcar Smoothing: 10 (USB2E7196)
Correct for Electrical Dark: No (USB2E7196)
Strobe/Lamp Enabled: No (USB2E7196)
Correct for Detector Non-linearity: No (USB2E7196)
Correct for Stray Light: No (USB2E7196)
Number of Pixels in Processed Spectrum: 2048
>>>>>Begin Processed Spectral Data<<<<<
339.09	0.00
339.48	217.20
339.86	215.50
340.24	220.80
340.63	219.00
341.01	225.30
341.39	223.00
341.78	224.20
342.16	226.70
342.54	228.80
342.93	215.06
343.31	225.95
343.69	226.48
344.07	227.11
344.46	227.57
344.84	228.03
345.22	228.18
345.60	228.43
345.99	228.63
346.37	228.70
346.75	228.66
347.13	228.73
347.52	228.84
347.90	229.03
348.28	229.07
348.66	229.14
349.05	229.08
349.43	229.08
349.81	229.13
350.19	229.14
350.57	229.11
350.96	229.10
351.34	229.12
351.72	229.17
352.10	229.17
352.48	229.17
352.87	229.19
353.25	229.26
353.63	229.37
354.01	229.45
354.39	229.51
354.77	229.54
355.15	229.70
355.54	229.59
355.92	229.53
356.30	229.56
356.68	229.62
357.06	229.66
357.44	229.71
357.82	229.79
358.20	229.96
358.58	230.00
358.97	229.93
359.35	230.06
359.73	230.10
360.11	230.14
360.49	230.10
360.87	230.11
361.25	230.08
361.63	230.12
362.01	230.13
362.39	230.15
362.77	230.29
363.15	230.22
363.53	230.36
363.91	230.36
364.29	230.39
364.67	230.21
365.05	230.20
365.43	230.29
365.81	230.17
366.19	230.17
366.57	230.19
366.95	230.24
367.33	230.18
367.71	230.23
368.09	230.28
368.47	230.29
368.85	230.26
369.23	230.32
369.61	230.18
369.99	230.16
370.37	230.10
370.75	229.98
371.13	229.90
371.51	229.84
371.89	229.89
372.27	229.88
372.65	229.92
373.03	229.89
373.41	229.75
373.78	229.64
374.16	229.48
374.54	229.32
374.92	229.23
375.30	229.14
375.68	228.97
376.06	228.87
376.44	228.75
376.82	228.71
377.19	228.59
377.57	228.51
377.95	228.42
378.33	228.37
378.71	228.32
379.09	228.30
379.47	228.26
379.84	228.06
380.22	227.90
380.60	227.76
380.98	227.59
381.36	227.51
381.73	227.50
382.11	227.44
382.49	227.40
382.87	227.37
383.25	227.17
383.62	227.20
384.00	227.06
384.38	227.08
384.76	227.05
385.13	226.98
385.51	226.92
385.89	226.83
386.27	226.76
386.64	226.69
387.02	226.61
387.40	226.41
387.78	226.50
388.15	226.47
388.53	226.40
388.91	226.42
389.29	226.33
389.66	226.33
390.04	226.30
390.42	226.31
390.79	226.22
391.17	226.29
391.55	226.23
391.92	226.28
392.30	226.24
392.68	226.21
393.05	226.31
393.43	226.34
393.81	226.46
394.18	226.46
394.56	226.46
394.94	226.40
395.31	226.53
395.69	226.53
396.06	226.56
396.44	226.62
396.82	226.68
397.19	226.85
397.57	226.95
397.95	227.11
398.32	227.08
398.70	227.12
399.07	227.26
399.45	227.23
399.82	227.33
400.20	227.42
400.58	227.44
400.95	227.34
401.33	227.46
401.70	227.55
402.08	227.66
402.45	227.78
402.83	228.02
403.20	228.08
403.58	228.17
403.95	228.35
404.33	228.60
404.71	228.69
405.08	228.81
405.46	228.84
405.83	228.90
406.21	229.12
406.58	229.29
406.96	229.43
407.33	229.61
407.70	229.72
408.08	230.10
408.45	230.31
408.83	230.64
409.20	230.90
409.58	231.14
409.95	231.43
410.33	231.74
410.70	231.95
411.08	232.29
411.45	232.57
411.82	232.80
412.20	233.06
412.57	233.51
412.95	233.84
413.32	234.30
413.69	234.73
414.07	235.13
414.44	235.56
414.82	235.93
415.19	236.59
415.56	237.20
415.94	237.54
416.31	238.29
416.68	238.98
417.06	239.64
417.43	240.28
417.81	241.13
418.18	241.89
418.55	242.78
418.93	243.61
419.30	244.54
419.67	245.63
420.04	246.57
420.42	247.61
420.79	248.72
421.16	249.87
421.54	251.17
421.91	252.42
422.28	253.74
422.66	255.18
423.03	256.56
423.40	257.97
423.77	259.50
424.15	260.88
424.52	262.27
424.89	263.88
425.26	265.48
425.64	266.79
426.01	268.42
426.38	270.09
426.75	271.83
427.13	273.60
427.50	275.43
427.87	277.36
428.24	279.10
428.61	281.00
428.99	283.03
429.36	285.09
429.73	287.18
430.10	289.31
430.47	291.40
430.85	293.57
431.22	295.86
431.59	298.38
431.96	300.69
432.33	303.29
432.70	305.83
433.08	308.65
433.45	311.49
433.82	314.20
434.19	317.20
434.56	320.17
434.93	322.94
435.30	325.70
435.68	328.80
436.05	331.82
436.42	334.76
436.79	337.51
437.16	340.44
437.53	343.56
437.90	346.54
438.27	349.50
438.64	352.49
439.01	355.19
439.38	357.45
439.75	359.81
440.13	362.51
440.50	364.97
440.87	367.03
441.24	369.14
441.61	371.53
441.98	373.13
442.35	375.23
442.72	377.17
443.09	379.20
443.46	380.36
443.83	381.13
444.20	381.83
444.57	382.67
444.94	383.15
445.31	383.61
445.68	384.19
446.05	384.33
446.42	384.06
446.79	383.85
447.16	383.50
447.53	383.29
447.90	382.32
448.27	381.27
448.64	379.66
449.01	378.50
449.37	376.41
449.74	374.58
450.11	372.24
450.48	369.75
450.85	367.13
451.22	364.93
451.59	362.96
451.96	360.90
452.33	358.31
452.70	355.81
453.07	352.83
453.43	349.74
453.80	346.89
454.17	344.00
454.54	341.35
454.91	338.58
455.28	335.76
455.65	333.01
456.02	330.65
456.38	328.41
456.75	325.76
457.12	323.50
457.49	321.10
457.86	318.77
458.23	316.84
458.59	314.71
458.96	312.38
459.33	310.33
459.70	308.42
460.07	306.80
460.43	304.91
460.80	303.22
461.17	301.80
461.54	300.19
461.91	298.75
462.27	297.17
462.64	295.84
463.01	294.39
463.38	293.07
463.74	291.38
464.11	290.26
464.48	289.10
464.85	287.82
465.21	286.93
465.58	285.90
465.95	284.72
466.32	283.73
466.68	282.78
467.05	281.85
467.42	280.78
467.78	279.68
468.15	278.71
468.52	277.94
468.88	276.95
469.25	276.12
469.62	275.44
469.98	274.65
470.35	273.95
470.72	273.27
471.08	272.43
471.45	271.78
471.82	271.06
472.18	270.38
472.55	269.87
472.92	269.20
473.28	268.58
473.65	268.02
474.02	267.40
474.38	266.95
474.75	266.56
475.11	266.03
475.48	265.67
475.85	265.29
476.21	264.89
476.58	264.50
476.94	264.12
477.31	263.73
477.67	263.31
478.04	262.90
478.41	262.62
478.77	262.58
479.14	262.25
479.50	261.90
479.87	261.59
480.23	261.34
480.60	261.13
480.96	260.90
481.33	260.76
481.69	260.57
482.06	260.36
482.42	260.02
482.79	259.82
483.15	259.64
483.52	259.49
483.88	259.31
484.25	259.10
484.61	259.00
484.98	258.81
485.34	258.89
485.71	258.97
486.07	258.98
486.44	258.70
486.80	258.66
487.17	258.76
487.53	258.89
487.90	258.96
488.26	259.17
488.62	259.27
488.99	259.33
489.35	259.44
489.72	259.57
490.08	259.68
490.44	259.92
490.81	260.16
491.17	260.39
491.54	260.60
491.90	260.86
492.26	261.12
492.63	261.35
492.99	261.40
493.36	261.67
493.72	261.90
494.08	262.27
494.45	262.77
494.81	263.11
495.17	263.40
495.54	263.90
495.90	264.17
496.26	264.65
496.63	265.17
496.99	265.71
497.35	266.28
497.72	266.97
498.08	267.54
498.44	268.20
498.80	269.02
499.17	269.82
499.53	270.52
499.89	271.36
500.26	272.41
500.62	273.49
500.98	274.36
501.34	275.35
501.71	276.39
502.07	277.41
502.43	278.56
502.79	279.70
503.16	280.85
503.52	282.20
503.88	283.57
504.24	284.95
504.60	286.43
504.97	288.05
505.33	289.65
505.69	291.49
506.05	293.28
506.41	294.95
506.78	296.78
507.14	298.69
507.50	300.80
507.86	302.83
508.22	305.15
508.59	307.59
508.95	310.11
509.31	312.78
509.67	315.43
510.03	318.01
510.39	320.81
510.75	323.70
511.12	326.61
511.48	329.59
511.84	332.86
512.20	336.17
512.56	339.54
512.92	343.08
513.28	346.73
513.64	350.37
514.00	354.16
514.37	358.11
514.73	362.14
515.09	365.95
515.45	370.02
515.81	374.20
516.17	378.49
516.53	382.95
516.89	387.25
517.25	391.83
517.61	396.81
517.97	401.91
518.33	406.83
518.69	411.96
519.05	417.18
519.41	422.35
519.77	427.94
520.13	433.56
520.49	438.99
520.85	444.75
521.21	450.56
521.57	456.68
521.93	462.49
522.29	468.91
522.65	475.40
523.01	481.67
523.37	487.92
523.73	494.29
524.09	500.96
524.45	507.77
524.81	514.58
525.17	521.49
525.53	528.18
525.89	535.45
526.25	542.74
526.61	549.90
526.97	557.38
527.33	564.73
527.68	572.50
528.04	580.32
528.40	587.86
528.76	595.86
529.12	603.59
529.48	611.81
529.84	619.49
530.20	627.88
530.56	636.60
530.91	645.47
531.27	654.33
531.63	662.73
531.99	671.50
532.35	680.22
532.71	688.66
533.07	697.67
533.42	706.62
533.78	715.31
534.14	724.45
534.50	732.97
534.86	741.77
535.21	750.35
535.57	759.49
535.93	768.55
536.29	777.67
536.65	786.78
537.00	795.86
537.36	805.32
537.72	813.94
538.08	822.79
538.44	831.42
538.79	840.40
539.15	849.23
539.51	858.18
539.87	867.31
540.22	876.51
540.58	885.59
540.94	894.39
541.29	903.53
541.65	912.55
542.01	922.17
542.37	931.42
542.72	940.52
543.08	949.14
543.44	957.96
543.79	966.12
544.15	974.90
544.51	983.70
544.87	992.35
545.22	1001.20
545.58	1009.66
545.94	1017.99
546.29	1025.99
546.65	1034.37
547.01	1042.51
547.36	1050.53
547.72	1058.48
548.07	1066.40
548.43	1074.02
548.79	1081.58
549.14	1089.04
549.50	1096.30
549.86	1103.65
550.21	1111.05
550.57	1118.60
550.92	1125.89
551.28	1133.18
551.64	1140.28
551.99	1147.24
552.35	1154.17
552.70	1160.99
553.06	1167.88
553.41	1174.94
553.77	1181.75
554.13	1188.58
554.48	1195.12
554.84	1201.65
555.19	1208.17
555.55	1214.74
555.90	1221.11
556.26	1227.40
556.61	1233.72
556.97	1239.90
557.32	1246.03
557.68	1251.86
558.03	1257.91
558.39	1263.90
558.74	1270.36
559.10	1276.34
559.45	1282.63
559.81	1288.85
560.16	1294.62
560.52	1300.08
560.87	1305.89
561.23	1311.41
561.58	1316.98
561.94	1322.43
562.29	1327.32
562.64	1332.20
563.00	1336.88
563.35	1342.37
563.71	1347.93
564.06	1352.79
564.42	1357.32
564.77	1361.78
565.12	1366.53
565.48	1371.01
565.83	1375.16
566.19	1379.18
566.54	1383.22
566.89	1386.45
567.25	1389.71
567.60	1393.51
567.96	1397.67
568.31	1400.76
568.66	1404.14
569.02	1407.10
569.37	1409.99
569.72	1413.38
570.08	1416.02
570.43	1418.83
570.78	1421.12
571.14	1422.87
571.49	1425.11
571.84	1428.12
572.20	1430.00
572.55	1431.94
572.90	1433.91
573.26	1435.52
573.61	1437.05
573.96	1438.31
574.31	1439.17
574.67	1439.88
575.02	1440.60
575.37	1441.08
575.72	1441.42
576.08	1442.30
576.43	1442.88
576.78	1443.63
577.13	1444.01
577.49	1444.91
577.84	1444.79
578.19	1445.13
578.54	1445.01
578.90	1444.58
579.25	1443.19
579.60	1442.64
579.95	1441.84
580.30	1440.74
580.66	1439.75
581.01	1438.64
581.36	1437.74
581.71	1437.24
582.06	1436.73
582.42	1435.57
582.77	1434.01
583.12	1432.99
583.47	1431.55
583.82	1430.86
584.17	1429.03
584.53	1427.22
584.88	1425.95
585.23	1424.37
585.58	1422.61
585.93	1421.18
586.28	1420.00
586.63	1418.71
586.98	1417.26
587.34	1415.72
587.69	1413.90
588.04	1412.59
588.39	1411.10
588.74	1408.52
589.09	1406.21
589.44	1403.58
589.79	1401.71
590.14	1399.85
590.49	1397.61
590.84	1395.21
591.19	1392.36
591.54	1389.62
591.89	1386.84
592.25	1383.69
592.60	1380.86
592.95	1377.55
593.30	1374.47
593.65	1371.22
594.00	1367.92
594.35	1365.29
594.70	1361.64
595.05	1358.62
595.40	1354.83
595.75	1350.92
596.10	1348.27
596.45	1345.46
596.80	1343.16
597.15	1340.10
597.50	1336.96
597.85	1333.75
598.19	1330.95
598.54	1327.75
598.89	1324.89
599.24	1322.37
599.59	1319.63
599.94	1316.91
600.29	1314.03
600.64	1310.89
600.99	1307.35
601.34	1304.23
601.69	1300.24
602.04	1297.42
602.39	1294.22
602.74	1291.50
603.08	1289.03
603.43	1285.86
603.78	1282.67
604.13	1278.84
604.48	1275.09
604.83	1271.66
605.18	1268.50
605.53	1264.20
605.87	1259.96
606.22	1256.36
606.57	1252.24
606.92	1248.21
607.27	1244.65
607.62	1241.19
607.96	1237.42
608.31	1233.84
608.66	1229.65
609.01	1225.54
609.36	1220.93
609.70	1215.99
610.05	1211.66
610.40	1207.03
610.75	1202.41
611.10	1197.63
611.44	1192.63
611.79	1188.20
612.14	1183.29
612.49	1177.90
612.83	1172.70
613.18	1168.22
613.53	1163.48
613.88	1158.41
614.22	1153.29
614.57	1147.64
614.92	1142.34
615.27	1137.40
615.61	1132.22
615.96	1127.51
616.31	1123.10
616.65	1118.96
617.00	1114.60
617.35	1109.81
617.70	1104.94
618.04	1099.90
618.39	1094.96
618.74	1090.17
619.08	1085.06
619.43	1080.61
619.78	1076.26
620.12	1071.98
620.47	1067.26
620.82	1062.25
621.16	1057.67
621.51	1053.04
621.85	1048.59
622.20	1043.44
622.55	1038.85
622.89	1034.70
623.24	1030.23
623.59	1025.70
623.93	1020.75
624.28	1015.84
624.62	1011.07
624.97	1006.26
625.32	1001.93
625.66	997.52
626.01	993.07
626.35	988.51
626.70	983.82
627.04	979.18
627.39	974.20
627.73	969.49
628.08	964.99
628.43	960.42
628.77	955.80
629.12	950.94
629.46	946.56
629.81	941.31
630.15	936.27
630.50	931.41
630.84	926.06
631.19	921.30
631.53	916.50
631.88	911.39
632.22	906.40
632.57	901.52
632.91	896.55
633.26	891.66
633.60	886.91
633.95	882.06
634.29	877.35
634.64	873.27
634.98	868.53
635.32	864.17
635.67	859.87
636.01	855.27
636.36	851.00
636.70	846.73
637.05	842.79
637.39	838.74
637.73	834.37
638.08	830.71
638.42	826.64
638.77	822.73
639.11	818.58
639.45	814.62
639.80	810.36
640.14	806.13
640.49	802.17
640.83	798.02
641.17	793.81
641.52	789.61
641.86	785.31
642.20	781.53
642.55	777.17
642.89	772.88
643.23	768.79
643.58	764.89
643.92	760.52
644.26	756.28
644.61	752.09
644.95	748.29
645.29	743.76
645.64	739.27
645.98	735.33
646.32	731.26
646.66	727.20
647.01	723.38
647.35	719.60
647.69	715.51
648.04	711.61
648.38	707.53
648.72	703.36
649.06	699.38
649.41	695.09
649.75	690.80
650.09	686.55
650.43	682.41
650.78	677.99
651.12	674.10
651.46	670.27
651.80	666.13
652.14	662.14
652.49	658.55
652.83	654.96
653.17	650.91
653.51	647.24
653.85	643.28
654.20	639.01
654.54	634.92
654.88	631.00
655.22	626.97
655.56	623.18
655.90	619.70
656.25	616.03
656.59	612.41
656.93	609.07
657.27	605.70
657.61	602.09
657.95	598.81
658.29	595.40
658.64	591.73
658.98	588.07
659.32	584.31
659.66	580.59
660.00	577.03
660.34	573.54
660.68	570.03
661.02	566.53
661.36	563.47
661.70	560.36
662.05	557.28
662.39	554.25
662.73	550.91
663.07	547.80
663.41	544.62
663.75	541.50
664.09	538.20
664.43	535.10
664.77	532.26
665.11	529.41
665.45	526.35
665.79	523.63
666.13	520.72
666.47	517.85
666.81	514.85
667.15	511.92
667.49	509.08
667.83	506.30
668.17	503.52
668.51	500.68
668.85	497.92
669.19	495.34
669.53	492.54
669.87	489.91
670.21	487.18
670.55	484.49
670.89	482.12
671.23	479.80
671.57	477.18
671.91	474.60
672.25	471.88
672.58	469.51
672.92	466.90
673.26	464.60
673.60	462.29
673.94	460.09
674.28	457.80
674.62	455.71
674.96	453.38
675.30	451.32
675.64	449.07
675.97	446.96
676.31	444.75
676.65	442.69
676.99	440.71
677.33	438.54
677.67	436.55
678.01	434.18
678.34	431.93
678.68	429.99
679.02	427.90
679.36	425.90
679.70	423.91
680.04	422.02
680.37	419.93
680.71	417.88
681.05	416.05
681.39	414.22
681.73	412.40
682.06	410.80
682.40	409.02
682.74	407.35
683.08	405.52
683.42	403.61
683.75	401.75
684.09	399.90
684.43	398.28
684.77	396.51
685.10	394.90
685.44	393.33
685.78	391.58
686.12	389.81
686.45	388.14
686.79	386.28
687.13	384.60
687.46	383.05
687.80	381.48
688.14	379.65
688.48	378.04
688.81	376.20
689.15	374.49
689.49	372.91
689.82	371.45
690.16	369.78
690.50	368.36
690.83	367.00
691.17	365.35
691.51	363.81
691.84	362.25
692.18	360.84
692.52	359.26
692.85	357.68
693.19	356.38
693.52	355.00
693.86	353.65
694.20	352.30
694.53	350.98
694.87	349.67
695.21	348.32
695.54	346.80
695.88	345.36
696.21	344.02
696.55	342.65
696.88	341.26
697.22	339.91
697.56	338.52
697.89	337.05
698.23	335.94
698.56	334.61
698.90	333.53
699.23	332.02
699.57	330.93
699.90	329.86
700.24	328.70
700.58	327.56
700.91	326.38
701.25	325.36
701.58	324.31
701.92	323.19
702.25	322.19
702.59	321.25
702.92	320.27
703.26	319.14
703.59	318.02
703.93	317.10
704.26	316.18
704.60	315.14
704.93	314.24
705.26	313.32
705.60	312.35
705.93	311.30
706.27	310.60
706.60	309.65
706.94	308.73
707.27	307.73
707.61	306.68
707.94	305.70
708.27	304.51
708.61	303.40
708.94	302.55
709.28	301.68
709.61	300.76
709.94	299.98
710.28	299.17
710.61	298.41
710.95	297.33
711.28	296.54
711.61	295.66
711.95	294.82
712.28	293.96
712.61	293.12
712.95	292.22
713.28	291.50
713.61	290.60
713.95	289.82
714.28	289.13
714.61	288.54
714.95	287.96
715.28	287.28
715.61	286.56
715.95	285.96
716.28	285.35
716.61	284.79
716.95	284.09
717.28	283.40
717.61	282.72
717.94	282.21
718.28	281.53
718.61	280.98
718.94	280.30
719.27	279.71
719.61	279.24
719.94	278.80
720.27	278.12
720.60	277.60
720.94	277.02
721.27	276.45
721.60	275.86
721.93	275.27
722.27	275.01
722.60	274.65
722.93	274.11
723.26	273.67
723.59	273.03
723.93	272.57
724.26	272.13
724.59	271.70
724.92	271.10
725.25	270.74
725.59	270.29
725.92	269.92
726.25	269.50
726.58	269.02
726.91	268.60
727.24	268.17
727.57	267.89
727.91	267.47
728.24	267.20
728.57	266.70
728.90	266.42
729.23	265.84
729.56	265.47
729.89	264.98
730.22	264.38
730.55	263.95
730.89	263.56
731.22	263.18
731.55	262.79
731.88	262.59
732.21	262.15
732.54	261.76
732.87	261.47
733.20	261.08
733.53	260.72
733.86	260.37
734.19	260.14
734.52	259.70
734.85	259.47
735.18	259.02
735.51	258.93
735.84	258.52
736.17	258.20
736.50	257.80
736.83	257.71
737.16	257.54
737.49	257.31
737.82	256.96
738.15	256.70
738.48	256.41
738.81	256.11
739.14	255.85
739.47	255.55
739.80	255.21
740.13	255.02
740.46	254.75
740.79	254.53
741.12	254.16
741.45	253.90
741.78	253.64
742.11	253.46
742.44	253.11
742.77	252.90
743.10	252.59
743.43	252.39
743.75	251.97
744.08	251.85
744.41	251.61
744.74	251.33
745.07	251.08
745.40	250.91
745.73	250.67
746.06	250.39
746.39	250.28
746.71	250.06
747.04	249.73
747.37	249.50
747.70	249.26
748.03	249.04
748.36	248.90
748.68	248.60
749.01	248.24
749.34	247.90
749.67	247.67
750.00	247.59
750.33	247.55
750.65	247.30
750.98	246.86
751.31	246.62
751.64	246.50
751.97	246.30
752.29	246.04
752.62	245.70
752.95	245.53
753.28	245.20
753.60	244.94
753.93	244.73
754.26	244.44
754.59	244.17
754.91	243.95
755.24	243.74
755.57	243.63
755.90	243.44
756.22	243.32
756.55	243.10
756.88	242.90
757.20	242.49
757.53	242.21
757.86	242.15
758.19	241.98
758.51	241.79
758.84	241.68
759.17	241.42
759.49	241.35
759.82	241.20
760.15	241.18
760.47	241.09
760.80	240.90
761.13	240.85
761.45	240.68
761.78	240.59
762.11	240.42
762.43	240.14
762.76	240.00
763.08	239.87
763.41	239.67
763.74	239.43
764.06	239.35
764.39	239.35
764.71	239.06
765.04	238.86
765.37	238.67
765.69	238.51
766.02	238.51
766.34	238.29
766.67	238.16
767.00	238.03
767.32	237.97
767.65	237.94
767.97	237.83
768.30	237.77
768.62	237.62
768.95	237.40
769.27	237.34
769.60	237.33
769.92	237.16
770.25	237.00
770.57	236.80
770.90	236.63
771.22	236.43
771.55	236.52
771.87	236.48
772.20	236.39
772.52	236.41
772.85	236.41
773.17	236.46
773.50	236.28
773.82	236.07
774.15	235.87
774.47	235.69
774.80	235.43
775.12	235.29
775.45	235.18
775.77	235.19
776.09	235.17
776.42	235.09
776.74	235.09
777.07	235.14
777.39	235.17
777.72	235.08
778.04	235.06
778.36	234.92
778.69	234.99
779.01	234.95
779.33	234.72
779.66	234.43
779.98	234.30
780.31	234.27
780.63	234.35
780.95	234.30
781.28	234.21
781.60	234.29
781.92	234.35
782.25	234.30
782.57	234.25
782.89	234.07
783.22	233.93
783.54	233.90
783.86	233.86
784.19	233.71
784.51	233.80
784.83	233.74
785.16	233.60
785.48	233.47
785.80	233.40
786.12	233.30
786.45	233.42
786.77	233.41
787.09	233.36
787.42	233.31
787.74	233.29
788.06	233.23
788.38	233.21
788.71	233.05
789.03	232.99
789.35	233.01
789.67	233.04
789.99	233.05
790.32	232.98
790.64	233.06
790.96	233.33
791.28	233.25
791.61	233.18
791.93	233.21
792.25	233.08
792.57	233.26
792.89	233.20
793.21	233.09
793.54	232.93
793.86	232.84
794.18	232.77
794.50	232.81
794.82	232.89
795.14	232.86
795.47	232.90
795.79	232.89
796.11	232.74
796.43	232.68
796.75	232.63
797.07	232.60
797.39	232.43
797.71	232.13
798.04	232.02
798.36	231.98
798.68	231.90
799.00	231.93
799.32	231.65
799.64	231.69
799.96	231.74
800.28	231.80
800.60	231.85
800.92	231.75
801.24	231.69
801.56	231.63
801.89	231.58
802.21	231.43
802.53	231.39
802.85	231.45
803.17	231.50
803.49	231.48
803.81	231.45
804.13	231.42
804.45	231.43
804.77	231.39
805.09	231.35
805.41	231.37
805.73	231.30
806.05	231.37
806.37	231.35
806.69	231.24
807.01	231.20
807.33	231.11
807.65	231.10
807.97	231.08
808.28	231.01
808.60	230.92
808.92	231.02
809.24	231.09
809.56	231.01
809.88	230.89
810.20	230.80
810.52	230.84
810.84	230.72
811.16	230.64
811.48	230.78
811.80	230.82
812.12	230.76
812.43	230.79
812.75	230.71
813.07	230.61
813.39	230.57
813.71	230.62
814.03	230.58
814.35	230.57
814.67	230.46
814.98	230.47
815.30	230.52
815.62	230.48
815.94	230.35
816.26	230.41
816.58	230.43
816.89	230.49
817.21	230.34
817.53	230.38
817.85	230.37
818.17	230.11
818.48	230.05
818.80	230.08
819.12	230.10
819.44	230.05
819.76	229.97
820.07	229.98
820.39	229.88
820.71	229.97
821.03	229.93
821.34	229.89
821.66	229.82
821.98	229.84
822.30	229.85
822.61	229.91
822.93	229.74
823.25	229.72
823.57	229.63
823.88	229.69
824.20	229.61
824.52	229.69
824.83	229.80
825.15	229.82
825.47	229.83
825.79	229.73
826.10	229.75
826.42	229.82
826.74	229.90
827.05	229.84
827.37	229.80
827.69	229.70
828.00	229.80
828.32	229.80
828.64	229.74
828.95	229.71
829.27	229.63
829.58	229.60
829.90	229.60
830.22	229.65
830.53	229.65
830.85	229.70
831.17	229.64
831.48	229.67
831.80	229.52
832.11	229.47
832.43	229.48
832.75	229.39
833.06	229.52
833.38	229.50
833.69	229.46
834.01	229.40
834.32	229.41
834.64	229.44
834.96	229.40
835.27	229.38
835.59	229.38
835.90	229.38
836.22	229.50
836.53	229.40
836.85	229.33
837.16	229.38
837.48	229.33
837.79	229.42
838.11	229.43
838.42	229.54
838.74	229.53
839.05	229.47
839.37	229.53
839.68	229.41
840.00	229.31
840.31	229.40
840.63	229.38
840.94	229.42
841.26	229.30
841.57	229.32
841.88	229.43
842.20	229.36
842.51	229.29
842.83	229.26
843.14	229.53
843.46	229.60
843.77	229.55
844.08	229.59
844.40	229.52
844.71	229.47
845.03	229.48
845.34	229.51
845.65	229.58
845.97	229.59
846.28	229.50
846.60	229.47
846.91	229.41
847.22	229.45
847.54	229.49
847.85	229.42
848.16	229.38
848.48	229.28
848.79	229.30
849.10	229.38
849.42	229.31
849.73	229.10
850.04	229.09
850.36	229.05
850.67	228.99
850.98	229.02
851.30	228.98
851.61	228.92
851.92	228.99
852.23	228.91
852.55	228.86
852.86	228.90
853.17	228.81
853.49	228.81
853.80	228.82
854.11	228.77
854.42	228.99
854.74	229.02
855.05	229.04
855.36	228.96
855.67	228.92
855.99	229.01
856.30	229.26
856.61	229.24
856.92	229.21
857.23	229.31
857.55	229.26
857.86	229.18
858.17	229.26
858.48	229.15
858.79	229.10
859.11	229.18
859.42	229.16
859.73	229.26
860.04	229.34
860.35	229.27
860.66	229.25
860.98	229.09
861.29	229.09
861.60	229.04
861.91	229.11
862.22	229.17
862.53	229.07
862.84	228.80
863.16	228.80
863.47	228.79
863.78	228.73
864.09	228.66
864.40	228.84
864.71	228.89
865.02	228.92
865.33	228.95
865.64	228.98
865.95	228.99
866.27	229.12
866.58	229.10
866.89	229.13
867.20	229.14
867.51	229.08
867.82	229.12
868.13	229.20
868.44	229.24
868.75	229.27
869.06	229.34
869.37	229.34
869.68	229.30
869.99	229.32
870.30	229.38
870.61	229.37
870.92	229.36
871.23	229.27
871.54	229.32
871.85	229.39
872.16	229.35
872.47	229.43
872.78	229.30
873.09	229.23
873.40	229.24
873.71	229.31
874.02	229.42
874.33	229.32
874.64	229.33
874.95	229.32
875.26	229.18
875.56	229.15
875.87	229.14
876.18	229.10
876.49	229.33
876.80	229.21
877.11	229.22
877.42	229.22
877.73	229.28
878.04	229.14
878.35	229.21
878.66	229.23
878.96	229.17
879.27	229.13
879.58	229.12
879.89	229.11
880.20	229.10
880.51	229.09
880.82	229.20
881.12	229.17
881.43	229.10
881.74	229.12
882.05	229.12
882.36	229.20
882.67	229.39
882.97	229.07
883.28	229.11
883.59	229.13
883.90	229.16
884.21	229.13
884.51	229.19
884.82	229.11
885.13	229.13
885.44	229.05
885.74	229.14
886.05	229.21
886.36	229.22
886.67	229.09
886.98	229.19
887.28	229.09
887.59	229.00
887.90	228.99
888.20	229.08
888.51	229.11
888.82	228.95
889.13	228.82
889.43	229.03
889.74	229.01
890.05	229.05
890.35	228.90
890.66	228.81
890.97	228.87
891.28	228.83
891.58	228.75
891.89	228.80
892.20	228.72
892.50	228.62
892.81	228.63
893.12	228.73
893.42	228.59
893.73	228.58
894.04	228.60
894.34	228.67
894.65	228.55
894.95	228.51
895.26	228.58
895.57	228.68
895.87	228.44
896.18	228.50
896.48	228.45
896.79	228.47
897.10	228.53
897.40	228.45
897.71	228.38
898.01	228.40
898.32	228.41
898.63	228.35
898.93	228.46
899.24	228.43
899.54	228.32
899.85	228.30
900.15	228.39
900.46	228.43
900.76	228.43
901.07	228.48
901.38	228.45
901.68	228.57
901.99	228.45
902.29	228.50
902.60	228.55
902.90	228.62
903.21	228.58
903.51	228.60
903.82	228.64
904.12	228.70
904.43	228.72
904.73	228.66
905.03	228.80
905.34	228.94
905.64	228.91
905.95	228.96
906.25	228.93
906.56	228.89
906.86	228.91
907.17	228.85
907.47	228.88
907.77	228.90
908.08	228.84
908.38	228.84
908.69	228.86
908.99	228.80
909.30	228.75
909.60	228.72
909.90	228.68
910.21	228.60
910.51	228.63
910.81	228.61
911.12	228.58
911.42	228.47
911.73	228.30
912.03	228.36
912.33	228.37
912.64	228.38
912.94	228.31
913.24	228.35
913.55	228.32
913.85	228.29
914.15	228.31
914.46	228.29
914.76	228.25
915.06	228.22
915.37	228.17
915.67	228.13
915.97	228.19
916.27	228.10
916.58	228.04
916.88	227.96
917.18	227.93
917.49	228.05
917.79	228.04
918.09	228.02
918.39	228.03
918.70	228.05
919.00	228.02
919.30	228.12
919.60	228.05
919.91	228.04
920.21	227.93
920.51	227.91
920.81	227.77
921.12	227.82
921.42	227.70
921.72	227.69
922.02	227.74
922.32	227.70
922.63	227.73
922.93	227.90
923.23	227.92
923.53	227.89
923.83	227.88
924.13	227.87
924.44	227.84
924.74	227.90
925.04	227.85
925.34	227.90
925.64	227.92
925.94	227.88
926.24	228.01
926.55	228.05
926.85	227.98
927.15	228.06
927.45	228.06
927.75	228.24
928.05	228.25
928.35	228.20
928.65	228.25
928.95	228.32
929.26	228.28
929.56	228.30
929.86	228.29
930.16	228.23
930.46	228.30
930.76	228.38
931.06	228.20
931.36	228.18
931.66	228.22
931.96	228.14
932.26	228.19
932.56	228.08
932.86	228.09
933.16	228.10
933.46	228.06
933.76	227.95
934.06	227.87
934.36	227.93
934.66	227.85
934.96	227.88
935.26	227.92
935.56	227.89
935.86	227.85
936.16	227.84
936.46	227.87
936.76	227.96
937.06	227.83
937.36	227.93
937.66	228.00
937.96	227.91
938.26	227.94
938.56	227.87
938.86	227.88
939.16	227.94
939.46	228.02
939.76	228.10
940.06	228.20
940.35	228.17
940.65	228.13
940.95	228.20
941.25	228.22
941.55	228.08
941.85	228.10
942.15	228.11
942.45	228.29
942.75	228.23
943.04	228.16
943.34	228.30
943.64	228.36
943.94	228.29
944.24	228.36
944.54	228.43
944.84	228.47
945.13	228.49
945.43	228.42
945.73	228.41
946.03	228.41
946.33	228.39
946.62	228.42
946.92	228.51
947.22	228.49
947.52	228.39
947.82	228.50
948.11	228.48
948.41	228.50
948.71	228.31
949.01	228.35
949.31	228.23
949.60	228.20
949.90	228.17
950.20	228.20
950.50	228.22
950.79	228.06
951.09	228.00
951.39	228.04
951.69	228.14
951.98	228.12
952.28	228.06
952.58	228.00
952.87	228.07
953.17	227.99
953.47	228.07
953.76	228.09
954.06	228.12
954.36	228.08
954.66	228.12
954.95	228.28
955.25	228.30
955.55	228.40
955.84	228.33
956.14	228.27
956.44	228.30
956.73	228.21
957.03	228.27
957.32	228.30
957.62	228.25
957.92	228.26
958.21	228.33
958.51	228.50
958.81	228.44
959.10	228.35
959.40	228.29
959.69	228.24
959.99	228.32
960.29	228.20
960.58	228.22
960.88	228.30
961.17	228.24
961.47	228.25
961.76	228.21
962.06	228.24
962.36	228.23
962.65	228.28
962.95	228.36
963.24	228.33
963.54	228.35
963.83	228.33
964.13	228.22
964.42	228.11
964.72	228.03
965.01	228.22
965.31	228.26
965.60	228.29
965.90	228.45
966.19	228.37
966.49	228.43
966.78	228.45
967.08	228.39
967.37	228.37
967.67	228.27
967.96	228.30
968.26	228.30
968.55	228.38
968.85	228.36
969.14	228.30
969.43	228.39
969.73	228.40
970.02	228.40
970.32	228.46
970.61	228.50
970.91	228.48
971.20	228.40
971.49	228.29
971.79	228.40
972.08	228.28
972.38	228.32
972.67	228.27
972.96	228.24
973.26	228.23
973.55	228.33
973.85	228.33
974.14	228.32
974.43	228.41
974.73	228.34
975.02	228.33
975.31	228.33
975.61	228.33
975.90	228.39
976.19	228.31
976.49	228.30
976.78	228.30
977.07	228.36
977.37	228.37
977.66	228.54
977.95	228.46
978.24	228.40
978.54	228.45
978.83	228.53
979.12	228.63
979.42	228.65
979.71	228.65
980.00	228.78
980.29	228.87
980.59	228.85
980.88	228.99
981.17	229.00
981.46	229.04
981.76	229.00
982.05	228.94
982.34	229.04
982.63	229.08
982.93	229.06
983.22	229.15
983.51	229.26
983.80	229.27
984.09	229.32
984.39	229.29
984.68	229.21
984.97	229.18
985.26	229.18
985.55	229.24
985.85	229.12
986.14	229.15
986.43	229.16
986.72	229.02
987.01	228.92
987.30	228.88
987.59	228.87
987.89	228.86
988.18	228.87
988.47	228.76
988.76	228.76
989.05	228.77
989.34	228.60
989.63	228.61
989.92	228.44
990.22	228.42
990.51	228.40
990.80	228.38
991.09	228.38
991.38	228.30
991.67	228.23
991.96	228.25
992.25	228.12
992.54	228.04
992.83	228.09
993.12	228.02
993.41	228.05
993.70	228.13
993.99	228.18
994.28	228.17
994.58	228.24
994.87	228.23
995.16	228.20
995.45	228.21
995.74	228.08
996.03	228.15
996.32	228.11
996.61	228.26
996.90	228.33
997.19	228.25
997.48	228.22
997.77	228.13
998.06	228.07
998.34	228.10
998.63	228.03
998.92	228.01
999.21	228.07
999.50	228.00
999.79	227.91
1000.08	227.83
1000.37	227.88
1000.66	227.95
1000.95	228.03
1001.24	228.00
1001.53	228.05
1001.82	228.12
1002.11	228.14
1002.40	228.20
1002.68	228.22
1002.97	228.37
1003.26	228.41
1003.55	228.37
1003.84	228.36
1004.13	228.42
1004.42	228.34
1004.71	228.40
1004.99	228.39
1005.28	228.42
1005.57	228.46
1005.86	228.49
1006.15	228.55
1006.44	228.52
1006.72	228.51
1007.01	228.45
1007.30	228.39
1007.59	228.38
1007.88	228.47
1008.17	228.57
1008.45	228.44
1008.74	228.35
1009.03	228.23
1009.32	228.27
1009.60	228.35
1009.89	228.46
1010.18	228.44
1010.47	228.50
1010.76	228.55
1011.04	228.62
1011.33	228.53
1011.62	228.54
1011.91	228.50
1012.19	228.45
1012.48	228.39
1012.77	228.30
1013.05	228.43
1013.34	228.55
1013.63	228.55
1013.92	228.52
1014.20	228.40
1014.49	228.60
1014.78	228.65
1015.06	228.56
1015.35	228.50
1015.64	228.60
1015.92	228.63
1016.21	228.62
1016.50	228.70
1016.78	228.70
1017.07	228.72
1017.36	228.81
1017.64	228.82
1017.93	228.92
1018.22	228.90
1018.50	228.93
1018.79	229.03
1019.08	228.83
1019.36	228.85
1019.65	228.79
1019.93	228.77
1020.22	228.82
1020.51	228.85
1020.79	228.82
1021.08	227.20
1021.36	227.80
1021.65	229.40
1021.94	227.20
1022.22	229.10
1022.51	227.70
1022.79	229.70
1023.08	228.90
1023.36	231.20
1023.65	228.90
>>>>>End Processed Spectral Data<<<<<
