SpectraSuite Data File
++++++++++++++++++++++++++++++++++++
Date: Fri Feb 01 14:39:03 EST 2013
User: group
Dark Spectrum Present: No
Reference Spectrum Present: No
Number of Sampled Component Spectra: 1
Spectrometers: USB2E7196
Integration Time (usec): 70000 (USB2E7196)
Spectra Averaged: 10 (USB2E7196)
Boxcar Smoothing: 10 (USB2E7196)
Correct for Electrical Dark: No (USB2E7196)
Strobe/Lamp Enabled: No (USB2E7196)
Correct for Detector Non-linearity: No (USB2E7196)
Correct for Stray Light: No (USB2E7196)
Number of Pixels in Processed Spectrum: 2048
>>>>>Begin Processed Spectral Data<<<<<
339.09	0.00
339.48	215.00
339.86	217.80
340.24	219.50
340.63	221.20
341.01	223.60
341.39	224.20
341.78	224.30
342.16	226.90
342.54	226.60
342.93	214.49
343.31	225.39
343.69	225.96
344.07	226.44
344.46	226.94
344.84	227.27
345.22	227.49
345.60	227.63
345.99	227.82
346.37	227.99
346.75	228.02
347.13	228.09
347.52	228.14
347.90	228.30
348.28	228.23
348.66	228.38
349.05	228.40
349.43	228.40
349.81	228.47
350.19	228.53
350.57	228.56
350.96	228.60
351.34	228.56
351.72	228.62
352.10	228.71
352.48	228.69
352.87	228.80
353.25	228.82
353.63	228.97
354.01	229.05
354.39	229.04
354.77	229.15
355.15	229.31
355.54	229.32
355.92	229.27
356.30	229.36
356.68	229.49
357.06	229.55
357.44	229.69
357.82	229.72
358.20	229.78
358.58	229.77
358.97	229.82
359.35	229.95
359.73	230.04
360.11	230.03
360.49	230.13
360.87	230.04
361.25	230.15
361.63	230.20
362.01	230.17
362.39	230.15
362.77	230.13
363.15	230.24
363.53	230.29
363.91	230.33
364.29	230.28
364.67	230.13
365.05	230.10
365.43	230.13
365.81	230.15
366.19	230.18
366.57	230.25
366.95	230.37
367.33	230.25
367.71	230.23
368.09	230.20
368.47	230.10
368.85	230.16
369.23	230.15
369.61	229.99
369.99	229.94
370.37	229.88
370.75	229.99
371.13	229.80
371.51	229.69
371.89	229.74
372.27	229.67
372.65	229.58
373.03	229.49
373.41	229.30
373.78	229.22
374.16	229.06
374.54	228.95
374.92	228.72
375.30	228.71
375.68	228.57
376.06	228.58
376.44	228.52
376.82	228.49
377.19	228.44
377.57	228.39
377.95	228.39
378.33	228.29
378.71	228.05
379.09	228.00
379.47	227.90
379.84	227.76
380.22	227.70
380.60	227.59
380.98	227.56
381.36	227.47
381.73	227.42
382.11	227.42
382.49	227.35
382.87	227.21
383.25	227.09
383.62	227.25
384.00	227.13
384.38	227.05
384.76	227.00
385.13	226.81
385.51	226.67
385.89	226.61
386.27	226.60
386.64	226.58
387.02	226.65
387.40	226.64
387.78	226.64
388.15	226.78
388.53	226.76
388.91	226.61
389.29	226.60
389.66	226.52
390.04	226.49
390.42	226.54
390.79	226.54
391.17	226.59
391.55	226.46
391.92	226.45
392.30	226.48
392.68	226.40
393.05	226.51
393.43	226.70
393.81	226.70
394.18	226.77
394.56	226.74
394.94	226.72
395.31	226.70
395.69	226.83
396.06	226.81
396.44	226.82
396.82	226.92
397.19	227.13
397.57	227.26
397.95	227.43
398.32	227.39
398.70	227.55
399.07	227.67
399.45	227.75
399.82	227.88
400.20	227.94
400.58	228.08
400.95	228.12
401.33	228.20
401.70	228.46
402.08	228.54
402.45	228.76
402.83	228.96
403.20	229.12
403.58	229.10
403.95	229.24
404.33	229.51
404.71	229.66
405.08	229.95
405.46	230.09
405.83	230.30
406.21	230.57
406.58	230.75
406.96	230.95
407.33	230.97
407.70	231.20
408.08	231.56
408.45	231.78
408.83	232.04
409.20	232.31
409.58	232.39
409.95	232.63
410.33	232.76
410.70	232.88
411.08	233.21
411.45	233.53
411.82	233.90
412.20	234.23
412.57	234.70
412.95	234.79
413.32	235.18
413.69	235.48
414.07	235.84
414.44	236.25
414.82	236.80
415.19	237.51
415.56	237.99
415.94	238.50
416.31	239.19
416.68	239.82
417.06	240.48
417.43	241.17
417.81	241.97
418.18	242.96
418.55	243.98
418.93	244.84
419.30	245.78
419.67	246.67
420.04	247.76
420.42	248.89
420.79	250.29
421.16	251.53
421.54	252.94
421.91	254.32
422.28	255.66
422.66	257.11
423.03	258.56
423.40	260.07
423.77	261.61
424.15	263.02
424.52	264.68
424.89	266.51
425.26	268.30
425.64	269.95
426.01	271.74
426.38	273.60
426.75	275.54
427.13	277.60
427.50	279.77
427.87	281.92
428.24	283.95
428.61	286.07
428.99	288.35
429.36	290.72
429.73	293.23
430.10	295.69
430.47	298.16
430.85	300.75
431.22	303.44
431.59	306.37
431.96	309.26
432.33	312.38
432.70	315.25
433.08	318.80
433.45	322.15
433.82	325.22
434.19	328.70
434.56	332.20
434.93	335.45
435.30	338.81
435.68	342.44
436.05	346.20
436.42	349.56
436.79	352.85
437.16	356.21
437.53	359.83
437.90	363.53
438.27	367.00
438.64	370.61
439.01	374.05
439.38	376.85
439.75	379.68
440.13	382.84
440.50	385.98
440.87	388.32
441.24	390.86
441.61	393.88
441.98	396.17
442.35	398.60
442.72	401.20
443.09	403.56
443.46	404.90
443.83	405.74
444.20	406.58
444.57	407.93
444.94	408.64
445.31	409.27
445.68	409.94
446.05	410.22
446.42	409.99
446.79	409.54
447.16	409.34
447.53	409.17
447.90	408.04
448.27	406.84
448.64	405.19
449.01	404.09
449.37	401.96
449.74	399.75
450.11	397.42
450.48	394.56
450.85	391.81
451.22	389.55
451.59	387.33
451.96	385.18
452.33	382.08
452.70	379.33
453.07	375.93
453.43	372.41
453.80	369.24
454.17	366.10
454.54	363.29
454.91	360.02
455.28	356.90
455.65	354.05
456.02	351.39
456.38	348.88
456.75	345.61
457.12	342.81
457.49	340.18
457.86	337.37
458.23	335.20
458.59	332.64
458.96	330.00
459.33	327.69
459.70	325.51
460.07	323.71
460.43	321.61
460.80	319.63
461.17	317.93
461.54	316.00
461.91	314.29
462.27	312.37
462.64	310.83
463.01	309.11
463.38	307.40
463.74	305.41
464.11	303.95
464.48	302.64
464.85	301.26
465.21	300.08
465.58	298.86
465.95	297.28
466.32	296.14
466.68	294.90
467.05	293.73
467.42	292.57
467.78	291.17
468.15	289.90
468.52	289.00
468.88	287.87
469.25	286.74
469.62	285.75
469.98	284.88
470.35	283.98
470.72	283.20
471.08	282.18
471.45	281.41
471.82	280.48
472.18	279.58
472.55	278.86
472.92	277.97
473.28	277.31
473.65	276.71
474.02	275.91
474.38	275.31
474.75	274.68
475.11	274.00
475.48	273.52
475.85	273.06
476.21	272.59
476.58	272.04
476.94	271.82
477.31	271.43
477.67	271.00
478.04	270.53
478.41	270.09
478.77	269.83
479.14	269.37
479.50	269.18
479.87	268.94
480.23	268.72
480.60	268.50
480.96	268.20
481.33	268.14
481.69	267.95
482.06	267.91
482.42	267.71
482.79	267.35
483.15	267.32
483.52	267.40
483.88	267.19
484.25	267.07
484.61	267.01
484.98	266.91
485.34	266.88
485.71	267.02
486.07	266.98
486.44	266.98
486.80	267.09
487.17	267.02
487.53	267.22
487.90	267.23
488.26	267.36
488.62	267.44
488.99	267.28
489.35	267.35
489.72	267.35
490.08	267.50
490.44	267.81
490.81	267.90
491.17	267.91
491.54	268.23
491.90	268.46
492.26	268.57
492.63	268.74
492.99	268.87
493.36	268.95
493.72	269.21
494.08	269.36
494.45	269.64
494.81	269.82
495.17	270.06
495.54	270.34
495.90	270.63
496.26	271.04
496.63	271.56
496.99	272.03
497.35	272.43
497.72	272.77
498.08	273.10
498.44	273.38
498.80	273.91
499.17	274.23
499.53	274.54
499.89	274.96
500.26	275.49
500.62	275.99
500.98	276.63
501.34	277.14
501.71	277.70
502.07	278.08
502.43	278.65
502.79	279.12
503.16	279.81
503.52	280.35
503.88	280.80
504.24	281.38
504.60	281.77
504.97	282.45
505.33	283.11
505.69	283.91
506.05	284.81
506.41	285.45
506.78	286.28
507.14	287.20
507.50	288.03
507.86	288.78
508.22	289.64
508.59	290.43
508.95	291.34
509.31	292.47
509.67	293.64
510.03	294.76
510.39	295.91
510.75	296.96
511.12	298.20
511.48	299.61
511.84	300.96
512.20	302.47
512.56	303.95
512.92	305.57
513.28	307.14
513.64	308.76
514.00	310.41
514.37	312.09
514.73	313.83
515.09	315.75
515.45	317.76
515.81	319.92
516.17	322.18
516.53	324.47
516.89	326.69
517.25	329.12
517.61	331.65
517.97	334.06
518.33	336.65
518.69	339.34
519.05	342.02
519.41	344.79
519.77	347.75
520.13	350.82
520.49	353.83
520.85	357.05
521.21	360.31
521.57	363.80
521.93	367.23
522.29	370.88
522.65	374.33
523.01	377.92
523.37	381.34
523.73	385.30
524.09	389.17
524.45	393.15
524.81	397.24
525.17	401.64
525.53	406.17
525.89	410.59
526.25	415.19
526.61	419.88
526.97	424.74
527.33	429.58
527.68	434.49
528.04	439.57
528.40	444.64
528.76	449.69
529.12	455.05
529.48	460.42
529.84	465.58
530.20	471.25
530.56	477.12
530.91	483.28
531.27	488.98
531.63	495.07
531.99	500.92
532.35	506.98
532.71	512.53
533.07	518.75
533.42	525.06
533.78	531.26
534.14	537.34
534.50	543.38
534.86	549.88
535.21	556.14
535.57	562.49
535.93	568.77
536.29	575.49
536.65	582.00
537.00	588.66
537.36	595.55
537.72	602.30
538.08	608.72
538.44	615.20
538.79	622.02
539.15	628.57
539.51	635.68
539.87	642.58
540.22	649.86
540.58	656.89
540.94	663.83
541.29	670.79
541.65	677.75
542.01	684.99
542.37	691.98
542.72	698.90
543.08	706.09
543.44	713.30
543.79	720.03
544.15	726.98
544.51	734.31
544.87	741.20
545.22	748.08
545.58	755.00
545.94	761.77
546.29	768.50
546.65	775.20
547.01	781.72
547.36	788.39
547.72	795.11
548.07	801.66
548.43	808.49
548.79	815.21
549.14	821.61
549.50	827.97
549.86	834.47
550.21	840.79
550.57	847.01
550.92	853.28
551.28	859.63
551.64	865.76
551.99	871.87
552.35	878.10
552.70	884.21
553.06	890.50
553.41	896.84
553.77	903.17
554.13	909.30
554.48	915.45
554.84	921.62
555.19	927.25
555.55	933.08
555.90	938.56
556.26	944.23
556.61	950.22
556.97	955.76
557.32	961.10
557.68	966.72
558.03	972.59
558.39	977.82
558.74	983.72
559.10	989.28
559.45	994.51
559.81	1000.10
560.16	1005.41
560.52	1010.47
560.87	1015.72
561.23	1020.35
561.58	1025.34
561.94	1030.22
562.29	1034.42
562.64	1039.28
563.00	1043.68
563.35	1048.68
563.71	1053.52
564.06	1058.27
564.42	1062.86
564.77	1067.50
565.12	1072.22
565.48	1076.77
565.83	1081.48
566.19	1085.32
566.54	1089.50
566.89	1093.49
567.25	1097.59
567.60	1101.86
567.96	1105.97
568.31	1109.52
568.66	1113.16
569.02	1116.82
569.37	1119.82
569.72	1123.52
570.08	1126.72
570.43	1129.72
570.78	1132.55
571.14	1135.05
571.49	1137.61
571.84	1140.78
572.20	1143.31
572.55	1145.61
572.90	1147.68
573.26	1150.01
573.61	1152.11
573.96	1154.01
574.31	1155.55
574.67	1156.52
575.02	1157.67
575.37	1158.75
575.72	1159.83
576.08	1161.34
576.43	1162.30
576.78	1163.79
577.13	1165.10
577.49	1166.47
577.84	1167.67
578.19	1168.34
578.54	1169.31
578.90	1169.78
579.25	1169.74
579.60	1170.08
579.95	1170.39
580.30	1170.20
580.66	1169.96
581.01	1170.04
581.36	1170.05
581.71	1170.60
582.06	1170.95
582.42	1170.82
582.77	1170.82
583.12	1170.93
583.47	1170.82
583.82	1170.86
584.17	1170.69
584.53	1170.28
584.88	1169.67
585.23	1169.28
585.58	1168.93
585.93	1168.20
586.28	1168.07
586.63	1167.85
586.98	1167.43
587.34	1166.85
587.69	1166.19
588.04	1165.55
588.39	1164.90
588.74	1163.58
589.09	1162.18
589.44	1160.84
589.79	1160.04
590.14	1159.44
590.49	1157.90
590.84	1156.34
591.19	1155.18
591.54	1153.26
591.89	1151.10
592.25	1149.73
592.60	1147.70
592.95	1145.58
593.30	1143.64
593.65	1141.48
594.00	1139.18
594.35	1137.33
594.70	1134.88
595.05	1132.99
595.40	1130.69
595.75	1128.31
596.10	1126.64
596.45	1124.92
596.80	1123.29
597.15	1121.02
597.50	1118.56
597.85	1116.92
598.19	1115.17
598.54	1112.99
598.89	1111.28
599.24	1109.93
599.59	1107.74
599.94	1105.65
600.29	1103.67
600.64	1101.55
600.99	1099.21
601.34	1097.07
601.69	1094.41
602.04	1092.29
602.39	1089.84
602.74	1087.89
603.08	1085.83
603.43	1083.55
603.78	1080.81
604.13	1078.24
604.48	1075.86
604.83	1073.42
605.18	1070.67
605.53	1067.49
605.87	1064.41
606.22	1061.54
606.57	1058.11
606.92	1054.82
607.27	1052.16
607.62	1049.74
607.96	1047.07
608.31	1044.29
608.66	1041.27
609.01	1038.10
609.36	1034.72
609.70	1031.27
610.05	1027.70
610.40	1024.47
610.75	1020.90
611.10	1017.62
611.44	1013.46
611.79	1010.03
612.14	1006.53
612.49	1002.38
612.83	998.66
613.18	995.16
613.53	991.65
613.88	987.91
614.22	984.40
614.57	980.43
614.92	976.35
615.27	972.52
615.61	968.80
615.96	965.26
616.31	961.89
616.65	958.99
617.00	955.63
617.35	952.16
617.70	948.28
618.04	944.33
618.39	940.70
618.74	937.78
619.08	933.85
619.43	929.87
619.78	926.88
620.12	923.47
620.47	919.86
620.82	916.02
621.16	912.70
621.51	909.02
621.85	905.61
622.20	901.66
622.55	897.85
622.89	894.10
623.24	890.53
623.59	886.68
623.93	882.80
624.28	879.28
624.62	875.61
624.97	872.07
625.32	868.87
625.66	865.30
626.01	861.57
626.35	857.99
626.70	854.57
627.04	851.10
627.39	847.31
627.73	843.65
628.08	840.24
628.43	836.37
628.77	832.79
629.12	829.16
629.46	825.70
629.81	822.18
630.15	818.26
630.50	814.50
630.84	810.43
631.19	806.30
631.53	802.27
631.88	798.13
632.22	794.10
632.57	790.12
632.91	786.10
633.26	782.13
633.60	778.25
633.95	774.18
634.29	770.30
634.64	766.80
634.98	762.76
635.32	759.11
635.67	755.98
636.01	752.40
636.36	748.62
636.70	745.07
637.05	741.40
637.39	738.32
637.73	734.86
638.08	731.94
638.42	728.90
638.77	725.83
639.11	722.48
639.45	719.03
639.80	715.52
640.14	712.24
640.49	708.98
640.83	705.56
641.17	702.41
641.52	698.90
641.86	695.45
642.20	692.46
642.55	688.88
642.89	685.13
643.23	681.73
643.58	678.49
643.92	675.12
644.26	671.72
644.61	668.43
644.95	665.05
645.29	661.36
645.64	657.69
645.98	654.09
646.32	650.85
646.66	647.64
647.01	644.44
647.35	641.10
647.69	637.81
648.04	634.70
648.38	631.41
648.72	628.05
649.06	624.62
649.41	621.17
649.75	617.67
650.09	614.45
650.43	611.03
650.78	607.60
651.12	604.06
651.46	600.97
651.80	597.56
652.14	594.37
652.49	591.21
652.83	588.29
653.17	585.11
653.51	582.10
653.85	579.20
654.20	575.92
654.54	572.47
654.88	569.10
655.22	565.73
655.56	562.33
655.90	559.24
656.25	556.43
656.59	553.73
656.93	550.93
657.27	547.95
657.61	544.99
657.95	542.30
658.29	539.60
658.64	536.68
658.98	533.79
659.32	530.68
659.66	527.83
660.00	524.72
660.34	521.93
660.68	519.10
661.02	515.92
661.36	513.34
661.70	510.93
662.05	508.48
662.39	506.19
662.73	503.73
663.07	501.26
663.41	498.78
663.75	496.00
664.09	493.52
664.43	491.04
664.77	488.71
665.11	486.16
665.45	483.83
665.79	481.36
666.13	478.91
666.47	476.56
666.81	474.23
667.15	471.73
667.49	469.38
667.83	467.08
668.17	464.94
668.51	462.63
668.85	460.37
669.19	458.28
669.53	455.96
669.87	453.86
670.21	451.59
670.55	449.23
670.89	447.23
671.23	445.11
671.57	443.04
671.91	441.01
672.25	438.97
672.58	436.80
672.92	434.82
673.26	433.00
673.60	430.98
673.94	429.04
674.28	427.49
674.62	425.77
674.96	423.98
675.30	422.24
675.64	420.41
675.97	418.54
676.31	416.68
676.65	414.76
676.99	412.93
677.33	411.23
677.67	409.48
678.01	407.74
678.34	406.01
678.68	404.31
679.02	402.47
679.36	400.82
679.70	399.19
680.04	397.44
680.37	395.67
680.71	394.13
681.05	392.59
681.39	390.86
681.73	389.07
682.06	387.42
682.40	385.82
682.74	384.24
683.08	382.65
683.42	381.14
683.75	379.66
684.09	378.08
684.43	376.65
684.77	375.13
685.10	373.35
685.44	371.79
685.78	370.32
686.12	368.82
686.45	367.27
686.79	365.88
687.13	364.53
687.46	363.08
687.80	361.63
688.14	360.12
688.48	358.87
688.81	357.46
689.15	356.10
689.49	354.59
689.82	353.18
690.16	351.80
690.50	350.39
690.83	348.84
691.17	347.52
691.51	346.16
691.84	344.87
692.18	343.74
692.52	342.38
692.85	341.10
693.19	340.01
693.52	338.74
693.86	337.46
694.20	336.29
694.53	334.99
694.87	333.68
695.21	332.50
695.54	331.18
695.88	329.92
696.21	328.65
696.55	327.52
696.88	326.38
697.22	325.33
697.56	324.30
697.89	323.49
698.23	322.45
698.56	321.27
698.90	320.30
699.23	319.09
699.57	318.11
699.90	317.00
700.24	315.84
700.58	314.86
700.91	313.78
701.25	312.79
701.58	311.86
701.92	311.01
702.25	310.11
702.59	309.30
702.92	308.51
703.26	307.69
703.59	306.92
703.93	306.37
704.26	305.56
704.60	304.66
704.93	303.71
705.26	302.79
705.60	302.04
705.93	301.23
706.27	300.69
706.60	300.06
706.94	299.40
707.27	298.55
707.61	297.79
707.94	297.25
708.27	296.36
708.61	295.57
708.94	294.85
709.28	294.23
709.61	293.55
709.94	292.93
710.28	292.25
710.61	291.49
710.95	290.63
711.28	290.08
711.61	289.38
711.95	288.75
712.28	288.24
712.61	287.53
712.95	286.92
713.28	286.36
713.61	285.59
713.95	285.00
714.28	284.47
714.61	283.90
714.95	283.20
715.28	282.71
715.61	282.22
715.95	281.65
716.28	280.99
716.61	280.42
716.95	279.80
717.28	279.25
717.61	278.70
717.94	278.10
718.28	277.47
718.61	276.96
718.94	276.56
719.27	275.97
719.61	275.59
719.94	275.15
720.27	274.53
720.60	274.12
720.94	273.58
721.27	273.05
721.60	272.72
721.93	272.26
722.27	271.83
722.60	271.34
722.93	270.92
723.26	270.53
723.59	270.07
723.93	269.68
724.26	269.28
724.59	268.80
724.92	268.38
725.25	267.92
725.59	267.43
725.92	266.83
726.25	266.40
726.58	266.05
726.91	265.51
727.24	265.07
727.57	264.57
727.91	264.17
728.24	263.81
728.57	263.38
728.90	262.96
729.23	262.43
729.56	262.16
729.89	261.72
730.22	261.21
730.55	260.75
730.89	260.32
731.22	259.93
731.55	259.64
731.88	259.32
732.21	258.94
732.54	258.68
732.87	258.46
733.20	258.01
733.53	257.60
733.86	257.29
734.19	256.90
734.52	256.60
734.85	256.38
735.18	256.01
735.51	255.74
735.84	255.43
736.17	255.21
736.50	254.75
736.83	254.70
737.16	254.50
737.49	254.23
737.82	253.89
738.15	253.62
738.48	253.23
738.81	252.92
739.14	252.60
739.47	252.32
739.80	252.01
740.13	251.97
740.46	251.64
740.79	251.39
741.12	251.21
741.45	250.95
741.78	250.51
742.11	250.40
742.44	250.03
742.77	249.81
743.10	249.58
743.43	249.37
743.75	249.05
744.08	249.00
744.41	248.75
744.74	248.50
745.07	248.24
745.40	248.08
745.73	247.93
746.06	247.83
746.39	247.68
746.71	247.46
747.04	247.17
747.37	247.02
747.70	246.93
748.03	246.75
748.36	246.66
748.68	246.59
749.01	246.36
749.34	246.23
749.67	246.11
750.00	245.95
750.33	245.97
750.65	245.70
750.98	245.42
751.31	245.19
751.64	245.24
751.97	245.20
752.29	245.12
752.62	244.91
752.95	244.75
753.28	244.57
753.60	244.38
753.93	244.33
754.26	244.23
754.59	244.01
754.91	243.95
755.24	243.75
755.57	243.66
755.90	243.43
756.22	243.28
756.55	243.07
756.88	242.94
757.20	242.68
757.53	242.50
757.86	242.28
758.19	242.24
758.51	242.04
758.84	241.78
759.17	241.66
759.49	241.53
759.82	241.52
760.15	241.35
760.47	241.35
760.80	241.12
761.13	241.06
761.45	240.93
761.78	240.73
762.11	240.62
762.43	240.30
762.76	240.26
763.08	240.15
763.41	240.06
763.74	239.91
764.06	239.75
764.39	239.60
764.71	239.53
765.04	239.34
765.37	239.23
765.69	239.12
766.02	238.96
766.34	238.76
766.67	238.55
767.00	238.47
767.32	238.29
767.65	238.27
767.97	238.12
768.30	237.99
768.62	237.80
768.95	237.57
769.27	237.54
769.60	237.42
769.92	237.23
770.25	237.06
770.57	236.89
770.90	236.80
771.22	236.61
771.55	236.37
771.87	236.26
772.20	236.05
772.52	236.08
772.85	236.19
773.17	236.12
773.50	235.96
773.82	235.80
774.15	235.67
774.47	235.37
774.80	235.14
775.12	235.02
775.45	235.01
775.77	235.05
776.09	235.07
776.42	234.92
776.74	234.90
777.07	234.70
777.39	234.67
777.72	234.51
778.04	234.40
778.36	234.30
778.69	234.32
779.01	234.30
779.33	234.13
779.66	233.79
779.98	233.63
780.31	233.44
780.63	233.40
780.95	233.27
781.28	233.24
781.60	233.14
781.92	233.12
782.25	232.96
782.57	232.76
782.89	232.52
783.22	232.41
783.54	232.25
783.86	232.22
784.19	232.14
784.51	232.09
784.83	232.10
785.16	232.12
785.48	232.03
785.80	232.00
786.12	231.99
786.45	232.05
786.77	232.12
787.09	232.22
787.42	232.21
787.74	232.24
788.06	232.27
788.38	232.17
788.71	231.94
789.03	231.85
789.35	231.96
789.67	232.03
789.99	232.07
790.32	232.10
790.64	232.24
790.96	232.45
791.28	232.38
791.61	232.31
791.93	232.25
792.25	232.26
792.57	232.38
792.89	232.28
793.21	232.17
793.54	232.15
793.86	232.14
794.18	232.09
794.50	232.05
794.82	231.99
795.14	232.22
795.47	232.38
795.79	232.48
796.11	232.40
796.43	232.33
796.75	232.31
797.07	232.34
797.39	232.28
797.71	231.97
798.04	232.10
798.36	232.05
798.68	232.02
799.00	231.94
799.32	231.86
799.64	231.84
799.96	231.83
800.28	231.80
800.60	231.83
800.92	231.80
801.24	231.83
801.56	231.84
801.89	231.65
802.21	231.59
802.53	231.61
802.85	231.60
803.17	231.64
803.49	231.61
803.81	231.56
804.13	231.51
804.45	231.50
804.77	231.39
805.09	231.43
805.41	231.42
805.73	231.36
806.05	231.26
806.37	231.24
806.69	231.24
807.01	231.18
807.33	231.07
807.65	230.94
807.97	230.96
808.28	230.96
808.60	230.95
808.92	230.90
809.24	230.87
809.56	230.80
809.88	230.77
810.20	230.68
810.52	230.68
810.84	230.54
811.16	230.52
811.48	230.51
811.80	230.59
812.12	230.59
812.43	230.64
812.75	230.55
813.07	230.42
813.39	230.37
813.71	230.29
814.03	230.22
814.35	230.22
814.67	230.10
814.98	229.90
815.30	229.95
815.62	229.92
815.94	229.73
816.26	229.77
816.58	229.63
816.89	229.62
817.21	229.56
817.53	229.51
817.85	229.49
818.17	229.51
818.48	229.42
818.80	229.37
819.12	229.28
819.44	229.30
819.76	229.40
820.07	229.36
820.39	229.32
820.71	229.27
821.03	229.19
821.34	229.13
821.66	229.34
821.98	229.20
822.30	229.14
822.61	229.34
822.93	229.29
823.25	229.27
823.57	229.15
823.88	229.11
824.20	229.17
824.52	229.23
824.83	229.21
825.15	229.10
825.47	229.10
825.79	229.08
826.10	229.10
826.42	229.03
826.74	228.95
827.05	228.96
827.37	228.95
827.69	228.97
828.00	228.96
828.32	228.86
828.64	228.79
828.95	228.98
829.27	228.79
829.58	228.72
829.90	228.68
830.22	228.78
830.53	228.77
830.85	228.84
831.17	228.76
831.48	228.74
831.80	228.69
832.11	228.71
832.43	228.70
832.75	228.58
833.06	228.72
833.38	228.69
833.69	228.75
834.01	228.81
834.32	228.89
834.64	228.92
834.96	228.97
835.27	229.09
835.59	228.92
835.90	228.94
836.22	229.08
836.53	229.20
836.85	229.27
837.16	229.49
837.48	229.49
837.79	229.50
838.11	229.52
838.42	229.78
838.74	229.79
839.05	229.86
839.37	229.95
839.68	229.80
840.00	229.92
840.31	230.04
840.63	230.09
840.94	230.02
841.26	230.00
841.57	230.01
841.88	230.09
842.20	230.15
842.51	230.10
842.83	229.98
843.14	229.99
843.46	229.93
843.77	229.85
844.08	229.84
844.40	229.85
844.71	229.86
845.03	229.69
845.34	229.69
845.65	229.69
845.97	229.66
846.28	229.63
846.60	229.70
846.91	229.62
847.22	229.55
847.54	229.70
847.85	229.75
848.16	229.69
848.48	229.55
848.79	229.62
849.10	229.66
849.42	229.69
849.73	229.66
850.04	229.74
850.36	229.66
850.67	229.71
850.98	229.72
851.30	229.67
851.61	229.65
851.92	229.60
852.23	229.55
852.55	229.53
852.86	229.56
853.17	229.53
853.49	229.47
853.80	229.44
854.11	229.26
854.42	229.33
854.74	229.30
855.05	229.32
855.36	229.08
855.67	229.09
855.99	229.09
856.30	229.20
856.61	229.08
856.92	228.96
857.23	228.85
857.55	228.81
857.86	228.69
858.17	228.71
858.48	228.70
858.79	228.75
859.11	228.76
859.42	228.74
859.73	228.54
860.04	228.56
860.35	228.60
860.66	228.62
860.98	228.50
861.29	228.51
861.60	228.40
861.91	228.56
862.22	228.55
862.53	228.49
862.84	228.26
863.16	228.38
863.47	228.49
863.78	228.47
864.09	228.41
864.40	228.40
864.71	228.41
865.02	228.53
865.33	228.54
865.64	228.52
865.95	228.54
866.27	228.81
866.58	228.65
866.89	228.73
867.20	228.68
867.51	228.61
867.82	228.57
868.13	228.71
868.44	228.67
868.75	228.76
869.06	228.76
869.37	228.80
869.68	228.80
869.99	228.71
870.30	228.66
870.61	228.70
870.92	228.71
871.23	228.74
871.54	228.58
871.85	228.52
872.16	228.57
872.47	228.41
872.78	228.17
873.09	228.28
873.40	228.19
873.71	228.23
874.02	228.23
874.33	228.26
874.64	228.21
874.95	228.22
875.26	228.07
875.56	228.13
875.87	228.12
876.18	228.05
876.49	228.21
876.80	228.22
877.11	228.22
877.42	228.30
877.73	228.30
878.04	228.28
878.35	228.25
878.66	228.19
878.96	228.35
879.27	228.45
879.58	228.43
879.89	228.37
880.20	228.47
880.51	228.45
880.82	228.37
881.12	228.42
881.43	228.45
881.74	228.50
882.05	228.42
882.36	228.46
882.67	228.43
882.97	228.25
883.28	228.34
883.59	228.39
883.90	228.43
884.21	228.31
884.51	228.42
884.82	228.39
885.13	228.43
885.44	228.43
885.74	228.41
886.05	228.45
886.36	228.47
886.67	228.39
886.98	228.58
887.28	228.70
887.59	228.63
887.90	228.60
888.20	228.60
888.51	228.76
888.82	228.77
889.13	228.80
889.43	229.01
889.74	228.96
890.05	228.90
890.35	228.82
890.66	228.84
890.97	228.78
891.28	228.75
891.58	228.78
891.89	228.76
892.20	228.71
892.50	228.72
892.81	228.68
893.12	228.70
893.42	228.47
893.73	228.43
894.04	228.46
894.34	228.42
894.65	228.46
894.95	228.38
895.26	228.36
895.57	228.45
895.87	228.23
896.18	228.21
896.48	228.20
896.79	228.11
897.10	228.20
897.40	228.13
897.71	228.20
898.01	228.09
898.32	228.08
898.63	228.08
898.93	228.04
899.24	228.02
899.54	227.97
899.85	228.02
900.15	228.00
900.46	227.87
900.76	227.84
901.07	227.70
901.38	227.71
901.68	227.80
901.99	227.65
902.29	227.72
902.60	227.72
902.90	227.70
903.21	227.70
903.51	227.68
903.82	227.73
904.12	227.70
904.43	227.74
904.73	227.70
905.03	227.74
905.34	227.90
905.64	227.86
905.95	227.82
906.25	227.76
906.56	227.66
906.86	227.77
907.17	227.85
907.47	227.91
907.77	227.82
908.08	227.66
908.38	227.81
908.69	227.77
908.99	227.80
909.30	227.76
909.60	227.85
909.90	227.87
910.21	227.82
910.51	227.81
910.81	227.82
911.12	227.80
911.42	227.74
911.73	227.55
912.03	227.63
912.33	227.71
912.64	227.76
912.94	227.85
913.24	227.94
913.55	227.99
913.85	227.93
914.15	228.03
914.46	228.12
914.76	227.96
915.06	227.95
915.37	227.95
915.67	227.91
915.97	227.99
916.27	227.90
916.58	227.91
916.88	227.92
917.18	227.91
917.49	228.11
917.79	228.28
918.09	228.38
918.39	228.42
918.70	228.43
919.00	228.49
919.30	228.62
919.60	228.60
919.91	228.47
920.21	228.54
920.51	228.48
920.81	228.47
921.12	228.53
921.42	228.54
921.72	228.49
922.02	228.67
922.32	228.58
922.63	228.66
922.93	228.80
923.23	228.94
923.53	229.02
923.83	228.94
924.13	228.89
924.44	228.85
924.74	228.91
925.04	229.02
925.34	228.98
925.64	228.92
925.94	228.92
926.24	229.04
926.55	229.06
926.85	229.07
927.15	229.04
927.45	229.10
927.75	229.18
928.05	229.18
928.35	229.19
928.65	229.20
928.95	229.21
929.26	229.06
929.56	228.96
929.86	229.02
930.16	228.95
930.46	228.81
930.76	228.73
931.06	228.57
931.36	228.44
931.66	228.57
931.96	228.53
932.26	228.49
932.56	228.40
932.86	228.37
933.16	228.44
933.46	228.42
933.76	228.27
934.06	228.21
934.36	228.35
934.66	228.28
934.96	228.30
935.26	228.28
935.56	228.31
935.86	228.33
936.16	228.15
936.46	228.08
936.76	228.14
937.06	228.19
937.36	228.27
937.66	228.26
937.96	228.14
938.26	228.07
938.56	228.00
938.86	228.01
939.16	228.07
939.46	227.94
939.76	227.92
940.06	227.90
940.35	227.85
940.65	227.70
940.95	227.70
941.25	227.62
941.55	227.56
941.85	227.52
942.15	227.52
942.45	227.64
942.75	227.74
943.04	227.73
943.34	227.69
943.64	227.71
943.94	227.69
944.24	227.65
944.54	227.69
944.84	227.73
945.13	227.66
945.43	227.60
945.73	227.61
946.03	227.69
946.33	227.70
946.62	227.68
946.92	227.61
947.22	227.59
947.52	227.60
947.82	227.68
948.11	227.78
948.41	227.70
948.71	227.66
949.01	227.66
949.31	227.61
949.60	227.74
949.90	227.70
950.20	227.70
950.50	227.73
950.79	227.81
951.09	227.92
951.39	227.95
951.69	227.95
951.98	228.08
952.28	228.12
952.58	228.23
952.87	228.28
953.17	228.37
953.47	228.56
953.76	228.65
954.06	228.67
954.36	228.59
954.66	228.67
954.95	228.73
955.25	228.77
955.55	228.84
955.84	228.74
956.14	228.79
956.44	228.84
956.73	228.86
957.03	228.84
957.32	228.78
957.62	228.77
957.92	228.86
958.21	228.77
958.51	228.97
958.81	229.05
959.10	229.15
959.40	229.18
959.69	229.09
959.99	229.12
960.29	229.12
960.58	229.19
960.88	229.22
961.17	229.19
961.47	229.23
961.76	229.30
962.06	229.36
962.36	229.40
962.65	229.44
962.95	229.48
963.24	229.38
963.54	229.44
963.83	229.46
964.13	229.48
964.42	229.48
964.72	229.30
965.01	229.21
965.31	229.19
965.60	229.30
965.90	229.37
966.19	229.30
966.49	229.29
966.78	229.27
967.08	229.24
967.37	229.27
967.67	229.18
967.96	229.19
968.26	229.16
968.55	229.12
968.85	229.07
969.14	228.98
969.43	229.01
969.73	228.98
970.02	229.05
970.32	228.98
970.61	229.01
970.91	228.92
971.20	228.83
971.49	228.76
971.79	228.65
972.08	228.57
972.38	228.49
972.67	228.49
972.96	228.48
973.26	228.41
973.55	228.37
973.85	228.33
974.14	228.22
974.43	228.19
974.73	228.19
975.02	228.10
975.31	228.22
975.61	228.18
975.90	227.97
976.19	227.88
976.49	227.87
976.78	227.85
977.07	227.85
977.37	227.94
977.66	227.89
977.95	227.81
978.24	227.82
978.54	227.90
978.83	227.81
979.12	227.84
979.42	227.84
979.71	227.71
980.00	227.67
980.29	227.62
980.59	227.60
980.88	227.56
981.17	227.57
981.46	227.44
981.76	227.41
982.05	227.55
982.34	227.52
982.63	227.39
982.93	227.27
983.22	227.29
983.51	227.27
983.80	227.24
984.09	227.39
984.39	227.32
984.68	227.23
984.97	227.21
985.26	227.09
985.55	227.16
985.85	227.25
986.14	227.24
986.43	227.31
986.72	227.37
987.01	227.38
987.30	227.43
987.59	227.40
987.89	227.46
988.18	227.40
988.47	227.43
988.76	227.48
989.05	227.54
989.34	227.55
989.63	227.59
989.92	227.68
990.22	227.60
990.51	227.66
990.80	227.69
991.09	227.79
991.38	227.85
991.67	227.72
991.96	227.61
992.25	227.78
992.54	227.75
992.83	227.75
993.12	227.78
993.41	227.85
993.70	227.95
993.99	227.98
994.28	228.03
994.58	228.02
994.87	228.12
995.16	228.18
995.45	228.16
995.74	228.10
996.03	228.11
996.32	228.08
996.61	228.06
996.90	228.11
997.19	228.16
997.48	228.17
997.77	228.18
998.06	228.36
998.34	228.25
998.63	228.33
998.92	228.33
999.21	228.29
999.50	228.23
999.79	228.25
1000.08	228.30
1000.37	228.40
1000.66	228.47
1000.95	228.50
1001.24	228.46
1001.53	228.53
1001.82	228.50
1002.11	228.46
1002.40	228.50
1002.68	228.55
1002.97	228.67
1003.26	228.61
1003.55	228.64
1003.84	228.73
1004.13	228.76
1004.42	228.77
1004.71	228.71
1004.99	228.64
1005.28	228.67
1005.57	228.64
1005.86	228.63
1006.15	228.55
1006.44	228.41
1006.72	228.44
1007.01	228.41
1007.30	228.48
1007.59	228.40
1007.88	228.39
1008.17	228.34
1008.45	228.21
1008.74	228.08
1009.03	228.02
1009.32	227.95
1009.60	228.00
1009.89	227.96
1010.18	227.79
1010.47	227.71
1010.76	227.70
1011.04	227.75
1011.33	227.77
1011.62	227.81
1011.91	227.78
1012.19	227.73
1012.48	227.77
1012.77	227.72
1013.05	227.75
1013.34	227.74
1013.63	227.75
1013.92	227.71
1014.20	227.80
1014.49	227.91
1014.78	227.93
1015.06	227.86
1015.35	227.81
1015.64	227.74
1015.92	227.68
1016.21	227.68
1016.50	227.79
1016.78	227.83
1017.07	227.79
1017.36	227.77
1017.64	227.73
1017.93	227.69
1018.22	227.69
1018.50	227.62
1018.79	227.59
1019.08	227.52
1019.36	227.50
1019.65	227.42
1019.93	227.55
1020.22	227.52
1020.51	227.60
1020.79	227.59
1021.08	226.90
1021.36	226.70
1021.65	227.10
1021.94	228.20
1022.22	227.90
1022.51	226.60
1022.79	228.70
1023.08	228.50
1023.36	229.60
1023.65	227.00
>>>>>End Processed Spectral Data<<<<<
