SpectraSuite Data File
++++++++++++++++++++++++++++++++++++
Date: Fri Feb 01 14:34:54 EST 2013
User: group
Dark Spectrum Present: No
Reference Spectrum Present: No
Number of Sampled Component Spectra: 1
Spectrometers: USB2E7196
Integration Time (usec): 70000 (USB2E7196)
Spectra Averaged: 10 (USB2E7196)
Boxcar Smoothing: 10 (USB2E7196)
Correct for Electrical Dark: No (USB2E7196)
Strobe/Lamp Enabled: No (USB2E7196)
Correct for Detector Non-linearity: No (USB2E7196)
Correct for Stray Light: No (USB2E7196)
Number of Pixels in Processed Spectrum: 2048
>>>>>Begin Processed Spectral Data<<<<<
339.09	0.00
339.48	215.30
339.86	215.50
340.24	218.60
340.63	220.70
341.01	226.00
341.39	222.40
341.78	224.10
342.16	225.80
342.54	225.70
342.93	214.40
343.31	225.22
343.69	225.81
344.07	226.33
344.46	226.76
344.84	227.10
345.22	227.22
345.60	227.43
345.99	227.61
346.37	227.76
346.75	227.81
347.13	227.92
347.52	228.01
347.90	228.10
348.28	228.06
348.66	228.05
349.05	228.00
349.43	227.92
349.81	227.97
350.19	228.06
350.57	228.12
350.96	228.21
351.34	228.40
351.72	228.50
352.10	228.57
352.48	228.59
352.87	228.66
353.25	228.73
353.63	228.78
354.01	229.01
354.39	229.07
354.77	229.16
355.15	229.30
355.54	229.24
355.92	229.37
356.30	229.47
356.68	229.80
357.06	229.96
357.44	230.05
357.82	230.24
358.20	230.20
358.58	230.24
358.97	230.30
359.35	230.37
359.73	230.46
360.11	230.58
360.49	230.74
360.87	230.77
361.25	230.84
361.63	230.94
362.01	230.89
362.39	230.90
362.77	230.97
363.15	230.99
363.53	231.01
363.91	230.98
364.29	231.02
364.67	230.72
365.05	230.60
365.43	230.59
365.81	230.57
366.19	230.74
366.57	230.76
366.95	230.63
367.33	230.48
367.71	230.50
368.09	230.48
368.47	230.48
368.85	230.51
369.23	230.55
369.61	230.50
369.99	230.48
370.37	230.57
370.75	230.59
371.13	230.46
371.51	230.44
371.89	230.42
372.27	230.27
372.65	230.26
373.03	230.29
373.41	230.21
373.78	230.13
374.16	229.98
374.54	229.87
374.92	229.90
375.30	229.92
375.68	229.77
376.06	229.75
376.44	229.64
376.82	229.65
377.19	229.53
377.57	229.38
377.95	229.29
378.33	229.23
378.71	229.10
379.09	229.03
379.47	229.00
379.84	228.93
380.22	228.91
380.60	228.83
380.98	228.67
381.36	228.68
381.73	228.58
382.11	228.47
382.49	228.40
382.87	228.26
383.25	228.20
383.62	228.43
384.00	228.37
384.38	228.26
384.76	228.01
385.13	228.07
385.51	228.10
385.89	227.98
386.27	227.76
386.64	227.79
387.02	227.83
387.40	227.85
387.78	227.77
388.15	227.78
388.53	227.68
388.91	227.70
389.29	227.64
389.66	227.63
390.04	227.59
390.42	227.57
390.79	227.52
391.17	227.44
391.55	227.08
391.92	227.11
392.30	227.02
392.68	227.13
393.05	227.05
393.43	227.11
393.81	227.14
394.18	227.19
394.56	227.21
394.94	227.19
395.31	227.17
395.69	227.27
396.06	227.31
396.44	227.42
396.82	227.49
397.19	227.65
397.57	227.78
397.95	227.91
398.32	228.05
398.70	228.18
399.07	228.24
399.45	228.37
399.82	228.37
400.20	228.68
400.58	228.79
400.95	228.86
401.33	229.03
401.70	229.39
402.08	229.51
402.45	229.70
402.83	229.91
403.20	230.07
403.58	230.30
403.95	230.59
404.33	230.94
404.71	231.18
405.08	231.46
405.46	231.64
405.83	231.92
406.21	232.31
406.58	232.65
406.96	233.13
407.33	233.53
407.70	234.08
408.08	234.59
408.45	235.18
408.83	235.72
409.20	236.18
409.58	236.59
409.95	237.24
410.33	237.93
410.70	238.73
411.08	239.55
411.45	240.32
411.82	241.23
412.20	242.13
412.57	243.25
412.95	244.20
413.32	245.36
413.69	246.48
414.07	247.57
414.44	249.00
414.82	250.20
415.19	251.68
415.56	253.20
415.94	254.80
416.31	256.42
416.68	258.27
417.06	260.40
417.43	262.44
417.81	264.85
418.18	267.00
418.55	269.50
418.93	272.09
419.30	274.69
419.67	277.33
420.04	280.20
420.42	283.23
420.79	286.78
421.16	290.25
421.54	293.85
421.91	297.66
422.28	301.54
422.66	305.76
423.03	309.84
423.40	314.00
423.77	318.42
424.15	323.03
424.52	327.82
424.89	333.05
425.26	338.05
425.64	342.65
426.01	347.93
426.38	353.31
426.75	358.67
427.13	364.35
427.50	370.35
427.87	376.46
428.24	382.68
428.61	388.52
428.99	395.05
429.36	402.17
429.73	408.90
430.10	415.64
430.47	422.71
430.85	430.01
431.22	437.67
431.59	445.78
431.96	453.66
432.33	462.28
432.70	470.52
433.08	480.23
433.45	489.24
433.82	498.22
434.19	508.25
434.56	518.16
434.93	527.71
435.30	537.01
435.68	547.49
436.05	557.60
436.42	567.89
436.79	577.06
437.16	587.10
437.53	597.68
437.90	608.03
438.27	618.10
438.64	628.99
439.01	638.95
439.38	647.74
439.75	656.16
440.13	665.81
440.50	675.04
440.87	682.80
441.24	691.18
441.61	700.23
441.98	706.72
442.35	714.64
442.72	722.54
443.09	730.25
443.46	735.04
443.83	738.58
444.20	741.77
444.57	746.28
444.94	748.80
445.31	751.72
445.68	754.32
446.05	756.25
446.42	756.33
446.79	756.21
447.16	756.22
447.53	756.59
447.90	754.03
448.27	751.50
448.64	746.99
449.01	744.29
449.37	738.41
449.74	732.90
450.11	725.88
450.48	718.14
450.85	710.39
451.22	703.85
451.59	697.71
451.96	691.72
452.33	683.34
452.70	675.68
453.07	666.31
453.43	657.14
453.80	647.89
454.17	638.76
454.54	630.41
454.91	621.24
455.28	612.29
455.65	603.99
456.02	595.23
456.38	588.13
456.75	578.77
457.12	571.07
457.49	563.58
457.86	556.20
458.23	549.92
458.59	542.86
458.96	535.87
459.33	529.62
459.70	523.24
460.07	518.02
460.43	512.18
460.80	506.35
461.17	501.43
461.54	496.29
461.91	491.45
462.27	486.36
462.64	481.84
463.01	477.06
463.38	472.39
463.74	467.90
464.11	463.96
464.48	460.35
464.85	456.47
465.21	453.38
465.58	450.10
465.95	446.10
466.32	442.98
466.68	439.56
467.05	436.33
467.42	433.18
467.78	429.76
468.15	426.50
468.52	424.28
468.88	421.03
469.25	418.20
469.62	415.93
469.98	413.40
470.35	411.18
470.72	409.01
471.08	406.60
471.45	404.69
471.82	402.46
472.18	400.29
472.55	398.61
472.92	396.68
473.28	395.07
473.65	393.44
474.02	391.76
474.38	390.35
474.75	388.91
475.11	387.46
475.48	386.59
475.85	385.70
476.21	384.65
476.58	383.86
476.94	383.21
477.31	382.45
477.67	381.70
478.04	381.11
478.41	380.60
478.77	380.29
479.14	379.77
479.50	379.40
479.87	379.32
480.23	379.33
480.60	379.10
480.96	378.90
481.33	379.09
481.69	379.20
482.06	379.38
482.42	379.39
482.79	379.60
483.15	379.92
483.52	380.43
483.88	380.85
484.25	381.24
484.61	381.85
484.98	382.38
485.34	383.38
485.71	384.24
486.07	385.25
486.44	386.20
486.80	387.36
487.17	388.47
487.53	389.75
487.90	391.08
488.26	392.61
488.62	394.30
488.99	395.79
489.35	397.47
489.72	399.13
490.08	401.12
490.44	403.04
490.81	405.06
491.17	407.04
491.54	409.22
491.90	411.22
492.26	413.52
492.63	415.90
492.99	418.34
493.36	420.85
493.72	423.56
494.08	426.28
494.45	428.93
494.81	431.93
495.17	434.85
495.54	437.83
495.90	440.99
496.26	443.85
496.63	447.25
496.99	450.58
497.35	454.08
497.72	457.53
498.08	460.92
498.44	464.28
498.80	467.97
499.17	471.54
499.53	475.43
499.89	479.17
500.26	482.89
500.62	486.46
500.98	490.34
501.34	493.92
501.71	497.54
502.07	501.33
502.43	505.05
502.79	508.80
503.16	512.65
503.52	516.38
503.88	520.24
504.24	523.82
504.60	527.47
504.97	531.10
505.33	534.90
505.69	538.77
506.05	542.65
506.41	546.30
506.78	549.96
507.14	553.43
507.50	557.01
507.86	560.64
508.22	564.15
508.59	567.60
508.95	571.17
509.31	574.73
509.67	578.01
510.03	581.47
510.39	584.80
510.75	588.13
511.12	591.18
511.48	594.34
511.84	597.25
512.20	600.12
512.56	603.19
512.92	606.18
513.28	609.14
513.64	611.90
514.00	614.56
514.37	617.24
514.73	619.88
515.09	622.32
515.45	624.80
515.81	627.19
516.17	629.47
516.53	631.59
516.89	633.47
517.25	635.70
517.61	637.65
517.97	639.44
518.33	641.16
518.69	643.15
519.05	644.95
519.41	647.20
519.77	649.31
520.13	651.19
520.49	652.66
520.85	654.20
521.21	655.93
521.57	657.77
521.93	659.41
522.29	661.29
522.65	662.90
523.01	664.31
523.37	665.70
523.73	667.15
524.09	668.60
524.45	670.29
524.81	671.89
525.17	673.91
525.53	675.90
525.89	677.64
526.25	679.31
526.61	680.84
526.97	682.24
527.33	683.68
527.68	685.32
528.04	686.88
528.40	688.54
528.76	690.18
529.12	691.79
529.48	693.45
529.84	694.91
530.20	696.83
530.56	698.74
530.91	701.02
531.27	703.07
531.63	704.96
531.99	706.70
532.35	708.39
532.71	709.86
533.07	711.75
533.42	713.70
533.78	715.73
534.14	717.81
534.50	719.88
534.86	722.10
535.21	724.05
535.57	726.45
535.93	728.86
536.29	731.12
536.65	733.38
537.00	735.47
537.36	738.10
537.72	740.21
538.08	742.57
538.44	744.64
538.79	747.08
539.15	749.68
539.51	752.54
539.87	755.44
540.22	758.16
540.58	760.91
540.94	763.32
541.29	765.70
541.65	768.31
542.01	771.21
542.37	773.95
542.72	776.66
543.08	779.36
543.44	781.95
543.79	784.69
544.15	787.41
544.51	790.43
544.87	793.26
545.22	796.33
545.58	798.96
545.94	801.76
546.29	804.43
546.65	807.18
547.01	809.87
547.36	812.47
547.72	814.98
548.07	817.36
548.43	820.28
548.79	823.31
549.14	826.23
549.50	828.73
549.86	831.44
550.21	834.21
550.57	837.19
550.92	840.08
551.28	842.65
551.64	845.22
551.99	848.37
552.35	851.06
552.70	853.85
553.06	857.09
553.41	860.15
553.77	863.13
554.13	866.21
554.48	869.24
554.84	872.04
555.19	875.01
555.55	878.06
555.90	880.85
556.26	883.64
556.61	886.31
556.97	889.31
557.32	892.08
557.68	894.87
558.03	897.54
558.39	900.18
558.74	903.18
559.10	906.24
559.45	908.63
559.81	911.63
560.16	914.13
560.52	916.80
560.87	919.56
561.23	921.96
561.58	924.65
561.94	927.27
562.29	929.77
562.64	932.28
563.00	934.80
563.35	937.40
563.71	940.20
564.06	942.88
564.42	945.37
564.77	947.73
565.12	950.29
565.48	952.71
565.83	955.03
566.19	957.44
566.54	959.56
566.89	961.81
567.25	963.95
567.60	966.45
567.96	968.31
568.31	970.27
568.66	972.50
569.02	974.15
569.37	975.55
569.72	977.60
570.08	979.59
570.43	981.40
570.78	983.00
571.14	984.12
571.49	985.41
571.84	986.90
572.20	988.20
572.55	989.03
572.90	989.84
573.26	990.93
573.61	991.70
573.96	992.60
574.31	993.21
574.67	993.45
575.02	993.47
575.37	993.92
575.72	993.72
576.08	994.16
576.43	994.56
576.78	995.09
577.13	995.33
577.49	995.49
577.84	995.43
578.19	995.43
578.54	995.58
578.90	995.14
579.25	994.40
579.60	994.03
579.95	993.88
580.30	993.55
580.66	993.03
581.01	992.30
581.36	991.86
581.71	991.48
582.06	991.07
582.42	990.67
582.77	989.88
583.12	989.60
583.47	988.87
583.82	988.19
584.17	987.28
584.53	986.33
584.88	985.01
585.23	983.95
585.58	983.00
585.93	981.87
586.28	981.59
586.63	980.80
586.98	979.99
587.34	979.11
587.69	978.17
588.04	977.13
588.39	976.39
588.74	974.79
589.09	973.25
589.44	971.80
589.79	970.46
590.14	969.28
590.49	968.12
590.84	966.44
591.19	964.95
591.54	963.20
591.89	960.96
592.25	959.70
592.60	957.71
592.95	955.57
593.30	953.42
593.65	951.20
594.00	949.06
594.35	947.63
594.70	945.43
595.05	943.31
595.40	940.92
595.75	938.40
596.10	936.41
596.45	934.89
596.80	933.16
597.15	931.26
597.50	929.11
597.85	926.88
598.19	924.99
598.54	922.87
598.89	920.96
599.24	919.51
599.59	917.38
599.94	915.59
600.29	913.74
600.64	911.91
600.99	909.50
601.34	907.49
601.69	904.68
602.04	902.48
602.39	900.13
602.74	898.37
603.08	896.73
603.43	894.92
603.78	892.42
604.13	889.79
604.48	887.21
604.83	885.02
605.18	882.70
605.53	879.72
605.87	877.11
606.22	874.66
606.57	872.08
606.92	869.13
607.27	866.48
607.62	864.25
607.96	861.77
608.31	859.46
608.66	856.84
609.01	853.92
609.36	851.01
609.70	848.03
610.05	844.81
610.40	841.77
610.75	838.61
611.10	835.22
611.44	832.08
611.79	829.22
612.14	825.93
612.49	822.43
612.83	819.54
613.18	816.16
613.53	812.80
613.88	809.39
614.22	806.29
614.57	803.04
614.92	799.42
615.27	796.22
615.61	792.75
615.96	789.50
616.31	786.80
616.65	784.12
617.00	781.37
617.35	778.27
617.70	774.99
618.04	771.78
618.39	768.85
618.74	765.83
619.08	762.54
619.43	759.54
619.78	756.70
620.12	753.50
620.47	750.64
620.82	747.54
621.16	744.47
621.51	741.59
621.85	738.54
622.20	735.50
622.55	732.44
622.89	729.62
623.24	726.69
623.59	723.54
623.93	720.45
624.28	717.41
624.62	714.60
624.97	711.67
625.32	708.70
625.66	705.89
626.01	703.13
626.35	700.22
626.70	697.12
627.04	694.30
627.39	691.59
627.73	688.70
628.08	685.89
628.43	683.10
628.77	680.04
629.12	677.04
629.46	674.20
629.81	671.01
630.15	667.99
630.50	664.92
630.84	661.79
631.19	658.62
631.53	655.74
631.88	652.46
632.22	649.16
632.57	646.17
632.91	643.42
633.26	640.28
633.60	637.42
633.95	634.80
634.29	631.97
634.64	629.20
634.98	626.21
635.32	623.58
635.67	621.03
636.01	618.51
636.36	615.80
636.70	613.09
637.05	610.64
637.39	608.16
637.73	605.73
638.08	603.28
638.42	600.91
638.77	598.25
639.11	595.77
639.45	593.50
639.80	591.13
640.14	588.30
640.49	585.81
640.83	583.06
641.17	580.31
641.52	577.64
641.86	575.16
642.20	572.87
642.55	570.21
642.89	567.34
643.23	564.76
643.58	562.42
643.92	559.78
644.26	557.17
644.61	554.87
644.95	552.51
645.29	550.01
645.64	547.44
645.98	544.94
646.32	542.67
646.66	540.15
647.01	537.70
647.35	535.47
647.69	533.20
648.04	531.08
648.38	528.86
648.72	526.29
649.06	523.52
649.41	520.99
649.75	518.55
650.09	516.19
650.43	513.80
650.78	511.37
651.12	509.15
651.46	506.90
651.80	504.40
652.14	501.73
652.49	499.44
652.83	497.16
653.17	494.70
653.51	492.35
653.85	489.99
654.20	487.60
654.54	485.19
654.88	482.63
655.22	480.28
655.56	477.88
655.90	475.72
656.25	473.69
656.59	471.41
656.93	469.38
657.27	467.44
657.61	465.25
657.95	463.18
658.29	460.93
658.64	458.65
658.98	456.37
659.32	454.34
659.66	452.08
660.00	449.84
660.34	447.91
660.68	445.99
661.02	443.81
661.36	441.88
661.70	440.05
662.05	438.28
662.39	436.29
662.73	434.44
663.07	432.70
663.41	431.01
663.75	429.02
664.09	427.13
664.43	425.14
664.77	423.27
665.11	421.38
665.45	419.65
665.79	417.96
666.13	416.22
666.47	414.30
666.81	412.49
667.15	410.64
667.49	409.07
667.83	407.34
668.17	405.79
668.51	404.07
668.85	402.17
669.19	400.66
669.53	399.07
669.87	397.35
670.21	395.66
670.55	393.93
670.89	392.69
671.23	391.09
671.57	389.46
671.91	388.06
672.25	386.56
672.58	385.17
672.92	383.80
673.26	382.44
673.60	381.30
673.94	380.05
674.28	378.83
674.62	377.45
674.96	375.91
675.30	374.59
675.64	373.20
675.97	371.91
676.31	370.54
676.65	369.30
676.99	368.11
677.33	366.77
677.67	365.54
678.01	364.18
678.34	362.89
678.68	361.83
679.02	360.49
679.36	359.26
679.70	358.04
680.04	356.68
680.37	355.49
680.71	354.17
681.05	353.18
681.39	352.06
681.73	350.88
682.06	349.84
682.40	348.78
682.74	347.74
683.08	346.76
683.42	345.63
683.75	344.66
684.09	343.66
684.43	342.68
684.77	341.45
685.10	340.38
685.44	339.29
685.78	338.17
686.12	337.20
686.45	336.16
686.79	335.14
687.13	334.29
687.46	333.24
687.80	332.28
688.14	331.14
688.48	330.12
688.81	329.09
689.15	328.30
689.49	327.26
689.82	326.28
690.16	325.19
690.50	324.20
690.83	323.07
691.17	321.84
691.51	320.85
691.84	320.15
692.18	319.19
692.52	318.35
692.85	317.56
693.19	316.67
693.52	315.81
693.86	314.79
694.20	313.69
694.53	312.85
694.87	311.87
695.21	310.84
695.54	309.97
695.88	309.03
696.21	307.95
696.55	307.11
696.88	306.23
697.22	305.44
697.56	304.62
697.89	303.72
698.23	303.08
698.56	302.31
698.90	301.37
699.23	300.54
699.57	299.63
699.90	298.62
700.24	297.90
700.58	297.09
700.91	296.46
701.25	295.84
701.58	295.13
701.92	294.65
702.25	294.06
702.59	293.18
702.92	292.54
703.26	291.86
703.59	291.22
703.93	290.71
704.26	290.10
704.60	289.40
704.93	288.85
705.26	288.20
705.60	287.52
705.93	286.97
706.27	286.44
706.60	285.98
706.94	285.61
707.27	284.89
707.61	284.22
707.94	283.61
708.27	282.98
708.61	282.20
708.94	281.52
709.28	280.89
709.61	280.48
709.94	279.88
710.28	279.38
710.61	278.77
710.95	277.94
711.28	277.39
711.61	276.78
711.95	276.28
712.28	275.54
712.61	275.08
712.95	274.54
713.28	273.90
713.61	273.27
713.95	272.56
714.28	272.09
714.61	271.62
714.95	271.12
715.28	270.61
715.61	270.13
715.95	269.63
716.28	269.14
716.61	268.72
716.95	268.28
717.28	267.73
717.61	267.48
717.94	267.23
718.28	266.60
718.61	266.22
718.94	265.84
719.27	265.63
719.61	265.14
719.94	264.71
720.27	264.36
720.60	264.02
720.94	263.76
721.27	263.46
721.60	263.13
721.93	262.65
722.27	262.47
722.60	262.24
722.93	261.84
723.26	261.56
723.59	261.19
723.93	260.89
724.26	260.58
724.59	260.11
724.92	259.81
725.25	259.68
725.59	259.36
725.92	259.01
726.25	258.73
726.58	258.50
726.91	258.20
727.24	257.92
727.57	257.60
727.91	257.28
728.24	256.92
728.57	256.61
728.90	256.48
729.23	256.04
729.56	255.86
729.89	255.63
730.22	255.30
730.55	255.01
730.89	254.71
731.22	254.40
731.55	254.15
731.88	253.83
732.21	253.58
732.54	253.30
732.87	253.03
733.20	252.72
733.53	252.52
733.86	252.36
734.19	252.04
734.52	251.90
734.85	251.85
735.18	251.64
735.51	251.47
735.84	251.35
736.17	251.14
736.50	250.91
736.83	250.96
737.16	250.76
737.49	250.52
737.82	250.27
738.15	250.12
738.48	249.86
738.81	249.66
739.14	249.42
739.47	249.28
739.80	249.05
740.13	248.84
740.46	248.59
740.79	248.47
741.12	248.38
741.45	248.15
741.78	247.75
742.11	247.51
742.44	247.21
742.77	246.90
743.10	246.64
743.43	246.26
743.75	245.83
744.08	245.93
744.41	245.77
744.74	245.60
745.07	245.37
745.40	245.31
745.73	245.17
746.06	245.03
746.39	244.89
746.71	244.76
747.04	244.53
747.37	244.30
747.70	244.14
748.03	243.92
748.36	243.71
748.68	243.51
749.01	243.34
749.34	243.30
749.67	243.07
750.00	243.09
750.33	243.07
750.65	242.92
750.98	242.50
751.31	242.39
751.64	242.34
751.97	242.21
752.29	241.89
752.62	241.60
752.95	241.39
753.28	241.13
753.60	240.87
753.93	240.83
754.26	240.75
754.59	240.41
754.91	240.23
755.24	240.14
755.57	240.04
755.90	239.96
756.22	239.78
756.55	239.61
756.88	239.34
757.20	239.20
757.53	239.00
757.86	238.83
758.19	238.59
758.51	238.37
758.84	238.23
759.17	238.23
759.49	238.27
759.82	238.26
760.15	238.23
760.47	238.17
760.80	237.89
761.13	237.77
761.45	237.69
761.78	237.59
762.11	237.47
762.43	237.38
762.76	237.31
763.08	237.24
763.41	237.21
763.74	237.22
764.06	237.00
764.39	236.87
764.71	236.82
765.04	236.79
765.37	236.69
765.69	236.73
766.02	236.57
766.34	236.44
766.67	236.29
767.00	236.24
767.32	236.25
767.65	236.40
767.97	236.29
768.30	236.32
768.62	236.27
768.95	236.26
769.27	236.06
769.60	235.98
769.92	235.96
770.25	235.90
770.57	235.70
770.90	235.63
771.22	235.65
771.55	235.51
771.87	235.44
772.20	235.48
772.52	235.60
772.85	235.75
773.17	235.70
773.50	235.65
773.82	235.53
774.15	235.39
774.47	235.24
774.80	235.23
775.12	235.01
775.45	234.96
775.77	234.87
776.09	234.96
776.42	234.88
776.74	234.76
777.07	234.65
777.39	234.70
777.72	234.74
778.04	234.70
778.36	234.69
778.69	234.66
779.01	234.56
779.33	234.29
779.66	234.08
779.98	233.98
780.31	233.92
780.63	233.99
780.95	234.03
781.28	233.90
781.60	233.83
781.92	233.91
782.25	233.90
782.57	233.77
782.89	233.63
783.22	233.58
783.54	233.59
783.86	233.59
784.19	233.51
784.51	233.42
784.83	233.36
785.16	233.35
785.48	233.23
785.80	233.07
786.12	232.94
786.45	232.84
786.77	232.78
787.09	232.67
787.42	232.43
787.74	232.34
788.06	232.38
788.38	232.30
788.71	232.25
789.03	232.12
789.35	232.20
789.67	232.14
789.99	232.07
790.32	231.90
790.64	231.81
790.96	231.80
791.28	231.69
791.61	231.56
791.93	231.44
792.25	231.36
792.57	231.51
792.89	231.43
793.21	231.42
793.54	231.32
793.86	231.31
794.18	231.29
794.50	231.13
794.82	230.96
795.14	230.80
795.47	230.72
795.79	230.78
796.11	230.58
796.43	230.64
796.75	230.50
797.07	230.46
797.39	230.41
797.71	230.26
798.04	230.29
798.36	230.19
798.68	230.19
799.00	230.27
799.32	230.15
799.64	230.20
799.96	230.16
800.28	230.28
800.60	230.22
800.92	230.19
801.24	230.27
801.56	230.37
801.89	230.51
802.21	230.43
802.53	230.35
802.85	230.39
803.17	230.30
803.49	230.40
803.81	230.42
804.13	230.43
804.45	230.43
804.77	230.51
805.09	230.63
805.41	230.53
805.73	230.50
806.05	230.47
806.37	230.48
806.69	230.42
807.01	230.33
807.33	230.43
807.65	230.39
807.97	230.46
808.28	230.45
808.60	230.33
808.92	230.34
809.24	230.52
809.56	230.48
809.88	230.46
810.20	230.41
810.52	230.40
810.84	230.37
811.16	230.35
811.48	230.23
811.80	230.26
812.12	230.46
812.43	230.45
812.75	230.51
813.07	230.46
813.39	230.44
813.71	230.47
814.03	230.39
814.35	230.45
814.67	230.31
814.98	230.33
815.30	230.49
815.62	230.49
815.94	230.37
816.26	230.46
816.58	230.53
816.89	230.67
817.21	230.67
817.53	230.76
817.85	230.79
818.17	230.86
818.48	230.73
818.80	230.69
819.12	230.72
819.44	230.67
819.76	230.76
820.07	230.81
820.39	230.88
820.71	230.90
821.03	230.88
821.34	230.90
821.66	230.80
821.98	230.72
822.30	230.66
822.61	230.72
822.93	230.60
823.25	230.52
823.57	230.23
823.88	230.29
824.20	230.19
824.52	230.21
824.83	230.19
825.15	230.29
825.47	230.29
825.79	230.21
826.10	230.21
826.42	230.10
826.74	230.21
827.05	230.12
827.37	230.10
827.69	230.10
828.00	230.10
828.32	230.09
828.64	229.99
828.95	230.07
829.27	229.90
829.58	230.03
829.90	230.06
830.22	230.16
830.53	230.04
830.85	230.00
831.17	229.82
831.48	229.82
831.80	229.67
832.11	229.51
832.43	229.40
832.75	229.39
833.06	229.40
833.38	229.19
833.69	229.09
834.01	229.12
834.32	229.04
834.64	228.96
834.96	229.00
835.27	228.97
835.59	228.93
835.90	228.96
836.22	228.83
836.53	228.72
836.85	228.69
837.16	228.86
837.48	228.82
837.79	228.96
838.11	228.78
838.42	228.78
838.74	228.82
839.05	228.85
839.37	228.70
839.68	228.73
840.00	228.83
840.31	228.84
840.63	228.76
840.94	228.77
841.26	228.80
841.57	228.74
841.88	228.70
842.20	228.60
842.51	228.48
842.83	228.40
843.14	228.58
843.46	228.53
843.77	228.40
844.08	228.50
844.40	228.39
844.71	228.44
845.03	228.40
845.34	228.45
845.65	228.51
845.97	228.54
846.28	228.47
846.60	228.45
846.91	228.46
847.22	228.38
847.54	228.36
847.85	228.34
848.16	228.39
848.48	228.44
848.79	228.57
849.10	228.60
849.42	228.62
849.73	228.46
850.04	228.50
850.36	228.50
850.67	228.44
850.98	228.56
851.30	228.70
851.61	228.73
851.92	228.65
852.23	228.70
852.55	228.82
852.86	228.85
853.17	228.83
853.49	228.84
853.80	229.01
854.11	229.12
854.42	229.15
854.74	229.19
855.05	229.37
855.36	229.33
855.67	229.43
855.99	229.51
856.30	229.79
856.61	229.87
856.92	229.93
857.23	230.06
857.55	229.99
857.86	229.87
858.17	230.00
858.48	230.05
858.79	229.99
859.11	229.93
859.42	229.94
859.73	229.95
860.04	230.02
860.35	229.93
860.66	229.93
860.98	229.93
861.29	229.91
861.60	229.73
861.91	229.77
862.22	229.74
862.53	229.72
862.84	229.52
863.16	229.50
863.47	229.45
863.78	229.32
864.09	229.40
864.40	229.46
864.71	229.35
865.02	229.48
865.33	229.33
865.64	229.35
865.95	229.34
866.27	229.47
866.58	229.37
866.89	229.41
867.20	229.36
867.51	229.36
867.82	229.26
868.13	229.38
868.44	229.30
868.75	229.34
869.06	229.30
869.37	229.37
869.68	229.36
869.99	229.27
870.30	229.30
870.61	229.26
870.92	229.10
871.23	229.14
871.54	229.03
871.85	229.22
872.16	229.17
872.47	229.05
872.78	228.81
873.09	228.85
873.40	228.70
873.71	228.68
874.02	228.62
874.33	228.60
874.64	228.53
874.95	228.55
875.26	228.44
875.56	228.44
875.87	228.30
876.18	228.20
876.49	228.41
876.80	228.32
877.11	228.18
877.42	228.30
877.73	228.26
878.04	228.24
878.35	228.10
878.66	228.15
878.96	228.18
879.27	228.22
879.58	228.10
879.89	228.19
880.20	228.20
880.51	228.26
880.82	228.25
881.12	228.18
881.43	228.13
881.74	228.13
882.05	228.09
882.36	228.11
882.67	228.17
882.97	228.05
883.28	227.99
883.59	228.08
883.90	228.05
884.21	228.13
884.51	228.00
884.82	228.01
885.13	227.93
885.44	227.95
885.74	227.92
886.05	228.09
886.36	228.06
886.67	228.08
886.98	228.18
887.28	228.20
887.59	228.23
887.90	228.16
888.20	228.23
888.51	228.32
888.82	228.27
889.13	228.26
889.43	228.35
889.74	228.41
890.05	228.38
890.35	228.45
890.66	228.41
890.97	228.56
891.28	228.58
891.58	228.61
891.89	228.60
892.20	228.62
892.50	228.51
892.81	228.52
893.12	228.48
893.42	228.37
893.73	228.38
894.04	228.40
894.34	228.53
894.65	228.50
894.95	228.51
895.26	228.61
895.57	228.72
895.87	228.57
896.18	228.60
896.48	228.69
896.79	228.68
897.10	228.75
897.40	228.67
897.71	228.75
898.01	228.73
898.32	228.81
898.63	228.78
898.93	228.87
899.24	228.91
899.54	229.00
899.85	229.01
900.15	228.99
900.46	229.00
900.76	229.03
901.07	229.03
901.38	229.00
901.68	229.02
901.99	228.87
902.29	228.86
902.60	228.90
902.90	228.80
903.21	228.71
903.51	228.64
903.82	228.75
904.12	228.73
904.43	228.74
904.73	228.70
905.03	228.73
905.34	228.89
905.64	228.90
905.95	228.84
906.25	228.89
906.56	228.90
906.86	228.90
907.17	228.83
907.47	228.88
907.77	228.87
908.08	228.72
908.38	228.75
908.69	228.84
908.99	228.80
909.30	228.86
909.60	228.85
909.90	228.84
910.21	228.70
910.51	228.56
910.81	228.54
911.12	228.57
911.42	228.51
911.73	228.29
912.03	228.14
912.33	228.09
912.64	227.92
912.94	227.90
913.24	227.90
913.55	227.88
913.85	227.76
914.15	227.78
914.46	227.85
914.76	227.78
915.06	227.69
915.37	227.73
915.67	227.69
915.97	227.58
916.27	227.52
916.58	227.59
916.88	227.62
917.18	227.70
917.49	227.71
917.79	227.70
918.09	227.71
918.39	227.75
918.70	227.71
919.00	227.66
919.30	227.79
919.60	227.73
919.91	227.70
920.21	227.63
920.51	227.58
920.81	227.50
921.12	227.60
921.42	227.62
921.72	227.60
922.02	227.68
922.32	227.84
922.63	227.86
922.93	228.00
923.23	228.10
923.53	228.02
923.83	228.02
924.13	228.09
924.44	228.13
924.74	228.23
925.04	228.40
925.34	228.55
925.64	228.57
925.94	228.68
926.24	228.87
926.55	228.93
926.85	228.98
927.15	229.05
927.45	229.13
927.75	229.13
928.05	229.22
928.35	229.21
928.65	229.25
928.95	229.26
929.26	229.12
929.56	229.05
929.86	229.12
930.16	229.05
930.46	229.11
930.76	229.11
931.06	229.02
931.36	228.96
931.66	229.03
931.96	228.96
932.26	228.96
932.56	228.85
932.86	228.93
933.16	228.90
933.46	228.94
933.76	228.89
934.06	228.96
934.36	229.07
934.66	229.09
934.96	229.12
935.26	229.24
935.56	229.30
935.86	229.44
936.16	229.43
936.46	229.47
936.76	229.41
937.06	229.42
937.36	229.46
937.66	229.50
937.96	229.46
938.26	229.47
938.56	229.43
938.86	229.40
939.16	229.38
939.46	229.46
939.76	229.41
940.06	229.38
940.35	229.44
940.65	229.16
940.95	229.13
941.25	228.97
941.55	228.92
941.85	228.84
942.15	228.78
942.45	228.78
942.75	228.78
943.04	228.77
943.34	228.79
943.64	228.73
943.94	228.62
944.24	228.54
944.54	228.55
944.84	228.56
945.13	228.52
945.43	228.46
945.73	228.41
946.03	228.39
946.33	228.27
946.62	228.10
946.92	228.18
947.22	228.16
947.52	228.15
947.82	228.08
948.11	228.04
948.41	227.92
948.71	227.83
949.01	227.70
949.31	227.69
949.60	227.58
949.90	227.65
950.20	227.55
950.50	227.55
950.79	227.42
951.09	227.30
951.39	227.20
951.69	227.24
951.98	227.19
952.28	227.16
952.58	227.11
952.87	227.11
953.17	227.07
953.47	227.02
953.76	227.04
954.06	226.95
954.36	226.93
954.66	226.97
954.95	226.98
955.25	227.04
955.55	227.00
955.84	226.99
956.14	226.92
956.44	226.98
956.73	226.97
957.03	227.00
957.32	227.10
957.62	227.21
957.92	227.27
958.21	227.19
958.51	227.40
958.81	227.49
959.10	227.45
959.40	227.45
959.69	227.38
959.99	227.41
960.29	227.48
960.58	227.50
960.88	227.54
961.17	227.57
961.47	227.67
961.76	227.66
962.06	227.73
962.36	227.76
962.65	227.83
962.95	227.89
963.24	227.96
963.54	227.98
963.83	228.08
964.13	228.04
964.42	228.16
964.72	228.10
965.01	228.21
965.31	228.26
965.60	228.37
965.90	228.67
966.19	228.69
966.49	228.73
966.78	228.85
967.08	228.96
967.37	229.06
967.67	229.06
967.96	229.13
968.26	229.13
968.55	229.23
968.85	229.36
969.14	229.55
969.43	229.59
969.73	229.63
970.02	229.60
970.32	229.56
970.61	229.56
970.91	229.49
971.20	229.50
971.49	229.58
971.79	229.62
972.08	229.48
972.38	229.59
972.67	229.45
972.96	229.47
973.26	229.32
973.55	229.44
973.85	229.35
974.14	229.42
974.43	229.48
974.73	229.44
975.02	229.32
975.31	229.17
975.61	229.17
975.90	229.18
976.19	229.15
976.49	229.20
976.78	229.09
977.07	229.07
977.37	229.01
977.66	229.03
977.95	228.84
978.24	228.92
978.54	228.80
978.83	228.99
979.12	228.99
979.42	228.95
979.71	228.86
980.00	228.98
980.29	228.91
980.59	228.86
980.88	228.81
981.17	228.76
981.46	228.62
981.76	228.54
982.05	228.56
982.34	228.56
982.63	228.48
982.93	228.52
983.22	228.49
983.51	228.38
983.80	228.30
984.09	228.28
984.39	228.14
984.68	228.16
984.97	227.99
985.26	227.85
985.55	227.84
985.85	227.74
986.14	227.64
986.43	227.64
986.72	227.62
987.01	227.55
987.30	227.50
987.59	227.53
987.89	227.49
988.18	227.35
988.47	227.29
988.76	227.41
989.05	227.41
989.34	227.39
989.63	227.40
989.92	227.38
990.22	227.43
990.51	227.38
990.80	227.43
991.09	227.41
991.38	227.44
991.67	227.48
991.96	227.42
992.25	227.48
992.54	227.39
992.83	227.33
993.12	227.41
993.41	227.49
993.70	227.56
993.99	227.63
994.28	227.61
994.58	227.63
994.87	227.50
995.16	227.57
995.45	227.52
995.74	227.60
996.03	227.65
996.32	227.73
996.61	227.83
996.90	227.82
997.19	227.90
997.48	227.97
997.77	228.00
998.06	228.03
998.34	228.09
998.63	228.23
998.92	228.35
999.21	228.38
999.50	228.48
999.79	228.50
1000.08	228.46
1000.37	228.57
1000.66	228.58
1000.95	228.77
1001.24	228.71
1001.53	228.87
1001.82	228.90
1002.11	228.91
1002.40	228.96
1002.68	229.04
1002.97	229.13
1003.26	229.13
1003.55	229.04
1003.84	228.99
1004.13	229.09
1004.42	229.11
1004.71	229.13
1004.99	229.11
1005.28	229.18
1005.57	229.10
1005.86	229.06
1006.15	229.13
1006.44	229.06
1006.72	229.12
1007.01	228.98
1007.30	228.98
1007.59	228.95
1007.88	228.90
1008.17	228.90
1008.45	228.77
1008.74	228.71
1009.03	228.70
1009.32	228.72
1009.60	228.80
1009.89	228.85
1010.18	228.71
1010.47	228.57
1010.76	228.51
1011.04	228.49
1011.33	228.48
1011.62	228.59
1011.91	228.57
1012.19	228.47
1012.48	228.49
1012.77	228.40
1013.05	228.51
1013.34	228.52
1013.63	228.49
1013.92	228.46
1014.20	228.40
1014.49	228.38
1014.78	228.28
1015.06	228.19
1015.35	228.15
1015.64	228.04
1015.92	228.06
1016.21	228.07
1016.50	228.07
1016.78	228.02
1017.07	228.09
1017.36	227.89
1017.64	227.67
1017.93	227.69
1018.22	227.77
1018.50	227.72
1018.79	227.65
1019.08	227.50
1019.36	227.49
1019.65	227.44
1019.93	227.43
1020.22	227.46
1020.51	227.54
1020.79	227.54
1021.08	228.50
1021.36	227.10
1021.65	226.00
1021.94	226.90
1022.22	227.70
1022.51	226.70
1022.79	227.50
1023.08	228.00
1023.36	229.00
1023.65	227.30
>>>>>End Processed Spectral Data<<<<<
