SpectraSuite Data File
++++++++++++++++++++++++++++++++++++
Date: Fri Feb 01 14:40:10 EST 2013
User: group
Dark Spectrum Present: No
Reference Spectrum Present: No
Number of Sampled Component Spectra: 1
Spectrometers: USB2E7196
Integration Time (usec): 70000 (USB2E7196)
Spectra Averaged: 10 (USB2E7196)
Boxcar Smoothing: 10 (USB2E7196)
Correct for Electrical Dark: No (USB2E7196)
Strobe/Lamp Enabled: No (USB2E7196)
Correct for Detector Non-linearity: No (USB2E7196)
Correct for Stray Light: No (USB2E7196)
Number of Pixels in Processed Spectrum: 2048
>>>>>Begin Processed Spectral Data<<<<<
339.09	0.00
339.48	214.20
339.86	218.60
340.24	219.10
340.63	219.30
341.01	224.30
341.39	223.70
341.78	224.90
342.16	226.70
342.54	227.30
342.93	214.99
343.31	225.83
343.69	226.52
344.07	226.93
344.46	227.35
344.84	227.72
345.22	227.92
345.60	228.21
345.99	228.37
346.37	228.38
346.75	228.40
347.13	228.38
347.52	228.40
347.90	228.54
348.28	228.47
348.66	228.47
349.05	228.43
349.43	228.50
349.81	228.56
350.19	228.58
350.57	228.62
350.96	228.71
351.34	228.75
351.72	228.68
352.10	228.80
352.48	228.89
352.87	229.02
353.25	229.04
353.63	229.03
354.01	229.13
354.39	229.32
354.77	229.39
355.15	229.40
355.54	229.49
355.92	229.34
356.30	229.42
356.68	229.53
357.06	229.46
357.44	229.39
357.82	229.35
358.20	229.43
358.58	229.54
358.97	229.47
359.35	229.51
359.73	229.66
360.11	229.75
360.49	229.67
360.87	229.69
361.25	229.85
361.63	229.95
362.01	229.97
362.39	229.88
362.77	229.90
363.15	229.97
363.53	229.95
363.91	230.01
364.29	230.10
364.67	229.95
365.05	229.93
365.43	229.91
365.81	229.93
366.19	229.91
366.57	229.93
366.95	229.95
367.33	229.99
367.71	229.96
368.09	229.88
368.47	229.90
368.85	229.80
369.23	229.71
369.61	229.66
369.99	229.64
370.37	229.65
370.75	229.73
371.13	229.64
371.51	229.47
371.89	229.41
372.27	229.41
372.65	229.30
373.03	229.34
373.41	229.35
373.78	229.29
374.16	229.21
374.54	229.08
374.92	229.06
375.30	228.98
375.68	228.93
376.06	228.82
376.44	228.70
376.82	228.62
377.19	228.49
377.57	228.36
377.95	228.19
378.33	228.08
378.71	227.84
379.09	227.81
379.47	227.78
379.84	227.73
380.22	227.58
380.60	227.56
380.98	227.45
381.36	227.44
381.73	227.28
382.11	227.22
382.49	227.15
382.87	227.01
383.25	226.92
383.62	226.94
384.00	226.89
384.38	226.85
384.76	226.82
385.13	226.81
385.51	226.73
385.89	226.66
386.27	226.62
386.64	226.58
387.02	226.54
387.40	226.60
387.78	226.57
388.15	226.57
388.53	226.54
388.91	226.59
389.29	226.50
389.66	226.73
390.04	226.69
390.42	226.63
390.79	226.61
391.17	226.58
391.55	226.54
391.92	226.57
392.30	226.57
392.68	226.59
393.05	226.64
393.43	226.66
393.81	226.71
394.18	226.63
394.56	226.75
394.94	226.75
395.31	226.68
395.69	226.79
396.06	226.77
396.44	226.88
396.82	226.92
397.19	227.08
397.57	226.98
397.95	227.03
398.32	227.11
398.70	227.19
399.07	227.25
399.45	227.24
399.82	227.25
400.20	227.35
400.58	227.39
400.95	227.35
401.33	227.58
401.70	227.79
402.08	228.02
402.45	228.10
402.83	228.28
403.20	228.31
403.58	228.28
403.95	228.43
404.33	228.57
404.71	228.68
405.08	228.92
405.46	229.08
405.83	229.27
406.21	229.44
406.58	229.57
406.96	229.74
407.33	229.83
407.70	229.98
408.08	230.31
408.45	230.67
408.83	230.90
409.20	231.02
409.58	231.12
409.95	231.40
410.33	231.67
410.70	231.89
411.08	232.28
411.45	232.63
411.82	233.00
412.20	233.32
412.57	233.62
412.95	233.86
413.32	234.12
413.69	234.46
414.07	234.82
414.44	235.28
414.82	235.77
415.19	236.30
415.56	236.90
415.94	237.35
416.31	237.81
416.68	238.42
417.06	239.02
417.43	239.68
417.81	240.44
418.18	241.17
418.55	241.87
418.93	242.73
419.30	243.50
419.67	244.30
420.04	245.20
420.42	246.21
420.79	247.38
421.16	248.53
421.54	249.77
421.91	251.03
422.28	252.24
422.66	253.48
423.03	254.85
423.40	256.08
423.77	257.54
424.15	258.95
424.52	260.45
424.89	262.04
425.26	263.54
425.64	264.89
426.01	266.30
426.38	268.10
426.75	269.70
427.13	271.60
427.50	273.38
427.87	275.31
428.24	277.24
428.61	278.78
428.99	280.80
429.36	282.95
429.73	284.93
430.10	287.01
430.47	289.16
430.85	291.23
431.22	293.45
431.59	295.85
431.96	298.01
432.33	300.52
432.70	302.95
433.08	305.82
433.45	308.46
433.82	311.21
434.19	314.01
434.56	316.90
434.93	319.54
435.30	322.25
435.68	325.10
436.05	328.03
436.42	330.92
436.79	333.50
437.16	336.17
437.53	339.04
437.90	341.90
438.27	344.66
438.64	347.55
439.01	350.28
439.38	352.53
439.75	354.84
440.13	357.40
440.50	359.81
440.87	361.79
441.24	363.89
441.61	366.10
441.98	367.73
442.35	369.52
442.72	371.25
443.09	373.21
443.46	374.31
443.83	374.78
444.20	375.42
444.57	376.18
444.94	376.54
445.31	377.00
445.68	377.54
446.05	377.69
446.42	377.31
446.79	377.00
447.16	376.48
447.53	376.26
447.90	375.08
448.27	373.95
448.64	372.38
449.01	371.30
449.37	369.39
449.74	367.50
450.11	365.49
450.48	363.18
450.85	360.51
451.22	358.31
451.59	356.34
451.96	354.44
452.33	352.00
452.70	349.65
453.07	346.78
453.43	343.76
453.80	340.98
454.17	338.28
454.54	335.76
454.91	333.15
455.28	330.55
455.65	328.01
456.02	325.66
456.38	323.41
456.75	320.66
457.12	318.40
457.49	316.06
457.86	313.62
458.23	311.82
458.59	309.78
458.96	307.70
459.33	305.76
459.70	303.91
460.07	302.40
460.43	300.68
460.80	299.01
461.17	297.62
461.54	296.15
461.91	294.79
462.27	293.36
462.64	291.99
463.01	290.58
463.38	289.23
463.74	287.61
464.11	286.45
464.48	285.35
464.85	284.20
465.21	283.40
465.58	282.52
465.95	281.29
466.32	280.42
466.68	279.46
467.05	278.61
467.42	277.60
467.78	276.54
468.15	275.47
468.52	274.82
468.88	273.78
469.25	272.93
469.62	272.16
469.98	271.25
470.35	270.55
470.72	269.74
471.08	268.99
471.45	268.44
471.82	267.80
472.18	267.11
472.55	266.49
472.92	265.79
473.28	265.20
473.65	264.61
474.02	263.92
474.38	263.38
474.75	263.00
475.11	262.43
475.48	261.97
475.85	261.74
476.21	261.24
476.58	260.90
476.94	260.43
477.31	260.00
477.67	259.69
478.04	259.38
478.41	259.16
478.77	259.08
479.14	258.71
479.50	258.51
479.87	258.31
480.23	258.15
480.60	258.02
480.96	257.85
481.33	257.74
481.69	257.60
482.06	257.45
482.42	257.25
482.79	257.20
483.15	257.06
483.52	256.90
483.88	256.95
484.25	256.80
484.61	256.84
484.98	256.95
485.34	256.97
485.71	257.12
486.07	257.12
486.44	257.18
486.80	257.32
487.17	257.34
487.53	257.45
487.90	257.54
488.26	257.69
488.62	257.81
488.99	258.00
489.35	258.21
489.72	258.48
490.08	258.67
490.44	258.90
490.81	259.23
491.17	259.55
491.54	259.78
491.90	260.40
492.26	260.68
492.63	261.01
492.99	261.45
493.36	261.83
493.72	262.29
494.08	262.73
494.45	263.30
494.81	263.88
495.17	264.49
495.54	265.27
495.90	265.98
496.26	266.80
496.63	267.68
496.99	268.55
497.35	269.48
497.72	270.40
498.08	271.55
498.44	272.60
498.80	273.77
499.17	275.10
499.53	276.17
499.89	277.50
500.26	278.97
500.62	280.30
500.98	281.86
501.34	283.62
501.71	285.37
502.07	287.07
502.43	288.88
502.79	290.66
503.16	292.53
503.52	294.44
503.88	296.53
504.24	298.72
504.60	301.04
504.97	303.51
505.33	306.05
505.69	308.65
506.05	311.43
506.41	314.14
506.78	316.95
507.14	319.86
507.50	323.10
507.86	326.24
508.22	329.52
508.59	332.89
508.95	336.32
509.31	339.97
509.67	343.78
510.03	347.66
510.39	351.84
510.75	355.99
511.12	360.33
511.48	364.70
511.84	369.24
512.20	373.93
512.56	378.76
512.92	383.61
513.28	388.53
513.64	393.68
514.00	399.09
514.37	404.71
514.73	410.31
515.09	416.10
515.45	421.90
515.81	428.13
516.17	434.38
516.53	440.67
516.89	446.99
517.25	453.52
517.61	460.30
517.97	466.98
518.33	473.82
518.69	480.98
519.05	488.19
519.41	495.30
519.77	503.08
520.13	510.72
520.49	518.44
520.85	526.36
521.21	534.17
521.57	542.40
521.93	550.27
522.29	558.72
522.65	566.96
523.01	575.44
523.37	583.75
523.73	592.21
524.09	600.73
524.45	609.50
524.81	618.46
525.17	627.69
525.53	636.85
525.89	646.21
526.25	655.68
526.61	665.08
526.97	674.94
527.33	684.21
527.68	693.99
528.04	703.79
528.40	713.76
528.76	724.06
529.12	734.25
529.48	744.53
529.84	754.50
530.20	765.08
530.56	775.97
530.91	787.03
531.27	798.12
531.63	808.95
531.99	820.00
532.35	830.69
532.71	841.11
533.07	852.19
533.42	863.09
533.78	873.85
534.14	884.74
534.50	895.22
534.86	906.12
535.21	916.70
535.57	927.92
535.93	938.62
536.29	949.39
536.65	960.17
537.00	970.82
537.36	981.94
537.72	992.76
538.08	1003.07
538.44	1013.21
538.79	1023.44
539.15	1034.25
539.51	1044.81
539.87	1055.60
540.22	1066.48
540.58	1077.33
540.94	1088.02
541.29	1098.61
541.65	1109.31
542.01	1120.25
542.37	1131.06
542.72	1141.37
543.08	1151.23
543.44	1161.66
543.79	1171.40
544.15	1181.36
544.51	1191.70
544.87	1201.96
545.22	1211.57
545.58	1221.38
545.94	1230.82
546.29	1240.82
546.65	1250.01
547.01	1258.93
547.36	1268.11
547.72	1276.83
548.07	1285.64
548.43	1294.19
548.79	1302.93
549.14	1310.90
549.50	1318.99
549.86	1326.73
550.21	1334.93
550.57	1343.33
550.92	1351.34
551.28	1359.45
551.64	1367.13
551.99	1374.86
552.35	1381.87
552.70	1389.34
553.06	1397.45
553.41	1405.02
553.77	1411.93
554.13	1419.23
554.48	1427.11
554.84	1433.76
555.19	1440.96
555.55	1447.73
555.90	1454.25
556.26	1460.71
556.61	1467.81
556.97	1474.27
557.32	1481.11
557.68	1487.07
558.03	1493.13
558.39	1499.17
558.74	1505.65
559.10	1511.75
559.45	1517.98
559.81	1524.37
560.16	1530.12
560.52	1534.85
560.87	1540.98
561.23	1546.28
561.58	1551.76
561.94	1556.54
562.29	1561.61
562.64	1566.16
563.00	1570.62
563.35	1575.90
563.71	1581.07
564.06	1585.73
564.42	1590.34
564.77	1594.61
565.12	1599.71
565.48	1604.49
565.83	1608.32
566.19	1612.33
566.54	1615.94
566.89	1619.08
567.25	1622.34
567.60	1626.18
567.96	1630.09
568.31	1633.19
568.66	1636.43
569.02	1639.38
569.37	1642.19
569.72	1645.16
570.08	1647.80
570.43	1650.76
570.78	1653.22
571.14	1654.62
571.49	1656.30
571.84	1658.85
572.20	1660.33
572.55	1661.82
572.90	1662.87
573.26	1664.54
573.61	1665.57
573.96	1666.91
574.31	1667.19
574.67	1667.38
575.02	1667.10
575.37	1667.01
575.72	1666.45
576.08	1666.80
576.43	1666.49
576.78	1666.49
577.13	1666.47
577.49	1666.69
577.84	1665.88
578.19	1665.05
578.54	1665.00
578.90	1664.25
579.25	1662.44
579.60	1661.28
579.95	1659.79
580.30	1658.02
580.66	1656.01
581.01	1654.01
581.36	1652.08
581.71	1651.08
582.06	1649.90
582.42	1648.30
582.77	1646.61
583.12	1644.82
583.47	1642.75
583.82	1641.28
584.17	1638.60
584.53	1636.21
584.88	1633.80
585.23	1631.59
585.58	1629.14
585.93	1626.48
586.28	1624.29
586.63	1622.68
586.98	1620.42
587.34	1618.26
587.69	1615.92
588.04	1613.87
588.39	1611.88
588.74	1608.77
589.09	1605.48
589.44	1601.99
589.79	1599.34
590.14	1596.30
590.49	1593.41
590.84	1590.16
591.19	1586.75
591.54	1583.24
591.89	1579.10
592.25	1575.69
592.60	1571.83
592.95	1567.63
593.30	1563.38
593.65	1559.28
594.00	1554.43
594.35	1550.81
594.70	1545.83
595.05	1541.87
595.40	1537.46
595.75	1532.79
596.10	1529.20
596.45	1525.47
596.80	1522.18
597.15	1518.43
597.50	1514.23
597.85	1510.47
598.19	1506.37
598.54	1502.36
598.89	1498.68
599.24	1495.72
599.59	1491.46
599.94	1487.96
600.29	1484.49
600.64	1480.72
600.99	1476.40
601.34	1472.50
601.69	1467.97
602.04	1464.53
602.39	1460.23
602.74	1456.34
603.08	1452.47
603.43	1448.59
603.78	1444.61
604.13	1440.10
604.48	1435.40
604.83	1431.15
605.18	1426.49
605.53	1421.63
605.87	1416.50
606.22	1412.18
606.57	1407.25
606.92	1402.45
607.27	1397.23
607.62	1392.91
607.96	1388.15
608.31	1383.89
608.66	1378.78
609.01	1373.36
609.36	1367.73
609.70	1362.00
610.05	1356.30
610.40	1350.79
610.75	1345.13
611.10	1339.04
611.44	1332.72
611.79	1327.14
612.14	1321.44
612.49	1315.00
612.83	1309.16
613.18	1303.59
613.53	1297.74
613.88	1291.69
614.22	1285.98
614.57	1280.09
614.92	1273.59
615.27	1267.69
615.61	1261.31
615.96	1255.64
616.31	1250.55
616.65	1245.68
617.00	1240.60
617.35	1235.23
617.70	1229.13
618.04	1223.16
618.39	1217.98
618.74	1212.88
619.08	1207.08
619.43	1201.41
619.78	1196.49
620.12	1190.89
620.47	1185.10
620.82	1179.13
621.16	1173.58
621.51	1168.00
621.85	1162.33
622.20	1156.69
622.55	1151.44
622.89	1146.02
623.24	1140.78
623.59	1135.36
623.93	1129.49
624.28	1124.12
624.62	1118.48
624.97	1113.64
625.32	1108.57
625.66	1103.20
626.01	1097.64
626.35	1092.51
626.70	1087.23
627.04	1082.08
627.39	1076.73
627.73	1071.58
628.08	1066.51
628.43	1061.14
628.77	1055.53
629.12	1050.38
629.46	1045.06
629.81	1039.11
630.15	1033.45
630.50	1027.84
630.84	1021.66
631.19	1016.07
631.53	1010.39
631.88	1004.70
632.22	998.73
632.57	993.00
632.91	987.19
633.26	981.99
633.60	976.20
633.95	970.70
634.29	965.10
634.64	960.13
634.98	954.63
635.32	949.33
635.67	944.18
636.01	939.36
636.36	934.09
636.70	929.07
637.05	924.40
637.39	919.71
637.73	914.82
638.08	910.57
638.42	905.94
638.77	901.26
639.11	896.63
639.45	891.83
639.80	887.06
640.14	882.21
640.49	877.18
640.83	872.06
641.17	867.40
641.52	862.63
641.86	857.64
642.20	853.01
642.55	848.09
642.89	843.50
643.23	838.41
643.58	833.88
643.92	828.94
644.26	823.95
644.61	819.30
644.95	814.32
645.29	808.58
645.64	803.48
645.98	798.60
646.32	793.90
646.66	789.27
647.01	784.38
647.35	779.82
647.69	775.26
648.04	771.14
648.38	766.17
648.72	761.17
649.06	756.36
649.41	751.82
649.75	746.92
650.09	741.90
650.43	737.28
650.78	732.26
651.12	727.66
651.46	723.04
651.80	718.41
652.14	713.90
652.49	710.00
652.83	705.69
653.17	700.87
653.51	696.24
653.85	691.89
654.20	687.50
654.54	682.95
654.88	678.28
655.22	673.51
655.56	669.09
655.90	665.10
656.25	660.80
656.59	656.42
656.93	652.38
657.27	648.39
657.61	643.90
657.95	640.05
658.29	635.97
658.64	632.10
658.98	627.84
659.32	623.73
659.66	619.49
660.00	615.21
660.34	611.33
660.68	607.50
661.02	603.29
661.36	599.52
661.70	595.72
662.05	592.25
662.39	588.82
662.73	585.26
663.07	581.59
663.41	578.19
663.75	574.72
664.09	571.27
664.43	567.66
664.77	564.53
665.11	561.26
665.45	558.00
665.79	554.53
666.13	551.30
666.47	548.21
666.81	544.86
667.15	541.72
667.49	538.80
667.83	535.81
668.17	532.71
668.51	529.49
668.85	526.50
669.19	523.35
669.53	520.22
669.87	517.19
670.21	514.36
670.55	511.29
670.89	508.35
671.23	505.62
671.57	502.82
671.91	500.24
672.25	497.38
672.58	494.73
672.92	492.18
673.26	489.71
673.60	487.13
673.94	484.86
674.28	482.55
674.62	480.16
674.96	477.66
675.30	475.33
675.64	473.00
675.97	470.54
676.31	468.26
676.65	465.88
676.99	463.70
677.33	461.20
677.67	459.16
678.01	456.78
678.34	454.45
678.68	452.28
679.02	450.02
679.36	447.81
679.70	445.53
680.04	443.33
680.37	440.98
680.71	438.67
681.05	436.57
681.39	434.52
681.73	432.46
682.06	430.27
682.40	428.46
682.74	426.44
683.08	424.52
683.42	422.43
683.75	420.59
684.09	418.56
684.43	416.52
684.77	414.47
685.10	412.62
685.44	410.71
685.78	408.80
686.12	407.00
686.45	404.90
686.79	402.97
687.13	401.31
687.46	399.54
687.80	397.69
688.14	395.73
688.48	393.72
688.81	391.63
689.15	389.94
689.49	387.95
689.82	386.05
690.16	384.18
690.50	382.41
690.83	380.58
691.17	378.81
691.51	377.30
691.84	375.62
692.18	373.88
692.52	372.21
692.85	370.52
693.19	368.64
693.52	367.09
693.86	365.57
694.20	363.77
694.53	362.17
694.87	360.72
695.21	359.20
695.54	357.65
695.88	355.99
696.21	354.33
696.55	352.83
696.88	351.36
697.22	349.87
697.56	348.45
697.89	347.08
698.23	345.71
698.56	344.20
698.90	342.80
699.23	341.23
699.57	339.65
699.90	338.32
700.24	336.93
700.58	335.55
700.91	334.23
701.25	332.82
701.58	331.59
701.92	330.30
702.25	329.00
702.59	327.83
702.92	326.80
703.26	325.68
703.59	324.38
703.93	323.38
704.26	322.33
704.60	321.26
704.93	320.00
705.26	318.86
705.60	317.73
705.93	316.68
706.27	315.89
706.60	315.07
706.94	314.12
707.27	313.08
707.61	312.13
707.94	311.19
708.27	310.19
708.61	309.12
708.94	308.08
709.28	307.24
709.61	306.32
709.94	305.37
710.28	304.49
710.61	303.80
710.95	302.84
711.28	302.14
711.61	301.19
711.95	300.45
712.28	299.57
712.61	298.80
712.95	298.00
713.28	297.18
713.61	296.31
713.95	295.50
714.28	294.82
714.61	294.09
714.95	293.25
715.28	292.54
715.61	291.89
715.95	291.30
716.28	290.61
716.61	289.84
716.95	289.20
717.28	288.49
717.61	287.81
717.94	287.12
718.28	286.25
718.61	285.60
718.94	284.94
719.27	284.33
719.61	283.70
719.94	283.09
720.27	282.46
720.60	281.78
720.94	281.21
721.27	280.75
721.60	280.26
721.93	279.76
722.27	279.26
722.60	278.80
722.93	278.11
723.26	277.41
723.59	277.02
723.93	276.56
724.26	276.13
724.59	275.64
724.92	275.12
725.25	274.67
725.59	274.23
725.92	273.89
726.25	273.33
726.58	272.95
726.91	272.56
727.24	271.99
727.57	271.66
727.91	271.06
728.24	270.55
728.57	270.00
728.90	269.56
729.23	269.06
729.56	268.61
729.89	268.14
730.22	267.85
730.55	267.34
730.89	266.90
731.22	266.40
731.55	265.96
731.88	265.52
732.21	265.04
732.54	264.64
732.87	264.14
733.20	263.89
733.53	263.43
733.86	262.92
734.19	262.59
734.52	262.16
734.85	261.93
735.18	261.48
735.51	261.11
735.84	260.64
736.17	260.35
736.50	259.79
736.83	259.77
737.16	259.37
737.49	259.05
737.82	258.61
738.15	258.23
738.48	257.90
738.81	257.65
739.14	257.27
739.47	256.89
739.80	256.53
740.13	256.13
740.46	255.74
740.79	255.38
741.12	255.09
741.45	254.70
741.78	254.31
742.11	254.02
742.44	253.81
742.77	253.58
743.10	253.22
743.43	253.03
743.75	252.42
744.08	252.37
744.41	252.04
744.74	251.80
745.07	251.61
745.40	251.23
745.73	250.98
746.06	250.70
746.39	250.45
746.71	250.19
747.04	249.90
747.37	249.64
747.70	249.41
748.03	249.15
748.36	248.99
748.68	248.69
749.01	248.52
749.34	248.26
749.67	248.02
750.00	247.87
750.33	247.75
750.65	247.68
750.98	247.30
751.31	247.07
751.64	246.88
751.97	246.66
752.29	246.50
752.62	246.27
752.95	246.25
753.28	246.13
753.60	245.94
753.93	245.92
754.26	245.81
754.59	245.61
754.91	245.40
755.24	245.34
755.57	245.23
755.90	244.98
756.22	244.74
756.55	244.64
756.88	244.43
757.20	244.17
757.53	243.89
757.86	243.75
758.19	243.60
758.51	243.44
758.84	243.20
759.17	243.13
759.49	242.94
759.82	242.79
760.15	242.60
760.47	242.55
760.80	242.26
761.13	242.15
761.45	242.03
761.78	241.95
762.11	241.76
762.43	241.58
762.76	241.48
763.08	241.35
763.41	241.17
763.74	240.92
764.06	240.79
764.39	240.66
764.71	240.51
765.04	240.41
765.37	240.30
765.69	240.20
766.02	240.10
766.34	240.02
766.67	239.86
767.00	239.79
767.32	239.64
767.65	239.70
767.97	239.69
768.30	239.58
768.62	239.39
768.95	239.23
769.27	239.17
769.60	239.09
769.92	238.98
770.25	238.77
770.57	238.78
770.90	238.61
771.22	238.47
771.55	238.36
771.87	238.18
772.20	238.10
772.52	238.19
772.85	238.21
773.17	238.06
773.50	237.91
773.82	237.87
774.15	237.62
774.47	237.30
774.80	237.04
775.12	236.91
775.45	236.81
775.77	236.74
776.09	236.68
776.42	236.56
776.74	236.52
777.07	236.47
777.39	236.31
777.72	236.22
778.04	236.13
778.36	236.04
778.69	235.98
779.01	235.75
779.33	235.49
779.66	235.23
779.98	235.10
780.31	234.97
780.63	234.86
780.95	234.85
781.28	234.80
781.60	234.61
781.92	234.50
782.25	234.40
782.57	234.21
782.89	234.11
783.22	234.07
783.54	233.86
783.86	233.75
784.19	233.58
784.51	233.56
784.83	233.51
785.16	233.33
785.48	233.30
785.80	233.22
786.12	233.06
786.45	232.92
786.77	232.82
787.09	232.78
787.42	232.58
787.74	232.54
788.06	232.46
788.38	232.50
788.71	232.47
789.03	232.38
789.35	232.30
789.67	232.19
789.99	232.10
790.32	232.19
790.64	232.16
790.96	232.40
791.28	232.32
791.61	232.25
791.93	232.23
792.25	232.18
792.57	232.38
792.89	232.45
793.21	232.43
793.54	232.40
793.86	232.41
794.18	232.40
794.50	232.34
794.82	232.30
795.14	232.32
795.47	232.43
795.79	232.52
796.11	232.58
796.43	232.56
796.75	232.54
797.07	232.43
797.39	232.57
797.71	232.43
798.04	232.56
798.36	232.59
798.68	232.66
799.00	232.80
799.32	232.70
799.64	232.67
799.96	232.75
800.28	232.90
800.60	232.85
800.92	233.03
801.24	232.98
801.56	233.04
801.89	233.01
802.21	232.98
802.53	232.93
802.85	233.04
803.17	233.19
803.49	233.15
803.81	233.16
804.13	233.05
804.45	232.96
804.77	232.83
805.09	232.91
805.41	232.81
805.73	232.61
806.05	232.58
806.37	232.64
806.69	232.49
807.01	232.44
807.33	232.41
807.65	232.24
807.97	232.35
808.28	232.28
808.60	232.20
808.92	232.16
809.24	232.33
809.56	232.20
809.88	232.02
810.20	232.07
810.52	232.03
810.84	231.95
811.16	231.90
811.48	231.84
811.80	231.81
812.12	231.81
812.43	231.80
812.75	231.73
813.07	231.53
813.39	231.48
813.71	231.35
814.03	231.39
814.35	231.30
814.67	231.14
814.98	231.17
815.30	231.18
815.62	231.08
815.94	230.88
816.26	230.96
816.58	230.88
816.89	230.64
817.21	230.53
817.53	230.48
817.85	230.49
818.17	230.43
818.48	230.21
818.80	230.16
819.12	230.04
819.44	230.06
819.76	230.03
820.07	230.08
820.39	230.11
820.71	230.06
821.03	230.04
821.34	230.09
821.66	229.97
821.98	229.90
822.30	229.84
822.61	229.87
822.93	229.64
823.25	229.60
823.57	229.75
823.88	229.70
824.20	229.67
824.52	229.63
824.83	229.62
825.15	229.58
825.47	229.50
825.79	229.56
826.10	229.49
826.42	229.41
826.74	229.34
827.05	229.20
827.37	229.13
827.69	229.10
828.00	229.00
828.32	228.90
828.64	228.82
828.95	228.89
829.27	228.86
829.58	228.84
829.90	228.75
830.22	228.60
830.53	228.66
830.85	228.65
831.17	228.56
831.48	228.51
831.80	228.51
832.11	228.53
832.43	228.58
832.75	228.64
833.06	228.80
833.38	228.81
833.69	228.88
834.01	228.88
834.32	228.86
834.64	228.85
834.96	229.03
835.27	229.08
835.59	229.09
835.90	229.02
836.22	229.09
836.53	229.27
836.85	229.42
837.16	229.61
837.48	229.65
837.79	229.77
838.11	229.80
838.42	229.96
838.74	230.01
839.05	229.96
839.37	229.99
839.68	229.82
840.00	229.86
840.31	229.87
840.63	229.87
840.94	229.87
841.26	229.88
841.57	229.80
841.88	229.85
842.20	229.76
842.51	229.74
842.83	229.74
843.14	229.82
843.46	229.79
843.77	229.69
844.08	229.72
844.40	229.64
844.71	229.76
845.03	229.70
845.34	229.75
845.65	229.81
845.97	229.73
846.28	229.83
846.60	229.74
846.91	229.67
847.22	229.66
847.54	229.71
847.85	229.74
848.16	229.79
848.48	229.76
848.79	229.90
849.10	229.91
849.42	229.82
849.73	229.67
850.04	229.67
850.36	229.59
850.67	229.56
850.98	229.63
851.30	229.52
851.61	229.45
851.92	229.40
852.23	229.24
852.55	229.31
852.86	229.29
853.17	229.39
853.49	229.40
853.80	229.31
854.11	229.27
854.42	229.30
854.74	229.11
855.05	229.12
855.36	228.96
855.67	228.97
855.99	229.06
856.30	229.22
856.61	229.07
856.92	229.02
857.23	228.92
857.55	228.88
857.86	228.91
858.17	228.94
858.48	228.84
858.79	228.92
859.11	228.78
859.42	228.64
859.73	228.62
860.04	228.62
860.35	228.56
860.66	228.53
860.98	228.43
861.29	228.54
861.60	228.43
861.91	228.50
862.22	228.37
862.53	228.28
862.84	228.08
863.16	228.19
863.47	228.12
863.78	228.08
864.09	228.07
864.40	228.00
864.71	227.89
865.02	227.90
865.33	227.76
865.64	227.80
865.95	227.94
866.27	227.98
866.58	227.92
866.89	228.01
867.20	227.98
867.51	227.98
867.82	227.89
868.13	227.90
868.44	227.75
868.75	227.81
869.06	227.85
869.37	227.94
869.68	227.86
869.99	227.90
870.30	228.02
870.61	227.95
870.92	228.00
871.23	228.00
871.54	228.07
871.85	228.13
872.16	228.10
872.47	228.11
872.78	228.01
873.09	228.13
873.40	228.11
873.71	228.26
874.02	228.31
874.33	228.31
874.64	228.43
874.95	228.48
875.26	228.58
875.56	228.62
875.87	228.61
876.18	228.67
876.49	228.99
876.80	228.97
877.11	229.04
877.42	229.16
877.73	229.25
878.04	229.26
878.35	229.36
878.66	229.39
878.96	229.40
879.27	229.44
879.58	229.60
879.89	229.69
880.20	229.63
880.51	229.72
880.82	229.89
881.12	229.90
881.43	229.94
881.74	229.91
882.05	229.88
882.36	229.87
882.67	229.85
882.97	229.70
883.28	229.69
883.59	229.65
883.90	229.47
884.21	229.57
884.51	229.54
884.82	229.50
885.13	229.45
885.44	229.46
885.74	229.42
886.05	229.16
886.36	229.10
886.67	229.07
886.98	229.13
887.28	229.12
887.59	229.11
887.90	229.11
888.20	229.00
888.51	229.07
888.82	229.05
889.13	229.11
889.43	229.18
889.74	229.13
890.05	229.15
890.35	229.22
890.66	229.15
890.97	229.13
891.28	229.06
891.58	229.14
891.89	229.04
892.20	228.96
892.50	228.90
892.81	228.90
893.12	228.90
893.42	228.74
893.73	228.56
894.04	228.53
894.34	228.53
894.65	228.50
894.95	228.44
895.26	228.35
895.57	228.39
895.87	228.18
896.18	228.17
896.48	228.15
896.79	228.06
897.10	228.08
897.40	228.05
897.71	228.12
898.01	228.04
898.32	228.17
898.63	228.13
898.93	228.22
899.24	228.14
899.54	228.04
899.85	227.97
900.15	227.93
900.46	227.91
900.76	227.82
901.07	227.84
901.38	227.70
901.68	227.66
901.99	227.53
902.29	227.48
902.60	227.49
902.90	227.36
903.21	227.31
903.51	227.18
903.82	227.20
904.12	227.07
904.43	227.16
904.73	227.05
905.03	227.09
905.34	227.30
905.64	227.29
905.95	227.35
906.25	227.30
906.56	227.39
906.86	227.37
907.17	227.38
907.47	227.27
907.77	227.36
908.08	227.42
908.38	227.40
908.69	227.40
908.99	227.43
909.30	227.55
909.60	227.59
909.90	227.68
910.21	227.61
910.51	227.63
910.81	227.53
911.12	227.47
911.42	227.50
911.73	227.30
912.03	227.33
912.33	227.36
912.64	227.40
912.94	227.37
913.24	227.31
913.55	227.41
913.85	227.54
914.15	227.56
914.46	227.64
914.76	227.72
915.06	227.76
915.37	227.70
915.67	227.77
915.97	227.84
916.27	227.76
916.58	227.86
916.88	228.00
917.18	227.97
917.49	228.21
917.79	228.33
918.09	228.47
918.39	228.46
918.70	228.60
919.00	228.68
919.30	228.92
919.60	229.06
919.91	228.98
920.21	229.07
920.51	229.19
920.81	229.13
921.12	229.21
921.42	229.32
921.72	229.47
922.02	229.43
922.32	229.59
922.63	229.58
922.93	229.72
923.23	229.70
923.53	229.81
923.83	229.67
924.13	229.63
924.44	229.60
924.74	229.72
925.04	229.61
925.34	229.65
925.64	229.59
925.94	229.50
926.24	229.65
926.55	229.55
926.85	229.48
927.15	229.55
927.45	229.58
927.75	229.58
928.05	229.51
928.35	229.49
928.65	229.34
928.95	229.33
929.26	229.24
929.56	229.24
929.86	229.17
930.16	229.17
930.46	229.12
930.76	229.01
931.06	228.93
931.36	228.94
931.66	228.87
931.96	228.88
932.26	228.88
932.56	228.73
932.86	228.70
933.16	228.73
933.46	228.67
933.76	228.50
934.06	228.48
934.36	228.53
934.66	228.43
934.96	228.46
935.26	228.50
935.56	228.47
935.86	228.34
936.16	228.25
936.46	228.24
936.76	228.15
937.06	228.20
937.36	228.22
937.66	228.14
937.96	228.13
938.26	227.94
938.56	227.87
938.86	227.88
939.16	228.02
939.46	227.86
939.76	227.78
940.06	227.80
940.35	227.77
940.65	227.58
940.95	227.79
941.25	227.70
941.55	227.69
941.85	227.64
942.15	227.73
942.45	227.88
942.75	227.75
943.04	227.83
943.34	227.74
943.64	227.73
943.94	227.74
944.24	227.77
944.54	227.86
944.84	227.85
945.13	227.88
945.43	227.77
945.73	227.87
946.03	227.84
946.33	227.77
946.62	227.66
946.92	227.72
947.22	227.61
947.52	227.63
947.82	227.68
948.11	227.63
948.41	227.50
948.71	227.42
949.01	227.51
949.31	227.46
949.60	227.48
949.90	227.43
950.20	227.45
950.50	227.49
950.79	227.54
951.09	227.58
951.39	227.50
951.69	227.50
951.98	227.48
952.28	227.50
952.58	227.57
952.87	227.58
953.17	227.59
953.47	227.64
953.76	227.62
954.06	227.64
954.36	227.68
954.66	227.80
954.95	227.90
955.25	227.91
955.55	227.92
955.84	227.98
956.14	228.09
956.44	228.06
956.73	228.00
957.03	227.92
957.32	227.99
957.62	227.99
957.92	227.92
958.21	227.97
958.51	228.22
958.81	228.28
959.10	228.43
959.40	228.58
959.69	228.63
959.99	228.67
960.29	228.70
960.58	228.72
960.88	228.88
961.17	228.92
961.47	228.97
961.76	229.08
962.06	229.28
962.36	229.21
962.65	229.36
962.95	229.43
963.24	229.50
963.54	229.52
963.83	229.57
964.13	229.65
964.42	229.63
964.72	229.62
965.01	229.62
965.31	229.61
965.60	229.58
965.90	229.67
966.19	229.65
966.49	229.63
966.78	229.61
967.08	229.44
967.37	229.40
967.67	229.31
967.96	229.30
968.26	229.13
968.55	229.13
968.85	229.02
969.14	229.01
969.43	229.01
969.73	228.97
970.02	229.00
970.32	228.96
970.61	228.87
970.91	228.70
971.20	228.64
971.49	228.51
971.79	228.57
972.08	228.45
972.38	228.52
972.67	228.45
972.96	228.51
973.26	228.47
973.55	228.57
973.85	228.63
974.14	228.62
974.43	228.66
974.73	228.66
975.02	228.63
975.31	228.66
975.61	228.57
975.90	228.54
976.19	228.55
976.49	228.57
976.78	228.70
977.07	228.73
977.37	228.81
977.66	228.82
977.95	228.65
978.24	228.58
978.54	228.61
978.83	228.59
979.12	228.58
979.42	228.57
979.71	228.42
980.00	228.34
980.29	228.30
980.59	228.18
980.88	228.19
981.17	228.18
981.46	228.10
981.76	228.13
982.05	228.17
982.34	228.15
982.63	228.08
982.93	228.06
983.22	228.04
983.51	227.95
983.80	228.04
984.09	228.01
984.39	228.00
984.68	227.91
984.97	227.92
985.26	227.91
985.55	227.86
985.85	227.93
986.14	227.92
986.43	227.92
986.72	227.85
987.01	227.81
987.30	227.72
987.59	227.72
987.89	227.60
988.18	227.58
988.47	227.51
988.76	227.67
989.05	227.69
989.34	227.68
989.63	227.82
989.92	227.68
990.22	227.72
990.51	227.76
990.80	227.74
991.09	227.73
991.38	227.64
991.67	227.76
991.96	227.71
992.25	227.82
992.54	227.73
992.83	227.91
993.12	227.87
993.41	227.98
993.70	228.11
993.99	228.28
994.28	228.36
994.58	228.43
994.87	228.29
995.16	228.32
995.45	228.31
995.74	228.12
996.03	228.30
996.32	228.32
996.61	228.38
996.90	228.47
997.19	228.54
997.48	228.60
997.77	228.54
998.06	228.55
998.34	228.53
998.63	228.59
998.92	228.59
999.21	228.63
999.50	228.67
999.79	228.58
1000.08	228.61
1000.37	228.55
1000.66	228.58
1000.95	228.72
1001.24	228.74
1001.53	228.74
1001.82	228.79
1002.11	228.70
1002.40	228.76
1002.68	228.80
1002.97	228.92
1003.26	228.90
1003.55	228.97
1003.84	229.03
1004.13	229.06
1004.42	229.10
1004.71	229.18
1004.99	229.13
1005.28	229.25
1005.57	229.23
1005.86	229.25
1006.15	229.07
1006.44	229.04
1006.72	229.05
1007.01	229.02
1007.30	228.92
1007.59	228.92
1007.88	229.00
1008.17	229.01
1008.45	228.94
1008.74	228.89
1009.03	228.76
1009.32	228.72
1009.60	228.61
1009.89	228.60
1010.18	228.56
1010.47	228.60
1010.76	228.58
1011.04	228.58
1011.33	228.55
1011.62	228.52
1011.91	228.49
1012.19	228.58
1012.48	228.64
1012.77	228.55
1013.05	228.55
1013.34	228.58
1013.63	228.55
1013.92	228.47
1014.20	228.38
1014.49	228.41
1014.78	228.36
1015.06	228.26
1015.35	228.20
1015.64	228.21
1015.92	228.12
1016.21	228.17
1016.50	228.05
1016.78	228.02
1017.07	227.97
1017.36	227.94
1017.64	227.98
1017.93	227.88
1018.22	227.84
1018.50	227.72
1018.79	227.71
1019.08	227.64
1019.36	227.57
1019.65	227.48
1019.93	227.50
1020.22	227.53
1020.51	227.54
1020.79	227.50
1021.08	227.60
1021.36	226.70
1021.65	227.20
1021.94	227.70
1022.22	226.70
1022.51	225.80
1022.79	228.00
1023.08	227.30
1023.36	229.10
1023.65	227.30
>>>>>End Processed Spectral Data<<<<<
