SpectraSuite Data File
++++++++++++++++++++++++++++++++++++
Date: Fri Feb 01 14:34:55 EST 2013
User: group
Dark Spectrum Present: No
Reference Spectrum Present: No
Number of Sampled Component Spectra: 1
Spectrometers: USB2E7196
Integration Time (usec): 70000 (USB2E7196)
Spectra Averaged: 10 (USB2E7196)
Boxcar Smoothing: 10 (USB2E7196)
Correct for Electrical Dark: No (USB2E7196)
Strobe/Lamp Enabled: No (USB2E7196)
Correct for Detector Non-linearity: No (USB2E7196)
Correct for Stray Light: No (USB2E7196)
Number of Pixels in Processed Spectrum: 2048
>>>>>Begin Processed Spectral Data<<<<<
339.09	0.00
339.48	216.90
339.86	217.50
340.24	218.40
340.63	221.10
341.01	224.50
341.39	222.00
341.78	222.70
342.16	225.00
342.54	225.70
342.93	214.46
343.31	225.23
343.69	225.78
344.07	226.20
344.46	226.60
344.84	226.99
345.22	227.16
345.60	227.33
345.99	227.66
346.37	227.87
346.75	227.93
347.13	228.01
347.52	228.13
347.90	228.16
348.28	228.24
348.66	228.32
349.05	228.22
349.43	228.22
349.81	228.22
350.19	228.20
350.57	228.23
350.96	228.37
351.34	228.50
351.72	228.50
352.10	228.60
352.48	228.68
352.87	228.63
353.25	228.70
353.63	228.81
354.01	228.84
354.39	228.87
354.77	228.97
355.15	229.12
355.54	229.14
355.92	229.12
356.30	229.10
356.68	229.31
357.06	229.51
357.44	229.54
357.82	229.66
358.20	229.69
358.58	229.74
358.97	229.80
359.35	229.85
359.73	230.00
360.11	230.11
360.49	230.23
360.87	230.33
361.25	230.42
361.63	230.69
362.01	230.72
362.39	230.77
362.77	230.88
363.15	230.92
363.53	230.95
363.91	231.10
364.29	231.21
364.67	230.92
365.05	230.91
365.43	231.02
365.81	231.10
366.19	231.21
366.57	231.31
366.95	231.23
367.33	231.24
367.71	231.19
368.09	231.23
368.47	231.16
368.85	231.09
369.23	231.10
369.61	230.98
369.99	230.95
370.37	230.97
370.75	231.03
371.13	230.95
371.51	230.86
371.89	230.85
372.27	230.78
372.65	230.84
373.03	230.68
373.41	230.54
373.78	230.40
374.16	230.31
374.54	230.10
374.92	229.98
375.30	229.95
375.68	229.82
376.06	229.71
376.44	229.69
376.82	229.63
377.19	229.55
377.57	229.40
377.95	229.33
378.33	229.11
378.71	228.86
379.09	228.83
379.47	228.86
379.84	228.62
380.22	228.49
380.60	228.27
380.98	228.17
381.36	228.14
381.73	228.06
382.11	228.05
382.49	228.00
382.87	227.98
383.25	227.86
383.62	228.09
384.00	228.02
384.38	227.78
384.76	227.84
385.13	227.80
385.51	227.72
385.89	227.67
386.27	227.60
386.64	227.58
387.02	227.47
387.40	227.41
387.78	227.45
388.15	227.37
388.53	227.29
388.91	227.21
389.29	227.19
389.66	227.11
390.04	226.97
390.42	227.06
390.79	227.05
391.17	227.00
391.55	226.82
391.92	226.81
392.30	227.07
392.68	227.02
393.05	226.99
393.43	226.98
393.81	226.93
394.18	227.05
394.56	227.15
394.94	227.23
395.31	227.19
395.69	227.29
396.06	227.40
396.44	227.57
396.82	227.75
397.19	227.83
397.57	228.03
397.95	228.17
398.32	228.17
398.70	228.31
399.07	228.44
399.45	228.51
399.82	228.57
400.20	228.54
400.58	228.61
400.95	228.76
401.33	229.08
401.70	229.51
402.08	229.75
402.45	230.00
402.83	230.13
403.20	230.48
403.58	230.66
403.95	230.96
404.33	231.30
404.71	231.54
405.08	232.03
405.46	232.32
405.83	232.64
406.21	232.98
406.58	233.38
406.96	233.77
407.33	234.16
407.70	234.69
408.08	235.46
408.45	236.05
408.83	236.61
409.20	237.20
409.58	237.60
409.95	238.15
410.33	238.69
410.70	239.36
411.08	240.14
411.45	240.97
411.82	241.79
412.20	242.73
412.57	243.85
412.95	244.67
413.32	245.72
413.69	246.85
414.07	248.13
414.44	249.40
414.82	250.88
415.19	252.43
415.56	253.91
415.94	255.36
416.31	257.19
416.68	258.97
417.06	260.91
417.43	262.93
417.81	265.24
418.18	267.64
418.55	270.20
418.93	272.80
419.30	275.37
419.67	278.13
420.04	280.87
420.42	283.82
420.79	287.22
421.16	290.55
421.54	294.11
421.91	297.78
422.28	301.57
422.66	305.57
423.03	309.61
423.40	313.82
423.77	318.40
424.15	322.82
424.52	327.50
424.89	332.65
425.26	337.51
425.64	342.21
426.01	347.21
426.38	352.60
426.75	357.95
427.13	363.68
427.50	369.48
427.87	375.58
428.24	381.71
428.61	387.72
428.99	394.29
429.36	401.34
429.73	408.30
430.10	415.11
430.47	422.15
430.85	429.32
431.22	437.06
431.59	444.76
431.96	452.44
432.33	461.12
432.70	469.13
433.08	478.64
433.45	487.66
433.82	496.65
434.19	506.60
434.56	516.19
434.93	525.57
435.30	534.93
435.68	545.47
436.05	555.59
436.42	565.55
436.79	574.76
437.16	584.77
437.53	595.17
437.90	605.75
438.27	615.97
438.64	626.43
439.01	636.20
439.38	645.20
439.75	653.74
440.13	663.22
440.50	672.70
440.87	680.46
441.24	688.41
441.61	697.25
441.98	703.91
442.35	711.89
442.72	719.86
443.09	727.68
443.46	732.79
443.83	736.59
444.20	739.89
444.57	744.43
444.94	746.80
445.31	749.63
445.68	752.20
446.05	753.96
446.42	754.18
446.79	754.08
447.16	754.09
447.53	754.54
447.90	752.33
448.27	749.90
448.64	745.80
449.01	743.31
449.37	737.81
449.74	732.41
450.11	725.16
450.48	717.42
450.85	709.63
451.22	702.86
451.59	696.55
451.96	690.59
452.33	681.97
452.70	674.63
453.07	665.19
453.43	655.83
453.80	646.61
454.17	637.90
454.54	629.47
454.91	620.40
455.28	611.44
455.65	602.91
456.02	594.08
456.38	586.90
456.75	577.70
457.12	570.26
457.49	562.64
457.86	555.69
458.23	549.43
458.59	542.26
458.96	535.23
459.33	528.94
459.70	522.51
460.07	517.66
460.43	511.78
460.80	506.26
461.17	501.26
461.54	496.14
461.91	491.16
462.27	486.24
462.64	481.74
463.01	476.85
463.38	471.97
463.74	467.58
464.11	463.50
464.48	459.79
464.85	455.61
465.21	452.46
465.58	449.16
465.95	445.38
466.32	442.35
466.68	439.02
467.05	435.66
467.42	432.79
467.78	429.40
468.15	426.06
468.52	423.55
468.88	420.57
469.25	417.81
469.62	415.43
469.98	412.95
470.35	410.68
470.72	408.53
471.08	406.32
471.45	404.21
471.82	402.22
472.18	400.14
472.55	398.56
472.92	396.84
473.28	395.20
473.65	393.49
474.02	391.65
474.38	390.16
474.75	389.05
475.11	387.44
475.48	386.33
475.85	385.34
476.21	384.46
476.58	383.49
476.94	382.81
477.31	382.02
477.67	381.42
478.04	380.73
478.41	380.27
478.77	379.99
479.14	379.39
479.50	378.81
479.87	378.69
480.23	378.44
480.60	377.99
480.96	377.81
481.33	377.93
481.69	378.19
482.06	378.13
482.42	377.97
482.79	378.12
483.15	378.48
483.52	379.12
483.88	379.45
484.25	379.89
484.61	380.30
484.98	380.86
485.34	381.56
485.71	382.58
486.07	383.51
486.44	384.32
486.80	385.53
487.17	386.76
487.53	388.16
487.90	389.68
488.26	391.35
488.62	392.80
488.99	394.38
489.35	395.83
489.72	397.61
490.08	399.59
490.44	401.54
490.81	403.45
491.17	405.34
491.54	407.48
491.90	409.60
492.26	412.00
492.63	414.47
492.99	416.87
493.36	419.35
493.72	422.15
494.08	424.90
494.45	427.73
494.81	430.72
495.17	433.55
495.54	436.53
495.90	439.55
496.26	442.59
496.63	445.70
496.99	449.08
497.35	452.67
497.72	456.17
498.08	459.62
498.44	463.21
498.80	467.17
499.17	470.94
499.53	474.79
499.89	478.58
500.26	482.40
500.62	486.09
500.98	489.90
501.34	493.33
501.71	497.10
502.07	500.93
502.43	504.64
502.79	508.27
503.16	511.93
503.52	515.64
503.88	519.70
504.24	523.49
504.60	527.38
504.97	531.13
505.33	534.81
505.69	538.72
506.05	542.53
506.41	546.07
506.78	549.48
507.14	552.96
507.50	556.54
507.86	560.13
508.22	563.80
508.59	567.14
508.95	570.64
509.31	574.22
509.67	577.66
510.03	581.15
510.39	584.55
510.75	587.84
511.12	591.13
511.48	594.00
511.84	596.93
512.20	599.74
512.56	602.74
512.92	605.66
513.28	608.33
513.64	611.00
514.00	613.45
514.37	616.12
514.73	618.54
515.09	620.74
515.45	623.02
515.81	625.22
516.17	627.62
516.53	630.02
516.89	631.97
517.25	633.90
517.61	635.79
517.97	637.63
518.33	639.26
518.69	641.07
519.05	643.02
519.41	644.84
519.77	646.88
520.13	648.50
520.49	649.93
520.85	651.63
521.21	653.11
521.57	654.83
521.93	656.25
522.29	658.30
522.65	660.04
523.01	661.55
523.37	662.88
523.73	664.22
524.09	665.45
524.45	666.94
524.81	668.26
525.17	669.87
525.53	671.58
525.89	673.39
526.25	674.68
526.61	675.93
526.97	677.55
527.33	678.84
527.68	680.42
528.04	682.15
528.40	683.78
528.76	685.70
529.12	687.32
529.48	689.13
529.84	690.58
530.20	692.34
530.56	694.21
530.91	696.43
531.27	698.40
531.63	700.37
531.99	702.45
532.35	704.64
532.71	706.55
533.07	708.76
533.42	710.86
533.78	713.09
534.14	715.37
534.50	717.33
534.86	719.63
535.21	721.57
535.57	723.87
535.93	726.11
536.29	728.23
536.65	730.54
537.00	732.62
537.36	735.00
537.72	737.61
538.08	739.92
538.44	742.08
538.79	744.56
539.15	747.01
539.51	749.40
539.87	751.93
540.22	754.32
540.58	756.80
540.94	759.25
541.29	761.85
541.65	764.61
542.01	767.67
542.37	770.46
542.72	773.33
543.08	775.96
543.44	778.70
543.79	781.05
544.15	783.98
544.51	787.48
544.87	790.50
545.22	793.04
545.58	795.90
545.94	798.60
546.29	801.40
546.65	804.37
547.01	807.14
547.36	809.86
547.72	812.93
548.07	815.55
548.43	818.32
548.79	821.11
549.14	823.69
549.50	826.17
549.86	828.85
550.21	831.55
550.57	834.51
550.92	837.06
551.28	840.10
551.64	842.64
551.99	845.21
552.35	847.71
552.70	850.45
553.06	853.34
553.41	856.31
553.77	859.33
554.13	861.99
554.48	864.96
554.84	867.78
555.19	870.46
555.55	873.33
555.90	875.95
556.26	878.90
556.61	881.67
556.97	884.34
557.32	887.10
557.68	890.04
558.03	892.87
558.39	895.68
558.74	898.66
559.10	901.78
559.45	904.47
559.81	907.34
560.16	910.17
560.52	912.83
560.87	915.73
561.23	918.00
561.58	920.79
561.94	923.19
562.29	925.68
562.64	927.92
563.00	930.30
563.35	933.30
563.71	936.17
564.06	939.09
564.42	941.76
564.77	944.13
565.12	946.93
565.48	949.28
565.83	951.52
566.19	953.82
566.54	955.65
566.89	957.91
567.25	959.91
567.60	962.05
567.96	964.18
568.31	966.13
568.66	968.10
569.02	970.07
569.37	971.79
569.72	973.65
570.08	975.34
570.43	976.95
570.78	978.16
571.14	979.26
571.49	980.64
571.84	982.24
572.20	983.63
572.55	984.37
572.90	985.26
573.26	986.76
573.61	987.64
573.96	988.52
574.31	988.79
574.67	989.53
575.02	990.15
575.37	990.69
575.72	990.87
576.08	991.43
576.43	991.34
576.78	991.92
577.13	992.50
577.49	992.88
577.84	993.11
578.19	993.62
578.54	993.67
578.90	993.32
579.25	992.90
579.60	992.67
579.95	992.47
580.30	992.47
580.66	991.81
581.01	991.33
581.36	990.99
581.71	990.73
582.06	990.14
582.42	989.30
582.77	988.34
583.12	987.63
583.47	986.91
583.82	986.59
584.17	985.79
584.53	984.66
584.88	984.20
585.23	983.21
585.58	981.99
585.93	981.08
586.28	980.30
586.63	979.40
586.98	978.32
587.34	977.26
587.69	976.03
588.04	975.10
588.39	974.32
588.74	973.03
589.09	971.62
589.44	970.11
589.79	969.17
590.14	968.33
590.49	967.30
590.84	965.79
591.19	964.51
591.54	962.65
591.89	960.67
592.25	958.90
592.60	957.19
592.95	955.21
593.30	953.26
593.65	951.44
594.00	949.45
594.35	948.03
594.70	946.08
595.05	943.96
595.40	941.75
595.75	939.19
596.10	937.31
596.45	935.70
596.80	934.15
597.15	932.09
597.50	929.54
597.85	927.41
598.19	925.64
598.54	923.56
598.89	921.76
599.24	920.16
599.59	917.77
599.94	915.81
600.29	913.70
600.64	911.38
600.99	908.73
601.34	906.64
601.69	903.81
602.04	901.53
602.39	899.28
602.74	897.28
603.08	895.24
603.43	892.93
603.78	890.46
604.13	887.82
604.48	885.36
604.83	883.19
605.18	880.69
605.53	877.83
605.87	874.49
606.22	871.90
606.57	869.07
606.92	866.52
607.27	863.96
607.62	861.76
607.96	859.29
608.31	857.20
608.66	854.35
609.01	851.71
609.36	848.66
609.70	845.77
610.05	842.56
610.40	839.40
610.75	836.40
611.10	833.40
611.44	830.00
611.79	827.08
612.14	824.04
612.49	820.48
612.83	817.42
613.18	814.59
613.53	811.49
613.88	808.30
614.22	805.33
614.57	802.00
614.92	798.47
615.27	795.05
615.61	791.58
615.96	788.41
616.31	785.44
616.65	782.68
617.00	779.72
617.35	776.78
617.70	773.60
618.04	770.27
618.39	766.98
618.74	764.24
619.08	760.88
619.43	757.75
619.78	755.06
620.12	751.94
620.47	748.88
620.82	745.40
621.16	742.32
621.51	739.24
621.85	736.27
622.20	733.36
622.55	730.61
622.89	727.75
623.24	724.92
623.59	721.88
623.93	718.86
624.28	715.69
624.62	712.89
624.97	710.38
625.32	707.75
625.66	705.21
626.01	702.48
626.35	699.46
626.70	696.51
627.04	693.67
627.39	690.94
627.73	688.29
628.08	685.93
628.43	683.12
628.77	680.35
629.12	677.30
629.46	674.28
629.81	671.23
630.15	667.99
630.50	665.12
630.84	661.93
631.19	658.94
631.53	656.15
631.88	652.93
632.22	649.70
632.57	646.98
632.91	644.06
633.26	641.13
633.60	638.25
633.95	635.41
634.29	632.51
634.64	629.75
634.98	626.86
635.32	624.20
635.67	621.72
636.01	619.08
636.36	616.33
636.70	614.09
637.05	611.65
637.39	609.27
637.73	606.55
638.08	604.20
638.42	601.67
638.77	599.40
639.11	596.77
639.45	594.26
639.80	591.45
640.14	588.90
640.49	586.11
640.83	583.45
641.17	581.06
641.52	578.54
641.86	575.95
642.20	573.47
642.55	570.86
642.89	568.22
643.23	565.60
643.58	563.53
643.92	560.86
644.26	558.35
644.61	556.00
644.95	553.68
645.29	550.99
645.64	548.35
645.98	545.57
646.32	543.33
646.66	540.81
647.01	538.39
647.35	535.73
647.69	533.52
648.04	531.54
648.38	528.93
648.72	526.35
649.06	523.83
649.41	521.33
649.75	518.64
650.09	516.09
650.43	513.56
650.78	510.66
651.12	507.97
651.46	505.46
651.80	503.00
652.14	500.57
652.49	498.31
652.83	496.23
653.17	493.97
653.51	491.45
653.85	489.07
654.20	486.68
654.54	484.40
654.88	481.85
655.22	479.03
655.56	476.84
655.90	474.50
656.25	472.17
656.59	470.11
656.93	467.90
657.27	465.77
657.61	463.41
657.95	461.60
658.29	459.56
658.64	457.37
658.98	455.04
659.32	452.75
659.66	450.55
660.00	448.29
660.34	446.00
660.68	444.07
661.02	442.14
661.36	440.19
661.70	438.28
662.05	436.58
662.39	435.04
662.73	433.08
663.07	431.40
663.41	429.48
663.75	427.42
664.09	425.70
664.43	423.86
664.77	422.40
665.11	420.50
665.45	418.86
665.79	417.19
666.13	415.50
666.47	413.75
666.81	412.01
667.15	410.21
667.49	408.61
667.83	406.95
668.17	405.26
668.51	403.43
668.85	401.70
669.19	400.06
669.53	398.33
669.87	396.72
670.21	395.21
670.55	393.75
670.89	392.52
671.23	391.17
671.57	389.69
671.91	388.01
672.25	386.53
672.58	385.12
672.92	383.82
673.26	382.35
673.60	381.00
673.94	379.65
674.28	378.55
674.62	377.35
674.96	375.92
675.30	374.78
675.64	373.63
675.97	372.39
676.31	371.05
676.65	369.83
676.99	368.80
677.33	367.42
677.67	366.25
678.01	364.86
678.34	363.48
678.68	362.29
679.02	361.00
679.36	359.67
679.70	358.30
680.04	356.91
680.37	355.75
680.71	354.58
681.05	353.59
681.39	352.42
681.73	351.20
682.06	350.15
682.40	348.96
682.74	347.70
683.08	346.63
683.42	345.51
683.75	344.55
684.09	343.29
684.43	342.26
684.77	341.20
685.10	340.08
685.44	339.06
685.78	337.92
686.12	336.93
686.45	335.90
686.79	334.95
687.13	333.98
687.46	333.00
687.80	331.97
688.14	330.83
688.48	329.77
688.81	328.74
689.15	327.79
689.49	326.66
689.82	325.78
690.16	324.74
690.50	323.83
690.83	322.77
691.17	321.78
691.51	320.84
691.84	319.81
692.18	318.82
692.52	317.80
692.85	316.90
693.19	316.05
693.52	315.17
693.86	314.05
694.20	313.09
694.53	312.11
694.87	311.05
695.21	310.19
695.54	309.24
695.88	308.27
696.21	307.18
696.55	306.31
696.88	305.41
697.22	304.52
697.56	303.65
697.89	302.68
698.23	301.92
698.56	301.06
698.90	300.27
699.23	299.49
699.57	298.76
699.90	297.85
700.24	297.01
700.58	296.30
700.91	295.66
701.25	294.99
701.58	294.30
701.92	293.73
702.25	293.00
702.59	292.17
702.92	291.64
703.26	291.13
703.59	290.60
703.93	290.17
704.26	289.67
704.60	289.08
704.93	288.39
705.26	287.54
705.60	286.88
705.93	286.35
706.27	285.78
706.60	285.21
706.94	284.76
707.27	284.06
707.61	283.40
707.94	282.70
708.27	282.02
708.61	281.38
708.94	280.80
709.28	280.29
709.61	279.77
709.94	279.18
710.28	278.67
710.61	278.10
710.95	277.31
711.28	276.72
711.61	275.93
711.95	275.57
712.28	275.12
712.61	274.69
712.95	274.16
713.28	273.61
713.61	273.08
713.95	272.48
714.28	272.06
714.61	271.63
714.95	271.20
715.28	270.76
715.61	270.27
715.95	269.94
716.28	269.32
716.61	268.92
716.95	268.40
717.28	267.93
717.61	267.54
717.94	267.21
718.28	266.70
718.61	266.42
718.94	265.91
719.27	265.51
719.61	265.09
719.94	264.72
720.27	264.40
720.60	263.90
720.94	263.66
721.27	263.31
721.60	263.00
721.93	262.75
722.27	262.50
722.60	262.29
722.93	261.98
723.26	261.75
723.59	261.43
723.93	261.18
724.26	260.93
724.59	260.54
724.92	260.17
725.25	260.01
725.59	259.70
725.92	259.48
726.25	259.20
726.58	258.99
726.91	258.72
727.24	258.45
727.57	258.12
727.91	257.74
728.24	257.52
728.57	257.16
728.90	256.89
729.23	256.59
729.56	256.34
729.89	255.97
730.22	255.73
730.55	255.54
730.89	255.30
731.22	255.00
731.55	254.67
731.88	254.47
732.21	254.04
732.54	253.90
732.87	253.55
733.20	253.35
733.53	252.97
733.86	252.69
734.19	252.36
734.52	252.32
734.85	252.31
735.18	251.96
735.51	251.81
735.84	251.56
736.17	251.35
736.50	251.07
736.83	251.09
737.16	250.91
737.49	250.57
737.82	250.28
738.15	249.99
738.48	249.83
738.81	249.52
739.14	249.40
739.47	249.03
739.80	248.90
740.13	248.64
740.46	248.50
740.79	248.17
741.12	247.96
741.45	247.63
741.78	247.24
742.11	247.03
742.44	246.78
742.77	246.62
743.10	246.40
743.43	246.08
743.75	245.66
744.08	245.59
744.41	245.35
744.74	245.18
745.07	244.98
745.40	244.80
745.73	244.65
746.06	244.30
746.39	244.19
746.71	243.89
747.04	243.68
747.37	243.50
747.70	243.40
748.03	243.23
748.36	243.07
748.68	242.87
749.01	242.70
749.34	242.45
749.67	242.30
750.00	242.14
750.33	242.29
750.65	242.12
750.98	241.81
751.31	241.74
751.64	241.58
751.97	241.48
752.29	241.32
752.62	241.19
752.95	241.08
753.28	240.92
753.60	240.81
753.93	240.67
754.26	240.55
754.59	240.28
754.91	240.10
755.24	239.94
755.57	239.79
755.90	239.68
756.22	239.60
756.55	239.40
756.88	239.22
757.20	238.82
757.53	238.66
757.86	238.50
758.19	238.43
758.51	238.27
758.84	238.19
759.17	238.01
759.49	237.90
759.82	237.91
760.15	237.79
760.47	237.80
760.80	237.68
761.13	237.48
761.45	237.47
761.78	237.49
762.11	237.40
762.43	237.31
762.76	237.18
763.08	236.99
763.41	236.89
763.74	236.70
764.06	236.62
764.39	236.55
764.71	236.46
765.04	236.39
765.37	236.31
765.69	236.23
766.02	236.27
766.34	236.17
766.67	236.09
767.00	236.04
767.32	236.00
767.65	236.05
767.97	236.09
768.30	236.04
768.62	235.80
768.95	235.74
769.27	235.70
769.60	235.77
769.92	235.81
770.25	235.80
770.57	235.83
770.90	235.82
771.22	235.71
771.55	235.71
771.87	235.56
772.20	235.67
772.52	235.74
772.85	235.90
773.17	235.93
773.50	235.87
773.82	235.87
774.15	235.68
774.47	235.52
774.80	235.41
775.12	235.36
775.45	235.46
775.77	235.40
776.09	235.30
776.42	235.23
776.74	235.21
777.07	235.07
777.39	235.03
777.72	234.94
778.04	234.84
778.36	234.70
778.69	234.67
779.01	234.53
779.33	234.25
779.66	233.77
779.98	233.65
780.31	233.64
780.63	233.48
780.95	233.49
781.28	233.45
781.60	233.39
781.92	233.29
782.25	233.11
782.57	232.96
782.89	232.94
783.22	232.78
783.54	232.64
783.86	232.62
784.19	232.57
784.51	232.52
784.83	232.56
785.16	232.52
785.48	232.44
785.80	232.37
786.12	232.28
786.45	232.30
786.77	232.21
787.09	232.00
787.42	231.98
787.74	231.95
788.06	231.83
788.38	231.82
788.71	231.75
789.03	231.80
789.35	231.81
789.67	231.68
789.99	231.66
790.32	231.60
790.64	231.58
790.96	231.63
791.28	231.54
791.61	231.45
791.93	231.36
792.25	231.31
792.57	231.37
792.89	231.34
793.21	231.29
793.54	231.33
793.86	231.36
794.18	231.36
794.50	231.22
794.82	231.31
795.14	231.24
795.47	231.25
795.79	231.12
796.11	231.09
796.43	231.09
796.75	231.03
797.07	231.02
797.39	230.90
797.71	230.79
798.04	230.75
798.36	230.76
798.68	230.75
799.00	230.80
799.32	230.66
799.64	230.68
799.96	230.77
800.28	230.72
800.60	230.73
800.92	230.69
801.24	230.77
801.56	230.66
801.89	230.56
802.21	230.56
802.53	230.68
802.85	230.73
803.17	230.82
803.49	230.89
803.81	230.85
804.13	230.86
804.45	230.73
804.77	230.91
805.09	230.87
805.41	230.92
805.73	230.91
806.05	230.98
806.37	230.94
806.69	230.93
807.01	230.91
807.33	230.93
807.65	230.92
807.97	230.92
808.28	230.94
808.60	231.00
808.92	231.02
809.24	231.16
809.56	231.13
809.88	231.12
810.20	231.08
810.52	231.23
810.84	231.23
811.16	231.21
811.48	231.06
811.80	231.17
812.12	231.19
812.43	231.21
812.75	231.17
813.07	231.18
813.39	231.25
813.71	231.25
814.03	231.10
814.35	231.14
814.67	231.07
814.98	231.10
815.30	231.12
815.62	231.09
815.94	230.85
816.26	231.07
816.58	230.95
816.89	230.88
817.21	230.77
817.53	230.83
817.85	230.90
818.17	230.84
818.48	230.75
818.80	230.71
819.12	230.58
819.44	230.54
819.76	230.60
820.07	230.45
820.39	230.48
820.71	230.56
821.03	230.48
821.34	230.45
821.66	230.31
821.98	230.29
822.30	230.12
822.61	230.19
822.93	229.90
823.25	229.89
823.57	229.89
823.88	229.87
824.20	229.79
824.52	229.77
824.83	229.89
825.15	229.88
825.47	229.89
825.79	229.92
826.10	229.87
826.42	229.80
826.74	229.83
827.05	229.64
827.37	229.58
827.69	229.52
828.00	229.50
828.32	229.50
828.64	229.45
828.95	229.61
829.27	229.59
829.58	229.54
829.90	229.49
830.22	229.50
830.53	229.47
830.85	229.44
831.17	229.30
831.48	229.13
831.80	228.99
832.11	228.89
832.43	228.91
832.75	228.86
833.06	228.85
833.38	228.85
833.69	228.95
834.01	228.90
834.32	228.88
834.64	228.91
834.96	228.91
835.27	228.88
835.59	228.78
835.90	228.65
836.22	228.61
836.53	228.55
836.85	228.47
837.16	228.61
837.48	228.56
837.79	228.66
838.11	228.67
838.42	228.69
838.74	228.73
839.05	228.67
839.37	228.57
839.68	228.57
840.00	228.51
840.31	228.45
840.63	228.43
840.94	228.43
841.26	228.38
841.57	228.35
841.88	228.31
842.20	228.29
842.51	228.28
842.83	228.40
843.14	228.63
843.46	228.73
843.77	228.54
844.08	228.51
844.40	228.52
844.71	228.60
845.03	228.64
845.34	228.63
845.65	228.58
845.97	228.64
846.28	228.57
846.60	228.63
846.91	228.58
847.22	228.66
847.54	228.71
847.85	228.70
848.16	228.74
848.48	228.88
848.79	228.95
849.10	228.98
849.42	228.84
849.73	228.67
850.04	228.65
850.36	228.64
850.67	228.79
850.98	228.70
851.30	228.63
851.61	228.67
851.92	228.61
852.23	228.77
852.55	228.82
852.86	228.80
853.17	228.73
853.49	228.84
853.80	228.87
854.11	228.90
854.42	228.96
854.74	228.92
855.05	228.92
855.36	228.89
855.67	229.01
855.99	229.14
856.30	229.33
856.61	229.26
856.92	229.32
857.23	229.16
857.55	229.23
857.86	229.30
858.17	229.32
858.48	229.25
858.79	229.21
859.11	229.25
859.42	229.28
859.73	229.23
860.04	229.23
860.35	229.19
860.66	229.11
860.98	229.05
861.29	229.02
861.60	229.01
861.91	229.05
862.22	228.84
862.53	228.75
862.84	228.54
863.16	228.64
863.47	228.56
863.78	228.69
864.09	228.61
864.40	228.58
864.71	228.45
865.02	228.53
865.33	228.49
865.64	228.41
865.95	228.42
866.27	228.56
866.58	228.56
866.89	228.67
867.20	228.58
867.51	228.51
867.82	228.51
868.13	228.46
868.44	228.31
868.75	228.39
869.06	228.46
869.37	228.54
869.68	228.40
869.99	228.38
870.30	228.34
870.61	228.28
870.92	228.26
871.23	228.30
871.54	228.24
871.85	228.21
872.16	228.30
872.47	228.27
872.78	228.13
873.09	228.00
873.40	227.87
873.71	227.91
874.02	227.90
874.33	227.95
874.64	227.85
874.95	227.92
875.26	227.88
875.56	227.89
875.87	227.79
876.18	227.82
876.49	228.12
876.80	228.12
877.11	228.22
877.42	228.22
877.73	228.25
878.04	228.23
878.35	228.21
878.66	228.18
878.96	228.29
879.27	228.27
879.58	228.37
879.89	228.26
880.20	228.37
880.51	228.40
880.82	228.38
881.12	228.39
881.43	228.32
881.74	228.25
882.05	228.26
882.36	228.26
882.67	228.27
882.97	228.00
883.28	227.98
883.59	228.03
883.90	227.96
884.21	228.02
884.51	228.14
884.82	228.06
885.13	228.05
885.44	228.01
885.74	228.11
886.05	228.20
886.36	228.20
886.67	228.15
886.98	228.25
887.28	228.24
887.59	228.34
887.90	228.45
888.20	228.54
888.51	228.53
888.82	228.59
889.13	228.63
889.43	228.75
889.74	228.77
890.05	228.75
890.35	228.89
890.66	228.82
890.97	228.75
891.28	228.83
891.58	228.80
891.89	228.70
892.20	228.65
892.50	228.58
892.81	228.70
893.12	228.71
893.42	228.62
893.73	228.55
894.04	228.53
894.34	228.54
894.65	228.55
894.95	228.49
895.26	228.50
895.57	228.44
895.87	228.32
896.18	228.34
896.48	228.26
896.79	228.20
897.10	228.13
897.40	228.13
897.71	228.10
898.01	228.04
898.32	228.15
898.63	228.10
898.93	228.00
899.24	227.93
899.54	227.90
899.85	227.99
900.15	228.06
900.46	228.02
900.76	227.99
901.07	227.96
901.38	227.98
901.68	227.95
901.99	227.99
902.29	227.97
902.60	227.90
902.90	227.92
903.21	227.88
903.51	227.96
903.82	228.05
904.12	227.96
904.43	228.02
904.73	227.87
905.03	227.90
905.34	228.13
905.64	228.10
905.95	227.99
906.25	227.96
906.56	227.87
906.86	227.84
907.17	227.77
907.47	227.82
907.77	227.82
908.08	227.74
908.38	227.76
908.69	227.81
908.99	227.88
909.30	227.83
909.60	227.84
909.90	227.80
910.21	227.69
910.51	227.80
910.81	227.80
911.12	227.88
911.42	228.00
911.73	227.77
912.03	227.83
912.33	227.95
912.64	227.93
912.94	228.05
913.24	228.11
913.55	228.10
913.85	228.12
914.15	228.05
914.46	228.17
914.76	228.10
915.06	228.01
915.37	227.94
915.67	228.03
915.97	228.02
916.27	227.88
916.58	227.91
916.88	227.87
917.18	227.83
917.49	228.02
917.79	227.89
918.09	227.89
918.39	227.99
918.70	227.95
919.00	227.98
919.30	228.05
919.60	227.96
919.91	228.06
920.21	227.94
920.51	228.00
920.81	227.95
921.12	228.03
921.42	228.10
921.72	228.11
922.02	228.15
922.32	228.21
922.63	228.38
922.93	228.53
923.23	228.56
923.53	228.62
923.83	228.49
924.13	228.53
924.44	228.62
924.74	228.54
925.04	228.65
925.34	228.63
925.64	228.55
925.94	228.60
926.24	228.63
926.55	228.64
926.85	228.70
927.15	228.70
927.45	228.79
927.75	228.79
928.05	228.87
928.35	228.79
928.65	228.76
928.95	228.82
929.26	228.73
929.56	228.76
929.86	228.73
930.16	228.78
930.46	228.76
930.76	228.77
931.06	228.77
931.36	228.70
931.66	228.80
931.96	228.72
932.26	228.73
932.56	228.65
932.86	228.78
933.16	228.74
933.46	228.72
933.76	228.57
934.06	228.60
934.36	228.51
934.66	228.49
934.96	228.37
935.26	228.29
935.56	228.36
935.86	228.28
936.16	228.26
936.46	228.14
936.76	228.08
937.06	228.01
937.36	227.87
937.66	227.78
937.96	227.64
938.26	227.69
938.56	227.70
938.86	227.64
939.16	227.58
939.46	227.50
939.76	227.47
940.06	227.48
940.35	227.36
940.65	227.34
940.95	227.28
941.25	227.32
941.55	227.28
941.85	227.17
942.15	227.22
942.45	227.25
942.75	227.23
943.04	227.25
943.34	227.32
943.64	227.36
943.94	227.40
944.24	227.43
944.54	227.42
944.84	227.37
945.13	227.41
945.43	227.39
945.73	227.47
946.03	227.41
946.33	227.37
946.62	227.36
946.92	227.32
947.22	227.41
947.52	227.32
947.82	227.39
948.11	227.37
948.41	227.32
948.71	227.29
949.01	227.36
949.31	227.38
949.60	227.30
949.90	227.32
950.20	227.32
950.50	227.24
950.79	227.29
951.09	227.32
951.39	227.19
951.69	227.10
951.98	227.17
952.28	227.21
952.58	227.22
952.87	227.31
953.17	227.32
953.47	227.33
953.76	227.39
954.06	227.39
954.36	227.30
954.66	227.33
954.95	227.27
955.25	227.27
955.55	227.29
955.84	227.35
956.14	227.41
956.44	227.47
956.73	227.47
957.03	227.46
957.32	227.45
957.62	227.64
957.92	227.72
958.21	227.72
958.51	227.97
958.81	228.02
959.10	228.09
959.40	228.29
959.69	228.27
959.99	228.24
960.29	228.18
960.58	228.23
960.88	228.33
961.17	228.44
961.47	228.46
961.76	228.42
962.06	228.42
962.36	228.43
962.65	228.44
962.95	228.52
963.24	228.51
963.54	228.54
963.83	228.49
964.13	228.53
964.42	228.41
964.72	228.21
965.01	228.30
965.31	228.28
965.60	228.16
965.90	228.36
966.19	228.40
966.49	228.51
966.78	228.50
967.08	228.39
967.37	228.40
967.67	228.32
967.96	228.40
968.26	228.41
968.55	228.52
968.85	228.48
969.14	228.41
969.43	228.37
969.73	228.32
970.02	228.27
970.32	228.25
970.61	228.27
970.91	228.27
971.20	228.14
971.49	228.10
971.79	228.05
972.08	227.87
972.38	227.94
972.67	227.89
972.96	227.95
973.26	228.07
973.55	228.15
973.85	228.13
974.14	228.08
974.43	228.10
974.73	228.03
975.02	227.94
975.31	228.00
975.61	228.07
975.90	228.06
976.19	228.05
976.49	228.10
976.78	228.10
977.07	228.08
977.37	228.16
977.66	228.27
977.95	228.33
978.24	228.38
978.54	228.49
978.83	228.54
979.12	228.56
979.42	228.48
979.71	228.38
980.00	228.34
980.29	228.43
980.59	228.39
980.88	228.38
981.17	228.44
981.46	228.46
981.76	228.46
982.05	228.54
982.34	228.67
982.63	228.69
982.93	228.75
983.22	228.75
983.51	228.75
983.80	228.67
984.09	228.66
984.39	228.61
984.68	228.45
984.97	228.47
985.26	228.50
985.55	228.48
985.85	228.44
986.14	228.51
986.43	228.42
986.72	228.29
987.01	228.23
987.30	228.28
987.59	228.20
987.89	228.18
988.18	228.14
988.47	228.15
988.76	228.07
989.05	228.08
989.34	228.09
989.63	228.03
989.92	228.07
990.22	228.10
990.51	228.09
990.80	228.16
991.09	228.20
991.38	228.16
991.67	228.21
991.96	228.19
992.25	228.19
992.54	228.20
992.83	228.38
993.12	228.40
993.41	228.47
993.70	228.59
993.99	228.62
994.28	228.67
994.58	228.62
994.87	228.59
995.16	228.57
995.45	228.55
995.74	228.53
996.03	228.52
996.32	228.57
996.61	228.58
996.90	228.62
997.19	228.56
997.48	228.49
997.77	228.43
998.06	228.52
998.34	228.54
998.63	228.59
998.92	228.49
999.21	228.40
999.50	228.29
999.79	228.22
1000.08	228.18
1000.37	228.12
1000.66	228.10
1000.95	228.22
1001.24	228.26
1001.53	228.30
1001.82	228.37
1002.11	228.29
1002.40	228.20
1002.68	228.28
1002.97	228.29
1003.26	228.20
1003.55	228.27
1003.84	228.17
1004.13	228.29
1004.42	228.26
1004.71	228.25
1004.99	228.29
1005.28	228.43
1005.57	228.45
1005.86	228.39
1006.15	228.38
1006.44	228.26
1006.72	228.20
1007.01	228.11
1007.30	228.07
1007.59	228.07
1007.88	228.04
1008.17	228.11
1008.45	228.09
1008.74	227.96
1009.03	227.96
1009.32	227.97
1009.60	227.94
1009.89	228.08
1010.18	227.94
1010.47	227.87
1010.76	227.87
1011.04	227.76
1011.33	227.63
1011.62	227.65
1011.91	227.69
1012.19	227.76
1012.48	227.82
1012.77	227.95
1013.05	228.01
1013.34	228.05
1013.63	228.03
1013.92	228.00
1014.20	227.96
1014.49	228.00
1014.78	227.97
1015.06	227.94
1015.35	227.95
1015.64	227.94
1015.92	227.95
1016.21	227.96
1016.50	228.07
1016.78	228.06
1017.07	228.18
1017.36	228.22
1017.64	228.21
1017.93	228.21
1018.22	228.19
1018.50	228.22
1018.79	228.10
1019.08	227.88
1019.36	227.86
1019.65	227.77
1019.93	227.84
1020.22	227.90
1020.51	228.04
1020.79	228.09
1021.08	228.50
1021.36	226.80
1021.65	227.10
1021.94	225.00
1022.22	228.20
1022.51	226.50
1022.79	228.50
1023.08	229.50
1023.36	231.40
1023.65	227.90
>>>>>End Processed Spectral Data<<<<<
