SpectraSuite Data File
++++++++++++++++++++++++++++++++++++
Date: Fri Feb 01 14:36:10 EST 2013
User: group
Dark Spectrum Present: No
Reference Spectrum Present: No
Number of Sampled Component Spectra: 1
Spectrometers: USB2E7196
Integration Time (usec): 70000 (USB2E7196)
Spectra Averaged: 10 (USB2E7196)
Boxcar Smoothing: 10 (USB2E7196)
Correct for Electrical Dark: No (USB2E7196)
Strobe/Lamp Enabled: No (USB2E7196)
Correct for Detector Non-linearity: No (USB2E7196)
Correct for Stray Light: No (USB2E7196)
Number of Pixels in Processed Spectrum: 2048
>>>>>Begin Processed Spectral Data<<<<<
339.09	0.00
339.48	215.80
339.86	216.90
340.24	218.10
340.63	219.60
341.01	223.40
341.39	223.40
341.78	225.20
342.16	226.80
342.54	225.80
342.93	214.42
343.31	225.28
343.69	225.79
344.07	226.30
344.46	226.70
344.84	227.11
345.22	227.36
345.60	227.61
345.99	227.72
346.37	227.80
346.75	227.91
347.13	228.07
347.52	228.09
347.90	228.24
348.28	228.21
348.66	228.29
349.05	228.36
349.43	228.45
349.81	228.48
350.19	228.58
350.57	228.59
350.96	228.63
351.34	228.71
351.72	228.89
352.10	229.01
352.48	229.20
352.87	229.34
353.25	229.38
353.63	229.40
354.01	229.58
354.39	229.54
354.77	229.68
355.15	229.78
355.54	229.90
355.92	229.89
356.30	229.96
356.68	230.11
357.06	230.20
357.44	230.21
357.82	230.30
358.20	230.39
358.58	230.37
358.97	230.49
359.35	230.57
359.73	230.56
360.11	230.62
360.49	230.65
360.87	230.56
361.25	230.66
361.63	230.80
362.01	230.82
362.39	230.96
362.77	230.95
363.15	230.96
363.53	230.94
363.91	230.92
364.29	231.02
364.67	230.85
365.05	230.86
365.43	231.06
365.81	231.04
366.19	231.08
366.57	231.12
366.95	231.06
367.33	231.00
367.71	231.02
368.09	230.95
368.47	230.93
368.85	230.92
369.23	230.94
369.61	230.70
369.99	230.67
370.37	230.72
370.75	230.78
371.13	230.71
371.51	230.57
371.89	230.56
372.27	230.43
372.65	230.28
373.03	230.15
373.41	229.94
373.78	229.87
374.16	229.65
374.54	229.54
374.92	229.51
375.30	229.39
375.68	229.25
376.06	229.19
376.44	229.02
376.82	228.95
377.19	228.79
377.57	228.69
377.95	228.50
378.33	228.28
378.71	228.13
379.09	228.11
379.47	228.15
379.84	227.91
380.22	227.82
380.60	227.80
380.98	227.68
381.36	227.53
381.73	227.38
382.11	227.37
382.49	227.33
382.87	227.09
383.25	227.05
383.62	227.20
384.00	227.15
384.38	227.12
384.76	227.05
385.13	227.06
385.51	227.17
385.89	227.12
386.27	227.09
386.64	227.00
387.02	226.80
387.40	226.79
387.78	226.86
388.15	226.89
388.53	226.81
388.91	226.86
389.29	226.95
389.66	227.03
390.04	227.03
390.42	227.08
390.79	227.16
391.17	227.07
391.55	226.91
391.92	226.90
392.30	226.92
392.68	227.09
393.05	227.10
393.43	227.01
393.81	227.07
394.18	227.12
394.56	227.09
394.94	227.19
395.31	227.12
395.69	227.26
396.06	227.35
396.44	227.55
396.82	227.65
397.19	227.80
397.57	227.87
397.95	228.01
398.32	228.03
398.70	228.20
399.07	228.52
399.45	228.68
399.82	228.85
400.20	228.94
400.58	228.91
400.95	228.99
401.33	229.28
401.70	229.59
402.08	229.71
402.45	230.01
402.83	230.31
403.20	230.53
403.58	230.79
403.95	231.00
404.33	231.19
404.71	231.41
405.08	231.63
405.46	231.86
405.83	232.08
406.21	232.45
406.58	232.68
406.96	232.81
407.33	233.07
407.70	233.44
408.08	234.04
408.45	234.48
408.83	234.91
409.20	235.27
409.58	235.62
409.95	236.22
410.33	236.73
410.70	237.11
411.08	237.70
411.45	238.20
411.82	238.81
412.20	239.55
412.57	240.44
412.95	241.10
413.32	241.96
413.69	242.98
414.07	243.83
414.44	244.77
414.82	245.80
415.19	246.88
415.56	248.03
415.94	249.14
416.31	250.51
416.68	251.85
417.06	253.36
417.43	254.78
417.81	256.30
418.18	258.09
418.55	259.89
418.93	261.80
419.30	263.75
419.67	265.79
420.04	267.85
420.42	270.02
420.79	272.62
421.16	275.17
421.54	277.73
421.91	280.55
422.28	283.32
422.66	286.31
423.03	289.37
423.40	292.38
423.77	295.59
424.15	298.80
424.52	302.29
424.89	306.13
425.26	309.72
425.64	313.26
426.01	316.88
426.38	320.91
426.75	324.86
427.13	329.01
427.50	333.45
427.87	338.00
428.24	342.44
428.61	346.84
428.99	351.63
429.36	356.76
429.73	361.75
430.10	366.92
430.47	372.07
430.85	377.30
431.22	382.93
431.59	388.80
431.96	394.62
432.33	400.86
432.70	406.99
433.08	414.18
433.45	420.94
433.82	427.69
434.19	435.16
434.56	442.53
434.93	449.37
435.30	456.39
435.68	464.02
436.05	471.70
436.42	479.32
436.79	486.28
437.16	493.62
437.53	501.47
437.90	509.23
438.27	516.83
438.64	524.80
439.01	532.20
439.38	538.84
439.75	545.35
440.13	552.48
440.50	559.37
440.87	565.18
441.24	571.02
441.61	577.57
441.98	582.45
442.35	587.90
442.72	593.89
443.09	599.39
443.46	603.03
443.83	605.51
444.20	607.63
444.57	610.70
444.94	612.66
445.31	614.63
445.68	616.39
446.05	617.79
446.42	617.90
446.79	617.82
447.16	617.80
447.53	617.94
447.90	616.22
448.27	614.11
448.64	610.76
449.01	608.88
449.37	604.53
449.74	600.37
450.11	595.40
450.48	589.83
450.85	584.25
451.22	579.46
451.59	575.00
451.96	570.55
452.33	564.43
452.70	558.80
453.07	551.93
453.43	545.05
453.80	538.09
454.17	531.40
454.54	525.29
454.91	518.37
455.28	511.45
455.65	505.17
456.02	498.90
456.38	493.56
456.75	486.72
457.12	481.12
457.49	475.60
457.86	470.28
458.23	465.44
458.59	460.03
458.96	454.75
459.33	449.90
459.70	445.16
460.07	441.40
460.43	436.97
460.80	432.53
461.17	428.92
461.54	425.22
461.91	421.57
462.27	417.59
462.64	414.32
463.01	410.98
463.38	407.44
463.74	403.90
464.11	400.78
464.48	398.11
464.85	395.14
465.21	392.66
465.58	390.04
465.95	387.23
466.32	384.80
466.68	382.18
467.05	379.80
467.42	377.53
467.78	374.84
468.15	372.39
468.52	370.70
468.88	368.26
469.25	366.11
469.62	364.48
469.98	362.62
470.35	360.93
470.72	359.19
471.08	357.43
471.45	355.96
471.82	354.37
472.18	352.58
472.55	351.40
472.92	349.94
473.28	348.64
473.65	347.16
474.02	345.75
474.38	344.67
474.75	343.66
475.11	342.43
475.48	341.60
475.85	340.84
476.21	340.06
476.58	339.38
476.94	338.70
477.31	338.01
477.67	337.36
478.04	336.77
478.41	336.37
478.77	336.17
479.14	335.57
479.50	335.40
479.87	335.30
480.23	335.07
480.60	334.76
480.96	334.54
481.33	334.69
481.69	334.70
482.06	334.54
482.42	334.31
482.79	334.31
483.15	334.39
483.52	334.65
483.88	334.64
484.25	334.80
484.61	335.00
484.98	335.10
485.34	335.68
485.71	336.19
486.07	336.61
486.44	337.05
486.80	337.70
487.17	338.32
487.53	339.05
487.90	339.70
488.26	340.65
488.62	341.50
488.99	342.32
489.35	343.24
489.72	344.42
490.08	345.54
490.44	346.69
490.81	347.77
491.17	348.68
491.54	350.06
491.90	351.24
492.26	352.66
492.63	354.10
492.99	355.33
493.36	356.67
493.72	358.18
494.08	359.44
494.45	360.92
494.81	362.50
495.17	363.98
495.54	365.68
495.90	367.23
496.26	368.90
496.63	370.75
496.99	372.59
497.35	374.10
497.72	375.81
498.08	377.57
498.44	379.40
498.80	381.41
499.17	383.29
499.53	385.02
499.89	386.83
500.26	388.56
500.62	390.23
500.98	392.12
501.34	393.86
501.71	395.75
502.07	397.61
502.43	399.35
502.79	401.02
503.16	402.66
503.52	404.38
503.88	405.92
504.24	407.34
504.60	408.93
504.97	410.78
505.33	412.47
505.69	414.20
506.05	415.70
506.41	416.88
506.78	418.07
507.14	419.54
507.50	420.81
507.86	422.31
508.22	423.56
508.59	424.60
508.95	425.77
509.31	427.00
509.67	428.01
510.03	428.99
510.39	430.12
510.75	431.13
511.12	432.12
511.48	432.90
511.84	433.72
512.20	434.40
512.56	435.04
512.92	435.76
513.28	436.23
513.64	436.76
514.00	437.57
514.37	438.22
514.73	438.75
515.09	439.17
515.45	439.39
515.81	439.94
516.17	440.40
516.53	440.75
516.89	441.00
517.25	441.28
517.61	441.64
517.97	441.89
518.33	442.04
518.69	442.34
519.05	442.98
519.41	443.41
519.77	443.92
520.13	444.21
520.49	444.40
520.85	444.58
521.21	445.08
521.57	445.37
521.93	445.65
522.29	446.20
522.65	446.65
523.01	447.16
523.37	447.48
523.73	447.90
524.09	448.33
524.45	448.75
524.81	449.36
525.17	450.09
525.53	450.78
525.89	451.51
526.25	452.11
526.61	452.65
526.97	453.40
527.33	454.01
527.68	455.15
528.04	456.27
528.40	457.43
528.76	458.56
529.12	459.81
529.48	461.22
529.84	462.43
530.20	463.93
530.56	465.46
530.91	467.11
531.27	468.85
531.63	470.63
531.99	472.32
532.35	474.13
532.71	475.70
533.07	477.55
533.42	479.79
533.78	481.89
534.14	484.03
534.50	486.05
534.86	488.51
535.21	490.53
535.57	492.90
535.93	495.39
536.29	497.85
536.65	500.20
537.00	502.58
537.36	505.00
537.72	507.62
538.08	510.36
538.44	513.08
538.79	515.78
539.15	518.45
539.51	521.52
539.87	524.40
540.22	527.42
540.58	530.79
540.94	533.77
541.29	536.97
541.65	540.24
542.01	543.60
542.37	546.97
542.72	550.28
543.08	553.63
543.44	557.15
543.79	560.42
544.15	564.16
544.51	567.93
544.87	571.68
545.22	575.38
545.58	579.00
545.94	582.65
546.29	586.38
546.65	590.13
547.01	593.73
547.36	597.46
547.72	601.39
548.07	605.11
548.43	608.75
548.79	612.59
549.14	616.33
549.50	619.96
549.86	623.68
550.21	627.59
550.57	631.31
550.92	635.09
551.28	639.05
551.64	643.04
551.99	646.76
552.35	650.60
552.70	654.24
553.06	658.04
553.41	662.06
553.77	665.92
554.13	670.06
554.48	674.39
554.84	678.53
555.19	682.22
555.55	685.97
555.90	689.93
556.26	693.80
556.61	697.78
556.97	701.90
557.32	705.58
557.68	709.85
558.03	713.77
558.39	717.59
558.74	721.44
559.10	724.90
559.45	728.69
559.81	732.78
560.16	736.75
560.52	740.57
560.87	744.25
561.23	747.99
561.58	751.88
561.94	755.14
562.29	758.67
562.64	762.35
563.00	765.74
563.35	769.57
563.71	773.19
564.06	776.89
564.42	780.30
564.77	784.12
565.12	787.32
565.48	790.86
565.83	794.20
566.19	797.61
566.54	801.11
566.89	804.51
567.25	808.00
567.60	811.38
567.96	814.64
568.31	817.84
568.66	820.89
569.02	823.55
569.37	826.64
569.72	829.55
570.08	832.55
570.43	835.53
570.78	837.86
571.14	840.40
571.49	842.86
571.84	845.73
572.20	847.96
572.55	850.33
572.90	852.44
573.26	854.71
573.61	856.50
573.96	858.40
574.31	860.00
574.67	861.00
575.02	862.55
575.37	864.06
575.72	865.19
576.08	866.82
576.43	868.12
576.78	869.49
577.13	870.83
577.49	872.18
577.84	873.25
578.19	874.66
578.54	875.76
578.90	876.59
579.25	876.94
579.60	877.72
579.95	878.14
580.30	878.74
580.66	879.20
581.01	880.04
581.36	880.48
581.71	881.16
582.06	881.83
582.42	882.25
582.77	882.27
583.12	882.92
583.47	883.07
583.82	883.61
584.17	883.50
584.53	883.60
584.88	883.53
585.23	883.61
585.58	883.48
585.93	883.36
586.28	883.52
586.63	883.84
586.98	883.91
587.34	884.17
587.69	884.30
588.04	884.20
588.39	884.12
588.74	883.80
589.09	883.37
589.44	882.92
589.79	882.55
590.14	882.56
590.49	882.08
590.84	881.74
591.19	881.02
591.54	880.48
591.89	879.53
592.25	878.96
592.60	878.02
592.95	876.93
593.30	875.86
593.65	874.84
594.00	873.59
594.35	872.90
594.70	871.24
595.05	869.82
595.40	868.46
595.75	866.62
596.10	865.54
596.45	864.45
596.80	863.37
597.15	861.86
597.50	860.28
597.85	858.92
598.19	857.56
598.54	856.50
598.89	855.26
599.24	854.43
599.59	852.85
599.94	851.48
600.29	850.28
600.64	848.88
600.99	847.12
601.34	845.77
601.69	843.40
602.04	842.00
602.39	840.40
602.74	839.22
603.08	838.15
603.43	836.73
603.78	835.14
604.13	833.44
604.48	831.99
604.83	830.55
605.18	828.79
605.53	826.78
605.87	824.65
606.22	822.76
606.57	820.66
606.92	818.86
607.27	817.15
607.62	815.58
607.96	814.00
608.31	812.23
608.66	810.23
609.01	808.48
609.36	806.57
609.70	804.23
610.05	801.70
610.40	799.40
610.75	796.86
611.10	794.50
611.44	791.58
611.79	789.30
612.14	786.53
612.49	783.99
612.83	781.49
613.18	778.96
613.53	776.50
613.88	773.57
614.22	770.88
614.57	768.11
614.92	765.12
615.27	762.40
615.61	759.73
615.96	756.92
616.31	754.49
616.65	752.15
617.00	749.78
617.35	747.38
617.70	744.56
618.04	741.89
618.39	739.39
618.74	737.34
619.08	734.40
619.43	732.21
619.78	730.01
620.12	727.49
620.47	724.91
620.82	722.20
621.16	719.81
621.51	717.37
621.85	714.69
622.20	712.24
622.55	709.62
622.89	707.14
623.24	704.70
623.59	702.00
623.93	699.29
624.28	696.84
624.62	694.34
624.97	692.10
625.32	689.78
625.66	687.20
626.01	684.82
626.35	682.31
626.70	679.80
627.04	677.29
627.39	674.60
627.73	671.82
628.08	669.48
628.43	667.05
628.77	664.55
629.12	662.18
629.46	659.40
629.81	656.69
630.15	653.95
630.50	651.14
630.84	648.48
631.19	645.62
631.53	642.94
631.88	639.98
632.22	637.07
632.57	634.54
632.91	631.95
633.26	629.21
633.60	626.53
633.95	623.71
634.29	620.84
634.64	618.59
634.98	616.27
635.32	613.67
635.67	611.27
636.01	608.70
636.36	606.20
636.70	604.07
637.05	601.64
637.39	599.47
637.73	597.21
638.08	595.06
638.42	593.00
638.77	590.63
639.11	588.29
639.45	586.04
639.80	583.19
640.14	580.71
640.49	578.24
640.83	575.91
641.17	573.74
641.52	571.43
641.86	568.79
642.20	566.48
642.55	564.21
642.89	561.87
643.23	559.45
643.58	557.17
643.92	554.59
644.26	552.42
644.61	550.20
644.95	548.08
645.29	545.65
645.64	543.08
645.98	540.79
646.32	538.60
646.66	536.26
647.01	534.33
647.35	532.10
647.69	529.84
648.04	527.79
648.38	525.30
648.72	522.79
649.06	520.44
649.41	518.02
649.75	515.63
650.09	513.10
650.43	510.85
650.78	508.31
651.12	505.92
651.46	503.62
651.80	501.16
652.14	498.73
652.49	496.30
652.83	494.19
653.17	491.90
653.51	489.54
653.85	487.37
654.20	484.98
654.54	482.42
654.88	480.12
655.22	477.62
655.56	475.36
655.90	473.25
656.25	471.23
656.59	469.14
656.93	466.99
657.27	464.93
657.61	462.72
657.95	460.72
658.29	458.66
658.64	456.46
658.98	454.35
659.32	452.16
659.66	450.21
660.00	447.96
660.34	445.98
660.68	444.08
661.02	441.96
661.36	440.07
661.70	438.32
662.05	436.47
662.39	434.80
662.73	433.05
663.07	431.43
663.41	429.73
663.75	427.93
664.09	426.01
664.43	424.26
664.77	422.48
665.11	420.90
665.45	419.26
665.79	417.49
666.13	415.67
666.47	413.97
666.81	412.11
667.15	410.43
667.49	408.72
667.83	407.18
668.17	405.67
668.51	403.91
668.85	402.38
669.19	400.91
669.53	399.09
669.87	397.50
670.21	395.90
670.55	394.25
670.89	392.86
671.23	391.40
671.57	389.90
671.91	388.46
672.25	386.77
672.58	385.31
672.92	383.90
673.26	382.57
673.60	381.24
673.94	379.91
674.28	378.74
674.62	377.46
674.96	376.03
675.30	374.68
675.64	373.38
675.97	372.01
676.31	370.82
676.65	369.73
676.99	368.47
677.33	366.93
677.67	365.66
678.01	364.16
678.34	363.05
678.68	361.85
679.02	360.63
679.36	359.58
679.70	358.39
680.04	357.10
680.37	355.89
680.71	354.65
681.05	353.61
681.39	352.38
681.73	351.23
682.06	350.13
682.40	349.09
682.74	348.11
683.08	347.01
683.42	345.72
683.75	344.52
684.09	343.35
684.43	342.42
684.77	341.26
685.10	340.18
685.44	339.01
685.78	337.80
686.12	336.77
686.45	335.53
686.79	334.35
687.13	333.38
687.46	332.38
687.80	331.37
688.14	330.35
688.48	329.26
688.81	328.26
689.15	327.17
689.49	326.03
689.82	325.12
690.16	324.09
690.50	323.10
690.83	322.19
691.17	321.26
691.51	320.35
691.84	319.47
692.18	318.51
692.52	317.60
692.85	316.71
693.19	315.77
693.52	314.91
693.86	313.96
694.20	313.09
694.53	312.19
694.87	311.35
695.21	310.27
695.54	309.44
695.88	308.38
696.21	307.50
696.55	306.70
696.88	305.75
697.22	304.93
697.56	304.08
697.89	303.19
698.23	302.39
698.56	301.59
698.90	300.82
699.23	300.05
699.57	299.24
699.90	298.34
700.24	297.60
700.58	296.88
700.91	296.20
701.25	295.54
701.58	294.92
701.92	294.07
702.25	293.51
702.59	292.89
702.92	292.27
703.26	291.59
703.59	290.96
703.93	290.46
704.26	289.80
704.60	289.23
704.93	288.72
705.26	288.02
705.60	287.38
705.93	286.71
706.27	286.20
706.60	285.61
706.94	285.15
707.27	284.43
707.61	283.88
707.94	283.32
708.27	282.67
708.61	281.92
708.94	281.44
709.28	280.82
709.61	280.14
709.94	279.68
710.28	279.20
710.61	278.63
710.95	277.85
711.28	277.46
711.61	276.80
711.95	276.23
712.28	275.72
712.61	275.18
712.95	274.70
713.28	274.25
713.61	273.71
713.95	273.38
714.28	272.92
714.61	272.45
714.95	271.95
715.28	271.37
715.61	270.91
715.95	270.41
716.28	269.95
716.61	269.61
716.95	269.10
717.28	268.62
717.61	268.15
717.94	267.71
718.28	267.12
718.61	266.85
718.94	266.33
719.27	265.88
719.61	265.50
719.94	265.10
720.27	264.55
720.60	264.17
720.94	263.64
721.27	263.33
721.60	262.97
721.93	262.53
722.27	262.31
722.60	261.94
722.93	261.62
723.26	261.30
723.59	260.88
723.93	260.51
724.26	260.22
724.59	260.00
724.92	259.72
725.25	259.39
725.59	258.89
725.92	258.67
726.25	258.41
726.58	258.02
726.91	257.63
727.24	257.35
727.57	257.01
727.91	256.80
728.24	256.50
728.57	256.25
728.90	256.11
729.23	255.80
729.56	255.60
729.89	255.38
730.22	255.02
730.55	254.76
730.89	254.58
731.22	254.23
731.55	253.99
731.88	253.65
732.21	253.51
732.54	253.33
732.87	253.08
733.20	252.83
733.53	252.76
733.86	252.59
734.19	252.46
734.52	252.32
734.85	252.15
735.18	251.92
735.51	251.60
735.84	251.30
736.17	251.14
736.50	250.81
736.83	250.74
737.16	250.61
737.49	250.44
737.82	250.21
738.15	250.08
738.48	249.82
738.81	249.77
739.14	249.50
739.47	249.28
739.80	249.16
740.13	248.97
740.46	248.54
740.79	248.38
741.12	248.11
741.45	247.94
741.78	247.60
742.11	247.36
742.44	247.18
742.77	247.10
743.10	246.88
743.43	246.68
743.75	246.28
744.08	246.34
744.41	246.16
744.74	245.95
745.07	245.67
745.40	245.59
745.73	245.43
746.06	245.25
746.39	245.20
746.71	244.96
747.04	244.82
747.37	244.68
747.70	244.47
748.03	244.21
748.36	244.05
748.68	243.90
749.01	243.75
749.34	243.68
749.67	243.45
750.00	243.22
750.33	243.30
750.65	243.22
750.98	242.83
751.31	242.65
751.64	242.46
751.97	242.50
752.29	242.27
752.62	242.01
752.95	241.89
753.28	241.71
753.60	241.57
753.93	241.40
754.26	241.37
754.59	241.18
754.91	241.12
755.24	240.91
755.57	240.74
755.90	240.66
756.22	240.47
756.55	240.30
756.88	240.09
757.20	239.78
757.53	239.59
757.86	239.43
758.19	239.41
758.51	239.37
758.84	239.15
759.17	239.08
759.49	239.01
759.82	239.02
760.15	238.92
760.47	238.82
760.80	238.67
761.13	238.47
761.45	238.39
761.78	238.30
762.11	238.30
762.43	238.15
762.76	238.03
763.08	237.93
763.41	237.92
763.74	237.88
764.06	237.80
764.39	237.73
764.71	237.66
765.04	237.44
765.37	237.35
765.69	237.29
766.02	237.06
766.34	237.02
766.67	236.77
767.00	236.60
767.32	236.73
767.65	236.73
767.97	236.71
768.30	236.64
768.62	236.48
768.95	236.24
769.27	236.12
769.60	236.01
769.92	235.91
770.25	235.71
770.57	235.64
770.90	235.59
771.22	235.50
771.55	235.46
771.87	235.42
772.20	235.32
772.52	235.30
772.85	235.55
773.17	235.38
773.50	235.26
773.82	235.17
774.15	234.78
774.47	234.63
774.80	234.57
775.12	234.49
775.45	234.45
775.77	234.41
776.09	234.44
776.42	234.34
776.74	234.30
777.07	234.28
777.39	234.26
777.72	234.13
778.04	233.99
778.36	233.89
778.69	233.83
779.01	233.80
779.33	233.67
779.66	233.26
779.98	233.30
780.31	233.32
780.63	233.40
780.95	233.48
781.28	233.45
781.60	233.41
781.92	233.40
782.25	233.26
782.57	233.26
782.89	233.25
783.22	233.22
783.54	233.23
783.86	233.18
784.19	233.06
784.51	233.07
784.83	233.13
785.16	233.01
785.48	232.89
785.80	232.84
786.12	232.83
786.45	232.88
786.77	232.70
787.09	232.62
787.42	232.53
787.74	232.43
788.06	232.41
788.38	232.23
788.71	232.07
789.03	232.03
789.35	232.02
789.67	231.88
789.99	231.84
790.32	231.67
790.64	231.63
790.96	231.69
791.28	231.58
791.61	231.47
791.93	231.45
792.25	231.53
792.57	231.56
792.89	231.56
793.21	231.60
793.54	231.58
793.86	231.59
794.18	231.58
794.50	231.54
794.82	231.53
795.14	231.53
795.47	231.55
795.79	231.55
796.11	231.51
796.43	231.58
796.75	231.51
797.07	231.47
797.39	231.43
797.71	231.36
798.04	231.28
798.36	231.24
798.68	231.21
799.00	231.12
799.32	231.03
799.64	230.91
799.96	230.82
800.28	230.76
800.60	230.71
800.92	230.67
801.24	230.60
801.56	230.60
801.89	230.69
802.21	230.69
802.53	230.74
802.85	230.62
803.17	230.68
803.49	230.70
803.81	230.69
804.13	230.64
804.45	230.55
804.77	230.61
805.09	230.64
805.41	230.71
805.73	230.66
806.05	230.60
806.37	230.52
806.69	230.47
807.01	230.52
807.33	230.54
807.65	230.51
807.97	230.70
808.28	230.55
808.60	230.44
808.92	230.46
809.24	230.50
809.56	230.58
809.88	230.45
810.20	230.37
810.52	230.43
810.84	230.37
811.16	230.28
811.48	230.24
811.80	230.30
812.12	230.31
812.43	230.39
812.75	230.35
813.07	230.33
813.39	230.27
813.71	230.21
814.03	230.20
814.35	230.05
814.67	229.83
814.98	229.78
815.30	229.80
815.62	229.69
815.94	229.45
816.26	229.42
816.58	229.30
816.89	229.35
817.21	229.21
817.53	229.17
817.85	229.23
818.17	229.15
818.48	228.99
818.80	228.96
819.12	228.85
819.44	228.75
819.76	228.81
820.07	228.80
820.39	228.86
820.71	228.73
821.03	228.82
821.34	228.83
821.66	228.92
821.98	228.92
822.30	228.92
822.61	229.18
822.93	229.17
823.25	229.23
823.57	229.20
823.88	229.39
824.20	229.45
824.52	229.46
824.83	229.54
825.15	229.47
825.47	229.40
825.79	229.46
826.10	229.53
826.42	229.49
826.74	229.59
827.05	229.53
827.37	229.56
827.69	229.52
828.00	229.50
828.32	229.38
828.64	229.43
828.95	229.57
829.27	229.44
829.58	229.47
829.90	229.40
830.22	229.45
830.53	229.26
830.85	229.22
831.17	229.20
831.48	229.09
831.80	229.23
832.11	229.13
832.43	229.01
832.75	229.03
833.06	229.19
833.38	229.09
833.69	229.06
834.01	229.04
834.32	229.09
834.64	229.09
834.96	229.13
835.27	229.00
835.59	228.90
835.90	228.92
836.22	228.85
836.53	228.79
836.85	228.65
837.16	228.90
837.48	228.91
837.79	228.99
838.11	229.03
838.42	228.97
838.74	229.12
839.05	229.12
839.37	229.08
839.68	228.85
840.00	228.81
840.31	228.83
840.63	228.86
840.94	228.76
841.26	228.76
841.57	228.84
841.88	228.92
842.20	228.90
842.51	228.81
842.83	228.84
843.14	229.10
843.46	229.29
843.77	229.11
844.08	229.19
844.40	229.12
844.71	229.11
845.03	229.14
845.34	229.11
845.65	229.19
845.97	229.18
846.28	229.18
846.60	229.23
846.91	229.22
847.22	229.24
847.54	229.30
847.85	229.27
848.16	229.15
848.48	229.13
848.79	229.15
849.10	229.21
849.42	229.20
849.73	229.01
850.04	228.84
850.36	228.90
850.67	228.81
850.98	228.75
851.30	228.74
851.61	228.72
851.92	228.60
852.23	228.61
852.55	228.68
852.86	228.74
853.17	228.75
853.49	228.75
853.80	228.82
854.11	228.89
854.42	228.90
854.74	228.91
855.05	228.80
855.36	228.78
855.67	228.70
855.99	228.77
856.30	229.08
856.61	229.10
856.92	229.04
857.23	229.06
857.55	229.12
857.86	229.17
858.17	229.15
858.48	229.20
858.79	229.19
859.11	229.18
859.42	229.13
859.73	229.14
860.04	229.24
860.35	229.28
860.66	229.19
860.98	229.17
861.29	229.24
861.60	229.34
861.91	229.38
862.22	229.45
862.53	229.26
862.84	229.01
863.16	229.10
863.47	229.00
863.78	228.99
864.09	229.00
864.40	229.05
864.71	229.02
865.02	229.00
865.33	228.96
865.64	228.94
865.95	228.94
866.27	228.99
866.58	228.96
866.89	228.82
867.20	228.84
867.51	228.91
867.82	228.91
868.13	228.89
868.44	228.90
868.75	228.88
869.06	229.00
869.37	228.92
869.68	228.88
869.99	228.95
870.30	229.00
870.61	228.95
870.92	228.84
871.23	228.89
871.54	228.89
871.85	228.94
872.16	228.91
872.47	228.84
872.78	228.76
873.09	228.65
873.40	228.60
873.71	228.51
874.02	228.42
874.33	228.40
874.64	228.36
874.95	228.33
875.26	228.30
875.56	228.25
875.87	228.21
876.18	228.19
876.49	228.31
876.80	228.25
877.11	228.22
877.42	228.29
877.73	228.27
878.04	228.23
878.35	228.23
878.66	228.23
878.96	228.32
879.27	228.22
879.58	228.24
879.89	228.18
880.20	228.28
880.51	228.32
880.82	228.30
881.12	228.37
881.43	228.35
881.74	228.34
882.05	228.34
882.36	228.39
882.67	228.49
882.97	228.30
883.28	228.34
883.59	228.34
883.90	228.32
884.21	228.33
884.51	228.26
884.82	228.16
885.13	228.14
885.44	228.06
885.74	228.14
886.05	228.10
886.36	228.21
886.67	228.12
886.98	228.17
887.28	228.18
887.59	228.12
887.90	228.12
888.20	228.14
888.51	228.08
888.82	228.10
889.13	227.98
889.43	228.10
889.74	228.05
890.05	228.05
890.35	228.09
890.66	228.03
890.97	228.11
891.28	228.16
891.58	228.19
891.89	228.21
892.20	228.16
892.50	228.18
892.81	228.14
893.12	228.20
893.42	228.07
893.73	228.07
894.04	228.04
894.34	227.95
894.65	227.82
894.95	227.94
895.26	227.90
895.57	228.13
895.87	227.98
896.18	228.04
896.48	228.10
896.79	228.04
897.10	228.12
897.40	228.14
897.71	228.24
898.01	228.15
898.32	228.21
898.63	228.32
898.93	228.37
899.24	228.44
899.54	228.40
899.85	228.40
900.15	228.30
900.46	228.35
900.76	228.50
901.07	228.63
901.38	228.57
901.68	228.52
901.99	228.36
902.29	228.38
902.60	228.35
902.90	228.21
903.21	228.22
903.51	228.18
903.82	228.27
904.12	228.25
904.43	228.37
904.73	228.40
905.03	228.40
905.34	228.52
905.64	228.42
905.95	228.44
906.25	228.48
906.56	228.57
906.86	228.61
907.17	228.59
907.47	228.60
907.77	228.60
908.08	228.69
908.38	228.75
908.69	228.89
908.99	228.93
909.30	229.11
909.60	229.09
909.90	229.02
910.21	228.90
910.51	228.86
910.81	228.76
911.12	228.70
911.42	228.60
911.73	228.40
912.03	228.36
912.33	228.39
912.64	228.28
912.94	228.31
913.24	228.19
913.55	228.14
913.85	228.17
914.15	228.22
914.46	228.24
914.76	228.00
915.06	227.80
915.37	227.76
915.67	227.68
915.97	227.66
916.27	227.67
916.58	227.73
916.88	227.65
917.18	227.68
917.49	227.73
917.79	227.70
918.09	227.80
918.39	227.90
918.70	227.90
919.00	227.94
919.30	228.01
919.60	228.05
919.91	228.03
920.21	227.92
920.51	227.86
920.81	227.83
921.12	227.95
921.42	228.04
921.72	228.00
922.02	228.03
922.32	228.06
922.63	228.10
922.93	228.11
923.23	228.13
923.53	228.09
923.83	228.00
924.13	228.04
924.44	227.94
924.74	227.94
925.04	227.96
925.34	227.98
925.64	227.84
925.94	227.81
926.24	227.87
926.55	227.87
926.85	227.87
927.15	227.78
927.45	227.83
927.75	227.86
928.05	227.89
928.35	227.80
928.65	227.87
928.95	227.90
929.26	227.90
929.56	227.94
929.86	227.94
930.16	227.90
930.46	227.91
930.76	227.96
931.06	227.91
931.36	227.86
931.66	227.87
931.96	227.90
932.26	227.95
932.56	227.89
932.86	227.90
933.16	227.99
933.46	228.06
933.76	228.01
934.06	227.95
934.36	227.91
934.66	227.97
934.96	227.84
935.26	227.78
935.56	227.73
935.86	227.61
936.16	227.69
936.46	227.72
936.76	227.69
937.06	227.71
937.36	227.78
937.66	227.80
937.96	227.80
938.26	227.84
938.56	227.73
938.86	227.77
939.16	227.79
939.46	227.70
939.76	227.67
940.06	227.59
940.35	227.51
940.65	227.50
940.95	227.54
941.25	227.59
941.55	227.65
941.85	227.72
942.15	227.88
942.45	227.97
942.75	228.01
943.04	227.99
943.34	228.04
943.64	227.99
943.94	227.99
944.24	228.04
944.54	227.97
944.84	228.10
945.13	228.08
945.43	228.10
945.73	228.14
946.03	228.19
946.33	228.34
946.62	228.45
946.92	228.45
947.22	228.48
947.52	228.48
947.82	228.39
948.11	228.36
948.41	228.31
948.71	228.25
949.01	228.30
949.31	228.35
949.60	228.28
949.90	228.20
950.20	228.20
950.50	228.18
950.79	228.12
951.09	228.10
951.39	228.15
951.69	228.13
951.98	228.14
952.28	228.10
952.58	228.01
952.87	228.04
953.17	227.98
953.47	227.86
953.76	227.80
954.06	227.82
954.36	227.75
954.66	227.78
954.95	227.77
955.25	227.71
955.55	227.69
955.84	227.73
956.14	227.91
956.44	228.05
956.73	228.05
957.03	228.11
957.32	228.13
957.62	228.10
957.92	228.18
958.21	228.19
958.51	228.34
958.81	228.35
959.10	228.41
959.40	228.53
959.69	228.59
959.99	228.69
960.29	228.75
960.58	228.76
960.88	228.77
961.17	228.80
961.47	228.87
961.76	228.85
962.06	228.81
962.36	228.73
962.65	228.61
962.95	228.62
963.24	228.57
963.54	228.48
963.83	228.53
964.13	228.49
964.42	228.33
964.72	228.27
965.01	228.26
965.31	228.17
965.60	228.24
965.90	228.39
966.19	228.22
966.49	228.16
966.78	228.18
967.08	228.25
967.37	228.15
967.67	228.09
967.96	228.11
968.26	228.07
968.55	228.02
968.85	228.03
969.14	227.96
969.43	228.00
969.73	228.12
970.02	228.10
970.32	228.11
970.61	228.23
970.91	228.19
971.20	228.27
971.49	228.24
971.79	228.24
972.08	228.12
972.38	228.26
972.67	228.27
972.96	228.33
973.26	228.20
973.55	228.30
973.85	228.35
974.14	228.40
974.43	228.46
974.73	228.52
975.02	228.56
975.31	228.59
975.61	228.68
975.90	228.61
976.19	228.59
976.49	228.63
976.78	228.56
977.07	228.56
977.37	228.46
977.66	228.52
977.95	228.45
978.24	228.54
978.54	228.63
978.83	228.78
979.12	228.74
979.42	228.81
979.71	228.73
980.00	228.60
980.29	228.60
980.59	228.60
980.88	228.61
981.17	228.66
981.46	228.69
981.76	228.63
982.05	228.71
982.34	228.76
982.63	228.74
982.93	228.90
983.22	228.93
983.51	229.04
983.80	229.04
984.09	229.07
984.39	228.99
984.68	228.90
984.97	228.79
985.26	228.86
985.55	228.81
985.85	228.90
986.14	229.00
986.43	229.11
986.72	229.02
987.01	229.02
987.30	228.93
987.59	228.91
987.89	228.89
988.18	228.83
988.47	228.77
988.76	228.68
989.05	228.59
989.34	228.53
989.63	228.49
989.92	228.43
990.22	228.35
990.51	228.38
990.80	228.40
991.09	228.34
991.38	228.24
991.67	228.11
991.96	228.03
992.25	227.99
992.54	227.95
992.83	227.98
993.12	227.89
993.41	227.89
993.70	227.96
993.99	228.01
994.28	228.17
994.58	228.11
994.87	228.17
995.16	228.11
995.45	228.17
995.74	228.18
996.03	228.23
996.32	228.20
996.61	228.14
996.90	228.01
997.19	228.01
997.48	228.09
997.77	228.19
998.06	228.20
998.34	228.21
998.63	228.11
998.92	228.10
999.21	228.15
999.50	228.19
999.79	228.21
1000.08	228.20
1000.37	227.97
1000.66	227.90
1000.95	227.89
1001.24	227.87
1001.53	227.77
1001.82	227.68
1002.11	227.60
1002.40	227.74
1002.68	227.79
1002.97	227.93
1003.26	227.87
1003.55	227.70
1003.84	227.78
1004.13	227.80
1004.42	227.76
1004.71	227.80
1004.99	227.82
1005.28	227.86
1005.57	227.82
1005.86	227.78
1006.15	227.73
1006.44	227.79
1006.72	228.00
1007.01	228.02
1007.30	228.12
1007.59	228.20
1007.88	228.20
1008.17	228.25
1008.45	228.10
1008.74	228.01
1009.03	227.92
1009.32	227.99
1009.60	228.01
1009.89	227.90
1010.18	227.85
1010.47	227.90
1010.76	227.84
1011.04	227.87
1011.33	227.87
1011.62	227.93
1011.91	227.83
1012.19	227.96
1012.48	227.93
1012.77	227.87
1013.05	227.93
1013.34	227.93
1013.63	227.91
1013.92	227.97
1014.20	227.91
1014.49	228.03
1014.78	228.05
1015.06	228.00
1015.35	228.12
1015.64	228.23
1015.92	228.43
1016.21	228.55
1016.50	228.49
1016.78	228.54
1017.07	228.56
1017.36	228.58
1017.64	228.48
1017.93	228.55
1018.22	228.46
1018.50	228.52
1018.79	228.50
1019.08	228.43
1019.36	228.33
1019.65	228.37
1019.93	228.39
1020.22	228.46
1020.51	228.55
1020.79	228.53
1021.08	228.00
1021.36	228.80
1021.65	228.50
1021.94	228.20
1022.22	226.90
1022.51	229.20
1022.79	228.40
1023.08	228.30
1023.36	231.20
1023.65	227.30
>>>>>End Processed Spectral Data<<<<<
