SpectraSuite Data File
++++++++++++++++++++++++++++++++++++
Date: Fri Feb 01 14:35:37 EST 2013
User: group
Dark Spectrum Present: No
Reference Spectrum Present: No
Number of Sampled Component Spectra: 1
Spectrometers: USB2E7196
Integration Time (usec): 70000 (USB2E7196)
Spectra Averaged: 10 (USB2E7196)
Boxcar Smoothing: 10 (USB2E7196)
Correct for Electrical Dark: No (USB2E7196)
Strobe/Lamp Enabled: No (USB2E7196)
Correct for Detector Non-linearity: No (USB2E7196)
Correct for Stray Light: No (USB2E7196)
Number of Pixels in Processed Spectrum: 2048
>>>>>Begin Processed Spectral Data<<<<<
339.09	0.00
339.48	215.90
339.86	217.20
340.24	219.50
340.63	221.00
341.01	224.90
341.39	224.40
341.78	224.50
342.16	225.60
342.54	225.90
342.93	214.47
343.31	225.31
343.69	225.90
344.07	226.41
344.46	226.84
344.84	227.25
345.22	227.36
345.60	227.51
345.99	227.66
346.37	227.77
346.75	227.91
347.13	227.98
347.52	228.00
347.90	228.06
348.28	228.18
348.66	228.17
349.05	228.07
349.43	228.10
349.81	228.21
350.19	228.35
350.57	228.43
350.96	228.48
351.34	228.63
351.72	228.67
352.10	228.78
352.48	228.81
352.87	228.84
353.25	228.99
353.63	229.10
354.01	229.17
354.39	229.27
354.77	229.39
355.15	229.46
355.54	229.53
355.92	229.66
356.30	229.64
356.68	229.97
357.06	230.07
357.44	230.20
357.82	230.24
358.20	230.23
358.58	230.38
358.97	230.36
359.35	230.39
359.73	230.46
360.11	230.46
360.49	230.50
360.87	230.41
361.25	230.43
361.63	230.50
362.01	230.53
362.39	230.48
362.77	230.40
363.15	230.42
363.53	230.46
363.91	230.41
364.29	230.49
364.67	230.26
365.05	230.21
365.43	230.23
365.81	230.25
366.19	230.37
366.57	230.31
366.95	230.30
367.33	230.24
367.71	230.21
368.09	230.20
368.47	230.11
368.85	230.20
369.23	230.33
369.61	230.21
369.99	230.34
370.37	230.39
370.75	230.51
371.13	230.48
371.51	230.36
371.89	230.36
372.27	230.28
372.65	230.29
373.03	230.24
373.41	230.08
373.78	229.97
374.16	229.88
374.54	229.83
374.92	229.76
375.30	229.78
375.68	229.60
376.06	229.57
376.44	229.47
376.82	229.43
377.19	229.17
377.57	229.07
377.95	228.87
378.33	228.71
378.71	228.49
379.09	228.37
379.47	228.35
379.84	228.24
380.22	228.23
380.60	228.01
380.98	227.97
381.36	227.92
381.73	227.84
382.11	227.79
382.49	227.61
382.87	227.52
383.25	227.30
383.62	227.41
384.00	227.30
384.38	227.40
384.76	227.27
385.13	227.28
385.51	227.24
385.89	227.21
386.27	227.28
386.64	227.24
387.02	227.11
387.40	227.09
387.78	227.10
388.15	226.87
388.53	226.81
388.91	226.77
389.29	226.65
389.66	226.70
390.04	226.60
390.42	226.69
390.79	226.62
391.17	226.58
391.55	226.50
391.92	226.48
392.30	226.43
392.68	226.48
393.05	226.50
393.43	226.50
393.81	226.45
394.18	226.39
394.56	226.46
394.94	226.63
395.31	226.56
395.69	226.60
396.06	226.81
396.44	226.99
396.82	227.03
397.19	227.27
397.57	227.30
397.95	227.54
398.32	227.48
398.70	227.72
399.07	227.90
399.45	227.99
399.82	228.14
400.20	228.23
400.58	228.30
400.95	228.30
401.33	228.49
401.70	228.78
402.08	228.97
402.45	229.12
402.83	229.31
403.20	229.59
403.58	229.77
403.95	230.04
404.33	230.15
404.71	230.47
405.08	230.77
405.46	231.07
405.83	231.22
406.21	231.63
406.58	231.97
406.96	232.31
407.33	232.65
407.70	233.03
408.08	233.64
408.45	234.07
408.83	234.64
409.20	235.12
409.58	235.51
409.95	236.10
410.33	236.62
410.70	237.17
411.08	237.84
411.45	238.65
411.82	239.32
412.20	240.15
412.57	241.08
412.95	241.78
413.32	242.59
413.69	243.50
414.07	244.58
414.44	245.58
414.82	246.65
415.19	248.02
415.56	249.39
415.94	250.63
416.31	252.29
416.68	253.78
417.06	255.55
417.43	257.23
417.81	259.06
418.18	261.05
418.55	263.18
418.93	265.34
419.30	267.47
419.67	269.80
420.04	272.30
420.42	274.91
420.79	277.97
421.16	280.98
421.54	284.11
421.91	287.27
422.28	290.59
422.66	294.22
423.03	297.67
423.40	301.28
423.77	305.11
424.15	308.86
424.52	312.95
424.89	317.28
425.26	321.57
425.64	325.57
426.01	329.81
426.38	334.40
426.75	339.10
427.13	343.86
427.50	348.97
427.87	354.26
428.24	359.30
428.61	364.31
428.99	369.80
429.36	375.79
429.73	381.55
430.10	387.30
430.47	393.18
430.85	399.21
431.22	405.48
431.59	412.31
431.96	418.99
432.33	426.07
432.70	432.90
433.08	441.01
433.45	448.62
433.82	456.62
434.19	465.10
434.56	473.24
434.93	481.16
435.30	488.97
435.68	497.57
436.05	506.38
436.42	514.96
436.79	522.96
437.16	531.30
437.53	540.03
437.90	548.87
438.27	557.33
438.64	566.30
439.01	574.59
439.38	581.82
439.75	588.62
440.13	596.85
440.50	604.78
440.87	611.13
441.24	617.91
441.61	625.36
441.98	630.84
442.35	637.49
442.72	643.95
443.09	650.49
443.46	654.73
443.83	657.52
444.20	660.21
444.57	664.06
444.94	666.26
445.31	668.70
445.68	671.09
446.05	672.64
446.42	672.65
446.79	672.63
447.16	672.62
447.53	672.96
447.90	670.76
448.27	668.68
448.64	665.29
449.01	663.11
449.37	658.12
449.74	653.74
450.11	647.95
450.48	641.72
450.85	635.22
451.22	629.67
451.59	624.60
451.96	619.48
452.33	611.95
452.70	605.64
453.07	597.89
453.43	589.68
453.80	582.00
454.17	574.73
454.54	567.79
454.91	560.14
455.28	552.72
455.65	545.84
456.02	538.43
456.38	532.22
456.75	524.37
457.12	518.01
457.49	511.33
457.86	505.19
458.23	499.96
458.59	493.89
458.96	487.96
459.33	482.43
459.70	476.93
460.07	472.89
460.43	467.84
460.80	462.90
461.17	458.80
461.54	454.34
461.91	450.05
462.27	445.76
462.64	442.07
463.01	438.02
463.38	433.89
463.74	429.90
464.11	426.63
464.48	423.77
464.85	420.37
465.21	417.75
465.58	414.96
465.95	411.63
466.32	409.02
466.68	406.20
467.05	403.46
467.42	400.97
467.78	397.89
468.15	395.08
468.52	393.01
468.88	390.28
469.25	387.97
469.62	386.00
469.98	383.87
470.35	381.98
470.72	380.07
471.08	378.17
471.45	376.47
471.82	374.61
472.18	372.53
472.55	371.06
472.92	369.40
473.28	367.80
473.65	366.42
474.02	364.77
474.38	363.51
474.75	362.37
475.11	360.98
475.48	360.06
475.85	359.28
476.21	358.49
476.58	357.67
476.94	356.96
477.31	356.15
477.67	355.47
478.04	354.70
478.41	354.28
478.77	353.97
479.14	353.52
479.50	353.24
479.87	353.27
480.23	353.07
480.60	352.88
480.96	352.68
481.33	352.66
481.69	352.53
482.06	352.39
482.42	352.27
482.79	352.33
483.15	352.65
483.52	352.86
483.88	352.95
484.25	353.30
484.61	353.72
484.98	354.30
485.34	354.83
485.71	355.56
486.07	356.10
486.44	356.61
486.80	357.38
487.17	357.93
487.53	358.81
487.90	359.78
488.26	360.82
488.62	362.05
488.99	363.18
489.35	364.50
489.72	365.84
490.08	367.33
490.44	368.81
490.81	370.07
491.17	371.51
491.54	373.26
491.90	374.85
492.26	376.57
492.63	378.19
492.99	379.70
493.36	381.44
493.72	383.58
494.08	385.63
494.45	387.76
494.81	389.98
495.17	391.97
495.54	394.07
495.90	396.28
496.26	398.41
496.63	400.60
496.99	403.01
497.35	405.41
497.72	407.73
498.08	410.10
498.44	412.75
498.80	415.49
499.17	417.86
499.53	420.40
499.89	422.85
500.26	425.47
500.62	428.30
500.98	430.99
501.34	433.50
501.71	436.08
502.07	438.62
502.43	441.04
502.79	443.54
503.16	446.15
503.52	448.51
503.88	450.96
504.24	453.40
504.60	455.80
504.97	458.26
505.33	460.67
505.69	463.16
506.05	465.40
506.41	467.49
506.78	469.65
507.14	471.80
507.50	473.98
507.86	476.02
508.22	478.13
508.59	480.03
508.95	481.86
509.31	483.66
509.67	485.59
510.03	487.40
510.39	489.21
510.75	490.96
511.12	492.87
511.48	494.40
511.84	495.96
512.20	497.47
512.56	498.84
512.92	500.34
513.28	501.66
513.64	502.86
514.00	503.91
514.37	505.18
514.73	506.38
515.09	507.59
515.45	508.79
515.81	509.70
516.17	510.82
516.53	511.83
516.89	512.87
517.25	513.72
517.61	514.79
517.97	515.55
518.33	516.26
518.69	516.94
519.05	517.82
519.41	518.54
519.77	519.45
520.13	520.19
520.49	520.94
520.85	521.55
521.21	522.33
521.57	523.37
521.93	524.16
522.29	525.00
522.65	525.80
523.01	526.36
523.37	527.01
523.73	527.61
524.09	528.34
524.45	529.02
524.81	529.92
525.17	530.91
525.53	531.81
525.89	532.69
526.25	533.60
526.61	534.53
526.97	535.35
527.33	536.23
527.68	537.65
528.04	538.60
528.40	539.75
528.76	540.99
529.12	542.09
529.48	543.36
529.84	544.52
530.20	545.99
530.56	547.46
530.91	549.19
531.27	550.90
531.63	552.48
531.99	554.14
532.35	555.62
532.71	557.04
533.07	559.01
533.42	560.98
533.78	562.93
534.14	564.79
534.50	566.95
534.86	569.09
535.21	570.83
535.57	573.14
535.93	575.47
536.29	577.84
536.65	580.23
537.00	582.54
537.36	584.99
537.72	587.13
538.08	589.70
538.44	592.22
538.79	594.76
539.15	597.39
539.51	600.20
539.87	603.25
540.22	606.26
540.58	609.08
540.94	612.04
541.29	614.86
541.65	618.08
542.01	621.24
542.37	624.37
542.72	627.43
543.08	630.46
543.44	633.79
543.79	636.84
544.15	640.23
544.51	643.80
544.87	647.35
545.22	650.75
545.58	654.13
545.94	657.14
546.29	660.65
546.65	664.14
547.01	667.62
547.36	670.93
547.72	674.15
548.07	677.69
548.43	681.01
548.79	684.63
549.14	687.68
549.50	690.82
549.86	694.12
550.21	697.53
550.57	701.08
550.92	704.09
551.28	707.37
551.64	710.75
551.99	714.04
552.35	717.29
552.70	720.95
553.06	724.30
553.41	728.13
553.77	731.51
554.13	735.10
554.48	738.59
554.84	742.09
555.19	745.73
555.55	749.28
555.90	752.73
556.26	756.00
556.61	759.81
556.97	763.40
557.32	766.93
557.68	770.57
558.03	773.89
558.39	777.64
558.74	781.39
559.10	785.10
559.45	788.58
559.81	792.31
560.16	795.56
560.52	799.04
560.87	802.12
561.23	805.23
561.58	808.58
561.94	811.69
562.29	814.76
562.64	817.67
563.00	820.60
563.35	824.03
563.71	827.36
564.06	830.39
564.42	833.61
564.77	836.61
565.12	839.82
565.48	843.05
565.83	845.90
566.19	848.71
566.54	851.10
566.89	853.78
567.25	856.66
567.60	859.75
567.96	862.54
568.31	865.60
568.66	868.50
569.02	870.75
569.37	873.19
569.72	875.60
570.08	878.01
570.43	880.46
570.78	882.38
571.14	884.42
571.49	886.42
571.84	888.53
572.20	890.54
572.55	892.01
572.90	893.50
573.26	895.37
573.61	897.01
573.96	898.64
574.31	899.95
574.67	900.74
575.02	901.58
575.37	902.89
575.72	903.49
576.08	904.47
576.43	905.60
576.78	906.67
577.13	907.88
577.49	908.95
577.84	909.62
578.19	910.56
578.54	911.47
578.90	912.10
579.25	912.37
579.60	912.75
579.95	913.37
580.30	913.94
580.66	913.91
581.01	914.20
581.36	914.52
581.71	914.98
582.06	915.65
582.42	915.66
582.77	915.55
583.12	915.74
583.47	915.91
583.82	915.95
584.17	915.47
584.53	915.18
584.88	915.05
585.23	914.90
585.58	914.63
585.93	914.15
586.28	914.13
586.63	913.90
586.98	913.79
587.34	913.55
587.69	913.23
588.04	913.01
588.39	912.70
588.74	911.85
589.09	910.91
589.44	909.71
589.79	909.32
590.14	908.76
590.49	907.99
590.84	906.86
591.19	906.15
591.54	905.46
591.89	904.06
592.25	902.93
592.60	901.52
592.95	900.19
593.30	898.72
593.65	897.11
594.00	895.70
594.35	894.65
594.70	892.67
595.05	891.10
595.40	889.58
595.75	887.74
596.10	886.38
596.45	885.26
596.80	884.04
597.15	882.30
597.50	880.41
597.85	878.86
598.19	877.44
598.54	875.65
598.89	874.04
599.24	872.80
599.59	871.33
599.94	870.02
600.29	868.23
600.64	866.69
600.99	864.68
601.34	863.02
601.69	860.52
602.04	859.09
602.39	857.08
602.74	855.55
603.08	853.91
603.43	852.26
603.78	850.53
604.13	848.47
604.48	846.64
604.83	844.99
605.18	843.13
605.53	841.13
605.87	838.80
606.22	836.58
606.57	834.17
606.92	832.08
607.27	829.92
607.62	828.25
607.96	826.24
608.31	824.45
608.66	822.22
609.01	820.11
609.36	817.56
609.70	814.90
610.05	812.04
610.40	809.75
610.75	806.95
611.10	803.94
611.44	801.25
611.79	798.67
612.14	795.71
612.49	792.70
612.83	790.00
613.18	787.32
613.53	784.82
613.88	782.10
614.22	779.10
614.57	776.02
614.92	772.81
615.27	770.03
615.61	767.18
615.96	764.33
616.31	761.71
616.65	759.59
617.00	757.20
617.35	754.66
617.70	751.84
618.04	749.02
618.39	746.52
618.74	743.99
619.08	741.21
619.43	738.80
619.78	736.15
620.12	733.25
620.47	730.55
620.82	727.65
621.16	725.04
621.51	722.62
621.85	720.09
622.20	717.23
622.55	714.43
622.89	711.89
623.24	709.34
623.59	706.60
623.93	703.67
624.28	701.15
624.62	698.59
624.97	695.91
625.32	693.38
625.66	690.76
626.01	688.03
626.35	685.39
626.70	682.67
627.04	680.14
627.39	677.41
627.73	674.97
628.08	672.50
628.43	669.88
628.77	666.91
629.12	663.94
629.46	661.29
629.81	658.26
630.15	655.27
630.50	652.50
630.84	649.52
631.19	646.50
631.53	643.59
631.88	640.70
632.22	637.62
632.57	635.10
632.91	632.28
633.26	629.77
633.60	626.83
633.95	624.11
634.29	621.55
634.64	619.20
634.98	616.34
635.32	613.78
635.67	611.25
636.01	608.72
636.36	606.45
636.70	604.11
637.05	601.98
637.39	599.67
637.73	597.17
638.08	594.94
638.42	592.47
638.77	590.20
639.11	587.75
639.45	585.33
639.80	582.74
640.14	580.24
640.49	577.64
640.83	575.47
641.17	572.89
641.52	570.64
641.86	568.25
642.20	566.09
642.55	563.50
642.89	561.18
643.23	558.89
643.58	556.60
643.92	554.07
644.26	551.68
644.61	549.48
644.95	547.19
645.29	544.85
645.64	542.53
645.98	540.16
646.32	537.96
646.66	535.79
647.01	533.62
647.35	531.55
647.69	529.30
648.04	526.95
648.38	524.85
648.72	522.22
649.06	519.79
649.41	517.45
649.75	515.21
650.09	512.60
650.43	510.21
650.78	507.62
651.12	505.40
651.46	503.23
651.80	500.82
652.14	498.50
652.49	496.30
652.83	494.19
653.17	491.91
653.51	489.48
653.85	487.17
654.20	484.74
654.54	482.27
654.88	479.82
655.22	477.59
655.56	475.17
655.90	473.01
656.25	470.87
656.59	468.66
656.93	466.62
657.27	464.58
657.61	462.19
657.95	460.24
658.29	458.16
658.64	455.96
658.98	453.79
659.32	451.65
659.66	449.50
660.00	447.37
660.34	445.19
660.68	443.20
661.02	441.07
661.36	439.09
661.70	437.11
662.05	435.50
662.39	433.61
662.73	431.82
663.07	430.22
663.41	428.40
663.75	426.41
664.09	424.41
664.43	422.74
664.77	421.15
665.11	419.34
665.45	417.58
665.79	415.85
666.13	414.05
666.47	412.36
666.81	410.57
667.15	408.72
667.49	406.94
667.83	405.35
668.17	403.75
668.51	402.07
668.85	400.52
669.19	398.78
669.53	397.16
669.87	395.52
670.21	393.81
670.55	392.15
670.89	390.86
671.23	389.47
671.57	387.92
671.91	386.47
672.25	385.11
672.58	383.74
672.92	382.23
673.26	380.98
673.60	379.59
673.94	378.24
674.28	377.18
674.62	376.10
674.96	374.99
675.30	373.78
675.64	372.55
675.97	371.35
676.31	370.14
676.65	368.87
676.99	367.62
677.33	366.28
677.67	365.14
678.01	363.79
678.34	362.49
678.68	361.20
679.02	359.86
679.36	358.60
679.70	357.40
680.04	356.25
680.37	354.98
680.71	353.86
681.05	352.91
681.39	351.73
681.73	350.66
682.06	349.34
682.40	348.33
682.74	347.26
683.08	346.07
683.42	344.90
683.75	343.81
684.09	342.80
684.43	341.62
684.77	340.29
685.10	339.18
685.44	338.10
685.78	337.05
686.12	336.03
686.45	334.99
686.79	333.84
687.13	332.81
687.46	331.78
687.80	330.72
688.14	329.42
688.48	328.36
688.81	327.17
689.15	326.19
689.49	324.90
689.82	323.93
690.16	322.92
690.50	321.93
690.83	321.00
691.17	319.89
691.51	319.04
691.84	318.27
692.18	317.35
692.52	316.33
692.85	315.44
693.19	314.57
693.52	313.70
693.86	312.79
694.20	311.79
694.53	310.92
694.87	309.92
695.21	309.09
695.54	308.14
695.88	307.22
696.21	306.20
696.55	305.54
696.88	304.74
697.22	303.96
697.56	303.25
697.89	302.39
698.23	301.73
698.56	300.91
698.90	300.17
699.23	299.28
699.57	298.59
699.90	297.74
700.24	297.03
700.58	296.15
700.91	295.43
701.25	294.96
701.58	294.35
701.92	293.66
702.25	292.99
702.59	292.46
702.92	291.88
703.26	291.23
703.59	290.48
703.93	289.91
704.26	289.16
704.60	288.52
704.93	287.94
705.26	287.13
705.60	286.70
705.93	286.00
706.27	285.56
706.60	284.96
706.94	284.52
707.27	283.85
707.61	283.46
707.94	283.02
708.27	282.26
708.61	281.55
708.94	281.06
709.28	280.60
709.61	279.99
709.94	279.52
710.28	279.02
710.61	278.60
710.95	277.90
711.28	277.49
711.61	276.80
711.95	276.21
712.28	275.78
712.61	275.12
712.95	274.75
713.28	274.28
713.61	273.81
713.95	273.13
714.28	272.71
714.61	272.14
714.95	271.64
715.28	271.29
715.61	270.85
715.95	270.35
716.28	269.94
716.61	269.44
716.95	268.97
717.28	268.65
717.61	268.18
717.94	267.84
718.28	267.32
718.61	267.00
718.94	266.62
719.27	266.28
719.61	265.84
719.94	265.23
720.27	264.82
720.60	264.40
720.94	264.21
721.27	263.90
721.60	263.47
721.93	263.09
722.27	262.81
722.60	262.44
722.93	262.13
723.26	261.73
723.59	261.27
723.93	261.00
724.26	260.66
724.59	260.33
724.92	259.90
725.25	259.72
725.59	259.45
725.92	259.22
726.25	258.86
726.58	258.55
726.91	258.40
727.24	258.14
727.57	257.90
727.91	257.58
728.24	257.34
728.57	257.14
728.90	256.81
729.23	256.39
729.56	256.13
729.89	255.92
730.22	255.67
730.55	255.50
730.89	255.13
731.22	254.93
731.55	254.63
731.88	254.49
732.21	254.15
732.54	253.73
732.87	253.38
733.20	253.20
733.53	253.01
733.86	252.74
734.19	252.34
734.52	252.01
734.85	251.89
735.18	251.52
735.51	251.27
735.84	251.00
736.17	250.80
736.50	250.56
736.83	250.47
737.16	250.19
737.49	249.97
737.82	249.72
738.15	249.40
738.48	249.16
738.81	248.88
739.14	248.70
739.47	248.49
739.80	248.36
740.13	248.12
740.46	247.96
740.79	247.85
741.12	247.66
741.45	247.56
741.78	247.29
742.11	247.06
742.44	246.89
742.77	246.70
743.10	246.44
743.43	246.17
743.75	245.85
744.08	245.98
744.41	245.75
744.74	245.64
745.07	245.39
745.40	245.39
745.73	245.23
746.06	245.07
746.39	245.03
746.71	244.68
747.04	244.50
747.37	244.32
747.70	244.01
748.03	243.91
748.36	243.76
748.68	243.51
749.01	243.42
749.34	243.18
749.67	243.14
750.00	243.03
750.33	243.06
750.65	242.86
750.98	242.46
751.31	242.39
751.64	242.23
751.97	242.27
752.29	241.94
752.62	241.81
752.95	241.70
753.28	241.57
753.60	241.60
753.93	241.48
754.26	241.39
754.59	241.30
754.91	241.15
755.24	240.96
755.57	240.93
755.90	240.73
756.22	240.73
756.55	240.60
756.88	240.44
757.20	240.20
757.53	240.13
757.86	239.94
758.19	239.85
758.51	239.80
758.84	239.59
759.17	239.55
759.49	239.50
759.82	239.44
760.15	239.39
760.47	239.16
760.80	238.90
761.13	238.73
761.45	238.68
761.78	238.64
762.11	238.65
762.43	238.51
762.76	238.39
763.08	238.25
763.41	238.12
763.74	238.03
764.06	237.89
764.39	237.69
764.71	237.58
765.04	237.41
765.37	237.21
765.69	237.07
766.02	236.99
766.34	236.79
766.67	236.49
767.00	236.33
767.32	236.46
767.65	236.57
767.97	236.44
768.30	236.30
768.62	236.20
768.95	235.96
769.27	235.84
769.60	235.77
769.92	235.60
770.25	235.47
770.57	235.37
770.90	235.42
771.22	235.40
771.55	235.32
771.87	235.26
772.20	235.18
772.52	235.24
772.85	235.33
773.17	235.23
773.50	235.19
773.82	235.13
774.15	234.93
774.47	234.74
774.80	234.63
775.12	234.57
775.45	234.50
775.77	234.45
776.09	234.34
776.42	234.36
776.74	234.47
777.07	234.39
777.39	234.30
777.72	234.17
778.04	234.20
778.36	234.22
778.69	234.16
779.01	234.06
779.33	233.87
779.66	233.62
779.98	233.53
780.31	233.57
780.63	233.50
780.95	233.49
781.28	233.44
781.60	233.39
781.92	233.30
782.25	233.20
782.57	233.14
782.89	233.00
783.22	232.99
783.54	232.93
783.86	232.84
784.19	232.80
784.51	232.80
784.83	232.63
785.16	232.58
785.48	232.55
785.80	232.59
786.12	232.63
786.45	232.60
786.77	232.60
787.09	232.53
787.42	232.40
787.74	232.36
788.06	232.43
788.38	232.42
788.71	232.39
789.03	232.38
789.35	232.42
789.67	232.53
789.99	232.41
790.32	232.27
790.64	232.31
790.96	232.45
791.28	232.38
791.61	232.33
791.93	232.38
792.25	232.28
792.57	232.34
792.89	232.21
793.21	232.16
793.54	232.17
793.86	232.08
794.18	232.16
794.50	232.10
794.82	231.98
795.14	231.92
795.47	231.98
795.79	231.91
796.11	231.82
796.43	231.84
796.75	231.85
797.07	231.80
797.39	231.84
797.71	231.72
798.04	231.78
798.36	231.78
798.68	231.68
799.00	231.70
799.32	231.65
799.64	231.72
799.96	231.71
800.28	231.82
800.60	231.85
800.92	231.77
801.24	231.81
801.56	231.97
801.89	232.02
802.21	232.07
802.53	232.06
802.85	232.16
803.17	232.22
803.49	232.15
803.81	232.20
804.13	232.01
804.45	231.95
804.77	231.85
805.09	231.76
805.41	231.71
805.73	231.77
806.05	231.63
806.37	231.60
806.69	231.68
807.01	231.49
807.33	231.56
807.65	231.50
807.97	231.54
808.28	231.37
808.60	231.36
808.92	231.25
809.24	231.32
809.56	231.20
809.88	231.05
810.20	231.02
810.52	230.94
810.84	230.96
811.16	230.85
811.48	230.84
811.80	230.87
812.12	230.76
812.43	230.71
812.75	230.69
813.07	230.54
813.39	230.42
813.71	230.42
814.03	230.26
814.35	230.23
814.67	230.10
814.98	230.00
815.30	229.88
815.62	229.71
815.94	229.53
816.26	229.66
816.58	229.58
816.89	229.62
817.21	229.56
817.53	229.52
817.85	229.43
818.17	229.34
818.48	229.22
818.80	229.35
819.12	229.23
819.44	229.21
819.76	229.26
820.07	229.21
820.39	229.19
820.71	229.23
821.03	229.15
821.34	229.13
821.66	229.15
821.98	229.18
822.30	229.27
822.61	229.40
822.93	229.13
823.25	229.10
823.57	229.08
823.88	229.12
824.20	229.15
824.52	229.16
824.83	229.21
825.15	229.11
825.47	229.04
825.79	229.06
826.10	229.06
826.42	229.05
826.74	229.02
827.05	228.92
827.37	228.90
827.69	228.96
828.00	228.89
828.32	228.86
828.64	228.81
828.95	228.86
829.27	228.81
829.58	228.81
829.90	228.87
830.22	228.91
830.53	228.89
830.85	228.84
831.17	228.89
831.48	228.91
831.80	229.05
832.11	229.04
832.43	229.07
832.75	229.03
833.06	229.09
833.38	229.10
833.69	229.15
834.01	229.11
834.32	229.10
834.64	229.13
834.96	229.15
835.27	229.20
835.59	229.23
835.90	229.14
836.22	229.26
836.53	229.31
836.85	229.21
837.16	229.42
837.48	229.38
837.79	229.46
838.11	229.50
838.42	229.51
838.74	229.55
839.05	229.48
839.37	229.51
839.68	229.32
840.00	229.33
840.31	229.35
840.63	229.43
840.94	229.42
841.26	229.30
841.57	229.34
841.88	229.42
842.20	229.20
842.51	229.31
842.83	229.24
843.14	229.30
843.46	229.31
843.77	229.16
844.08	229.21
844.40	229.15
844.71	229.00
845.03	229.04
845.34	228.99
845.65	229.06
845.97	229.06
846.28	229.22
846.60	229.26
846.91	229.32
847.22	229.29
847.54	229.28
847.85	229.38
848.16	229.39
848.48	229.29
848.79	229.48
849.10	229.40
849.42	229.41
849.73	229.16
850.04	229.10
850.36	229.00
850.67	229.10
850.98	229.07
851.30	229.16
851.61	229.07
851.92	229.06
852.23	229.06
852.55	229.03
852.86	228.84
853.17	228.76
853.49	228.74
853.80	228.65
854.11	228.60
854.42	228.59
854.74	228.48
855.05	228.49
855.36	228.47
855.67	228.45
855.99	228.40
856.30	228.66
856.61	228.62
856.92	228.62
857.23	228.48
857.55	228.40
857.86	228.33
858.17	228.33
858.48	228.22
858.79	228.18
859.11	228.25
859.42	228.41
859.73	228.41
860.04	228.41
860.35	228.42
860.66	228.41
860.98	228.44
861.29	228.46
861.60	228.42
861.91	228.37
862.22	228.30
862.53	228.37
862.84	228.09
863.16	228.24
863.47	228.23
863.78	228.24
864.09	228.35
864.40	228.33
864.71	228.38
865.02	228.46
865.33	228.44
865.64	228.36
865.95	228.24
866.27	228.42
866.58	228.38
866.89	228.45
867.20	228.39
867.51	228.38
867.82	228.40
868.13	228.47
868.44	228.49
868.75	228.59
869.06	228.52
869.37	228.62
869.68	228.57
869.99	228.52
870.30	228.55
870.61	228.53
870.92	228.56
871.23	228.50
871.54	228.58
871.85	228.67
872.16	228.72
872.47	228.77
872.78	228.66
873.09	228.73
873.40	228.67
873.71	228.71
874.02	228.75
874.33	228.78
874.64	228.80
874.95	228.88
875.26	228.88
875.56	228.90
875.87	228.90
876.18	228.94
876.49	229.19
876.80	229.14
877.11	229.17
877.42	229.18
877.73	229.28
878.04	229.18
878.35	229.10
878.66	229.13
878.96	229.20
879.27	229.24
879.58	229.17
879.89	229.16
880.20	229.22
880.51	229.12
880.82	229.14
881.12	229.21
881.43	229.11
881.74	229.00
882.05	229.06
882.36	229.11
882.67	229.10
882.97	228.87
883.28	228.97
883.59	228.95
883.90	229.03
884.21	228.99
884.51	229.15
884.82	229.21
885.13	229.22
885.44	229.19
885.74	229.16
886.05	229.17
886.36	229.20
886.67	229.18
886.98	229.31
887.28	229.37
887.59	229.31
887.90	229.24
888.20	229.30
888.51	229.32
888.82	229.26
889.13	229.26
889.43	229.34
889.74	229.35
890.05	229.30
890.35	229.30
890.66	229.32
890.97	229.13
891.28	229.08
891.58	229.00
891.89	228.98
892.20	228.93
892.50	228.92
892.81	228.94
893.12	228.94
893.42	228.81
893.73	228.75
894.04	228.70
894.34	228.80
894.65	228.82
894.95	228.70
895.26	228.67
895.57	228.65
895.87	228.57
896.18	228.58
896.48	228.54
896.79	228.45
897.10	228.46
897.40	228.43
897.71	228.48
898.01	228.43
898.32	228.34
898.63	228.35
898.93	228.29
899.24	228.28
899.54	228.24
899.85	228.23
900.15	228.10
900.46	228.06
900.76	227.97
901.07	227.88
901.38	227.94
901.68	227.91
901.99	227.80
902.29	227.87
902.60	227.83
902.90	227.81
903.21	227.81
903.51	227.77
903.82	227.85
904.12	227.76
904.43	227.82
904.73	227.89
905.03	227.89
905.34	228.13
905.64	228.15
905.95	228.10
906.25	228.10
906.56	228.32
906.86	228.36
907.17	228.30
907.47	228.39
907.77	228.41
908.08	228.51
908.38	228.60
908.69	228.64
908.99	228.66
909.30	228.73
909.60	228.75
909.90	228.79
910.21	228.75
910.51	228.69
910.81	228.77
911.12	228.71
911.42	228.73
911.73	228.52
912.03	228.46
912.33	228.66
912.64	228.72
912.94	228.59
913.24	228.55
913.55	228.74
913.85	228.67
914.15	228.66
914.46	228.62
914.76	228.65
915.06	228.60
915.37	228.60
915.67	228.61
915.97	228.41
916.27	228.45
916.58	228.53
916.88	228.70
917.18	228.60
917.49	228.84
917.79	228.82
918.09	228.88
918.39	228.93
918.70	228.83
919.00	228.84
919.30	228.98
919.60	229.02
919.91	228.95
920.21	228.97
920.51	228.92
920.81	228.84
921.12	228.87
921.42	228.79
921.72	228.75
922.02	228.73
922.32	228.99
922.63	228.90
922.93	228.91
923.23	228.78
923.53	228.78
923.83	228.55
924.13	228.61
924.44	228.63
924.74	228.62
925.04	228.69
925.34	228.62
925.64	228.52
925.94	228.49
926.24	228.66
926.55	228.69
926.85	228.80
927.15	228.82
927.45	228.80
927.75	228.92
928.05	228.88
928.35	228.88
928.65	228.89
928.95	228.90
929.26	228.81
929.56	228.93
929.86	228.92
930.16	229.00
930.46	228.89
930.76	228.85
931.06	228.76
931.36	228.58
931.66	228.49
931.96	228.37
932.26	228.36
932.56	228.13
932.86	228.04
933.16	227.92
933.46	227.94
933.76	227.91
934.06	227.88
934.36	227.99
934.66	227.93
934.96	227.75
935.26	227.67
935.56	227.69
935.86	227.50
936.16	227.53
936.46	227.45
936.76	227.41
937.06	227.34
937.36	227.53
937.66	227.56
937.96	227.62
938.26	227.69
938.56	227.69
938.86	227.77
939.16	227.82
939.46	227.83
939.76	227.81
940.06	227.77
940.35	227.70
940.65	227.66
940.95	227.77
941.25	227.74
941.55	227.80
941.85	227.84
942.15	228.06
942.45	228.03
942.75	228.04
943.04	228.12
943.34	228.15
943.64	227.97
943.94	227.99
944.24	228.00
944.54	227.99
944.84	228.00
945.13	227.97
945.43	227.90
945.73	227.90
946.03	227.89
946.33	227.81
946.62	227.74
946.92	227.73
947.22	227.64
947.52	227.76
947.82	227.85
948.11	227.74
948.41	227.63
948.71	227.60
949.01	227.66
949.31	227.70
949.60	227.69
949.90	227.78
950.20	227.85
950.50	227.87
950.79	227.92
951.09	227.91
951.39	227.93
951.69	228.07
951.98	228.08
952.28	228.12
952.58	228.19
952.87	228.23
953.17	228.21
953.47	228.20
953.76	228.21
954.06	228.20
954.36	228.24
954.66	228.27
954.95	228.25
955.25	228.26
955.55	228.14
955.84	228.21
956.14	228.22
956.44	228.17
956.73	228.24
957.03	228.15
957.32	228.16
957.62	228.10
957.92	228.12
958.21	228.08
958.51	228.26
958.81	228.37
959.10	228.46
959.40	228.50
959.69	228.56
959.99	228.53
960.29	228.45
960.58	228.43
960.88	228.47
961.17	228.54
961.47	228.55
961.76	228.62
962.06	228.52
962.36	228.52
962.65	228.56
962.95	228.48
963.24	228.53
963.54	228.55
963.83	228.63
964.13	228.51
964.42	228.53
964.72	228.35
965.01	228.30
965.31	228.18
965.60	228.04
965.90	228.10
966.19	228.06
966.49	228.00
966.78	228.02
967.08	228.02
967.37	227.97
967.67	227.80
967.96	227.81
968.26	227.94
968.55	227.91
968.85	227.88
969.14	227.85
969.43	227.91
969.73	227.86
970.02	227.86
970.32	227.88
970.61	227.83
970.91	227.75
971.20	227.61
971.49	227.66
971.79	227.74
972.08	227.65
972.38	227.64
972.67	227.69
972.96	227.74
973.26	227.63
973.55	227.62
973.85	227.71
974.14	227.63
974.43	227.62
974.73	227.55
975.02	227.54
975.31	227.55
975.61	227.42
975.90	227.34
976.19	227.23
976.49	227.30
976.78	227.27
977.07	227.30
977.37	227.34
977.66	227.36
977.95	227.40
978.24	227.42
978.54	227.45
978.83	227.44
979.12	227.40
979.42	227.46
979.71	227.49
980.00	227.50
980.29	227.53
980.59	227.53
980.88	227.66
981.17	227.65
981.46	227.73
981.76	227.83
982.05	227.88
982.34	227.92
982.63	227.92
982.93	228.02
983.22	228.13
983.51	228.17
983.80	228.20
984.09	228.18
984.39	228.15
984.68	228.20
984.97	228.25
985.26	228.22
985.55	228.29
985.85	228.21
986.14	228.26
986.43	228.21
986.72	228.16
987.01	228.07
987.30	228.07
987.59	228.01
987.89	227.98
988.18	227.95
988.47	228.00
988.76	227.91
989.05	227.83
989.34	227.81
989.63	227.89
989.92	227.84
990.22	227.82
990.51	227.85
990.80	227.81
991.09	227.69
991.38	227.71
991.67	227.65
991.96	227.69
992.25	227.70
992.54	227.73
992.83	227.70
993.12	227.62
993.41	227.72
993.70	227.86
993.99	227.87
994.28	227.96
994.58	227.94
994.87	227.99
995.16	228.08
995.45	228.05
995.74	227.98
996.03	228.06
996.32	228.08
996.61	228.09
996.90	228.09
997.19	228.27
997.48	228.30
997.77	228.32
998.06	228.31
998.34	228.34
998.63	228.43
998.92	228.50
999.21	228.53
999.50	228.45
999.79	228.38
1000.08	228.29
1000.37	228.33
1000.66	228.33
1000.95	228.32
1001.24	228.33
1001.53	228.34
1001.82	228.32
1002.11	228.20
1002.40	228.23
1002.68	228.26
1002.97	228.43
1003.26	228.29
1003.55	228.25
1003.84	228.18
1004.13	228.33
1004.42	228.21
1004.71	228.14
1004.99	228.12
1005.28	228.16
1005.57	228.17
1005.86	228.19
1006.15	228.19
1006.44	228.10
1006.72	228.10
1007.01	228.08
1007.30	228.11
1007.59	228.09
1007.88	228.10
1008.17	228.20
1008.45	228.21
1008.74	228.09
1009.03	227.97
1009.32	228.01
1009.60	228.03
1009.89	227.93
1010.18	227.83
1010.47	227.83
1010.76	227.83
1011.04	227.81
1011.33	227.88
1011.62	228.00
1011.91	227.96
1012.19	228.07
1012.48	228.16
1012.77	228.20
1013.05	228.30
1013.34	228.20
1013.63	228.19
1013.92	228.23
1014.20	228.23
1014.49	228.16
1014.78	228.22
1015.06	228.04
1015.35	227.99
1015.64	228.05
1015.92	228.10
1016.21	228.13
1016.50	228.20
1016.78	228.25
1017.07	228.18
1017.36	228.16
1017.64	228.03
1017.93	228.08
1018.22	227.98
1018.50	227.99
1018.79	227.96
1019.08	227.84
1019.36	227.86
1019.65	227.90
1019.93	227.91
1020.22	227.84
1020.51	227.87
1020.79	227.84
1021.08	227.20
1021.36	229.10
1021.65	228.80
1021.94	227.10
1022.22	227.70
1022.51	228.60
1022.79	228.30
1023.08	227.70
1023.36	228.50
1023.65	227.40
>>>>>End Processed Spectral Data<<<<<
