SpectraSuite Data File
++++++++++++++++++++++++++++++++++++
Date: Fri Feb 01 14:39:43 EST 2013
User: group
Dark Spectrum Present: No
Reference Spectrum Present: No
Number of Sampled Component Spectra: 1
Spectrometers: USB2E7196
Integration Time (usec): 70000 (USB2E7196)
Spectra Averaged: 10 (USB2E7196)
Boxcar Smoothing: 10 (USB2E7196)
Correct for Electrical Dark: No (USB2E7196)
Strobe/Lamp Enabled: No (USB2E7196)
Correct for Detector Non-linearity: No (USB2E7196)
Correct for Stray Light: No (USB2E7196)
Number of Pixels in Processed Spectrum: 2048
>>>>>Begin Processed Spectral Data<<<<<
339.09	0.00
339.48	216.50
339.86	217.50
340.24	219.30
340.63	219.80
341.01	224.30
341.39	221.70
341.78	223.80
342.16	225.80
342.54	228.60
342.93	214.66
343.31	225.53
343.69	226.13
344.07	226.61
344.46	227.11
344.84	227.56
345.22	227.75
345.60	228.14
345.99	228.38
346.37	228.57
346.75	228.60
347.13	228.77
347.52	228.83
347.90	229.08
348.28	228.99
348.66	229.07
349.05	229.09
349.43	229.10
349.81	229.24
350.19	229.24
350.57	229.23
350.96	229.26
351.34	229.35
351.72	229.33
352.10	229.46
352.48	229.48
352.87	229.47
353.25	229.50
353.63	229.57
354.01	229.61
354.39	229.70
354.77	229.76
355.15	229.89
355.54	230.00
355.92	229.98
356.30	230.00
356.68	230.30
357.06	230.33
357.44	230.39
357.82	230.39
358.20	230.49
358.58	230.61
358.97	230.77
359.35	230.83
359.73	230.90
360.11	230.90
360.49	230.91
360.87	230.96
361.25	231.04
361.63	231.12
362.01	231.20
362.39	231.10
362.77	231.09
363.15	231.16
363.53	231.24
363.91	231.23
364.29	231.36
364.67	231.07
365.05	231.08
365.43	231.06
365.81	231.05
366.19	231.11
366.57	231.20
366.95	231.06
367.33	231.00
367.71	231.01
368.09	230.99
368.47	230.97
368.85	230.93
369.23	230.84
369.61	230.68
369.99	230.64
370.37	230.72
370.75	230.79
371.13	230.52
371.51	230.36
371.89	230.29
372.27	230.14
372.65	230.10
373.03	230.12
373.41	230.06
373.78	230.04
374.16	229.82
374.54	229.60
374.92	229.60
375.30	229.47
375.68	229.39
376.06	229.32
376.44	229.21
376.82	229.15
377.19	229.18
377.57	229.09
377.95	228.84
378.33	228.68
378.71	228.43
379.09	228.40
379.47	228.31
379.84	228.27
380.22	228.18
380.60	228.01
380.98	227.73
381.36	227.65
381.73	227.44
382.11	227.53
382.49	227.46
382.87	227.23
383.25	227.26
383.62	227.39
384.00	227.18
384.38	227.12
384.76	227.10
385.13	227.09
385.51	226.96
385.89	227.02
386.27	226.97
386.64	227.02
387.02	227.03
387.40	227.02
387.78	226.91
388.15	226.89
388.53	226.85
388.91	226.89
389.29	226.86
389.66	226.90
390.04	226.84
390.42	226.86
390.79	226.88
391.17	226.76
391.55	226.57
391.92	226.58
392.30	226.60
392.68	226.54
393.05	226.57
393.43	226.61
393.81	226.55
394.18	226.51
394.56	226.51
394.94	226.57
395.31	226.59
395.69	226.67
396.06	226.72
396.44	226.82
396.82	226.85
397.19	227.10
397.57	227.20
397.95	227.26
398.32	227.34
398.70	227.44
399.07	227.63
399.45	227.67
399.82	227.86
400.20	227.93
400.58	228.07
400.95	228.10
401.33	228.30
401.70	228.57
402.08	228.61
402.45	228.68
402.83	228.81
403.20	228.89
403.58	229.01
403.95	229.21
404.33	229.36
404.71	229.57
405.08	229.72
405.46	229.84
405.83	230.03
406.21	230.20
406.58	230.30
406.96	230.47
407.33	230.69
407.70	230.84
408.08	231.20
408.45	231.54
408.83	231.70
409.20	231.94
409.58	232.07
409.95	232.46
410.33	232.80
410.70	232.96
411.08	233.29
411.45	233.55
411.82	233.76
412.20	234.15
412.57	234.58
412.95	234.71
413.32	235.07
413.69	235.33
414.07	235.72
414.44	236.33
414.82	236.80
415.19	237.32
415.56	237.89
415.94	238.29
416.31	238.75
416.68	239.44
417.06	240.08
417.43	240.75
417.81	241.43
418.18	242.10
418.55	243.09
418.93	243.99
419.30	244.95
419.67	245.87
420.04	246.77
420.42	247.56
420.79	248.77
421.16	249.91
421.54	251.22
421.91	252.48
422.28	253.52
422.66	254.81
423.03	256.17
423.40	257.63
423.77	259.07
424.15	260.50
424.52	261.94
424.89	263.49
425.26	265.04
425.64	266.48
426.01	268.10
426.38	269.70
426.75	271.35
427.13	273.10
427.50	274.86
427.87	276.58
428.24	278.56
428.61	280.27
428.99	282.31
429.36	284.40
429.73	286.41
430.10	288.66
430.47	290.78
430.85	292.75
431.22	295.00
431.59	297.60
431.96	299.91
432.33	302.52
432.70	305.00
433.08	308.00
433.45	310.93
433.82	313.62
434.19	316.68
434.56	319.78
434.93	322.46
435.30	325.37
435.68	328.75
436.05	332.01
436.42	335.03
436.79	337.67
437.16	340.70
437.53	343.83
437.90	346.90
438.27	349.97
438.64	353.20
439.01	356.06
439.38	358.45
439.75	360.92
440.13	363.74
440.50	366.31
440.87	368.35
441.24	370.49
441.61	373.00
441.98	374.58
442.35	376.42
442.72	378.63
443.09	380.84
443.46	381.91
443.83	382.50
444.20	383.28
444.57	384.35
444.94	384.80
445.31	385.26
445.68	385.90
446.05	386.00
446.42	385.80
446.79	385.48
447.16	385.16
447.53	385.00
447.90	383.81
448.27	382.89
448.64	381.31
449.01	380.18
449.37	378.08
449.74	376.30
450.11	374.30
450.48	371.72
450.85	369.12
451.22	366.93
451.59	364.95
451.96	362.95
452.33	360.46
452.70	358.02
453.07	355.08
453.43	351.96
453.80	349.18
454.17	346.35
454.54	343.70
454.91	340.80
455.28	337.90
455.65	335.49
456.02	332.95
456.38	330.87
456.75	328.18
457.12	325.98
457.49	323.55
457.86	320.97
458.23	319.22
458.59	316.89
458.96	314.72
459.33	312.69
459.70	310.68
460.07	308.93
460.43	306.98
460.80	305.33
461.17	303.73
461.54	302.09
461.91	300.53
462.27	299.01
462.64	297.70
463.01	296.25
463.38	294.66
463.74	293.00
464.11	291.66
464.48	290.37
464.85	289.05
465.21	288.07
465.58	287.12
465.95	285.63
466.32	284.61
466.68	283.53
467.05	282.39
467.42	281.34
467.78	280.30
468.15	279.34
468.52	278.57
468.88	277.57
469.25	276.68
469.62	275.86
469.98	274.99
470.35	274.13
470.72	273.45
471.08	272.60
471.45	272.04
471.82	271.23
472.18	270.59
472.55	270.05
472.92	269.35
473.28	268.70
473.65	268.08
474.02	267.31
474.38	266.80
474.75	266.31
475.11	265.79
475.48	265.17
475.85	264.71
476.21	264.32
476.58	263.87
476.94	263.52
477.31	263.26
477.67	262.87
478.04	262.49
478.41	262.15
478.77	261.97
479.14	261.49
479.50	261.28
479.87	261.04
480.23	260.79
480.60	260.67
480.96	260.47
481.33	260.46
481.69	260.48
482.06	260.30
482.42	260.26
482.79	260.12
483.15	260.10
483.52	260.07
483.88	259.82
484.25	259.70
484.61	259.51
484.98	259.30
485.34	259.28
485.71	259.34
486.07	259.33
486.44	259.25
486.80	259.36
487.17	259.22
487.53	259.19
487.90	259.28
488.26	259.31
488.62	259.59
488.99	259.62
489.35	259.78
489.72	259.91
490.08	259.99
490.44	260.14
490.81	260.41
491.17	260.53
491.54	260.83
491.90	261.16
492.26	261.41
492.63	261.73
492.99	262.02
493.36	262.30
493.72	262.59
494.08	262.94
494.45	263.27
494.81	263.91
495.17	264.35
495.54	264.80
495.90	265.20
496.26	265.52
496.63	266.03
496.99	266.58
497.35	267.15
497.72	267.66
498.08	268.32
498.44	268.90
498.80	269.60
499.17	270.29
499.53	270.97
499.89	271.79
500.26	272.60
500.62	273.43
500.98	274.31
501.34	275.17
501.71	276.09
502.07	277.12
502.43	278.10
502.79	279.15
503.16	280.26
503.52	281.48
503.88	282.66
504.24	284.07
504.60	285.34
504.97	286.71
505.33	288.15
505.69	289.79
506.05	291.33
506.41	293.02
506.78	294.78
507.14	296.60
507.50	298.44
507.86	300.50
508.22	302.55
508.59	304.67
508.95	306.89
509.31	309.13
509.67	311.37
510.03	313.79
510.39	316.36
510.75	319.04
511.12	321.71
511.48	324.47
511.84	327.26
512.20	330.25
512.56	333.41
512.92	336.55
513.28	339.82
513.64	343.16
514.00	346.62
514.37	350.08
514.73	353.70
515.09	357.47
515.45	361.13
515.81	365.08
516.17	369.05
516.53	373.11
516.89	377.39
517.25	381.80
517.61	386.24
517.97	390.77
518.33	395.23
518.69	399.91
519.05	404.87
519.41	409.84
519.77	415.10
520.13	420.30
520.49	425.75
520.85	430.97
521.21	436.62
521.57	442.32
521.93	447.91
522.29	453.75
522.65	459.54
523.01	465.50
523.37	471.56
523.73	477.64
524.09	483.94
524.45	490.44
524.81	496.99
525.17	503.61
525.53	510.30
525.89	517.10
526.25	524.27
526.61	531.20
526.97	538.17
527.33	545.18
527.68	552.58
528.04	559.83
528.40	567.50
528.76	575.04
529.12	582.57
529.48	590.55
529.84	598.30
530.20	606.32
530.56	614.39
530.91	622.49
531.27	630.96
531.63	639.20
531.99	647.33
532.35	655.56
532.71	663.62
533.07	672.10
533.42	680.81
533.78	689.10
534.14	697.58
534.50	706.12
534.86	714.71
535.21	723.16
535.57	731.98
535.93	740.63
536.29	749.44
536.65	758.22
537.00	766.66
537.36	775.38
537.72	783.94
538.08	792.85
538.44	801.43
538.79	810.10
539.15	818.75
539.51	827.79
539.87	836.83
540.22	845.79
540.58	854.95
540.94	863.37
541.29	872.08
541.65	880.90
542.01	889.91
542.37	898.70
542.72	907.21
543.08	915.67
543.44	924.34
543.79	932.18
544.15	940.74
544.51	949.64
544.87	958.40
545.22	966.94
545.58	975.26
545.94	983.50
546.29	991.48
546.65	999.40
547.01	1007.41
547.36	1014.92
547.72	1022.82
548.07	1030.46
548.43	1038.25
548.79	1045.94
549.14	1053.42
549.50	1060.45
549.86	1067.62
550.21	1074.97
550.57	1082.38
550.92	1089.40
551.28	1096.82
551.64	1104.02
551.99	1110.82
552.35	1117.45
552.70	1124.49
553.06	1131.67
553.41	1138.60
553.77	1145.63
554.13	1152.62
554.48	1159.16
554.84	1166.16
555.19	1172.50
555.55	1178.83
555.90	1185.14
556.26	1191.40
556.61	1197.30
556.97	1203.20
557.32	1209.71
557.68	1215.88
558.03	1221.62
558.39	1227.45
558.74	1233.67
559.10	1239.35
559.45	1245.40
559.81	1251.51
560.16	1256.70
560.52	1261.70
560.87	1267.30
561.23	1272.43
561.58	1277.83
561.94	1282.63
562.29	1287.20
562.64	1292.07
563.00	1296.80
563.35	1301.71
563.71	1306.94
564.06	1312.31
564.42	1317.56
564.77	1321.98
565.12	1326.41
565.48	1331.20
565.83	1335.35
566.19	1339.37
566.54	1343.15
566.89	1346.63
567.25	1350.48
567.60	1354.64
567.96	1358.29
568.31	1361.62
568.66	1364.78
569.02	1367.90
569.37	1370.96
569.72	1374.33
570.08	1377.21
570.43	1379.86
570.78	1382.47
571.14	1384.27
571.49	1386.53
571.84	1389.00
572.20	1391.23
572.55	1393.11
572.90	1394.80
573.26	1397.04
573.61	1398.60
573.96	1400.14
574.31	1401.38
574.67	1401.84
575.02	1402.51
575.37	1403.31
575.72	1403.39
576.08	1404.24
576.43	1404.37
576.78	1405.03
577.13	1405.52
577.49	1406.35
577.84	1406.83
578.19	1407.19
578.54	1407.36
578.90	1406.71
579.25	1405.97
579.60	1405.15
579.95	1404.60
580.30	1403.83
580.66	1402.73
581.01	1401.88
581.36	1401.25
581.71	1400.94
582.06	1400.58
582.42	1399.73
582.77	1398.66
583.12	1398.26
583.47	1397.69
583.82	1397.43
584.17	1396.20
584.53	1395.04
584.88	1393.62
585.23	1392.20
585.58	1390.45
585.93	1389.49
586.28	1388.88
586.63	1388.00
586.98	1386.80
587.34	1385.86
587.69	1384.40
588.04	1382.83
588.39	1381.46
588.74	1378.90
589.09	1376.48
589.44	1374.14
589.79	1372.41
590.14	1370.69
590.49	1368.77
590.84	1366.13
591.19	1363.98
591.54	1361.40
591.89	1358.28
592.25	1355.74
592.60	1352.72
592.95	1350.14
593.30	1346.85
593.65	1343.41
594.00	1339.97
594.35	1337.50
594.70	1334.04
595.05	1331.29
595.40	1328.16
595.75	1324.64
596.10	1322.26
596.45	1319.50
596.80	1316.62
597.15	1314.14
597.50	1310.85
597.85	1307.82
598.19	1304.88
598.54	1301.34
598.89	1298.62
599.24	1296.21
599.59	1293.37
599.94	1290.85
600.29	1287.79
600.64	1284.91
600.99	1281.36
601.34	1278.41
601.69	1274.62
602.04	1271.35
602.39	1267.94
602.74	1265.21
603.08	1262.61
603.43	1259.68
603.78	1256.26
604.13	1253.10
604.48	1248.85
604.83	1245.59
605.18	1242.24
605.53	1238.56
605.87	1234.49
606.22	1230.77
606.57	1226.48
606.92	1222.51
607.27	1218.56
607.62	1215.34
607.96	1211.54
608.31	1208.23
608.66	1203.99
609.01	1199.68
609.36	1195.32
609.70	1190.36
610.05	1185.58
610.40	1181.05
610.75	1176.13
611.10	1171.50
611.44	1166.64
611.79	1162.30
612.14	1157.66
612.49	1152.36
612.83	1147.29
613.18	1142.98
613.53	1138.59
613.88	1133.95
614.22	1129.02
614.57	1124.13
614.92	1119.07
615.27	1114.45
615.61	1109.41
615.96	1104.92
616.31	1100.87
616.65	1096.85
617.00	1093.05
617.35	1088.59
617.70	1083.63
618.04	1078.94
618.39	1074.48
618.74	1070.01
619.08	1065.18
619.43	1060.54
619.78	1056.29
620.12	1052.02
620.47	1047.29
620.82	1042.16
621.16	1037.81
621.51	1033.62
621.85	1029.03
622.20	1024.00
622.55	1019.54
622.89	1015.46
623.24	1011.13
623.59	1006.63
623.93	1001.99
624.28	997.10
624.62	992.63
624.97	988.56
625.32	984.54
625.66	980.22
626.01	975.96
626.35	971.57
626.70	966.94
627.04	962.67
627.39	958.16
627.73	953.77
628.08	949.35
628.43	945.00
628.77	940.43
629.12	936.00
629.46	931.94
629.81	927.02
630.15	921.96
630.50	917.08
630.84	911.99
631.19	907.15
631.53	902.71
631.88	897.98
632.22	892.73
632.57	887.94
632.91	882.91
633.26	877.95
633.60	873.24
633.95	868.93
634.29	864.45
634.64	860.08
634.98	855.50
635.32	851.61
635.67	847.49
636.01	843.14
636.36	838.60
636.70	834.15
637.05	829.87
637.39	825.68
637.73	821.50
638.08	817.99
638.42	814.12
638.77	810.13
639.11	805.83
639.45	802.17
639.80	798.05
640.14	794.41
640.49	790.53
640.83	786.42
641.17	782.60
641.52	778.30
641.86	774.29
642.20	770.40
642.55	765.87
642.89	761.51
643.23	757.39
643.58	753.66
643.92	749.66
644.26	745.86
644.61	742.22
644.95	738.43
645.29	733.60
645.64	729.09
645.98	724.96
646.32	721.20
646.66	717.12
647.01	713.02
647.35	708.92
647.69	705.08
648.04	701.57
648.38	697.31
648.72	693.16
649.06	689.00
649.41	685.14
649.75	681.32
650.09	677.10
650.43	673.09
650.78	668.95
651.12	664.98
651.46	661.05
651.80	657.05
652.14	653.13
652.49	649.35
652.83	645.92
653.17	642.00
653.51	638.19
653.85	634.29
654.20	630.55
654.54	626.69
654.88	622.60
655.22	618.28
655.56	614.41
655.90	610.81
656.25	607.31
656.59	603.60
656.93	600.03
657.27	596.73
657.61	592.90
657.95	589.69
658.29	586.10
658.64	582.41
658.98	578.86
659.32	575.15
659.66	571.76
660.00	568.19
660.34	564.85
660.68	561.46
661.02	558.02
661.36	554.79
661.70	551.65
662.05	548.60
662.39	545.88
662.73	542.89
663.07	540.04
663.41	537.05
663.75	534.00
664.09	531.06
664.43	528.15
664.77	525.63
665.11	522.61
665.45	519.91
665.79	517.10
666.13	514.24
666.47	511.70
666.81	509.03
667.15	506.02
667.49	503.39
667.83	500.81
668.17	498.28
668.51	495.45
668.85	492.66
669.19	490.23
669.53	487.35
669.87	484.60
670.21	482.02
670.55	479.32
670.89	476.99
671.23	474.68
671.57	472.32
671.91	469.81
672.25	467.46
672.58	465.01
672.92	462.69
673.26	460.60
673.60	458.27
673.94	456.12
674.28	454.28
674.62	452.27
674.96	449.86
675.30	447.87
675.64	445.98
675.97	443.99
676.31	441.80
676.65	439.87
676.99	438.13
677.33	435.99
677.67	434.10
678.01	432.03
678.34	429.92
678.68	427.84
679.02	425.94
679.36	423.95
679.70	422.00
680.04	420.03
680.37	418.10
680.71	416.10
681.05	414.37
681.39	412.57
681.73	410.69
682.06	409.02
682.40	407.31
682.74	405.48
683.08	403.70
683.42	401.86
683.75	400.20
684.09	398.30
684.43	396.51
684.77	394.62
685.10	392.89
685.44	391.16
685.78	389.41
686.12	387.58
686.45	385.86
686.79	384.12
687.13	382.66
687.46	380.84
687.80	379.39
688.14	377.40
688.48	375.72
688.81	374.02
689.15	372.41
689.49	370.66
689.82	369.05
690.16	367.53
690.50	366.14
690.83	364.42
691.17	362.78
691.51	361.29
691.84	359.99
692.18	358.53
692.52	357.05
692.85	355.53
693.19	354.16
693.52	352.69
693.86	351.24
694.20	349.72
694.53	348.39
694.87	346.85
695.21	345.60
695.54	344.14
695.88	342.66
696.21	341.24
696.55	339.96
696.88	338.60
697.22	337.21
697.56	335.81
697.89	334.76
698.23	333.58
698.56	332.36
698.90	331.08
699.23	329.84
699.57	328.50
699.90	327.36
700.24	326.10
700.58	325.01
700.91	323.91
701.25	322.84
701.58	321.89
701.92	320.84
702.25	319.82
702.59	318.81
702.92	317.81
703.26	316.88
703.59	315.83
703.93	315.08
704.26	314.11
704.60	313.11
704.93	312.06
705.26	311.12
705.60	310.26
705.93	309.27
706.27	308.44
706.60	307.69
706.94	306.92
707.27	306.05
707.61	305.24
707.94	304.43
708.27	303.51
708.61	302.57
708.94	301.89
709.28	301.23
709.61	300.46
709.94	299.74
710.28	299.01
710.61	298.21
710.95	297.22
711.28	296.68
711.61	295.97
711.95	295.29
712.28	294.53
712.61	293.73
712.95	293.07
713.28	292.25
713.61	291.58
713.95	290.77
714.28	290.08
714.61	289.32
714.95	288.63
715.28	288.03
715.61	287.38
715.95	286.62
716.28	285.76
716.61	285.24
716.95	284.58
717.28	283.94
717.61	283.32
717.94	282.85
718.28	281.99
718.61	281.35
718.94	280.68
719.27	280.03
719.61	279.57
719.94	279.04
720.27	278.64
720.60	277.99
720.94	277.46
721.27	276.89
721.60	276.45
721.93	275.92
722.27	275.45
722.60	274.98
722.93	274.51
723.26	274.02
723.59	273.38
723.93	272.90
724.26	272.40
724.59	271.98
724.92	271.37
725.25	270.95
725.59	270.53
725.92	270.00
726.25	269.57
726.58	269.10
726.91	268.63
727.24	268.12
727.57	267.69
727.91	267.30
728.24	267.01
728.57	266.52
728.90	266.16
729.23	265.60
729.56	265.27
729.89	264.81
730.22	264.42
730.55	263.99
730.89	263.65
731.22	263.22
731.55	262.77
731.88	262.27
732.21	261.96
732.54	261.58
732.87	261.28
733.20	260.97
733.53	260.56
733.86	260.17
734.19	259.66
734.52	259.37
734.85	259.03
735.18	258.58
735.51	258.28
735.84	257.97
736.17	257.74
736.50	257.20
736.83	257.06
737.16	256.76
737.49	256.55
737.82	256.11
738.15	255.75
738.48	255.52
738.81	255.41
739.14	255.03
739.47	254.73
739.80	254.39
740.13	254.16
740.46	253.82
740.79	253.53
741.12	253.30
741.45	253.05
741.78	252.83
742.11	252.59
742.44	252.29
742.77	252.06
743.10	251.75
743.43	251.53
743.75	251.15
744.08	251.20
744.41	250.98
744.74	250.86
745.07	250.69
745.40	250.47
745.73	250.40
746.06	250.20
746.39	249.97
746.71	249.73
747.04	249.46
747.37	249.21
747.70	249.09
748.03	248.94
748.36	248.68
748.68	248.37
749.01	248.19
749.34	247.91
749.67	247.59
750.00	247.43
750.33	247.44
750.65	247.28
750.98	246.85
751.31	246.60
751.64	246.50
751.97	246.32
752.29	246.02
752.62	245.54
752.95	245.37
753.28	245.22
753.60	245.13
753.93	245.02
754.26	244.93
754.59	244.73
754.91	244.47
755.24	244.36
755.57	244.17
755.90	243.99
756.22	243.95
756.55	243.83
756.88	243.61
757.20	243.24
757.53	242.99
757.86	242.82
758.19	242.75
758.51	242.47
758.84	242.32
759.17	242.16
759.49	242.07
759.82	241.94
760.15	241.72
760.47	241.60
760.80	241.36
761.13	241.30
761.45	241.10
761.78	240.99
762.11	240.75
762.43	240.55
762.76	240.34
763.08	240.13
763.41	240.01
763.74	239.94
764.06	239.87
764.39	239.78
764.71	239.54
765.04	239.32
765.37	239.11
765.69	238.92
766.02	238.84
766.34	238.65
766.67	238.51
767.00	238.41
767.32	238.38
767.65	238.34
767.97	238.10
768.30	238.05
768.62	237.83
768.95	237.72
769.27	237.61
769.60	237.50
769.92	237.33
770.25	237.23
770.57	237.01
770.90	236.76
771.22	236.59
771.55	236.45
771.87	236.29
772.20	236.15
772.52	236.19
772.85	236.23
773.17	236.09
773.50	235.96
773.82	235.81
774.15	235.53
774.47	235.23
774.80	235.18
775.12	234.95
775.45	234.93
775.77	234.78
776.09	234.70
776.42	234.59
776.74	234.58
777.07	234.41
777.39	234.40
777.72	234.37
778.04	234.23
778.36	234.19
778.69	234.20
779.01	234.24
779.33	233.97
779.66	233.65
779.98	233.80
780.31	233.72
780.63	233.79
780.95	233.76
781.28	233.79
781.60	233.70
781.92	233.63
782.25	233.65
782.57	233.66
782.89	233.63
783.22	233.55
783.54	233.48
783.86	233.34
784.19	233.23
784.51	233.25
784.83	233.28
785.16	233.24
785.48	233.13
785.80	233.07
786.12	233.15
786.45	233.18
786.77	233.06
787.09	232.99
787.42	232.97
787.74	232.90
788.06	232.94
788.38	232.96
788.71	232.89
789.03	232.87
789.35	232.92
789.67	232.91
789.99	232.91
790.32	232.88
790.64	233.01
790.96	233.10
791.28	233.06
791.61	233.01
791.93	233.00
792.25	232.98
792.57	233.10
792.89	233.02
793.21	233.06
793.54	233.10
793.86	233.05
794.18	233.00
794.50	232.93
794.82	232.82
795.14	232.73
795.47	232.87
795.79	232.81
796.11	232.68
796.43	232.59
796.75	232.70
797.07	232.67
797.39	232.55
797.71	232.44
798.04	232.49
798.36	232.50
798.68	232.40
799.00	232.44
799.32	232.40
799.64	232.44
799.96	232.34
800.28	232.23
800.60	232.27
800.92	232.25
801.24	232.32
801.56	232.32
801.89	232.36
802.21	232.25
802.53	232.24
802.85	232.35
803.17	232.42
803.49	232.20
803.81	232.13
804.13	232.11
804.45	232.05
804.77	232.01
805.09	231.95
805.41	232.00
805.73	231.91
806.05	231.78
806.37	231.81
806.69	231.83
807.01	231.80
807.33	231.74
807.65	231.64
807.97	231.61
808.28	231.57
808.60	231.46
808.92	231.40
809.24	231.36
809.56	231.12
809.88	231.17
810.20	231.30
810.52	231.26
810.84	231.17
811.16	231.19
811.48	231.09
811.80	231.08
812.12	231.01
812.43	230.94
812.75	230.87
813.07	230.73
813.39	230.70
813.71	230.58
814.03	230.64
814.35	230.58
814.67	230.43
814.98	230.39
815.30	230.43
815.62	230.44
815.94	230.37
816.26	230.48
816.58	230.29
816.89	230.30
817.21	230.14
817.53	230.12
817.85	230.06
818.17	230.01
818.48	229.94
818.80	229.96
819.12	229.89
819.44	229.91
819.76	229.86
820.07	229.78
820.39	229.77
820.71	229.69
821.03	229.66
821.34	229.62
821.66	229.65
821.98	229.59
822.30	229.56
822.61	229.61
822.93	229.47
823.25	229.45
823.57	229.39
823.88	229.50
824.20	229.56
824.52	229.58
824.83	229.61
825.15	229.52
825.47	229.58
825.79	229.58
826.10	229.56
826.42	229.61
826.74	229.69
827.05	229.74
827.37	229.71
827.69	229.77
828.00	229.83
828.32	229.84
828.64	229.75
828.95	229.84
829.27	229.83
829.58	229.89
829.90	229.95
830.22	229.91
830.53	229.90
830.85	229.92
831.17	229.83
831.48	229.78
831.80	229.76
832.11	229.74
832.43	229.74
832.75	229.69
833.06	229.81
833.38	229.78
833.69	229.80
834.01	229.82
834.32	229.78
834.64	229.73
834.96	229.66
835.27	229.68
835.59	229.68
835.90	229.59
836.22	229.62
836.53	229.55
836.85	229.50
837.16	229.74
837.48	229.72
837.79	229.90
838.11	229.94
838.42	230.02
838.74	229.93
839.05	229.96
839.37	230.00
839.68	229.80
840.00	229.77
840.31	229.79
840.63	229.80
840.94	229.82
841.26	229.88
841.57	229.94
841.88	230.00
842.20	229.86
842.51	229.91
842.83	229.89
843.14	230.01
843.46	230.04
843.77	229.92
844.08	229.89
844.40	229.77
844.71	229.73
845.03	229.66
845.34	229.71
845.65	229.80
845.97	229.84
846.28	229.79
846.60	229.86
846.91	229.80
847.22	229.82
847.54	229.78
847.85	229.78
848.16	229.76
848.48	229.78
848.79	229.81
849.10	229.84
849.42	229.82
849.73	229.70
850.04	229.66
850.36	229.55
850.67	229.45
850.98	229.45
851.30	229.50
851.61	229.51
851.92	229.45
852.23	229.28
852.55	229.25
852.86	229.30
853.17	229.33
853.49	229.34
853.80	229.29
854.11	229.32
854.42	229.31
854.74	229.29
855.05	229.26
855.36	229.20
855.67	229.11
855.99	228.98
856.30	229.20
856.61	229.19
856.92	229.20
857.23	229.26
857.55	229.22
857.86	229.11
858.17	229.08
858.48	229.00
858.79	229.15
859.11	229.12
859.42	229.10
859.73	228.91
860.04	228.88
860.35	228.78
860.66	228.75
860.98	228.74
861.29	228.67
861.60	228.69
861.91	228.72
862.22	228.69
862.53	228.73
862.84	228.50
863.16	228.61
863.47	228.54
863.78	228.56
864.09	228.56
864.40	228.63
864.71	228.70
865.02	228.76
865.33	228.58
865.64	228.51
865.95	228.55
866.27	228.75
866.58	228.67
866.89	228.73
867.20	228.76
867.51	228.67
867.82	228.70
868.13	228.75
868.44	228.73
868.75	228.78
869.06	228.90
869.37	228.86
869.68	228.70
869.99	228.82
870.30	228.77
870.61	228.83
870.92	228.76
871.23	228.70
871.54	228.80
871.85	228.90
872.16	228.96
872.47	228.89
872.78	228.75
873.09	228.85
873.40	228.86
873.71	228.78
874.02	228.81
874.33	228.87
874.64	228.72
874.95	228.68
875.26	228.61
875.56	228.60
875.87	228.69
876.18	228.70
876.49	228.89
876.80	228.97
877.11	228.95
877.42	228.94
877.73	229.02
878.04	228.99
878.35	228.99
878.66	229.03
878.96	229.07
879.27	229.06
879.58	229.05
879.89	229.06
880.20	229.12
880.51	229.20
880.82	229.19
881.12	229.21
881.43	229.25
881.74	229.35
882.05	229.26
882.36	229.22
882.67	229.27
882.97	228.94
883.28	228.94
883.59	228.90
883.90	228.92
884.21	228.98
884.51	228.96
884.82	228.96
885.13	228.94
885.44	228.86
885.74	228.89
886.05	228.88
886.36	228.83
886.67	228.82
886.98	228.82
887.28	228.78
887.59	228.77
887.90	228.70
888.20	228.62
888.51	228.74
888.82	228.70
889.13	228.69
889.43	228.93
889.74	228.82
890.05	228.77
890.35	228.68
890.66	228.51
890.97	228.44
891.28	228.44
891.58	228.40
891.89	228.47
892.20	228.42
892.50	228.42
892.81	228.40
893.12	228.37
893.42	228.25
893.73	228.30
894.04	228.40
894.34	228.49
894.65	228.46
894.95	228.32
895.26	228.36
895.57	228.45
895.87	228.20
896.18	228.22
896.48	228.31
896.79	228.42
897.10	228.49
897.40	228.57
897.71	228.53
898.01	228.46
898.32	228.45
898.63	228.46
898.93	228.47
899.24	228.39
899.54	228.37
899.85	228.38
900.15	228.31
900.46	228.30
900.76	228.23
901.07	228.30
901.38	228.32
901.68	228.20
901.99	228.10
902.29	228.12
902.60	228.23
902.90	228.23
903.21	228.21
903.51	228.22
903.82	228.08
904.12	228.05
904.43	228.13
904.73	228.12
905.03	228.22
905.34	228.37
905.64	228.43
905.95	228.34
906.25	228.40
906.56	228.37
906.86	228.39
907.17	228.37
907.47	228.34
907.77	228.36
908.08	228.35
908.38	228.40
908.69	228.48
908.99	228.37
909.30	228.35
909.60	228.30
909.90	228.33
910.21	228.41
910.51	228.44
910.81	228.45
911.12	228.49
911.42	228.44
911.73	228.30
912.03	228.31
912.33	228.42
912.64	228.49
912.94	228.48
913.24	228.40
913.55	228.49
913.85	228.51
914.15	228.61
914.46	228.81
914.76	228.75
915.06	228.72
915.37	228.73
915.67	228.71
915.97	228.83
916.27	228.79
916.58	228.80
916.88	228.76
917.18	228.75
917.49	228.80
917.79	228.78
918.09	228.78
918.39	228.87
918.70	228.97
919.00	228.97
919.30	229.13
919.60	229.15
919.91	229.04
920.21	229.04
920.51	229.00
920.81	228.93
921.12	228.99
921.42	229.01
921.72	229.11
922.02	229.10
922.32	229.06
922.63	229.01
922.93	229.13
923.23	229.29
923.53	229.13
923.83	229.06
924.13	229.03
924.44	229.00
924.74	229.06
925.04	228.95
925.34	228.88
925.64	228.70
925.94	228.71
926.24	228.85
926.55	228.78
926.85	228.85
927.15	228.78
927.45	228.80
927.75	228.75
928.05	228.60
928.35	228.55
928.65	228.62
928.95	228.72
929.26	228.56
929.56	228.45
929.86	228.55
930.16	228.50
930.46	228.49
930.76	228.43
931.06	228.25
931.36	228.20
931.66	228.20
931.96	228.31
932.26	228.27
932.56	228.13
932.86	228.11
933.16	228.00
933.46	227.92
933.76	227.82
934.06	227.81
934.36	227.91
934.66	227.89
934.96	227.81
935.26	227.74
935.56	227.71
935.86	227.58
936.16	227.66
936.46	227.59
936.76	227.57
937.06	227.56
937.36	227.61
937.66	227.61
937.96	227.64
938.26	227.63
938.56	227.67
938.86	227.77
939.16	227.77
939.46	227.73
939.76	227.78
940.06	227.82
940.35	227.79
940.65	227.70
940.95	227.75
941.25	227.60
941.55	227.52
941.85	227.57
942.15	227.66
942.45	227.71
942.75	227.72
943.04	227.75
943.34	227.83
943.64	227.81
943.94	227.84
944.24	227.81
944.54	227.70
944.84	227.70
945.13	227.70
945.43	227.72
945.73	227.69
946.03	227.79
946.33	227.81
946.62	227.76
946.92	227.73
947.22	227.71
947.52	227.82
947.82	227.90
948.11	227.95
948.41	227.92
948.71	227.72
949.01	227.64
949.31	227.62
949.60	227.63
949.90	227.62
950.20	227.59
950.50	227.60
950.79	227.59
951.09	227.61
951.39	227.50
951.69	227.50
951.98	227.65
952.28	227.52
952.58	227.50
952.87	227.55
953.17	227.68
953.47	227.70
953.76	227.73
954.06	227.81
954.36	227.74
954.66	227.70
954.95	227.91
955.25	228.08
955.55	228.11
955.84	228.01
956.14	228.11
956.44	228.08
956.73	228.07
957.03	228.16
957.32	228.14
957.62	228.20
957.92	228.17
958.21	228.16
958.51	228.43
958.81	228.41
959.10	228.40
959.40	228.42
959.69	228.51
959.99	228.47
960.29	228.29
960.58	228.27
960.88	228.46
961.17	228.37
961.47	228.40
961.76	228.34
962.06	228.47
962.36	228.47
962.65	228.53
962.95	228.40
963.24	228.33
963.54	228.31
963.83	228.34
964.13	228.40
964.42	228.36
964.72	228.20
965.01	228.21
965.31	228.23
965.60	228.20
965.90	228.20
966.19	228.20
966.49	228.33
966.78	228.36
967.08	228.27
967.37	228.31
967.67	228.26
967.96	228.24
968.26	228.18
968.55	228.22
968.85	228.20
969.14	228.30
969.43	228.25
969.73	228.30
970.02	228.30
970.32	228.28
970.61	228.23
970.91	228.25
971.20	228.21
971.49	228.21
971.79	228.29
972.08	228.27
972.38	228.29
972.67	228.24
972.96	228.21
973.26	228.17
973.55	228.22
973.85	228.26
974.14	228.28
974.43	228.27
974.73	228.14
975.02	228.09
975.31	228.06
975.61	228.11
975.90	228.14
976.19	228.14
976.49	228.14
976.78	228.18
977.07	228.08
977.37	228.12
977.66	228.17
977.95	228.07
978.24	228.09
978.54	228.10
978.83	228.14
979.12	228.24
979.42	228.29
979.71	228.19
980.00	228.14
980.29	228.19
980.59	228.32
980.88	228.42
981.17	228.50
981.46	228.49
981.76	228.61
982.05	228.62
982.34	228.58
982.63	228.59
982.93	228.64
983.22	228.78
983.51	228.77
983.80	228.73
984.09	228.76
984.39	228.71
984.68	228.74
984.97	228.67
985.26	228.68
985.55	228.68
985.85	228.65
986.14	228.76
986.43	228.86
986.72	228.68
987.01	228.66
987.30	228.70
987.59	228.75
987.89	228.66
988.18	228.63
988.47	228.72
988.76	228.80
989.05	228.71
989.34	228.58
989.63	228.64
989.92	228.61
990.22	228.49
990.51	228.50
990.80	228.46
991.09	228.53
991.38	228.54
991.67	228.49
991.96	228.54
992.25	228.41
992.54	228.36
992.83	228.38
993.12	228.33
993.41	228.29
993.70	228.32
993.99	228.44
994.28	228.48
994.58	228.43
994.87	228.34
995.16	228.49
995.45	228.58
995.74	228.57
996.03	228.62
996.32	228.79
996.61	228.80
996.90	228.84
997.19	228.75
997.48	228.75
997.77	228.77
998.06	228.69
998.34	228.74
998.63	228.70
998.92	228.69
999.21	228.68
999.50	228.74
999.79	228.74
1000.08	228.76
1000.37	228.74
1000.66	228.75
1000.95	228.79
1001.24	228.61
1001.53	228.61
1001.82	228.52
1002.11	228.55
1002.40	228.51
1002.68	228.57
1002.97	228.70
1003.26	228.80
1003.55	228.67
1003.84	228.70
1004.13	228.78
1004.42	228.75
1004.71	228.81
1004.99	228.81
1005.28	228.79
1005.57	228.65
1005.86	228.61
1006.15	228.46
1006.44	228.42
1006.72	228.33
1007.01	228.36
1007.30	228.34
1007.59	228.34
1007.88	228.35
1008.17	228.30
1008.45	228.29
1008.74	228.16
1009.03	228.00
1009.32	227.90
1009.60	227.94
1009.89	227.94
1010.18	227.84
1010.47	227.80
1010.76	227.61
1011.04	227.66
1011.33	227.72
1011.62	227.83
1011.91	227.92
1012.19	228.03
1012.48	228.02
1012.77	228.09
1013.05	228.10
1013.34	228.18
1013.63	228.19
1013.92	228.28
1014.20	228.28
1014.49	228.34
1014.78	228.29
1015.06	228.30
1015.35	228.34
1015.64	228.43
1015.92	228.44
1016.21	228.43
1016.50	228.43
1016.78	228.50
1017.07	228.57
1017.36	228.53
1017.64	228.47
1017.93	228.40
1018.22	228.33
1018.50	228.32
1018.79	228.30
1019.08	228.22
1019.36	228.29
1019.65	228.21
1019.93	228.14
1020.22	228.27
1020.51	228.32
1020.79	228.44
1021.08	228.40
1021.36	227.80
1021.65	228.00
1021.94	228.40
1022.22	229.50
1022.51	227.70
1022.79	228.30
1023.08	230.80
1023.36	230.80
1023.65	228.90
>>>>>End Processed Spectral Data<<<<<
