SpectraSuite Data File
++++++++++++++++++++++++++++++++++++
Date: Fri Feb 01 14:39:25 EST 2013
User: group
Dark Spectrum Present: No
Reference Spectrum Present: No
Number of Sampled Component Spectra: 1
Spectrometers: USB2E7196
Integration Time (usec): 70000 (USB2E7196)
Spectra Averaged: 10 (USB2E7196)
Boxcar Smoothing: 10 (USB2E7196)
Correct for Electrical Dark: No (USB2E7196)
Strobe/Lamp Enabled: No (USB2E7196)
Correct for Detector Non-linearity: No (USB2E7196)
Correct for Stray Light: No (USB2E7196)
Number of Pixels in Processed Spectrum: 2048
>>>>>Begin Processed Spectral Data<<<<<
339.09	0.00
339.48	216.70
339.86	217.20
340.24	218.30
340.63	219.30
341.01	226.10
341.39	223.00
341.78	224.80
342.16	226.80
342.54	226.70
342.93	214.85
343.31	225.67
343.69	226.19
344.07	226.66
344.46	227.19
344.84	227.69
345.22	227.80
345.60	228.09
345.99	228.31
346.37	228.40
346.75	228.52
347.13	228.57
347.52	228.49
347.90	228.54
348.28	228.55
348.66	228.64
349.05	228.56
349.43	228.69
349.81	228.69
350.19	228.62
350.57	228.69
350.96	228.72
351.34	228.72
351.72	228.78
352.10	228.83
352.48	228.85
352.87	228.93
353.25	228.99
353.63	228.93
354.01	228.97
354.39	229.07
354.77	229.11
355.15	229.24
355.54	229.36
355.92	229.38
356.30	229.42
356.68	229.59
357.06	229.65
357.44	229.70
357.82	229.78
358.20	229.90
358.58	229.92
358.97	230.03
359.35	230.20
359.73	230.23
360.11	230.31
360.49	230.30
360.87	230.20
361.25	230.19
361.63	230.35
362.01	230.38
362.39	230.41
362.77	230.42
363.15	230.35
363.53	230.34
363.91	230.34
364.29	230.34
364.67	230.21
365.05	230.33
365.43	230.27
365.81	230.21
366.19	230.31
366.57	230.38
366.95	230.27
367.33	230.19
367.71	230.32
368.09	230.31
368.47	230.30
368.85	230.30
369.23	230.24
369.61	230.26
369.99	230.30
370.37	230.21
370.75	230.23
371.13	230.25
371.51	230.18
371.89	230.11
372.27	230.13
372.65	230.03
373.03	229.84
373.41	229.81
373.78	229.71
374.16	229.50
374.54	229.40
374.92	229.35
375.30	229.29
375.68	229.13
376.06	229.09
376.44	228.92
376.82	228.83
377.19	228.85
377.57	228.58
377.95	228.40
378.33	228.30
378.71	228.10
379.09	228.01
379.47	227.94
379.84	227.85
380.22	227.77
380.60	227.61
380.98	227.54
381.36	227.40
381.73	227.41
382.11	227.37
382.49	227.31
382.87	227.24
383.25	227.17
383.62	227.22
384.00	227.04
384.38	226.95
384.76	226.92
385.13	226.81
385.51	226.85
385.89	226.70
386.27	226.56
386.64	226.56
387.02	226.44
387.40	226.39
387.78	226.29
388.15	226.26
388.53	226.23
388.91	226.25
389.29	226.20
389.66	226.22
390.04	226.13
390.42	226.10
390.79	226.15
391.17	226.18
391.55	225.94
391.92	225.99
392.30	226.13
392.68	226.15
393.05	226.20
393.43	226.16
393.81	226.32
394.18	226.41
394.56	226.46
394.94	226.60
395.31	226.66
395.69	226.71
396.06	226.73
396.44	226.80
396.82	226.79
397.19	227.00
397.57	227.00
397.95	227.07
398.32	227.02
398.70	227.14
399.07	227.30
399.45	227.52
399.82	227.59
400.20	227.70
400.58	227.88
400.95	228.00
401.33	228.25
401.70	228.48
402.08	228.62
402.45	228.77
402.83	228.92
403.20	229.05
403.58	229.27
403.95	229.44
404.33	229.63
404.71	229.79
405.08	230.00
405.46	230.13
405.83	230.33
406.21	230.54
406.58	230.65
406.96	230.74
407.33	230.85
407.70	231.05
408.08	231.48
408.45	231.62
408.83	231.87
409.20	232.00
409.58	232.05
409.95	232.30
410.33	232.64
410.70	232.81
411.08	233.05
411.45	233.34
411.82	233.64
412.20	233.97
412.57	234.37
412.95	234.56
413.32	235.00
413.69	235.46
414.07	235.81
414.44	236.17
414.82	236.57
415.19	237.14
415.56	237.84
415.94	238.23
416.31	238.77
416.68	239.40
417.06	240.08
417.43	240.70
417.81	241.52
418.18	242.18
418.55	243.12
418.93	243.99
419.30	244.88
419.67	245.82
420.04	246.83
420.42	247.95
420.79	249.19
421.16	250.30
421.54	251.50
421.91	252.96
422.28	254.38
422.66	255.84
423.03	257.30
423.40	258.66
423.77	260.10
424.15	261.63
424.52	263.15
424.89	264.91
425.26	266.67
425.64	268.12
426.01	269.77
426.38	271.47
426.75	273.38
427.13	275.14
427.50	277.07
427.87	278.98
428.24	280.82
428.61	282.59
428.99	284.70
429.36	286.87
429.73	288.91
430.10	291.15
430.47	293.42
430.85	295.68
431.22	298.12
431.59	300.79
431.96	303.26
432.33	305.92
432.70	308.44
433.08	311.42
433.45	314.39
433.82	317.41
434.19	320.59
434.56	323.59
434.93	326.63
435.30	329.57
435.68	332.99
436.05	336.15
436.42	339.41
436.79	342.26
437.16	345.37
437.53	348.65
437.90	351.87
438.27	355.03
438.64	358.26
439.01	361.22
439.38	363.84
439.75	366.40
440.13	369.47
440.50	372.35
440.87	374.58
441.24	376.87
441.61	379.36
441.98	381.22
442.35	383.42
442.72	385.70
443.09	387.95
443.46	389.19
443.83	390.17
444.20	391.02
444.57	392.27
444.94	392.91
445.31	393.59
445.68	394.30
446.05	394.52
446.42	394.36
446.79	394.17
447.16	393.76
447.53	393.72
447.90	392.66
448.27	391.51
448.64	390.07
449.01	389.02
449.37	387.10
449.74	385.26
450.11	383.12
450.48	380.51
450.85	377.86
451.22	375.75
451.59	373.70
451.96	371.66
452.33	368.91
452.70	366.36
453.07	363.26
453.43	360.05
453.80	357.20
454.17	354.32
454.54	351.48
454.91	348.69
455.28	345.70
455.65	342.87
456.02	340.39
456.38	338.00
456.75	335.09
457.12	332.47
457.49	329.95
457.86	327.42
458.23	325.44
458.59	323.13
458.96	320.79
459.33	318.71
459.70	316.67
460.07	314.95
460.43	313.05
460.80	311.27
461.17	309.69
461.54	307.89
461.91	306.22
462.27	304.54
462.64	302.97
463.01	301.43
463.38	300.06
463.74	298.34
464.11	296.96
464.48	295.74
464.85	294.57
465.21	293.52
465.58	292.42
465.95	291.13
466.32	290.07
466.68	288.79
467.05	287.59
467.42	286.42
467.78	285.25
468.15	284.20
468.52	283.35
468.88	282.14
469.25	281.10
469.62	280.22
469.98	279.40
470.35	278.54
470.72	277.73
471.08	276.75
471.45	276.02
471.82	275.24
472.18	274.36
472.55	273.69
472.92	272.90
473.28	272.17
473.65	271.42
474.02	270.66
474.38	270.06
474.75	269.55
475.11	268.87
475.48	268.44
475.85	267.91
476.21	267.44
476.58	267.09
476.94	266.76
477.31	266.26
477.67	265.81
478.04	265.45
478.41	265.13
478.77	264.98
479.14	264.55
479.50	264.30
479.87	264.12
480.23	263.84
480.60	263.54
480.96	263.25
481.33	263.12
481.69	262.93
482.06	262.83
482.42	262.72
482.79	262.63
483.15	262.45
483.52	262.48
483.88	262.42
484.25	262.25
484.61	262.12
484.98	262.09
485.34	262.08
485.71	262.10
486.07	261.88
486.44	261.70
486.80	261.69
487.17	261.65
487.53	261.68
487.90	261.77
488.26	262.11
488.62	262.33
488.99	262.40
489.35	262.63
489.72	262.74
490.08	262.74
490.44	262.95
490.81	263.20
491.17	263.27
491.54	263.46
491.90	263.70
492.26	263.96
492.63	264.21
492.99	264.42
493.36	264.59
493.72	265.07
494.08	265.25
494.45	265.63
494.81	266.02
495.17	266.39
495.54	266.70
495.90	266.96
496.26	267.37
496.63	267.82
496.99	268.13
497.35	268.51
497.72	268.94
498.08	269.40
498.44	269.92
498.80	270.47
499.17	270.90
499.53	271.46
499.89	272.05
500.26	272.61
500.62	273.37
500.98	274.14
501.34	274.76
501.71	275.69
502.07	276.40
502.43	277.15
502.79	277.97
503.16	278.82
503.52	279.56
503.88	280.38
504.24	281.29
504.60	282.22
504.97	283.28
505.33	284.48
505.69	285.56
506.05	286.57
506.41	287.83
506.78	289.02
507.14	290.30
507.50	291.64
507.86	293.02
508.22	294.32
508.59	295.68
508.95	297.22
509.31	298.73
509.67	300.45
510.03	302.30
510.39	303.99
510.75	305.86
511.12	307.92
511.48	309.93
511.84	312.06
512.20	314.45
512.56	316.70
512.92	319.16
513.28	321.57
513.64	324.08
514.00	326.57
514.37	329.35
514.73	332.17
515.09	335.10
515.45	338.11
515.81	341.07
516.17	344.36
516.53	347.65
516.89	350.94
517.25	354.25
517.61	357.71
517.97	361.32
518.33	364.98
518.69	368.53
519.05	372.50
519.41	376.54
519.77	380.68
520.13	384.95
520.49	389.00
520.85	393.43
521.21	397.99
521.57	402.63
521.93	407.21
522.29	411.99
522.65	416.68
523.01	421.52
523.37	426.70
523.73	431.73
524.09	436.86
524.45	442.26
524.81	447.78
525.17	453.30
525.53	459.03
525.89	464.60
526.25	470.55
526.61	476.12
526.97	481.89
527.33	487.87
527.68	494.10
528.04	500.32
528.40	506.66
528.76	513.05
529.12	519.61
529.48	526.24
529.84	532.74
530.20	539.59
530.56	546.73
530.91	553.82
531.27	560.97
531.63	568.06
531.99	575.17
532.35	582.35
532.71	589.48
533.07	596.77
533.42	604.50
533.78	611.93
534.14	619.49
534.50	626.95
534.86	634.54
535.21	642.13
535.57	650.03
535.93	657.58
536.29	665.34
536.65	672.97
537.00	680.81
537.36	688.76
537.72	696.69
538.08	704.21
538.44	711.84
538.79	719.38
539.15	727.33
539.51	735.22
539.87	743.38
540.22	751.30
540.58	759.40
540.94	767.01
541.29	774.94
541.65	782.93
542.01	791.23
542.37	799.18
542.72	806.99
543.08	814.75
543.44	822.38
543.79	829.74
544.15	837.45
544.51	845.43
544.87	853.21
545.22	860.88
545.58	868.50
545.94	875.93
546.29	883.70
546.65	890.89
547.01	898.25
547.36	905.36
547.72	912.79
548.07	919.80
548.43	926.98
548.79	933.99
549.14	941.20
549.50	947.70
549.86	954.23
550.21	960.88
550.57	967.55
550.92	974.70
551.28	981.56
551.64	988.24
551.99	994.69
552.35	1001.19
552.70	1007.41
553.06	1014.07
553.41	1020.73
553.77	1027.36
554.13	1034.02
554.48	1040.51
554.84	1046.90
555.19	1053.01
555.55	1059.19
555.90	1065.24
556.26	1071.27
556.61	1077.27
556.97	1083.04
557.32	1089.26
557.68	1095.14
558.03	1100.87
558.39	1106.55
558.74	1112.50
559.10	1118.31
559.45	1123.78
559.81	1129.49
560.16	1134.99
560.52	1140.30
560.87	1145.68
561.23	1150.38
561.58	1155.60
561.94	1160.50
562.29	1164.97
562.64	1169.62
563.00	1174.48
563.35	1179.67
563.71	1184.71
564.06	1189.37
564.42	1194.52
564.77	1199.00
565.12	1203.75
565.48	1208.21
565.83	1212.28
566.19	1216.72
566.54	1220.50
566.89	1224.71
567.25	1228.50
567.60	1232.67
567.96	1236.52
568.31	1240.09
568.66	1243.76
569.02	1246.73
569.37	1249.94
569.72	1253.49
570.08	1256.74
570.43	1259.52
570.78	1262.10
571.14	1264.35
571.49	1266.76
571.84	1269.37
572.20	1271.56
572.55	1273.52
572.90	1275.58
573.26	1277.75
573.61	1279.61
573.96	1281.28
574.31	1282.52
574.67	1283.01
575.02	1283.90
575.37	1284.77
575.72	1285.63
576.08	1286.89
576.43	1288.18
576.78	1288.90
577.13	1289.98
577.49	1290.58
577.84	1291.21
578.19	1291.48
578.54	1292.15
578.90	1292.23
579.25	1292.00
579.60	1292.04
579.95	1291.74
580.30	1291.28
580.66	1290.77
581.01	1290.00
581.36	1290.00
581.71	1289.65
582.06	1290.28
582.42	1289.82
582.77	1289.35
583.12	1288.74
583.47	1288.10
583.82	1287.35
584.17	1286.74
584.53	1285.62
584.88	1285.01
585.23	1284.26
585.58	1283.24
585.93	1282.37
586.28	1281.56
586.63	1280.62
586.98	1279.67
587.34	1278.95
587.69	1278.42
588.04	1277.39
588.39	1276.65
588.74	1274.48
589.09	1272.97
589.44	1270.43
589.79	1269.18
590.14	1268.05
590.49	1266.36
590.84	1264.21
591.19	1262.58
591.54	1260.42
591.89	1257.88
592.25	1255.71
592.60	1252.93
592.95	1250.68
593.30	1247.70
593.65	1245.29
594.00	1242.76
594.35	1240.70
594.70	1237.90
595.05	1235.15
595.40	1232.29
595.75	1229.02
596.10	1226.82
596.45	1224.40
596.80	1222.56
597.15	1219.78
597.50	1216.56
597.85	1214.10
598.19	1212.03
598.54	1209.64
598.89	1207.35
599.24	1205.47
599.59	1203.04
599.94	1201.10
600.29	1198.43
600.64	1196.02
600.99	1192.88
601.34	1189.95
601.69	1186.61
602.04	1183.91
602.39	1180.96
602.74	1178.79
603.08	1176.47
603.43	1174.20
603.78	1171.31
604.13	1168.35
604.48	1165.60
604.83	1162.77
605.18	1159.57
605.53	1155.73
605.87	1151.73
606.22	1148.26
606.57	1144.57
606.92	1140.96
607.27	1137.66
607.62	1134.87
607.96	1131.73
608.31	1129.01
608.66	1125.43
609.01	1121.81
609.36	1117.99
609.70	1113.95
610.05	1109.75
610.40	1105.69
610.75	1101.29
611.10	1097.50
611.44	1093.05
611.79	1088.83
612.14	1084.71
612.49	1080.45
612.83	1076.49
613.18	1072.41
613.53	1068.56
613.88	1064.30
614.22	1060.22
614.57	1055.70
614.92	1051.25
615.27	1047.05
615.61	1042.48
615.96	1038.58
616.31	1034.62
616.65	1031.02
617.00	1027.10
617.35	1023.30
617.70	1018.97
618.04	1014.62
618.39	1010.08
618.74	1006.18
619.08	1001.72
619.43	997.86
619.78	994.07
620.12	990.00
620.47	986.00
620.82	981.39
621.16	977.17
621.51	973.21
621.85	969.09
622.20	964.63
622.55	960.55
622.89	956.77
623.24	952.65
623.59	948.62
623.93	944.40
624.28	940.55
624.62	936.42
624.97	932.53
625.32	928.94
625.66	925.48
626.01	921.56
626.35	917.68
626.70	913.56
627.04	909.53
627.39	905.27
627.73	901.18
628.08	897.43
628.43	893.51
628.77	889.26
629.12	884.90
629.46	880.79
629.81	876.23
630.15	871.67
630.50	867.40
630.84	862.77
631.19	858.28
631.53	853.93
631.88	848.91
632.22	844.49
632.57	840.35
632.91	835.62
633.26	831.38
633.60	827.07
633.95	822.65
634.29	818.33
634.64	814.38
634.98	810.22
635.32	806.11
635.67	802.40
636.01	798.48
636.36	794.53
636.70	790.79
637.05	787.20
637.39	783.85
637.73	780.15
638.08	776.87
638.42	773.51
638.77	769.94
639.11	766.50
639.45	762.69
639.80	758.78
640.14	755.38
640.49	751.74
640.83	747.86
641.17	744.33
641.52	740.70
641.86	736.87
642.20	733.28
642.55	729.44
642.89	725.60
643.23	721.62
643.58	718.27
643.92	714.58
644.26	710.77
644.61	706.91
644.95	703.16
645.29	699.07
645.64	695.01
645.98	691.27
646.32	687.97
646.66	684.51
647.01	680.67
647.35	676.85
647.69	673.31
648.04	670.03
648.38	666.17
648.72	662.28
649.06	658.65
649.41	654.92
649.75	651.44
650.09	647.56
650.43	643.98
650.78	640.02
651.12	636.44
651.46	632.73
651.80	628.99
652.14	625.57
652.49	622.13
652.83	618.71
653.17	614.83
653.51	611.25
653.85	607.64
654.20	604.30
654.54	600.68
654.88	596.74
655.22	593.01
655.56	589.53
655.90	586.31
656.25	583.04
656.59	579.77
656.93	576.50
657.27	573.45
657.61	569.97
657.95	567.06
658.29	563.75
658.64	560.80
658.98	557.69
659.32	554.28
659.66	551.08
660.00	547.91
660.34	544.83
660.68	541.47
661.02	538.44
661.36	535.36
661.70	532.32
662.05	529.72
662.39	527.20
662.73	524.49
663.07	521.83
663.41	519.19
663.75	516.51
664.09	513.64
664.43	510.60
664.77	508.12
665.11	505.57
665.45	502.94
665.79	500.26
666.13	497.51
666.47	495.06
666.81	492.34
667.15	489.51
667.49	487.20
667.83	484.79
668.17	482.22
668.51	479.65
668.85	477.20
669.19	474.78
669.53	472.22
669.87	469.63
670.21	467.19
670.55	464.70
670.89	462.55
671.23	460.46
671.57	458.42
671.91	456.11
672.25	453.75
672.58	451.51
672.92	449.28
673.26	447.27
673.60	445.04
673.94	443.11
674.28	441.40
674.62	439.31
674.96	437.42
675.30	435.45
675.64	433.49
675.97	431.49
676.31	429.46
676.65	427.53
676.99	425.77
677.33	423.65
677.67	421.85
678.01	419.64
678.34	417.55
678.68	415.64
679.02	413.73
679.36	411.87
679.70	410.12
680.04	408.22
680.37	406.31
680.71	404.55
681.05	402.87
681.39	401.15
681.73	399.46
682.06	397.79
682.40	396.23
682.74	394.68
683.08	393.11
683.42	391.41
683.75	389.70
684.09	388.10
684.43	386.61
684.77	384.86
685.10	383.29
685.44	381.61
685.78	380.09
686.12	378.49
686.45	376.91
686.79	375.40
687.13	373.96
687.46	372.42
687.80	370.75
688.14	369.07
688.48	367.41
688.81	365.74
689.15	364.14
689.49	362.58
689.82	361.02
690.16	359.60
690.50	358.26
690.83	356.84
691.17	355.29
691.51	353.99
691.84	352.68
692.18	351.31
692.52	350.01
692.85	348.59
693.19	347.29
693.52	345.86
693.86	344.42
694.20	342.96
694.53	341.60
694.87	340.50
695.21	339.28
695.54	338.11
695.88	336.84
696.21	335.60
696.55	334.37
696.88	333.18
697.22	331.98
697.56	330.90
697.89	329.69
698.23	328.49
698.56	327.33
698.90	326.28
699.23	325.08
699.57	323.97
699.90	322.76
700.24	321.68
700.58	320.68
700.91	319.52
701.25	318.63
701.58	317.69
701.92	316.64
702.25	315.61
702.59	314.42
702.92	313.48
703.26	312.48
703.59	311.59
703.93	310.81
704.26	309.94
704.60	308.84
704.93	307.94
705.26	307.08
705.60	306.04
705.93	305.11
706.27	304.31
706.60	303.60
706.94	302.92
707.27	302.02
707.61	301.14
707.94	300.32
708.27	299.53
708.61	298.70
708.94	297.91
709.28	297.20
709.61	296.48
709.94	295.86
710.28	295.23
710.61	294.43
710.95	293.56
711.28	292.74
711.61	292.11
711.95	291.48
712.28	290.80
712.61	290.04
712.95	289.34
713.28	288.81
713.61	287.90
713.95	287.13
714.28	286.59
714.61	285.90
714.95	285.30
715.28	284.56
715.61	283.84
715.95	283.20
716.28	282.61
716.61	281.99
716.95	281.35
717.28	280.70
717.61	280.12
717.94	279.50
718.28	278.91
718.61	278.31
718.94	277.85
719.27	277.31
719.61	276.80
719.94	276.27
720.27	275.57
720.60	275.08
720.94	274.75
721.27	274.30
721.60	274.00
721.93	273.62
722.27	273.10
722.60	272.72
722.93	272.15
723.26	271.60
723.59	271.25
723.93	270.77
724.26	270.40
724.59	269.89
724.92	269.44
725.25	269.00
725.59	268.58
725.92	268.09
726.25	267.66
726.58	267.28
726.91	266.83
727.24	266.40
727.57	266.00
727.91	265.44
728.24	265.04
728.57	264.52
728.90	264.13
729.23	263.73
729.56	263.49
729.89	263.20
730.22	262.85
730.55	262.38
730.89	262.03
731.22	261.47
731.55	261.11
731.88	260.83
732.21	260.46
732.54	260.01
732.87	259.60
733.20	259.30
733.53	258.93
733.86	258.55
734.19	258.12
734.52	257.79
734.85	257.60
735.18	257.24
735.51	256.85
735.84	256.43
736.17	256.15
736.50	255.71
736.83	255.62
737.16	255.34
737.49	255.02
737.82	254.58
738.15	254.31
738.48	253.97
738.81	253.60
739.14	253.33
739.47	253.04
739.80	252.79
740.13	252.43
740.46	252.08
740.79	251.83
741.12	251.60
741.45	251.37
741.78	251.03
742.11	250.80
742.44	250.54
742.77	250.40
743.10	250.14
743.43	249.92
743.75	249.37
744.08	249.44
744.41	249.12
744.74	249.12
745.07	248.95
745.40	248.91
745.73	248.74
746.06	248.48
746.39	248.35
746.71	248.14
747.04	247.96
747.37	247.77
747.70	247.64
748.03	247.54
748.36	247.40
748.68	247.17
749.01	246.90
749.34	246.76
749.67	246.49
750.00	246.45
750.33	246.37
750.65	246.20
750.98	245.77
751.31	245.67
751.64	245.39
751.97	245.34
752.29	245.17
752.62	245.03
752.95	244.84
753.28	244.72
753.60	244.56
753.93	244.36
754.26	244.34
754.59	244.00
754.91	243.79
755.24	243.68
755.57	243.60
755.90	243.53
756.22	243.28
756.55	243.12
756.88	242.78
757.20	242.41
757.53	242.32
757.86	242.18
758.19	242.02
758.51	241.93
758.84	241.70
759.17	241.47
759.49	241.19
759.82	241.24
760.15	241.00
760.47	240.81
760.80	240.72
761.13	240.56
761.45	240.63
761.78	240.49
762.11	240.29
762.43	240.14
762.76	239.92
763.08	239.86
763.41	239.82
763.74	239.70
764.06	239.66
764.39	239.52
764.71	239.27
765.04	239.20
765.37	238.94
765.69	238.72
766.02	238.52
766.34	238.39
766.67	238.19
767.00	238.18
767.32	238.21
767.65	238.24
767.97	237.99
768.30	237.82
768.62	237.71
768.95	237.59
769.27	237.41
769.60	237.40
769.92	237.25
770.25	237.05
770.57	236.94
770.90	236.80
771.22	236.69
771.55	236.67
771.87	236.59
772.20	236.60
772.52	236.74
772.85	237.01
773.17	237.01
773.50	236.88
773.82	236.71
774.15	236.47
774.47	236.20
774.80	236.15
775.12	236.04
775.45	235.95
775.77	235.82
776.09	235.79
776.42	235.67
776.74	235.59
777.07	235.48
777.39	235.38
777.72	235.27
778.04	235.15
778.36	235.01
778.69	234.88
779.01	234.72
779.33	234.41
779.66	234.06
779.98	233.87
780.31	233.79
780.63	233.76
780.95	233.67
781.28	233.60
781.60	233.65
781.92	233.59
782.25	233.59
782.57	233.53
782.89	233.51
783.22	233.37
783.54	233.40
783.86	233.37
784.19	233.39
784.51	233.46
784.83	233.42
785.16	233.38
785.48	233.38
785.80	233.36
786.12	233.31
786.45	233.24
786.77	233.25
787.09	233.14
787.42	233.07
787.74	233.11
788.06	233.09
788.38	232.95
788.71	232.86
789.03	232.71
789.35	232.76
789.67	232.65
789.99	232.60
790.32	232.48
790.64	232.45
790.96	232.53
791.28	232.39
791.61	232.39
791.93	232.39
792.25	232.32
792.57	232.40
792.89	232.48
793.21	232.51
793.54	232.49
793.86	232.50
794.18	232.53
794.50	232.48
794.82	232.46
795.14	232.46
795.47	232.47
795.79	232.55
796.11	232.44
796.43	232.30
796.75	232.36
797.07	232.35
797.39	232.36
797.71	232.29
798.04	232.20
798.36	232.11
798.68	232.04
799.00	232.01
799.32	231.96
799.64	231.80
799.96	231.66
800.28	231.58
800.60	231.59
800.92	231.46
801.24	231.40
801.56	231.43
801.89	231.35
802.21	231.36
802.53	231.21
802.85	231.14
803.17	231.28
803.49	231.17
803.81	231.10
804.13	231.01
804.45	230.90
804.77	230.97
805.09	230.96
805.41	231.02
805.73	230.93
806.05	230.80
806.37	230.79
806.69	230.72
807.01	230.74
807.33	230.64
807.65	230.47
807.97	230.58
808.28	230.54
808.60	230.52
808.92	230.47
809.24	230.46
809.56	230.43
809.88	230.39
810.20	230.35
810.52	230.38
810.84	230.35
811.16	230.18
811.48	230.02
811.80	230.10
812.12	229.97
812.43	229.88
812.75	229.88
813.07	229.92
813.39	230.05
813.71	229.97
814.03	229.95
814.35	230.04
814.67	229.92
814.98	229.87
815.30	229.84
815.62	229.73
815.94	229.70
816.26	229.76
816.58	229.61
816.89	229.60
817.21	229.53
817.53	229.49
817.85	229.58
818.17	229.64
818.48	229.48
818.80	229.48
819.12	229.50
819.44	229.50
819.76	229.38
820.07	229.32
820.39	229.34
820.71	229.40
821.03	229.40
821.34	229.34
821.66	229.30
821.98	229.29
822.30	229.25
822.61	229.28
822.93	229.18
823.25	229.20
823.57	229.18
823.88	229.18
824.20	229.21
824.52	229.18
824.83	229.16
825.15	229.20
825.47	229.26
825.79	229.47
826.10	229.45
826.42	229.40
826.74	229.34
827.05	229.35
827.37	229.33
827.69	229.29
828.00	229.29
828.32	229.29
828.64	229.33
828.95	229.54
829.27	229.59
829.58	229.58
829.90	229.58
830.22	229.77
830.53	229.70
830.85	229.67
831.17	229.63
831.48	229.65
831.80	229.71
832.11	229.71
832.43	229.48
832.75	229.41
833.06	229.66
833.38	229.70
833.69	229.63
834.01	229.62
834.32	229.63
834.64	229.66
834.96	229.59
835.27	229.55
835.59	229.51
835.90	229.49
836.22	229.70
836.53	229.68
836.85	229.52
837.16	229.77
837.48	229.80
837.79	229.89
838.11	229.85
838.42	229.79
838.74	229.74
839.05	229.79
839.37	229.82
839.68	229.68
840.00	229.65
840.31	229.79
840.63	229.76
840.94	229.77
841.26	229.62
841.57	229.60
841.88	229.65
842.20	229.49
842.51	229.43
842.83	229.25
843.14	229.41
843.46	229.45
843.77	229.35
844.08	229.36
844.40	229.32
844.71	229.33
845.03	229.32
845.34	229.30
845.65	229.28
845.97	229.14
846.28	229.12
846.60	229.15
846.91	229.01
847.22	229.02
847.54	229.04
847.85	229.08
848.16	229.15
848.48	229.00
848.79	229.13
849.10	229.12
849.42	229.12
849.73	228.97
850.04	228.90
850.36	228.76
850.67	228.70
850.98	228.66
851.30	228.67
851.61	228.63
851.92	228.66
852.23	228.70
852.55	228.88
852.86	228.81
853.17	228.74
853.49	228.80
853.80	228.80
854.11	228.72
854.42	228.88
854.74	228.89
855.05	228.96
855.36	228.82
855.67	228.82
855.99	228.84
856.30	229.04
856.61	229.10
856.92	229.05
857.23	228.97
857.55	228.90
857.86	228.89
858.17	228.93
858.48	228.83
858.79	228.85
859.11	228.80
859.42	228.83
859.73	228.80
860.04	228.84
860.35	228.79
860.66	228.86
860.98	228.73
861.29	228.68
861.60	228.70
861.91	228.74
862.22	228.72
862.53	228.66
862.84	228.47
863.16	228.45
863.47	228.58
863.78	228.70
864.09	228.89
864.40	228.89
864.71	228.86
865.02	228.92
865.33	229.00
865.64	228.99
865.95	229.04
866.27	229.20
866.58	229.13
866.89	229.18
867.20	229.09
867.51	229.05
867.82	229.07
868.13	229.06
868.44	229.04
868.75	229.15
869.06	229.26
869.37	229.26
869.68	229.20
869.99	229.23
870.30	229.21
870.61	229.12
870.92	229.10
871.23	229.08
871.54	229.06
871.85	228.89
872.16	228.94
872.47	228.87
872.78	228.75
873.09	228.76
873.40	228.81
873.71	228.90
874.02	228.91
874.33	228.84
874.64	228.84
874.95	228.87
875.26	228.67
875.56	228.62
875.87	228.56
876.18	228.68
876.49	228.80
876.80	228.76
877.11	228.69
877.42	228.72
877.73	228.72
878.04	228.79
878.35	228.81
878.66	228.73
878.96	228.81
879.27	228.76
879.58	228.82
879.89	228.73
880.20	228.79
880.51	228.84
880.82	228.93
881.12	228.96
881.43	228.93
881.74	228.89
882.05	228.87
882.36	228.88
882.67	228.83
882.97	228.65
883.28	228.64
883.59	228.72
883.90	228.69
884.21	228.73
884.51	228.61
884.82	228.72
885.13	228.79
885.44	228.74
885.74	228.80
886.05	228.70
886.36	228.69
886.67	228.62
886.98	228.66
887.28	228.60
887.59	228.55
887.90	228.51
888.20	228.70
888.51	228.75
888.82	228.70
889.13	228.63
889.43	228.75
889.74	228.80
890.05	228.69
890.35	228.78
890.66	228.78
890.97	228.84
891.28	228.59
891.58	228.61
891.89	228.61
892.20	228.52
892.50	228.51
892.81	228.50
893.12	228.41
893.42	228.33
893.73	228.31
894.04	228.33
894.34	228.34
894.65	228.14
894.95	228.10
895.26	228.05
895.57	228.21
895.87	228.03
896.18	228.01
896.48	228.08
896.79	228.06
897.10	228.00
897.40	227.92
897.71	228.09
898.01	227.93
898.32	227.93
898.63	227.93
898.93	228.03
899.24	228.04
899.54	228.16
899.85	228.09
900.15	228.15
900.46	228.05
900.76	228.12
901.07	228.20
901.38	228.19
901.68	228.31
901.99	228.16
902.29	228.27
902.60	228.21
902.90	228.17
903.21	228.09
903.51	228.13
903.82	228.15
904.12	228.23
904.43	228.31
904.73	228.40
905.03	228.57
905.34	228.55
905.64	228.59
905.95	228.50
906.25	228.53
906.56	228.47
906.86	228.54
907.17	228.48
907.47	228.56
907.77	228.66
908.08	228.65
908.38	228.70
908.69	228.60
908.99	228.63
909.30	228.63
909.60	228.75
909.90	228.80
910.21	228.81
910.51	228.70
910.81	228.70
911.12	228.60
911.42	228.52
911.73	228.42
912.03	228.38
912.33	228.44
912.64	228.50
912.94	228.47
913.24	228.34
913.55	228.31
913.85	228.31
914.15	228.24
914.46	228.29
914.76	228.23
915.06	228.31
915.37	228.25
915.67	228.29
915.97	228.23
916.27	228.09
916.58	228.04
916.88	228.06
917.18	228.10
917.49	228.20
917.79	228.15
918.09	228.24
918.39	228.33
918.70	228.40
919.00	228.37
919.30	228.53
919.60	228.65
919.91	228.64
920.21	228.65
920.51	228.61
920.81	228.55
921.12	228.58
921.42	228.55
921.72	228.69
922.02	228.64
922.32	228.60
922.63	228.72
922.93	228.87
923.23	228.81
923.53	228.80
923.83	228.67
924.13	228.71
924.44	228.64
924.74	228.65
925.04	228.70
925.34	228.71
925.64	228.51
925.94	228.57
926.24	228.71
926.55	228.64
926.85	228.64
927.15	228.63
927.45	228.64
927.75	228.63
928.05	228.47
928.35	228.44
928.65	228.57
928.95	228.56
929.26	228.50
929.56	228.56
929.86	228.56
930.16	228.60
930.46	228.65
930.76	228.65
931.06	228.62
931.36	228.42
931.66	228.48
931.96	228.69
932.26	228.62
932.56	228.52
932.86	228.53
933.16	228.54
933.46	228.50
933.76	228.49
934.06	228.55
934.36	228.72
934.66	228.72
934.96	228.55
935.26	228.57
935.56	228.63
935.86	228.65
936.16	228.58
936.46	228.52
936.76	228.46
937.06	228.49
937.36	228.44
937.66	228.53
937.96	228.50
938.26	228.39
938.56	228.39
938.86	228.41
939.16	228.50
939.46	228.56
939.76	228.67
940.06	228.59
940.35	228.53
940.65	228.50
940.95	228.60
941.25	228.67
941.55	228.59
941.85	228.54
942.15	228.50
942.45	228.63
942.75	228.62
943.04	228.62
943.34	228.72
943.64	228.74
943.94	228.66
944.24	228.69
944.54	228.75
944.84	228.79
945.13	228.90
945.43	228.95
945.73	228.93
946.03	228.88
946.33	228.90
946.62	228.93
946.92	228.84
947.22	228.81
947.52	228.83
947.82	228.85
948.11	228.86
948.41	228.72
948.71	228.65
949.01	228.75
949.31	228.79
949.60	228.78
949.90	228.86
950.20	228.91
950.50	228.88
950.79	228.77
951.09	228.85
951.39	228.77
951.69	228.69
951.98	228.70
952.28	228.76
952.58	228.82
952.87	228.83
953.17	228.88
953.47	228.90
953.76	228.83
954.06	228.90
954.36	228.86
954.66	229.00
954.95	229.10
955.25	229.07
955.55	229.05
955.84	228.99
956.14	228.89
956.44	228.84
956.73	228.83
957.03	228.89
957.32	228.84
957.62	228.79
957.92	228.94
958.21	228.87
958.51	229.01
958.81	229.05
959.10	228.95
959.40	228.99
959.69	228.95
959.99	229.00
960.29	228.94
960.58	228.92
960.88	229.01
961.17	228.98
961.47	228.99
961.76	228.96
962.06	229.00
962.36	229.05
962.65	229.10
962.95	229.00
963.24	229.01
963.54	228.96
963.83	228.91
964.13	228.73
964.42	228.89
964.72	228.72
965.01	228.66
965.31	228.72
965.60	228.65
965.90	228.72
966.19	228.63
966.49	228.53
966.78	228.48
967.08	228.40
967.37	228.28
967.67	228.18
967.96	228.20
968.26	228.07
968.55	228.10
968.85	228.05
969.14	228.06
969.43	228.04
969.73	227.99
970.02	228.00
970.32	228.03
970.61	227.86
970.91	227.82
971.20	227.81
971.49	227.70
971.79	227.70
972.08	227.57
972.38	227.58
972.67	227.71
972.96	227.83
973.26	227.90
973.55	227.97
973.85	228.02
974.14	227.95
974.43	228.06
974.73	227.99
975.02	228.10
975.31	228.20
975.61	228.22
975.90	228.29
976.19	228.23
976.49	228.24
976.78	228.26
977.07	228.20
977.37	228.23
977.66	228.29
977.95	228.27
978.24	228.35
978.54	228.38
978.83	228.32
979.12	228.25
979.42	228.18
979.71	228.18
980.00	228.21
980.29	228.29
980.59	228.25
980.88	228.23
981.17	228.10
981.46	228.04
981.76	227.93
982.05	227.94
982.34	228.03
982.63	228.00
982.93	228.10
983.22	228.17
983.51	228.16
983.80	228.27
984.09	228.28
984.39	228.31
984.68	228.27
984.97	228.27
985.26	228.20
985.55	228.24
985.85	228.23
986.14	228.18
986.43	228.20
986.72	228.19
987.01	228.21
987.30	228.32
987.59	228.39
987.89	228.53
988.18	228.54
988.47	228.51
988.76	228.44
989.05	228.36
989.34	228.43
989.63	228.44
989.92	228.47
990.22	228.51
990.51	228.47
990.80	228.51
991.09	228.58
991.38	228.70
991.67	228.65
991.96	228.68
992.25	228.69
992.54	228.71
992.83	228.66
993.12	228.59
993.41	228.53
993.70	228.42
993.99	228.40
994.28	228.31
994.58	228.34
994.87	228.26
995.16	228.22
995.45	228.03
995.74	227.97
996.03	227.90
996.32	227.91
996.61	227.98
996.90	227.90
997.19	227.87
997.48	227.92
997.77	227.88
998.06	227.87
998.34	227.81
998.63	227.68
998.92	227.63
999.21	227.63
999.50	227.67
999.79	227.68
1000.08	227.65
1000.37	227.73
1000.66	227.65
1000.95	227.74
1001.24	227.68
1001.53	227.70
1001.82	227.64
1002.11	227.55
1002.40	227.50
1002.68	227.42
1002.97	227.60
1003.26	227.53
1003.55	227.42
1003.84	227.42
1004.13	227.42
1004.42	227.47
1004.71	227.49
1004.99	227.57
1005.28	227.62
1005.57	227.45
1005.86	227.48
1006.15	227.34
1006.44	227.27
1006.72	227.36
1007.01	227.37
1007.30	227.42
1007.59	227.46
1007.88	227.44
1008.17	227.39
1008.45	227.31
1008.74	227.28
1009.03	227.21
1009.32	227.27
1009.60	227.16
1009.89	227.17
1010.18	227.13
1010.47	227.06
1010.76	227.05
1011.04	227.03
1011.33	226.99
1011.62	227.20
1011.91	227.16
1012.19	227.24
1012.48	227.21
1012.77	227.08
1013.05	227.19
1013.34	227.19
1013.63	227.19
1013.92	227.35
1014.20	227.39
1014.49	227.52
1014.78	227.56
1015.06	227.58
1015.35	227.61
1015.64	227.75
1015.92	227.83
1016.21	227.89
1016.50	228.06
1016.78	228.20
1017.07	228.36
1017.36	228.50
1017.64	228.40
1017.93	228.58
1018.22	228.68
1018.50	228.94
1018.79	229.14
1019.08	229.11
1019.36	229.21
1019.65	229.34
1019.93	229.26
1020.22	229.30
1020.51	229.30
1020.79	229.37
1021.08	229.00
1021.36	232.20
1021.65	229.70
1021.94	229.00
1022.22	229.50
1022.51	230.20
1022.79	227.50
1023.08	227.60
1023.36	229.30
1023.65	229.20
>>>>>End Processed Spectral Data<<<<<
