SpectraSuite Data File
++++++++++++++++++++++++++++++++++++
Date: Fri Feb 01 14:42:04 EST 2013
User: group
Dark Spectrum Present: No
Reference Spectrum Present: No
Number of Sampled Component Spectra: 1
Spectrometers: USB2E7196
Integration Time (usec): 70000 (USB2E7196)
Spectra Averaged: 10 (USB2E7196)
Boxcar Smoothing: 10 (USB2E7196)
Correct for Electrical Dark: No (USB2E7196)
Strobe/Lamp Enabled: No (USB2E7196)
Correct for Detector Non-linearity: No (USB2E7196)
Correct for Stray Light: No (USB2E7196)
Number of Pixels in Processed Spectrum: 2048
>>>>>Begin Processed Spectral Data<<<<<
339.09	0.00
339.48	215.60
339.86	218.10
340.24	219.20
340.63	221.10
341.01	223.00
341.39	223.40
341.78	224.40
342.16	225.20
342.54	226.30
342.93	214.64
343.31	225.44
343.69	225.98
344.07	226.47
344.46	226.97
344.84	227.40
345.22	227.68
345.60	228.00
345.99	228.23
346.37	228.42
346.75	228.50
347.13	228.50
347.52	228.60
347.90	228.82
348.28	228.84
348.66	228.95
349.05	228.84
349.43	228.97
349.81	228.97
350.19	229.00
350.57	229.10
350.96	229.12
351.34	229.29
351.72	229.45
352.10	229.53
352.48	229.64
352.87	229.60
353.25	229.67
353.63	229.67
354.01	229.74
354.39	229.82
354.77	230.01
355.15	230.07
355.54	230.17
355.92	230.19
356.30	230.27
356.68	230.44
357.06	230.56
357.44	230.53
357.82	230.64
358.20	230.73
358.58	230.81
358.97	230.85
359.35	230.85
359.73	230.90
360.11	230.87
360.49	230.83
360.87	230.96
361.25	231.07
361.63	231.20
362.01	231.33
362.39	231.32
362.77	231.27
363.15	231.32
363.53	231.32
363.91	231.26
364.29	231.30
364.67	231.14
365.05	231.20
365.43	231.28
365.81	231.25
366.19	231.41
366.57	231.46
366.95	231.50
367.33	231.49
367.71	231.40
368.09	231.49
368.47	231.46
368.85	231.42
369.23	231.39
369.61	231.32
369.99	231.14
370.37	231.16
370.75	231.20
371.13	231.26
371.51	231.08
371.89	231.08
372.27	231.09
372.65	231.05
373.03	231.03
373.41	230.91
373.78	230.87
374.16	230.73
374.54	230.67
374.92	230.50
375.30	230.46
375.68	230.37
376.06	230.30
376.44	230.22
376.82	230.06
377.19	230.00
377.57	229.95
377.95	229.82
378.33	229.70
378.71	229.49
379.09	229.28
379.47	229.32
379.84	229.30
380.22	229.08
380.60	228.90
380.98	228.77
381.36	228.85
381.73	228.72
382.11	228.56
382.49	228.48
382.87	228.39
383.25	228.33
383.62	228.52
384.00	228.43
384.38	228.40
384.76	228.48
385.13	228.35
385.51	228.23
385.89	228.24
386.27	228.18
386.64	228.20
387.02	228.28
387.40	228.09
387.78	227.92
388.15	227.96
388.53	228.00
388.91	228.02
389.29	227.89
389.66	227.94
390.04	227.92
390.42	227.89
390.79	227.96
391.17	227.93
391.55	227.72
391.92	227.74
392.30	227.77
392.68	227.69
393.05	227.79
393.43	227.75
393.81	227.75
394.18	227.72
394.56	227.70
394.94	227.74
395.31	227.87
395.69	227.96
396.06	228.02
396.44	228.06
396.82	227.96
397.19	228.11
397.57	228.18
397.95	228.28
398.32	228.32
398.70	228.48
399.07	228.64
399.45	228.82
399.82	228.88
400.20	228.86
400.58	228.99
400.95	229.06
401.33	229.19
401.70	229.44
402.08	229.67
402.45	229.89
402.83	230.10
403.20	230.34
403.58	230.61
403.95	230.88
404.33	231.08
404.71	231.40
405.08	231.67
405.46	231.84
405.83	232.10
406.21	232.31
406.58	232.59
406.96	232.83
407.33	233.10
407.70	233.52
408.08	234.02
408.45	234.43
408.83	234.77
409.20	235.22
409.58	235.46
409.95	235.94
410.33	236.33
410.70	236.74
411.08	237.18
411.45	237.63
411.82	238.03
412.20	238.57
412.57	239.19
412.95	239.70
413.32	240.41
413.69	241.00
414.07	241.72
414.44	242.43
414.82	243.23
415.19	243.98
415.56	244.71
415.94	245.56
416.31	246.57
416.68	247.49
417.06	248.60
417.43	249.63
417.81	250.74
418.18	252.03
418.55	253.27
418.93	254.58
419.30	255.90
419.67	257.38
420.04	258.83
420.42	260.36
420.79	262.12
421.16	263.91
421.54	265.72
421.91	267.57
422.28	269.39
422.66	271.32
423.03	273.41
423.40	275.42
423.77	277.59
424.15	279.70
424.52	282.04
424.89	284.52
425.26	287.09
425.64	289.33
426.01	291.60
426.38	294.07
426.75	296.71
427.13	299.52
427.50	302.25
427.87	305.32
428.24	308.30
428.61	311.02
428.99	314.00
429.36	317.30
429.73	320.49
430.10	323.64
430.47	326.99
430.85	330.29
431.22	333.88
431.59	337.59
431.96	341.02
432.33	344.88
432.70	348.55
433.08	352.80
433.45	356.72
433.82	360.96
434.19	365.43
434.56	369.64
434.93	373.51
435.30	377.51
435.68	381.80
436.05	385.95
436.42	390.19
436.79	393.98
437.16	398.19
437.53	402.68
437.90	407.05
438.27	411.00
438.64	415.43
439.01	419.37
439.38	422.70
439.75	426.17
440.13	430.03
440.50	433.63
440.87	436.41
441.24	439.69
441.61	443.06
441.98	445.39
442.35	448.15
442.72	451.06
443.09	453.92
443.46	455.43
443.83	456.40
444.20	457.14
444.57	458.27
444.94	458.62
445.31	459.00
445.68	459.40
446.05	459.65
446.42	459.06
446.79	458.50
447.16	457.73
447.53	456.95
447.90	455.03
448.27	453.10
448.64	450.65
449.01	448.59
449.37	445.23
449.74	442.33
450.11	438.86
450.48	435.06
450.85	431.07
451.22	427.83
451.59	424.76
451.96	421.62
452.33	417.77
452.70	414.01
453.07	409.50
453.43	405.14
453.80	400.72
454.17	396.43
454.54	392.30
454.91	388.21
455.28	384.15
455.65	380.26
456.02	376.58
456.38	373.32
456.75	369.43
457.12	366.15
457.49	362.65
457.86	359.35
458.23	356.42
458.59	353.24
458.96	350.02
459.33	346.97
459.70	344.17
460.07	341.78
460.43	339.09
460.80	336.70
461.17	334.46
461.54	332.23
461.91	329.99
462.27	327.69
462.64	325.59
463.01	323.50
463.38	321.60
463.74	319.30
464.11	317.37
464.48	315.65
464.85	313.79
465.21	312.36
465.58	310.97
465.95	309.34
466.32	307.84
466.68	306.35
467.05	305.07
467.42	303.70
467.78	302.28
468.15	301.03
468.52	299.98
468.88	298.49
469.25	297.25
469.62	296.24
469.98	295.22
470.35	294.31
470.72	293.40
471.08	292.34
471.45	291.53
471.82	290.59
472.18	289.58
472.55	288.88
472.92	288.01
473.28	287.13
473.65	286.34
474.02	285.70
474.38	285.10
474.75	284.42
475.11	283.78
475.48	283.27
475.85	282.70
476.21	282.32
476.58	281.97
476.94	281.63
477.31	281.37
477.67	281.12
478.04	280.85
478.41	280.65
478.77	280.52
479.14	280.37
479.50	280.34
479.87	280.37
480.23	280.38
480.60	280.45
480.96	280.39
481.33	280.57
481.69	280.69
482.06	280.75
482.42	280.96
482.79	281.29
483.15	281.64
483.52	282.15
483.88	282.31
484.25	282.74
484.61	283.24
484.98	283.58
485.34	284.28
485.71	284.96
486.07	285.71
486.44	286.43
486.80	287.19
487.17	288.11
487.53	289.09
487.90	290.03
488.26	291.15
488.62	292.49
488.99	293.75
489.35	295.14
489.72	296.66
490.08	298.27
490.44	299.88
490.81	301.63
491.17	303.51
491.54	305.59
491.90	307.71
492.26	310.03
492.63	312.48
492.99	314.75
493.36	317.30
493.72	319.96
494.08	322.80
494.45	325.87
494.81	329.10
495.17	332.45
495.54	336.03
495.90	339.69
496.26	343.60
496.63	347.72
496.99	352.01
497.35	356.60
497.72	361.20
498.08	366.02
498.44	371.18
498.80	376.60
499.17	382.32
499.53	388.09
499.89	394.27
500.26	400.57
500.62	407.18
500.98	414.08
501.34	421.27
501.71	428.69
502.07	436.43
502.43	444.35
502.79	452.68
503.16	461.24
503.52	469.92
503.88	479.00
504.24	488.43
504.60	498.22
504.97	508.37
505.33	518.89
505.69	530.04
506.05	541.15
506.41	552.36
506.78	564.16
507.14	576.19
507.50	588.52
507.86	601.42
508.22	614.64
508.59	627.85
508.95	641.97
509.31	656.19
509.67	670.90
510.03	685.74
510.39	701.00
510.75	716.85
511.12	733.29
511.48	749.69
511.84	766.52
512.20	783.49
512.56	801.06
512.92	819.11
513.28	837.28
513.64	855.86
514.00	875.05
514.37	894.24
514.73	913.91
515.09	933.67
515.45	953.88
515.81	974.42
516.17	995.83
516.53	1016.92
516.89	1038.29
517.25	1059.67
517.61	1081.60
517.97	1103.51
518.33	1125.18
518.69	1147.24
519.05	1170.18
519.41	1193.22
519.77	1217.07
520.13	1240.75
520.49	1264.14
520.85	1287.58
521.21	1311.17
521.57	1335.33
521.93	1358.97
522.29	1383.61
522.65	1407.73
523.01	1431.91
523.37	1455.57
523.73	1479.56
524.09	1503.70
524.45	1528.66
524.81	1554.10
525.17	1579.41
525.53	1605.09
525.89	1630.43
526.25	1656.30
526.61	1681.24
526.97	1706.59
527.33	1731.46
527.68	1756.93
528.04	1782.10
528.40	1807.80
528.76	1834.00
529.12	1859.43
529.48	1885.70
529.84	1910.11
530.20	1936.02
530.56	1962.75
530.91	1990.44
531.27	2016.80
531.63	2042.95
531.99	2068.36
532.35	2092.88
532.71	2117.00
533.07	2142.09
533.42	2166.93
533.78	2191.25
534.14	2215.94
534.50	2239.75
534.86	2264.00
535.21	2286.75
535.57	2311.30
535.93	2334.89
536.29	2357.86
536.65	2381.43
537.00	2403.82
537.36	2427.63
537.72	2450.24
538.08	2471.85
538.44	2492.30
538.79	2513.60
539.15	2534.15
539.51	2555.57
539.87	2577.56
540.22	2599.29
540.58	2620.27
540.94	2641.19
541.29	2661.79
541.65	2681.26
542.01	2701.59
542.37	2721.27
542.72	2740.83
543.08	2759.49
543.44	2778.97
543.79	2796.63
544.15	2814.32
544.51	2833.05
544.87	2850.67
545.22	2867.50
545.58	2883.94
545.94	2900.15
546.29	2916.05
546.65	2931.64
547.01	2946.68
547.36	2961.03
547.72	2975.14
548.07	2988.85
548.43	3002.95
548.79	3015.96
549.14	3029.19
549.50	3041.49
549.86	3053.48
550.21	3065.40
550.57	3077.10
550.92	3087.99
551.28	3099.13
551.64	3109.96
551.99	3120.10
552.35	3130.26
552.70	3140.74
553.06	3151.25
553.41	3161.98
553.77	3171.70
554.13	3181.86
554.48	3191.41
554.84	3200.50
555.19	3209.77
555.55	3217.96
555.90	3225.02
556.26	3233.15
556.61	3241.23
556.97	3248.54
557.32	3256.07
557.68	3264.03
558.03	3271.40
558.39	3278.07
558.74	3286.32
559.10	3293.07
559.45	3299.93
559.81	3307.07
560.16	3312.55
560.52	3317.56
560.87	3322.95
561.23	3327.65
561.58	3333.16
561.94	3337.60
562.29	3341.10
562.64	3344.62
563.00	3348.67
563.35	3354.10
563.71	3359.07
564.06	3363.46
564.42	3367.90
564.77	3372.12
565.12	3375.84
565.48	3379.38
565.83	3381.58
566.19	3383.86
566.54	3385.49
566.89	3386.92
567.25	3388.28
567.60	3390.77
567.96	3392.90
568.31	3393.79
568.66	3394.82
569.02	3395.20
569.37	3395.54
569.72	3396.70
570.08	3396.55
570.43	3396.39
570.78	3395.09
571.14	3392.86
571.49	3391.60
571.84	3391.38
572.20	3388.66
572.55	3386.13
572.90	3382.70
573.26	3380.57
573.61	3377.46
573.96	3374.65
574.31	3370.18
574.67	3364.89
575.02	3359.67
575.37	3355.07
575.72	3349.40
576.08	3344.93
576.43	3339.70
576.78	3334.66
577.13	3329.70
577.49	3325.01
577.84	3318.97
578.19	3313.16
578.54	3307.24
578.90	3299.99
579.25	3291.50
579.60	3284.60
579.95	3276.82
580.30	3269.25
580.66	3261.40
581.01	3253.20
581.36	3245.91
581.71	3239.54
582.06	3232.61
582.42	3224.52
582.77	3216.20
583.12	3208.16
583.47	3200.72
583.82	3193.41
584.17	3184.31
584.53	3175.89
584.88	3167.83
585.23	3160.14
585.58	3151.80
585.93	3143.62
586.28	3136.07
586.63	3128.43
586.98	3120.89
587.34	3113.40
587.69	3105.70
588.04	3097.69
588.39	3089.61
588.74	3079.36
589.09	3069.54
589.44	3059.39
589.79	3051.17
590.14	3042.62
590.49	3034.15
590.84	3024.44
591.19	3014.82
591.54	3004.88
591.89	2993.03
592.25	2982.37
592.60	2971.17
592.95	2960.31
593.30	2949.15
593.65	2937.82
594.00	2926.76
594.35	2915.89
594.70	2903.77
595.05	2892.83
595.40	2881.89
595.75	2870.51
596.10	2860.99
596.45	2850.98
596.80	2841.87
597.15	2831.63
597.50	2821.09
597.85	2810.67
598.19	2800.84
598.54	2790.36
598.89	2781.11
599.24	2773.13
599.59	2763.42
599.94	2753.76
600.29	2743.85
600.64	2734.04
600.99	2723.02
601.34	2712.93
601.69	2701.75
602.04	2692.30
602.39	2682.11
602.74	2672.79
603.08	2663.36
603.43	2653.49
603.78	2643.25
604.13	2632.50
604.48	2621.50
604.83	2610.53
605.18	2600.40
605.53	2588.11
605.87	2575.62
606.22	2564.21
606.57	2552.16
606.92	2540.98
607.27	2530.24
607.62	2519.61
607.96	2508.85
608.31	2499.34
608.66	2487.63
609.01	2475.90
609.36	2463.24
609.70	2450.12
610.05	2436.71
610.40	2424.50
610.75	2411.76
611.10	2399.27
611.44	2385.86
611.79	2374.26
612.14	2361.44
612.49	2347.62
612.83	2335.15
613.18	2323.21
613.53	2311.40
613.88	2298.66
614.22	2285.94
614.57	2272.70
614.92	2259.81
615.27	2247.65
615.61	2234.30
615.96	2222.10
616.31	2211.15
616.65	2201.10
617.00	2190.06
617.35	2178.69
617.70	2166.16
618.04	2154.00
618.39	2142.06
618.74	2131.61
619.08	2118.96
619.43	2107.84
619.78	2097.18
620.12	2086.27
620.47	2075.01
620.82	2062.60
621.16	2051.09
621.51	2040.11
621.85	2028.85
622.20	2016.93
622.55	2004.94
622.89	1994.07
623.24	1983.01
623.59	1972.03
623.93	1960.29
624.28	1949.23
624.62	1937.61
624.97	1927.02
625.32	1916.48
625.66	1905.91
626.01	1894.56
626.35	1883.58
626.70	1872.30
627.04	1861.48
627.39	1849.90
627.73	1838.53
628.08	1828.08
628.43	1817.39
628.77	1806.18
629.12	1795.21
629.46	1784.51
629.81	1773.02
630.15	1761.34
630.50	1749.90
630.84	1737.24
631.19	1725.06
631.53	1713.47
631.88	1702.05
632.22	1689.50
632.57	1678.35
632.91	1666.31
633.26	1654.71
633.60	1643.33
633.95	1632.30
634.29	1621.50
634.64	1611.21
634.98	1600.30
635.32	1589.92
635.67	1580.27
636.01	1569.71
636.36	1559.05
636.70	1548.88
637.05	1538.84
637.39	1529.50
637.73	1519.73
638.08	1510.74
638.42	1501.85
638.77	1492.31
639.11	1482.70
639.45	1473.60
639.80	1463.55
640.14	1454.32
640.49	1445.05
640.83	1435.40
641.17	1426.20
641.52	1416.30
641.86	1406.66
642.20	1397.58
642.55	1387.60
642.89	1377.96
643.23	1368.17
643.58	1359.47
643.92	1349.62
644.26	1340.15
644.61	1330.60
644.95	1321.01
645.29	1310.81
645.64	1300.39
645.98	1290.70
646.32	1281.58
646.66	1272.37
647.01	1263.04
647.35	1253.88
647.69	1244.33
648.04	1235.83
648.38	1226.00
648.72	1216.34
649.06	1206.78
649.41	1197.41
649.75	1187.77
650.09	1177.83
650.43	1168.50
650.78	1158.65
651.12	1149.55
651.46	1140.82
651.80	1131.81
652.14	1123.11
652.49	1114.63
652.83	1106.45
653.17	1097.55
653.51	1088.49
653.85	1080.03
654.20	1071.25
654.54	1062.13
654.88	1053.79
655.22	1044.55
655.56	1035.95
655.90	1027.61
656.25	1019.46
656.59	1011.27
656.93	1003.52
657.27	995.65
657.61	987.37
657.95	979.81
658.29	972.21
658.64	964.31
658.98	955.97
659.32	947.54
659.66	939.62
660.00	931.71
660.34	924.09
660.68	916.84
661.02	908.94
661.36	901.81
661.70	894.66
662.05	887.47
662.39	880.69
662.73	873.80
663.07	867.17
663.41	860.42
663.75	853.71
664.09	846.94
664.43	840.29
664.77	834.25
665.11	827.52
665.45	820.99
665.79	814.36
666.13	808.36
666.47	802.28
666.81	796.00
667.15	789.58
667.49	783.54
667.83	777.45
668.17	771.53
668.51	765.33
668.85	759.41
669.19	753.66
669.53	747.93
669.87	742.07
670.21	736.37
670.55	730.70
670.89	725.39
671.23	720.21
671.57	714.80
671.91	709.19
672.25	703.96
672.58	698.93
672.92	693.83
673.26	688.68
673.60	683.88
673.94	679.23
674.28	674.71
674.62	670.35
674.96	665.45
675.30	661.01
675.64	656.52
675.97	652.09
676.31	647.49
676.65	643.10
676.99	638.81
677.33	634.10
677.67	629.58
678.01	625.02
678.34	620.45
678.68	616.10
679.02	611.97
679.36	607.90
679.70	603.60
680.04	599.58
680.37	595.27
680.71	591.10
681.05	587.17
681.39	583.05
681.73	579.03
682.06	575.41
682.40	571.63
682.74	567.75
683.08	563.76
683.42	560.02
683.75	555.95
684.09	552.10
684.43	548.50
684.77	544.89
685.10	541.07
685.44	537.49
685.78	534.03
686.12	530.56
686.45	526.91
686.79	523.37
687.13	520.02
687.46	516.71
687.80	513.34
688.14	509.76
688.48	506.68
688.81	503.07
689.15	499.84
689.49	496.33
689.82	493.08
690.16	490.01
690.50	486.80
690.83	484.02
691.17	480.93
691.51	478.10
691.84	475.20
692.18	472.30
692.52	469.16
692.85	466.11
693.19	463.17
693.52	460.36
693.86	457.48
694.20	454.40
694.53	451.72
694.87	448.92
695.21	446.08
695.54	443.06
695.88	440.40
696.21	437.56
696.55	435.11
696.88	432.37
697.22	429.83
697.56	427.50
697.89	424.79
698.23	422.49
698.56	419.97
698.90	417.48
699.23	415.04
699.57	412.70
699.90	410.41
700.24	408.10
700.58	405.78
700.91	403.50
701.25	401.39
701.58	399.21
701.92	397.01
702.25	394.95
702.59	392.92
702.92	391.03
703.26	389.24
703.59	387.27
703.93	385.66
704.26	383.75
704.60	381.70
704.93	379.78
705.26	377.88
705.60	376.06
705.93	374.31
706.27	372.78
706.60	371.31
706.94	369.53
707.27	367.78
707.61	366.09
707.94	364.58
708.27	363.08
708.61	361.39
708.94	360.10
709.28	358.71
709.61	357.33
709.94	355.89
710.28	354.12
710.61	352.59
710.95	351.01
711.28	349.68
711.61	348.20
711.95	346.83
712.28	345.44
712.61	343.91
712.95	342.52
713.28	341.07
713.61	339.59
713.95	338.23
714.28	336.91
714.61	335.68
714.95	334.32
715.28	332.89
715.61	331.48
715.95	330.11
716.28	328.70
716.61	327.44
716.95	326.08
717.28	325.02
717.61	323.98
717.94	322.82
718.28	321.46
718.61	320.28
718.94	319.21
719.27	318.01
719.61	317.12
719.94	316.05
720.27	314.96
720.60	313.95
720.94	313.04
721.27	312.07
721.60	310.94
721.93	309.97
722.27	309.09
722.60	308.31
722.93	307.27
723.26	306.41
723.59	305.50
723.93	304.63
724.26	303.67
724.59	302.67
724.92	301.62
725.25	300.85
725.59	300.11
725.92	299.29
726.25	298.50
726.58	297.57
726.91	296.68
727.24	295.81
727.57	295.04
727.91	294.08
728.24	293.29
728.57	292.52
728.90	291.80
729.23	290.92
729.56	290.22
729.89	289.60
730.22	288.80
730.55	288.01
730.89	287.33
731.22	286.70
731.55	285.99
731.88	285.35
732.21	284.62
732.54	283.83
732.87	283.12
733.20	282.46
733.53	281.83
733.86	281.24
734.19	280.64
734.52	279.93
734.85	279.54
735.18	278.97
735.51	278.42
735.84	277.83
736.17	277.33
736.50	276.70
736.83	276.36
737.16	275.91
737.49	275.37
737.82	274.83
738.15	274.26
738.48	273.80
738.81	273.31
739.14	272.92
739.47	272.45
739.80	271.99
740.13	271.42
740.46	270.93
740.79	270.50
741.12	270.03
741.45	269.52
741.78	268.90
742.11	268.38
742.44	267.94
742.77	267.58
743.10	267.09
743.43	266.66
743.75	265.90
744.08	265.70
744.41	265.28
744.74	264.90
745.07	264.53
745.40	264.12
745.73	263.84
746.06	263.34
746.39	262.98
746.71	262.57
747.04	262.33
747.37	261.79
747.70	261.40
748.03	260.99
748.36	260.74
748.68	260.45
749.01	260.15
749.34	259.81
749.67	259.39
750.00	259.10
750.33	258.91
750.65	258.61
750.98	257.97
751.31	257.62
751.64	257.26
751.97	257.01
752.29	256.58
752.62	256.24
752.95	255.99
753.28	255.62
753.60	255.41
753.93	255.08
754.26	254.90
754.59	254.67
754.91	254.40
755.24	254.04
755.57	253.63
755.90	253.23
756.22	253.02
756.55	252.77
756.88	252.43
757.20	251.93
757.53	251.54
757.86	251.37
758.19	251.19
758.51	251.00
758.84	250.73
759.17	250.63
759.49	250.35
759.82	250.17
760.15	250.03
760.47	249.69
760.80	249.39
761.13	249.22
761.45	248.89
761.78	248.68
762.11	248.51
762.43	248.34
762.76	248.23
763.08	247.91
763.41	247.66
763.74	247.45
764.06	247.26
764.39	247.03
764.71	246.73
765.04	246.39
765.37	246.08
765.69	245.73
766.02	245.46
766.34	245.17
766.67	244.83
767.00	244.64
767.32	244.57
767.65	244.45
767.97	244.07
768.30	243.90
768.62	243.56
768.95	243.30
769.27	243.09
769.60	242.82
769.92	242.65
770.25	242.41
770.57	242.21
770.90	242.02
771.22	241.80
771.55	241.66
771.87	241.51
772.20	241.35
772.52	241.30
772.85	241.37
773.17	241.25
773.50	241.13
773.82	240.88
774.15	240.52
774.47	240.22
774.80	240.12
775.12	239.96
775.45	239.90
775.77	239.71
776.09	239.64
776.42	239.46
776.74	239.42
777.07	239.25
777.39	239.08
777.72	238.85
778.04	238.90
778.36	238.66
778.69	238.55
779.01	238.46
779.33	238.25
779.66	237.85
779.98	237.68
780.31	237.59
780.63	237.51
780.95	237.46
781.28	237.48
781.60	237.34
781.92	237.18
782.25	237.10
782.57	237.06
782.89	236.96
783.22	236.92
783.54	236.67
783.86	236.68
784.19	236.69
784.51	236.70
784.83	236.52
785.16	236.49
785.48	236.35
785.80	236.17
786.12	236.11
786.45	236.07
786.77	236.12
787.09	236.10
787.42	235.95
787.74	235.99
788.06	235.86
788.38	235.92
788.71	235.91
789.03	235.87
789.35	235.80
789.67	235.78
789.99	235.78
790.32	235.71
790.64	235.67
790.96	235.71
791.28	235.52
791.61	235.56
791.93	235.62
792.25	235.60
792.57	235.79
792.89	235.65
793.21	235.55
793.54	235.52
793.86	235.39
794.18	235.40
794.50	235.25
794.82	235.24
795.14	235.16
795.47	235.12
795.79	235.09
796.11	235.14
796.43	234.98
796.75	234.89
797.07	234.91
797.39	234.84
797.71	234.67
798.04	234.80
798.36	234.73
798.68	234.63
799.00	234.65
799.32	234.42
799.64	234.46
799.96	234.45
800.28	234.21
800.60	234.09
800.92	234.13
801.24	234.14
801.56	234.12
801.89	234.10
802.21	234.06
802.53	233.96
802.85	233.82
803.17	233.88
803.49	233.80
803.81	233.72
804.13	233.63
804.45	233.61
804.77	233.56
805.09	233.52
805.41	233.42
805.73	233.26
806.05	233.20
806.37	233.21
806.69	233.08
807.01	233.16
807.33	233.12
807.65	232.85
807.97	232.83
808.28	232.74
808.60	232.70
808.92	232.55
809.24	232.60
809.56	232.55
809.88	232.43
810.20	232.41
810.52	232.41
810.84	232.38
811.16	232.33
811.48	232.22
811.80	232.27
812.12	232.28
812.43	232.28
812.75	232.25
813.07	232.12
813.39	232.16
813.71	232.11
814.03	232.04
814.35	232.00
814.67	231.89
814.98	231.79
815.30	231.71
815.62	231.70
815.94	231.54
816.26	231.63
816.58	231.57
816.89	231.50
817.21	231.41
817.53	231.31
817.85	231.23
818.17	231.24
818.48	231.12
818.80	231.09
819.12	231.10
819.44	231.07
819.76	231.06
820.07	231.02
820.39	230.99
820.71	231.01
821.03	231.03
821.34	230.90
821.66	230.94
821.98	230.97
822.30	230.94
822.61	231.04
822.93	230.91
823.25	230.98
823.57	230.98
823.88	231.03
824.20	231.15
824.52	231.10
824.83	231.01
825.15	231.02
825.47	231.02
825.79	231.00
826.10	230.99
826.42	230.97
826.74	230.92
827.05	230.89
827.37	230.86
827.69	230.89
828.00	230.97
828.32	230.83
828.64	230.77
828.95	230.87
829.27	230.81
829.58	230.67
829.90	230.62
830.22	230.73
830.53	230.62
830.85	230.63
831.17	230.58
831.48	230.52
831.80	230.45
832.11	230.31
832.43	230.38
832.75	230.41
833.06	230.55
833.38	230.58
833.69	230.51
834.01	230.52
834.32	230.44
834.64	230.51
834.96	230.59
835.27	230.63
835.59	230.52
835.90	230.49
836.22	230.61
836.53	230.56
836.85	230.43
837.16	230.73
837.48	230.60
837.79	230.71
838.11	230.76
838.42	230.82
838.74	230.91
839.05	230.74
839.37	230.67
839.68	230.55
840.00	230.46
840.31	230.49
840.63	230.43
840.94	230.46
841.26	230.36
841.57	230.37
841.88	230.45
842.20	230.47
842.51	230.37
842.83	230.37
843.14	230.49
843.46	230.42
843.77	230.15
844.08	230.15
844.40	230.06
844.71	229.95
845.03	229.84
845.34	229.73
845.65	229.78
845.97	229.84
846.28	229.75
846.60	229.78
846.91	229.78
847.22	229.71
847.54	229.78
847.85	229.74
848.16	229.66
848.48	229.43
848.79	229.46
849.10	229.56
849.42	229.50
849.73	229.31
850.04	229.33
850.36	229.26
850.67	229.26
850.98	229.26
851.30	229.33
851.61	229.31
851.92	229.36
852.23	229.39
852.55	229.29
852.86	229.31
853.17	229.19
853.49	229.25
853.80	229.40
854.11	229.32
854.42	229.31
854.74	229.30
855.05	229.34
855.36	229.19
855.67	229.16
855.99	229.06
856.30	229.35
856.61	229.21
856.92	229.20
857.23	229.20
857.55	229.11
857.86	229.00
858.17	229.00
858.48	228.94
858.79	228.92
859.11	228.95
859.42	228.97
859.73	229.02
860.04	228.95
860.35	228.79
860.66	228.78
860.98	228.74
861.29	228.70
861.60	228.66
861.91	228.81
862.22	228.81
862.53	228.85
862.84	228.60
863.16	228.70
863.47	228.73
863.78	228.77
864.09	228.81
864.40	228.89
864.71	228.96
865.02	229.05
865.33	228.95
865.64	229.04
865.95	228.98
866.27	229.10
866.58	229.07
866.89	229.12
867.20	229.03
867.51	228.98
867.82	228.94
868.13	228.95
868.44	228.84
868.75	228.90
869.06	228.98
869.37	229.03
869.68	229.03
869.99	229.15
870.30	229.11
870.61	229.19
870.92	229.14
871.23	229.11
871.54	229.14
871.85	229.22
872.16	229.10
872.47	229.12
872.78	229.05
873.09	229.14
873.40	229.11
873.71	229.17
874.02	229.30
874.33	229.48
874.64	229.52
874.95	229.60
875.26	229.50
875.56	229.47
875.87	229.50
876.18	229.46
876.49	229.61
876.80	229.60
877.11	229.52
877.42	229.56
877.73	229.61
878.04	229.55
878.35	229.51
878.66	229.50
878.96	229.49
879.27	229.55
879.58	229.50
879.89	229.56
880.20	229.75
880.51	229.70
880.82	229.60
881.12	229.68
881.43	229.65
881.74	229.64
882.05	229.62
882.36	229.61
882.67	229.66
882.97	229.43
883.28	229.31
883.59	229.35
883.90	229.41
884.21	229.41
884.51	229.31
884.82	229.28
885.13	229.39
885.44	229.40
885.74	229.36
886.05	229.40
886.36	229.44
886.67	229.23
886.98	229.36
887.28	229.40
887.59	229.38
887.90	229.22
888.20	229.28
888.51	229.30
888.82	229.25
889.13	229.29
889.43	229.44
889.74	229.52
890.05	229.50
890.35	229.36
890.66	229.34
890.97	229.36
891.28	229.37
891.58	229.31
891.89	229.31
892.20	229.26
892.50	229.16
892.81	229.12
893.12	229.15
893.42	229.11
893.73	229.11
894.04	229.00
894.34	229.06
894.65	228.99
894.95	228.98
895.26	228.99
895.57	229.09
895.87	228.92
896.18	228.94
896.48	228.85
896.79	229.01
897.10	229.00
897.40	229.08
897.71	229.16
898.01	229.08
898.32	229.05
898.63	229.06
898.93	229.11
899.24	229.04
899.54	229.02
899.85	228.93
900.15	228.95
900.46	228.92
900.76	228.94
901.07	228.84
901.38	228.90
901.68	229.01
901.99	228.89
902.29	228.86
902.60	228.93
902.90	229.02
903.21	228.93
903.51	228.79
903.82	228.77
904.12	228.81
904.43	228.80
904.73	228.87
905.03	228.93
905.34	229.10
905.64	229.13
905.95	229.20
906.25	229.22
906.56	229.23
906.86	229.25
907.17	229.37
907.47	229.47
907.77	229.37
908.08	229.17
908.38	229.10
908.69	229.21
908.99	229.11
909.30	229.07
909.60	229.16
909.90	229.30
910.21	229.28
910.51	229.20
910.81	229.28
911.12	229.20
911.42	229.20
911.73	229.00
912.03	228.98
912.33	229.00
912.64	229.05
912.94	229.00
913.24	228.99
913.55	228.95
913.85	229.01
914.15	229.08
914.46	229.12
914.76	229.17
915.06	229.12
915.37	229.20
915.67	229.27
915.97	229.30
916.27	229.17
916.58	229.28
916.88	229.30
917.18	229.27
917.49	229.37
917.79	229.23
918.09	229.23
918.39	229.34
918.70	229.30
919.00	229.20
919.30	229.29
919.60	229.28
919.91	229.25
920.21	229.15
920.51	229.06
920.81	229.09
921.12	229.06
921.42	228.99
921.72	228.90
922.02	228.93
922.32	228.96
922.63	228.93
922.93	228.94
923.23	228.92
923.53	228.93
923.83	228.89
924.13	228.98
924.44	229.06
924.74	228.99
925.04	229.08
925.34	229.11
925.64	229.18
925.94	229.16
926.24	229.22
926.55	229.21
926.85	229.23
927.15	229.13
927.45	229.17
927.75	229.17
928.05	229.17
928.35	229.10
928.65	228.99
928.95	229.02
929.26	228.93
929.56	228.89
929.86	228.90
930.16	228.88
930.46	228.85
930.76	228.89
931.06	228.88
931.36	228.75
931.66	228.79
931.96	228.58
932.26	228.61
932.56	228.47
932.86	228.46
933.16	228.55
933.46	228.61
933.76	228.62
934.06	228.64
934.36	228.71
934.66	228.71
934.96	228.72
935.26	228.73
935.56	228.73
935.86	228.76
936.16	228.71
936.46	228.67
936.76	228.61
937.06	228.50
937.36	228.53
937.66	228.45
937.96	228.36
938.26	228.41
938.56	228.32
938.86	228.40
939.16	228.50
939.46	228.40
939.76	228.38
940.06	228.37
940.35	228.35
940.65	228.19
940.95	228.20
941.25	228.15
941.55	228.16
941.85	228.12
942.15	228.11
942.45	228.25
942.75	228.32
943.04	228.35
943.34	228.38
943.64	228.34
943.94	228.34
944.24	228.41
944.54	228.43
944.84	228.44
945.13	228.44
945.43	228.39
945.73	228.43
946.03	228.48
946.33	228.53
946.62	228.55
946.92	228.60
947.22	228.57
947.52	228.60
947.82	228.73
948.11	228.80
948.41	228.79
948.71	228.69
949.01	228.66
949.31	228.81
949.60	228.84
949.90	228.92
950.20	228.98
950.50	228.98
950.79	229.00
951.09	229.12
951.39	229.09
951.69	229.08
951.98	229.20
952.28	229.22
952.58	229.16
952.87	229.24
953.17	229.32
953.47	229.37
953.76	229.34
954.06	229.26
954.36	229.22
954.66	229.26
954.95	229.30
955.25	229.34
955.55	229.22
955.84	229.24
956.14	229.17
956.44	229.25
956.73	229.29
957.03	229.24
957.32	229.26
957.62	229.26
957.92	229.32
958.21	229.22
958.51	229.53
958.81	229.56
959.10	229.57
959.40	229.67
959.69	229.73
959.99	229.79
960.29	229.74
960.58	229.68
960.88	229.73
961.17	229.69
961.47	229.66
961.76	229.67
962.06	229.60
962.36	229.56
962.65	229.57
962.95	229.55
963.24	229.50
963.54	229.46
963.83	229.39
964.13	229.38
964.42	229.36
964.72	228.98
965.01	228.92
965.31	228.82
965.60	228.69
965.90	228.72
966.19	228.74
966.49	228.79
966.78	228.84
967.08	228.75
967.37	228.82
967.67	228.80
967.96	228.76
968.26	228.76
968.55	228.73
968.85	228.65
969.14	228.58
969.43	228.59
969.73	228.50
970.02	228.51
970.32	228.49
970.61	228.39
970.91	228.39
971.20	228.37
971.49	228.33
971.79	228.36
972.08	228.15
972.38	227.95
972.67	227.89
972.96	227.84
973.26	227.79
973.55	227.71
973.85	227.69
974.14	227.69
974.43	227.59
974.73	227.59
975.02	227.50
975.31	227.57
975.61	227.48
975.90	227.51
976.19	227.46
976.49	227.34
976.78	227.45
977.07	227.43
977.37	227.42
977.66	227.37
977.95	227.31
978.24	227.33
978.54	227.39
978.83	227.43
979.12	227.45
979.42	227.54
979.71	227.50
980.00	227.50
980.29	227.40
980.59	227.45
980.88	227.47
981.17	227.52
981.46	227.42
981.76	227.50
982.05	227.54
982.34	227.58
982.63	227.66
982.93	227.58
983.22	227.65
983.51	227.71
983.80	227.77
984.09	227.75
984.39	227.81
984.68	227.83
984.97	227.81
985.26	227.89
985.55	228.00
985.85	228.03
986.14	228.14
986.43	228.38
986.72	228.34
987.01	228.41
987.30	228.43
987.59	228.50
987.89	228.59
988.18	228.67
988.47	228.70
988.76	228.76
989.05	228.78
989.34	228.87
989.63	228.93
989.92	229.00
990.22	229.09
990.51	229.16
990.80	229.27
991.09	229.36
991.38	229.43
991.67	229.26
991.96	229.34
992.25	229.31
992.54	229.16
992.83	229.19
993.12	229.25
993.41	229.33
993.70	229.43
993.99	229.42
994.28	229.35
994.58	229.49
994.87	229.58
995.16	229.58
995.45	229.54
995.74	229.44
996.03	229.43
996.32	229.44
996.61	229.37
996.90	229.34
997.19	229.38
997.48	229.31
997.77	229.29
998.06	229.32
998.34	229.38
998.63	229.40
998.92	229.52
999.21	229.46
999.50	229.45
999.79	229.33
1000.08	229.36
1000.37	229.36
1000.66	229.31
1000.95	229.27
1001.24	229.34
1001.53	229.28
1001.82	229.28
1002.11	229.29
1002.40	229.23
1002.68	229.33
1002.97	229.34
1003.26	229.16
1003.55	229.06
1003.84	229.05
1004.13	229.00
1004.42	228.81
1004.71	228.85
1004.99	228.73
1005.28	228.72
1005.57	228.68
1005.86	228.63
1006.15	228.46
1006.44	228.45
1006.72	228.39
1007.01	228.31
1007.30	228.20
1007.59	228.19
1007.88	228.12
1008.17	228.07
1008.45	228.07
1008.74	227.95
1009.03	227.86
1009.32	227.80
1009.60	227.80
1009.89	227.69
1010.18	227.58
1010.47	227.54
1010.76	227.44
1011.04	227.33
1011.33	227.38
1011.62	227.29
1011.91	227.25
1012.19	227.28
1012.48	227.21
1012.77	227.17
1013.05	227.27
1013.34	227.27
1013.63	227.21
1013.92	227.31
1014.20	227.32
1014.49	227.25
1014.78	227.19
1015.06	227.14
1015.35	227.27
1015.64	227.22
1015.92	227.34
1016.21	227.33
1016.50	227.37
1016.78	227.46
1017.07	227.57
1017.36	227.41
1017.64	227.45
1017.93	227.43
1018.22	227.37
1018.50	227.37
1018.79	227.44
1019.08	227.33
1019.36	227.31
1019.65	227.28
1019.93	227.28
1020.22	227.28
1020.51	227.39
1020.79	227.45
1021.08	225.80
1021.36	226.70
1021.65	229.20
1021.94	228.40
1022.22	226.10
1022.51	226.70
1022.79	228.30
1023.08	228.20
1023.36	229.50
1023.65	227.50
>>>>>End Processed Spectral Data<<<<<
