SpectraSuite Data File
++++++++++++++++++++++++++++++++++++
Date: Fri Feb 01 14:41:22 EST 2013
User: group
Dark Spectrum Present: No
Reference Spectrum Present: No
Number of Sampled Component Spectra: 1
Spectrometers: USB2E7196
Integration Time (usec): 70000 (USB2E7196)
Spectra Averaged: 10 (USB2E7196)
Boxcar Smoothing: 10 (USB2E7196)
Correct for Electrical Dark: No (USB2E7196)
Strobe/Lamp Enabled: No (USB2E7196)
Correct for Detector Non-linearity: No (USB2E7196)
Correct for Stray Light: No (USB2E7196)
Number of Pixels in Processed Spectrum: 2048
>>>>>Begin Processed Spectral Data<<<<<
339.09	0.00
339.48	215.80
339.86	217.80
340.24	216.70
340.63	220.30
341.01	225.80
341.39	221.80
341.78	223.70
342.16	225.70
342.54	227.00
342.93	214.69
343.31	225.60
343.69	226.07
344.07	226.55
344.46	227.14
344.84	227.57
345.22	227.74
345.60	228.12
345.99	228.35
346.37	228.44
346.75	228.57
347.13	228.72
347.52	228.65
347.90	228.82
348.28	228.82
348.66	228.93
349.05	228.78
349.43	228.90
349.81	229.01
350.19	229.04
350.57	229.09
350.96	229.18
351.34	229.17
351.72	229.32
352.10	229.40
352.48	229.42
352.87	229.43
353.25	229.44
353.63	229.48
354.01	229.47
354.39	229.61
354.77	229.58
355.15	229.66
355.54	229.69
355.92	229.70
356.30	229.80
356.68	229.88
357.06	230.02
357.44	230.00
357.82	229.92
358.20	230.04
358.58	230.02
358.97	230.02
359.35	230.06
359.73	230.17
360.11	230.25
360.49	230.32
360.87	230.32
361.25	230.35
361.63	230.42
362.01	230.50
362.39	230.60
362.77	230.66
363.15	230.60
363.53	230.66
363.91	230.65
364.29	230.66
364.67	230.55
365.05	230.47
365.43	230.41
365.81	230.52
366.19	230.65
366.57	230.75
366.95	230.75
367.33	230.80
367.71	230.78
368.09	230.79
368.47	230.77
368.85	230.81
369.23	230.79
369.61	230.72
369.99	230.80
370.37	230.85
370.75	230.89
371.13	230.77
371.51	230.84
371.89	230.81
372.27	230.77
372.65	230.70
373.03	230.76
373.41	230.71
373.78	230.60
374.16	230.32
374.54	230.20
374.92	230.08
375.30	229.93
375.68	229.77
376.06	229.58
376.44	229.49
376.82	229.40
377.19	229.47
377.57	229.36
377.95	229.28
378.33	229.00
378.71	228.81
379.09	228.82
379.47	228.75
379.84	228.66
380.22	228.60
380.60	228.42
380.98	228.27
381.36	228.25
381.73	228.19
382.11	228.21
382.49	228.07
382.87	228.12
383.25	228.08
383.62	228.34
384.00	228.24
384.38	228.18
384.76	228.16
385.13	228.09
385.51	227.96
385.89	227.75
386.27	227.77
386.64	227.78
387.02	227.73
387.40	227.62
387.78	227.64
388.15	227.58
388.53	227.64
388.91	227.60
389.29	227.52
389.66	227.46
390.04	227.39
390.42	227.46
390.79	227.32
391.17	227.37
391.55	227.08
391.92	227.21
392.30	227.24
392.68	227.12
393.05	227.07
393.43	227.09
393.81	227.16
394.18	227.19
394.56	227.19
394.94	227.24
395.31	227.16
395.69	227.16
396.06	227.23
396.44	227.21
396.82	227.32
397.19	227.52
397.57	227.59
397.95	227.69
398.32	227.69
398.70	227.81
399.07	227.90
399.45	228.00
399.82	227.99
400.20	228.05
400.58	228.17
400.95	228.22
401.33	228.38
401.70	228.70
402.08	228.74
402.45	228.97
402.83	229.08
403.20	229.39
403.58	229.54
403.95	229.70
404.33	229.86
404.71	229.94
405.08	230.18
405.46	230.34
405.83	230.51
406.21	230.71
406.58	230.90
406.96	231.10
407.33	231.36
407.70	231.68
408.08	232.08
408.45	232.40
408.83	232.71
409.20	232.94
409.58	233.04
409.95	233.36
410.33	233.58
410.70	233.92
411.08	234.23
411.45	234.67
411.82	235.07
412.20	235.60
412.57	236.20
412.95	236.50
413.32	237.07
413.69	237.48
414.07	238.13
414.44	238.71
414.82	239.30
415.19	239.97
415.56	240.59
415.94	241.14
416.31	241.95
416.68	242.79
417.06	243.56
417.43	244.44
417.81	245.40
418.18	246.47
418.55	247.50
418.93	248.57
419.30	249.57
419.67	250.80
420.04	251.88
420.42	253.06
420.79	254.60
421.16	256.07
421.54	257.67
421.91	259.02
422.28	260.58
422.66	262.19
423.03	263.76
423.40	265.44
423.77	267.25
424.15	269.01
424.52	270.88
424.89	273.11
425.26	274.97
425.64	276.75
426.01	278.66
426.38	280.63
426.75	282.67
427.13	284.86
427.50	287.07
427.87	289.44
428.24	291.64
428.61	293.64
428.99	296.08
429.36	298.59
429.73	301.27
430.10	303.74
430.47	306.41
430.85	309.10
431.22	311.92
431.59	314.94
431.96	317.78
432.33	320.77
432.70	323.51
433.08	326.92
433.45	330.30
433.82	333.43
434.19	336.88
434.56	340.34
434.93	343.60
435.30	346.78
435.68	350.41
436.05	353.89
436.42	357.40
436.79	360.26
437.16	363.56
437.53	366.92
437.90	370.37
438.27	373.57
438.64	376.99
439.01	379.95
439.38	382.55
439.75	385.18
440.13	388.12
440.50	391.00
440.87	393.34
441.24	395.61
441.61	398.31
441.98	400.32
442.35	402.36
442.72	404.50
443.09	406.68
443.46	407.61
443.83	408.36
444.20	408.90
444.57	409.88
444.94	410.18
445.31	410.57
445.68	410.97
446.05	410.94
446.42	410.25
446.79	409.85
447.16	409.14
447.53	408.62
447.90	407.05
448.27	405.60
448.64	403.53
449.01	402.06
449.37	399.44
449.74	397.05
450.11	394.36
450.48	391.35
450.85	388.16
451.22	385.54
451.59	383.00
451.96	380.55
452.33	377.50
452.70	374.50
453.07	371.00
453.43	367.28
453.80	363.96
454.17	360.83
454.54	357.63
454.91	354.31
455.28	350.98
455.65	347.98
456.02	345.05
456.38	342.41
456.75	339.10
457.12	336.40
457.49	333.59
457.86	330.92
458.23	328.50
458.59	325.94
458.96	323.42
459.33	321.18
459.70	318.82
460.07	316.89
460.43	314.78
460.80	312.72
461.17	311.04
461.54	309.22
461.91	307.32
462.27	305.53
462.64	304.12
463.01	302.53
463.38	300.92
463.74	299.15
464.11	297.66
464.48	296.40
464.85	294.96
465.21	293.90
465.58	292.69
465.95	291.36
466.32	290.28
466.68	289.29
467.05	288.10
467.42	287.08
467.78	285.99
468.15	284.96
468.52	284.11
468.88	282.91
469.25	281.92
469.62	281.21
469.98	280.31
470.35	279.41
470.72	278.57
471.08	277.72
471.45	276.92
471.82	276.23
472.18	275.35
472.55	274.85
472.92	274.09
473.28	273.62
473.65	273.02
474.02	272.32
474.38	271.67
474.75	271.23
475.11	270.67
475.48	270.15
475.85	269.87
476.21	269.56
476.58	269.30
476.94	268.97
477.31	268.65
477.67	268.39
478.04	268.07
478.41	267.90
478.77	268.00
479.14	267.79
479.50	267.65
479.87	267.66
480.23	267.63
480.60	267.55
480.96	267.38
481.33	267.46
481.69	267.55
482.06	267.55
482.42	267.61
482.79	267.78
483.15	267.90
483.52	268.02
483.88	268.22
484.25	268.38
484.61	268.50
484.98	268.81
485.34	269.15
485.71	269.48
486.07	269.73
486.44	269.94
486.80	270.47
487.17	271.03
487.53	271.63
487.90	272.14
488.26	272.90
488.62	273.64
488.99	274.43
489.35	275.21
489.72	276.14
490.08	276.96
490.44	277.87
490.81	278.99
491.17	280.12
491.54	281.23
491.90	282.65
492.26	284.09
492.63	285.37
492.99	286.77
493.36	288.52
493.72	290.45
494.08	292.31
494.45	294.21
494.81	296.25
495.17	298.35
495.54	300.63
495.90	302.91
496.26	305.40
496.63	308.01
496.99	310.90
497.35	313.80
497.72	317.01
498.08	320.23
498.44	323.47
498.80	327.00
499.17	330.55
499.53	334.34
499.89	338.45
500.26	342.67
500.62	347.07
500.98	351.61
501.34	356.18
501.71	361.00
502.07	366.06
502.43	371.31
502.79	376.78
503.16	382.49
503.52	388.53
503.88	394.49
504.24	400.71
504.60	407.19
504.97	414.05
505.33	421.06
505.69	428.50
506.05	436.20
506.41	443.85
506.78	451.98
507.14	460.24
507.50	468.70
507.86	477.44
508.22	486.50
508.59	495.57
508.95	505.24
509.31	515.26
509.67	525.63
510.03	536.00
510.39	546.60
510.75	557.76
511.12	568.73
511.48	580.50
511.84	592.41
512.20	604.45
512.56	616.83
512.92	629.30
513.28	642.28
513.64	655.27
514.00	668.75
514.37	682.51
514.73	696.35
515.09	710.12
515.45	724.54
515.81	739.00
516.17	754.29
516.53	769.37
516.89	784.36
517.25	799.62
517.61	815.40
517.97	831.23
518.33	846.83
518.69	863.23
519.05	879.55
519.41	896.10
519.77	913.08
520.13	930.49
520.49	947.60
520.85	964.61
521.21	981.97
521.57	999.90
521.93	1017.33
522.29	1035.53
522.65	1053.48
523.01	1071.58
523.37	1089.61
523.73	1107.67
524.09	1126.02
524.45	1144.69
524.81	1164.04
525.17	1182.92
525.53	1202.17
525.89	1221.36
526.25	1240.78
526.61	1259.49
526.97	1278.73
527.33	1298.09
527.68	1317.22
528.04	1336.67
528.40	1356.40
528.76	1376.44
529.12	1396.17
529.48	1415.89
529.84	1434.75
530.20	1454.96
530.56	1475.41
530.91	1496.04
531.27	1516.26
531.63	1536.33
531.99	1556.30
532.35	1575.15
532.71	1594.23
533.07	1613.90
533.42	1633.50
533.78	1652.60
534.14	1672.81
534.50	1691.84
534.86	1710.75
535.21	1729.17
535.57	1749.12
535.93	1767.90
536.29	1786.61
536.65	1805.24
537.00	1823.60
537.36	1842.68
537.72	1861.06
538.08	1877.91
538.44	1895.30
538.79	1912.67
539.15	1929.61
539.51	1946.89
539.87	1964.60
540.22	1982.11
540.58	1999.34
540.94	2016.10
541.29	2032.82
541.65	2048.78
542.01	2065.60
542.37	2082.20
542.72	2098.45
543.08	2113.79
543.44	2129.89
543.79	2144.30
544.15	2159.13
544.51	2175.15
544.87	2189.97
545.22	2204.18
545.58	2218.52
545.94	2231.54
546.29	2245.20
546.65	2258.85
547.01	2271.80
547.36	2284.32
547.72	2296.91
548.07	2308.75
548.43	2320.75
548.79	2332.27
549.14	2343.41
549.50	2354.44
549.86	2364.67
550.21	2375.10
550.57	2385.05
550.92	2394.96
551.28	2405.00
551.64	2414.77
551.99	2423.90
552.35	2433.26
552.70	2442.49
553.06	2452.10
553.41	2462.20
553.77	2470.97
554.13	2479.69
554.48	2488.64
554.84	2497.02
555.19	2505.08
555.55	2513.26
555.90	2520.79
556.26	2528.57
556.61	2536.38
556.97	2543.03
557.32	2550.73
557.68	2557.42
558.03	2564.22
558.39	2570.61
558.74	2578.51
559.10	2585.04
559.45	2591.15
559.81	2598.15
560.16	2604.21
560.52	2609.83
560.87	2615.52
561.23	2620.40
561.58	2625.92
561.94	2630.44
562.29	2634.82
562.64	2638.91
563.00	2642.90
563.35	2648.09
563.71	2653.23
564.06	2658.07
564.42	2662.99
564.77	2666.64
565.12	2671.44
565.48	2676.19
565.83	2679.39
566.19	2682.27
566.54	2684.80
566.89	2686.97
567.25	2689.00
567.60	2692.04
567.96	2694.69
568.31	2696.29
568.66	2698.53
569.02	2700.07
569.37	2701.60
569.72	2703.08
570.08	2704.90
570.43	2705.98
570.78	2705.93
571.14	2705.18
571.49	2705.43
571.84	2706.08
572.20	2705.66
572.55	2704.59
572.90	2702.66
573.26	2702.11
573.61	2700.65
573.96	2699.43
574.31	2697.47
574.67	2694.14
575.02	2691.08
575.37	2688.38
575.72	2685.15
576.08	2682.38
576.43	2679.26
576.78	2676.28
577.13	2673.45
577.49	2670.43
577.84	2667.00
578.19	2663.70
578.54	2660.06
578.90	2654.60
579.25	2648.98
579.60	2644.34
579.95	2639.34
580.30	2634.20
580.66	2628.70
581.01	2623.31
581.36	2618.24
581.71	2613.82
582.06	2609.17
582.42	2603.36
582.77	2597.82
583.12	2592.38
583.47	2586.93
583.82	2581.56
584.17	2575.40
584.53	2569.62
584.88	2563.26
585.23	2556.92
585.58	2551.34
585.93	2545.49
586.28	2540.26
586.63	2534.93
586.98	2529.33
587.34	2523.43
587.69	2517.88
588.04	2512.06
588.39	2505.89
588.74	2498.32
589.09	2491.00
589.44	2483.61
589.79	2477.43
590.14	2471.29
590.49	2464.50
590.84	2457.22
591.19	2450.07
591.54	2442.47
591.89	2434.02
592.25	2426.59
592.60	2418.24
592.95	2409.23
593.30	2400.57
593.65	2391.96
594.00	2382.86
594.35	2374.52
594.70	2365.91
595.05	2357.50
595.40	2348.82
595.75	2340.08
596.10	2332.70
596.45	2325.70
596.80	2318.83
597.15	2311.12
597.50	2302.38
597.85	2295.19
598.19	2287.86
598.54	2280.12
598.89	2272.60
599.24	2266.21
599.59	2258.68
599.94	2251.78
600.29	2244.28
600.64	2236.94
600.99	2228.90
601.34	2221.47
601.69	2213.58
602.04	2206.06
602.39	2198.39
602.74	2191.26
603.08	2184.08
603.43	2176.59
603.78	2167.91
604.13	2159.74
604.48	2150.92
604.83	2142.83
605.18	2134.49
605.53	2125.34
605.87	2115.93
606.22	2107.61
606.57	2098.08
606.92	2088.62
607.27	2080.42
607.62	2072.38
607.96	2063.95
608.31	2056.10
608.66	2047.13
609.01	2037.58
609.36	2027.74
609.70	2017.14
610.05	2006.58
610.40	1997.01
610.75	1987.09
611.10	1977.24
611.44	1966.85
611.79	1957.74
612.14	1947.87
612.49	1937.03
612.83	1927.12
613.18	1917.50
613.53	1907.77
613.88	1897.68
614.22	1888.05
614.57	1876.91
614.92	1866.57
615.27	1857.11
615.61	1846.85
615.96	1836.92
616.31	1827.80
616.65	1819.56
617.00	1811.12
617.35	1802.22
617.70	1792.65
618.04	1782.60
618.39	1773.54
618.74	1764.26
619.08	1754.15
619.43	1744.94
619.78	1736.58
620.12	1727.90
620.47	1718.82
620.82	1709.34
621.16	1700.54
621.51	1691.50
621.85	1683.00
622.20	1673.33
622.55	1663.39
622.89	1654.40
623.24	1645.96
623.59	1637.00
623.93	1628.16
624.28	1619.12
624.62	1610.01
624.97	1601.10
625.32	1593.03
625.66	1584.44
626.01	1575.95
626.35	1567.53
626.70	1558.86
627.04	1550.00
627.39	1540.35
627.73	1531.18
628.08	1522.34
628.43	1513.31
628.77	1504.48
629.12	1495.19
629.46	1486.94
629.81	1477.90
630.15	1468.52
630.50	1458.93
630.84	1449.33
631.19	1439.46
631.53	1430.00
631.88	1420.40
632.22	1410.93
632.57	1402.04
632.91	1392.70
633.26	1383.61
633.60	1373.80
633.95	1364.74
634.29	1356.06
634.64	1347.81
634.98	1339.05
635.32	1330.92
635.67	1323.19
636.01	1314.71
636.36	1306.56
636.70	1298.32
637.05	1290.39
637.39	1282.96
637.73	1275.27
638.08	1267.99
638.42	1260.55
638.77	1253.37
639.11	1245.68
639.45	1238.18
639.80	1229.87
640.14	1222.30
640.49	1214.10
640.83	1206.98
641.17	1199.31
641.52	1191.14
641.86	1183.24
642.20	1176.09
642.55	1168.14
642.89	1159.87
643.23	1152.16
643.58	1144.93
643.92	1136.79
644.26	1129.14
644.61	1121.61
644.95	1114.20
645.29	1106.14
645.64	1097.98
645.98	1090.12
646.32	1083.17
646.66	1075.37
647.01	1067.86
647.35	1060.12
647.69	1053.04
648.04	1046.18
648.38	1038.54
648.72	1030.93
649.06	1023.44
649.41	1015.90
649.75	1008.32
650.09	1000.71
650.43	993.26
650.78	985.41
651.12	978.25
651.46	971.19
651.80	963.70
652.14	956.45
652.49	949.67
652.83	942.75
653.17	935.53
653.51	928.24
653.85	921.49
654.20	914.55
654.54	907.27
654.88	900.17
655.22	892.57
655.56	885.60
655.90	879.19
656.25	872.81
656.59	866.08
656.93	859.64
657.27	853.36
657.61	846.70
657.95	840.78
658.29	834.37
658.64	827.81
658.98	821.15
659.32	814.39
659.66	807.87
660.00	801.54
660.34	795.36
660.68	789.28
661.02	783.14
661.36	777.41
661.70	772.07
662.05	766.49
662.39	761.23
662.73	755.96
663.07	750.43
663.41	745.07
663.75	739.65
664.09	734.22
664.43	728.90
664.77	723.95
665.11	718.59
665.45	713.47
665.79	708.23
666.13	703.22
666.47	698.41
666.81	693.36
667.15	688.15
667.49	683.15
667.83	678.53
668.17	673.56
668.51	668.58
668.85	663.45
669.19	658.71
669.53	653.86
669.87	648.97
670.21	644.34
670.55	639.47
670.89	635.30
671.23	631.10
671.57	626.65
671.91	622.36
672.25	617.87
672.58	613.83
672.92	609.84
673.26	606.05
673.60	602.08
673.94	598.12
674.28	594.69
674.62	591.00
674.96	587.10
675.30	583.42
675.64	579.70
675.97	576.21
676.31	572.75
676.65	569.28
676.99	565.80
677.33	562.08
677.67	558.70
678.01	554.96
678.34	551.39
678.68	548.09
679.02	544.60
679.36	541.38
679.70	538.05
680.04	534.73
680.37	531.30
680.71	528.03
681.05	525.09
681.39	521.89
681.73	518.80
682.06	515.64
682.40	512.76
682.74	509.79
683.08	506.97
683.42	503.85
683.75	500.75
684.09	497.70
684.43	494.77
684.77	491.68
685.10	488.70
685.44	485.62
685.78	482.74
686.12	479.87
686.45	477.23
686.79	474.43
687.13	471.63
687.46	468.70
687.80	465.87
688.14	462.97
688.48	460.38
688.81	457.50
689.15	454.90
689.49	452.20
689.82	449.67
690.16	446.86
690.50	444.32
690.83	441.88
691.17	439.31
691.51	436.86
691.84	434.58
692.18	432.02
692.52	429.59
692.85	427.12
693.19	424.75
693.52	422.23
693.86	419.80
694.20	417.47
694.53	415.30
694.87	413.02
695.21	410.78
695.54	408.42
695.88	406.30
696.21	404.17
696.55	402.11
696.88	400.01
697.22	397.90
697.56	395.80
697.89	393.68
698.23	391.75
698.56	389.76
698.90	387.70
699.23	385.70
699.57	383.75
699.90	381.81
700.24	379.80
700.58	377.89
700.91	376.13
701.25	374.25
701.58	372.55
701.92	370.90
702.25	369.18
702.59	367.47
702.92	365.90
703.26	364.20
703.59	362.33
703.93	360.78
704.26	359.23
704.60	357.57
704.93	356.06
705.26	354.50
705.60	353.09
705.93	351.72
706.27	350.48
706.60	349.13
706.94	347.68
707.27	346.23
707.61	344.77
707.94	343.33
708.27	342.03
708.61	340.53
708.94	339.10
709.28	337.70
709.61	336.33
709.94	334.90
710.28	333.58
710.61	332.26
710.95	330.81
711.28	329.53
711.61	328.49
711.95	327.17
712.28	325.90
712.61	324.43
712.95	323.06
713.28	321.79
713.61	320.60
713.95	319.56
714.28	318.51
714.61	317.37
714.95	316.27
715.28	315.06
715.61	313.95
715.95	312.81
716.28	311.91
716.61	310.88
716.95	309.88
717.28	308.92
717.61	308.09
717.94	307.08
718.28	306.27
718.61	305.22
718.94	304.32
719.27	303.39
719.61	302.64
719.94	301.82
720.27	300.88
720.60	300.15
720.94	299.36
721.27	298.57
721.60	298.00
721.93	297.30
722.27	296.69
722.60	296.06
722.93	295.42
723.26	294.74
723.59	293.99
723.93	293.35
724.26	292.60
724.59	291.93
724.92	291.31
725.25	290.60
725.59	289.88
725.92	289.29
726.25	288.59
726.58	287.97
726.91	287.42
727.24	286.95
727.57	286.26
727.91	285.61
728.24	285.02
728.57	284.32
728.90	283.69
729.23	283.09
729.56	282.63
729.89	282.06
730.22	281.48
730.55	280.91
730.89	280.43
731.22	279.84
731.55	279.30
731.88	278.62
732.21	277.99
732.54	277.39
732.87	276.70
733.20	276.21
733.53	275.56
733.86	274.96
734.19	274.30
734.52	273.80
734.85	273.40
735.18	272.78
735.51	272.26
735.84	271.74
736.17	271.22
736.50	270.56
736.83	270.26
737.16	269.66
737.49	269.25
737.82	268.65
738.15	268.31
738.48	267.79
738.81	267.52
739.14	267.06
739.47	266.66
739.80	266.28
740.13	265.92
740.46	265.60
740.79	265.20
741.12	264.85
741.45	264.41
741.78	263.98
742.11	263.77
742.44	263.31
742.77	262.97
743.10	262.52
743.43	262.15
743.75	261.52
744.08	261.41
744.41	261.05
744.74	260.73
745.07	260.37
745.40	259.92
745.73	259.57
746.06	259.18
746.39	258.84
746.71	258.55
747.04	258.15
747.37	257.67
747.70	257.30
748.03	256.94
748.36	256.62
748.68	256.17
749.01	255.71
749.34	255.38
749.67	254.98
750.00	254.71
750.33	254.58
750.65	254.41
750.98	253.86
751.31	253.46
751.64	253.19
751.97	252.93
752.29	252.67
752.62	252.26
752.95	252.04
753.28	251.75
753.60	251.25
753.93	250.86
754.26	250.81
754.59	250.51
754.91	250.15
755.24	249.76
755.57	249.43
755.90	249.15
756.22	248.87
756.55	248.68
756.88	248.41
757.20	247.94
757.53	247.69
757.86	247.51
758.19	247.40
758.51	247.13
758.84	246.82
759.17	246.69
759.49	246.52
759.82	246.36
760.15	246.26
760.47	246.30
760.80	246.18
761.13	245.84
761.45	245.60
761.78	245.50
762.11	245.44
762.43	245.36
762.76	245.27
763.08	245.16
763.41	244.95
763.74	244.84
764.06	244.74
764.39	244.49
764.71	244.14
765.04	244.01
765.37	243.77
765.69	243.58
766.02	243.42
766.34	243.19
766.67	242.94
767.00	242.87
767.32	242.84
767.65	242.84
767.97	242.73
768.30	242.62
768.62	242.38
768.95	242.22
769.27	242.07
769.60	241.87
769.92	241.59
770.25	241.48
770.57	241.26
770.90	241.11
771.22	240.99
771.55	240.98
771.87	240.77
772.20	240.70
772.52	240.76
772.85	240.81
773.17	240.77
773.50	240.64
773.82	240.32
774.15	239.99
774.47	239.74
774.80	239.63
775.12	239.58
775.45	239.55
775.77	239.43
776.09	239.28
776.42	239.22
776.74	239.29
777.07	239.15
777.39	239.03
777.72	238.89
778.04	238.81
778.36	238.73
778.69	238.64
779.01	238.50
779.33	238.16
779.66	237.85
779.98	237.70
780.31	237.64
780.63	237.60
780.95	237.54
781.28	237.38
781.60	237.20
781.92	237.12
782.25	236.97
782.57	236.82
782.89	236.66
783.22	236.54
783.54	236.32
783.86	236.21
784.19	236.08
784.51	236.07
784.83	235.93
785.16	235.78
785.48	235.63
785.80	235.55
786.12	235.56
786.45	235.52
786.77	235.49
787.09	235.40
787.42	235.32
787.74	235.35
788.06	235.21
788.38	235.11
788.71	234.82
789.03	234.77
789.35	234.70
789.67	234.67
789.99	234.67
790.32	234.64
790.64	234.54
790.96	234.61
791.28	234.44
791.61	234.39
791.93	234.32
792.25	234.29
792.57	234.32
792.89	234.18
793.21	234.10
793.54	234.01
793.86	233.88
794.18	233.70
794.50	233.49
794.82	233.48
795.14	233.46
795.47	233.57
795.79	233.48
796.11	233.35
796.43	233.16
796.75	232.99
797.07	232.87
797.39	232.83
797.71	232.71
798.04	232.76
798.36	232.69
798.68	232.63
799.00	232.62
799.32	232.54
799.64	232.48
799.96	232.40
800.28	232.41
800.60	232.38
800.92	232.49
801.24	232.41
801.56	232.33
801.89	232.34
802.21	232.26
802.53	232.23
802.85	232.31
803.17	232.58
803.49	232.47
803.81	232.53
804.13	232.53
804.45	232.43
804.77	232.42
805.09	232.42
805.41	232.42
805.73	232.35
806.05	232.24
806.37	232.33
806.69	232.28
807.01	232.13
807.33	232.17
807.65	232.06
807.97	232.21
808.28	232.28
808.60	232.23
808.92	232.25
809.24	232.37
809.56	232.34
809.88	232.19
810.20	232.23
810.52	232.27
810.84	232.29
811.16	232.24
811.48	232.19
811.80	232.18
812.12	232.24
812.43	232.26
812.75	232.30
813.07	232.28
813.39	232.33
813.71	232.29
814.03	232.18
814.35	232.12
814.67	232.05
814.98	232.02
815.30	232.00
815.62	232.01
815.94	231.91
816.26	231.92
816.58	231.83
816.89	231.80
817.21	231.79
817.53	231.67
817.85	231.64
818.17	231.49
818.48	231.45
818.80	231.33
819.12	231.30
819.44	231.24
819.76	231.11
820.07	231.05
820.39	231.13
820.71	231.17
821.03	231.15
821.34	231.17
821.66	231.23
821.98	231.24
822.30	231.16
822.61	231.33
822.93	231.29
823.25	231.25
823.57	231.26
823.88	231.21
824.20	231.24
824.52	231.29
824.83	231.30
825.15	231.22
825.47	231.21
825.79	231.20
826.10	231.14
826.42	231.07
826.74	231.16
827.05	231.03
827.37	230.99
827.69	230.93
828.00	230.84
828.32	230.74
828.64	230.70
828.95	230.69
829.27	230.56
829.58	230.51
829.90	230.61
830.22	230.57
830.53	230.50
830.85	230.36
831.17	230.35
831.48	230.40
831.80	230.46
832.11	230.37
832.43	230.28
832.75	230.29
833.06	230.44
833.38	230.22
833.69	230.32
834.01	230.35
834.32	230.31
834.64	230.19
834.96	230.20
835.27	230.15
835.59	230.18
835.90	229.97
836.22	229.88
836.53	229.77
836.85	229.84
837.16	230.00
837.48	230.08
837.79	230.10
838.11	230.08
838.42	229.97
838.74	230.06
839.05	230.04
839.37	230.04
839.68	229.94
840.00	230.00
840.31	229.89
840.63	229.83
840.94	229.83
841.26	229.83
841.57	229.76
841.88	229.79
842.20	229.71
842.51	229.77
842.83	229.87
843.14	230.06
843.46	230.03
843.77	229.90
844.08	229.82
844.40	229.76
844.71	229.69
845.03	229.63
845.34	229.57
845.65	229.57
845.97	229.60
846.28	229.60
846.60	229.53
846.91	229.52
847.22	229.46
847.54	229.49
847.85	229.50
848.16	229.52
848.48	229.54
848.79	229.65
849.10	229.66
849.42	229.58
849.73	229.38
850.04	229.38
850.36	229.28
850.67	229.41
850.98	229.36
851.30	229.34
851.61	229.40
851.92	229.35
852.23	229.49
852.55	229.42
852.86	229.39
853.17	229.42
853.49	229.52
853.80	229.60
854.11	229.69
854.42	229.74
854.74	229.75
855.05	229.70
855.36	229.58
855.67	229.58
855.99	229.63
856.30	229.86
856.61	229.71
856.92	229.69
857.23	229.64
857.55	229.69
857.86	229.78
858.17	229.81
858.48	229.85
858.79	229.71
859.11	229.71
859.42	229.74
859.73	229.71
860.04	229.70
860.35	229.53
860.66	229.38
860.98	229.30
861.29	229.29
861.60	229.22
861.91	229.28
862.22	229.25
862.53	229.19
862.84	228.98
863.16	229.10
863.47	229.08
863.78	228.97
864.09	228.97
864.40	228.90
864.71	228.87
865.02	228.90
865.33	228.87
865.64	228.79
865.95	228.73
866.27	228.85
866.58	228.85
866.89	229.05
867.20	229.12
867.51	229.08
867.82	229.17
868.13	229.21
868.44	229.08
868.75	229.15
869.06	229.13
869.37	229.10
869.68	228.96
869.99	228.97
870.30	229.15
870.61	229.06
870.92	229.10
871.23	229.17
871.54	229.16
871.85	229.26
872.16	229.37
872.47	229.39
872.78	229.29
873.09	229.25
873.40	229.18
873.71	229.29
874.02	229.36
874.33	229.21
874.64	229.20
874.95	229.29
875.26	229.21
875.56	229.20
875.87	229.13
876.18	229.24
876.49	229.49
876.80	229.36
877.11	229.34
877.42	229.30
877.73	229.23
878.04	229.15
878.35	229.10
878.66	229.09
878.96	229.13
879.27	229.14
879.58	229.10
879.89	229.09
880.20	229.04
880.51	229.04
880.82	229.10
881.12	229.17
881.43	229.18
881.74	229.14
882.05	229.14
882.36	229.25
882.67	229.15
882.97	228.92
883.28	228.90
883.59	229.00
883.90	229.16
884.21	229.17
884.51	229.16
884.82	229.14
885.13	229.12
885.44	229.06
885.74	229.08
886.05	229.11
886.36	229.08
886.67	228.89
886.98	228.94
887.28	229.01
887.59	228.93
887.90	228.94
888.20	229.02
888.51	229.08
888.82	229.03
889.13	229.10
889.43	229.25
889.74	229.32
890.05	229.30
890.35	229.18
890.66	229.21
890.97	229.33
891.28	229.30
891.58	229.40
891.89	229.34
892.20	229.25
892.50	229.20
892.81	229.19
893.12	229.25
893.42	229.23
893.73	229.14
894.04	229.16
894.34	229.09
894.65	229.06
894.95	228.99
895.26	229.01
895.57	229.06
895.87	228.88
896.18	228.83
896.48	228.75
896.79	228.68
897.10	228.61
897.40	228.52
897.71	228.48
898.01	228.45
898.32	228.47
898.63	228.50
898.93	228.52
899.24	228.54
899.54	228.57
899.85	228.55
900.15	228.52
900.46	228.43
900.76	228.48
901.07	228.46
901.38	228.38
901.68	228.37
901.99	228.31
902.29	228.23
902.60	228.16
902.90	228.15
903.21	228.14
903.51	228.10
903.82	228.10
904.12	228.17
904.43	228.06
904.73	228.07
905.03	228.05
905.34	228.18
905.64	228.05
905.95	228.10
906.25	228.03
906.56	228.01
906.86	228.06
907.17	228.07
907.47	228.04
907.77	228.14
908.08	228.11
908.38	228.18
908.69	228.27
908.99	228.37
909.30	228.33
909.60	228.34
909.90	228.43
910.21	228.40
910.51	228.40
910.81	228.46
911.12	228.45
911.42	228.52
911.73	228.40
912.03	228.51
912.33	228.50
912.64	228.55
912.94	228.49
913.24	228.46
913.55	228.43
913.85	228.48
914.15	228.52
914.46	228.53
914.76	228.55
915.06	228.49
915.37	228.47
915.67	228.47
915.97	228.51
916.27	228.40
916.58	228.48
916.88	228.39
917.18	228.37
917.49	228.57
917.79	228.58
918.09	228.58
918.39	228.56
918.70	228.57
919.00	228.62
919.30	228.89
919.60	228.90
919.91	228.87
920.21	228.84
920.51	228.89
920.81	228.86
921.12	228.83
921.42	228.88
921.72	228.84
922.02	228.93
922.32	228.95
922.63	229.04
922.93	229.08
923.23	229.08
923.53	229.00
923.83	228.75
924.13	228.80
924.44	228.70
924.74	228.76
925.04	228.74
925.34	228.60
925.64	228.38
925.94	228.39
926.24	228.49
926.55	228.51
926.85	228.42
927.15	228.46
927.45	228.41
927.75	228.39
928.05	228.37
928.35	228.36
928.65	228.40
928.95	228.32
929.26	228.24
929.56	228.47
929.86	228.54
930.16	228.62
930.46	228.60
930.76	228.68
931.06	228.64
931.36	228.66
931.66	228.75
931.96	228.84
932.26	228.79
932.56	228.72
932.86	228.65
933.16	228.64
933.46	228.56
933.76	228.60
934.06	228.64
934.36	228.79
934.66	228.61
934.96	228.59
935.26	228.60
935.56	228.62
935.86	228.43
936.16	228.33
936.46	228.31
936.76	228.18
937.06	228.18
937.36	228.20
937.66	228.07
937.96	228.09
938.26	227.99
938.56	228.02
938.86	228.01
939.16	228.15
939.46	228.10
939.76	228.11
940.06	228.10
940.35	227.99
940.65	227.84
940.95	228.00
941.25	227.86
941.55	227.84
941.85	227.77
942.15	227.83
942.45	227.90
942.75	227.89
943.04	227.94
943.34	227.97
943.64	227.86
943.94	227.90
944.24	227.82
944.54	227.78
944.84	227.70
945.13	227.66
945.43	227.51
945.73	227.60
946.03	227.54
946.33	227.48
946.62	227.49
946.92	227.42
947.22	227.38
947.52	227.41
947.82	227.53
948.11	227.56
948.41	227.53
948.71	227.50
949.01	227.43
949.31	227.42
949.60	227.47
949.90	227.48
950.20	227.54
950.50	227.61
950.79	227.69
951.09	227.83
951.39	227.87
951.69	227.84
951.98	227.87
952.28	227.96
952.58	228.00
952.87	228.09
953.17	228.25
953.47	228.32
953.76	228.46
954.06	228.38
954.36	228.36
954.66	228.42
954.95	228.52
955.25	228.70
955.55	228.77
955.84	228.75
956.14	228.84
956.44	228.86
956.73	228.80
957.03	228.88
957.32	228.84
957.62	228.79
957.92	228.89
958.21	228.96
958.51	229.23
958.81	229.27
959.10	229.36
959.40	229.40
959.69	229.52
959.99	229.45
960.29	229.49
960.58	229.53
960.88	229.52
961.17	229.54
961.47	229.44
961.76	229.40
962.06	229.37
962.36	229.41
962.65	229.38
962.95	229.44
963.24	229.36
963.54	229.46
963.83	229.60
964.13	229.60
964.42	229.44
964.72	229.25
965.01	229.21
965.31	229.19
965.60	229.09
965.90	229.14
966.19	229.09
966.49	229.13
966.78	229.18
967.08	229.15
967.37	229.09
967.67	229.10
967.96	229.16
968.26	229.13
968.55	229.07
968.85	229.10
969.14	229.05
969.43	229.01
969.73	228.86
970.02	228.71
970.32	228.69
970.61	228.72
970.91	228.66
971.20	228.67
971.49	228.61
971.79	228.55
972.08	228.33
972.38	228.39
972.67	228.28
972.96	228.26
973.26	228.22
973.55	228.31
973.85	228.29
974.14	228.17
974.43	228.15
974.73	228.09
975.02	228.03
975.31	227.96
975.61	227.97
975.90	228.02
976.19	227.97
976.49	228.01
976.78	228.02
977.07	228.02
977.37	227.98
977.66	228.07
977.95	228.07
978.24	228.05
978.54	228.00
978.83	227.85
979.12	227.74
979.42	227.67
979.71	227.51
980.00	227.43
980.29	227.44
980.59	227.39
980.88	227.46
981.17	227.39
981.46	227.42
981.76	227.36
982.05	227.33
982.34	227.41
982.63	227.34
982.93	227.29
983.22	227.29
983.51	227.36
983.80	227.20
984.09	227.24
984.39	227.31
984.68	227.35
984.97	227.53
985.26	227.51
985.55	227.57
985.85	227.65
986.14	227.80
986.43	227.83
986.72	227.80
987.01	227.71
987.30	227.75
987.59	227.83
987.89	227.89
988.18	227.90
988.47	227.95
988.76	227.92
989.05	227.93
989.34	227.90
989.63	227.88
989.92	227.89
990.22	227.82
990.51	227.81
990.80	227.83
991.09	227.81
991.38	227.86
991.67	227.90
991.96	227.79
992.25	227.76
992.54	227.72
992.83	227.78
993.12	227.86
993.41	227.91
993.70	227.91
993.99	228.01
994.28	228.02
994.58	227.90
994.87	227.93
995.16	228.00
995.45	228.12
995.74	228.07
996.03	228.15
996.32	228.32
996.61	228.37
996.90	228.33
997.19	228.30
997.48	228.43
997.77	228.54
998.06	228.60
998.34	228.60
998.63	228.60
998.92	228.72
999.21	228.70
999.50	228.74
999.79	228.66
1000.08	228.65
1000.37	228.69
1000.66	228.81
1000.95	228.94
1001.24	228.95
1001.53	228.83
1001.82	228.85
1002.11	228.82
1002.40	228.78
1002.68	228.72
1002.97	228.95
1003.26	229.12
1003.55	228.98
1003.84	228.86
1004.13	229.00
1004.42	229.06
1004.71	229.14
1004.99	229.09
1005.28	229.16
1005.57	229.10
1005.86	229.11
1006.15	229.07
1006.44	229.05
1006.72	228.99
1007.01	228.94
1007.30	228.85
1007.59	228.87
1007.88	228.91
1008.17	228.92
1008.45	228.85
1008.74	228.84
1009.03	228.71
1009.32	228.53
1009.60	228.58
1009.89	228.59
1010.18	228.40
1010.47	228.30
1010.76	228.29
1011.04	228.20
1011.33	228.19
1011.62	228.16
1011.91	228.21
1012.19	228.26
1012.48	228.11
1012.77	228.09
1013.05	228.17
1013.34	228.21
1013.63	228.22
1013.92	228.20
1014.20	228.11
1014.49	228.11
1014.78	228.11
1015.06	228.03
1015.35	228.10
1015.64	228.08
1015.92	228.07
1016.21	228.11
1016.50	228.14
1016.78	228.03
1017.07	228.08
1017.36	227.97
1017.64	227.98
1017.93	227.88
1018.22	227.81
1018.50	227.97
1018.79	228.05
1019.08	227.97
1019.36	227.86
1019.65	227.69
1019.93	227.64
1020.22	227.68
1020.51	227.80
1020.79	227.73
1021.08	228.00
1021.36	228.50
1021.65	228.70
1021.94	229.50
1022.22	226.10
1022.51	225.40
1022.79	227.50
1023.08	227.80
1023.36	230.00
1023.65	227.00
>>>>>End Processed Spectral Data<<<<<
