SpectraSuite Data File
++++++++++++++++++++++++++++++++++++
Date: Fri Feb 01 14:38:40 EST 2013
User: group
Dark Spectrum Present: No
Reference Spectrum Present: No
Number of Sampled Component Spectra: 1
Spectrometers: USB2E7196
Integration Time (usec): 70000 (USB2E7196)
Spectra Averaged: 10 (USB2E7196)
Boxcar Smoothing: 10 (USB2E7196)
Correct for Electrical Dark: No (USB2E7196)
Strobe/Lamp Enabled: No (USB2E7196)
Correct for Detector Non-linearity: No (USB2E7196)
Correct for Stray Light: No (USB2E7196)
Number of Pixels in Processed Spectrum: 2048
>>>>>Begin Processed Spectral Data<<<<<
339.09	0.00
339.48	217.30
339.86	218.20
340.24	219.50
340.63	220.70
341.01	225.00
341.39	223.70
341.78	224.10
342.16	226.50
342.54	227.50
342.93	215.20
343.31	226.10
343.69	226.62
344.07	227.11
344.46	227.52
344.84	227.93
345.22	228.11
345.60	228.33
345.99	228.50
346.37	228.67
346.75	228.79
347.13	228.80
347.52	228.73
347.90	228.77
348.28	228.78
348.66	228.77
349.05	228.78
349.43	228.90
349.81	228.91
350.19	228.98
350.57	229.04
350.96	229.12
351.34	229.17
351.72	229.27
352.10	229.30
352.48	229.40
352.87	229.42
353.25	229.49
353.63	229.56
354.01	229.73
354.39	229.66
354.77	229.67
355.15	229.82
355.54	229.95
355.92	229.97
356.30	229.93
356.68	230.06
357.06	230.10
357.44	230.08
357.82	230.14
358.20	230.15
358.58	230.25
358.97	230.26
359.35	230.37
359.73	230.39
360.11	230.41
360.49	230.42
360.87	230.42
361.25	230.40
361.63	230.35
362.01	230.28
362.39	230.38
362.77	230.33
363.15	230.29
363.53	230.27
363.91	230.31
364.29	230.33
364.67	230.21
365.05	230.22
365.43	230.24
365.81	230.19
366.19	230.27
366.57	230.30
366.95	230.26
367.33	230.07
367.71	229.94
368.09	229.96
368.47	229.94
368.85	229.91
369.23	229.99
369.61	230.05
369.99	230.08
370.37	230.00
370.75	230.10
371.13	229.96
371.51	229.96
371.89	229.84
372.27	229.96
372.65	229.85
373.03	229.73
373.41	229.63
373.78	229.59
374.16	229.43
374.54	229.25
374.92	229.13
375.30	229.11
375.68	229.00
376.06	228.90
376.44	228.65
376.82	228.50
377.19	228.33
377.57	228.22
377.95	228.10
378.33	228.02
378.71	227.78
379.09	227.73
379.47	227.50
379.84	227.40
380.22	227.14
380.60	227.02
380.98	226.92
381.36	226.91
381.73	226.83
382.11	226.82
382.49	226.87
382.87	226.78
383.25	226.70
383.62	226.90
384.00	226.69
384.38	226.76
384.76	226.67
385.13	226.70
385.51	226.63
385.89	226.52
386.27	226.52
386.64	226.48
387.02	226.41
387.40	226.31
387.78	226.27
388.15	226.20
388.53	226.15
388.91	226.07
389.29	225.97
389.66	226.03
390.04	225.88
390.42	225.79
390.79	225.85
391.17	225.82
391.55	225.61
391.92	225.69
392.30	225.74
392.68	225.86
393.05	225.89
393.43	225.98
393.81	226.07
394.18	226.01
394.56	226.10
394.94	226.15
395.31	226.28
395.69	226.40
396.06	226.56
396.44	226.63
396.82	226.78
397.19	226.90
397.57	226.93
397.95	227.06
398.32	227.06
398.70	227.04
399.07	227.17
399.45	227.26
399.82	227.48
400.20	227.52
400.58	227.58
400.95	227.58
401.33	227.67
401.70	227.81
402.08	227.96
402.45	228.09
402.83	228.32
403.20	228.47
403.58	228.49
403.95	228.55
404.33	228.78
404.71	228.98
405.08	229.15
405.46	229.17
405.83	229.38
406.21	229.61
406.58	229.83
406.96	230.06
407.33	230.23
407.70	230.40
408.08	230.71
408.45	230.98
408.83	231.23
409.20	231.47
409.58	231.74
409.95	232.08
410.33	232.38
410.70	232.60
411.08	232.92
411.45	233.31
411.82	233.71
412.20	234.07
412.57	234.59
412.95	234.91
413.32	235.45
413.69	235.86
414.07	236.28
414.44	236.89
414.82	237.39
415.19	238.15
415.56	238.71
415.94	239.25
416.31	240.04
416.68	240.77
417.06	241.53
417.43	242.39
417.81	243.20
418.18	244.06
418.55	245.01
418.93	246.09
419.30	247.21
419.67	248.23
420.04	249.38
420.42	250.47
420.79	252.01
421.16	253.48
421.54	254.95
421.91	256.47
422.28	257.98
422.66	259.67
423.03	261.30
423.40	263.01
423.77	264.80
424.15	266.57
424.52	268.43
424.89	270.40
425.26	272.18
425.64	274.10
426.01	276.14
426.38	278.36
426.75	280.53
427.13	282.78
427.50	285.05
427.87	287.47
428.24	289.92
428.61	292.02
428.99	294.60
429.36	297.39
429.73	300.16
430.10	302.86
430.47	305.52
430.85	308.23
431.22	311.24
431.59	314.41
431.96	317.28
432.33	320.51
432.70	323.79
433.08	327.54
433.45	330.90
433.82	334.36
434.19	338.08
434.56	341.76
434.93	345.30
435.30	349.09
435.68	353.06
436.05	356.89
436.42	360.82
436.79	364.17
437.16	367.92
437.53	371.78
437.90	375.59
438.27	379.49
438.64	383.46
439.01	387.12
439.38	390.31
439.75	393.48
440.13	397.24
440.50	400.49
440.87	403.36
441.24	406.36
441.61	409.57
441.98	411.99
442.35	414.67
442.72	417.59
443.09	420.20
443.46	421.84
443.83	423.01
444.20	424.14
444.57	425.78
444.94	426.37
445.31	427.28
445.68	428.26
446.05	428.67
446.42	428.49
446.79	428.28
447.16	428.12
447.53	428.12
447.90	426.60
448.27	425.47
448.64	423.72
449.01	422.54
449.37	420.31
449.74	418.07
450.11	415.46
450.48	412.36
450.85	409.28
451.22	406.73
451.59	404.30
451.96	401.83
452.33	398.51
452.70	395.72
453.07	392.05
453.43	388.36
453.80	384.88
454.17	381.41
454.54	378.01
454.91	374.27
455.28	370.87
455.65	367.85
456.02	364.80
456.38	361.92
456.75	358.46
457.12	355.38
457.49	352.36
457.86	349.47
458.23	347.02
458.59	344.20
458.96	341.38
459.33	338.79
459.70	336.31
460.07	334.25
460.43	331.80
460.80	329.60
461.17	327.53
461.54	325.40
461.91	323.54
462.27	321.63
462.64	320.13
463.01	318.14
463.38	316.30
463.74	314.35
464.11	312.66
464.48	311.16
464.85	309.67
465.21	308.60
465.58	307.31
465.95	305.63
466.32	304.35
466.68	302.93
467.05	301.74
467.42	300.43
467.78	298.96
468.15	297.75
468.52	296.71
468.88	295.40
469.25	294.31
469.62	293.30
469.98	292.19
470.35	291.12
470.72	290.23
471.08	289.33
471.45	288.49
471.82	287.63
472.18	286.69
472.55	285.96
472.92	285.08
473.28	284.30
473.65	283.62
474.02	282.95
474.38	282.45
474.75	281.73
475.11	281.05
475.48	280.60
475.85	280.15
476.21	279.54
476.58	279.09
476.94	278.48
477.31	277.93
477.67	277.52
478.04	277.11
478.41	276.77
478.77	276.60
479.14	276.20
479.50	275.95
479.87	275.71
480.23	275.34
480.60	274.92
480.96	274.65
481.33	274.49
481.69	274.27
482.06	273.89
482.42	273.64
482.79	273.49
483.15	273.31
483.52	273.18
483.88	273.19
484.25	273.15
484.61	273.13
484.98	273.11
485.34	273.18
485.71	273.28
486.07	273.29
486.44	273.04
486.80	273.01
487.17	272.95
487.53	272.99
487.90	273.07
488.26	273.33
488.62	273.55
488.99	273.66
489.35	273.88
489.72	274.14
490.08	274.30
490.44	274.45
490.81	274.67
491.17	274.75
491.54	274.91
491.90	275.03
492.26	275.20
492.63	275.32
492.99	275.52
493.36	275.58
493.72	275.85
494.08	276.11
494.45	276.42
494.81	276.75
495.17	277.00
495.54	277.39
495.90	277.68
496.26	277.84
496.63	278.25
496.99	278.50
497.35	278.75
497.72	279.18
498.08	279.52
498.44	279.83
498.80	280.30
499.17	280.66
499.53	281.03
499.89	281.61
500.26	282.06
500.62	282.47
500.98	283.02
501.34	283.30
501.71	283.72
502.07	284.06
502.43	284.27
502.79	284.62
503.16	284.97
503.52	285.21
503.88	285.58
504.24	285.84
504.60	286.29
504.97	286.70
505.33	287.14
505.69	287.74
506.05	288.16
506.41	288.56
506.78	289.01
507.14	289.50
507.50	289.93
507.86	290.52
508.22	291.07
508.59	291.46
508.95	292.06
509.31	292.68
509.67	293.43
510.03	294.31
510.39	295.10
510.75	295.83
511.12	296.64
511.48	297.45
511.84	298.28
512.20	299.02
512.56	299.84
512.92	300.84
513.28	301.70
513.64	302.77
514.00	303.91
514.37	304.96
514.73	306.19
515.09	307.40
515.45	308.59
515.81	309.91
516.17	311.40
516.53	312.89
516.89	314.39
517.25	315.83
517.61	317.52
517.97	319.24
518.33	321.05
518.69	322.91
519.05	324.91
519.41	326.90
519.77	329.22
520.13	331.44
520.49	333.48
520.85	335.69
521.21	338.20
521.57	340.59
521.93	342.97
522.29	345.57
522.65	348.16
523.01	350.87
523.37	353.55
523.73	356.47
524.09	359.39
524.45	362.31
524.81	365.44
525.17	368.58
525.53	371.90
525.89	375.19
526.25	378.64
526.61	382.13
526.97	385.72
527.33	389.24
527.68	393.12
528.04	397.14
528.40	401.08
528.76	404.93
529.12	409.25
529.48	413.69
529.84	417.78
530.20	422.24
530.56	426.98
530.91	431.56
531.27	436.17
531.63	440.90
531.99	445.77
532.35	450.62
532.71	455.57
533.07	460.55
533.42	465.79
533.78	470.87
534.14	476.12
534.50	481.48
534.86	487.00
535.21	492.31
535.57	497.57
535.93	503.19
536.29	508.93
536.65	514.56
537.00	520.18
537.36	526.01
537.72	531.88
538.08	537.59
538.44	543.49
538.79	549.37
539.15	555.17
539.51	561.39
539.87	567.45
540.22	573.61
540.58	579.79
540.94	585.72
541.29	591.92
541.65	598.09
542.01	604.25
542.37	610.20
542.72	616.54
543.08	622.95
543.44	629.39
543.79	635.33
544.15	641.58
544.51	648.07
544.87	654.49
545.22	660.56
545.58	666.47
545.94	672.75
546.29	678.82
546.65	684.99
547.01	691.01
547.36	697.06
547.72	703.06
548.07	709.12
548.43	715.20
548.79	721.12
549.14	727.03
549.50	732.77
549.86	738.82
550.21	744.65
550.57	750.60
550.92	756.36
551.28	762.30
551.64	768.12
551.99	773.59
552.35	779.20
552.70	784.96
553.06	791.22
553.41	796.80
553.77	802.86
554.13	808.70
554.48	814.53
554.84	820.37
555.19	825.70
555.55	831.16
555.90	836.87
556.26	842.68
556.61	848.20
556.97	853.63
557.32	859.00
557.68	864.36
558.03	869.60
558.39	874.87
558.74	880.34
559.10	885.49
559.45	890.98
559.81	896.84
560.16	901.97
560.52	906.81
560.87	912.15
561.23	916.82
561.58	921.82
561.94	926.42
562.29	930.91
562.64	935.55
563.00	940.18
563.35	944.86
563.71	949.42
564.06	954.24
564.42	958.92
564.77	963.44
565.12	967.96
565.48	972.46
565.83	976.66
566.19	980.48
566.54	984.65
566.89	988.49
567.25	991.73
567.60	996.05
567.96	1000.03
568.31	1003.59
568.66	1007.31
569.02	1010.73
569.37	1014.08
569.72	1017.57
570.08	1021.02
570.43	1024.42
570.78	1027.29
571.14	1030.20
571.49	1032.75
571.84	1035.91
572.20	1038.30
572.55	1040.75
572.90	1043.20
573.26	1045.40
573.61	1047.93
573.96	1050.05
574.31	1052.03
574.67	1053.91
575.02	1055.10
575.37	1056.55
575.72	1058.06
576.08	1059.87
576.43	1061.08
576.78	1062.45
577.13	1063.89
577.49	1065.30
577.84	1066.21
578.19	1067.65
578.54	1068.40
578.90	1069.46
579.25	1069.76
579.60	1070.77
579.95	1071.23
580.30	1071.61
580.66	1072.17
581.01	1072.18
581.36	1072.45
581.71	1072.95
582.06	1073.54
582.42	1073.70
582.77	1073.98
583.12	1074.00
583.47	1073.75
583.82	1073.95
584.17	1073.72
584.53	1073.47
584.88	1073.42
585.23	1073.36
585.58	1072.86
585.93	1072.76
586.28	1072.55
586.63	1072.59
586.98	1072.12
587.34	1071.81
587.69	1071.34
588.04	1071.03
588.39	1070.92
588.74	1070.18
589.09	1069.11
589.44	1067.89
589.79	1067.17
590.14	1066.66
590.49	1065.85
590.84	1064.94
591.19	1064.33
591.54	1063.40
591.89	1061.95
592.25	1060.58
592.60	1058.98
592.95	1057.30
593.30	1055.64
593.65	1053.78
594.00	1051.91
594.35	1050.70
594.70	1048.77
595.05	1047.12
595.40	1045.24
595.75	1043.30
596.10	1041.80
596.45	1040.49
596.80	1038.98
597.15	1037.31
597.50	1035.30
597.85	1033.68
598.19	1031.92
598.54	1030.11
598.89	1028.33
599.24	1027.37
599.59	1025.67
599.94	1024.16
600.29	1022.73
600.64	1021.01
600.99	1019.17
601.34	1017.30
601.69	1015.13
602.04	1013.65
602.39	1011.60
602.74	1010.16
603.08	1008.43
603.43	1006.70
603.78	1004.68
604.13	1002.75
604.48	1000.88
604.83	999.00
605.18	996.76
605.53	994.39
605.87	991.67
606.22	989.35
606.57	986.67
606.92	984.16
607.27	981.89
607.62	979.66
607.96	977.60
608.31	975.49
608.66	972.81
609.01	970.04
609.36	967.10
609.70	964.18
610.05	960.84
610.40	957.98
610.75	954.74
611.10	951.54
611.44	948.15
611.79	945.20
612.14	941.85
612.49	938.41
612.83	935.26
613.18	932.03
613.53	928.90
613.88	925.41
614.22	922.25
614.57	918.73
614.92	915.22
615.27	911.88
615.61	908.28
615.96	905.20
616.31	902.16
616.65	899.16
617.00	896.07
617.35	892.97
617.70	889.60
618.04	886.18
618.39	882.89
618.74	879.80
619.08	876.14
619.43	872.83
619.78	869.93
620.12	866.62
620.47	863.27
620.82	859.75
621.16	856.33
621.51	853.05
621.85	849.62
622.20	845.93
622.55	842.28
622.89	839.00
623.24	835.73
623.59	832.63
623.93	829.29
624.28	826.07
624.62	822.79
624.97	819.46
625.32	816.31
625.66	813.33
626.01	810.20
626.35	806.92
626.70	803.55
627.04	800.20
627.39	796.87
627.73	793.71
628.08	790.62
628.43	787.36
628.77	783.90
629.12	780.44
629.46	777.48
629.81	773.89
630.15	770.27
630.50	766.63
630.84	762.65
631.19	759.06
631.53	755.54
631.88	751.69
632.22	748.07
632.57	744.71
632.91	740.96
633.26	737.36
633.60	734.05
633.95	730.70
634.29	727.18
634.64	723.80
634.98	720.41
635.32	717.12
635.67	714.14
636.01	711.10
636.36	708.16
636.70	705.02
637.05	702.10
637.39	699.15
637.73	696.00
638.08	693.40
638.42	690.77
638.77	687.93
639.11	685.07
639.45	682.01
639.80	678.70
640.14	675.58
640.49	672.66
640.83	669.51
641.17	666.49
641.52	663.67
641.86	660.89
642.20	658.05
642.55	654.85
642.89	651.76
643.23	648.79
643.58	646.00
643.92	642.72
644.26	639.76
644.61	637.03
644.95	634.27
645.29	630.98
645.64	627.46
645.98	624.39
646.32	621.56
646.66	618.65
647.01	615.91
647.35	613.32
647.69	610.35
648.04	607.63
648.38	604.60
648.72	601.52
649.06	598.31
649.41	595.26
649.75	592.35
650.09	589.35
650.43	586.10
650.78	582.85
651.12	579.90
651.46	576.98
651.80	574.02
652.14	571.11
652.49	568.27
652.83	565.70
653.17	562.52
653.51	559.50
653.85	556.72
654.20	553.61
654.54	550.62
654.88	547.62
655.22	544.48
655.56	541.47
655.90	538.55
656.25	535.81
656.59	532.98
656.93	530.22
657.27	527.39
657.61	524.40
657.95	521.85
658.29	519.28
658.64	516.63
658.98	513.66
659.32	510.92
659.66	508.13
660.00	505.40
660.34	502.78
660.68	500.02
661.02	497.23
661.36	494.86
661.70	492.23
662.05	489.76
662.39	487.58
662.73	485.28
663.07	482.86
663.41	480.60
663.75	478.20
664.09	475.83
664.43	473.46
664.77	471.42
665.11	469.08
665.45	466.72
665.79	464.37
666.13	462.20
666.47	459.94
666.81	457.69
667.15	455.25
667.49	453.28
667.83	451.32
668.17	449.32
668.51	447.00
668.85	444.80
669.19	442.95
669.53	440.64
669.87	438.44
670.21	436.55
670.55	434.42
670.89	432.68
671.23	430.95
671.57	429.19
671.91	427.24
672.25	425.28
672.58	423.48
672.92	421.71
673.26	419.94
673.60	418.01
673.94	416.38
674.28	414.83
674.62	413.19
674.96	411.50
675.30	409.80
675.64	408.07
675.97	406.60
676.31	404.73
676.65	403.16
676.99	401.60
677.33	399.90
677.67	398.29
678.01	396.57
678.34	394.79
678.68	393.18
679.02	391.54
679.36	389.97
679.70	388.36
680.04	386.74
680.37	385.13
680.71	383.63
681.05	382.21
681.39	380.65
681.73	379.25
682.06	377.80
682.40	376.51
682.74	375.29
683.08	373.97
683.42	372.61
683.75	371.22
684.09	369.80
684.43	368.34
684.77	366.92
685.10	365.56
685.44	364.17
685.78	362.77
686.12	361.53
686.45	360.00
686.79	358.51
687.13	357.22
687.46	355.72
687.80	354.55
688.14	352.99
688.48	351.78
688.81	350.33
689.15	349.09
689.49	347.63
689.82	346.32
690.16	344.82
690.50	343.65
690.83	342.46
691.17	341.18
691.51	340.05
691.84	338.80
692.18	337.54
692.52	336.39
692.85	335.24
693.19	334.07
693.52	333.05
693.86	331.93
694.20	330.86
694.53	329.90
694.87	328.70
695.21	327.63
695.54	326.57
695.88	325.37
696.21	324.14
696.55	323.25
696.88	322.11
697.22	321.10
697.56	320.09
697.89	318.95
698.23	318.04
698.56	317.02
698.90	316.11
699.23	315.07
699.57	314.04
699.90	312.92
700.24	311.97
700.58	311.07
700.91	310.21
701.25	309.40
701.58	308.62
701.92	307.72
702.25	306.86
702.59	305.90
702.92	305.17
703.26	304.43
703.59	303.45
703.93	302.80
704.26	302.05
704.60	301.06
704.93	300.38
705.26	299.51
705.60	298.64
705.93	297.98
706.27	297.36
706.60	296.78
706.94	296.13
707.27	295.32
707.61	294.50
707.94	293.83
708.27	292.91
708.61	292.15
708.94	291.55
709.28	290.84
709.61	290.27
709.94	289.59
710.28	289.00
710.61	288.41
710.95	287.70
711.28	287.10
711.61	286.56
711.95	285.83
712.28	285.18
712.61	284.65
712.95	284.00
713.28	283.30
713.61	282.55
713.95	281.88
714.28	281.33
714.61	280.84
714.95	280.17
715.28	279.56
715.61	278.82
715.95	278.28
716.28	277.76
716.61	277.11
716.95	276.56
717.28	275.83
717.61	275.25
717.94	274.68
718.28	274.01
718.61	273.50
718.94	273.05
719.27	272.60
719.61	272.10
719.94	271.55
720.27	270.98
720.60	270.60
720.94	270.15
721.27	269.75
721.60	269.19
721.93	268.72
722.27	268.37
722.60	267.95
722.93	267.47
723.26	267.06
723.59	266.58
723.93	266.17
724.26	265.68
724.59	265.22
724.92	264.79
725.25	264.45
725.59	264.06
725.92	263.60
726.25	263.17
726.58	262.73
726.91	262.35
727.24	262.02
727.57	261.58
727.91	261.29
728.24	260.90
728.57	260.50
728.90	260.11
729.23	259.65
729.56	259.49
729.89	259.08
730.22	258.76
730.55	258.41
730.89	258.10
731.22	257.81
731.55	257.59
731.88	257.34
732.21	257.05
732.54	256.73
732.87	256.50
733.20	256.20
733.53	255.91
733.86	255.74
734.19	255.41
734.52	255.24
734.85	255.05
735.18	254.77
735.51	254.70
735.84	254.69
736.17	254.59
736.50	254.18
736.83	254.14
737.16	253.96
737.49	253.81
737.82	253.57
738.15	253.31
738.48	253.00
738.81	252.70
739.14	252.42
739.47	252.08
739.80	251.87
740.13	251.76
740.46	251.64
740.79	251.34
741.12	251.29
741.45	250.94
741.78	250.72
742.11	250.57
742.44	250.26
742.77	249.96
743.10	249.58
743.43	249.42
743.75	249.00
744.08	248.95
744.41	248.61
744.74	248.47
745.07	248.47
745.40	248.30
745.73	248.17
746.06	247.96
746.39	247.84
746.71	247.69
747.04	247.41
747.37	247.11
747.70	246.98
748.03	246.78
748.36	246.61
748.68	246.35
749.01	246.13
749.34	245.98
749.67	245.71
750.00	245.55
750.33	245.50
750.65	245.43
750.98	244.98
751.31	244.88
751.64	244.60
751.97	244.47
752.29	244.37
752.62	244.08
752.95	243.89
753.28	243.78
753.60	243.49
753.93	243.33
754.26	243.09
754.59	242.76
754.91	242.54
755.24	242.40
755.57	242.23
755.90	241.94
756.22	241.65
756.55	241.50
756.88	241.37
757.20	241.08
757.53	240.79
757.86	240.68
758.19	240.45
758.51	240.40
758.84	240.10
759.17	239.90
759.49	239.76
759.82	239.71
760.15	239.53
760.47	239.48
760.80	239.24
761.13	239.23
761.45	239.06
761.78	238.85
762.11	238.72
762.43	238.43
762.76	238.32
763.08	238.20
763.41	238.11
763.74	237.93
764.06	237.74
764.39	237.69
764.71	237.52
765.04	237.43
765.37	237.14
765.69	237.02
766.02	236.90
766.34	236.78
766.67	236.56
767.00	236.42
767.32	236.34
767.65	236.38
767.97	236.20
768.30	236.22
768.62	236.02
768.95	235.87
769.27	235.86
769.60	235.87
769.92	235.84
770.25	235.68
770.57	235.59
770.90	235.61
771.22	235.44
771.55	235.31
771.87	235.28
772.20	235.15
772.52	235.14
772.85	235.33
773.17	235.26
773.50	235.16
773.82	235.11
774.15	234.83
774.47	234.73
774.80	234.66
775.12	234.47
775.45	234.53
775.77	234.56
776.09	234.47
776.42	234.40
776.74	234.37
777.07	234.33
777.39	234.29
777.72	234.08
778.04	234.09
778.36	234.10
778.69	234.00
779.01	234.10
779.33	234.02
779.66	233.76
779.98	233.71
780.31	233.83
780.63	233.80
780.95	233.85
781.28	233.74
781.60	233.67
781.92	233.81
782.25	233.82
782.57	233.74
782.89	233.84
783.22	233.80
783.54	233.78
783.86	233.81
784.19	233.80
784.51	233.92
784.83	233.97
785.16	234.03
785.48	234.03
785.80	234.01
786.12	233.99
786.45	233.89
786.77	233.83
787.09	233.67
787.42	233.60
787.74	233.69
788.06	233.64
788.38	233.61
788.71	233.50
789.03	233.44
789.35	233.50
789.67	233.42
789.99	233.46
790.32	233.43
790.64	233.48
790.96	233.66
791.28	233.49
791.61	233.35
791.93	233.21
792.25	233.15
792.57	233.22
792.89	233.17
793.21	233.17
793.54	233.16
793.86	233.18
794.18	233.28
794.50	233.19
794.82	233.20
795.14	233.21
795.47	233.14
795.79	233.13
796.11	232.94
796.43	232.89
796.75	232.71
797.07	232.70
797.39	232.51
797.71	232.22
798.04	232.28
798.36	232.32
798.68	232.28
799.00	232.30
799.32	232.12
799.64	232.06
799.96	231.98
800.28	231.96
800.60	231.87
800.92	231.77
801.24	231.70
801.56	231.62
801.89	231.59
802.21	231.63
802.53	231.50
802.85	231.48
803.17	231.49
803.49	231.41
803.81	231.24
804.13	231.13
804.45	231.15
804.77	231.08
805.09	230.91
805.41	230.84
805.73	230.73
806.05	230.68
806.37	230.54
806.69	230.46
807.01	230.45
807.33	230.42
807.65	230.16
807.97	230.15
808.28	230.01
808.60	229.99
808.92	229.81
809.24	229.89
809.56	229.86
809.88	229.71
810.20	229.71
810.52	229.58
810.84	229.57
811.16	229.45
811.48	229.34
811.80	229.44
812.12	229.36
812.43	229.37
812.75	229.29
813.07	229.29
813.39	229.31
813.71	229.17
814.03	229.14
814.35	229.15
814.67	229.01
814.98	229.07
815.30	228.96
815.62	228.97
815.94	228.82
816.26	228.74
816.58	228.64
816.89	228.58
817.21	228.64
817.53	228.58
817.85	228.57
818.17	228.57
818.48	228.53
818.80	228.60
819.12	228.56
819.44	228.63
819.76	228.65
820.07	228.66
820.39	228.75
820.71	228.78
821.03	228.91
821.34	229.00
821.66	229.07
821.98	229.09
822.30	229.12
822.61	229.25
822.93	229.29
823.25	229.47
823.57	229.59
823.88	229.53
824.20	229.67
824.52	229.77
824.83	229.77
825.15	229.71
825.47	229.71
825.79	229.78
826.10	229.72
826.42	229.71
826.74	229.75
827.05	229.73
827.37	229.67
827.69	229.59
828.00	229.59
828.32	229.66
828.64	229.62
828.95	229.74
829.27	229.63
829.58	229.75
829.90	229.71
830.22	229.73
830.53	229.80
830.85	229.78
831.17	229.67
831.48	229.77
831.80	229.75
832.11	229.67
832.43	229.68
832.75	229.74
833.06	229.88
833.38	229.80
833.69	229.83
834.01	229.88
834.32	229.98
834.64	229.96
834.96	229.97
835.27	230.02
835.59	229.93
835.90	230.03
836.22	229.91
836.53	229.88
836.85	229.71
837.16	229.84
837.48	229.77
837.79	229.79
838.11	229.72
838.42	229.74
838.74	229.73
839.05	229.48
839.37	229.45
839.68	229.22
840.00	229.22
840.31	229.17
840.63	229.13
840.94	229.08
841.26	229.08
841.57	228.92
841.88	228.92
842.20	228.90
842.51	228.76
842.83	228.71
843.14	228.72
843.46	228.78
843.77	228.69
844.08	228.64
844.40	228.61
844.71	228.55
845.03	228.50
845.34	228.49
845.65	228.54
845.97	228.46
846.28	228.43
846.60	228.44
846.91	228.36
847.22	228.35
847.54	228.28
847.85	228.13
848.16	228.07
848.48	228.03
848.79	228.03
849.10	228.00
849.42	228.06
849.73	227.96
850.04	227.87
850.36	227.85
850.67	227.82
850.98	227.80
851.30	227.88
851.61	227.83
851.92	227.83
852.23	228.00
852.55	227.96
852.86	228.04
853.17	228.01
853.49	228.01
853.80	227.96
854.11	227.96
854.42	228.03
854.74	228.02
855.05	228.01
855.36	227.99
855.67	228.09
855.99	228.10
856.30	228.32
856.61	228.38
856.92	228.35
857.23	228.41
857.55	228.43
857.86	228.30
858.17	228.41
858.48	228.41
858.79	228.33
859.11	228.41
859.42	228.49
859.73	228.43
860.04	228.49
860.35	228.38
860.66	228.44
860.98	228.48
861.29	228.54
861.60	228.56
861.91	228.55
862.22	228.52
862.53	228.42
862.84	228.29
863.16	228.32
863.47	228.30
863.78	228.34
864.09	228.36
864.40	228.49
864.71	228.56
865.02	228.61
865.33	228.63
865.64	228.60
865.95	228.58
866.27	228.82
866.58	228.89
866.89	229.04
867.20	229.00
867.51	229.00
867.82	229.06
868.13	229.10
868.44	229.20
868.75	229.24
869.06	229.37
869.37	229.39
869.68	229.50
869.99	229.56
870.30	229.59
870.61	229.63
870.92	229.56
871.23	229.58
871.54	229.63
871.85	229.73
872.16	229.75
872.47	229.78
872.78	229.59
873.09	229.62
873.40	229.61
873.71	229.67
874.02	229.71
874.33	229.66
874.64	229.68
874.95	229.56
875.26	229.48
875.56	229.42
875.87	229.36
876.18	229.26
876.49	229.42
876.80	229.29
877.11	229.28
877.42	229.33
877.73	229.22
878.04	229.11
878.35	229.02
878.66	229.14
878.96	229.00
879.27	229.04
879.58	228.89
879.89	228.90
880.20	228.95
880.51	228.90
880.82	228.93
881.12	228.84
881.43	228.77
881.74	228.67
882.05	228.60
882.36	228.60
882.67	228.59
882.97	228.36
883.28	228.42
883.59	228.33
883.90	228.23
884.21	228.18
884.51	228.17
884.82	228.10
885.13	227.94
885.44	227.94
885.74	227.95
886.05	228.00
886.36	227.88
886.67	227.72
886.98	227.80
887.28	227.89
887.59	227.83
887.90	227.93
888.20	228.01
888.51	228.08
888.82	227.97
889.13	227.99
889.43	228.03
889.74	227.93
890.05	227.88
890.35	227.82
890.66	227.89
890.97	227.79
891.28	227.77
891.58	227.83
891.89	227.77
892.20	227.67
892.50	227.66
892.81	227.79
893.12	227.83
893.42	227.64
893.73	227.49
894.04	227.43
894.34	227.44
894.65	227.43
894.95	227.36
895.26	227.46
895.57	227.58
895.87	227.46
896.18	227.57
896.48	227.68
896.79	227.70
897.10	227.70
897.40	227.90
897.71	227.89
898.01	227.89
898.32	228.04
898.63	227.98
898.93	227.89
899.24	227.80
899.54	227.70
899.85	227.74
900.15	227.78
900.46	227.88
900.76	227.90
901.07	227.93
901.38	227.96
901.68	228.01
901.99	227.91
902.29	227.97
902.60	228.02
902.90	227.98
903.21	228.10
903.51	228.04
903.82	228.09
904.12	228.13
904.43	228.18
904.73	228.12
905.03	228.20
905.34	228.43
905.64	228.44
905.95	228.50
906.25	228.56
906.56	228.55
906.86	228.57
907.17	228.48
907.47	228.47
907.77	228.48
908.08	228.44
908.38	228.45
908.69	228.40
908.99	228.36
909.30	228.40
909.60	228.39
909.90	228.42
910.21	228.33
910.51	228.32
910.81	228.17
911.12	228.24
911.42	228.25
911.73	228.06
912.03	228.05
912.33	228.23
912.64	228.25
912.94	228.21
913.24	228.15
913.55	228.21
913.85	228.17
914.15	228.20
914.46	228.17
914.76	228.07
915.06	228.09
915.37	227.96
915.67	227.93
915.97	227.90
916.27	227.85
916.58	227.81
916.88	227.79
917.18	227.82
917.49	227.82
917.79	227.81
918.09	227.90
918.39	227.97
918.70	227.90
919.00	227.90
919.30	228.05
919.60	228.00
919.91	227.90
920.21	227.89
920.51	227.87
920.81	227.84
921.12	227.94
921.42	227.90
921.72	227.96
922.02	227.98
922.32	227.99
922.63	227.90
922.93	228.00
923.23	228.08
923.53	228.01
923.83	227.95
924.13	227.99
924.44	227.90
924.74	227.95
925.04	227.87
925.34	227.86
925.64	227.66
925.94	227.74
926.24	227.95
926.55	227.98
926.85	227.98
927.15	227.99
927.45	227.96
927.75	227.95
928.05	227.96
928.35	227.99
928.65	228.06
928.95	228.19
929.26	228.17
929.56	228.17
929.86	228.24
930.16	228.27
930.46	228.21
930.76	228.23
931.06	228.14
931.36	228.21
931.66	228.27
931.96	228.43
932.26	228.44
932.56	228.35
932.86	228.38
933.16	228.42
933.46	228.39
933.76	228.46
934.06	228.57
934.36	228.74
934.66	228.70
934.96	228.66
935.26	228.67
935.56	228.60
935.86	228.59
936.16	228.64
936.46	228.69
936.76	228.77
937.06	228.76
937.36	228.67
937.66	228.60
937.96	228.49
938.26	228.43
938.56	228.46
938.86	228.51
939.16	228.58
939.46	228.54
939.76	228.61
940.06	228.61
940.35	228.53
940.65	228.36
940.95	228.41
941.25	228.32
941.55	228.41
941.85	228.47
942.15	228.49
942.45	228.50
942.75	228.36
943.04	228.36
943.34	228.37
943.64	228.59
943.94	228.60
944.24	228.62
944.54	228.69
944.84	228.62
945.13	228.50
945.43	228.50
945.73	228.47
946.03	228.55
946.33	228.44
946.62	228.53
946.92	228.58
947.22	228.56
947.52	228.70
947.82	228.76
948.11	228.73
948.41	228.78
948.71	228.74
949.01	228.84
949.31	228.83
949.60	228.90
949.90	228.90
950.20	228.85
950.50	228.89
950.79	228.83
951.09	228.90
951.39	228.88
951.69	228.73
951.98	228.87
952.28	228.79
952.58	228.76
952.87	228.63
953.17	228.64
953.47	228.58
953.76	228.45
954.06	228.21
954.36	228.23
954.66	228.22
954.95	228.24
955.25	228.20
955.55	228.17
955.84	228.07
956.14	227.94
956.44	227.97
956.73	227.86
957.03	227.90
957.32	227.87
957.62	227.95
957.92	227.99
958.21	227.93
958.51	228.11
958.81	228.12
959.10	228.14
959.40	228.08
959.69	228.08
959.99	228.10
960.29	228.14
960.58	228.02
960.88	227.97
961.17	228.00
961.47	227.99
961.76	228.00
962.06	227.99
962.36	228.02
962.65	228.04
962.95	228.09
963.24	227.99
963.54	227.97
963.83	227.91
964.13	227.91
964.42	227.85
964.72	227.62
965.01	227.60
965.31	227.52
965.60	227.50
965.90	227.63
966.19	227.63
966.49	227.60
966.78	227.57
967.08	227.67
967.37	227.63
967.67	227.63
967.96	227.60
968.26	227.59
968.55	227.55
968.85	227.46
969.14	227.44
969.43	227.46
969.73	227.39
970.02	227.35
970.32	227.43
970.61	227.42
970.91	227.41
971.20	227.46
971.49	227.60
971.79	227.72
972.08	227.59
972.38	227.64
972.67	227.70
972.96	227.76
973.26	227.59
973.55	227.58
973.85	227.58
974.14	227.66
974.43	227.76
974.73	227.77
975.02	227.85
975.31	227.90
975.61	227.97
975.90	228.05
976.19	228.05
976.49	228.07
976.78	228.11
977.07	228.17
977.37	228.20
977.66	228.18
977.95	228.10
978.24	228.20
978.54	228.12
978.83	228.11
979.12	228.17
979.42	228.26
979.71	228.30
980.00	228.36
980.29	228.30
980.59	228.20
980.88	228.34
981.17	228.34
981.46	228.33
981.76	228.27
982.05	228.44
982.34	228.48
982.63	228.39
982.93	228.40
983.22	228.44
983.51	228.44
983.80	228.49
984.09	228.52
984.39	228.48
984.68	228.57
984.97	228.69
985.26	228.71
985.55	228.67
985.85	228.62
986.14	228.48
986.43	228.55
986.72	228.54
987.01	228.43
987.30	228.40
987.59	228.29
987.89	228.34
988.18	228.15
988.47	228.17
988.76	228.21
989.05	228.17
989.34	228.15
989.63	228.12
989.92	228.07
990.22	228.11
990.51	228.02
990.80	228.06
991.09	227.90
991.38	227.90
991.67	227.90
991.96	227.89
992.25	227.99
992.54	227.93
992.83	227.96
993.12	227.92
993.41	228.02
993.70	228.11
993.99	228.08
994.28	228.08
994.58	227.97
994.87	227.91
995.16	227.88
995.45	227.78
995.74	227.74
996.03	227.78
996.32	227.72
996.61	227.91
996.90	227.83
997.19	227.83
997.48	227.79
997.77	227.82
998.06	227.84
998.34	227.80
998.63	227.81
998.92	227.85
999.21	227.85
999.50	227.69
999.79	227.70
1000.08	227.66
1000.37	227.74
1000.66	227.77
1000.95	227.77
1001.24	227.78
1001.53	227.80
1001.82	227.81
1002.11	227.65
1002.40	227.62
1002.68	227.54
1002.97	227.54
1003.26	227.56
1003.55	227.47
1003.84	227.35
1004.13	227.40
1004.42	227.48
1004.71	227.42
1004.99	227.39
1005.28	227.48
1005.57	227.60
1005.86	227.51
1006.15	227.55
1006.44	227.50
1006.72	227.48
1007.01	227.52
1007.30	227.41
1007.59	227.46
1007.88	227.50
1008.17	227.60
1008.45	227.59
1008.74	227.51
1009.03	227.56
1009.32	227.60
1009.60	227.68
1009.89	227.81
1010.18	227.74
1010.47	227.71
1010.76	227.73
1011.04	227.70
1011.33	227.74
1011.62	227.73
1011.91	227.83
1012.19	227.94
1012.48	228.05
1012.77	228.13
1013.05	228.22
1013.34	228.39
1013.63	228.37
1013.92	228.35
1014.20	228.36
1014.49	228.47
1014.78	228.61
1015.06	228.58
1015.35	228.51
1015.64	228.56
1015.92	228.53
1016.21	228.52
1016.50	228.49
1016.78	228.50
1017.07	228.58
1017.36	228.53
1017.64	228.53
1017.93	228.59
1018.22	228.53
1018.50	228.53
1018.79	228.62
1019.08	228.59
1019.36	228.55
1019.65	228.50
1019.93	228.51
1020.22	228.63
1020.51	228.70
1020.79	228.61
1021.08	229.10
1021.36	230.10
1021.65	229.60
1021.94	229.80
1022.22	227.00
1022.51	227.30
1022.79	228.10
1023.08	229.60
1023.36	231.10
1023.65	228.10
>>>>>End Processed Spectral Data<<<<<
