SpectraSuite Data File
++++++++++++++++++++++++++++++++++++
Date: Fri Feb 01 14:34:28 EST 2013
User: group
Dark Spectrum Present: No
Reference Spectrum Present: No
Number of Sampled Component Spectra: 1
Spectrometers: USB2E7196
Integration Time (usec): 70000 (USB2E7196)
Spectra Averaged: 10 (USB2E7196)
Boxcar Smoothing: 10 (USB2E7196)
Correct for Electrical Dark: No (USB2E7196)
Strobe/Lamp Enabled: No (USB2E7196)
Correct for Detector Non-linearity: No (USB2E7196)
Correct for Stray Light: No (USB2E7196)
Number of Pixels in Processed Spectrum: 2048
>>>>>Begin Processed Spectral Data<<<<<
339.09	0.00
339.48	216.60
339.86	218.40
340.24	220.00
340.63	220.20
341.01	225.00
341.39	223.70
341.78	223.40
342.16	224.70
342.54	225.30
342.93	214.70
343.31	225.57
343.69	226.07
344.07	226.51
344.46	226.97
344.84	227.37
345.22	227.50
345.60	227.77
345.99	228.03
346.37	228.15
346.75	228.25
347.13	228.34
347.52	228.49
347.90	228.71
348.28	228.64
348.66	228.75
349.05	228.65
349.43	228.73
349.81	228.73
350.19	228.71
350.57	228.80
350.96	228.86
351.34	228.86
351.72	228.98
352.10	229.07
352.48	229.06
352.87	229.18
353.25	229.19
353.63	229.22
354.01	229.24
354.39	229.28
354.77	229.40
355.15	229.60
355.54	229.60
355.92	229.57
356.30	229.72
356.68	229.87
357.06	229.98
357.44	229.93
357.82	229.96
358.20	230.09
358.58	230.10
358.97	230.25
359.35	230.36
359.73	230.42
360.11	230.53
360.49	230.56
360.87	230.59
361.25	230.69
361.63	230.72
362.01	230.80
362.39	230.93
362.77	230.99
363.15	230.92
363.53	230.96
363.91	230.96
364.29	230.91
364.67	230.67
365.05	230.70
365.43	230.82
365.81	230.85
366.19	230.93
366.57	230.99
366.95	230.81
367.33	230.82
367.71	230.90
368.09	230.90
368.47	230.89
368.85	230.77
369.23	230.84
369.61	230.74
369.99	230.81
370.37	230.82
370.75	230.87
371.13	230.73
371.51	230.74
371.89	230.67
372.27	230.62
372.65	230.51
373.03	230.38
373.41	230.23
373.78	230.17
374.16	229.90
374.54	229.83
374.92	229.70
375.30	229.57
375.68	229.46
376.06	229.34
376.44	229.22
376.82	229.20
377.19	229.10
377.57	229.09
377.95	228.91
378.33	228.83
378.71	228.68
379.09	228.68
379.47	228.59
379.84	228.53
380.22	228.47
380.60	228.53
380.98	228.47
381.36	228.36
381.73	228.28
382.11	228.31
382.49	228.21
382.87	228.20
383.25	228.13
383.62	228.23
384.00	228.05
384.38	228.04
384.76	227.92
385.13	227.88
385.51	227.68
385.89	227.55
386.27	227.41
386.64	227.25
387.02	227.19
387.40	227.10
387.78	227.07
388.15	227.04
388.53	226.94
388.91	226.94
389.29	226.96
389.66	226.90
390.04	226.88
390.42	226.84
390.79	226.73
391.17	226.76
391.55	226.44
391.92	226.52
392.30	226.53
392.68	226.52
393.05	226.59
393.43	226.65
393.81	226.70
394.18	226.69
394.56	226.80
394.94	226.92
395.31	227.01
395.69	227.12
396.06	227.16
396.44	227.24
396.82	227.24
397.19	227.42
397.57	227.57
397.95	227.68
398.32	227.78
398.70	228.00
399.07	228.17
399.45	228.32
399.82	228.50
400.20	228.64
400.58	228.92
400.95	228.95
401.33	229.29
401.70	229.56
402.08	229.82
402.45	230.02
402.83	230.26
403.20	230.43
403.58	230.70
403.95	231.15
404.33	231.45
404.71	231.73
405.08	232.27
405.46	232.57
405.83	232.88
406.21	233.34
406.58	233.87
406.96	234.33
407.33	234.87
407.70	235.20
408.08	235.87
408.45	236.42
408.83	237.14
409.20	237.70
409.58	238.36
409.95	239.12
410.33	239.92
410.70	240.65
411.08	241.50
411.45	242.36
411.82	243.10
412.20	244.10
412.57	245.26
412.95	246.10
413.32	247.29
413.69	248.60
414.07	249.86
414.44	251.19
414.82	252.58
415.19	254.25
415.56	256.08
415.94	257.76
416.31	259.70
416.68	261.55
417.06	263.76
417.43	265.86
417.81	268.25
418.18	270.67
418.55	273.33
418.93	276.19
419.30	279.08
419.67	282.25
420.04	285.34
420.42	288.60
420.79	292.40
421.16	296.20
421.54	299.99
421.91	303.88
422.28	307.98
422.66	312.48
423.03	316.89
423.40	321.43
423.77	326.30
424.15	331.21
424.52	336.30
424.89	341.82
425.26	347.22
425.64	352.36
426.01	358.04
426.38	363.81
426.75	369.64
427.13	375.65
427.50	382.04
427.87	388.81
428.24	395.74
428.61	402.08
428.99	409.32
429.36	417.15
429.73	424.78
430.10	432.17
430.47	439.72
430.85	447.40
431.22	455.63
431.59	464.35
431.96	472.62
432.33	481.89
432.70	490.76
433.08	501.49
433.45	511.42
433.82	521.44
434.19	532.47
434.56	543.31
434.93	553.68
435.30	563.82
435.68	575.30
436.05	586.45
436.42	597.71
436.79	607.80
437.16	618.63
437.53	630.29
437.90	641.64
438.27	652.76
438.64	664.61
439.01	675.40
439.38	684.96
439.75	694.34
440.13	705.05
440.50	715.17
440.87	723.32
441.24	732.01
441.61	741.49
441.98	748.82
442.35	757.29
442.72	765.82
443.09	774.30
443.46	779.57
443.83	783.19
444.20	786.50
444.57	791.28
444.94	794.04
445.31	796.70
445.68	799.77
446.05	801.94
446.42	802.21
446.79	802.24
447.16	802.15
447.53	802.67
447.90	799.84
448.27	797.22
448.64	792.70
449.01	789.98
449.37	783.64
449.74	777.47
450.11	769.87
450.48	761.63
450.85	753.10
451.22	745.86
451.59	739.18
451.96	732.88
452.33	723.60
452.70	715.26
453.07	705.33
453.43	695.14
453.80	685.13
454.17	675.40
454.54	666.26
454.91	656.59
455.28	646.59
455.65	637.50
456.02	627.90
456.38	619.93
456.75	609.89
457.12	601.79
457.49	593.51
457.86	585.62
458.23	578.83
458.59	571.27
458.96	563.50
459.33	556.79
459.70	549.72
460.07	544.10
460.43	537.78
460.80	531.64
461.17	526.06
461.54	520.45
461.91	514.95
462.27	509.42
462.64	504.57
463.01	499.63
463.38	494.71
463.74	489.80
464.11	485.43
464.48	481.51
464.85	477.10
465.21	473.66
465.58	470.12
465.95	465.80
466.32	462.33
466.68	458.83
467.05	455.27
467.42	451.91
467.78	448.41
468.15	444.94
468.52	442.33
468.88	438.97
469.25	435.81
469.62	433.38
469.98	430.84
470.35	428.39
470.72	426.01
471.08	423.48
471.45	421.30
471.82	419.00
472.18	416.48
472.55	414.79
472.92	412.87
473.28	411.07
473.65	409.24
474.02	407.42
474.38	405.80
474.75	404.36
475.11	402.90
475.48	401.78
475.85	400.66
476.21	399.71
476.58	398.87
476.94	398.31
477.31	397.45
477.67	396.62
478.04	395.98
478.41	395.45
478.77	395.10
479.14	394.64
479.50	394.43
479.87	394.38
480.23	394.48
480.60	394.22
480.96	394.09
481.33	394.52
481.69	394.80
482.06	394.95
482.42	395.09
482.79	395.31
483.15	395.72
483.52	396.40
483.88	396.87
484.25	397.42
484.61	398.00
484.98	398.73
485.34	399.70
485.71	400.80
486.07	401.86
486.44	402.96
486.80	404.39
487.17	405.77
487.53	407.49
487.90	408.85
488.26	410.68
488.62	412.72
488.99	414.29
489.35	416.00
489.72	418.27
490.08	420.56
490.44	422.64
490.81	424.98
491.17	427.28
491.54	429.89
491.90	432.53
492.26	435.11
492.63	437.96
492.99	440.92
493.36	443.80
493.72	446.83
494.08	449.99
494.45	453.41
494.81	456.84
495.17	460.20
495.54	463.75
495.90	467.41
496.26	470.92
496.63	474.89
496.99	478.90
497.35	482.91
497.72	486.69
498.08	490.77
498.44	494.92
498.80	499.42
499.17	503.70
499.53	508.13
499.89	512.80
500.26	516.99
500.62	521.34
500.98	525.96
501.34	530.61
501.71	535.28
502.07	539.76
502.43	544.20
502.79	548.79
503.16	553.66
503.52	558.43
503.88	562.82
504.24	567.49
504.60	572.13
504.97	576.83
505.33	581.82
505.69	586.96
506.05	591.78
506.41	596.07
506.78	600.56
507.14	605.20
507.50	609.83
507.86	614.82
508.22	619.49
508.59	623.85
508.95	628.25
509.31	632.62
509.67	637.05
510.03	641.49
510.39	645.85
510.75	650.18
511.12	654.26
511.48	658.95
511.84	662.86
512.20	666.81
512.56	670.91
512.92	674.68
513.28	678.39
513.64	681.82
514.00	685.44
514.37	689.04
514.73	692.46
515.09	695.69
515.45	698.73
515.81	701.72
516.17	704.88
516.53	708.43
516.89	711.48
517.25	714.52
517.61	717.49
517.97	720.23
518.33	722.59
518.69	725.30
519.05	727.62
519.41	730.30
519.77	733.08
520.13	735.48
520.49	737.97
520.85	740.34
521.21	742.91
521.57	745.71
521.93	747.96
522.29	750.50
522.65	752.68
523.01	754.88
523.37	756.97
523.73	759.07
524.09	760.54
524.45	762.46
524.81	764.30
525.17	766.57
525.53	768.83
525.89	771.29
526.25	773.37
526.61	775.12
526.97	777.33
527.33	779.28
527.68	781.29
528.04	783.00
528.40	784.76
528.76	786.82
529.12	788.76
529.48	791.07
529.84	792.91
530.20	794.93
530.56	797.14
530.91	799.71
531.27	801.94
531.63	804.28
531.99	806.75
532.35	809.19
532.71	811.03
533.07	813.24
533.42	815.45
533.78	817.71
534.14	820.10
534.50	822.01
534.86	824.21
535.21	826.34
535.57	828.81
535.93	831.31
536.29	833.48
536.65	835.98
537.00	838.01
537.36	840.27
537.72	842.73
538.08	845.05
538.44	847.08
538.79	849.56
539.15	851.78
539.51	854.18
539.87	856.65
540.22	859.31
540.58	861.77
540.94	864.08
541.29	866.48
541.65	869.11
542.01	871.80
542.37	874.47
542.72	876.88
543.08	879.54
543.44	882.36
543.79	884.96
544.15	887.47
544.51	890.33
544.87	893.07
545.22	895.94
545.58	898.39
545.94	901.22
546.29	903.65
546.65	906.39
547.01	908.78
547.36	911.26
547.72	913.90
548.07	916.46
548.43	918.77
548.79	921.31
549.14	923.60
549.50	926.06
549.86	928.42
550.21	930.70
550.57	933.20
550.92	935.41
551.28	937.92
551.64	940.23
551.99	942.66
552.35	944.84
552.70	947.21
553.06	949.88
553.41	952.14
553.77	954.85
554.13	957.39
554.48	960.14
554.84	962.43
555.19	964.63
555.55	967.02
555.90	969.49
556.26	972.10
556.61	974.48
556.97	976.62
557.32	978.86
557.68	981.45
558.03	983.75
558.39	985.79
558.74	988.38
559.10	990.58
559.45	992.87
559.81	995.67
560.16	997.85
560.52	1000.19
560.87	1002.62
561.23	1004.63
561.58	1006.90
561.94	1008.58
562.29	1010.62
562.64	1012.39
563.00	1014.27
563.35	1016.51
563.71	1018.41
564.06	1020.52
564.42	1023.01
564.77	1025.27
565.12	1027.30
565.48	1029.38
565.83	1031.40
566.19	1033.05
566.54	1035.10
566.89	1036.63
567.25	1038.14
567.60	1040.10
567.96	1041.70
568.31	1043.40
568.66	1045.10
569.02	1046.22
569.37	1047.52
569.72	1048.98
570.08	1050.40
570.43	1051.57
570.78	1052.35
571.14	1053.00
571.49	1053.84
571.84	1054.75
572.20	1055.42
572.55	1056.08
572.90	1056.51
573.26	1056.97
573.61	1057.54
573.96	1057.69
574.31	1057.68
574.67	1057.37
575.02	1056.73
575.37	1056.42
575.72	1055.73
576.08	1055.37
576.43	1055.48
576.78	1055.44
577.13	1055.24
577.49	1054.87
577.84	1054.52
578.19	1054.30
578.54	1054.01
578.90	1053.67
579.25	1052.59
579.60	1051.41
579.95	1050.66
580.30	1049.63
580.66	1048.78
581.01	1047.49
581.36	1046.63
581.71	1045.85
582.06	1044.80
582.42	1043.90
582.77	1042.60
583.12	1041.71
583.47	1040.50
583.82	1039.09
584.17	1037.71
584.53	1036.27
584.88	1034.90
585.23	1033.77
585.58	1032.45
585.93	1031.06
586.28	1029.75
586.63	1028.47
586.98	1027.50
587.34	1026.25
587.69	1024.93
588.04	1023.49
588.39	1022.01
588.74	1020.04
589.09	1018.23
589.44	1016.47
589.79	1014.80
590.14	1013.28
590.49	1011.36
590.84	1009.47
591.19	1007.76
591.54	1005.71
591.89	1003.02
592.25	1001.13
592.60	998.45
592.95	995.75
593.30	993.17
593.65	990.66
594.00	988.11
594.35	985.92
594.70	982.87
595.05	980.62
595.40	977.82
595.75	975.09
596.10	972.77
596.45	970.71
596.80	968.59
597.15	966.19
597.50	963.77
597.85	961.65
598.19	959.50
598.54	957.00
598.89	954.75
599.24	953.00
599.59	950.70
599.94	948.74
600.29	946.39
600.64	943.94
600.99	941.18
601.34	938.59
601.69	935.70
602.04	933.46
602.39	930.55
602.74	928.50
603.08	926.21
603.43	923.99
603.78	921.38
604.13	918.68
604.48	916.11
604.83	913.67
605.18	911.00
605.53	907.88
605.87	904.68
606.22	901.82
606.57	898.74
606.92	895.83
607.27	892.74
607.62	890.37
607.96	887.60
608.31	885.16
608.66	882.03
609.01	878.79
609.36	875.62
609.70	872.23
610.05	868.58
610.40	865.57
610.75	862.01
611.10	858.30
611.44	854.55
611.79	851.24
612.14	847.76
612.49	843.67
612.83	840.00
613.18	836.80
613.53	833.43
613.88	829.96
614.22	826.13
614.57	822.58
614.92	818.67
615.27	815.28
615.61	811.39
615.96	808.13
616.31	805.09
616.65	802.19
617.00	799.39
617.35	796.13
617.70	792.49
618.04	788.90
618.39	785.50
618.74	782.41
619.08	778.74
619.43	775.18
619.78	771.88
620.12	768.77
620.47	765.30
620.82	762.05
621.16	758.73
621.51	755.84
621.85	752.57
622.20	749.18
622.55	746.21
622.89	743.09
623.24	739.83
623.59	736.49
623.93	733.32
624.28	729.91
624.62	726.90
624.97	724.00
625.32	721.18
625.66	718.49
626.01	715.40
626.35	712.56
626.70	709.53
627.04	706.97
627.39	703.80
627.73	700.65
628.08	697.42
628.43	694.35
628.77	691.18
629.12	688.08
629.46	684.96
629.81	681.60
630.15	678.36
630.50	675.56
630.84	672.22
631.19	668.57
631.53	665.49
631.88	662.25
632.22	658.68
632.57	655.67
632.91	652.57
633.26	649.70
633.60	646.53
633.95	643.48
634.29	640.46
634.64	637.73
634.98	635.04
635.32	632.38
635.67	629.68
636.01	626.92
636.36	624.17
636.70	621.72
637.05	618.83
637.39	616.34
637.73	613.37
638.08	611.12
638.42	608.86
638.77	606.29
639.11	603.52
639.45	601.11
639.80	598.51
640.14	595.84
640.49	593.15
640.83	590.58
641.17	588.11
641.52	585.46
641.86	582.83
642.20	580.23
642.55	577.35
642.89	574.95
643.23	572.24
643.58	569.90
643.92	567.23
644.26	564.99
644.61	562.45
644.95	560.19
645.29	557.34
645.64	554.53
645.98	551.71
646.32	549.39
646.66	546.99
647.01	544.29
647.35	541.79
647.69	539.35
648.04	537.02
648.38	534.42
648.72	531.78
649.06	529.18
649.41	526.81
649.75	524.34
650.09	521.66
650.43	519.30
650.78	516.36
651.12	513.93
651.46	511.36
651.80	508.97
652.14	506.58
652.49	504.35
652.83	502.08
653.17	499.87
653.51	497.57
653.85	494.84
654.20	492.50
654.54	489.93
654.88	487.41
655.22	484.76
655.56	482.36
655.90	479.97
656.25	477.79
656.59	475.46
656.93	473.32
657.27	471.19
657.61	468.62
657.95	466.63
658.29	464.48
658.64	462.31
658.98	460.07
659.32	457.44
659.66	455.24
660.00	452.98
660.34	450.75
660.68	448.40
661.02	446.37
661.36	444.25
661.70	442.37
662.05	440.41
662.39	438.57
662.73	436.69
663.07	434.96
663.41	433.10
663.75	431.11
664.09	429.12
664.43	427.17
664.77	425.50
665.11	423.65
665.45	421.70
665.79	419.92
666.13	417.99
666.47	416.25
666.81	414.46
667.15	412.60
667.49	410.93
667.83	409.48
668.17	407.80
668.51	405.95
668.85	404.20
669.19	402.70
669.53	400.97
669.87	399.28
670.21	397.59
670.55	395.90
670.89	394.40
671.23	392.96
671.57	391.28
671.91	389.88
672.25	388.31
672.58	386.99
672.92	385.30
673.26	383.99
673.60	382.90
673.94	381.35
674.28	380.07
674.62	378.73
674.96	377.20
675.30	376.00
675.64	374.82
675.97	373.60
676.31	372.29
676.65	371.10
676.99	369.90
677.33	368.57
677.67	367.15
678.01	365.79
678.34	364.42
678.68	363.14
679.02	361.81
679.36	360.53
679.70	359.23
680.04	358.13
680.37	356.87
680.71	355.53
681.05	354.36
681.39	353.26
681.73	352.15
682.06	351.22
682.40	349.95
682.74	348.83
683.08	347.65
683.42	346.29
683.75	345.26
684.09	344.03
684.43	343.04
684.77	341.93
685.10	340.90
685.44	339.90
685.78	338.87
686.12	337.77
686.45	336.77
686.79	335.64
687.13	334.74
687.46	333.80
687.80	332.78
688.14	331.80
688.48	330.76
688.81	329.66
689.15	328.60
689.49	327.68
689.82	326.69
690.16	325.67
690.50	324.94
690.83	323.95
691.17	323.06
691.51	322.07
691.84	321.30
692.18	320.34
692.52	319.26
692.85	318.47
693.19	317.71
693.52	316.83
693.86	315.97
694.20	314.91
694.53	313.98
694.87	313.07
695.21	312.14
695.54	311.24
695.88	310.20
696.21	309.26
696.55	308.42
696.88	307.68
697.22	306.77
697.56	305.87
697.89	305.05
698.23	304.19
698.56	303.40
698.90	302.48
699.23	301.74
699.57	301.03
699.90	300.12
700.24	299.06
700.58	298.20
700.91	297.29
701.25	296.66
701.58	295.91
701.92	295.19
702.25	294.51
702.59	293.88
702.92	293.35
703.26	292.59
703.59	291.93
703.93	291.27
704.26	290.71
704.60	289.93
704.93	289.13
705.26	288.53
705.60	287.88
705.93	287.31
706.27	286.65
706.60	286.06
706.94	285.50
707.27	284.87
707.61	284.25
707.94	283.74
708.27	282.97
708.61	282.25
708.94	281.71
709.28	281.10
709.61	280.39
709.94	279.79
710.28	279.18
710.61	278.41
710.95	277.69
711.28	277.14
711.61	276.65
711.95	276.11
712.28	275.47
712.61	274.76
712.95	274.22
713.28	273.66
713.61	273.09
713.95	272.57
714.28	272.16
714.61	271.67
714.95	271.18
715.28	270.71
715.61	270.31
715.95	269.77
716.28	269.36
716.61	268.97
716.95	268.49
717.28	268.07
717.61	267.82
717.94	267.42
718.28	266.90
718.61	266.46
718.94	266.11
719.27	265.67
719.61	265.38
719.94	265.01
720.27	264.62
720.60	264.30
720.94	263.87
721.27	263.55
721.60	263.22
721.93	262.93
722.27	262.62
722.60	262.30
722.93	261.89
723.26	261.49
723.59	261.13
723.93	260.88
724.26	260.69
724.59	260.27
724.92	259.97
725.25	259.75
725.59	259.44
725.92	259.12
726.25	258.83
726.58	258.70
726.91	258.37
727.24	258.17
727.57	257.92
727.91	257.68
728.24	257.50
728.57	257.21
728.90	256.93
729.23	256.59
729.56	256.31
729.89	256.16
730.22	255.91
730.55	255.56
730.89	255.30
731.22	254.98
731.55	254.80
731.88	254.51
732.21	254.19
732.54	253.91
732.87	253.63
733.20	253.55
733.53	253.18
733.86	253.05
734.19	252.79
734.52	252.52
734.85	252.37
735.18	252.12
735.51	251.95
735.84	251.75
736.17	251.64
736.50	251.30
736.83	251.27
737.16	251.01
737.49	250.84
737.82	250.57
738.15	250.29
738.48	249.93
738.81	249.66
739.14	249.56
739.47	249.31
739.80	249.11
740.13	248.85
740.46	248.53
740.79	248.28
741.12	247.91
741.45	247.64
741.78	247.31
742.11	247.06
742.44	246.87
742.77	246.59
743.10	246.26
743.43	246.15
743.75	245.70
744.08	245.77
744.41	245.57
744.74	245.37
745.07	245.14
745.40	245.08
745.73	244.97
746.06	244.63
746.39	244.44
746.71	244.25
747.04	244.01
747.37	243.83
747.70	243.55
748.03	243.35
748.36	243.18
748.68	242.99
749.01	242.77
749.34	242.50
749.67	242.28
750.00	242.10
750.33	241.98
750.65	241.78
750.98	241.33
751.31	241.05
751.64	240.93
751.97	240.86
752.29	240.65
752.62	240.40
752.95	240.23
753.28	240.08
753.60	239.96
753.93	239.85
754.26	239.70
754.59	239.49
754.91	239.41
755.24	239.26
755.57	239.12
755.90	238.91
756.22	238.77
756.55	238.67
756.88	238.52
757.20	238.35
757.53	238.20
757.86	238.10
758.19	238.16
758.51	237.98
758.84	237.80
759.17	237.74
759.49	237.65
759.82	237.60
760.15	237.54
760.47	237.47
760.80	237.33
761.13	237.33
761.45	237.33
761.78	237.23
762.11	237.26
762.43	237.29
762.76	237.30
763.08	237.29
763.41	237.31
763.74	237.27
764.06	237.22
764.39	237.26
764.71	237.20
765.04	237.03
765.37	237.00
765.69	236.96
766.02	236.97
766.34	236.94
766.67	236.94
767.00	236.98
767.32	236.92
767.65	236.99
767.97	236.96
768.30	236.83
768.62	236.85
768.95	236.78
769.27	236.63
769.60	236.55
769.92	236.54
770.25	236.35
770.57	236.39
770.90	236.33
771.22	236.28
771.55	236.20
771.87	236.27
772.20	236.18
772.52	236.26
772.85	236.27
773.17	236.25
773.50	236.13
773.82	235.96
774.15	235.97
774.47	235.85
774.80	235.72
775.12	235.77
775.45	235.62
775.77	235.45
776.09	235.47
776.42	235.43
776.74	235.34
777.07	235.28
777.39	235.10
777.72	235.01
778.04	234.88
778.36	234.85
778.69	234.78
779.01	234.78
779.33	234.54
779.66	234.31
779.98	234.22
780.31	234.16
780.63	234.21
780.95	234.04
781.28	233.90
781.60	233.81
781.92	233.63
782.25	233.51
782.57	233.46
782.89	233.24
783.22	233.11
783.54	232.98
783.86	232.94
784.19	232.83
784.51	232.77
784.83	232.70
785.16	232.47
785.48	232.40
785.80	232.30
786.12	232.21
786.45	232.15
786.77	232.08
787.09	232.03
787.42	231.82
787.74	231.78
788.06	231.76
788.38	231.62
788.71	231.59
789.03	231.66
789.35	231.59
789.67	231.58
789.99	231.49
790.32	231.35
790.64	231.39
790.96	231.46
791.28	231.32
791.61	231.23
791.93	231.29
792.25	231.09
792.57	231.11
792.89	231.03
793.21	230.89
793.54	230.84
793.86	230.79
794.18	230.74
794.50	230.72
794.82	230.55
795.14	230.60
795.47	230.67
795.79	230.50
796.11	230.40
796.43	230.36
796.75	230.41
797.07	230.44
797.39	230.29
797.71	230.20
798.04	230.21
798.36	230.28
798.68	230.23
799.00	230.35
799.32	230.35
799.64	230.35
799.96	230.37
800.28	230.43
800.60	230.39
800.92	230.50
801.24	230.46
801.56	230.55
801.89	230.44
802.21	230.37
802.53	230.41
802.85	230.48
803.17	230.50
803.49	230.46
803.81	230.44
804.13	230.50
804.45	230.39
804.77	230.45
805.09	230.50
805.41	230.55
805.73	230.41
806.05	230.37
806.37	230.50
806.69	230.53
807.01	230.45
807.33	230.43
807.65	230.32
807.97	230.41
808.28	230.42
808.60	230.41
808.92	230.47
809.24	230.61
809.56	230.68
809.88	230.70
810.20	230.72
810.52	230.88
810.84	230.79
811.16	230.87
811.48	230.75
811.80	230.74
812.12	230.80
812.43	231.00
812.75	230.87
813.07	230.84
813.39	230.89
813.71	230.93
814.03	231.00
814.35	231.06
814.67	231.03
814.98	231.01
815.30	231.12
815.62	231.14
815.94	231.03
816.26	231.00
816.58	231.09
816.89	231.12
817.21	231.08
817.53	231.12
817.85	231.20
818.17	231.19
818.48	231.15
818.80	231.13
819.12	231.07
819.44	231.19
819.76	231.10
820.07	230.99
820.39	230.97
820.71	230.94
821.03	230.87
821.34	230.80
821.66	230.73
821.98	230.76
822.30	230.60
822.61	230.66
822.93	230.53
823.25	230.38
823.57	230.23
823.88	230.23
824.20	230.29
824.52	230.22
824.83	230.20
825.15	230.05
825.47	229.93
825.79	229.80
826.10	229.76
826.42	229.68
826.74	229.66
827.05	229.49
827.37	229.44
827.69	229.41
828.00	229.40
828.32	229.40
828.64	229.30
828.95	229.33
829.27	229.21
829.58	229.27
829.90	229.19
830.22	229.19
830.53	228.94
830.85	228.88
831.17	228.80
831.48	228.72
831.80	228.70
832.11	228.70
832.43	228.61
832.75	228.49
833.06	228.64
833.38	228.58
833.69	228.57
834.01	228.50
834.32	228.31
834.64	228.12
834.96	228.15
835.27	228.05
835.59	227.96
835.90	227.92
836.22	227.87
836.53	227.82
836.85	227.83
837.16	228.09
837.48	228.02
837.79	228.02
838.11	228.06
838.42	227.99
838.74	227.95
839.05	227.96
839.37	228.01
839.68	227.83
840.00	227.89
840.31	227.98
840.63	227.99
840.94	228.12
841.26	228.26
841.57	228.23
841.88	228.31
842.20	228.40
842.51	228.32
842.83	228.35
843.14	228.49
843.46	228.48
843.77	228.40
844.08	228.38
844.40	228.46
844.71	228.42
845.03	228.47
845.34	228.53
845.65	228.60
845.97	228.65
846.28	228.76
846.60	228.72
846.91	228.76
847.22	228.77
847.54	228.78
847.85	228.81
848.16	228.88
848.48	228.91
848.79	229.03
849.10	229.20
849.42	229.20
849.73	229.10
850.04	229.13
850.36	229.20
850.67	229.23
850.98	229.22
851.30	229.31
851.61	229.43
851.92	229.49
852.23	229.54
852.55	229.53
852.86	229.57
853.17	229.59
853.49	229.68
853.80	229.75
854.11	229.85
854.42	229.83
854.74	229.82
855.05	229.84
855.36	229.74
855.67	229.77
855.99	229.87
856.30	230.15
856.61	230.14
856.92	230.01
857.23	230.03
857.55	230.00
857.86	230.10
858.17	230.05
858.48	230.02
858.79	230.01
859.11	229.99
859.42	229.89
859.73	229.91
860.04	229.82
860.35	229.73
860.66	229.74
860.98	229.77
861.29	229.66
861.60	229.64
861.91	229.63
862.22	229.45
862.53	229.39
862.84	229.14
863.16	229.11
863.47	229.12
863.78	229.08
864.09	229.04
864.40	228.92
864.71	228.89
865.02	228.80
865.33	228.76
865.64	228.77
865.95	228.71
866.27	228.84
866.58	228.80
866.89	228.85
867.20	228.73
867.51	228.63
867.82	228.61
868.13	228.58
868.44	228.54
868.75	228.57
869.06	228.50
869.37	228.47
869.68	228.34
869.99	228.30
870.30	228.32
870.61	228.25
870.92	228.15
871.23	228.14
871.54	228.11
871.85	228.09
872.16	227.96
872.47	227.99
872.78	227.83
873.09	227.80
873.40	227.73
873.71	227.62
874.02	227.60
874.33	227.50
874.64	227.42
874.95	227.37
875.26	227.29
875.56	227.27
875.87	227.16
876.18	227.29
876.49	227.51
876.80	227.49
877.11	227.53
877.42	227.51
877.73	227.55
878.04	227.59
878.35	227.57
878.66	227.61
878.96	227.63
879.27	227.58
879.58	227.51
879.89	227.50
880.20	227.68
880.51	227.71
880.82	227.78
881.12	227.75
881.43	227.72
881.74	227.83
882.05	227.80
882.36	227.96
882.67	228.02
882.97	227.77
883.28	227.71
883.59	227.68
883.90	227.72
884.21	227.70
884.51	227.70
884.82	227.77
885.13	227.79
885.44	227.86
885.74	227.95
886.05	227.98
886.36	228.02
886.67	228.01
886.98	228.10
887.28	228.24
887.59	228.39
887.90	228.46
888.20	228.38
888.51	228.62
888.82	228.55
889.13	228.59
889.43	228.88
889.74	228.96
890.05	229.03
890.35	229.12
890.66	229.26
890.97	229.38
891.28	229.31
891.58	229.41
891.89	229.44
892.20	229.34
892.50	229.50
892.81	229.57
893.12	229.58
893.42	229.50
893.73	229.48
894.04	229.49
894.34	229.51
894.65	229.53
894.95	229.50
895.26	229.52
895.57	229.50
895.87	229.40
896.18	229.47
896.48	229.50
896.79	229.54
897.10	229.48
897.40	229.43
897.71	229.52
898.01	229.51
898.32	229.50
898.63	229.57
898.93	229.44
899.24	229.37
899.54	229.31
899.85	229.32
900.15	229.42
900.46	229.44
900.76	229.43
901.07	229.41
901.38	229.34
901.68	229.42
901.99	229.42
902.29	229.24
902.60	229.17
902.90	229.04
903.21	229.01
903.51	229.00
903.82	228.98
904.12	228.85
904.43	228.84
904.73	228.65
905.03	228.62
905.34	228.75
905.64	228.66
905.95	228.46
906.25	228.40
906.56	228.23
906.86	228.11
907.17	228.10
907.47	228.08
907.77	227.91
908.08	227.79
908.38	227.69
908.69	227.70
908.99	227.69
909.30	227.70
909.60	227.61
909.90	227.47
910.21	227.40
910.51	227.35
910.81	227.29
911.12	227.39
911.42	227.43
911.73	227.26
912.03	227.26
912.33	227.43
912.64	227.37
912.94	227.29
913.24	227.26
913.55	227.17
913.85	227.18
914.15	227.26
914.46	227.32
914.76	227.29
915.06	227.32
915.37	227.30
915.67	227.25
915.97	227.16
916.27	227.09
916.58	227.12
916.88	227.15
917.18	227.09
917.49	227.14
917.79	227.13
918.09	227.24
918.39	227.39
918.70	227.33
919.00	227.37
919.30	227.58
919.60	227.64
919.91	227.68
920.21	227.76
920.51	227.81
920.81	227.83
921.12	227.84
921.42	227.89
921.72	227.80
922.02	227.90
922.32	228.08
922.63	228.26
922.93	228.34
923.23	228.36
923.53	228.44
923.83	228.41
924.13	228.49
924.44	228.49
924.74	228.56
925.04	228.77
925.34	228.83
925.64	228.80
925.94	228.79
926.24	228.96
926.55	228.96
926.85	228.93
927.15	228.92
927.45	228.97
927.75	229.05
928.05	229.18
928.35	229.20
928.65	229.27
928.95	229.32
929.26	229.22
929.56	229.30
929.86	229.38
930.16	229.48
930.46	229.48
930.76	229.51
931.06	229.46
931.36	229.41
931.66	229.48
931.96	229.55
932.26	229.61
932.56	229.51
932.86	229.39
933.16	229.46
933.46	229.46
933.76	229.55
934.06	229.52
934.36	229.65
934.66	229.61
934.96	229.53
935.26	229.53
935.56	229.61
935.86	229.57
936.16	229.57
936.46	229.54
936.76	229.46
937.06	229.40
937.36	229.32
937.66	229.23
937.96	229.14
938.26	229.08
938.56	228.94
938.86	228.93
939.16	228.99
939.46	228.95
939.76	228.94
940.06	228.84
940.35	228.71
940.65	228.45
940.95	228.44
941.25	228.35
941.55	228.28
941.85	228.21
942.15	228.16
942.45	228.07
942.75	227.96
943.04	228.03
943.34	228.02
943.64	227.88
943.94	227.80
944.24	227.80
944.54	227.70
944.84	227.68
945.13	227.56
945.43	227.55
945.73	227.59
946.03	227.49
946.33	227.47
946.62	227.39
946.92	227.44
947.22	227.44
947.52	227.47
947.82	227.39
948.11	227.33
948.41	227.35
948.71	227.35
949.01	227.35
949.31	227.11
949.60	227.07
949.90	227.15
950.20	227.19
950.50	227.18
950.79	227.11
951.09	227.20
951.39	227.21
951.69	227.23
951.98	227.18
952.28	227.23
952.58	227.25
952.87	227.38
953.17	227.48
953.47	227.43
953.76	227.41
954.06	227.49
954.36	227.44
954.66	227.44
954.95	227.47
955.25	227.40
955.55	227.52
955.84	227.53
956.14	227.65
956.44	227.69
956.73	227.69
957.03	227.81
957.32	227.81
957.62	227.90
957.92	227.90
958.21	227.86
958.51	228.09
958.81	228.17
959.10	228.13
959.40	228.09
959.69	228.20
959.99	228.30
960.29	228.37
960.58	228.39
960.88	228.50
961.17	228.46
961.47	228.60
961.76	228.57
962.06	228.65
962.36	228.59
962.65	228.64
962.95	228.63
963.24	228.62
963.54	228.64
963.83	228.72
964.13	228.80
964.42	228.88
964.72	228.79
965.01	228.77
965.31	228.79
965.60	228.83
965.90	228.96
966.19	229.00
966.49	229.05
966.78	229.14
967.08	229.13
967.37	229.22
967.67	229.19
967.96	229.30
968.26	229.27
968.55	229.34
968.85	229.30
969.14	229.33
969.43	229.32
969.73	229.38
970.02	229.23
970.32	229.23
970.61	229.18
970.91	229.05
971.20	228.96
971.49	228.95
971.79	228.96
972.08	228.71
972.38	228.61
972.67	228.54
972.96	228.51
973.26	228.46
973.55	228.51
973.85	228.50
974.14	228.45
974.43	228.42
974.73	228.36
975.02	228.43
975.31	228.39
975.61	228.37
975.90	228.37
976.19	228.44
976.49	228.45
976.78	228.42
977.07	228.39
977.37	228.41
977.66	228.40
977.95	228.25
978.24	228.35
978.54	228.43
978.83	228.35
979.12	228.35
979.42	228.37
979.71	228.19
980.00	228.11
980.29	228.17
980.59	228.11
980.88	228.12
981.17	228.02
981.46	227.99
981.76	227.98
982.05	227.95
982.34	227.90
982.63	227.77
982.93	227.75
983.22	227.86
983.51	227.84
983.80	227.83
984.09	227.90
984.39	227.89
984.68	227.89
984.97	227.83
985.26	227.82
985.55	227.78
985.85	227.81
986.14	227.87
986.43	227.84
986.72	227.82
987.01	227.78
987.30	227.80
987.59	227.79
987.89	227.80
988.18	227.70
988.47	227.69
988.76	227.74
989.05	227.80
989.34	227.77
989.63	227.85
989.92	227.86
990.22	227.90
990.51	227.83
990.80	227.74
991.09	227.92
991.38	227.93
991.67	227.94
991.96	227.94
992.25	228.00
992.54	227.99
992.83	228.03
993.12	228.13
993.41	228.20
993.70	228.38
993.99	228.39
994.28	228.61
994.58	228.70
994.87	228.70
995.16	228.65
995.45	228.63
995.74	228.66
996.03	228.71
996.32	228.72
996.61	228.75
996.90	228.83
997.19	228.67
997.48	228.73
997.77	228.71
998.06	228.73
998.34	228.73
998.63	228.82
998.92	228.82
999.21	228.80
999.50	228.78
999.79	228.79
1000.08	228.87
1000.37	228.79
1000.66	228.73
1000.95	228.84
1001.24	228.92
1001.53	228.91
1001.82	228.90
1002.11	228.92
1002.40	229.00
1002.68	229.18
1002.97	229.28
1003.26	229.35
1003.55	229.37
1003.84	229.45
1004.13	229.59
1004.42	229.58
1004.71	229.52
1004.99	229.60
1005.28	229.62
1005.57	229.63
1005.86	229.51
1006.15	229.43
1006.44	229.39
1006.72	229.51
1007.01	229.49
1007.30	229.47
1007.59	229.53
1007.88	229.55
1008.17	229.51
1008.45	229.38
1008.74	229.24
1009.03	229.12
1009.32	229.13
1009.60	229.08
1009.89	229.04
1010.18	228.87
1010.47	228.84
1010.76	228.86
1011.04	228.80
1011.33	228.79
1011.62	228.81
1011.91	228.82
1012.19	228.76
1012.48	228.77
1012.77	228.64
1013.05	228.65
1013.34	228.56
1013.63	228.52
1013.92	228.42
1014.20	228.34
1014.49	228.37
1014.78	228.33
1015.06	228.21
1015.35	228.21
1015.64	228.21
1015.92	228.14
1016.21	228.15
1016.50	228.14
1016.78	228.05
1017.07	228.02
1017.36	228.00
1017.64	227.87
1017.93	227.82
1018.22	227.88
1018.50	227.73
1018.79	227.70
1019.08	227.60
1019.36	227.63
1019.65	227.59
1019.93	227.64
1020.22	227.72
1020.51	227.88
1020.79	227.81
1021.08	228.00
1021.36	225.70
1021.65	227.30
1021.94	227.80
1022.22	227.90
1022.51	227.80
1022.79	228.70
1023.08	228.70
1023.36	232.00
1023.65	225.90
>>>>>End Processed Spectral Data<<<<<
