SpectraSuite Data File
++++++++++++++++++++++++++++++++++++
Date: Fri Feb 01 14:41:55 EST 2013
User: group
Dark Spectrum Present: No
Reference Spectrum Present: No
Number of Sampled Component Spectra: 1
Spectrometers: USB2E7196
Integration Time (usec): 70000 (USB2E7196)
Spectra Averaged: 10 (USB2E7196)
Boxcar Smoothing: 10 (USB2E7196)
Correct for Electrical Dark: No (USB2E7196)
Strobe/Lamp Enabled: No (USB2E7196)
Correct for Detector Non-linearity: No (USB2E7196)
Correct for Stray Light: No (USB2E7196)
Number of Pixels in Processed Spectrum: 2048
>>>>>Begin Processed Spectral Data<<<<<
339.09	0.00
339.48	217.30
339.86	219.30
340.24	219.80
340.63	220.10
341.01	226.90
341.39	224.50
341.78	224.20
342.16	226.80
342.54	226.90
342.93	215.11
343.31	225.95
343.69	226.43
344.07	226.85
344.46	227.31
344.84	227.78
345.22	227.73
345.60	227.95
345.99	228.18
346.37	228.30
346.75	228.36
347.13	228.50
347.52	228.57
347.90	228.73
348.28	228.71
348.66	228.70
349.05	228.67
349.43	228.72
349.81	228.80
350.19	228.81
350.57	228.98
350.96	229.16
351.34	229.27
351.72	229.41
352.10	229.52
352.48	229.52
352.87	229.52
353.25	229.75
353.63	229.79
354.01	229.84
354.39	229.86
354.77	230.00
355.15	230.03
355.54	230.09
355.92	230.10
356.30	230.31
356.68	230.60
357.06	230.71
357.44	230.80
357.82	230.87
358.20	231.02
358.58	230.95
358.97	231.00
359.35	231.12
359.73	231.18
360.11	231.27
360.49	231.40
360.87	231.41
361.25	231.48
361.63	231.62
362.01	231.67
362.39	231.84
362.77	231.85
363.15	231.89
363.53	231.94
363.91	231.93
364.29	231.76
364.67	231.54
365.05	231.48
365.43	231.43
365.81	231.34
366.19	231.34
366.57	231.40
366.95	231.35
367.33	231.20
367.71	231.14
368.09	231.06
368.47	230.96
368.85	230.94
369.23	230.91
369.61	230.77
369.99	230.75
370.37	230.56
370.75	230.55
371.13	230.59
371.51	230.54
371.89	230.55
372.27	230.54
372.65	230.43
373.03	230.43
373.41	230.45
373.78	230.50
374.16	230.26
374.54	230.20
374.92	230.12
375.30	230.05
375.68	229.99
376.06	229.88
376.44	229.83
376.82	229.80
377.19	229.57
377.57	229.50
377.95	229.45
378.33	229.46
378.71	229.30
379.09	229.17
379.47	229.02
379.84	228.90
380.22	228.88
380.60	228.93
380.98	228.84
381.36	228.80
381.73	228.76
382.11	228.74
382.49	228.72
382.87	228.61
383.25	228.68
383.62	228.86
384.00	228.91
384.38	228.88
384.76	228.97
385.13	229.12
385.51	229.09
385.89	229.00
386.27	228.90
386.64	228.90
387.02	228.91
387.40	228.92
387.78	228.89
388.15	228.88
388.53	228.76
388.91	228.71
389.29	228.63
389.66	228.61
390.04	228.63
390.42	228.59
390.79	228.71
391.17	228.59
391.55	228.37
391.92	228.32
392.30	228.34
392.68	228.30
393.05	228.30
393.43	228.35
393.81	228.38
394.18	228.38
394.56	228.48
394.94	228.50
395.31	228.58
395.69	228.71
396.06	228.67
396.44	228.76
396.82	228.85
397.19	228.95
397.57	229.01
397.95	229.15
398.32	229.21
398.70	229.25
399.07	229.46
399.45	229.58
399.82	229.70
400.20	229.78
400.58	229.81
400.95	229.90
401.33	230.05
401.70	230.28
402.08	230.44
402.45	230.58
402.83	230.77
403.20	230.88
403.58	230.94
403.95	231.28
404.33	231.53
404.71	231.69
405.08	231.97
405.46	232.14
405.83	232.30
406.21	232.60
406.58	232.90
406.96	233.17
407.33	233.43
407.70	233.65
408.08	234.10
408.45	234.36
408.83	234.71
409.20	234.97
409.58	235.23
409.95	235.58
410.33	236.01
410.70	236.27
411.08	236.73
411.45	237.13
411.82	237.42
412.20	237.84
412.57	238.48
412.95	238.95
413.32	239.45
413.69	239.98
414.07	240.38
414.44	240.95
414.82	241.71
415.19	242.44
415.56	243.25
415.94	243.97
416.31	244.92
416.68	245.71
417.06	246.69
417.43	247.64
417.81	248.78
418.18	249.78
418.55	251.03
418.93	252.29
419.30	253.64
419.67	255.05
420.04	256.49
420.42	257.86
420.79	259.58
421.16	261.24
421.54	263.02
421.91	264.92
422.28	266.82
422.66	268.54
423.03	270.48
423.40	272.49
423.77	274.52
424.15	276.63
424.52	278.85
424.89	281.26
425.26	283.48
425.64	285.66
426.01	288.11
426.38	290.62
426.75	293.18
427.13	295.79
427.50	298.44
427.87	301.28
428.24	304.12
428.61	306.68
428.99	309.63
429.36	312.74
429.73	315.79
430.10	318.80
430.47	321.99
430.85	325.09
431.22	328.35
431.59	331.95
431.96	335.20
432.33	338.85
432.70	342.39
433.08	346.74
433.45	350.58
433.82	354.33
434.19	358.52
434.56	362.60
434.93	366.48
435.30	370.40
435.68	374.69
436.05	378.84
436.42	382.88
436.79	386.50
437.16	390.35
437.53	394.50
437.90	398.65
438.27	402.63
438.64	406.79
439.01	410.48
439.38	413.83
439.75	417.25
440.13	420.99
440.50	424.32
440.87	426.94
441.24	429.86
441.61	432.97
441.98	435.20
442.35	437.82
442.72	440.53
443.09	443.19
443.46	444.57
443.83	445.28
444.20	446.10
444.57	447.19
444.94	447.61
445.31	448.10
445.68	448.60
446.05	448.62
446.42	448.07
446.79	447.60
447.16	446.85
447.53	446.29
447.90	444.57
448.27	442.82
448.64	440.49
449.01	438.66
449.37	435.79
449.74	432.91
450.11	429.58
450.48	425.74
450.85	421.85
451.22	418.54
451.59	415.54
451.96	412.72
452.33	409.10
452.70	405.60
453.07	401.41
453.43	397.11
453.80	393.06
454.17	389.08
454.54	385.33
454.91	381.26
455.28	377.04
455.65	373.29
456.02	369.83
456.38	366.52
456.75	362.62
457.12	359.34
457.49	355.95
457.86	352.62
458.23	349.99
458.59	346.98
458.96	343.91
459.33	341.16
459.70	338.30
460.07	335.93
460.43	333.40
460.80	330.99
461.17	328.82
461.54	326.58
461.91	324.47
462.27	322.18
462.64	320.14
463.01	318.21
463.38	316.30
463.74	314.13
464.11	312.41
464.48	310.94
464.85	309.14
465.21	307.91
465.58	306.63
465.95	304.94
466.32	303.69
466.68	302.35
467.05	301.02
467.42	299.63
467.78	298.33
468.15	297.04
468.52	295.99
468.88	294.59
469.25	293.37
469.62	292.25
469.98	291.18
470.35	290.39
470.72	289.53
471.08	288.54
471.45	287.61
471.82	286.77
472.18	285.92
472.55	285.20
472.92	284.33
473.28	283.39
473.65	282.66
474.02	281.92
474.38	281.24
474.75	280.61
475.11	280.02
475.48	279.49
475.85	279.12
476.21	278.59
476.58	278.25
476.94	278.00
477.31	277.72
477.67	277.43
478.04	277.12
478.41	276.85
478.77	276.82
479.14	276.75
479.50	276.64
479.87	276.52
480.23	276.53
480.60	276.60
480.96	276.67
481.33	276.88
481.69	276.95
482.06	277.16
482.42	277.35
482.79	277.61
483.15	278.04
483.52	278.47
483.88	278.80
484.25	279.18
484.61	279.59
484.98	280.06
485.34	280.69
485.71	281.30
486.07	281.98
486.44	282.43
486.80	283.18
487.17	283.96
487.53	284.98
487.90	286.01
488.26	287.09
488.62	288.30
488.99	289.52
489.35	290.77
489.72	292.15
490.08	293.56
490.44	295.14
490.81	296.63
491.17	298.21
491.54	300.27
491.90	302.13
492.26	304.32
492.63	306.48
492.99	308.71
493.36	311.00
493.72	313.61
494.08	316.35
494.45	319.19
494.81	322.28
495.17	325.25
495.54	328.56
495.90	331.88
496.26	335.36
496.63	339.10
496.99	343.07
497.35	347.13
497.72	351.61
498.08	356.01
498.44	360.66
498.80	365.63
499.17	370.64
499.53	376.03
499.89	381.60
500.26	387.52
500.62	393.60
500.98	400.06
501.34	406.48
501.71	413.39
502.07	420.44
502.43	427.67
502.79	435.16
503.16	443.00
503.52	451.35
503.88	459.74
504.24	468.32
504.60	477.31
504.97	486.90
505.33	496.41
505.69	506.69
506.05	517.05
506.41	527.43
506.78	538.25
507.14	549.73
507.50	561.18
507.86	573.06
508.22	585.37
508.59	598.14
508.95	610.97
509.31	624.22
509.67	638.02
510.03	651.90
510.39	666.23
510.75	680.87
511.12	695.64
511.48	711.20
511.84	727.18
512.20	743.17
512.56	759.53
512.92	776.39
513.28	793.18
513.64	810.58
514.00	828.40
514.37	846.48
514.73	864.63
515.09	882.85
515.45	901.59
515.81	920.75
516.17	940.03
516.53	960.12
516.89	979.83
517.25	999.64
517.61	1020.09
517.97	1040.60
518.33	1060.89
518.69	1081.94
519.05	1103.07
519.41	1124.60
519.77	1146.54
520.13	1168.47
520.49	1190.36
520.85	1212.60
521.21	1234.90
521.57	1258.00
521.93	1279.94
522.29	1302.82
522.65	1325.83
523.01	1348.51
523.37	1370.95
523.73	1393.80
524.09	1416.68
524.45	1440.23
524.81	1463.57
525.17	1487.68
525.53	1511.93
525.89	1536.12
526.25	1560.39
526.61	1584.05
526.97	1608.38
527.33	1632.23
527.68	1656.45
528.04	1680.58
528.40	1704.89
528.76	1729.93
529.12	1754.10
529.48	1779.47
529.84	1803.05
530.20	1827.72
530.56	1853.05
530.91	1878.66
531.27	1903.79
531.63	1928.49
531.99	1952.82
532.35	1976.83
532.71	1999.83
533.07	2023.51
533.42	2047.13
533.78	2071.26
534.14	2095.16
534.50	2116.87
534.86	2140.08
535.21	2162.21
535.57	2185.56
535.93	2207.64
536.29	2229.50
536.65	2251.59
537.00	2272.69
537.36	2295.25
537.72	2316.64
538.08	2337.50
538.44	2357.67
538.79	2378.20
539.15	2398.01
539.51	2418.63
539.87	2439.83
540.22	2460.63
540.58	2481.16
540.94	2500.73
541.29	2518.90
541.65	2537.93
542.01	2558.40
542.37	2577.62
542.72	2596.30
543.08	2614.15
543.44	2633.26
543.79	2649.90
544.15	2667.19
544.51	2685.68
544.87	2702.83
545.22	2719.74
545.58	2735.76
545.94	2751.46
546.29	2767.18
546.65	2782.26
547.01	2796.76
547.36	2810.82
547.72	2824.76
548.07	2838.33
548.43	2851.90
548.79	2864.98
549.14	2877.40
549.50	2888.94
549.86	2900.23
550.21	2911.80
550.57	2923.17
550.92	2933.80
551.28	2944.76
551.64	2955.23
551.99	2965.30
552.35	2974.94
552.70	2985.13
553.06	2995.39
553.41	3005.76
553.77	3014.71
554.13	3024.98
554.48	3034.50
554.84	3043.07
555.19	3052.17
555.55	3060.24
555.90	3068.00
556.26	3076.27
556.61	3083.95
556.97	3091.12
557.32	3098.59
557.68	3106.31
558.03	3113.43
558.39	3119.95
558.74	3128.40
559.10	3135.11
559.45	3141.40
559.81	3149.28
560.16	3154.33
560.52	3159.94
560.87	3165.75
561.23	3170.20
561.58	3175.34
561.94	3179.76
562.29	3184.03
562.64	3187.34
563.00	3191.77
563.35	3197.18
563.71	3202.30
564.06	3207.44
564.42	3211.69
564.77	3215.90
565.12	3220.00
565.48	3224.03
565.83	3227.14
566.19	3228.91
566.54	3230.78
566.89	3232.22
567.25	3232.69
567.60	3235.86
567.96	3237.80
568.31	3238.22
568.66	3239.95
569.02	3240.86
569.37	3241.11
569.72	3241.94
570.08	3242.60
570.43	3242.48
570.78	3241.86
571.14	3240.08
571.49	3238.64
571.84	3238.71
572.20	3236.25
572.55	3233.22
572.90	3230.18
573.26	3228.06
573.61	3225.93
573.96	3223.44
574.31	3219.96
574.67	3215.36
575.02	3210.51
575.37	3206.39
575.72	3201.51
576.08	3197.33
576.43	3192.12
576.78	3187.68
577.13	3183.44
577.49	3178.97
577.84	3173.52
578.19	3168.06
578.54	3162.40
578.90	3155.64
579.25	3148.30
579.60	3142.05
579.95	3135.69
580.30	3128.65
580.66	3121.36
581.01	3113.42
581.36	3106.53
581.71	3100.36
582.06	3094.23
582.42	3086.76
582.77	3078.46
583.12	3071.61
583.47	3064.67
583.82	3057.76
584.17	3049.81
584.53	3041.90
584.88	3033.68
585.23	3025.34
585.58	3017.73
585.93	3009.93
586.28	3003.29
586.63	2996.44
586.98	2989.34
587.34	2982.01
587.69	2974.71
588.04	2967.14
588.39	2960.00
588.74	2950.28
589.09	2941.36
589.44	2931.90
589.79	2923.91
590.14	2916.29
590.49	2907.42
590.84	2898.26
591.19	2889.35
591.54	2879.93
591.89	2868.74
592.25	2858.76
592.60	2848.29
592.95	2837.53
593.30	2827.13
593.65	2815.95
594.00	2805.18
594.35	2795.42
594.70	2784.33
595.05	2774.22
595.40	2762.95
595.75	2751.38
596.10	2742.63
596.45	2733.10
596.80	2724.40
597.15	2714.89
597.50	2704.57
597.85	2695.04
598.19	2685.59
598.54	2676.28
598.89	2667.21
599.24	2659.20
599.59	2650.32
599.94	2642.12
600.29	2632.87
600.64	2623.60
600.99	2613.46
601.34	2603.37
601.69	2592.42
602.04	2583.05
602.39	2573.03
602.74	2564.68
603.08	2556.27
603.43	2546.81
603.78	2536.98
604.13	2526.87
604.48	2516.11
604.83	2506.09
605.18	2495.90
605.53	2484.65
605.87	2472.55
606.22	2462.06
606.57	2451.09
606.92	2440.15
607.27	2429.80
607.62	2419.72
607.96	2409.46
608.31	2400.17
608.66	2389.33
609.01	2377.98
609.36	2366.52
609.70	2354.08
610.05	2341.28
610.40	2329.54
610.75	2317.17
611.10	2305.08
611.44	2292.68
611.79	2281.59
612.14	2269.78
612.49	2257.18
612.83	2245.20
613.18	2233.94
613.53	2222.06
613.88	2210.09
614.22	2198.00
614.57	2185.58
614.92	2173.44
615.27	2161.51
615.61	2149.11
615.96	2137.68
616.31	2126.91
616.65	2116.74
617.00	2106.66
617.35	2096.06
617.70	2084.18
618.04	2072.86
618.39	2061.55
618.74	2050.53
619.08	2038.54
619.43	2027.31
619.78	2017.09
620.12	2006.32
620.47	1995.03
620.82	1983.11
621.16	1972.11
621.51	1961.36
621.85	1950.17
622.20	1938.81
622.55	1928.10
622.89	1917.52
623.24	1907.18
623.59	1896.82
623.93	1885.92
624.28	1874.87
624.62	1863.82
624.97	1853.50
625.32	1843.68
625.66	1833.56
626.01	1823.37
626.35	1813.02
626.70	1802.37
627.04	1791.78
627.39	1781.30
627.73	1770.70
628.08	1760.81
628.43	1750.51
628.77	1740.02
629.12	1729.31
629.46	1718.48
629.81	1707.06
630.15	1695.69
630.50	1684.58
630.84	1672.96
631.19	1660.96
631.53	1650.00
631.88	1638.82
632.22	1627.66
632.57	1616.89
632.91	1605.96
633.26	1594.80
633.60	1583.62
633.95	1573.40
634.29	1563.02
634.64	1552.93
634.98	1542.40
635.32	1532.38
635.67	1522.65
636.01	1512.71
636.36	1502.55
636.70	1493.22
637.05	1483.85
637.39	1475.31
637.73	1465.49
638.08	1456.75
638.42	1448.42
638.77	1439.35
639.11	1430.52
639.45	1421.50
639.80	1411.50
640.14	1402.21
640.49	1393.10
640.83	1383.92
641.17	1374.71
641.52	1365.41
641.86	1355.41
642.20	1347.03
642.55	1337.94
642.89	1328.60
643.23	1319.58
643.58	1311.24
643.92	1301.81
644.26	1292.56
644.61	1283.17
644.95	1274.68
645.29	1264.80
645.64	1255.00
645.98	1246.15
646.32	1237.39
646.66	1228.41
647.01	1219.43
647.35	1210.71
647.69	1201.82
648.04	1193.52
648.38	1184.12
648.72	1174.90
649.06	1166.20
649.41	1157.17
649.75	1147.82
650.09	1138.82
650.43	1130.00
650.78	1120.42
651.12	1111.68
651.46	1103.25
651.80	1094.80
652.14	1085.94
652.49	1077.92
652.83	1069.84
653.17	1061.02
653.51	1052.63
653.85	1044.27
654.20	1036.28
654.54	1027.54
654.88	1019.22
655.22	1010.55
655.56	1002.36
655.90	994.39
656.25	986.60
656.59	978.50
656.93	970.95
657.27	963.20
657.61	954.77
657.95	947.44
658.29	940.15
658.64	932.37
658.98	924.32
659.32	916.64
659.66	909.02
660.00	901.43
660.34	893.88
660.68	886.30
661.02	879.00
661.36	871.77
661.70	864.96
662.05	858.51
662.39	851.91
662.73	845.24
663.07	838.91
663.41	832.46
663.75	826.03
664.09	819.49
664.43	813.18
664.77	807.41
665.11	801.30
665.45	795.02
665.79	789.04
666.13	782.82
666.47	776.90
666.81	770.93
667.15	764.66
667.49	759.09
667.83	753.69
668.17	748.11
668.51	742.57
668.85	736.76
669.19	730.94
669.53	725.55
669.87	720.21
670.21	714.76
670.55	709.57
670.89	704.50
671.23	699.51
671.57	694.41
671.91	689.30
672.25	684.12
672.58	679.02
672.92	674.03
673.26	669.68
673.60	664.85
673.94	660.12
674.28	655.91
674.62	651.55
674.96	646.72
675.30	642.33
675.64	638.00
675.97	633.82
676.31	629.55
676.65	625.30
676.99	621.18
677.33	616.79
677.67	612.27
678.01	607.99
678.34	603.68
678.68	599.37
679.02	595.23
679.36	591.49
679.70	587.48
680.04	583.66
680.37	579.50
680.71	575.71
681.05	572.14
681.39	568.43
681.73	564.61
682.06	561.21
682.40	557.56
682.74	553.75
683.08	550.23
683.42	546.66
683.75	543.04
684.09	539.19
684.43	535.66
684.77	532.35
685.10	528.81
685.44	525.29
685.78	522.07
686.12	518.75
686.45	515.42
686.79	512.27
687.13	508.99
687.46	505.71
687.80	502.66
688.14	499.29
688.48	496.14
688.81	493.00
689.15	489.82
689.49	486.79
689.82	483.92
690.16	480.88
690.50	477.96
690.83	474.99
691.17	472.23
691.51	469.50
691.84	466.83
692.18	463.97
692.52	461.24
692.85	458.44
693.19	455.74
693.52	452.88
693.86	450.07
694.20	447.35
694.53	444.78
694.87	441.82
695.21	439.37
695.54	436.79
695.88	434.10
696.21	431.49
696.55	428.86
696.88	426.24
697.22	423.66
697.56	421.25
697.89	419.00
698.23	416.64
698.56	414.38
698.90	412.01
699.23	409.72
699.57	407.47
699.90	405.24
700.24	402.98
700.58	400.80
700.91	398.70
701.25	396.85
701.58	394.66
701.92	392.72
702.25	390.59
702.59	388.43
702.92	386.53
703.26	384.73
703.59	382.80
703.93	381.11
704.26	379.25
704.60	377.19
704.93	375.29
705.26	373.42
705.60	371.59
705.93	369.86
706.27	368.18
706.60	366.50
706.94	364.81
707.27	362.99
707.61	361.48
707.94	359.83
708.27	357.96
708.61	356.41
708.94	354.87
709.28	353.43
709.61	352.03
709.94	350.66
710.28	349.08
710.61	347.57
710.95	345.94
711.28	344.56
711.61	343.12
711.95	341.64
712.28	340.30
712.61	338.88
712.95	337.47
713.28	336.19
713.61	334.80
713.95	333.39
714.28	332.20
714.61	330.66
714.95	329.43
715.28	328.11
715.61	326.77
715.95	325.50
716.28	324.19
716.61	322.91
716.95	321.65
717.28	320.50
717.61	319.36
717.94	318.17
718.28	316.94
718.61	316.08
718.94	314.94
719.27	313.83
719.61	312.72
719.94	311.64
720.27	310.64
720.60	309.79
720.94	308.89
721.27	308.09
721.60	307.25
721.93	306.36
722.27	305.64
722.60	304.89
722.93	304.13
723.26	303.17
723.59	302.35
723.93	301.63
724.26	300.87
724.59	300.05
724.92	299.42
725.25	298.74
725.59	297.96
725.92	297.29
726.25	296.51
726.58	295.74
726.91	295.04
727.24	294.31
727.57	293.64
727.91	292.90
728.24	292.15
728.57	291.49
728.90	290.83
729.23	289.95
729.56	289.30
729.89	288.60
730.22	288.04
730.55	287.44
730.89	286.72
731.22	285.97
731.55	285.44
731.88	284.82
732.21	284.21
732.54	283.52
732.87	282.90
733.20	282.37
733.53	281.81
733.86	281.27
734.19	280.67
734.52	280.02
734.85	279.63
735.18	279.06
735.51	278.54
735.84	277.89
736.17	277.47
736.50	276.84
736.83	276.44
737.16	275.92
737.49	275.40
737.82	274.88
738.15	274.47
738.48	273.93
738.81	273.36
739.14	272.90
739.47	272.37
739.80	271.83
740.13	271.31
740.46	270.85
740.79	270.33
741.12	269.80
741.45	269.28
741.78	268.69
742.11	268.16
742.44	267.69
742.77	267.31
743.10	266.79
743.43	266.36
743.75	265.66
744.08	265.42
744.41	264.91
744.74	264.35
745.07	263.92
745.40	263.41
745.73	262.98
746.06	262.46
746.39	262.08
746.71	261.71
747.04	261.30
747.37	260.87
747.70	260.48
748.03	260.07
748.36	259.75
748.68	259.36
749.01	259.02
749.34	258.64
749.67	258.22
750.00	257.85
750.33	257.64
750.65	257.39
750.98	256.83
751.31	256.45
751.64	256.16
751.97	255.71
752.29	255.37
752.62	254.96
752.95	254.66
753.28	254.18
753.60	253.87
753.93	253.45
754.26	253.20
754.59	252.80
754.91	252.41
755.24	252.03
755.57	251.70
755.90	251.34
756.22	250.88
756.55	250.55
756.88	250.19
757.20	249.77
757.53	249.37
757.86	249.11
758.19	248.86
758.51	248.63
758.84	248.37
759.17	248.19
759.49	247.97
759.82	247.87
760.15	247.70
760.47	247.44
760.80	247.28
761.13	247.08
761.45	246.88
761.78	246.77
762.11	246.56
762.43	246.30
762.76	246.03
763.08	246.08
763.41	246.00
763.74	245.88
764.06	245.69
764.39	245.58
764.71	245.40
765.04	245.20
765.37	245.00
765.69	244.85
766.02	244.61
766.34	244.39
766.67	244.13
767.00	244.05
767.32	243.94
767.65	243.92
767.97	243.69
768.30	243.55
768.62	243.36
768.95	243.22
769.27	243.01
769.60	242.95
769.92	242.71
770.25	242.51
770.57	242.37
770.90	242.11
771.22	242.00
771.55	241.89
771.87	241.72
772.20	241.60
772.52	241.67
772.85	241.75
773.17	241.70
773.50	241.43
773.82	241.20
774.15	241.01
774.47	240.61
774.80	240.46
775.12	240.34
775.45	240.09
775.77	239.96
776.09	239.86
776.42	239.75
776.74	239.74
777.07	239.57
777.39	239.40
777.72	239.45
778.04	239.22
778.36	239.11
778.69	239.14
779.01	239.00
779.33	238.73
779.66	238.46
779.98	238.39
780.31	238.42
780.63	238.45
780.95	238.38
781.28	238.46
781.60	238.42
781.92	238.21
782.25	238.29
782.57	238.17
782.89	238.10
783.22	237.96
783.54	237.76
783.86	237.71
784.19	237.64
784.51	237.52
784.83	237.41
785.16	237.20
785.48	237.04
785.80	236.99
786.12	236.81
786.45	236.77
786.77	236.61
787.09	236.43
787.42	236.23
787.74	236.13
788.06	236.04
788.38	235.92
788.71	235.92
789.03	235.80
789.35	235.80
789.67	235.69
789.99	235.59
790.32	235.50
790.64	235.38
790.96	235.46
791.28	235.25
791.61	235.15
791.93	235.09
792.25	234.97
792.57	235.04
792.89	234.99
793.21	234.84
793.54	234.74
793.86	234.80
794.18	234.76
794.50	234.62
794.82	234.54
795.14	234.46
795.47	234.52
795.79	234.41
796.11	234.27
796.43	234.24
796.75	234.13
797.07	234.03
797.39	234.00
797.71	233.85
798.04	233.83
798.36	233.83
798.68	233.76
799.00	233.72
799.32	233.50
799.64	233.51
799.96	233.50
800.28	233.44
800.60	233.19
800.92	233.14
801.24	233.08
801.56	233.02
801.89	233.05
802.21	232.94
802.53	232.92
802.85	232.87
803.17	232.87
803.49	232.94
803.81	232.85
804.13	232.82
804.45	232.78
804.77	232.83
805.09	232.77
805.41	232.70
805.73	232.65
806.05	232.59
806.37	232.51
806.69	232.27
807.01	232.24
807.33	232.22
807.65	232.12
807.97	232.20
808.28	232.01
808.60	231.92
808.92	231.85
809.24	231.90
809.56	231.86
809.88	231.82
810.20	231.75
810.52	231.86
810.84	231.78
811.16	231.65
811.48	231.62
811.80	231.78
812.12	231.87
812.43	231.94
812.75	231.90
813.07	231.82
813.39	231.97
813.71	231.82
814.03	231.98
814.35	231.94
814.67	231.90
814.98	232.00
815.30	231.94
815.62	231.89
815.94	231.76
816.26	231.85
816.58	231.89
816.89	231.87
817.21	231.82
817.53	231.76
817.85	231.80
818.17	231.72
818.48	231.57
818.80	231.59
819.12	231.52
819.44	231.54
819.76	231.53
820.07	231.51
820.39	231.70
820.71	231.54
821.03	231.60
821.34	231.57
821.66	231.54
821.98	231.55
822.30	231.57
822.61	231.67
822.93	231.51
823.25	231.45
823.57	231.31
823.88	231.28
824.20	231.28
824.52	231.28
824.83	231.20
825.15	231.05
825.47	230.92
825.79	230.92
826.10	230.86
826.42	230.82
826.74	230.77
827.05	230.66
827.37	230.64
827.69	230.57
828.00	230.56
828.32	230.51
828.64	230.46
828.95	230.40
829.27	230.35
829.58	230.34
829.90	230.28
830.22	230.44
830.53	230.36
830.85	230.43
831.17	230.45
831.48	230.40
831.80	230.45
832.11	230.53
832.43	230.47
832.75	230.54
833.06	230.58
833.38	230.60
833.69	230.55
834.01	230.50
834.32	230.44
834.64	230.38
834.96	230.43
835.27	230.47
835.59	230.43
835.90	230.39
836.22	230.34
836.53	230.26
836.85	230.15
837.16	230.29
837.48	230.16
837.79	230.09
838.11	230.14
838.42	230.15
838.74	230.06
839.05	229.96
839.37	229.93
839.68	229.89
840.00	229.82
840.31	229.87
840.63	229.86
840.94	229.82
841.26	229.70
841.57	229.63
841.88	229.61
842.20	229.60
842.51	229.61
842.83	229.59
843.14	229.76
843.46	229.80
843.77	229.63
844.08	229.64
844.40	229.49
844.71	229.41
845.03	229.45
845.34	229.40
845.65	229.40
845.97	229.38
846.28	229.32
846.60	229.30
846.91	229.23
847.22	229.26
847.54	229.29
847.85	229.34
848.16	229.36
848.48	229.29
848.79	229.32
849.10	229.26
849.42	229.35
849.73	229.28
850.04	229.30
850.36	229.29
850.67	229.46
850.98	229.46
851.30	229.55
851.61	229.51
851.92	229.60
852.23	229.71
852.55	229.68
852.86	229.73
853.17	229.75
853.49	229.77
853.80	229.77
854.11	229.91
854.42	229.99
854.74	230.06
855.05	230.14
855.36	230.08
855.67	230.13
855.99	230.10
856.30	230.28
856.61	230.18
856.92	230.27
857.23	230.11
857.55	230.26
857.86	230.18
858.17	230.28
858.48	230.18
858.79	230.11
859.11	230.25
859.42	230.18
859.73	230.20
860.04	230.24
860.35	230.25
860.66	230.05
860.98	230.12
861.29	230.04
861.60	229.97
861.91	230.04
862.22	230.01
862.53	229.93
862.84	229.69
863.16	229.70
863.47	229.57
863.78	229.58
864.09	229.60
864.40	229.64
864.71	229.59
865.02	229.67
865.33	229.70
865.64	229.59
865.95	229.58
866.27	229.69
866.58	229.72
866.89	229.70
867.20	229.74
867.51	229.63
867.82	229.63
868.13	229.66
868.44	229.60
868.75	229.48
869.06	229.54
869.37	229.57
869.68	229.54
869.99	229.68
870.30	229.76
870.61	229.70
870.92	229.72
871.23	229.70
871.54	229.67
871.85	229.76
872.16	229.73
872.47	229.86
872.78	229.80
873.09	229.76
873.40	229.79
873.71	229.79
874.02	229.79
874.33	229.80
874.64	229.67
874.95	229.67
875.26	229.70
875.56	229.77
875.87	229.76
876.18	229.78
876.49	229.98
876.80	229.89
877.11	229.81
877.42	229.74
877.73	229.72
878.04	229.83
878.35	229.86
878.66	229.88
878.96	229.82
879.27	229.80
879.58	229.72
879.89	229.72
880.20	229.76
880.51	229.79
880.82	229.80
881.12	229.89
881.43	229.93
881.74	229.96
882.05	229.84
882.36	229.86
882.67	229.84
882.97	229.59
883.28	229.57
883.59	229.72
883.90	229.66
884.21	229.77
884.51	229.64
884.82	229.50
885.13	229.48
885.44	229.48
885.74	229.30
886.05	229.27
886.36	229.26
886.67	229.20
886.98	229.22
887.28	229.23
887.59	229.29
887.90	229.27
888.20	229.12
888.51	229.20
888.82	229.15
889.13	229.14
889.43	229.20
889.74	229.18
890.05	229.11
890.35	229.19
890.66	229.09
890.97	229.07
891.28	228.99
891.58	229.00
891.89	229.03
892.20	229.10
892.50	229.18
892.81	229.17
893.12	229.12
893.42	229.12
893.73	229.02
894.04	229.04
894.34	229.09
894.65	229.17
894.95	229.12
895.26	229.11
895.57	229.20
895.87	229.07
896.18	229.04
896.48	228.93
896.79	228.98
897.10	228.98
897.40	228.87
897.71	228.89
898.01	228.84
898.32	228.75
898.63	228.80
898.93	228.73
899.24	228.77
899.54	228.81
899.85	228.72
900.15	228.72
900.46	228.70
900.76	228.62
901.07	228.62
901.38	228.61
901.68	228.74
901.99	228.61
902.29	228.70
902.60	228.68
902.90	228.70
903.21	228.64
903.51	228.58
903.82	228.70
904.12	228.77
904.43	228.79
904.73	228.77
905.03	228.78
905.34	229.00
905.64	228.95
905.95	228.95
906.25	229.02
906.56	229.10
906.86	229.01
907.17	229.07
907.47	229.11
907.77	229.07
908.08	229.03
908.38	229.17
908.69	229.21
908.99	229.27
909.30	229.32
909.60	229.33
909.90	229.35
910.21	229.28
910.51	229.11
910.81	229.10
911.12	229.12
911.42	229.06
911.73	228.89
912.03	228.97
912.33	228.99
912.64	229.00
912.94	228.92
913.24	228.87
913.55	228.83
913.85	228.81
914.15	228.90
914.46	228.87
914.76	228.72
915.06	228.60
915.37	228.69
915.67	228.67
915.97	228.74
916.27	228.76
916.58	228.79
916.88	228.90
917.18	228.88
917.49	228.99
917.79	229.10
918.09	229.04
918.39	228.99
918.70	228.96
919.00	228.93
919.30	229.06
919.60	229.11
919.91	229.02
920.21	229.02
920.51	228.98
920.81	228.96
921.12	229.01
921.42	229.13
921.72	229.10
922.02	229.17
922.32	229.08
922.63	229.05
922.93	229.07
923.23	229.09
923.53	229.17
923.83	229.04
924.13	228.99
924.44	229.12
924.74	229.22
925.04	229.23
925.34	229.18
925.64	229.04
925.94	229.05
926.24	229.21
926.55	229.13
926.85	229.22
927.15	229.16
927.45	229.23
927.75	229.12
928.05	229.06
928.35	228.98
928.65	229.07
928.95	229.11
929.26	229.03
929.56	229.12
929.86	229.00
930.16	229.07
930.46	229.05
930.76	229.01
931.06	228.89
931.36	228.91
931.66	229.01
931.96	229.10
932.26	229.13
932.56	229.03
932.86	229.12
933.16	229.09
933.46	229.15
933.76	229.07
934.06	229.13
934.36	229.14
934.66	229.07
934.96	228.98
935.26	228.92
935.56	229.06
935.86	228.89
936.16	228.88
936.46	228.84
936.76	228.83
937.06	228.82
937.36	228.89
937.66	228.92
937.96	228.88
938.26	228.81
938.56	228.80
938.86	228.86
939.16	228.91
939.46	228.78
939.76	228.73
940.06	228.86
940.35	228.74
940.65	228.80
940.95	228.86
941.25	228.73
941.55	228.77
941.85	228.87
942.15	228.95
942.45	229.06
942.75	229.06
943.04	229.14
943.34	229.15
943.64	229.10
943.94	228.98
944.24	229.02
944.54	229.01
944.84	228.95
945.13	228.93
945.43	228.85
945.73	229.01
946.03	228.93
946.33	228.80
946.62	228.91
946.92	228.79
947.22	228.81
947.52	228.93
947.82	228.89
948.11	228.75
948.41	228.78
948.71	228.63
949.01	228.62
949.31	228.53
949.60	228.45
949.90	228.45
950.20	228.51
950.50	228.43
950.79	228.43
951.09	228.49
951.39	228.56
951.69	228.50
951.98	228.46
952.28	228.52
952.58	228.48
952.87	228.41
953.17	228.51
953.47	228.52
953.76	228.52
954.06	228.51
954.36	228.52
954.66	228.47
954.95	228.62
955.25	228.60
955.55	228.65
955.84	228.64
956.14	228.68
956.44	228.70
956.73	228.72
957.03	228.80
957.32	228.80
957.62	228.73
957.92	228.86
958.21	228.83
958.51	229.15
958.81	229.21
959.10	229.16
959.40	229.23
959.69	229.33
959.99	229.32
960.29	229.34
960.58	229.38
960.88	229.49
961.17	229.37
961.47	229.43
961.76	229.31
962.06	229.39
962.36	229.39
962.65	229.35
962.95	229.26
963.24	229.08
963.54	229.01
963.83	229.09
964.13	229.10
964.42	229.17
964.72	228.94
965.01	228.91
965.31	228.94
965.60	228.80
965.90	228.87
966.19	228.93
966.49	228.94
966.78	228.82
967.08	228.79
967.37	228.90
967.67	228.90
967.96	228.98
968.26	228.98
968.55	228.98
968.85	229.02
969.14	229.07
969.43	229.20
969.73	229.19
970.02	229.09
970.32	229.04
970.61	228.92
970.91	228.81
971.20	228.80
971.49	228.74
971.79	228.74
972.08	228.52
972.38	228.40
972.67	228.39
972.96	228.41
973.26	228.40
973.55	228.47
973.85	228.47
974.14	228.45
974.43	228.43
974.73	228.30
975.02	228.14
975.31	228.08
975.61	227.90
975.90	227.90
976.19	227.91
976.49	227.89
976.78	227.87
977.07	227.84
977.37	227.89
977.66	227.98
977.95	227.91
978.24	227.77
978.54	227.86
978.83	227.79
979.12	227.80
979.42	227.76
979.71	227.71
980.00	227.67
980.29	227.70
980.59	227.63
980.88	227.67
981.17	227.80
981.46	227.86
981.76	228.05
982.05	228.11
982.34	228.09
982.63	228.13
982.93	228.13
983.22	228.17
983.51	228.04
983.80	228.03
984.09	228.06
984.39	228.14
984.68	228.10
984.97	228.15
985.26	228.10
985.55	228.13
985.85	228.06
986.14	228.00
986.43	228.04
986.72	228.13
987.01	228.17
987.30	228.09
987.59	228.12
987.89	228.08
988.18	228.00
988.47	228.14
988.76	228.10
989.05	228.06
989.34	228.04
989.63	228.20
989.92	228.22
990.22	228.25
990.51	228.30
990.80	228.21
991.09	228.25
991.38	228.32
991.67	228.27
991.96	228.22
992.25	228.29
992.54	228.16
992.83	228.06
993.12	228.03
993.41	228.13
993.70	228.19
993.99	228.20
994.28	228.30
994.58	228.18
994.87	228.12
995.16	228.21
995.45	228.22
995.74	228.14
996.03	228.11
996.32	228.17
996.61	228.17
996.90	228.27
997.19	228.28
997.48	228.24
997.77	228.15
998.06	228.13
998.34	228.02
998.63	228.00
998.92	228.01
999.21	228.03
999.50	228.00
999.79	227.79
1000.08	227.80
1000.37	227.72
1000.66	227.66
1000.95	227.71
1001.24	227.79
1001.53	227.88
1001.82	227.87
1002.11	227.86
1002.40	227.83
1002.68	227.93
1002.97	228.07
1003.26	227.98
1003.55	227.96
1003.84	228.03
1004.13	228.17
1004.42	228.27
1004.71	228.39
1004.99	228.44
1005.28	228.53
1005.57	228.58
1005.86	228.71
1006.15	228.68
1006.44	228.75
1006.72	228.87
1007.01	228.90
1007.30	228.77
1007.59	228.74
1007.88	228.75
1008.17	228.76
1008.45	228.72
1008.74	228.71
1009.03	228.60
1009.32	228.64
1009.60	228.60
1009.89	228.70
1010.18	228.65
1010.47	228.58
1010.76	228.62
1011.04	228.67
1011.33	228.63
1011.62	228.62
1011.91	228.60
1012.19	228.70
1012.48	228.60
1012.77	228.61
1013.05	228.69
1013.34	228.70
1013.63	228.62
1013.92	228.60
1014.20	228.50
1014.49	228.59
1014.78	228.56
1015.06	228.60
1015.35	228.76
1015.64	228.90
1015.92	228.88
1016.21	228.77
1016.50	228.84
1016.78	228.75
1017.07	228.73
1017.36	228.68
1017.64	228.63
1017.93	228.63
1018.22	228.58
1018.50	228.65
1018.79	228.61
1019.08	228.51
1019.36	228.58
1019.65	228.58
1019.93	228.65
1020.22	228.80
1020.51	228.94
1020.79	228.88
1021.08	228.70
1021.36	228.70
1021.65	228.80
1021.94	228.40
1022.22	229.30
1022.51	227.40
1022.79	229.20
1023.08	229.50
1023.36	232.30
1023.65	227.90
>>>>>End Processed Spectral Data<<<<<
