SpectraSuite Data File
++++++++++++++++++++++++++++++++++++
Date: Fri Feb 01 14:37:02 EST 2013
User: group
Dark Spectrum Present: No
Reference Spectrum Present: No
Number of Sampled Component Spectra: 1
Spectrometers: USB2E7196
Integration Time (usec): 70000 (USB2E7196)
Spectra Averaged: 10 (USB2E7196)
Boxcar Smoothing: 10 (USB2E7196)
Correct for Electrical Dark: No (USB2E7196)
Strobe/Lamp Enabled: No (USB2E7196)
Correct for Detector Non-linearity: No (USB2E7196)
Correct for Stray Light: No (USB2E7196)
Number of Pixels in Processed Spectrum: 2048
>>>>>Begin Processed Spectral Data<<<<<
339.09	0.00
339.48	213.80
339.86	217.60
340.24	218.90
340.63	220.30
341.01	224.30
341.39	223.30
341.78	224.50
342.16	225.70
342.54	226.10
342.93	214.70
343.31	225.61
343.69	226.22
344.07	226.64
344.46	227.00
344.84	227.33
345.22	227.44
345.60	227.71
345.99	227.89
346.37	227.97
346.75	228.05
347.13	228.01
347.52	228.06
347.90	228.05
348.28	228.10
348.66	228.10
349.05	228.01
349.43	227.90
349.81	227.90
350.19	227.89
350.57	227.89
350.96	227.96
351.34	227.92
351.72	227.98
352.10	228.06
352.48	228.18
352.87	228.28
353.25	228.30
353.63	228.25
354.01	228.27
354.39	228.39
354.77	228.37
355.15	228.42
355.54	228.32
355.92	228.33
356.30	228.35
356.68	228.57
357.06	228.70
357.44	228.73
357.82	228.69
358.20	228.81
358.58	228.93
358.97	229.04
359.35	229.15
359.73	229.27
360.11	229.21
360.49	229.28
360.87	229.36
361.25	229.47
361.63	229.56
362.01	229.60
362.39	229.52
362.77	229.61
363.15	229.73
363.53	229.82
363.91	229.84
364.29	229.82
364.67	229.69
365.05	229.63
365.43	229.74
365.81	229.82
366.19	229.87
366.57	229.88
366.95	229.78
367.33	229.67
367.71	229.56
368.09	229.73
368.47	229.80
368.85	229.74
369.23	229.76
369.61	229.70
369.99	229.66
370.37	229.67
370.75	229.72
371.13	229.55
371.51	229.51
371.89	229.46
372.27	229.52
372.65	229.56
373.03	229.51
373.41	229.36
373.78	229.24
374.16	229.13
374.54	228.89
374.92	228.93
375.30	228.85
375.68	228.89
376.06	228.82
376.44	228.57
376.82	228.50
377.19	228.48
377.57	228.41
377.95	228.39
378.33	228.42
378.71	228.35
379.09	228.33
379.47	228.31
379.84	228.25
380.22	228.10
380.60	227.88
380.98	227.88
381.36	227.81
381.73	227.77
382.11	227.64
382.49	227.72
382.87	227.62
383.25	227.62
383.62	227.75
384.00	227.70
384.38	227.70
384.76	227.69
385.13	227.65
385.51	227.62
385.89	227.58
386.27	227.53
386.64	227.49
387.02	227.53
387.40	227.40
387.78	227.44
388.15	227.41
388.53	227.41
388.91	227.29
389.29	227.31
389.66	227.28
390.04	227.32
390.42	227.37
390.79	227.40
391.17	227.40
391.55	227.23
391.92	227.20
392.30	227.21
392.68	227.15
393.05	227.20
393.43	227.24
393.81	227.25
394.18	227.13
394.56	227.12
394.94	227.10
395.31	227.20
395.69	227.24
396.06	227.35
396.44	227.39
396.82	227.51
397.19	227.66
397.57	227.78
397.95	227.78
398.32	227.78
398.70	227.82
399.07	227.91
399.45	227.91
399.82	228.01
400.20	228.13
400.58	228.29
400.95	228.30
401.33	228.42
401.70	228.70
402.08	228.88
402.45	229.03
402.83	229.18
403.20	229.32
403.58	229.39
403.95	229.52
404.33	229.68
404.71	229.84
405.08	229.98
405.46	230.21
405.83	230.51
406.21	230.77
406.58	231.03
406.96	231.30
407.33	231.65
407.70	231.94
408.08	232.36
408.45	232.70
408.83	233.07
409.20	233.37
409.58	233.50
409.95	233.88
410.33	234.28
410.70	234.71
411.08	235.15
411.45	235.66
411.82	236.28
412.20	236.87
412.57	237.60
412.95	238.23
413.32	238.90
413.69	239.59
414.07	240.34
414.44	241.12
414.82	241.93
415.19	242.88
415.56	243.81
415.94	244.72
416.31	245.79
416.68	246.87
417.06	248.22
417.43	249.48
417.81	250.85
418.18	252.27
418.55	253.77
418.93	255.49
419.30	257.19
419.67	258.75
420.04	260.58
420.42	262.39
420.79	264.55
421.16	266.65
421.54	268.86
421.91	271.12
422.28	273.46
422.66	276.01
423.03	278.54
423.40	281.17
423.77	283.93
424.15	286.60
424.52	289.51
424.89	292.63
425.26	295.80
425.64	298.81
426.01	302.11
426.38	305.48
426.75	308.77
427.13	312.26
427.50	316.09
427.87	319.85
428.24	323.69
428.61	327.31
428.99	331.26
429.36	335.55
429.73	339.70
430.10	343.98
430.47	348.25
430.85	352.54
431.22	357.12
431.59	362.04
431.96	366.80
432.33	371.93
432.70	376.90
433.08	382.71
433.45	388.20
433.82	393.66
434.19	399.66
434.56	405.60
434.93	411.28
435.30	416.80
435.68	423.08
436.05	429.13
436.42	435.34
436.79	440.97
437.16	447.05
437.53	453.58
437.90	459.84
438.27	466.17
438.64	472.58
439.01	478.59
439.38	483.90
439.75	489.04
440.13	494.88
440.50	500.52
440.87	505.15
441.24	509.86
441.61	515.00
441.98	519.10
442.35	523.83
442.72	528.42
443.09	533.03
443.46	535.92
443.83	538.10
444.20	539.73
444.57	542.28
444.94	543.68
445.31	545.18
445.68	546.70
446.05	547.62
446.42	547.77
446.79	547.60
447.16	547.47
447.53	547.75
447.90	546.36
448.27	544.63
448.64	541.91
449.01	540.36
449.37	537.00
449.74	533.54
450.11	529.15
450.48	524.69
450.85	519.81
451.22	516.03
451.59	512.22
451.96	508.69
452.33	503.77
452.70	499.20
453.07	493.43
453.43	487.71
453.80	482.10
454.17	476.47
454.54	471.49
454.91	465.91
455.28	460.52
455.65	455.21
456.02	450.03
456.38	445.71
456.75	439.99
457.12	435.28
457.49	430.61
457.86	426.28
458.23	422.31
458.59	418.07
458.96	413.38
459.33	409.59
459.70	405.74
460.07	402.62
460.43	398.94
460.80	395.51
461.17	392.43
461.54	389.21
461.91	386.24
462.27	383.10
462.64	380.38
463.01	377.27
463.38	374.57
463.74	371.74
464.11	369.16
464.48	367.10
464.85	364.67
465.21	362.89
465.58	360.86
465.95	358.41
466.32	356.43
466.68	354.59
467.05	352.46
467.42	350.36
467.78	348.21
468.15	346.25
468.52	344.75
468.88	342.80
469.25	341.01
469.62	339.69
469.98	338.03
470.35	336.50
470.72	335.01
471.08	333.34
471.45	332.09
471.82	330.78
472.18	329.22
472.55	328.03
472.92	326.70
473.28	325.50
473.65	324.38
474.02	323.30
474.38	322.31
474.75	321.46
475.11	320.57
475.48	319.70
475.85	319.02
476.21	318.40
476.58	317.68
476.94	317.21
477.31	316.46
477.67	315.93
478.04	315.46
478.41	315.13
478.77	314.98
479.14	314.41
479.50	313.94
479.87	313.75
480.23	313.44
480.60	313.05
480.96	312.77
481.33	312.74
481.69	312.62
482.06	312.47
482.42	312.27
482.79	312.25
483.15	312.34
483.52	312.36
483.88	312.21
484.25	312.29
484.61	312.35
484.98	312.45
485.34	312.71
485.71	312.87
486.07	313.17
486.44	313.14
486.80	313.50
487.17	313.97
487.53	314.33
487.90	314.93
488.26	315.53
488.62	316.07
488.99	316.58
489.35	317.04
489.72	317.58
490.08	318.33
490.44	318.95
490.81	319.68
491.17	320.37
491.54	321.21
491.90	321.77
492.26	322.66
492.63	323.60
492.99	324.26
493.36	325.20
493.72	326.09
494.08	327.07
494.45	328.05
494.81	329.04
495.17	330.12
495.54	331.08
495.90	332.05
496.26	333.08
496.63	334.12
496.99	335.21
497.35	336.19
497.72	337.21
498.08	338.25
498.44	339.30
498.80	340.37
499.17	341.45
499.53	342.69
499.89	343.70
500.26	344.60
500.62	345.75
500.98	346.78
501.34	347.68
501.71	348.64
502.07	349.54
502.43	350.55
502.79	351.54
503.16	352.31
503.52	353.12
503.88	353.84
504.24	354.71
504.60	355.42
504.97	356.28
505.33	356.94
505.69	357.78
506.05	358.38
506.41	359.03
506.78	359.53
507.14	360.10
507.50	360.63
507.86	361.18
508.22	361.59
508.59	362.03
508.95	362.50
509.31	363.12
509.67	363.60
510.03	363.89
510.39	364.05
510.75	364.55
511.12	364.80
511.48	364.98
511.84	365.02
512.20	365.40
512.56	365.63
512.92	365.86
513.28	366.04
513.64	366.10
514.00	366.13
514.37	366.20
514.73	366.18
515.09	366.23
515.45	366.17
515.81	366.28
516.17	366.41
516.53	366.49
516.89	366.47
517.25	366.57
517.61	366.72
517.97	366.75
518.33	366.68
518.69	366.65
519.05	366.83
519.41	367.01
519.77	367.34
520.13	367.63
520.49	367.85
520.85	367.87
521.21	368.21
521.57	368.62
521.93	369.07
522.29	369.64
522.65	370.05
523.01	370.62
523.37	371.02
523.73	371.47
524.09	372.01
524.45	372.62
524.81	373.20
525.17	373.92
525.53	374.86
525.89	375.80
526.25	376.78
526.61	377.81
526.97	378.93
527.33	379.87
527.68	381.24
528.04	382.48
528.40	383.89
528.76	385.32
529.12	386.75
529.48	388.40
529.84	389.80
530.20	391.52
530.56	393.15
530.91	395.06
531.27	397.02
531.63	399.20
531.99	401.35
532.35	403.70
532.71	405.74
533.07	407.92
533.42	410.44
533.78	412.93
534.14	415.50
534.50	418.00
534.86	420.76
535.21	423.29
535.57	426.15
535.93	429.01
536.29	432.14
536.65	435.20
537.00	438.17
537.36	441.67
537.72	444.76
538.08	448.17
538.44	451.51
538.79	455.01
539.15	458.35
539.51	461.78
539.87	465.32
540.22	468.94
540.58	472.95
540.94	476.48
541.29	480.36
541.65	484.02
542.01	488.00
542.37	491.79
542.72	495.71
543.08	499.53
543.44	503.69
543.79	507.51
544.15	511.69
544.51	515.97
544.87	520.16
545.22	524.44
545.58	528.81
545.94	533.24
546.29	537.51
546.65	541.72
547.01	546.12
547.36	550.48
547.72	554.99
548.07	559.24
548.43	563.84
548.79	568.20
549.14	572.61
549.50	576.93
549.86	581.33
550.21	585.67
550.57	590.40
550.92	594.74
551.28	599.15
551.64	603.47
551.99	608.03
552.35	612.47
552.70	617.03
553.06	621.50
553.41	625.81
553.77	630.07
554.13	634.59
554.48	638.96
554.84	643.26
555.19	647.62
555.55	651.94
555.90	656.13
556.26	660.64
556.61	665.07
556.97	669.45
557.32	673.79
557.68	678.09
558.03	682.26
558.39	686.60
558.74	691.39
559.10	695.85
559.45	700.05
559.81	704.48
560.16	708.69
560.52	712.96
560.87	717.27
561.23	721.53
561.58	726.00
561.94	730.21
562.29	734.34
562.64	738.25
563.00	742.30
563.35	746.48
563.71	750.59
564.06	754.63
564.42	758.80
564.77	762.96
565.12	767.10
565.48	771.27
565.83	775.08
566.19	778.56
566.54	782.30
566.89	785.88
567.25	789.46
567.60	793.02
567.96	796.70
568.31	800.33
568.66	803.98
569.02	807.25
569.37	810.40
569.72	813.78
570.08	817.22
570.43	820.28
570.78	823.47
571.14	826.11
571.49	829.38
571.84	832.60
572.20	835.19
572.55	837.71
572.90	839.90
573.26	842.51
573.61	844.92
573.96	847.18
574.31	849.14
574.67	850.77
575.02	852.65
575.37	854.52
575.72	855.80
576.08	857.42
576.43	858.79
576.78	860.63
577.13	862.15
577.49	863.64
577.84	865.16
578.19	866.46
578.54	867.86
578.90	868.57
579.25	869.17
579.60	870.12
579.95	871.01
580.30	871.99
580.66	872.84
581.01	873.53
581.36	874.36
581.71	875.40
582.06	876.23
582.42	876.83
582.77	877.37
583.12	878.35
583.47	878.91
583.82	879.91
584.17	880.09
584.53	880.50
584.88	880.92
585.23	881.20
585.58	881.22
585.93	881.61
586.28	882.24
586.63	882.56
586.98	883.00
587.34	883.47
587.69	883.77
588.04	883.98
588.39	884.40
588.74	884.02
589.09	883.76
589.44	883.56
589.79	883.58
590.14	883.47
590.49	882.93
590.84	882.52
591.19	881.82
591.54	881.12
591.89	880.19
592.25	879.50
592.60	878.60
592.95	877.85
593.30	876.79
593.65	875.83
594.00	874.80
594.35	874.22
594.70	872.76
595.05	871.77
595.40	870.27
595.75	868.61
596.10	867.91
596.45	867.20
596.80	866.67
597.15	865.55
597.50	864.25
597.85	863.30
598.19	862.36
598.54	861.58
598.89	860.76
599.24	859.88
599.59	858.83
599.94	857.84
600.29	856.64
600.64	855.46
600.99	854.11
601.34	852.73
601.69	850.70
602.04	849.70
602.39	848.02
602.74	847.16
603.08	846.10
603.43	844.95
603.78	843.30
604.13	841.51
604.48	839.89
604.83	838.54
605.18	837.12
605.53	835.11
605.87	832.74
606.22	831.48
606.57	829.86
606.92	828.22
607.27	826.56
607.62	824.98
607.96	823.33
608.31	821.52
608.66	819.82
609.01	818.00
609.36	815.73
609.70	813.75
610.05	811.16
610.40	809.06
610.75	806.49
611.10	804.27
611.44	801.82
611.79	799.73
612.14	797.24
612.49	794.56
612.83	792.28
613.18	790.19
613.53	787.27
613.88	784.66
614.22	781.96
614.57	779.25
614.92	776.65
615.27	774.06
615.61	771.45
615.96	768.91
616.31	766.27
616.65	764.21
617.00	761.80
617.35	759.43
617.70	756.72
618.04	753.96
618.39	751.23
618.74	748.88
619.08	746.23
619.43	743.89
619.78	741.43
620.12	738.93
620.47	736.14
620.82	733.39
621.16	730.70
621.51	728.42
621.85	725.92
622.20	723.13
622.55	720.61
622.89	718.11
623.24	715.57
623.59	713.29
623.93	710.58
624.28	707.80
624.62	705.16
624.97	703.00
625.32	700.71
625.66	698.53
626.01	696.04
626.35	693.61
626.70	690.76
627.04	688.18
627.39	685.56
627.73	683.24
628.08	680.93
628.43	678.55
628.77	675.96
629.12	673.41
629.46	671.07
629.81	668.30
630.15	665.66
630.50	662.81
630.84	659.97
631.19	657.34
631.53	654.85
631.88	652.08
632.22	648.87
632.57	646.11
632.91	643.26
633.26	640.39
633.60	637.58
633.95	634.93
634.29	632.50
634.64	630.07
634.98	627.30
635.32	624.91
635.67	622.37
636.01	619.67
636.36	617.21
636.70	614.89
637.05	612.44
637.39	610.12
637.73	607.68
638.08	605.44
638.42	602.95
638.77	600.62
639.11	598.37
639.45	596.08
639.80	593.77
640.14	591.51
640.49	589.26
640.83	586.95
641.17	584.90
641.52	582.38
641.86	579.84
642.20	577.83
642.55	575.21
642.89	572.97
643.23	570.66
643.58	568.51
643.92	566.02
644.26	563.86
644.61	561.50
644.95	559.26
645.29	556.77
645.64	554.30
645.98	552.11
646.32	549.75
646.66	547.47
647.01	545.08
647.35	542.89
647.69	540.54
648.04	538.32
648.38	535.89
648.72	533.46
649.06	531.20
649.41	528.77
649.75	526.41
650.09	523.85
650.43	521.47
650.78	518.73
651.12	516.40
651.46	514.07
651.80	511.73
652.14	509.60
652.49	507.39
652.83	505.20
653.17	502.70
653.51	500.35
653.85	498.06
654.20	495.84
654.54	493.28
654.88	490.81
655.22	488.28
655.56	485.79
655.90	483.60
656.25	481.45
656.59	479.18
656.93	477.11
657.27	475.00
657.61	472.56
657.95	470.59
658.29	468.41
658.64	466.18
658.98	463.70
659.32	461.24
659.66	458.96
660.00	456.78
660.34	454.65
660.68	452.70
661.02	450.50
661.36	448.29
661.70	446.17
662.05	444.21
662.39	442.29
662.73	440.47
663.07	438.72
663.41	436.70
663.75	434.69
664.09	432.64
664.43	430.74
664.77	429.04
665.11	427.13
665.45	425.03
665.79	423.11
666.13	421.51
666.47	419.72
666.81	417.88
667.15	415.96
667.49	414.17
667.83	412.45
668.17	410.74
668.51	409.16
668.85	407.55
669.19	406.03
669.53	404.38
669.87	402.56
670.21	400.76
670.55	399.16
670.89	397.71
671.23	396.29
671.57	394.71
671.91	393.07
672.25	391.47
672.58	390.13
672.92	388.63
673.26	387.07
673.60	385.64
673.94	384.32
674.28	383.02
674.62	381.71
674.96	380.21
675.30	378.90
675.64	377.36
675.97	376.10
676.31	374.64
676.65	373.40
676.99	372.09
677.33	370.72
677.67	369.42
678.01	367.92
678.34	366.63
678.68	365.34
679.02	364.12
679.36	362.87
679.70	361.62
680.04	360.47
680.37	359.27
680.71	358.08
681.05	356.92
681.39	355.77
681.73	354.59
682.06	353.53
682.40	352.50
682.74	351.53
683.08	350.27
683.42	349.14
683.75	347.95
684.09	346.90
684.43	345.81
684.77	344.77
685.10	343.70
685.44	342.58
685.78	341.54
686.12	340.47
686.45	339.47
686.79	338.37
687.13	337.48
687.46	336.53
687.80	335.51
688.14	334.45
688.48	333.44
688.81	332.49
689.15	331.54
689.49	330.37
689.82	329.30
690.16	328.32
690.50	327.41
690.83	326.54
691.17	325.59
691.51	324.65
691.84	323.65
692.18	322.73
692.52	321.68
692.85	320.73
693.19	319.95
693.52	318.96
693.86	318.18
694.20	317.13
694.53	316.24
694.87	315.41
695.21	314.51
695.54	313.55
695.88	312.47
696.21	311.49
696.55	310.68
696.88	309.77
697.22	308.77
697.56	307.90
697.89	306.92
698.23	305.97
698.56	305.05
698.90	304.24
699.23	303.23
699.57	302.38
699.90	301.55
700.24	300.55
700.58	299.75
700.91	298.72
701.25	298.03
701.58	297.32
701.92	296.57
702.25	295.90
702.59	295.15
702.92	294.41
703.26	293.67
703.59	292.98
703.93	292.38
704.26	291.75
704.60	291.00
704.93	290.29
705.26	289.62
705.60	289.00
705.93	288.40
706.27	287.94
706.60	287.39
706.94	286.70
707.27	286.02
707.61	285.29
707.94	284.80
708.27	284.05
708.61	283.23
708.94	282.63
709.28	281.99
709.61	281.55
709.94	281.07
710.28	280.43
710.61	279.79
710.95	279.07
711.28	278.67
711.61	278.01
711.95	277.44
712.28	276.88
712.61	276.32
712.95	275.70
713.28	275.21
713.61	274.66
713.95	274.10
714.28	273.59
714.61	273.17
714.95	272.72
715.28	272.14
715.61	271.70
715.95	271.20
716.28	270.70
716.61	270.13
716.95	269.61
717.28	269.17
717.61	268.77
717.94	268.34
718.28	267.79
718.61	267.48
718.94	267.18
719.27	266.76
719.61	266.46
719.94	266.04
720.27	265.56
720.60	265.16
720.94	264.99
721.27	264.72
721.60	264.37
721.93	264.01
722.27	263.87
722.60	263.49
722.93	263.13
723.26	262.80
723.59	262.35
723.93	262.03
724.26	261.85
724.59	261.51
724.92	261.28
725.25	261.05
725.59	260.69
725.92	260.43
726.25	260.26
726.58	260.01
726.91	259.81
727.24	259.53
727.57	259.23
727.91	258.90
728.24	258.58
728.57	258.32
728.90	258.00
729.23	257.58
729.56	257.56
729.89	257.24
730.22	256.97
730.55	256.77
730.89	256.48
731.22	256.06
731.55	255.86
731.88	255.63
732.21	255.30
732.54	255.06
732.87	254.68
733.20	254.38
733.53	254.18
733.86	253.91
734.19	253.67
734.52	253.63
734.85	253.44
735.18	253.22
735.51	253.02
735.84	252.79
736.17	252.66
736.50	252.29
736.83	252.35
737.16	252.08
737.49	251.83
737.82	251.63
738.15	251.58
738.48	251.17
738.81	250.86
739.14	250.60
739.47	250.36
739.80	250.18
740.13	249.96
740.46	249.59
740.79	249.25
741.12	248.92
741.45	248.48
741.78	248.20
742.11	247.90
742.44	247.63
742.77	247.38
743.10	247.08
743.43	246.86
743.75	246.33
744.08	246.35
744.41	246.11
744.74	245.82
745.07	245.44
745.40	245.35
745.73	245.12
746.06	244.87
746.39	244.60
746.71	244.36
747.04	244.08
747.37	243.81
747.70	243.74
748.03	243.60
748.36	243.41
748.68	243.11
749.01	242.92
749.34	242.73
749.67	242.64
750.00	242.41
750.33	242.31
750.65	242.16
750.98	241.72
751.31	241.60
751.64	241.52
751.97	241.58
752.29	241.40
752.62	241.30
752.95	241.21
753.28	241.08
753.60	240.87
753.93	240.79
754.26	240.68
754.59	240.45
754.91	240.30
755.24	240.30
755.57	240.16
755.90	240.03
756.22	239.95
756.55	239.80
756.88	239.74
757.20	239.50
757.53	239.30
757.86	239.16
758.19	239.08
758.51	238.93
758.84	238.63
759.17	238.60
759.49	238.55
759.82	238.53
760.15	238.47
760.47	238.44
760.80	238.42
761.13	238.42
761.45	238.30
761.78	238.25
762.11	238.03
762.43	237.95
762.76	237.87
763.08	237.79
763.41	237.70
763.74	237.57
764.06	237.44
764.39	237.38
764.71	237.42
765.04	237.27
765.37	237.23
765.69	237.15
766.02	237.08
766.34	236.96
766.67	236.86
767.00	236.88
767.32	236.91
767.65	236.94
767.97	236.80
768.30	236.71
768.62	236.61
768.95	236.60
769.27	236.60
769.60	236.62
769.92	236.51
770.25	236.38
770.57	236.33
770.90	236.33
771.22	236.34
771.55	236.23
771.87	236.32
772.20	236.20
772.52	236.36
772.85	236.51
773.17	236.41
773.50	236.27
773.82	236.06
774.15	235.90
774.47	235.63
774.80	235.57
775.12	235.51
775.45	235.48
775.77	235.45
776.09	235.34
776.42	235.20
776.74	235.17
777.07	235.11
777.39	235.12
777.72	234.92
778.04	234.84
778.36	234.75
778.69	234.56
779.01	234.59
779.33	234.33
779.66	233.98
779.98	233.96
780.31	233.88
780.63	233.90
780.95	233.86
781.28	233.75
781.60	233.70
781.92	233.64
782.25	233.61
782.57	233.46
782.89	233.39
783.22	233.27
783.54	233.17
783.86	233.06
784.19	232.91
784.51	232.99
784.83	232.96
785.16	232.84
785.48	232.79
785.80	232.70
786.12	232.62
786.45	232.55
786.77	232.38
787.09	232.31
787.42	232.19
787.74	232.07
788.06	231.99
788.38	231.94
788.71	231.83
789.03	231.71
789.35	231.68
789.67	231.57
789.99	231.58
790.32	231.53
790.64	231.47
790.96	231.62
791.28	231.52
791.61	231.33
791.93	231.33
792.25	231.27
792.57	231.35
792.89	231.30
793.21	231.27
793.54	231.29
793.86	231.32
794.18	231.25
794.50	231.27
794.82	231.24
795.14	231.19
795.47	231.29
795.79	231.28
796.11	231.25
796.43	231.27
796.75	231.19
797.07	231.19
797.39	231.14
797.71	230.86
798.04	230.85
798.36	230.93
798.68	230.96
799.00	230.92
799.32	230.74
799.64	230.80
799.96	230.82
800.28	230.83
800.60	230.78
800.92	230.88
801.24	230.78
801.56	230.89
801.89	230.91
802.21	230.87
802.53	230.84
802.85	230.86
803.17	230.96
803.49	231.05
803.81	231.01
804.13	231.08
804.45	231.13
804.77	231.12
805.09	231.15
805.41	231.18
805.73	231.17
806.05	231.15
806.37	231.10
806.69	231.08
807.01	231.11
807.33	231.19
807.65	231.06
807.97	231.20
808.28	231.29
808.60	231.30
808.92	231.32
809.24	231.45
809.56	231.43
809.88	231.44
810.20	231.43
810.52	231.55
810.84	231.58
811.16	231.55
811.48	231.61
811.80	231.60
812.12	231.48
812.43	231.51
812.75	231.50
813.07	231.50
813.39	231.47
813.71	231.41
814.03	231.33
814.35	231.40
814.67	231.31
814.98	231.19
815.30	231.09
815.62	230.97
815.94	230.80
816.26	230.89
816.58	230.75
816.89	230.69
817.21	230.55
817.53	230.51
817.85	230.54
818.17	230.39
818.48	230.30
818.80	230.31
819.12	230.40
819.44	230.46
819.76	230.36
820.07	230.32
820.39	230.33
820.71	230.25
821.03	230.27
821.34	230.26
821.66	230.26
821.98	230.27
822.30	230.23
822.61	230.30
822.93	230.03
823.25	230.01
823.57	229.96
823.88	229.97
824.20	229.96
824.52	229.93
824.83	229.93
825.15	229.85
825.47	229.84
825.79	229.74
826.10	229.63
826.42	229.72
826.74	229.78
827.05	229.74
827.37	229.72
827.69	229.74
828.00	229.66
828.32	229.52
828.64	229.46
828.95	229.57
829.27	229.47
829.58	229.58
829.90	229.44
830.22	229.53
830.53	229.35
830.85	229.20
831.17	229.10
831.48	229.08
831.80	229.10
832.11	229.06
832.43	228.93
832.75	228.80
833.06	228.86
833.38	228.68
833.69	228.59
834.01	228.56
834.32	228.42
834.64	228.45
834.96	228.40
835.27	228.49
835.59	228.36
835.90	228.36
836.22	228.31
836.53	228.30
836.85	228.14
837.16	228.36
837.48	228.45
837.79	228.50
838.11	228.54
838.42	228.46
838.74	228.49
839.05	228.54
839.37	228.52
839.68	228.38
840.00	228.37
840.31	228.40
840.63	228.51
840.94	228.54
841.26	228.47
841.57	228.49
841.88	228.40
842.20	228.48
842.51	228.46
842.83	228.38
843.14	228.68
843.46	228.62
843.77	228.57
844.08	228.46
844.40	228.44
844.71	228.43
845.03	228.49
845.34	228.45
845.65	228.47
845.97	228.54
846.28	228.57
846.60	228.66
846.91	228.68
847.22	228.57
847.54	228.60
847.85	228.58
848.16	228.56
848.48	228.49
848.79	228.60
849.10	228.63
849.42	228.87
849.73	228.66
850.04	228.79
850.36	228.74
850.67	228.82
850.98	228.84
851.30	228.77
851.61	228.84
851.92	228.92
852.23	228.99
852.55	229.08
852.86	229.10
853.17	229.20
853.49	229.23
853.80	229.34
854.11	229.29
854.42	229.43
854.74	229.53
855.05	229.59
855.36	229.49
855.67	229.50
855.99	229.48
856.30	229.70
856.61	229.84
856.92	229.88
857.23	229.89
857.55	229.85
857.86	229.88
858.17	229.83
858.48	229.77
858.79	229.82
859.11	229.77
859.42	229.66
859.73	229.60
860.04	229.57
860.35	229.34
860.66	229.32
860.98	229.21
861.29	229.13
861.60	229.13
861.91	229.10
862.22	229.09
862.53	228.95
862.84	228.63
863.16	228.51
863.47	228.50
863.78	228.51
864.09	228.51
864.40	228.42
864.71	228.45
865.02	228.46
865.33	228.24
865.64	228.29
865.95	228.32
866.27	228.37
866.58	228.37
866.89	228.49
867.20	228.53
867.51	228.53
867.82	228.56
868.13	228.70
868.44	228.60
868.75	228.61
869.06	228.66
869.37	228.74
869.68	228.65
869.99	228.55
870.30	228.52
870.61	228.52
870.92	228.62
871.23	228.55
871.54	228.49
871.85	228.56
872.16	228.57
872.47	228.53
872.78	228.40
873.09	228.41
873.40	228.42
873.71	228.44
874.02	228.47
874.33	228.45
874.64	228.27
874.95	228.32
875.26	228.19
875.56	228.13
875.87	228.12
876.18	228.06
876.49	228.36
876.80	228.30
877.11	228.30
877.42	228.30
877.73	228.31
878.04	228.38
878.35	228.40
878.66	228.34
878.96	228.41
879.27	228.47
879.58	228.51
879.89	228.39
880.20	228.48
880.51	228.60
880.82	228.74
881.12	228.80
881.43	228.87
881.74	229.02
882.05	229.06
882.36	229.06
882.67	229.19
882.97	228.89
883.28	228.95
883.59	228.93
883.90	228.94
884.21	228.99
884.51	229.00
884.82	228.92
885.13	228.90
885.44	228.88
885.74	228.83
886.05	228.80
886.36	228.89
886.67	228.82
886.98	228.74
887.28	228.59
887.59	228.55
887.90	228.49
888.20	228.40
888.51	228.33
888.82	228.26
889.13	228.29
889.43	228.44
889.74	228.31
890.05	228.38
890.35	228.38
890.66	228.37
890.97	228.28
891.28	228.33
891.58	228.42
891.89	228.44
892.20	228.36
892.50	228.25
892.81	228.24
893.12	228.16
893.42	228.09
893.73	228.20
894.04	228.23
894.34	228.21
894.65	228.21
894.95	228.24
895.26	228.33
895.57	228.30
895.87	228.16
896.18	228.34
896.48	228.38
896.79	228.34
897.10	228.32
897.40	228.37
897.71	228.40
898.01	228.35
898.32	228.43
898.63	228.56
898.93	228.59
899.24	228.62
899.54	228.60
899.85	228.60
900.15	228.58
900.46	228.63
900.76	228.68
901.07	228.67
901.38	228.74
901.68	228.68
901.99	228.63
902.29	228.73
902.60	228.60
902.90	228.46
903.21	228.37
903.51	228.40
903.82	228.40
904.12	228.43
904.43	228.41
904.73	228.36
905.03	228.36
905.34	228.52
905.64	228.58
905.95	228.63
906.25	228.63
906.56	228.53
906.86	228.45
907.17	228.44
907.47	228.47
907.77	228.38
908.08	228.33
908.38	228.31
908.69	228.31
908.99	228.36
909.30	228.41
909.60	228.46
909.90	228.44
910.21	228.33
910.51	228.35
910.81	228.24
911.12	228.18
911.42	228.11
911.73	227.95
912.03	227.93
912.33	227.97
912.64	228.04
912.94	228.10
913.24	228.09
913.55	228.07
913.85	228.05
914.15	228.06
914.46	228.19
914.76	228.27
915.06	228.14
915.37	228.10
915.67	227.99
915.97	227.98
916.27	227.89
916.58	228.00
916.88	227.94
917.18	228.07
917.49	228.27
917.79	228.31
918.09	228.29
918.39	228.21
918.70	228.17
919.00	228.13
919.30	228.12
919.60	228.13
919.91	228.11
920.21	228.07
920.51	228.07
920.81	228.03
921.12	228.06
921.42	228.12
921.72	228.20
922.02	228.26
922.32	228.24
922.63	228.31
922.93	228.35
923.23	228.33
923.53	228.24
923.83	228.15
924.13	228.14
924.44	228.19
924.74	228.27
925.04	228.21
925.34	228.30
925.64	228.34
925.94	228.42
926.24	228.45
926.55	228.43
926.85	228.56
927.15	228.53
927.45	228.49
927.75	228.49
928.05	228.47
928.35	228.50
928.65	228.63
928.95	228.64
929.26	228.61
929.56	228.66
929.86	228.66
930.16	228.61
930.46	228.58
930.76	228.50
931.06	228.37
931.36	228.32
931.66	228.21
931.96	228.14
932.26	228.10
932.56	228.11
932.86	228.15
933.16	228.05
933.46	228.07
933.76	227.90
934.06	227.96
934.36	228.00
934.66	227.94
934.96	227.94
935.26	227.97
935.56	228.00
935.86	227.87
936.16	227.88
936.46	227.80
936.76	227.92
937.06	227.89
937.36	227.87
937.66	227.90
937.96	227.88
938.26	227.81
938.56	227.70
938.86	227.72
939.16	227.77
939.46	227.78
939.76	227.73
940.06	227.83
940.35	227.79
940.65	227.71
940.95	227.78
941.25	227.70
941.55	227.60
941.85	227.50
942.15	227.67
942.45	227.63
942.75	227.75
943.04	227.65
943.34	227.75
943.64	227.78
943.94	227.77
944.24	227.72
944.54	227.80
944.84	227.79
945.13	227.72
945.43	227.72
945.73	227.75
946.03	227.76
946.33	227.79
946.62	227.76
946.92	227.74
947.22	227.77
947.52	227.74
947.82	227.81
948.11	227.87
948.41	227.76
948.71	227.75
949.01	227.59
949.31	227.57
949.60	227.61
949.90	227.68
950.20	227.62
950.50	227.70
950.79	227.71
951.09	227.71
951.39	227.67
951.69	227.66
951.98	227.59
952.28	227.63
952.58	227.60
952.87	227.63
953.17	227.69
953.47	227.65
953.76	227.71
954.06	227.78
954.36	227.69
954.66	227.67
954.95	227.81
955.25	227.89
955.55	227.95
955.84	227.90
956.14	227.90
956.44	228.11
956.73	228.20
957.03	228.23
957.32	228.35
957.62	228.47
957.92	228.45
958.21	228.56
958.51	228.82
958.81	228.98
959.10	229.03
959.40	229.15
959.69	229.29
959.99	229.27
960.29	229.17
960.58	229.19
960.88	229.41
961.17	229.32
961.47	229.50
961.76	229.48
962.06	229.50
962.36	229.63
962.65	229.63
962.95	229.65
963.24	229.63
963.54	229.70
963.83	229.72
964.13	229.74
964.42	229.76
964.72	229.52
965.01	229.50
965.31	229.48
965.60	229.31
965.90	229.30
966.19	229.24
966.49	229.31
966.78	229.36
967.08	229.23
967.37	229.32
967.67	229.19
967.96	229.26
968.26	229.24
968.55	229.19
968.85	229.14
969.14	228.99
969.43	228.94
969.73	228.91
970.02	228.79
970.32	228.75
970.61	228.66
970.91	228.56
971.20	228.51
971.49	228.46
971.79	228.56
972.08	228.41
972.38	228.44
972.67	228.35
972.96	228.44
973.26	228.35
973.55	228.31
973.85	228.20
974.14	228.05
974.43	228.08
974.73	227.99
975.02	227.96
975.31	228.06
975.61	228.16
975.90	228.05
976.19	228.03
976.49	228.08
976.78	228.12
977.07	228.21
977.37	228.16
977.66	228.12
977.95	228.03
978.24	228.11
978.54	228.22
978.83	228.18
979.12	228.11
979.42	228.30
979.71	228.28
980.00	228.24
980.29	228.37
980.59	228.40
980.88	228.42
981.17	228.31
981.46	228.17
981.76	227.99
982.05	228.00
982.34	228.11
982.63	228.03
982.93	227.90
983.22	227.93
983.51	228.01
983.80	228.06
984.09	228.05
984.39	227.94
984.68	227.82
984.97	227.74
985.26	227.77
985.55	227.55
985.85	227.55
986.14	227.65
986.43	227.65
986.72	227.46
987.01	227.48
987.30	227.58
987.59	227.62
987.89	227.72
988.18	227.80
988.47	227.69
988.76	227.73
989.05	227.91
989.34	227.90
989.63	227.95
989.92	227.93
990.22	228.01
990.51	228.00
990.80	228.03
991.09	228.19
991.38	228.19
991.67	228.31
991.96	228.39
992.25	228.37
992.54	228.24
992.83	228.37
993.12	228.31
993.41	228.34
993.70	228.39
993.99	228.33
994.28	228.34
994.58	228.49
994.87	228.39
995.16	228.30
995.45	228.33
995.74	228.30
996.03	228.38
996.32	228.40
996.61	228.55
996.90	228.53
997.19	228.62
997.48	228.67
997.77	228.57
998.06	228.53
998.34	228.55
998.63	228.61
998.92	228.58
999.21	228.71
999.50	228.72
999.79	228.80
1000.08	228.83
1000.37	228.81
1000.66	228.72
1000.95	228.88
1001.24	228.90
1001.53	228.86
1001.82	228.84
1002.11	228.86
1002.40	228.77
1002.68	228.80
1002.97	228.93
1003.26	228.76
1003.55	228.71
1003.84	228.84
1004.13	228.93
1004.42	229.00
1004.71	229.04
1004.99	229.12
1005.28	229.10
1005.57	229.01
1005.86	228.95
1006.15	228.93
1006.44	228.83
1006.72	228.81
1007.01	228.80
1007.30	228.79
1007.59	228.80
1007.88	228.71
1008.17	228.79
1008.45	228.77
1008.74	228.69
1009.03	228.61
1009.32	228.67
1009.60	228.68
1009.89	228.60
1010.18	228.45
1010.47	228.35
1010.76	228.32
1011.04	228.28
1011.33	228.22
1011.62	228.30
1011.91	228.28
1012.19	228.33
1012.48	228.43
1012.77	228.45
1013.05	228.47
1013.34	228.45
1013.63	228.39
1013.92	228.41
1014.20	228.26
1014.49	228.33
1014.78	228.39
1015.06	228.37
1015.35	228.32
1015.64	228.35
1015.92	228.36
1016.21	228.34
1016.50	228.28
1016.78	228.31
1017.07	228.30
1017.36	228.24
1017.64	228.14
1017.93	228.11
1018.22	228.06
1018.50	227.94
1018.79	227.92
1019.08	227.86
1019.36	227.90
1019.65	227.84
1019.93	227.90
1020.22	227.90
1020.51	227.95
1020.79	227.81
1021.08	227.00
1021.36	226.70
1021.65	227.80
1021.94	228.20
1022.22	228.60
1022.51	226.80
1022.79	229.10
1023.08	228.30
1023.36	229.70
1023.65	226.90
>>>>>End Processed Spectral Data<<<<<
