SpectraSuite Data File
++++++++++++++++++++++++++++++++++++
Date: Fri Feb 01 14:36:23 EST 2013
User: group
Dark Spectrum Present: No
Reference Spectrum Present: No
Number of Sampled Component Spectra: 1
Spectrometers: USB2E7196
Integration Time (usec): 70000 (USB2E7196)
Spectra Averaged: 10 (USB2E7196)
Boxcar Smoothing: 10 (USB2E7196)
Correct for Electrical Dark: No (USB2E7196)
Strobe/Lamp Enabled: No (USB2E7196)
Correct for Detector Non-linearity: No (USB2E7196)
Correct for Stray Light: No (USB2E7196)
Number of Pixels in Processed Spectrum: 2048
>>>>>Begin Processed Spectral Data<<<<<
339.09	0.00
339.48	215.90
339.86	217.50
340.24	218.30
340.63	221.10
341.01	225.10
341.39	224.80
341.78	225.70
342.16	226.10
342.54	226.50
342.93	214.79
343.31	225.60
343.69	226.21
344.07	226.59
344.46	227.11
344.84	227.40
345.22	227.48
345.60	227.67
345.99	227.90
346.37	227.97
346.75	228.03
347.13	228.12
347.52	228.14
347.90	228.13
348.28	228.19
348.66	228.27
349.05	228.26
349.43	228.31
349.81	228.38
350.19	228.39
350.57	228.45
350.96	228.44
351.34	228.52
351.72	228.49
352.10	228.73
352.48	228.63
352.87	228.74
353.25	228.85
353.63	228.88
354.01	228.86
354.39	228.86
354.77	229.01
355.15	229.15
355.54	229.25
355.92	229.30
356.30	229.34
356.68	229.45
357.06	229.55
357.44	229.61
357.82	229.73
358.20	229.95
358.58	229.97
358.97	230.14
359.35	230.23
359.73	230.36
360.11	230.31
360.49	230.50
360.87	230.49
361.25	230.53
361.63	230.66
362.01	230.70
362.39	230.87
362.77	230.83
363.15	230.78
363.53	230.86
363.91	230.97
364.29	231.03
364.67	230.88
365.05	230.80
365.43	230.81
365.81	230.68
366.19	230.68
366.57	230.70
366.95	230.57
367.33	230.52
367.71	230.45
368.09	230.45
368.47	230.39
368.85	230.42
369.23	230.49
369.61	230.38
369.99	230.37
370.37	230.37
370.75	230.43
371.13	230.36
371.51	230.23
371.89	230.14
372.27	229.99
372.65	229.97
373.03	229.98
373.41	229.90
373.78	229.92
374.16	229.72
374.54	229.65
374.92	229.62
375.30	229.57
375.68	229.47
376.06	229.49
376.44	229.38
376.82	229.33
377.19	229.24
377.57	229.15
377.95	228.98
378.33	228.87
378.71	228.68
379.09	228.57
379.47	228.54
379.84	228.48
380.22	228.50
380.60	228.42
380.98	228.31
381.36	228.18
381.73	228.00
382.11	227.97
382.49	227.91
382.87	227.89
383.25	227.83
383.62	228.01
384.00	227.81
384.38	227.77
384.76	227.70
385.13	227.67
385.51	227.55
385.89	227.52
386.27	227.33
386.64	227.28
387.02	227.21
387.40	227.02
387.78	227.01
388.15	226.89
388.53	226.75
388.91	226.71
389.29	226.60
389.66	226.54
390.04	226.54
390.42	226.49
390.79	226.34
391.17	226.34
391.55	226.16
391.92	226.19
392.30	226.16
392.68	226.09
393.05	226.07
393.43	226.19
393.81	226.25
394.18	226.30
394.56	226.43
394.94	226.51
395.31	226.69
395.69	226.80
396.06	226.88
396.44	227.01
396.82	227.09
397.19	227.30
397.57	227.48
397.95	227.57
398.32	227.58
398.70	227.67
399.07	227.76
399.45	227.88
399.82	228.01
400.20	228.15
400.58	228.32
400.95	228.36
401.33	228.44
401.70	228.67
402.08	228.84
402.45	228.91
402.83	229.14
403.20	229.34
403.58	229.39
403.95	229.69
404.33	229.95
404.71	230.20
405.08	230.60
405.46	230.79
405.83	230.96
406.21	231.26
406.58	231.67
406.96	231.97
407.33	232.21
407.70	232.54
408.08	233.00
408.45	233.42
408.83	233.94
409.20	234.29
409.58	234.61
409.95	235.05
410.33	235.60
410.70	236.03
411.08	236.50
411.45	237.12
411.82	237.66
412.20	238.30
412.57	239.09
412.95	239.60
413.32	240.35
413.69	241.25
414.07	242.11
414.44	242.99
414.82	243.88
415.19	245.01
415.56	246.12
415.94	247.32
416.31	248.55
416.68	249.77
417.06	251.32
417.43	252.72
417.81	254.40
418.18	256.01
418.55	257.83
418.93	259.69
419.30	261.51
419.67	263.48
420.04	265.57
420.42	267.66
420.79	270.10
421.16	272.64
421.54	275.18
421.91	277.77
422.28	280.57
422.66	283.65
423.03	286.55
423.40	289.44
423.77	292.49
424.15	295.63
424.52	298.92
424.89	302.51
425.26	306.11
425.64	309.39
426.01	313.00
426.38	316.81
426.75	320.65
427.13	324.72
427.50	328.98
427.87	333.18
428.24	337.60
428.61	341.75
428.99	346.30
429.36	351.30
429.73	356.38
430.10	361.02
430.47	365.80
430.85	370.88
431.22	376.14
431.59	381.87
431.96	387.40
432.33	393.38
432.70	399.19
433.08	405.90
433.45	412.32
433.82	418.60
434.19	425.61
434.56	432.54
434.93	439.13
435.30	445.75
435.68	453.07
436.05	460.03
436.42	467.18
436.79	473.57
437.16	480.57
437.53	487.73
437.90	495.16
438.27	502.50
438.64	509.90
439.01	516.99
439.38	523.03
439.75	528.98
440.13	535.90
440.50	542.38
440.87	547.74
441.24	553.29
441.61	559.78
441.98	564.32
442.35	569.66
442.72	575.15
443.09	580.44
443.46	583.99
443.83	586.66
444.20	588.90
444.57	591.91
444.94	593.50
445.31	595.46
445.68	597.32
446.05	598.52
446.42	598.64
446.79	598.41
447.16	598.58
447.53	598.89
447.90	597.12
448.27	595.39
448.64	592.43
449.01	590.78
449.37	586.35
449.74	582.37
450.11	577.56
450.48	572.17
450.85	566.50
451.22	561.77
451.59	557.32
451.96	553.19
452.33	547.34
452.70	542.15
453.07	535.65
453.43	528.96
453.80	522.48
454.17	516.10
454.54	510.32
454.91	503.64
455.28	497.30
455.65	491.36
456.02	485.37
456.38	480.28
456.75	473.53
457.12	468.33
457.49	463.10
457.86	457.98
458.23	453.52
458.59	448.66
458.96	443.64
459.33	439.08
459.70	434.51
460.07	431.03
460.43	426.84
460.80	422.92
461.17	419.48
461.54	415.68
461.91	412.36
462.27	408.75
462.64	405.74
463.01	402.13
463.38	398.83
463.74	395.38
464.11	392.33
464.48	389.90
464.85	387.16
465.21	385.05
465.58	382.88
465.95	380.17
466.32	377.92
466.68	375.60
467.05	373.33
467.42	370.99
467.78	368.54
468.15	366.21
468.52	364.29
468.88	361.96
469.25	359.95
469.62	358.30
469.98	356.59
470.35	354.82
470.72	353.44
471.08	351.72
471.45	350.32
471.82	348.89
472.18	347.19
472.55	345.88
472.92	344.35
473.28	342.87
473.65	341.50
474.02	340.18
474.38	339.10
474.75	338.13
475.11	337.06
475.48	336.08
475.85	335.32
476.21	334.61
476.58	333.92
476.94	333.32
477.31	332.50
477.67	331.86
478.04	331.41
478.41	330.86
478.77	330.51
479.14	329.96
479.50	329.50
479.87	329.26
480.23	328.99
480.60	328.71
480.96	328.42
481.33	328.35
481.69	328.31
482.06	328.09
482.42	327.89
482.79	327.79
483.15	327.96
483.52	328.04
483.88	328.14
484.25	328.29
484.61	328.48
484.98	328.70
485.34	329.14
485.71	329.57
486.07	330.04
486.44	330.33
486.80	330.76
487.17	331.35
487.53	332.16
487.90	332.82
488.26	333.54
488.62	334.40
488.99	335.18
489.35	336.01
489.72	337.10
490.08	338.26
490.44	339.18
490.81	340.09
491.17	341.10
491.54	342.20
491.90	343.34
492.26	344.59
492.63	345.86
492.99	346.91
493.36	348.05
493.72	349.40
494.08	350.55
494.45	352.03
494.81	353.63
495.17	354.88
495.54	356.33
495.90	357.90
496.26	359.33
496.63	360.94
496.99	362.48
497.35	363.88
497.72	365.24
498.08	367.09
498.44	368.76
498.80	370.55
499.17	372.16
499.53	373.72
499.89	375.31
500.26	376.93
500.62	378.57
500.98	380.24
501.34	381.66
501.71	383.38
502.07	384.83
502.43	386.06
502.79	387.50
503.16	388.90
503.52	390.24
503.88	391.58
504.24	392.87
504.60	394.15
504.97	395.60
505.33	396.96
505.69	398.18
506.05	399.40
506.41	400.39
506.78	401.49
507.14	402.40
507.50	403.56
507.86	404.57
508.22	405.70
508.59	406.50
508.95	407.39
509.31	408.29
509.67	409.20
510.03	410.21
510.39	410.96
510.75	411.73
511.12	412.42
511.48	413.07
511.84	413.63
512.20	414.14
512.56	414.67
512.92	415.10
513.28	415.66
513.64	415.98
514.00	416.33
514.37	416.66
514.73	417.36
515.09	417.56
515.45	417.70
515.81	417.79
516.17	418.13
516.53	418.46
516.89	418.65
517.25	418.80
517.61	418.90
517.97	419.07
518.33	419.30
518.69	419.51
519.05	419.58
519.41	419.78
519.77	420.09
520.13	420.32
520.49	420.57
520.85	420.52
521.21	420.80
521.57	421.23
521.93	421.59
522.29	421.70
522.65	422.09
523.01	422.49
523.37	422.92
523.73	423.36
524.09	423.64
524.45	424.08
524.81	424.69
525.17	425.37
525.53	426.14
525.89	426.82
526.25	427.48
526.61	428.41
526.97	429.42
527.33	430.31
527.68	431.41
528.04	432.46
528.40	433.55
528.76	434.94
529.12	435.96
529.48	437.24
529.84	438.53
530.20	439.91
530.56	441.66
530.91	443.37
531.27	444.94
531.63	446.89
531.99	448.72
532.35	450.51
532.71	452.23
533.07	454.11
533.42	456.31
533.78	458.45
534.14	460.60
534.50	462.69
534.86	464.90
535.21	466.96
535.57	469.64
535.93	472.18
536.29	474.60
536.65	477.41
537.00	480.10
537.36	482.89
537.72	485.49
538.08	488.16
538.44	490.94
538.79	494.02
539.15	496.79
539.51	499.91
539.87	503.07
540.22	506.50
540.58	510.04
540.94	513.18
541.29	516.47
541.65	519.80
542.01	523.54
542.37	527.12
542.72	530.55
543.08	534.00
543.44	537.81
543.79	541.19
544.15	544.76
544.51	548.57
544.87	552.34
545.22	556.49
545.58	560.30
545.94	563.85
546.29	567.55
546.65	571.36
547.01	575.19
547.36	578.95
547.72	582.68
548.07	586.46
548.43	590.24
548.79	594.38
549.14	598.50
549.50	602.11
549.86	606.03
550.21	609.97
550.57	613.75
550.92	617.65
551.28	621.93
551.64	625.89
551.99	629.72
552.35	633.90
552.70	637.73
553.06	641.75
553.41	646.05
553.77	650.30
554.13	654.46
554.48	658.58
554.84	662.81
555.19	666.66
555.55	670.80
555.90	674.90
556.26	678.77
556.61	682.66
556.97	686.59
557.32	690.56
557.68	694.80
558.03	698.74
558.39	702.57
558.74	706.51
559.10	710.63
559.45	714.51
559.81	718.69
560.16	722.56
560.52	726.50
560.87	730.47
561.23	734.04
561.58	738.05
561.94	741.72
562.29	745.26
562.64	749.08
563.00	752.37
563.35	756.12
563.71	759.96
564.06	763.78
564.42	767.65
564.77	771.21
565.12	774.87
565.48	778.69
565.83	782.34
566.19	785.81
566.54	789.29
566.89	792.66
567.25	795.91
567.60	799.50
567.96	803.05
568.31	806.38
568.66	809.70
569.02	812.44
569.37	815.30
569.72	818.17
570.08	821.36
570.43	824.28
570.78	827.06
571.14	829.48
571.49	832.03
571.84	834.80
572.20	837.33
572.55	839.84
572.90	842.03
573.26	844.31
573.61	846.46
573.96	848.38
574.31	850.40
574.67	851.94
575.02	853.30
575.37	854.85
575.72	856.05
576.08	857.62
576.43	859.28
576.78	861.00
577.13	862.94
577.49	864.25
577.84	865.60
578.19	866.90
578.54	868.50
578.90	869.57
579.25	870.20
579.60	871.03
579.95	871.57
580.30	872.17
580.66	872.80
581.01	873.50
581.36	874.27
581.71	875.04
582.06	875.76
582.42	876.47
582.77	876.82
583.12	877.33
583.47	877.63
583.82	878.24
584.17	878.81
584.53	879.00
584.88	879.26
585.23	879.71
585.58	879.98
585.93	880.01
586.28	880.42
586.63	880.93
586.98	881.10
587.34	881.59
587.69	881.87
588.04	881.70
588.39	881.92
588.74	881.73
589.09	881.50
589.44	880.86
589.79	880.46
590.14	880.30
590.49	879.92
590.84	879.44
591.19	878.94
591.54	877.75
591.89	876.63
592.25	875.86
592.60	874.68
592.95	873.80
593.30	872.75
593.65	871.22
594.00	869.95
594.35	869.22
594.70	867.40
595.05	866.15
595.40	865.02
595.75	863.34
596.10	861.95
596.45	860.83
596.80	859.93
597.15	858.93
597.50	857.53
597.85	856.60
598.19	855.64
598.54	854.54
598.89	853.51
599.24	852.63
599.59	851.53
599.94	850.48
600.29	848.92
600.64	847.35
600.99	846.04
601.34	844.63
601.69	842.74
602.04	841.46
602.39	840.04
602.74	838.66
603.08	837.24
603.43	835.90
603.78	834.45
604.13	832.90
604.48	831.19
604.83	829.53
605.18	827.67
605.53	825.55
605.87	823.31
606.22	821.44
606.57	819.41
606.92	817.44
607.27	815.69
607.62	814.03
607.96	812.43
608.31	810.72
608.66	808.64
609.01	806.53
609.36	804.67
609.70	802.20
610.05	799.83
610.40	797.84
610.75	795.55
611.10	792.83
611.44	790.20
611.79	787.87
612.14	785.46
612.49	782.90
612.83	780.54
613.18	777.92
613.53	775.54
613.88	773.14
614.22	770.72
614.57	768.02
614.92	765.34
615.27	762.85
615.61	760.18
615.96	757.47
616.31	755.15
616.65	752.90
617.00	750.76
617.35	748.47
617.70	745.78
618.04	743.23
618.39	740.72
618.74	738.44
619.08	735.78
619.43	733.17
619.78	730.66
620.12	728.11
620.47	725.92
620.82	723.42
621.16	720.71
621.51	718.24
621.85	715.59
622.20	712.90
622.55	710.00
622.89	707.44
623.24	705.21
623.59	702.91
623.93	699.97
624.28	697.50
624.62	695.02
624.97	692.62
625.32	690.29
625.66	688.05
626.01	685.74
626.35	683.33
626.70	681.00
627.04	678.86
627.39	676.51
627.73	674.19
628.08	671.72
628.43	669.29
628.77	666.63
629.12	664.32
629.46	661.84
629.81	659.36
630.15	656.54
630.50	653.91
630.84	651.01
631.19	648.58
631.53	645.79
631.88	642.98
632.22	640.22
632.57	637.50
632.91	634.89
633.26	631.98
633.60	629.23
633.95	626.52
634.29	623.84
634.64	621.26
634.98	618.41
635.32	615.88
635.67	613.52
636.01	611.01
636.36	608.60
636.70	606.29
637.05	603.89
637.39	601.79
637.73	599.24
638.08	597.28
638.42	595.00
638.77	592.50
639.11	590.24
639.45	587.80
639.80	585.50
640.14	583.11
640.49	580.82
640.83	578.52
641.17	576.13
641.52	573.56
641.86	571.13
642.20	568.89
642.55	566.56
642.89	564.15
643.23	561.75
643.58	559.40
643.92	556.95
644.26	554.94
644.61	552.67
644.95	550.47
645.29	547.61
645.64	545.05
645.98	542.95
646.32	540.56
646.66	538.22
647.01	535.61
647.35	533.25
647.69	530.89
648.04	528.72
648.38	526.34
648.72	524.12
649.06	521.70
649.41	519.40
649.75	516.84
650.09	514.50
650.43	512.00
650.78	509.43
651.12	506.91
651.46	504.35
651.80	502.10
652.14	499.79
652.49	497.74
652.83	495.60
653.17	493.33
653.51	491.08
653.85	488.87
654.20	486.88
654.54	484.43
654.88	482.03
655.22	479.44
655.56	477.21
655.90	474.81
656.25	472.81
656.59	470.39
656.93	468.43
657.27	466.27
657.61	464.24
657.95	462.35
658.29	460.44
658.64	458.29
658.98	455.93
659.32	453.79
659.66	451.60
660.00	449.44
660.34	447.37
660.68	445.34
661.02	443.33
661.36	441.35
661.70	439.53
662.05	437.77
662.39	436.12
662.73	434.29
663.07	432.75
663.41	430.82
663.75	429.09
664.09	427.24
664.43	425.26
664.77	423.43
665.11	421.46
665.45	419.73
665.79	418.05
666.13	416.40
666.47	414.73
666.81	412.96
667.15	411.26
667.49	409.49
667.83	407.95
668.17	406.40
668.51	404.62
668.85	402.98
669.19	401.50
669.53	399.95
669.87	398.43
670.21	396.67
670.55	395.12
670.89	393.99
671.23	392.65
671.57	391.36
671.91	390.06
672.25	388.73
672.58	387.38
672.92	386.01
673.26	384.73
673.60	383.32
673.94	382.06
674.28	380.96
674.62	379.84
674.96	378.37
675.30	377.11
675.64	375.89
675.97	374.75
676.31	373.45
676.65	372.29
676.99	371.10
677.33	369.81
677.67	368.59
678.01	367.06
678.34	365.63
678.68	364.35
679.02	363.03
679.36	361.68
679.70	360.38
680.04	359.20
680.37	357.82
680.71	356.66
681.05	355.63
681.39	354.37
681.73	353.06
682.06	352.02
682.40	350.90
682.74	349.84
683.08	348.71
683.42	347.64
683.75	346.27
684.09	345.01
684.43	343.94
684.77	342.84
685.10	341.71
685.44	340.68
685.78	339.50
686.12	338.32
686.45	337.20
686.79	336.10
687.13	334.98
687.46	333.93
687.80	332.80
688.14	331.55
688.48	330.53
688.81	329.42
689.15	328.46
689.49	327.37
689.82	326.25
690.16	325.05
690.50	323.98
690.83	323.01
691.17	322.01
691.51	321.09
691.84	320.11
692.18	319.09
692.52	318.06
692.85	317.22
693.19	316.34
693.52	315.51
693.86	314.51
694.20	313.55
694.53	312.66
694.87	311.68
695.21	310.83
695.54	309.79
695.88	308.85
696.21	307.74
696.55	306.80
696.88	305.83
697.22	305.02
697.56	304.16
697.89	303.43
698.23	302.61
698.56	301.67
698.90	300.80
699.23	300.10
699.57	299.27
699.90	298.38
700.24	297.51
700.58	296.69
700.91	296.07
701.25	295.31
701.58	294.78
701.92	294.15
702.25	293.40
702.59	292.76
702.92	292.13
703.26	291.57
703.59	290.92
703.93	290.45
704.26	289.78
704.60	289.18
704.93	288.40
705.26	287.75
705.60	287.24
705.93	286.52
706.27	285.95
706.60	285.41
706.94	285.03
707.27	284.43
707.61	283.93
707.94	283.37
708.27	282.81
708.61	282.09
708.94	281.53
709.28	281.08
709.61	280.63
709.94	280.11
710.28	279.61
710.61	279.20
710.95	278.54
711.28	278.16
711.61	277.53
711.95	277.16
712.28	276.65
712.61	276.10
712.95	275.75
713.28	275.30
713.61	274.86
713.95	274.25
714.28	273.85
714.61	273.40
714.95	272.96
715.28	272.48
715.61	271.96
715.95	271.55
716.28	271.08
716.61	270.54
716.95	270.12
717.28	269.76
717.61	269.23
717.94	268.78
718.28	268.14
718.61	267.88
718.94	267.38
719.27	267.03
719.61	266.77
719.94	266.54
720.27	265.94
720.60	265.46
720.94	265.13
721.27	264.80
721.60	264.49
721.93	264.06
722.27	263.69
722.60	263.54
722.93	263.20
723.26	262.91
723.59	262.67
723.93	262.32
724.26	262.00
724.59	261.68
724.92	261.46
725.25	261.30
725.59	260.97
725.92	260.76
726.25	260.50
726.58	260.10
726.91	259.68
727.24	259.45
727.57	259.03
727.91	258.64
728.24	258.35
728.57	257.91
728.90	257.68
729.23	257.38
729.56	257.01
729.89	256.71
730.22	256.37
730.55	255.99
730.89	255.70
731.22	255.34
731.55	255.19
731.88	254.84
732.21	254.50
732.54	254.10
732.87	253.76
733.20	253.41
733.53	253.14
733.86	252.87
734.19	252.58
734.52	252.52
734.85	252.46
735.18	252.09
735.51	251.89
735.84	251.61
736.17	251.45
736.50	251.10
736.83	251.11
737.16	250.77
737.49	250.53
737.82	250.27
738.15	250.04
738.48	249.69
738.81	249.52
739.14	249.29
739.47	249.08
739.80	248.74
740.13	248.53
740.46	248.19
740.79	247.95
741.12	247.73
741.45	247.44
741.78	246.98
742.11	246.83
742.44	246.63
742.77	246.43
743.10	246.05
743.43	245.91
743.75	245.40
744.08	245.53
744.41	245.32
744.74	245.13
745.07	244.89
745.40	244.70
745.73	244.42
746.06	244.25
746.39	244.10
746.71	243.93
747.04	243.67
747.37	243.48
747.70	243.22
748.03	243.03
748.36	242.88
748.68	242.76
749.01	242.60
749.34	242.33
749.67	242.10
750.00	242.07
750.33	242.03
750.65	241.91
750.98	241.46
751.31	241.30
751.64	241.17
751.97	241.15
752.29	240.94
752.62	240.67
752.95	240.45
753.28	240.27
753.60	240.23
753.93	240.27
754.26	240.21
754.59	240.23
754.91	240.17
755.24	239.94
755.57	239.91
755.90	239.86
756.22	239.82
756.55	239.71
756.88	239.54
757.20	239.35
757.53	239.25
757.86	239.24
758.19	239.16
758.51	239.11
758.84	238.93
759.17	238.78
759.49	238.81
759.82	238.90
760.15	238.83
760.47	238.70
760.80	238.45
761.13	238.43
761.45	238.25
761.78	238.20
762.11	238.33
762.43	238.21
762.76	238.18
763.08	238.11
763.41	237.97
763.74	238.01
764.06	237.83
764.39	237.68
764.71	237.51
765.04	237.40
765.37	237.25
765.69	237.20
766.02	237.15
766.34	237.05
766.67	236.96
767.00	236.90
767.32	236.90
767.65	236.99
767.97	236.83
768.30	236.82
768.62	236.64
768.95	236.44
769.27	236.22
769.60	236.06
769.92	236.04
770.25	235.94
770.57	235.78
770.90	235.65
771.22	235.69
771.55	235.67
771.87	235.67
772.20	235.65
772.52	235.71
772.85	235.93
773.17	235.83
773.50	235.60
773.82	235.54
774.15	235.38
774.47	235.14
774.80	235.09
775.12	234.93
775.45	234.81
775.77	234.71
776.09	234.68
776.42	234.59
776.74	234.46
777.07	234.40
777.39	234.25
777.72	234.20
778.04	234.00
778.36	233.92
778.69	233.79
779.01	233.67
779.33	233.37
779.66	233.14
779.98	233.10
780.31	233.04
780.63	233.00
780.95	232.97
781.28	233.00
781.60	232.89
781.92	232.84
782.25	232.84
782.57	232.73
782.89	232.69
783.22	232.65
783.54	232.54
783.86	232.49
784.19	232.39
784.51	232.38
784.83	232.32
785.16	232.25
785.48	232.02
785.80	232.04
786.12	232.03
786.45	231.89
786.77	231.91
787.09	231.94
787.42	231.89
787.74	231.84
788.06	231.67
788.38	231.58
788.71	231.48
789.03	231.48
789.35	231.44
789.67	231.46
789.99	231.30
790.32	231.22
790.64	231.25
790.96	231.42
791.28	231.40
791.61	231.34
791.93	231.26
792.25	231.38
792.57	231.42
792.89	231.29
793.21	231.35
793.54	231.33
793.86	231.20
794.18	231.08
794.50	231.02
794.82	231.01
795.14	231.18
795.47	231.28
795.79	231.20
796.11	231.26
796.43	231.21
796.75	231.32
797.07	231.37
797.39	231.39
797.71	231.30
798.04	231.24
798.36	231.33
798.68	231.26
799.00	231.31
799.32	231.28
799.64	231.34
799.96	231.34
800.28	231.35
800.60	231.39
800.92	231.41
801.24	231.49
801.56	231.47
801.89	231.39
802.21	231.37
802.53	231.32
802.85	231.37
803.17	231.41
803.49	231.30
803.81	231.29
804.13	231.25
804.45	231.22
804.77	231.28
805.09	231.24
805.41	231.41
805.73	231.35
806.05	231.19
806.37	231.18
806.69	231.14
807.01	231.09
807.33	231.11
807.65	231.02
807.97	230.96
808.28	230.96
808.60	230.91
808.92	230.86
809.24	231.01
809.56	230.91
809.88	230.85
810.20	230.77
810.52	230.76
810.84	230.76
811.16	230.70
811.48	230.58
811.80	230.65
812.12	230.46
812.43	230.45
812.75	230.47
813.07	230.36
813.39	230.24
813.71	230.10
814.03	229.96
814.35	229.98
814.67	229.90
814.98	229.92
815.30	229.90
815.62	229.76
815.94	229.69
816.26	229.70
816.58	229.67
816.89	229.73
817.21	229.58
817.53	229.53
817.85	229.57
818.17	229.55
818.48	229.44
818.80	229.52
819.12	229.43
819.44	229.31
819.76	229.47
820.07	229.47
820.39	229.50
820.71	229.45
821.03	229.49
821.34	229.43
821.66	229.43
821.98	229.34
822.30	229.30
822.61	229.23
822.93	229.10
823.25	229.03
823.57	228.93
823.88	229.00
824.20	228.98
824.52	228.99
824.83	229.03
825.15	228.99
825.47	228.85
825.79	228.85
826.10	228.86
826.42	228.75
826.74	228.77
827.05	228.74
827.37	228.70
827.69	228.56
828.00	228.57
828.32	228.54
828.64	228.56
828.95	228.60
829.27	228.56
829.58	228.55
829.90	228.56
830.22	228.58
830.53	228.42
830.85	228.40
831.17	228.25
831.48	228.19
831.80	228.19
832.11	228.26
832.43	228.25
832.75	228.27
833.06	228.35
833.38	228.32
833.69	228.23
834.01	228.29
834.32	228.37
834.64	228.34
834.96	228.31
835.27	228.40
835.59	228.50
835.90	228.42
836.22	228.40
836.53	228.35
836.85	228.44
837.16	228.70
837.48	228.65
837.79	228.73
838.11	228.72
838.42	228.65
838.74	228.62
839.05	228.61
839.37	228.62
839.68	228.53
840.00	228.53
840.31	228.64
840.63	228.75
840.94	228.71
841.26	228.70
841.57	228.70
841.88	228.67
842.20	228.60
842.51	228.77
842.83	228.81
843.14	229.11
843.46	229.09
843.77	229.06
844.08	229.10
844.40	229.09
844.71	229.07
845.03	229.08
845.34	229.05
845.65	229.11
845.97	229.09
846.28	229.03
846.60	229.08
846.91	229.10
847.22	229.12
847.54	229.18
847.85	229.28
848.16	229.24
848.48	229.21
848.79	229.27
849.10	229.20
849.42	229.23
849.73	228.98
850.04	228.98
850.36	228.94
850.67	228.95
850.98	228.90
851.30	228.92
851.61	228.97
851.92	229.07
852.23	229.11
852.55	229.13
852.86	229.18
853.17	229.22
853.49	229.20
853.80	229.11
854.11	229.14
854.42	229.05
854.74	229.13
855.05	229.12
855.36	229.01
855.67	228.99
855.99	229.01
856.30	229.26
856.61	229.26
856.92	229.18
857.23	229.14
857.55	229.10
857.86	229.06
858.17	229.04
858.48	228.90
858.79	228.84
859.11	228.85
859.42	228.83
859.73	228.78
860.04	228.86
860.35	228.93
860.66	228.75
860.98	228.85
861.29	228.75
861.60	228.69
861.91	228.80
862.22	228.72
862.53	228.68
862.84	228.42
863.16	228.42
863.47	228.37
863.78	228.42
864.09	228.45
864.40	228.52
864.71	228.53
865.02	228.55
865.33	228.49
865.64	228.49
865.95	228.54
866.27	228.52
866.58	228.33
866.89	228.14
867.20	228.25
867.51	228.17
867.82	228.14
868.13	228.27
868.44	228.19
868.75	228.18
869.06	228.05
869.37	228.03
869.68	227.95
869.99	227.96
870.30	227.97
870.61	227.96
870.92	227.94
871.23	227.94
871.54	228.06
871.85	228.12
872.16	228.04
872.47	227.95
872.78	227.91
873.09	227.98
873.40	228.11
873.71	228.04
874.02	228.12
874.33	228.09
874.64	227.95
874.95	228.02
875.26	228.06
875.56	228.16
875.87	228.18
876.18	228.22
876.49	228.47
876.80	228.38
877.11	228.40
877.42	228.43
877.73	228.40
878.04	228.32
878.35	228.25
878.66	228.33
878.96	228.37
879.27	228.40
879.58	228.47
879.89	228.39
880.20	228.57
880.51	228.43
880.82	228.55
881.12	228.65
881.43	228.60
881.74	228.64
882.05	228.58
882.36	228.57
882.67	228.68
882.97	228.50
883.28	228.48
883.59	228.44
883.90	228.40
884.21	228.43
884.51	228.50
884.82	228.54
885.13	228.52
885.44	228.46
885.74	228.47
886.05	228.39
886.36	228.46
886.67	228.37
886.98	228.60
887.28	228.65
887.59	228.73
887.90	228.74
888.20	228.67
888.51	228.71
888.82	228.67
889.13	228.66
889.43	228.81
889.74	228.87
890.05	228.88
890.35	228.93
890.66	228.94
890.97	228.85
891.28	228.90
891.58	228.94
891.89	228.97
892.20	228.99
892.50	229.06
892.81	229.03
893.12	229.08
893.42	228.96
893.73	228.94
894.04	228.84
894.34	228.83
894.65	228.90
894.95	229.01
895.26	229.09
895.57	229.14
895.87	228.97
896.18	229.04
896.48	229.09
896.79	229.06
897.10	229.12
897.40	229.20
897.71	229.10
898.01	228.93
898.32	228.93
898.63	228.92
898.93	228.96
899.24	229.00
899.54	228.90
899.85	228.95
900.15	228.94
900.46	229.01
900.76	229.07
901.07	229.05
901.38	228.93
901.68	228.94
901.99	228.78
902.29	228.80
902.60	228.81
902.90	228.72
903.21	228.67
903.51	228.56
903.82	228.55
904.12	228.51
904.43	228.65
904.73	228.69
905.03	228.66
905.34	228.69
905.64	228.63
905.95	228.60
906.25	228.59
906.56	228.48
906.86	228.32
907.17	228.22
907.47	228.24
907.77	228.21
908.08	228.18
908.38	228.17
908.69	228.16
908.99	228.16
909.30	228.16
909.60	228.16
909.90	228.28
910.21	228.13
910.51	228.08
910.81	227.99
911.12	227.96
911.42	227.94
911.73	227.80
912.03	227.76
912.33	227.89
912.64	227.76
912.94	227.79
913.24	227.83
913.55	227.80
913.85	227.72
914.15	227.79
914.46	227.75
914.76	227.79
915.06	227.72
915.37	227.63
915.67	227.69
915.97	227.75
916.27	227.60
916.58	227.63
916.88	227.76
917.18	227.75
917.49	227.89
917.79	227.92
918.09	228.00
918.39	228.12
918.70	228.07
919.00	228.16
919.30	228.26
919.60	228.30
919.91	228.33
920.21	228.35
920.51	228.25
920.81	228.29
921.12	228.32
921.42	228.37
921.72	228.42
922.02	228.42
922.32	228.38
922.63	228.42
922.93	228.53
923.23	228.53
923.53	228.70
923.83	228.56
924.13	228.61
924.44	228.53
924.74	228.53
925.04	228.54
925.34	228.47
925.64	228.38
925.94	228.36
926.24	228.51
926.55	228.52
926.85	228.65
927.15	228.66
927.45	228.63
927.75	228.68
928.05	228.68
928.35	228.71
928.65	228.76
928.95	228.73
929.26	228.64
929.56	228.70
929.86	228.65
930.16	228.70
930.46	228.72
930.76	228.84
931.06	228.80
931.36	228.84
931.66	228.94
931.96	229.01
932.26	228.97
932.56	228.89
932.86	228.89
933.16	228.95
933.46	228.94
933.76	228.97
934.06	228.99
934.36	229.07
934.66	229.07
934.96	229.16
935.26	229.17
935.56	229.34
935.86	229.27
936.16	229.20
936.46	229.22
936.76	229.08
937.06	229.00
937.36	228.94
937.66	228.91
937.96	228.90
938.26	228.98
938.56	229.04
938.86	229.09
939.16	229.10
939.46	229.03
939.76	229.07
940.06	228.98
940.35	229.01
940.65	228.86
940.95	228.84
941.25	228.62
941.55	228.64
941.85	228.51
942.15	228.55
942.45	228.64
942.75	228.56
943.04	228.60
943.34	228.54
943.64	228.64
943.94	228.58
944.24	228.54
944.54	228.45
944.84	228.44
945.13	228.30
945.43	228.34
945.73	228.33
946.03	228.32
946.33	228.31
946.62	228.10
946.92	228.12
947.22	228.14
947.52	228.17
947.82	228.23
948.11	228.18
948.41	228.14
948.71	228.01
949.01	227.97
949.31	227.91
949.60	227.90
949.90	227.73
950.20	227.68
950.50	227.61
950.79	227.49
951.09	227.49
951.39	227.41
951.69	227.34
951.98	227.40
952.28	227.30
952.58	227.31
952.87	227.41
953.17	227.40
953.47	227.38
953.76	227.37
954.06	227.27
954.36	227.25
954.66	227.20
954.95	227.27
955.25	227.23
955.55	227.24
955.84	227.25
956.14	227.32
956.44	227.35
956.73	227.31
957.03	227.25
957.32	227.22
957.62	227.30
957.92	227.34
958.21	227.23
958.51	227.37
958.81	227.30
959.10	227.29
959.40	227.33
959.69	227.31
959.99	227.35
960.29	227.40
960.58	227.34
960.88	227.39
961.17	227.30
961.47	227.40
961.76	227.42
962.06	227.42
962.36	227.34
962.65	227.37
962.95	227.39
963.24	227.54
963.54	227.55
963.83	227.54
964.13	227.59
964.42	227.55
964.72	227.50
965.01	227.62
965.31	227.61
965.60	227.62
965.90	227.84
966.19	227.82
966.49	227.88
966.78	228.00
967.08	228.10
967.37	228.23
967.67	228.17
967.96	228.32
968.26	228.32
968.55	228.45
968.85	228.49
969.14	228.52
969.43	228.54
969.73	228.63
970.02	228.76
970.32	228.74
970.61	228.77
970.91	228.80
971.20	228.81
971.49	228.80
971.79	228.83
972.08	228.59
972.38	228.64
972.67	228.69
972.96	228.76
973.26	228.76
973.55	228.80
973.85	228.83
974.14	228.80
974.43	228.87
974.73	228.80
975.02	228.80
975.31	228.83
975.61	228.85
975.90	228.74
976.19	228.69
976.49	228.73
976.78	228.79
977.07	228.64
977.37	228.67
977.66	228.80
977.95	228.79
978.24	228.95
978.54	229.02
978.83	228.92
979.12	228.83
979.42	228.79
979.71	228.72
980.00	228.76
980.29	228.75
980.59	228.74
980.88	228.95
981.17	228.90
981.46	228.86
981.76	228.76
982.05	228.91
982.34	228.80
982.63	228.81
982.93	228.78
983.22	228.85
983.51	228.85
983.80	228.83
984.09	228.78
984.39	228.65
984.68	228.60
984.97	228.60
985.26	228.68
985.55	228.65
985.85	228.58
986.14	228.62
986.43	228.60
986.72	228.54
987.01	228.34
987.30	228.27
987.59	228.27
987.89	228.27
988.18	228.09
988.47	228.10
988.76	227.97
989.05	227.92
989.34	227.89
989.63	227.83
989.92	227.71
990.22	227.68
990.51	227.60
990.80	227.55
991.09	227.54
991.38	227.48
991.67	227.48
991.96	227.48
992.25	227.45
992.54	227.36
992.83	227.32
993.12	227.31
993.41	227.34
993.70	227.46
993.99	227.53
994.28	227.58
994.58	227.60
994.87	227.57
995.16	227.57
995.45	227.60
995.74	227.53
996.03	227.62
996.32	227.62
996.61	227.71
996.90	227.65
997.19	227.69
997.48	227.62
997.77	227.61
998.06	227.61
998.34	227.56
998.63	227.62
998.92	227.60
999.21	227.68
999.50	227.75
999.79	227.71
1000.08	227.74
1000.37	227.69
1000.66	227.76
1000.95	227.94
1001.24	228.07
1001.53	228.09
1001.82	228.17
1002.11	228.10
1002.40	228.19
1002.68	228.24
1002.97	228.47
1003.26	228.49
1003.55	228.58
1003.84	228.64
1004.13	228.72
1004.42	228.77
1004.71	228.71
1004.99	228.77
1005.28	228.79
1005.57	228.76
1005.86	228.69
1006.15	228.77
1006.44	228.87
1006.72	228.88
1007.01	228.89
1007.30	228.85
1007.59	228.87
1007.88	228.86
1008.17	229.01
1008.45	228.91
1008.74	228.87
1009.03	228.80
1009.32	228.76
1009.60	228.84
1009.89	228.76
1010.18	228.78
1010.47	228.77
1010.76	228.90
1011.04	228.96
1011.33	229.00
1011.62	229.06
1011.91	229.11
1012.19	229.07
1012.48	229.06
1012.77	229.03
1013.05	229.02
1013.34	229.01
1013.63	229.02
1013.92	229.09
1014.20	229.02
1014.49	229.07
1014.78	229.28
1015.06	229.20
1015.35	229.17
1015.64	229.05
1015.92	229.12
1016.21	229.09
1016.50	229.16
1016.78	229.19
1017.07	229.20
1017.36	229.17
1017.64	229.17
1017.93	229.24
1018.22	229.12
1018.50	229.10
1018.79	229.15
1019.08	229.01
1019.36	229.02
1019.65	229.00
1019.93	229.05
1020.22	229.01
1020.51	229.09
1020.79	228.82
1021.08	227.30
1021.36	228.20
1021.65	229.60
1021.94	227.00
1022.22	228.30
1022.51	229.00
1022.79	231.00
1023.08	228.50
1023.36	230.10
1023.65	226.70
>>>>>End Processed Spectral Data<<<<<
