SpectraSuite Data File
++++++++++++++++++++++++++++++++++++
Date: Fri Feb 01 14:40:33 EST 2013
User: group
Dark Spectrum Present: No
Reference Spectrum Present: No
Number of Sampled Component Spectra: 1
Spectrometers: USB2E7196
Integration Time (usec): 70000 (USB2E7196)
Spectra Averaged: 10 (USB2E7196)
Boxcar Smoothing: 10 (USB2E7196)
Correct for Electrical Dark: No (USB2E7196)
Strobe/Lamp Enabled: No (USB2E7196)
Correct for Detector Non-linearity: No (USB2E7196)
Correct for Stray Light: No (USB2E7196)
Number of Pixels in Processed Spectrum: 2048
>>>>>Begin Processed Spectral Data<<<<<
339.09	0.00
339.48	215.00
339.86	218.20
340.24	217.60
340.63	219.50
341.01	225.90
341.39	223.40
341.78	224.30
342.16	225.70
342.54	227.80
342.93	214.90
343.31	225.69
343.69	226.20
344.07	226.56
344.46	227.03
344.84	227.44
345.22	227.46
345.60	227.70
345.99	227.94
346.37	228.06
346.75	228.11
347.13	228.05
347.52	228.00
347.90	228.10
348.28	228.14
348.66	228.24
349.05	228.15
349.43	228.17
349.81	228.15
350.19	228.16
350.57	228.17
350.96	228.19
351.34	228.33
351.72	228.43
352.10	228.59
352.48	228.70
352.87	228.74
353.25	228.86
353.63	228.86
354.01	228.88
354.39	228.94
354.77	228.99
355.15	229.17
355.54	229.20
355.92	229.24
356.30	229.27
356.68	229.40
357.06	229.42
357.44	229.48
357.82	229.56
358.20	229.58
358.58	229.61
358.97	229.71
359.35	229.82
359.73	230.04
360.11	230.08
360.49	230.07
360.87	230.08
361.25	230.18
361.63	230.37
362.01	230.35
362.39	230.39
362.77	230.43
363.15	230.43
363.53	230.48
363.91	230.38
364.29	230.46
364.67	230.22
365.05	230.17
365.43	230.21
365.81	230.31
366.19	230.43
366.57	230.53
366.95	230.40
367.33	230.29
367.71	230.17
368.09	230.20
368.47	230.17
368.85	230.21
369.23	230.19
369.61	230.10
369.99	230.26
370.37	230.12
370.75	230.23
371.13	230.13
371.51	230.17
371.89	230.13
372.27	229.98
372.65	230.02
373.03	230.00
373.41	229.84
373.78	229.74
374.16	229.59
374.54	229.40
374.92	229.32
375.30	229.30
375.68	229.19
376.06	229.15
376.44	229.07
376.82	229.00
377.19	228.83
377.57	228.73
377.95	228.43
378.33	228.44
378.71	228.09
379.09	228.03
379.47	227.93
379.84	227.85
380.22	227.87
380.60	227.71
380.98	227.66
381.36	227.62
381.73	227.51
382.11	227.50
382.49	227.47
382.87	227.44
383.25	227.36
383.62	227.60
384.00	227.48
384.38	227.52
384.76	227.60
385.13	227.71
385.51	227.59
385.89	227.70
386.27	227.61
386.64	227.80
387.02	227.71
387.40	227.63
387.78	227.63
388.15	227.57
388.53	227.53
388.91	227.51
389.29	227.54
389.66	227.61
390.04	227.56
390.42	227.54
390.79	227.57
391.17	227.58
391.55	227.24
391.92	227.23
392.30	227.17
392.68	227.08
393.05	227.02
393.43	227.15
393.81	227.04
394.18	227.07
394.56	226.97
394.94	227.06
395.31	227.13
395.69	227.29
396.06	227.37
396.44	227.52
396.82	227.60
397.19	227.68
397.57	227.60
397.95	227.73
398.32	227.67
398.70	227.82
399.07	227.84
399.45	228.01
399.82	228.09
400.20	228.06
400.58	228.04
400.95	228.11
401.33	228.15
401.70	228.33
402.08	228.43
402.45	228.50
402.83	228.59
403.20	228.70
403.58	228.74
403.95	228.85
404.33	228.95
404.71	229.05
405.08	229.28
405.46	229.44
405.83	229.60
406.21	229.88
406.58	229.89
406.96	230.12
407.33	230.31
407.70	230.59
408.08	231.07
408.45	231.37
408.83	231.52
409.20	231.72
409.58	231.88
409.95	232.03
410.33	232.29
410.70	232.60
411.08	232.92
411.45	233.24
411.82	233.49
412.20	233.83
412.57	234.23
412.95	234.53
413.32	235.03
413.69	235.34
414.07	235.79
414.44	236.27
414.82	236.72
415.19	237.20
415.56	237.62
415.94	237.97
416.31	238.46
416.68	239.13
417.06	239.79
417.43	240.44
417.81	241.38
418.18	242.21
418.55	243.00
418.93	243.82
419.30	244.68
419.67	245.70
420.04	246.59
420.42	247.64
420.79	248.82
421.16	249.86
421.54	251.16
421.91	252.46
422.28	253.68
422.66	254.97
423.03	256.37
423.40	257.68
423.77	259.22
424.15	260.66
424.52	262.13
424.89	263.77
425.26	265.49
425.64	266.87
426.01	268.45
426.38	270.02
426.75	271.80
427.13	273.56
427.50	275.25
427.87	277.20
428.24	278.92
428.61	280.48
428.99	282.49
429.36	284.57
429.73	286.49
430.10	288.45
430.47	290.59
430.85	292.51
431.22	294.80
431.59	297.23
431.96	299.57
432.33	302.06
432.70	304.47
433.08	307.22
433.45	309.85
433.82	312.45
434.19	315.54
434.56	318.30
434.93	321.05
435.30	323.79
435.68	326.67
436.05	329.52
436.42	332.32
436.79	334.79
437.16	337.42
437.53	340.34
437.90	343.30
438.27	346.17
438.64	349.29
439.01	351.97
439.38	354.24
439.75	356.60
440.13	359.17
440.50	361.50
440.87	363.39
441.24	365.46
441.61	367.69
441.98	369.05
442.35	370.96
442.72	372.89
443.09	374.77
443.46	375.79
443.83	376.48
444.20	377.17
444.57	378.13
444.94	378.49
445.31	378.79
445.68	379.40
446.05	379.27
446.42	378.78
446.79	378.47
447.16	377.96
447.53	377.49
447.90	376.33
448.27	375.25
448.64	373.72
449.01	372.58
449.37	370.70
449.74	368.84
450.11	366.61
450.48	364.05
450.85	361.43
451.22	359.26
451.59	357.02
451.96	355.12
452.33	352.56
452.70	350.15
453.07	347.33
453.43	344.14
453.80	341.47
454.17	338.80
454.54	336.09
454.91	333.22
455.28	330.43
455.65	327.86
456.02	325.48
456.38	323.15
456.75	320.37
457.12	317.93
457.49	315.65
457.86	313.28
458.23	311.33
458.59	309.15
458.96	307.06
459.33	305.24
459.70	303.24
460.07	301.70
460.43	299.87
460.80	298.24
461.17	296.85
461.54	295.31
461.91	293.73
462.27	292.24
462.64	290.95
463.01	289.61
463.38	288.29
463.74	286.73
464.11	285.46
464.48	284.38
464.85	283.26
465.21	282.30
465.58	281.32
465.95	280.11
466.32	279.18
466.68	278.16
467.05	277.24
467.42	276.33
467.78	275.27
468.15	274.48
468.52	273.59
468.88	272.56
469.25	271.60
469.62	270.99
469.98	270.13
470.35	269.47
470.72	268.64
471.08	267.80
471.45	267.12
471.82	266.48
472.18	265.76
472.55	265.17
472.92	264.48
473.28	263.97
473.65	263.50
474.02	262.99
474.38	262.51
474.75	262.10
475.11	261.48
475.48	261.04
475.85	260.57
476.21	260.29
476.58	259.91
476.94	259.53
477.31	259.05
477.67	258.75
478.04	258.39
478.41	258.34
478.77	258.21
479.14	257.89
479.50	257.81
479.87	257.64
480.23	257.49
480.60	257.45
480.96	257.18
481.33	257.09
481.69	256.86
482.06	256.75
482.42	256.67
482.79	256.62
483.15	256.48
483.52	256.49
483.88	256.51
484.25	256.56
484.61	256.69
484.98	256.82
485.34	257.01
485.71	257.22
486.07	257.26
486.44	257.50
486.80	257.68
487.17	257.86
487.53	258.10
487.90	258.31
488.26	258.68
488.62	259.01
488.99	259.26
489.35	259.71
489.72	260.09
490.08	260.51
490.44	261.05
490.81	261.59
491.17	262.05
491.54	262.42
491.90	262.98
492.26	263.62
492.63	264.18
492.99	264.79
493.36	265.54
493.72	266.38
494.08	267.05
494.45	268.00
494.81	269.03
495.17	270.05
495.54	271.17
495.90	272.09
496.26	273.28
496.63	274.43
496.99	275.77
497.35	277.20
497.72	278.73
498.08	280.11
498.44	281.73
498.80	283.57
499.17	285.42
499.53	287.19
499.89	289.04
500.26	291.14
500.62	293.29
500.98	295.54
501.34	297.72
501.71	300.26
502.07	302.70
502.43	305.16
502.79	307.87
503.16	310.66
503.52	313.60
503.88	316.62
504.24	319.89
504.60	323.10
504.97	326.43
505.33	329.83
505.69	333.79
506.05	337.58
506.41	341.50
506.78	345.54
507.14	349.77
507.50	354.34
507.86	358.90
508.22	363.48
508.59	368.20
508.95	373.27
509.31	378.35
509.67	383.73
510.03	389.18
510.39	394.82
510.75	400.63
511.12	406.77
511.48	413.00
511.84	419.16
512.20	425.54
512.56	432.11
512.92	439.08
513.28	445.81
513.64	453.01
514.00	460.17
514.37	467.75
514.73	475.54
515.09	483.10
515.45	490.92
515.81	499.10
516.17	507.27
516.53	515.65
516.89	524.21
517.25	532.81
517.61	541.73
517.97	550.61
518.33	559.47
518.69	568.69
519.05	578.05
519.41	587.61
519.77	597.65
520.13	607.86
520.49	617.78
520.85	627.80
521.21	637.87
521.57	648.50
521.93	658.70
522.29	669.59
522.65	680.34
523.01	691.11
523.37	701.95
523.73	713.18
524.09	724.10
524.45	735.27
524.81	746.92
525.17	758.46
525.53	770.52
525.89	782.39
526.25	794.38
526.61	806.27
526.97	818.50
527.33	830.55
527.68	842.73
528.04	855.00
528.40	867.61
528.76	880.34
529.12	892.61
529.48	905.48
529.84	917.68
530.20	930.51
530.56	943.80
530.91	957.11
531.27	969.93
531.63	983.21
531.99	996.61
532.35	1009.28
532.71	1022.05
533.07	1035.19
533.42	1048.27
533.78	1061.26
534.14	1074.41
534.50	1087.34
534.86	1100.25
535.21	1113.01
535.57	1126.24
535.93	1139.21
536.29	1152.41
536.65	1165.94
537.00	1178.82
537.36	1192.18
537.72	1204.81
538.08	1217.37
538.44	1229.51
538.79	1242.27
539.15	1254.54
539.51	1267.24
539.87	1280.37
540.22	1293.33
540.58	1305.81
540.94	1318.28
541.29	1330.50
541.65	1342.79
542.01	1355.59
542.37	1367.51
542.72	1379.45
543.08	1391.00
543.44	1402.96
543.79	1414.03
544.15	1425.19
544.51	1436.94
544.87	1448.13
545.22	1459.45
545.58	1470.53
545.94	1481.32
546.29	1491.80
546.65	1502.37
547.01	1512.11
547.36	1521.70
547.72	1531.62
548.07	1541.42
548.43	1551.02
548.79	1560.51
549.14	1569.71
549.50	1578.00
549.86	1586.84
550.21	1595.46
550.57	1604.32
550.92	1612.81
551.28	1621.01
551.64	1629.10
551.99	1637.08
552.35	1645.09
552.70	1652.70
553.06	1660.80
553.41	1669.00
553.77	1677.08
554.13	1685.07
554.48	1693.01
554.84	1701.01
555.19	1708.17
555.55	1714.91
555.90	1721.44
556.26	1728.12
556.61	1734.68
556.97	1741.22
557.32	1747.83
557.68	1754.76
558.03	1761.17
558.39	1767.27
558.74	1774.56
559.10	1780.80
559.45	1786.89
559.81	1793.37
560.16	1799.47
560.52	1804.50
560.87	1810.59
561.23	1815.57
561.58	1820.94
561.94	1825.91
562.29	1830.33
562.64	1834.70
563.00	1839.69
563.35	1845.25
563.71	1850.57
564.06	1855.88
564.42	1860.73
564.77	1865.49
565.12	1870.21
565.48	1874.80
565.83	1878.80
566.19	1882.38
566.54	1886.03
566.89	1889.67
567.25	1892.63
567.60	1896.38
567.96	1899.82
568.31	1902.42
568.66	1905.31
569.02	1907.81
569.37	1910.30
569.72	1913.12
570.08	1915.60
570.43	1917.61
570.78	1918.96
571.14	1919.67
571.49	1920.60
571.84	1922.77
572.20	1923.80
572.55	1924.18
572.90	1924.58
573.26	1925.43
573.61	1925.86
573.96	1926.15
574.31	1925.44
574.67	1924.96
575.02	1924.51
575.37	1924.25
575.72	1922.82
576.08	1922.36
576.43	1921.22
576.78	1920.50
577.13	1919.58
577.49	1919.13
577.84	1917.94
578.19	1916.53
578.54	1915.11
578.90	1913.27
579.25	1910.48
579.60	1908.08
579.95	1905.75
580.30	1902.76
580.66	1900.30
581.01	1897.70
581.36	1895.58
581.71	1893.64
582.06	1890.96
582.42	1887.70
582.77	1884.54
583.12	1882.08
583.47	1879.14
583.82	1876.82
584.17	1873.48
584.53	1870.49
584.88	1867.05
585.23	1863.70
585.58	1860.87
585.93	1857.96
586.28	1855.17
586.63	1852.51
586.98	1849.73
587.34	1846.96
587.69	1844.49
588.04	1840.91
588.39	1837.66
588.74	1833.13
589.09	1828.99
589.44	1824.96
589.79	1821.50
590.14	1818.28
590.49	1814.59
590.84	1810.46
591.19	1806.26
591.54	1801.42
591.89	1796.01
592.25	1791.48
592.60	1786.53
592.95	1781.59
593.30	1776.59
593.65	1771.65
594.00	1766.08
594.35	1761.45
594.70	1755.66
595.05	1750.24
595.40	1745.14
595.75	1739.53
596.10	1735.03
596.45	1730.47
596.80	1726.32
597.15	1721.49
597.50	1716.10
597.85	1711.23
598.19	1706.37
598.54	1701.57
598.89	1697.05
599.24	1693.02
599.59	1688.18
599.94	1683.59
600.29	1678.41
600.64	1673.28
600.99	1667.20
601.34	1662.21
601.69	1656.40
602.04	1651.55
602.39	1646.72
602.74	1641.98
603.08	1637.06
603.43	1632.35
603.78	1626.90
604.13	1621.38
604.48	1615.71
604.83	1610.50
605.18	1604.91
605.53	1598.94
605.87	1592.50
606.22	1586.69
606.57	1580.35
606.92	1574.31
607.27	1568.49
607.62	1563.32
607.96	1558.37
608.31	1553.36
608.66	1547.00
609.01	1541.03
609.36	1534.49
609.70	1527.25
610.05	1520.13
610.40	1513.79
610.75	1506.59
611.10	1499.85
611.44	1492.56
611.79	1486.10
612.14	1479.10
612.49	1471.64
612.83	1465.11
613.18	1458.35
613.53	1451.81
613.88	1444.92
614.22	1438.13
614.57	1430.74
614.92	1423.76
615.27	1416.66
615.61	1409.67
615.96	1403.17
616.31	1397.12
616.65	1391.20
617.00	1385.23
617.35	1379.18
617.70	1372.24
618.04	1365.28
618.39	1358.71
618.74	1352.55
619.08	1345.58
619.43	1339.15
619.78	1333.34
620.12	1326.66
620.47	1320.46
620.82	1313.63
621.16	1307.26
621.51	1300.75
621.85	1294.57
622.20	1287.41
622.55	1280.87
622.89	1274.79
623.24	1268.92
623.59	1262.24
623.93	1255.88
624.28	1249.55
624.62	1243.05
624.97	1237.26
625.32	1231.63
625.66	1225.83
626.01	1219.39
626.35	1213.45
626.70	1206.96
627.04	1200.73
627.39	1194.38
627.73	1188.00
628.08	1182.13
628.43	1175.49
628.77	1169.24
629.12	1162.56
629.46	1156.46
629.81	1149.75
630.15	1143.00
630.50	1136.16
630.84	1128.98
631.19	1121.95
631.53	1115.43
631.88	1108.65
632.22	1101.44
632.57	1095.13
632.91	1088.51
633.26	1081.92
633.60	1074.93
633.95	1068.66
634.29	1062.58
634.64	1056.71
634.98	1050.26
635.32	1044.06
635.67	1038.74
636.01	1032.79
636.36	1027.27
636.70	1021.36
637.05	1015.75
637.39	1010.11
637.73	1004.18
638.08	999.46
638.42	994.58
638.77	989.29
639.11	983.87
639.45	978.58
639.80	972.48
640.14	966.69
640.49	961.30
640.83	956.09
641.17	950.58
641.52	944.68
641.86	938.92
642.20	933.67
642.55	928.17
642.89	922.15
643.23	916.69
643.58	911.59
643.92	906.03
644.26	900.41
644.61	895.22
644.95	890.03
645.29	883.91
645.64	877.72
645.98	872.03
646.32	866.73
646.66	861.20
647.01	856.01
647.35	850.93
647.69	845.78
648.04	840.79
648.38	835.12
648.72	829.49
649.06	824.03
649.41	818.69
649.75	812.81
650.09	807.60
650.43	802.47
650.78	796.61
651.12	791.40
651.46	786.14
651.80	780.61
652.14	775.80
652.49	770.90
652.83	765.98
653.17	760.51
653.51	755.05
653.85	750.03
654.20	744.96
654.54	739.58
654.88	734.22
655.22	728.80
655.56	723.92
655.90	719.32
656.25	714.53
656.59	709.77
656.93	705.26
657.27	700.46
657.61	695.19
657.95	690.77
658.29	686.23
658.64	681.66
658.98	676.77
659.32	671.55
659.66	666.81
660.00	662.00
660.34	657.59
660.68	653.32
661.02	648.80
661.36	644.53
661.70	640.41
662.05	636.50
662.39	632.57
662.73	628.60
663.07	624.30
663.41	620.33
663.75	616.33
664.09	612.34
664.43	608.41
664.77	604.83
665.11	601.02
665.45	597.25
665.79	593.35
666.13	589.77
666.47	586.20
666.81	582.37
667.15	578.80
667.49	575.33
667.83	571.98
668.17	568.29
668.51	564.51
668.85	560.82
669.19	557.21
669.53	553.82
669.87	550.44
670.21	547.14
670.55	543.88
670.89	540.74
671.23	537.67
671.57	534.72
671.91	531.46
672.25	528.15
672.58	525.09
672.92	522.13
673.26	519.22
673.60	516.35
673.94	513.54
674.28	510.89
674.62	508.17
674.96	505.36
675.30	502.81
675.64	500.12
675.97	497.36
676.31	494.77
676.65	491.91
676.99	489.46
677.33	486.82
677.67	484.20
678.01	481.41
678.34	478.92
678.68	476.18
679.02	473.60
679.36	471.19
679.70	468.70
680.04	466.25
680.37	463.62
680.71	461.09
681.05	458.86
681.39	456.43
681.73	454.12
682.06	451.60
682.40	449.43
682.74	447.12
683.08	445.01
683.42	442.66
683.75	440.40
684.09	437.85
684.43	435.89
684.77	433.53
685.10	431.17
685.44	428.94
685.78	426.95
686.12	424.74
686.45	422.42
686.79	420.19
687.13	418.01
687.46	416.07
687.80	413.97
688.14	411.80
688.48	409.78
688.81	407.67
689.15	405.80
689.49	403.70
689.82	401.80
690.16	399.80
690.50	397.83
690.83	395.89
691.17	393.97
691.51	391.94
691.84	390.19
692.18	388.41
692.52	386.44
692.85	384.45
693.19	382.78
693.52	381.07
693.86	379.30
694.20	377.61
694.53	375.85
694.87	374.20
695.21	372.40
695.54	370.50
695.88	368.67
696.21	366.79
696.55	365.00
696.88	363.24
697.22	361.63
697.56	360.12
697.89	358.63
698.23	357.04
698.56	355.37
698.90	353.82
699.23	352.20
699.57	350.73
699.90	349.37
700.24	347.77
700.58	346.29
700.91	344.86
701.25	343.47
701.58	342.18
701.92	340.65
702.25	339.40
702.59	338.21
702.92	336.96
703.26	335.72
703.59	334.50
703.93	333.40
704.26	332.11
704.60	330.76
704.93	329.33
705.26	328.06
705.60	327.00
705.93	325.80
706.27	324.76
706.60	323.71
706.94	322.59
707.27	321.48
707.61	320.33
707.94	319.25
708.27	318.08
708.61	316.85
708.94	315.91
709.28	314.81
709.61	313.76
709.94	312.64
710.28	311.73
710.61	310.79
710.95	309.59
711.28	308.68
711.61	307.81
711.95	307.11
712.28	306.18
712.61	305.11
712.95	304.19
713.28	303.31
713.61	302.34
713.95	301.30
714.28	300.42
714.61	299.67
714.95	298.98
715.28	298.18
715.61	297.40
715.95	296.61
716.28	295.77
716.61	295.03
716.95	294.36
717.28	293.45
717.61	292.74
717.94	292.17
718.28	291.33
718.61	290.62
718.94	289.74
719.27	289.05
719.61	288.45
719.94	287.87
720.27	287.23
720.60	286.54
720.94	286.04
721.27	285.57
721.60	284.99
721.93	284.30
722.27	283.74
722.60	283.21
722.93	282.60
723.26	282.09
723.59	281.57
723.93	280.99
724.26	280.57
724.59	279.93
724.92	279.40
725.25	278.95
725.59	278.39
725.92	277.95
726.25	277.52
726.58	277.00
726.91	276.40
727.24	275.82
727.57	275.42
727.91	274.87
728.24	274.31
728.57	273.80
728.90	273.33
729.23	272.81
729.56	272.38
729.89	271.84
730.22	271.39
730.55	270.82
730.89	270.39
731.22	269.94
731.55	269.46
731.88	268.98
732.21	268.51
732.54	267.96
732.87	267.53
733.20	266.99
733.53	266.55
733.86	266.16
734.19	265.77
734.52	265.34
734.85	265.04
735.18	264.52
735.51	264.13
735.84	263.68
736.17	263.20
736.50	262.66
736.83	262.48
737.16	262.11
737.49	261.80
737.82	261.38
738.15	260.95
738.48	260.64
738.81	260.15
739.14	259.87
739.47	259.54
739.80	259.21
740.13	258.94
740.46	258.51
740.79	258.09
741.12	257.77
741.45	257.36
741.78	256.95
742.11	256.73
742.44	256.41
742.77	256.11
743.10	255.85
743.43	255.51
743.75	254.94
744.08	254.77
744.41	254.40
744.74	254.07
745.07	253.70
745.40	253.40
745.73	253.26
746.06	252.87
746.39	252.61
746.71	252.27
747.04	251.95
747.37	251.72
747.70	251.53
748.03	251.27
748.36	251.10
748.68	250.73
749.01	250.39
749.34	250.11
749.67	249.89
750.00	249.60
750.33	249.55
750.65	249.50
750.98	249.09
751.31	248.90
751.64	248.78
751.97	248.67
752.29	248.37
752.62	248.01
752.95	247.73
753.28	247.58
753.60	247.42
753.93	247.22
754.26	247.01
754.59	246.70
754.91	246.46
755.24	246.14
755.57	246.03
755.90	245.79
756.22	245.52
756.55	245.27
756.88	245.00
757.20	244.71
757.53	244.39
757.86	244.21
758.19	244.00
758.51	243.77
758.84	243.57
759.17	243.47
759.49	243.37
759.82	243.28
760.15	243.20
760.47	243.01
760.80	242.81
761.13	242.68
761.45	242.60
761.78	242.39
762.11	242.30
762.43	242.11
762.76	242.03
763.08	241.96
763.41	241.85
763.74	241.80
764.06	241.57
764.39	241.48
764.71	241.29
765.04	241.06
765.37	240.96
765.69	240.84
766.02	240.78
766.34	240.66
766.67	240.55
767.00	240.35
767.32	240.40
767.65	240.36
767.97	240.29
768.30	240.07
768.62	239.94
768.95	239.78
769.27	239.76
769.60	239.66
769.92	239.38
770.25	239.21
770.57	239.04
770.90	238.99
771.22	238.85
771.55	238.73
771.87	238.60
772.20	238.49
772.52	238.50
772.85	238.58
773.17	238.41
773.50	238.32
773.82	238.20
774.15	237.94
774.47	237.78
774.80	237.66
775.12	237.58
775.45	237.48
775.77	237.36
776.09	237.18
776.42	237.08
776.74	237.18
777.07	237.01
777.39	236.92
777.72	236.76
778.04	236.69
778.36	236.60
778.69	236.50
779.01	236.38
779.33	236.06
779.66	235.70
779.98	235.57
780.31	235.35
780.63	235.21
780.95	235.01
781.28	234.95
781.60	234.70
781.92	234.60
782.25	234.54
782.57	234.39
782.89	234.32
783.22	234.23
783.54	233.95
783.86	233.92
784.19	233.80
784.51	233.80
784.83	233.70
785.16	233.54
785.48	233.57
785.80	233.43
786.12	233.31
786.45	233.20
786.77	233.23
787.09	233.21
787.42	233.20
787.74	233.19
788.06	233.09
788.38	233.09
788.71	233.10
789.03	233.01
789.35	233.06
789.67	232.90
789.99	232.79
790.32	232.81
790.64	232.89
790.96	233.03
791.28	232.88
791.61	232.84
791.93	232.88
792.25	232.73
792.57	232.90
792.89	232.89
793.21	232.88
793.54	232.82
793.86	232.80
794.18	232.71
794.50	232.66
794.82	232.70
795.14	232.78
795.47	232.71
795.79	232.67
796.11	232.60
796.43	232.65
796.75	232.59
797.07	232.55
797.39	232.52
797.71	232.42
798.04	232.62
798.36	232.71
798.68	232.71
799.00	232.78
799.32	232.63
799.64	232.69
799.96	232.67
800.28	232.72
800.60	232.69
800.92	232.70
801.24	232.71
801.56	232.66
801.89	232.61
802.21	232.68
802.53	232.69
802.85	232.84
803.17	232.93
803.49	232.92
803.81	232.94
804.13	232.90
804.45	232.83
804.77	232.66
805.09	232.50
805.41	232.45
805.73	232.44
806.05	232.31
806.37	232.33
806.69	232.36
807.01	232.23
807.33	232.26
807.65	232.25
807.97	232.27
808.28	232.14
808.60	232.18
808.92	232.01
809.24	232.10
809.56	231.92
809.88	231.80
810.20	231.70
810.52	231.76
810.84	231.59
811.16	231.53
811.48	231.56
811.80	231.58
812.12	231.56
812.43	231.60
812.75	231.60
813.07	231.50
813.39	231.49
813.71	231.56
814.03	231.45
814.35	231.40
814.67	231.34
814.98	231.35
815.30	231.17
815.62	231.19
815.94	231.00
816.26	231.02
816.58	230.94
816.89	231.04
817.21	230.86
817.53	230.84
817.85	230.79
818.17	230.64
818.48	230.65
818.80	230.61
819.12	230.47
819.44	230.42
819.76	230.29
820.07	230.31
820.39	230.18
820.71	230.16
821.03	229.99
821.34	229.93
821.66	230.00
821.98	229.98
822.30	229.84
822.61	229.92
822.93	229.87
823.25	229.74
823.57	229.62
823.88	229.64
824.20	229.67
824.52	229.61
824.83	229.65
825.15	229.45
825.47	229.42
825.79	229.29
826.10	229.16
826.42	229.24
826.74	229.10
827.05	228.94
827.37	228.95
827.69	228.94
828.00	228.94
828.32	228.90
828.64	228.87
828.95	229.08
829.27	229.09
829.58	228.96
829.90	229.10
830.22	229.12
830.53	229.08
830.85	229.02
831.17	228.94
831.48	228.84
831.80	228.92
832.11	228.91
832.43	228.86
832.75	228.93
833.06	228.93
833.38	228.89
833.69	228.93
834.01	228.90
834.32	228.89
834.64	228.91
834.96	228.77
835.27	228.88
835.59	228.80
835.90	228.74
836.22	228.79
836.53	228.76
836.85	228.83
837.16	229.04
837.48	229.12
837.79	229.32
838.11	229.42
838.42	229.49
838.74	229.53
839.05	229.72
839.37	229.76
839.68	229.74
840.00	229.78
840.31	229.96
840.63	229.97
840.94	229.98
841.26	230.00
841.57	230.16
841.88	230.16
842.20	230.08
842.51	230.03
842.83	230.13
843.14	230.38
843.46	230.40
843.77	230.33
844.08	230.37
844.40	230.27
844.71	230.30
845.03	230.17
845.34	230.28
845.65	230.25
845.97	230.30
846.28	230.42
846.60	230.43
846.91	230.29
847.22	230.31
847.54	230.40
847.85	230.42
848.16	230.33
848.48	230.33
848.79	230.48
849.10	230.59
849.42	230.59
849.73	230.31
850.04	230.27
850.36	230.25
850.67	230.20
850.98	230.24
851.30	230.22
851.61	230.31
851.92	230.22
852.23	230.17
852.55	230.18
852.86	230.06
853.17	230.13
853.49	230.17
853.80	230.15
854.11	230.11
854.42	230.10
854.74	230.10
855.05	230.03
855.36	229.92
855.67	229.79
855.99	229.67
856.30	229.96
856.61	229.98
856.92	229.80
857.23	229.79
857.55	229.71
857.86	229.72
858.17	229.65
858.48	229.61
858.79	229.66
859.11	229.66
859.42	229.62
859.73	229.50
860.04	229.56
860.35	229.52
860.66	229.45
860.98	229.33
861.29	229.35
861.60	229.23
861.91	229.11
862.22	229.17
862.53	229.21
862.84	228.95
863.16	228.80
863.47	228.83
863.78	228.80
864.09	228.72
864.40	228.62
864.71	228.65
865.02	228.57
865.33	228.45
865.64	228.34
865.95	228.33
866.27	228.44
866.58	228.40
866.89	228.37
867.20	228.34
867.51	228.33
867.82	228.22
868.13	228.39
868.44	228.41
868.75	228.38
869.06	228.32
869.37	228.27
869.68	228.25
869.99	228.20
870.30	228.11
870.61	228.15
870.92	228.13
871.23	228.05
871.54	228.04
871.85	228.11
872.16	228.21
872.47	228.17
872.78	228.05
873.09	228.01
873.40	228.12
873.71	228.13
874.02	228.11
874.33	228.18
874.64	228.05
874.95	228.13
875.26	228.07
875.56	228.10
875.87	228.07
876.18	228.12
876.49	228.34
876.80	228.37
877.11	228.34
877.42	228.39
877.73	228.46
878.04	228.53
878.35	228.42
878.66	228.33
878.96	228.34
879.27	228.39
879.58	228.37
879.89	228.22
880.20	228.26
880.51	228.30
880.82	228.29
881.12	228.29
881.43	228.15
881.74	228.18
882.05	228.16
882.36	228.24
882.67	228.20
882.97	228.00
883.28	228.08
883.59	228.08
883.90	228.08
884.21	228.01
884.51	227.98
884.82	228.06
885.13	228.12
885.44	228.15
885.74	228.13
886.05	228.14
886.36	228.12
886.67	228.13
886.98	228.17
887.28	228.25
887.59	228.34
887.90	228.44
888.20	228.41
888.51	228.45
888.82	228.33
889.13	228.39
889.43	228.57
889.74	228.46
890.05	228.57
890.35	228.56
890.66	228.70
890.97	228.73
891.28	228.71
891.58	228.69
891.89	228.64
892.20	228.61
892.50	228.65
892.81	228.70
893.12	228.67
893.42	228.65
893.73	228.51
894.04	228.47
894.34	228.44
894.65	228.47
894.95	228.46
895.26	228.60
895.57	228.72
895.87	228.52
896.18	228.58
896.48	228.51
896.79	228.59
897.10	228.49
897.40	228.47
897.71	228.40
898.01	228.42
898.32	228.52
898.63	228.54
898.93	228.54
899.24	228.60
899.54	228.50
899.85	228.44
900.15	228.53
900.46	228.56
900.76	228.60
901.07	228.65
901.38	228.57
901.68	228.53
901.99	228.44
902.29	228.45
902.60	228.47
902.90	228.48
903.21	228.45
903.51	228.51
903.82	228.56
904.12	228.61
904.43	228.64
904.73	228.53
905.03	228.54
905.34	228.60
905.64	228.56
905.95	228.68
906.25	228.73
906.56	228.70
906.86	228.66
907.17	228.70
907.47	228.58
907.77	228.57
908.08	228.45
908.38	228.48
908.69	228.40
908.99	228.40
909.30	228.40
909.60	228.33
909.90	228.33
910.21	228.27
910.51	228.37
910.81	228.27
911.12	228.30
911.42	228.28
911.73	228.17
912.03	228.30
912.33	228.33
912.64	228.25
912.94	228.19
913.24	228.17
913.55	228.06
913.85	228.18
914.15	228.34
914.46	228.43
914.76	228.45
915.06	228.56
915.37	228.55
915.67	228.54
915.97	228.56
916.27	228.50
916.58	228.54
916.88	228.54
917.18	228.62
917.49	228.80
917.79	228.76
918.09	228.74
918.39	228.67
918.70	228.61
919.00	228.71
919.30	228.91
919.60	228.88
919.91	228.85
920.21	228.87
920.51	228.75
920.81	228.75
921.12	228.69
921.42	228.80
921.72	228.81
922.02	228.78
922.32	228.70
922.63	228.74
922.93	228.78
923.23	228.69
923.53	228.64
923.83	228.48
924.13	228.57
924.44	228.58
924.74	228.57
925.04	228.55
925.34	228.48
925.64	228.37
925.94	228.40
926.24	228.59
926.55	228.53
926.85	228.58
927.15	228.57
927.45	228.51
927.75	228.40
928.05	228.37
928.35	228.35
928.65	228.48
928.95	228.46
929.26	228.52
929.56	228.64
929.86	228.67
930.16	228.66
930.46	228.57
930.76	228.62
931.06	228.60
931.36	228.57
931.66	228.66
931.96	228.62
932.26	228.67
932.56	228.54
932.86	228.48
933.16	228.55
933.46	228.53
933.76	228.59
934.06	228.69
934.36	228.76
934.66	228.81
934.96	228.77
935.26	228.70
935.56	228.65
935.86	228.51
936.16	228.52
936.46	228.44
936.76	228.49
937.06	228.32
937.36	228.34
937.66	228.40
937.96	228.46
938.26	228.47
938.56	228.48
938.86	228.49
939.16	228.69
939.46	228.65
939.76	228.67
940.06	228.58
940.35	228.52
940.65	228.50
940.95	228.58
941.25	228.51
941.55	228.54
941.85	228.54
942.15	228.61
942.45	228.64
942.75	228.73
943.04	228.72
943.34	228.84
943.64	228.78
943.94	228.83
944.24	228.73
944.54	228.72
944.84	228.68
945.13	228.70
945.43	228.61
945.73	228.56
946.03	228.61
946.33	228.73
946.62	228.66
946.92	228.60
947.22	228.57
947.52	228.64
947.82	228.67
948.11	228.50
948.41	228.52
948.71	228.48
949.01	228.51
949.31	228.41
949.60	228.47
949.90	228.48
950.20	228.39
950.50	228.41
950.79	228.45
951.09	228.44
951.39	228.47
951.69	228.43
951.98	228.43
952.28	228.32
952.58	228.23
952.87	228.29
953.17	228.29
953.47	228.26
953.76	228.33
954.06	228.28
954.36	228.35
954.66	228.29
954.95	228.35
955.25	228.35
955.55	228.50
955.84	228.42
956.14	228.40
956.44	228.50
956.73	228.45
957.03	228.44
957.32	228.42
957.62	228.38
957.92	228.32
958.21	228.38
958.51	228.63
958.81	228.78
959.10	228.80
959.40	228.90
959.69	228.83
959.99	228.84
960.29	228.92
960.58	228.90
960.88	228.89
961.17	228.77
961.47	228.77
961.76	228.70
962.06	228.74
962.36	228.77
962.65	228.63
962.95	228.70
963.24	228.68
963.54	228.72
963.83	228.79
964.13	228.83
964.42	228.76
964.72	228.68
965.01	228.51
965.31	228.48
965.60	228.34
965.90	228.48
966.19	228.39
966.49	228.43
966.78	228.45
967.08	228.50
967.37	228.59
967.67	228.52
967.96	228.57
968.26	228.48
968.55	228.55
968.85	228.66
969.14	228.59
969.43	228.52
969.73	228.50
970.02	228.43
970.32	228.43
970.61	228.37
970.91	228.29
971.20	228.32
971.49	228.37
971.79	228.44
972.08	228.39
972.38	228.40
972.67	228.38
972.96	228.42
973.26	228.41
973.55	228.47
973.85	228.53
974.14	228.40
974.43	228.56
974.73	228.47
975.02	228.46
975.31	228.43
975.61	228.45
975.90	228.40
976.19	228.43
976.49	228.41
976.78	228.47
977.07	228.49
977.37	228.57
977.66	228.58
977.95	228.50
978.24	228.47
978.54	228.57
978.83	228.57
979.12	228.58
979.42	228.47
979.71	228.38
980.00	228.38
980.29	228.51
980.59	228.50
980.88	228.53
981.17	228.50
981.46	228.62
981.76	228.63
982.05	228.75
982.34	228.72
982.63	228.84
982.93	228.84
983.22	228.78
983.51	228.73
983.80	228.65
984.09	228.68
984.39	228.65
984.68	228.54
984.97	228.50
985.26	228.52
985.55	228.69
985.85	228.63
986.14	228.68
986.43	228.70
986.72	228.63
987.01	228.65
987.30	228.64
987.59	228.58
987.89	228.59
988.18	228.58
988.47	228.65
988.76	228.53
989.05	228.47
989.34	228.45
989.63	228.60
989.92	228.62
990.22	228.69
990.51	228.68
990.80	228.63
991.09	228.70
991.38	228.73
991.67	228.68
991.96	228.62
992.25	228.49
992.54	228.52
992.83	228.50
993.12	228.43
993.41	228.38
993.70	228.45
993.99	228.56
994.28	228.50
994.58	228.39
994.87	228.37
995.16	228.35
995.45	228.47
995.74	228.30
996.03	228.29
996.32	228.20
996.61	228.32
996.90	228.34
997.19	228.26
997.48	228.20
997.77	228.21
998.06	228.29
998.34	228.33
998.63	228.28
998.92	228.32
999.21	228.33
999.50	228.33
999.79	228.21
1000.08	228.08
1000.37	228.02
1000.66	228.04
1000.95	228.07
1001.24	228.09
1001.53	228.01
1001.82	228.00
1002.11	227.97
1002.40	228.01
1002.68	228.02
1002.97	228.21
1003.26	228.14
1003.55	228.16
1003.84	228.02
1004.13	228.11
1004.42	228.06
1004.71	227.97
1004.99	227.90
1005.28	227.94
1005.57	228.04
1005.86	228.03
1006.15	228.05
1006.44	228.06
1006.72	228.15
1007.01	228.16
1007.30	228.20
1007.59	228.21
1007.88	228.17
1008.17	228.15
1008.45	228.12
1008.74	227.95
1009.03	227.76
1009.32	227.77
1009.60	227.70
1009.89	227.78
1010.18	227.68
1010.47	227.74
1010.76	227.77
1011.04	227.70
1011.33	227.78
1011.62	227.70
1011.91	227.72
1012.19	227.81
1012.48	227.87
1012.77	227.77
1013.05	227.88
1013.34	227.87
1013.63	227.84
1013.92	227.91
1014.20	227.83
1014.49	227.87
1014.78	227.89
1015.06	227.91
1015.35	227.88
1015.64	227.90
1015.92	227.91
1016.21	227.96
1016.50	227.99
1016.78	227.98
1017.07	228.06
1017.36	228.01
1017.64	228.09
1017.93	228.20
1018.22	228.20
1018.50	228.19
1018.79	228.23
1019.08	228.12
1019.36	228.14
1019.65	228.10
1019.93	228.09
1020.22	228.16
1020.51	228.23
1020.79	228.28
1021.08	228.90
1021.36	228.20
1021.65	228.90
1021.94	228.20
1022.22	228.40
1022.51	227.30
1022.79	227.90
1023.08	227.30
1023.36	229.50
1023.65	228.10
>>>>>End Processed Spectral Data<<<<<
