SpectraSuite Data File
++++++++++++++++++++++++++++++++++++
Date: Fri Feb 01 14:37:13 EST 2013
User: group
Dark Spectrum Present: No
Reference Spectrum Present: No
Number of Sampled Component Spectra: 1
Spectrometers: USB2E7196
Integration Time (usec): 70000 (USB2E7196)
Spectra Averaged: 10 (USB2E7196)
Boxcar Smoothing: 10 (USB2E7196)
Correct for Electrical Dark: No (USB2E7196)
Strobe/Lamp Enabled: No (USB2E7196)
Correct for Detector Non-linearity: No (USB2E7196)
Correct for Stray Light: No (USB2E7196)
Number of Pixels in Processed Spectrum: 2048
>>>>>Begin Processed Spectral Data<<<<<
339.09	0.00
339.48	215.70
339.86	217.90
340.24	218.40
340.63	221.50
341.01	224.20
341.39	224.60
341.78	225.30
342.16	227.00
342.54	226.90
342.93	214.97
343.31	225.81
343.69	226.37
344.07	226.83
344.46	227.39
344.84	227.76
345.22	227.97
345.60	228.15
345.99	228.29
346.37	228.40
346.75	228.49
347.13	228.56
347.52	228.59
347.90	228.67
348.28	228.74
348.66	228.88
349.05	228.81
349.43	228.82
349.81	228.86
350.19	228.81
350.57	228.90
350.96	229.01
351.34	229.10
351.72	229.12
352.10	229.18
352.48	229.19
352.87	229.22
353.25	229.18
353.63	229.24
354.01	229.27
354.39	229.34
354.77	229.46
355.15	229.52
355.54	229.61
355.92	229.58
356.30	229.64
356.68	229.75
357.06	229.80
357.44	229.84
357.82	229.87
358.20	229.92
358.58	229.88
358.97	229.86
359.35	229.90
359.73	230.01
360.11	230.14
360.49	230.18
360.87	230.11
361.25	230.27
361.63	230.37
362.01	230.47
362.39	230.40
362.77	230.33
363.15	230.33
363.53	230.32
363.91	230.43
364.29	230.46
364.67	230.30
365.05	230.35
365.43	230.33
365.81	230.33
366.19	230.45
366.57	230.50
366.95	230.44
367.33	230.40
367.71	230.39
368.09	230.32
368.47	230.22
368.85	230.28
369.23	230.20
369.61	230.14
369.99	230.07
370.37	230.08
370.75	230.10
371.13	230.00
371.51	229.92
371.89	229.75
372.27	229.60
372.65	229.49
373.03	229.40
373.41	229.38
373.78	229.23
374.16	228.98
374.54	228.95
374.92	228.84
375.30	228.78
375.68	228.70
376.06	228.72
376.44	228.62
376.82	228.51
377.19	228.40
377.57	228.17
377.95	227.97
378.33	227.79
378.71	227.58
379.09	227.54
379.47	227.38
379.84	227.37
380.22	227.26
380.60	227.27
380.98	227.20
381.36	227.04
381.73	227.06
382.11	227.00
382.49	226.89
382.87	226.90
383.25	226.88
383.62	226.99
384.00	226.81
384.38	226.82
384.76	226.80
385.13	226.88
385.51	226.91
385.89	226.95
386.27	226.99
386.64	226.98
387.02	226.88
387.40	226.97
387.78	226.85
388.15	227.00
388.53	226.92
388.91	226.89
389.29	226.90
389.66	226.88
390.04	226.87
390.42	226.97
390.79	226.91
391.17	226.82
391.55	226.54
391.92	226.50
392.30	226.47
392.68	226.45
393.05	226.44
393.43	226.49
393.81	226.44
394.18	226.44
394.56	226.48
394.94	226.68
395.31	226.66
395.69	226.86
396.06	226.83
396.44	226.83
396.82	226.85
397.19	226.93
397.57	226.96
397.95	227.20
398.32	227.09
398.70	227.20
399.07	227.48
399.45	227.65
399.82	227.77
400.20	227.93
400.58	228.04
400.95	228.10
401.33	228.26
401.70	228.53
402.08	228.61
402.45	228.81
402.83	228.89
403.20	229.04
403.58	229.12
403.95	229.31
404.33	229.54
404.71	229.70
405.08	230.08
405.46	230.30
405.83	230.47
406.21	230.69
406.58	231.08
406.96	231.22
407.33	231.50
407.70	231.75
408.08	232.15
408.45	232.47
408.83	232.84
409.20	233.10
409.58	233.42
409.95	233.85
410.33	234.25
410.70	234.55
411.08	235.03
411.45	235.55
411.82	235.95
412.20	236.51
412.57	237.20
412.95	237.62
413.32	238.29
413.69	238.86
414.07	239.59
414.44	240.14
414.82	240.85
415.19	241.71
415.56	242.65
415.94	243.46
416.31	244.55
416.68	245.57
417.06	246.80
417.43	247.96
417.81	249.20
418.18	250.58
418.55	252.16
418.93	253.70
419.30	255.22
419.67	256.95
420.04	258.64
420.42	260.42
420.79	262.52
421.16	264.45
421.54	266.62
421.91	268.75
422.28	271.06
422.66	273.48
423.03	275.85
423.40	278.28
423.77	280.82
424.15	283.37
424.52	286.04
424.89	289.01
425.26	291.81
425.64	294.68
426.01	297.61
426.38	300.60
426.75	303.76
427.13	307.05
427.50	310.56
427.87	314.10
428.24	317.57
428.61	320.86
428.99	324.63
429.36	328.74
429.73	332.90
430.10	336.80
430.47	340.85
430.85	345.18
431.22	349.57
431.59	354.31
431.96	358.83
432.33	363.79
432.70	368.45
433.08	374.11
433.45	379.33
433.82	384.59
434.19	390.35
434.56	395.96
434.93	401.36
435.30	406.56
435.68	412.60
436.05	418.60
436.42	424.48
436.79	429.89
437.16	435.56
437.53	441.50
437.90	447.54
438.27	453.31
438.64	459.30
439.01	464.96
439.38	470.10
439.75	474.99
440.13	480.70
440.50	486.10
440.87	490.50
441.24	494.98
441.61	500.04
441.98	503.90
442.35	508.33
442.72	512.96
443.09	517.50
443.46	520.31
443.83	522.20
444.20	524.10
444.57	526.55
444.94	528.10
445.31	529.42
445.68	530.98
446.05	532.09
446.42	531.86
446.79	531.70
447.16	531.46
447.53	531.53
447.90	529.90
448.27	528.28
448.64	525.69
449.01	524.16
449.37	520.80
449.74	517.58
450.11	513.75
450.48	509.20
450.85	504.46
451.22	500.50
451.59	496.74
451.96	493.32
452.33	488.45
452.70	483.92
453.07	478.79
453.43	473.17
453.80	467.88
454.17	462.90
454.54	458.23
454.91	452.94
455.28	447.74
455.65	442.81
456.02	438.00
456.38	433.90
456.75	428.60
457.12	424.16
457.49	419.69
457.86	415.20
458.23	411.45
458.59	407.47
458.96	403.38
459.33	399.83
459.70	395.95
460.07	392.95
460.43	389.55
460.80	386.15
461.17	383.41
461.54	380.41
461.91	377.34
462.27	374.28
462.64	371.73
463.01	368.96
463.38	366.23
463.74	363.42
464.11	361.10
464.48	358.99
464.85	356.75
465.21	355.02
465.58	353.20
465.95	350.89
466.32	349.07
466.68	347.12
467.05	345.22
467.42	343.45
467.78	341.41
468.15	339.29
468.52	337.83
468.88	335.99
469.25	334.24
469.62	333.08
469.98	331.52
470.35	330.08
470.72	328.76
471.08	327.33
471.45	326.17
471.82	324.85
472.18	323.52
472.55	322.37
472.92	321.16
473.28	320.03
473.65	318.99
474.02	317.84
474.38	316.83
474.75	315.98
475.11	314.95
475.48	314.24
475.85	313.63
476.21	312.99
476.58	312.18
476.94	311.58
477.31	310.98
477.67	310.43
478.04	309.95
478.41	309.57
478.77	309.26
479.14	308.66
479.50	308.20
479.87	307.87
480.23	307.69
480.60	307.38
480.96	307.16
481.33	307.15
481.69	306.97
482.06	306.92
482.42	306.64
482.79	306.65
483.15	306.59
483.52	306.66
483.88	306.58
484.25	306.61
484.61	306.64
484.98	306.69
485.34	306.85
485.71	307.02
486.07	307.22
486.44	307.34
486.80	307.63
487.17	307.90
487.53	308.23
487.90	308.48
488.26	308.91
488.62	309.31
488.99	309.70
489.35	310.21
489.72	310.74
490.08	311.39
490.44	311.90
490.81	312.41
491.17	312.95
491.54	313.56
491.90	314.17
492.26	314.90
492.63	315.72
492.99	316.44
493.36	317.26
493.72	318.05
494.08	318.86
494.45	319.75
494.81	320.73
495.17	321.78
495.54	322.80
495.90	323.63
496.26	324.39
496.63	325.37
496.99	326.36
497.35	327.34
497.72	328.31
498.08	329.23
498.44	330.31
498.80	331.57
499.17	332.61
499.53	333.59
499.89	334.59
500.26	335.29
500.62	336.33
500.98	337.22
501.34	338.06
501.71	338.87
502.07	339.72
502.43	340.41
502.79	341.12
503.16	341.67
503.52	342.40
503.88	343.20
504.24	343.77
504.60	344.27
504.97	344.90
505.33	345.46
505.69	346.13
506.05	346.77
506.41	346.96
506.78	347.42
507.14	347.93
507.50	348.33
507.86	348.77
508.22	348.99
508.59	349.34
508.95	349.64
509.31	350.10
509.67	350.37
510.03	350.58
510.39	350.87
510.75	351.11
511.12	351.39
511.48	351.45
511.84	351.60
512.20	351.82
512.56	351.79
512.92	352.01
513.28	351.94
513.64	351.80
514.00	351.88
514.37	351.91
514.73	351.95
515.09	352.04
515.45	352.18
515.81	352.25
516.17	352.33
516.53	352.36
516.89	352.28
517.25	352.34
517.61	352.60
517.97	352.64
518.33	352.81
518.69	352.86
519.05	353.18
519.41	353.40
519.77	353.71
520.13	354.11
520.49	354.28
520.85	354.72
521.21	355.34
521.57	355.87
521.93	356.20
522.29	356.72
522.65	357.15
523.01	357.76
523.37	358.33
523.73	359.14
524.09	359.82
524.45	360.68
524.81	361.48
525.17	362.36
525.53	363.49
525.89	364.55
526.25	365.72
526.61	366.66
526.97	367.82
527.33	369.19
527.68	370.59
528.04	371.99
528.40	373.42
528.76	375.05
529.12	376.83
529.48	378.71
529.84	380.52
530.20	382.56
530.56	384.50
530.91	386.72
531.27	388.66
531.63	390.97
531.99	393.29
532.35	395.61
532.71	397.90
533.07	400.29
533.42	403.10
533.78	405.75
534.14	408.53
534.50	411.36
534.86	414.05
535.21	416.72
535.57	419.91
535.93	422.97
536.29	425.96
536.65	429.01
537.00	432.26
537.36	435.50
537.72	438.98
538.08	442.50
538.44	445.98
538.79	449.65
539.15	453.14
539.51	456.81
539.87	460.67
540.22	464.57
540.58	468.49
540.94	472.13
541.29	476.00
541.65	480.25
542.01	484.33
542.37	488.42
542.72	492.77
543.08	496.79
543.44	501.11
543.79	505.06
544.15	509.54
544.51	514.05
544.87	518.47
545.22	522.72
545.58	526.93
545.94	531.37
546.29	535.90
546.65	540.39
547.01	544.77
547.36	549.24
547.72	553.69
548.07	558.15
548.43	562.69
548.79	567.17
549.14	571.34
549.50	575.79
549.86	580.25
550.21	584.90
550.57	589.69
550.92	594.34
551.28	599.03
551.64	603.55
551.99	607.99
552.35	612.62
552.70	617.13
553.06	621.93
553.41	626.43
553.77	630.92
554.13	635.42
554.48	640.18
554.84	644.80
555.19	649.52
555.55	654.09
555.90	658.56
556.26	663.24
556.61	667.84
556.97	672.23
557.32	676.57
557.68	680.88
558.03	685.34
558.39	689.68
558.74	694.10
559.10	698.42
559.45	702.83
559.81	707.50
560.16	711.85
560.52	716.14
560.87	720.67
561.23	724.71
561.58	729.28
561.94	733.51
562.29	737.50
562.64	741.58
563.00	745.65
563.35	749.74
563.71	754.13
564.06	758.28
564.42	762.46
564.77	766.96
565.12	771.35
565.48	775.40
565.83	779.35
566.19	783.67
566.54	787.40
566.89	791.17
567.25	794.79
567.60	798.59
567.96	802.16
568.31	805.72
568.66	809.28
569.02	812.50
569.37	815.85
569.72	819.21
570.08	822.31
570.43	825.46
570.78	828.75
571.14	831.38
571.49	834.54
571.84	837.74
572.20	840.31
572.55	842.72
572.90	844.92
573.26	847.58
573.61	849.78
573.96	852.24
574.31	854.41
574.67	856.20
575.02	857.89
575.37	859.81
575.72	861.58
576.08	863.34
576.43	865.10
576.78	866.74
577.13	868.69
577.49	870.47
577.84	872.11
578.19	873.33
578.54	874.84
578.90	876.07
579.25	877.05
579.60	878.15
579.95	879.13
580.30	880.23
580.66	881.02
581.01	881.66
581.36	882.50
581.71	883.32
582.06	884.23
582.42	885.28
582.77	885.98
583.12	886.58
583.47	887.46
583.82	888.24
584.17	888.42
584.53	888.57
584.88	888.74
585.23	889.31
585.58	889.88
585.93	890.11
586.28	890.46
586.63	890.58
586.98	890.93
587.34	891.10
587.69	891.16
588.04	891.39
588.39	891.69
588.74	891.44
589.09	891.28
589.44	890.78
589.79	890.46
590.14	890.26
590.49	889.78
590.84	889.30
591.19	888.72
591.54	888.16
591.89	887.38
592.25	887.02
592.60	885.70
592.95	884.78
593.30	883.73
593.65	882.47
594.00	881.63
594.35	881.13
594.70	879.97
595.05	879.12
595.40	877.65
595.75	876.14
596.10	875.19
596.45	874.21
596.80	873.40
597.15	872.49
597.50	871.39
597.85	870.53
598.19	869.48
598.54	868.61
598.89	867.74
599.24	866.92
599.59	865.72
599.94	864.83
600.29	863.54
600.64	862.44
600.99	861.26
601.34	860.11
601.69	858.00
602.04	856.66
602.39	855.16
602.74	854.36
603.08	853.40
603.43	852.24
603.78	850.79
604.13	849.46
604.48	847.89
604.83	846.27
605.18	844.85
605.53	843.02
605.87	840.91
606.22	839.27
606.57	837.37
606.92	835.46
607.27	833.73
607.62	832.26
607.96	830.60
608.31	829.02
608.66	826.93
609.01	825.13
609.36	823.11
609.70	820.75
610.05	818.20
610.40	816.09
610.75	813.73
611.10	811.31
611.44	808.74
611.79	806.32
612.14	804.02
612.49	801.20
612.83	798.86
613.18	796.55
613.53	794.13
613.88	791.55
614.22	788.88
614.57	786.25
614.92	783.42
615.27	780.69
615.61	777.94
615.96	775.32
616.31	772.90
616.65	770.92
617.00	768.91
617.35	766.31
617.70	763.76
618.04	760.95
618.39	758.40
618.74	755.94
619.08	753.25
619.43	750.70
619.78	748.48
620.12	746.01
620.47	743.45
620.82	740.55
621.16	738.08
621.51	735.94
621.85	733.31
622.20	730.95
622.55	728.75
622.89	726.21
623.24	723.74
623.59	721.14
623.93	718.43
624.28	715.69
624.62	713.36
624.97	710.90
625.32	708.44
625.66	706.08
626.01	703.58
626.35	701.18
626.70	698.69
627.04	696.10
627.39	693.41
627.73	690.98
628.08	688.71
628.43	686.15
628.77	683.44
629.12	680.83
629.46	677.78
629.81	674.64
630.15	671.70
630.50	668.99
630.84	666.24
631.19	663.25
631.53	660.53
631.88	657.49
632.22	654.32
632.57	651.85
632.91	649.13
633.26	646.32
633.60	643.48
633.95	640.77
634.29	637.85
634.64	635.23
634.98	632.59
635.32	630.04
635.67	627.57
636.01	624.95
636.36	622.40
636.70	620.35
637.05	617.92
637.39	615.85
637.73	613.64
638.08	611.50
638.42	609.34
638.77	607.02
639.11	604.91
639.45	602.67
639.80	600.18
640.14	597.72
640.49	595.21
640.83	592.90
641.17	590.63
641.52	588.34
641.86	585.65
642.20	583.11
642.55	580.55
642.89	578.11
643.23	575.68
643.58	573.56
643.92	570.77
644.26	568.49
644.61	566.16
644.95	563.67
645.29	560.56
645.64	557.86
645.98	555.18
646.32	552.46
646.66	549.82
647.01	547.27
647.35	544.87
647.69	542.81
648.04	540.56
648.38	537.87
648.72	535.28
649.06	533.06
649.41	530.70
649.75	528.23
650.09	525.68
650.43	523.30
650.78	520.57
651.12	518.31
651.46	516.01
651.80	513.51
652.14	511.08
652.49	509.10
652.83	506.81
653.17	504.65
653.51	502.41
653.85	500.40
654.20	498.05
654.54	495.53
654.88	492.90
655.22	490.31
655.56	487.70
655.90	485.50
656.25	483.35
656.59	481.04
656.93	478.80
657.27	476.74
657.61	474.26
657.95	472.46
658.29	470.31
658.64	468.07
658.98	465.79
659.32	463.56
659.66	461.49
660.00	459.34
660.34	457.05
660.68	454.91
661.02	452.67
661.36	450.69
661.70	448.91
662.05	447.11
662.39	445.39
662.73	443.69
663.07	442.04
663.41	439.99
663.75	438.12
664.09	436.18
664.43	434.22
664.77	432.62
665.11	430.54
665.45	428.81
665.79	426.93
666.13	425.14
666.47	423.28
666.81	421.25
667.15	419.35
667.49	417.77
667.83	416.04
668.17	414.25
668.51	412.41
668.85	410.69
669.19	409.09
669.53	407.25
669.87	405.59
670.21	403.74
670.55	402.12
670.89	400.49
671.23	399.15
671.57	397.65
671.91	396.13
672.25	394.59
672.58	393.00
672.92	391.41
673.26	390.03
673.60	388.71
673.94	387.47
674.28	386.10
674.62	384.74
674.96	383.34
675.30	382.06
675.64	380.76
675.97	379.25
676.31	377.83
676.65	376.53
676.99	375.39
677.33	374.04
677.67	372.70
678.01	371.33
678.34	369.83
678.68	368.48
679.02	367.09
679.36	365.76
679.70	364.48
680.04	363.38
680.37	362.01
680.71	360.59
681.05	359.45
681.39	358.27
681.73	357.03
682.06	356.02
682.40	354.88
682.74	353.79
683.08	352.70
683.42	351.42
683.75	350.28
684.09	349.00
684.43	347.65
684.77	346.61
685.10	345.62
685.44	344.56
685.78	343.49
686.12	342.27
686.45	341.20
686.79	340.08
687.13	338.97
687.46	337.87
687.80	336.84
688.14	335.57
688.48	334.41
688.81	333.26
689.15	332.11
689.49	331.00
689.82	330.09
690.16	329.00
690.50	328.07
690.83	326.90
691.17	325.83
691.51	325.05
691.84	324.04
692.18	322.94
692.52	321.85
692.85	320.84
693.19	319.98
693.52	318.85
693.86	317.88
694.20	316.89
694.53	315.98
694.87	315.04
695.21	314.01
695.54	313.13
695.88	312.18
696.21	311.16
696.55	310.36
696.88	309.24
697.22	308.36
697.56	307.47
697.89	306.75
698.23	305.88
698.56	304.96
698.90	304.10
699.23	303.28
699.57	302.46
699.90	301.61
700.24	300.62
700.58	300.00
700.91	299.15
701.25	298.47
701.58	297.72
701.92	297.05
702.25	296.46
702.59	295.77
702.92	295.10
703.26	294.50
703.59	293.74
703.93	293.11
704.26	292.47
704.60	291.84
704.93	291.14
705.26	290.52
705.60	289.97
705.93	289.25
706.27	288.79
706.60	288.30
706.94	287.76
707.27	287.11
707.61	286.27
707.94	285.81
708.27	285.10
708.61	284.41
708.94	283.74
709.28	283.22
709.61	282.65
709.94	282.15
710.28	281.58
710.61	281.00
710.95	280.37
711.28	279.87
711.61	279.22
711.95	278.73
712.28	278.20
712.61	277.62
712.95	277.16
713.28	276.55
713.61	276.02
713.95	275.36
714.28	274.90
714.61	274.52
714.95	273.93
715.28	273.43
715.61	272.96
715.95	272.49
716.28	271.98
716.61	271.53
716.95	270.95
717.28	270.42
717.61	269.91
717.94	269.48
718.28	268.93
718.61	268.46
718.94	267.98
719.27	267.50
719.61	267.06
719.94	266.62
720.27	266.07
720.60	265.61
720.94	265.20
721.27	264.91
721.60	264.60
721.93	264.19
722.27	263.90
722.60	263.54
722.93	263.10
723.26	262.69
723.59	262.27
723.93	261.94
724.26	261.61
724.59	261.35
724.92	261.02
725.25	260.80
725.59	260.46
725.92	260.26
726.25	259.91
726.58	259.68
726.91	259.41
727.24	259.22
727.57	258.88
727.91	258.65
728.24	258.37
728.57	257.92
728.90	257.72
729.23	257.32
729.56	257.19
729.89	256.92
730.22	256.60
730.55	256.35
730.89	256.07
731.22	255.87
731.55	255.50
731.88	255.18
732.21	254.81
732.54	254.64
732.87	254.23
733.20	254.01
733.53	253.66
733.86	253.41
734.19	253.07
734.52	252.88
734.85	252.63
735.18	252.28
735.51	252.13
735.84	251.79
736.17	251.56
736.50	251.10
736.83	251.14
737.16	250.98
737.49	250.67
737.82	250.46
738.15	250.19
738.48	249.99
738.81	249.86
739.14	249.62
739.47	249.34
739.80	249.25
740.13	249.03
740.46	248.83
740.79	248.55
741.12	248.37
741.45	248.09
741.78	247.94
742.11	247.86
742.44	247.60
742.77	247.51
743.10	247.27
743.43	247.13
743.75	246.74
744.08	246.68
744.41	246.56
744.74	246.28
745.07	246.05
745.40	245.82
745.73	245.66
746.06	245.43
746.39	245.23
746.71	244.89
747.04	244.74
747.37	244.48
747.70	244.39
748.03	244.16
748.36	244.10
748.68	243.83
749.01	243.56
749.34	243.35
749.67	243.12
750.00	243.00
750.33	242.92
750.65	242.83
750.98	242.45
751.31	242.24
751.64	242.12
751.97	242.12
752.29	242.07
752.62	241.85
752.95	241.80
753.28	241.56
753.60	241.44
753.93	241.14
754.26	241.01
754.59	240.80
754.91	240.68
755.24	240.49
755.57	240.37
755.90	240.27
756.22	240.23
756.55	240.09
756.88	239.88
757.20	239.64
757.53	239.43
757.86	239.39
758.19	239.28
758.51	239.21
758.84	238.90
759.17	238.72
759.49	238.62
759.82	238.58
760.15	238.50
760.47	238.39
760.80	238.39
761.13	238.42
761.45	238.25
761.78	238.17
762.11	237.96
762.43	237.88
762.76	237.64
763.08	237.47
763.41	237.31
763.74	237.26
764.06	237.16
764.39	236.96
764.71	236.88
765.04	236.79
765.37	236.70
765.69	236.61
766.02	236.50
766.34	236.40
766.67	236.20
767.00	236.23
767.32	236.16
767.65	236.18
767.97	236.03
768.30	235.99
768.62	235.86
768.95	235.78
769.27	235.59
769.60	235.63
769.92	235.68
770.25	235.78
770.57	235.68
770.90	235.58
771.22	235.47
771.55	235.39
771.87	235.34
772.20	235.18
772.52	235.30
772.85	235.47
773.17	235.40
773.50	235.36
773.82	235.35
774.15	235.36
774.47	235.10
774.80	235.02
775.12	234.95
775.45	234.92
775.77	234.97
776.09	235.01
776.42	234.98
776.74	234.88
777.07	234.74
777.39	234.76
777.72	234.73
778.04	234.76
778.36	234.64
778.69	234.52
779.01	234.49
779.33	234.30
779.66	233.98
779.98	233.81
780.31	233.76
780.63	233.76
780.95	233.72
781.28	233.69
781.60	233.62
781.92	233.60
782.25	233.57
782.57	233.47
782.89	233.43
783.22	233.41
783.54	233.33
783.86	233.26
784.19	233.13
784.51	233.18
784.83	233.19
785.16	233.12
785.48	233.07
785.80	233.04
786.12	232.99
786.45	232.90
786.77	233.01
787.09	232.97
787.42	232.76
787.74	232.70
788.06	232.61
788.38	232.58
788.71	232.60
789.03	232.56
789.35	232.59
789.67	232.52
789.99	232.34
790.32	232.23
790.64	232.17
790.96	232.31
791.28	232.14
791.61	232.04
791.93	231.92
792.25	231.89
792.57	232.01
792.89	231.91
793.21	231.94
793.54	231.84
793.86	231.72
794.18	231.66
794.50	231.63
794.82	231.66
795.14	231.53
795.47	231.41
795.79	231.33
796.11	231.19
796.43	231.05
796.75	231.10
797.07	231.10
797.39	231.09
797.71	230.84
798.04	230.85
798.36	230.76
798.68	230.75
799.00	230.73
799.32	230.62
799.64	230.60
799.96	230.58
800.28	230.53
800.60	230.56
800.92	230.63
801.24	230.53
801.56	230.51
801.89	230.56
802.21	230.50
802.53	230.50
802.85	230.48
803.17	230.60
803.49	230.54
803.81	230.56
804.13	230.48
804.45	230.53
804.77	230.52
805.09	230.53
805.41	230.61
805.73	230.62
806.05	230.53
806.37	230.65
806.69	230.54
807.01	230.49
807.33	230.43
807.65	230.24
807.97	230.24
808.28	230.16
808.60	230.19
808.92	230.20
809.24	230.30
809.56	230.33
809.88	230.28
810.20	230.30
810.52	230.39
810.84	230.35
811.16	230.37
811.48	230.34
811.80	230.36
812.12	230.31
812.43	230.24
812.75	230.20
813.07	230.15
813.39	230.23
813.71	230.31
814.03	230.26
814.35	230.28
814.67	230.29
814.98	230.31
815.30	230.21
815.62	230.10
815.94	230.04
816.26	230.05
816.58	230.04
816.89	229.96
817.21	229.80
817.53	229.84
817.85	229.81
818.17	229.77
818.48	229.70
818.80	229.69
819.12	229.72
819.44	229.73
819.76	229.69
820.07	229.70
820.39	229.64
820.71	229.74
821.03	229.75
821.34	229.70
821.66	229.76
821.98	229.87
822.30	229.84
822.61	229.93
822.93	229.82
823.25	229.72
823.57	229.72
823.88	229.74
824.20	229.67
824.52	229.60
824.83	229.58
825.15	229.63
825.47	229.64
825.79	229.60
826.10	229.58
826.42	229.49
826.74	229.45
827.05	229.38
827.37	229.38
827.69	229.40
828.00	229.42
828.32	229.41
828.64	229.36
828.95	229.59
829.27	229.43
829.58	229.44
829.90	229.39
830.22	229.41
830.53	229.30
830.85	229.25
831.17	229.19
831.48	229.29
831.80	229.14
832.11	229.16
832.43	229.11
832.75	229.02
833.06	229.15
833.38	229.01
833.69	229.09
834.01	229.11
834.32	229.03
834.64	228.99
834.96	229.00
835.27	228.96
835.59	228.75
835.90	228.79
836.22	228.74
836.53	228.78
836.85	228.74
837.16	229.01
837.48	229.01
837.79	229.15
838.11	229.08
838.42	229.20
838.74	229.17
839.05	229.16
839.37	229.20
839.68	229.02
840.00	229.09
840.31	229.12
840.63	228.98
840.94	228.97
841.26	228.92
841.57	228.80
841.88	228.73
842.20	228.70
842.51	228.67
842.83	228.60
843.14	228.77
843.46	228.80
843.77	228.64
844.08	228.71
844.40	228.60
844.71	228.54
845.03	228.39
845.34	228.40
845.65	228.53
845.97	228.54
846.28	228.64
846.60	228.65
846.91	228.52
847.22	228.60
847.54	228.70
847.85	228.75
848.16	228.77
848.48	228.74
848.79	228.82
849.10	228.84
849.42	228.95
849.73	228.85
850.04	228.86
850.36	228.83
850.67	228.85
850.98	228.92
851.30	229.01
851.61	229.20
851.92	229.16
852.23	229.20
852.55	229.29
852.86	229.25
853.17	229.26
853.49	229.38
853.80	229.45
854.11	229.46
854.42	229.50
854.74	229.52
855.05	229.61
855.36	229.51
855.67	229.48
855.99	229.45
856.30	229.69
856.61	229.76
856.92	229.82
857.23	229.84
857.55	229.84
857.86	229.77
858.17	229.73
858.48	229.69
858.79	229.60
859.11	229.62
859.42	229.67
859.73	229.71
860.04	229.65
860.35	229.64
860.66	229.55
860.98	229.65
861.29	229.60
861.60	229.60
861.91	229.72
862.22	229.76
862.53	229.83
862.84	229.53
863.16	229.50
863.47	229.44
863.78	229.35
864.09	229.27
864.40	229.34
864.71	229.33
865.02	229.31
865.33	229.24
865.64	229.08
865.95	229.12
866.27	229.28
866.58	229.37
866.89	229.27
867.20	229.33
867.51	229.21
867.82	229.27
868.13	229.29
868.44	229.25
868.75	229.29
869.06	229.30
869.37	229.33
869.68	229.20
869.99	229.19
870.30	229.23
870.61	229.28
870.92	229.18
871.23	229.16
871.54	229.32
871.85	229.41
872.16	229.46
872.47	229.38
872.78	229.22
873.09	229.11
873.40	229.04
873.71	229.01
874.02	228.98
874.33	228.95
874.64	228.84
874.95	228.70
875.26	228.63
875.56	228.47
875.87	228.43
876.18	228.46
876.49	228.66
876.80	228.62
877.11	228.58
877.42	228.60
877.73	228.50
878.04	228.30
878.35	228.27
878.66	228.23
878.96	228.18
879.27	228.18
879.58	228.20
879.89	228.22
880.20	228.18
880.51	228.11
880.82	228.11
881.12	228.17
881.43	228.21
881.74	228.06
882.05	228.16
882.36	228.19
882.67	228.15
882.97	227.88
883.28	227.79
883.59	227.73
883.90	227.71
884.21	227.73
884.51	227.81
884.82	227.69
885.13	227.76
885.44	227.70
885.74	227.59
886.05	227.57
886.36	227.57
886.67	227.55
886.98	227.69
887.28	227.68
887.59	227.69
887.90	227.68
888.20	227.86
888.51	227.80
888.82	227.76
889.13	227.85
889.43	228.05
889.74	228.10
890.05	228.07
890.35	228.04
890.66	228.11
890.97	228.04
891.28	228.10
891.58	228.07
891.89	228.15
892.20	228.23
892.50	228.16
892.81	228.22
893.12	228.23
893.42	228.15
893.73	228.19
894.04	228.20
894.34	228.21
894.65	228.20
894.95	228.24
895.26	228.28
895.57	228.28
895.87	228.16
896.18	228.30
896.48	228.40
896.79	228.38
897.10	228.44
897.40	228.46
897.71	228.46
898.01	228.46
898.32	228.54
898.63	228.50
898.93	228.62
899.24	228.58
899.54	228.60
899.85	228.60
900.15	228.60
900.46	228.65
900.76	228.70
901.07	228.70
901.38	228.77
901.68	228.83
901.99	228.87
902.29	228.85
902.60	228.70
902.90	228.80
903.21	228.81
903.51	228.81
903.82	228.95
904.12	228.99
904.43	228.90
904.73	228.84
905.03	228.90
905.34	229.05
905.64	229.03
905.95	229.08
906.25	229.12
906.56	229.11
906.86	229.09
907.17	229.06
907.47	229.06
907.77	229.10
908.08	229.06
908.38	229.07
908.69	229.06
908.99	229.16
909.30	229.11
909.60	229.22
909.90	229.24
910.21	229.09
910.51	229.24
910.81	229.37
911.12	229.29
911.42	229.30
911.73	229.12
912.03	229.11
912.33	229.05
912.64	228.98
912.94	228.91
913.24	228.91
913.55	228.84
913.85	228.80
914.15	228.77
914.46	228.67
914.76	228.61
915.06	228.57
915.37	228.54
915.67	228.50
915.97	228.40
916.27	228.23
916.58	228.30
916.88	228.11
917.18	228.05
917.49	228.27
917.79	228.24
918.09	228.30
918.39	228.30
918.70	228.35
919.00	228.38
919.30	228.43
919.60	228.33
919.91	228.35
920.21	228.30
920.51	228.23
920.81	228.29
921.12	228.31
921.42	228.30
921.72	228.26
922.02	228.20
922.32	228.21
922.63	228.24
922.93	228.31
923.23	228.39
923.53	228.34
923.83	228.20
924.13	228.14
924.44	228.08
924.74	228.14
925.04	228.18
925.34	228.21
925.64	228.22
925.94	228.22
926.24	228.38
926.55	228.28
926.85	228.35
927.15	228.27
927.45	228.23
927.75	228.24
928.05	228.35
928.35	228.45
928.65	228.51
928.95	228.50
929.26	228.36
929.56	228.36
929.86	228.34
930.16	228.33
930.46	228.37
930.76	228.37
931.06	228.29
931.36	228.25
931.66	228.20
931.96	228.18
932.26	228.18
932.56	228.14
932.86	228.21
933.16	228.13
933.46	228.20
933.76	228.15
934.06	228.19
934.36	228.28
934.66	228.22
934.96	228.29
935.26	228.31
935.56	228.35
935.86	228.20
936.16	228.31
936.46	228.25
936.76	228.28
937.06	228.32
937.36	228.39
937.66	228.37
937.96	228.41
938.26	228.45
938.56	228.45
938.86	228.44
939.16	228.63
939.46	228.71
939.76	228.69
940.06	228.76
940.35	228.75
940.65	228.60
940.95	228.62
941.25	228.43
941.55	228.52
941.85	228.58
942.15	228.84
942.45	228.90
942.75	228.91
943.04	228.89
943.34	228.80
943.64	228.72
943.94	228.80
944.24	228.83
944.54	228.79
944.84	228.78
945.13	228.79
945.43	228.62
945.73	228.57
946.03	228.51
946.33	228.37
946.62	228.43
946.92	228.35
947.22	228.31
947.52	228.44
947.82	228.44
948.11	228.42
948.41	228.29
948.71	228.15
949.01	228.16
949.31	228.15
949.60	228.09
949.90	228.07
950.20	228.08
950.50	227.93
950.79	228.08
951.09	228.08
951.39	228.08
951.69	228.06
951.98	228.03
952.28	228.18
952.58	228.25
952.87	228.16
953.17	228.23
953.47	228.30
953.76	228.31
954.06	228.31
954.36	228.28
954.66	228.17
954.95	228.34
955.25	228.41
955.55	228.48
955.84	228.55
956.14	228.70
956.44	228.62
956.73	228.68
957.03	228.49
957.32	228.56
957.62	228.41
957.92	228.51
958.21	228.63
958.51	228.82
958.81	228.82
959.10	228.86
959.40	228.89
959.69	228.94
959.99	228.93
960.29	228.81
960.58	228.79
960.88	229.00
961.17	228.86
961.47	228.89
961.76	228.84
962.06	228.88
962.36	228.88
962.65	228.86
962.95	228.90
963.24	229.00
963.54	228.94
963.83	229.08
964.13	229.03
964.42	228.94
964.72	228.77
965.01	228.85
965.31	228.81
965.60	228.80
965.90	228.78
966.19	228.75
966.49	228.83
966.78	228.73
967.08	228.69
967.37	228.76
967.67	228.61
967.96	228.62
968.26	228.57
968.55	228.47
968.85	228.42
969.14	228.40
969.43	228.38
969.73	228.36
970.02	228.28
970.32	228.29
970.61	228.29
970.91	228.20
971.20	228.13
971.49	228.22
971.79	228.18
972.08	228.06
972.38	228.00
972.67	227.97
972.96	228.11
973.26	228.01
973.55	227.98
973.85	228.08
974.14	228.06
974.43	228.07
974.73	228.13
975.02	228.17
975.31	228.21
975.61	228.11
975.90	228.12
976.19	228.16
976.49	228.20
976.78	228.18
977.07	228.23
977.37	228.27
977.66	228.25
977.95	228.25
978.24	228.24
978.54	228.36
978.83	228.28
979.12	228.28
979.42	228.34
979.71	228.44
980.00	228.32
980.29	228.31
980.59	228.42
980.88	228.42
981.17	228.40
981.46	228.50
981.76	228.51
982.05	228.56
982.34	228.59
982.63	228.56
982.93	228.56
983.22	228.58
983.51	228.55
983.80	228.44
984.09	228.41
984.39	228.38
984.68	228.35
984.97	228.47
985.26	228.37
985.55	228.30
985.85	228.15
986.14	228.20
986.43	228.25
986.72	228.19
987.01	228.11
987.30	228.05
987.59	227.84
987.89	227.91
988.18	227.89
988.47	227.81
988.76	227.75
989.05	227.69
989.34	227.65
989.63	227.73
989.92	227.79
990.22	227.74
990.51	227.87
990.80	227.85
991.09	227.88
991.38	227.96
991.67	227.95
991.96	227.95
992.25	228.04
992.54	228.07
992.83	228.08
993.12	228.07
993.41	228.13
993.70	228.36
993.99	228.25
994.28	228.18
994.58	228.25
994.87	228.32
995.16	228.33
995.45	228.26
995.74	228.21
996.03	228.28
996.32	228.33
996.61	228.39
996.90	228.29
997.19	228.13
997.48	228.02
997.77	227.97
998.06	228.00
998.34	227.87
998.63	227.88
998.92	227.84
999.21	227.91
999.50	227.96
999.79	227.84
1000.08	227.91
1000.37	227.99
1000.66	227.92
1000.95	227.96
1001.24	227.99
1001.53	228.11
1001.82	228.16
1002.11	228.11
1002.40	228.11
1002.68	227.97
1002.97	228.22
1003.26	228.26
1003.55	228.32
1003.84	228.41
1004.13	228.49
1004.42	228.59
1004.71	228.50
1004.99	228.55
1005.28	228.55
1005.57	228.50
1005.86	228.46
1006.15	228.45
1006.44	228.48
1006.72	228.54
1007.01	228.45
1007.30	228.49
1007.59	228.42
1007.88	228.29
1008.17	228.19
1008.45	228.17
1008.74	228.08
1009.03	228.06
1009.32	228.15
1009.60	228.20
1009.89	228.25
1010.18	228.14
1010.47	228.17
1010.76	228.25
1011.04	228.20
1011.33	228.14
1011.62	228.15
1011.91	228.11
1012.19	228.03
1012.48	228.02
1012.77	227.92
1013.05	228.07
1013.34	228.08
1013.63	228.06
1013.92	228.04
1014.20	228.10
1014.49	228.10
1014.78	228.20
1015.06	228.07
1015.35	228.04
1015.64	228.11
1015.92	228.13
1016.21	228.17
1016.50	228.17
1016.78	228.09
1017.07	228.13
1017.36	228.13
1017.64	228.27
1017.93	228.27
1018.22	228.37
1018.50	228.26
1018.79	228.39
1019.08	228.27
1019.36	228.19
1019.65	228.18
1019.93	228.26
1020.22	228.37
1020.51	228.46
1020.79	228.50
1021.08	227.70
1021.36	225.80
1021.65	229.30
1021.94	228.40
1022.22	226.90
1022.51	228.00
1022.79	227.90
1023.08	229.50
1023.36	229.50
1023.65	228.80
>>>>>End Processed Spectral Data<<<<<
