SpectraSuite Data File
++++++++++++++++++++++++++++++++++++
Date: Fri Feb 01 14:41:41 EST 2013
User: group
Dark Spectrum Present: No
Reference Spectrum Present: No
Number of Sampled Component Spectra: 1
Spectrometers: USB2E7196
Integration Time (usec): 70000 (USB2E7196)
Spectra Averaged: 10 (USB2E7196)
Boxcar Smoothing: 10 (USB2E7196)
Correct for Electrical Dark: No (USB2E7196)
Strobe/Lamp Enabled: No (USB2E7196)
Correct for Detector Non-linearity: No (USB2E7196)
Correct for Stray Light: No (USB2E7196)
Number of Pixels in Processed Spectrum: 2048
>>>>>Begin Processed Spectral Data<<<<<
339.09	0.00
339.48	214.60
339.86	217.30
340.24	218.70
340.63	221.60
341.01	225.60
341.39	222.60
341.78	224.60
342.16	227.90
342.54	226.30
342.93	215.05
343.31	225.86
343.69	226.51
344.07	226.98
344.46	227.48
344.84	227.83
345.22	228.01
345.60	228.30
345.99	228.52
346.37	228.56
346.75	228.67
347.13	228.77
347.52	228.82
347.90	228.89
348.28	228.85
348.66	229.01
349.05	228.94
349.43	228.95
349.81	229.01
350.19	229.10
350.57	229.14
350.96	229.29
351.34	229.44
351.72	229.55
352.10	229.73
352.48	229.73
352.87	229.80
353.25	229.82
353.63	229.90
354.01	230.06
354.39	230.19
354.77	230.23
355.15	230.29
355.54	230.28
355.92	230.25
356.30	230.40
356.68	230.52
357.06	230.62
357.44	230.63
357.82	230.70
358.20	230.80
358.58	230.87
358.97	230.89
359.35	230.98
359.73	231.02
360.11	230.96
360.49	231.07
360.87	231.06
361.25	231.05
361.63	231.06
362.01	230.97
362.39	230.94
362.77	231.04
363.15	231.16
363.53	231.18
363.91	231.29
364.29	231.26
364.67	230.99
365.05	230.95
365.43	230.93
365.81	230.91
366.19	230.85
366.57	230.80
366.95	230.70
367.33	230.64
367.71	230.67
368.09	230.68
368.47	230.66
368.85	230.59
369.23	230.67
369.61	230.61
369.99	230.67
370.37	230.66
370.75	230.62
371.13	230.43
371.51	230.34
371.89	230.28
372.27	230.10
372.65	230.10
373.03	230.08
373.41	230.00
373.78	229.99
374.16	229.92
374.54	229.75
374.92	229.73
375.30	229.61
375.68	229.44
376.06	229.40
376.44	229.20
376.82	229.22
377.19	229.10
377.57	229.05
377.95	228.86
378.33	228.74
378.71	228.54
379.09	228.57
379.47	228.62
379.84	228.46
380.22	228.42
380.60	228.39
380.98	228.30
381.36	228.28
381.73	228.12
382.11	228.07
382.49	228.13
382.87	228.07
383.25	228.06
383.62	228.22
384.00	228.10
384.38	228.22
384.76	228.16
385.13	228.21
385.51	228.17
385.89	228.12
386.27	228.13
386.64	228.22
387.02	228.13
387.40	228.05
387.78	228.18
388.15	228.31
388.53	228.30
388.91	228.24
389.29	228.25
389.66	228.32
390.04	228.35
390.42	228.29
390.79	228.28
391.17	228.28
391.55	228.14
391.92	228.22
392.30	228.18
392.68	228.14
393.05	228.13
393.43	228.22
393.81	228.23
394.18	228.29
394.56	228.31
394.94	228.43
395.31	228.34
395.69	228.43
396.06	228.51
396.44	228.55
396.82	228.59
397.19	228.73
397.57	228.85
397.95	228.95
398.32	229.10
398.70	229.23
399.07	229.27
399.45	229.32
399.82	229.38
400.20	229.35
400.58	229.49
400.95	229.53
401.33	229.57
401.70	229.98
402.08	230.04
402.45	230.22
402.83	230.30
403.20	230.51
403.58	230.58
403.95	230.70
404.33	230.82
404.71	231.03
405.08	231.39
405.46	231.46
405.83	231.60
406.21	231.73
406.58	232.01
406.96	232.30
407.33	232.48
407.70	232.80
408.08	233.31
408.45	233.71
408.83	233.98
409.20	234.29
409.58	234.42
409.95	234.75
410.33	235.04
410.70	235.41
411.08	235.88
411.45	236.18
411.82	236.50
412.20	236.99
412.57	237.56
412.95	237.77
413.32	238.36
413.69	238.89
414.07	239.57
414.44	240.09
414.82	240.72
415.19	241.45
415.56	242.05
415.94	242.71
416.31	243.40
416.68	244.22
417.06	245.20
417.43	246.01
417.81	247.04
418.18	248.04
418.55	249.11
418.93	250.20
419.30	251.44
419.67	252.73
420.04	254.00
420.42	255.36
420.79	257.01
421.16	258.41
421.54	260.07
421.91	261.60
422.28	263.26
422.66	265.10
423.03	266.90
423.40	268.80
423.77	270.73
424.15	272.77
424.52	274.81
424.89	276.92
425.26	279.06
425.64	281.04
426.01	283.30
426.38	285.59
426.75	287.89
427.13	290.35
427.50	292.81
427.87	295.45
428.24	297.90
428.61	300.26
428.99	303.06
429.36	305.95
429.73	308.78
430.10	311.60
430.47	314.32
430.85	317.13
431.22	320.17
431.59	323.45
431.96	326.40
432.33	329.82
432.70	333.17
433.08	337.02
433.45	340.57
433.82	344.00
434.19	348.00
434.56	351.80
434.93	355.31
435.30	358.88
435.68	362.78
436.05	366.56
436.42	370.29
436.79	373.53
437.16	377.08
437.53	380.86
437.90	384.62
438.27	388.33
438.64	392.25
439.01	395.76
439.38	398.81
439.75	401.96
440.13	405.26
440.50	408.29
440.87	410.80
441.24	413.38
441.61	416.34
441.98	418.19
442.35	420.67
442.72	423.00
443.09	425.58
443.46	426.78
443.83	427.69
444.20	428.37
444.57	429.54
444.94	429.81
445.31	430.20
445.68	430.74
446.05	430.82
446.42	430.26
446.79	429.67
447.16	429.01
447.53	428.38
447.90	426.82
448.27	425.24
448.64	422.88
449.01	421.30
449.37	418.49
449.74	415.96
450.11	412.92
450.48	409.64
450.85	405.90
451.22	403.01
451.59	400.26
451.96	397.65
452.33	394.07
452.70	390.84
453.07	387.03
453.43	382.97
453.80	379.21
454.17	375.48
454.54	372.03
454.91	368.26
455.28	364.51
455.65	360.99
456.02	357.77
456.38	354.96
456.75	351.33
457.12	348.40
457.49	345.33
457.86	342.43
458.23	339.88
458.59	337.25
458.96	334.41
459.33	331.80
459.70	329.20
460.07	327.03
460.43	324.76
460.80	322.56
461.17	320.55
461.54	318.34
461.91	316.37
462.27	314.39
462.64	312.72
463.01	311.00
463.38	309.35
463.74	307.35
464.11	305.69
464.48	304.27
464.85	302.72
465.21	301.56
465.58	300.09
465.95	298.69
466.32	297.42
466.68	296.09
467.05	294.85
467.42	293.67
467.78	292.53
468.15	291.29
468.52	290.26
468.88	289.04
469.25	288.20
469.62	287.31
469.98	286.24
470.35	285.20
470.72	284.25
471.08	283.27
471.45	282.49
471.82	281.77
472.18	281.03
472.55	280.34
472.92	279.65
473.28	279.11
473.65	278.45
474.02	277.68
474.38	277.24
474.75	276.75
475.11	276.17
475.48	275.68
475.85	275.32
476.21	274.95
476.58	274.70
476.94	274.27
477.31	274.03
477.67	273.74
478.04	273.60
478.41	273.45
478.77	273.47
479.14	273.29
479.50	273.19
479.87	273.08
480.23	273.10
480.60	272.87
480.96	272.82
481.33	272.85
481.69	272.94
482.06	273.00
482.42	273.12
482.79	273.24
483.15	273.48
483.52	273.86
483.88	274.13
484.25	274.31
484.61	274.71
484.98	275.07
485.34	275.63
485.71	276.06
486.07	276.64
486.44	277.05
486.80	277.67
487.17	278.34
487.53	279.16
487.90	279.94
488.26	280.90
488.62	281.79
488.99	282.78
489.35	283.88
489.72	285.00
490.08	286.19
490.44	287.46
490.81	288.83
491.17	290.16
491.54	291.75
491.90	293.44
492.26	295.15
492.63	297.00
492.99	298.86
493.36	300.90
493.72	303.04
494.08	305.33
494.45	307.84
494.81	310.39
495.17	313.02
495.54	315.59
495.90	318.53
496.26	321.64
496.63	324.92
496.99	328.42
497.35	332.13
497.72	335.93
498.08	339.97
498.44	344.11
498.80	348.60
499.17	353.11
499.53	357.81
499.89	362.68
500.26	367.73
500.62	372.91
500.98	378.42
501.34	384.19
501.71	390.24
502.07	396.32
502.43	402.57
502.79	409.32
503.16	416.41
503.52	423.53
503.88	430.98
504.24	438.91
504.60	446.84
504.97	455.00
505.33	463.33
505.69	472.25
506.05	481.35
506.41	490.63
506.78	500.30
507.14	510.27
507.50	520.59
507.86	531.16
508.22	542.24
508.59	553.29
508.95	564.96
509.31	576.97
509.67	589.37
510.03	601.95
510.39	614.70
510.75	627.87
511.12	641.23
511.48	654.89
511.84	668.57
512.20	682.64
512.56	697.52
512.92	712.72
513.28	728.00
513.64	743.54
514.00	759.34
514.37	775.50
514.73	791.81
515.09	808.21
515.45	824.93
515.81	842.00
516.17	859.72
516.53	877.43
516.89	895.16
517.25	913.12
517.61	931.43
517.97	949.52
518.33	967.75
518.69	987.07
519.05	1006.50
519.41	1025.87
519.77	1046.26
520.13	1066.04
520.49	1085.90
520.85	1105.90
521.21	1126.28
521.57	1147.06
521.93	1167.31
522.29	1188.61
522.65	1209.67
523.01	1230.74
523.37	1251.62
523.73	1272.90
524.09	1294.18
524.45	1315.42
524.81	1337.12
525.17	1359.53
525.53	1381.87
525.89	1404.25
526.25	1426.09
526.61	1447.52
526.97	1469.71
527.33	1491.26
527.68	1513.50
528.04	1535.31
528.40	1557.38
528.76	1579.68
529.12	1602.34
529.48	1625.27
529.84	1647.02
530.20	1669.57
530.56	1692.59
530.91	1715.95
531.27	1738.64
531.63	1760.93
531.99	1783.23
532.35	1805.02
532.71	1826.21
533.07	1848.23
533.42	1869.90
533.78	1891.73
534.14	1913.95
534.50	1934.88
534.86	1956.35
535.21	1976.92
535.57	1998.82
535.93	2020.03
536.29	2041.10
536.65	2061.30
537.00	2081.61
537.36	2102.28
537.72	2122.28
538.08	2141.72
538.44	2160.47
538.79	2179.55
539.15	2198.42
539.51	2217.88
539.87	2237.32
540.22	2256.89
540.58	2276.11
540.94	2295.12
541.29	2312.68
541.65	2330.24
542.01	2349.58
542.37	2367.54
542.72	2385.50
543.08	2402.32
543.44	2419.71
543.79	2435.28
544.15	2451.60
544.51	2468.32
544.87	2484.68
545.22	2500.69
545.58	2515.80
545.94	2530.50
546.29	2545.22
546.65	2559.77
547.01	2573.68
547.36	2587.49
547.72	2600.24
548.07	2612.99
548.43	2625.91
548.79	2638.94
549.14	2650.78
549.50	2661.90
549.86	2672.90
550.21	2684.01
550.57	2695.48
550.92	2706.30
551.28	2717.28
551.64	2727.70
551.99	2737.61
552.35	2747.09
552.70	2756.66
553.06	2766.78
553.41	2776.88
553.77	2786.22
554.13	2795.53
554.48	2804.84
554.84	2813.53
555.19	2822.38
555.55	2830.59
555.90	2837.95
556.26	2846.17
556.61	2854.39
556.97	2861.19
557.32	2868.48
557.68	2875.64
558.03	2882.28
558.39	2889.19
558.74	2896.95
559.10	2904.00
559.45	2910.32
559.81	2917.39
560.16	2922.82
560.52	2928.50
560.87	2934.50
561.23	2939.31
561.58	2944.54
561.94	2949.32
562.29	2953.47
562.64	2957.42
563.00	2961.52
563.35	2966.36
563.71	2971.25
564.06	2976.14
564.42	2980.81
564.77	2985.16
565.12	2989.90
565.48	2993.85
565.83	2996.12
566.19	2999.15
566.54	3001.51
566.89	3003.50
567.25	3005.17
567.60	3008.73
567.96	3010.22
568.31	3011.44
568.66	3012.84
569.02	3014.30
569.37	3014.62
569.72	3015.93
570.08	3016.32
570.43	3017.02
570.78	3016.85
571.14	3015.19
571.49	3013.96
571.84	3014.42
572.20	3013.20
572.55	3010.72
572.90	3008.87
573.26	3007.49
573.61	3005.18
573.96	3002.48
574.31	2999.36
574.67	2995.81
575.02	2991.57
575.37	2988.87
575.72	2984.39
576.08	2980.92
576.43	2976.74
576.78	2973.46
577.13	2969.75
577.49	2966.28
577.84	2961.37
578.19	2956.50
578.54	2951.73
578.90	2946.42
579.25	2938.75
579.60	2932.88
579.95	2926.68
580.30	2920.39
580.66	2913.95
581.01	2906.27
581.36	2900.18
581.71	2895.23
582.06	2888.40
582.42	2881.32
582.77	2874.19
583.12	2867.94
583.47	2861.43
583.82	2855.02
584.17	2847.58
584.53	2840.70
584.88	2834.07
585.23	2827.38
585.58	2820.20
585.93	2813.11
586.28	2806.95
586.63	2801.12
586.98	2794.73
587.34	2788.02
587.69	2780.45
588.04	2773.50
588.39	2767.89
588.74	2759.24
589.09	2750.01
589.44	2741.90
589.79	2734.47
590.14	2727.70
590.49	2720.18
590.84	2712.07
591.19	2703.71
591.54	2694.40
591.89	2683.80
592.25	2674.62
592.60	2664.57
592.95	2655.31
593.30	2645.86
593.65	2635.60
594.00	2625.82
594.35	2616.13
594.70	2606.51
595.05	2597.40
595.40	2587.49
595.75	2576.91
596.10	2568.70
596.45	2560.39
596.80	2553.09
597.15	2544.78
597.50	2534.73
597.85	2525.60
598.19	2517.30
598.54	2508.58
598.89	2500.63
599.24	2493.56
599.59	2484.45
599.94	2476.88
600.29	2468.62
600.64	2460.26
600.99	2450.67
601.34	2442.12
601.69	2432.76
602.04	2423.90
602.39	2414.93
602.74	2406.61
603.08	2398.58
603.43	2389.77
603.78	2381.18
604.13	2371.22
604.48	2361.36
604.83	2352.40
605.18	2343.49
605.53	2332.99
605.87	2322.12
606.22	2312.52
606.57	2301.72
606.92	2292.45
607.27	2282.88
607.62	2273.55
607.96	2264.34
608.31	2255.86
608.66	2245.28
609.01	2235.05
609.36	2224.30
609.70	2213.21
610.05	2202.12
610.40	2190.77
610.75	2179.67
611.10	2167.90
611.44	2156.12
611.79	2145.86
612.14	2134.52
612.49	2122.30
612.83	2111.01
613.18	2100.44
613.53	2089.38
613.88	2078.35
614.22	2066.78
614.57	2054.74
614.92	2043.05
615.27	2031.73
615.61	2019.90
615.96	2009.23
616.31	1999.27
616.65	1989.79
617.00	1979.99
617.35	1969.72
617.70	1959.11
618.04	1948.08
618.39	1937.64
618.74	1927.91
619.08	1916.31
619.43	1906.02
619.78	1896.67
620.12	1886.48
620.47	1876.41
620.82	1865.99
621.16	1855.87
621.51	1846.04
621.85	1836.05
622.20	1825.40
622.55	1815.17
622.89	1805.52
623.24	1796.18
623.59	1786.02
623.93	1775.64
624.28	1765.72
624.62	1755.70
624.97	1746.25
625.32	1736.90
625.66	1727.76
626.01	1718.25
626.35	1708.93
626.70	1698.98
627.04	1688.97
627.39	1679.07
627.73	1669.04
628.08	1659.18
628.43	1649.34
628.77	1639.32
629.12	1628.92
629.46	1619.39
629.81	1608.67
630.15	1598.35
630.50	1587.78
630.84	1576.82
631.19	1566.19
631.53	1555.95
631.88	1545.57
632.22	1534.84
632.57	1525.16
632.91	1514.71
633.26	1504.30
633.60	1493.93
633.95	1483.80
634.29	1473.85
634.64	1464.85
634.98	1455.30
635.32	1446.22
635.67	1437.55
636.01	1428.47
636.36	1419.58
636.70	1410.56
637.05	1402.17
637.39	1393.55
637.73	1384.61
638.08	1377.00
638.42	1369.13
638.77	1360.49
639.11	1352.03
639.45	1343.71
639.80	1334.49
640.14	1325.90
640.49	1317.63
640.83	1308.98
641.17	1300.86
641.52	1292.61
641.86	1283.63
642.20	1275.00
642.55	1266.14
642.89	1257.14
643.23	1248.24
643.58	1240.32
643.92	1231.46
644.26	1222.65
644.61	1214.36
644.95	1206.06
645.29	1196.53
645.64	1187.25
645.98	1179.11
646.32	1170.86
646.66	1162.65
647.01	1154.54
647.35	1146.40
647.69	1138.01
648.04	1130.54
648.38	1122.03
648.72	1113.26
649.06	1104.80
649.41	1096.83
649.75	1088.30
650.09	1079.70
650.43	1071.32
650.78	1062.47
651.12	1054.40
651.46	1046.63
651.80	1038.40
652.14	1030.54
652.49	1023.19
652.83	1015.68
653.17	1007.40
653.51	999.38
653.85	991.42
654.20	983.67
654.54	975.61
654.88	967.71
655.22	959.36
655.56	951.67
655.90	944.27
656.25	937.03
656.59	929.42
656.93	922.46
657.27	915.69
657.61	908.32
657.95	901.61
658.29	894.55
658.64	887.26
658.98	879.93
659.32	872.41
659.66	865.34
660.00	858.35
660.34	851.49
660.68	844.69
661.02	837.96
661.36	831.47
661.70	825.20
662.05	819.12
662.39	813.27
662.73	807.26
663.07	801.32
663.41	795.28
663.75	789.15
664.09	783.22
664.43	777.20
664.77	771.84
665.11	766.19
665.45	760.72
665.79	755.35
666.13	750.06
666.47	744.48
666.81	738.64
667.15	732.78
667.49	727.65
667.83	722.54
668.17	717.05
668.51	711.49
668.85	706.05
669.19	700.84
669.53	695.54
669.87	690.10
670.21	685.03
670.55	680.10
670.89	675.63
671.23	670.66
671.57	665.65
671.91	660.82
672.25	656.08
672.58	651.37
672.92	646.72
673.26	642.34
673.60	638.09
673.94	633.93
674.28	630.04
674.62	625.90
674.96	621.51
675.30	617.67
675.64	613.76
675.97	609.74
676.31	605.63
676.65	601.70
676.99	598.17
677.33	593.98
677.67	589.95
678.01	585.79
678.34	581.88
678.68	578.34
679.02	574.50
679.36	570.69
679.70	567.03
680.04	563.18
680.37	559.26
680.71	555.65
681.05	552.19
681.39	548.72
681.73	545.11
682.06	542.01
682.40	538.71
682.74	535.31
683.08	532.01
683.42	528.50
683.75	525.21
684.09	521.71
684.43	518.56
684.77	515.44
685.10	512.31
685.44	509.20
685.78	506.14
686.12	503.06
686.45	500.05
686.79	496.81
687.13	493.97
687.46	490.96
687.80	487.95
688.14	484.77
688.48	481.84
688.81	478.60
689.15	475.45
689.49	472.49
689.82	469.63
690.16	466.70
690.50	464.10
690.83	461.28
691.17	458.45
691.51	455.78
691.84	453.27
692.18	450.41
692.52	447.80
692.85	445.03
693.19	442.28
693.52	439.46
693.86	436.96
694.20	434.14
694.53	431.54
694.87	429.07
695.21	426.57
695.54	424.09
695.88	421.84
696.21	419.43
696.55	417.00
696.88	414.51
697.22	412.34
697.56	410.11
697.89	407.76
698.23	405.56
698.56	403.44
698.90	401.02
699.23	398.88
699.57	396.59
699.90	394.56
700.24	392.41
700.58	390.19
700.91	388.15
701.25	386.41
701.58	384.68
701.92	382.78
702.25	380.92
702.59	378.93
702.92	377.06
703.26	375.16
703.59	373.20
703.93	371.66
704.26	369.84
704.60	367.87
704.93	366.22
705.26	364.44
705.60	362.74
705.93	361.11
706.27	359.55
706.60	358.14
706.94	356.59
707.27	355.09
707.61	353.80
707.94	352.19
708.27	350.55
708.61	348.88
708.94	347.42
709.28	345.95
709.61	344.62
709.94	343.24
710.28	341.99
710.61	340.66
710.95	339.20
711.28	337.95
711.61	336.69
711.95	335.42
712.28	334.12
712.61	332.80
712.95	331.69
713.28	330.45
713.61	329.10
713.95	327.83
714.28	326.58
714.61	325.35
714.95	324.38
715.28	323.19
715.61	322.00
715.95	320.88
716.28	319.82
716.61	318.80
716.95	317.67
717.28	316.47
717.61	315.53
717.94	314.47
718.28	313.34
718.61	312.28
718.94	311.32
719.27	310.40
719.61	309.46
719.94	308.35
720.27	307.41
720.60	306.57
720.94	305.62
721.27	304.80
721.60	303.87
721.93	303.06
722.27	302.33
722.60	301.62
722.93	300.78
723.26	299.94
723.59	299.04
723.93	298.20
724.26	297.48
724.59	296.61
724.92	295.76
725.25	295.00
725.59	294.28
725.92	293.52
726.25	292.72
726.58	291.99
726.91	291.47
727.24	290.74
727.57	290.10
727.91	289.30
728.24	288.76
728.57	288.12
728.90	287.38
729.23	286.58
729.56	286.01
729.89	285.28
730.22	284.76
730.55	284.23
730.89	283.78
731.22	283.18
731.55	282.60
731.88	282.13
732.21	281.54
732.54	280.92
732.87	280.34
733.20	279.80
733.53	279.27
733.86	278.47
734.19	277.82
734.52	277.10
734.85	276.79
735.18	276.19
735.51	275.70
735.84	275.09
736.17	274.70
736.50	273.98
736.83	273.69
737.16	273.09
737.49	272.47
737.82	271.77
738.15	271.36
738.48	270.80
738.81	270.21
739.14	269.80
739.47	269.43
739.80	268.89
740.13	268.40
740.46	267.84
740.79	267.53
741.12	267.23
741.45	266.86
741.78	266.31
742.11	265.83
742.44	265.32
742.77	264.93
743.10	264.42
743.43	264.07
743.75	263.52
744.08	263.35
744.41	263.02
744.74	262.65
745.07	262.21
745.40	261.88
745.73	261.59
746.06	261.06
746.39	260.65
746.71	260.24
747.04	259.87
747.37	259.40
747.70	259.03
748.03	258.72
748.36	258.46
748.68	258.08
749.01	257.70
749.34	257.43
749.67	257.01
750.00	256.61
750.33	256.41
750.65	256.10
750.98	255.43
751.31	254.98
751.64	254.68
751.97	254.40
752.29	254.14
752.62	253.63
752.95	253.35
753.28	252.98
753.60	252.69
753.93	252.49
754.26	252.31
754.59	251.99
754.91	251.60
755.24	251.22
755.57	250.97
755.90	250.78
756.22	250.38
756.55	250.15
756.88	249.93
757.20	249.50
757.53	249.23
757.86	249.00
758.19	248.85
758.51	248.73
758.84	248.40
759.17	248.06
759.49	247.94
759.82	247.80
760.15	247.67
760.47	247.38
760.80	247.11
761.13	246.85
761.45	246.69
761.78	246.40
762.11	246.23
762.43	245.90
762.76	245.57
763.08	245.49
763.41	245.31
763.74	245.14
764.06	244.89
764.39	244.61
764.71	244.51
765.04	244.20
765.37	243.86
765.69	243.70
766.02	243.57
766.34	243.26
766.67	243.01
767.00	242.89
767.32	242.89
767.65	242.89
767.97	242.72
768.30	242.45
768.62	242.33
768.95	242.10
769.27	242.06
769.60	241.99
769.92	241.76
770.25	241.57
770.57	241.31
770.90	241.28
771.22	241.03
771.55	240.82
771.87	240.75
772.20	240.64
772.52	240.58
772.85	240.70
773.17	240.59
773.50	240.38
773.82	240.13
774.15	239.85
774.47	239.51
774.80	239.37
775.12	239.24
775.45	239.01
775.77	238.96
776.09	238.75
776.42	238.68
776.74	238.48
777.07	238.37
777.39	238.32
777.72	238.19
778.04	238.18
778.36	238.07
778.69	237.93
779.01	237.87
779.33	237.68
779.66	237.20
779.98	237.10
780.31	237.06
780.63	237.02
780.95	236.93
781.28	236.78
781.60	236.64
781.92	236.55
782.25	236.57
782.57	236.40
782.89	236.28
783.22	236.16
783.54	236.12
783.86	236.04
784.19	235.92
784.51	235.88
784.83	235.79
785.16	235.70
785.48	235.63
785.80	235.53
786.12	235.36
786.45	235.43
786.77	235.43
787.09	235.32
787.42	235.14
787.74	235.08
788.06	235.01
788.38	234.96
788.71	234.86
789.03	234.74
789.35	234.68
789.67	234.63
789.99	234.51
790.32	234.37
790.64	234.29
790.96	234.39
791.28	234.26
791.61	234.13
791.93	234.14
792.25	234.11
792.57	234.23
792.89	234.20
793.21	234.08
793.54	233.90
793.86	233.79
794.18	233.87
794.50	233.94
794.82	233.87
795.14	233.88
795.47	233.90
795.79	233.89
796.11	233.88
796.43	233.84
796.75	233.83
797.07	233.82
797.39	233.87
797.71	233.66
798.04	233.59
798.36	233.63
798.68	233.55
799.00	233.56
799.32	233.39
799.64	233.41
799.96	233.48
800.28	233.61
800.60	233.62
800.92	233.52
801.24	233.42
801.56	233.56
801.89	233.58
802.21	233.60
802.53	233.50
802.85	233.46
803.17	233.53
803.49	233.47
803.81	233.47
804.13	233.38
804.45	233.41
804.77	233.43
805.09	233.30
805.41	233.21
805.73	233.09
806.05	232.95
806.37	232.94
806.69	232.83
807.01	232.76
807.33	232.74
807.65	232.62
807.97	232.70
808.28	232.60
808.60	232.47
808.92	232.29
809.24	232.43
809.56	232.39
809.88	232.19
810.20	232.14
810.52	232.14
810.84	231.94
811.16	231.88
811.48	231.85
811.80	231.93
812.12	231.85
812.43	231.86
812.75	231.90
813.07	231.77
813.39	231.68
813.71	231.59
814.03	231.45
814.35	231.49
814.67	231.27
814.98	231.20
815.30	231.11
815.62	231.11
815.94	230.89
816.26	230.87
816.58	230.84
816.89	230.81
817.21	230.71
817.53	230.85
817.85	230.77
818.17	230.70
818.48	230.63
818.80	230.70
819.12	230.62
819.44	230.54
819.76	230.47
820.07	230.50
820.39	230.44
820.71	230.49
821.03	230.44
821.34	230.44
821.66	230.31
821.98	230.43
822.30	230.35
822.61	230.48
822.93	230.29
823.25	230.25
823.57	230.17
823.88	230.15
824.20	230.10
824.52	230.11
824.83	230.13
825.15	230.14
825.47	230.08
825.79	230.10
826.10	230.03
826.42	230.01
826.74	230.01
827.05	230.08
827.37	230.09
827.69	230.09
828.00	230.05
828.32	230.12
828.64	230.06
828.95	230.20
829.27	230.10
829.58	230.19
829.90	230.23
830.22	230.30
830.53	230.29
830.85	230.26
831.17	230.17
831.48	230.17
831.80	230.12
832.11	230.12
832.43	230.01
832.75	230.09
833.06	230.30
833.38	230.26
833.69	230.25
834.01	230.30
834.32	230.23
834.64	230.20
834.96	230.14
835.27	230.10
835.59	229.95
835.90	229.97
836.22	229.97
836.53	229.93
836.85	229.80
837.16	229.99
837.48	230.03
837.79	230.20
838.11	230.14
838.42	230.12
838.74	230.23
839.05	230.29
839.37	230.21
839.68	229.98
840.00	230.03
840.31	230.04
840.63	230.06
840.94	230.10
841.26	230.06
841.57	230.14
841.88	230.22
842.20	230.22
842.51	230.18
842.83	230.19
843.14	230.36
843.46	230.45
843.77	230.32
844.08	230.32
844.40	230.19
844.71	230.18
845.03	230.14
845.34	230.11
845.65	230.05
845.97	230.05
846.28	230.11
846.60	230.03
846.91	230.00
847.22	229.92
847.54	229.90
847.85	230.04
848.16	230.05
848.48	229.98
848.79	230.04
849.10	230.02
849.42	230.05
849.73	229.95
850.04	229.90
850.36	229.80
850.67	229.79
850.98	229.78
851.30	229.70
851.61	229.74
851.92	229.60
852.23	229.74
852.55	229.74
852.86	229.70
853.17	229.77
853.49	229.71
853.80	229.77
854.11	229.77
854.42	229.75
854.74	229.76
855.05	229.70
855.36	229.58
855.67	229.54
855.99	229.45
856.30	229.61
856.61	229.55
856.92	229.63
857.23	229.60
857.55	229.60
857.86	229.68
858.17	229.61
858.48	229.63
858.79	229.46
859.11	229.46
859.42	229.50
859.73	229.43
860.04	229.37
860.35	229.29
860.66	229.21
860.98	229.18
861.29	229.08
861.60	229.08
861.91	229.11
862.22	229.07
862.53	229.13
862.84	228.98
863.16	228.99
863.47	228.86
863.78	228.84
864.09	228.86
864.40	228.78
864.71	228.75
865.02	228.71
865.33	228.80
865.64	228.84
865.95	228.73
866.27	228.84
866.58	228.86
866.89	228.88
867.20	228.90
867.51	228.79
867.82	228.71
868.13	228.78
868.44	228.88
868.75	228.98
869.06	228.91
869.37	228.88
869.68	228.88
869.99	228.96
870.30	228.90
870.61	228.97
870.92	228.93
871.23	229.00
871.54	229.08
871.85	229.07
872.16	229.03
872.47	229.04
872.78	228.97
873.09	229.08
873.40	229.12
873.71	229.09
874.02	229.19
874.33	229.27
874.64	229.13
874.95	229.06
875.26	229.08
875.56	229.13
875.87	229.12
876.18	229.13
876.49	229.31
876.80	229.33
877.11	229.21
877.42	229.36
877.73	229.35
878.04	229.30
878.35	229.32
878.66	229.38
878.96	229.35
879.27	229.25
879.58	229.21
879.89	229.22
880.20	229.38
880.51	229.41
880.82	229.47
881.12	229.53
881.43	229.54
881.74	229.50
882.05	229.40
882.36	229.32
882.67	229.32
882.97	229.22
883.28	229.20
883.59	229.22
883.90	229.20
884.21	229.13
884.51	229.10
884.82	229.06
885.13	229.04
885.44	229.10
885.74	229.06
886.05	228.96
886.36	228.97
886.67	228.84
886.98	228.89
887.28	228.80
887.59	228.80
887.90	228.82
888.20	228.83
888.51	228.90
888.82	228.91
889.13	228.98
889.43	228.89
889.74	228.93
890.05	228.91
890.35	229.00
890.66	229.07
890.97	229.01
891.28	228.90
891.58	228.83
891.89	228.77
892.20	228.82
892.50	228.83
892.81	228.79
893.12	228.79
893.42	228.67
893.73	228.70
894.04	228.67
894.34	228.55
894.65	228.57
894.95	228.57
895.26	228.53
895.57	228.51
895.87	228.45
896.18	228.44
896.48	228.35
896.79	228.25
897.10	228.23
897.40	228.29
897.71	228.36
898.01	228.39
898.32	228.46
898.63	228.33
898.93	228.29
899.24	228.32
899.54	228.34
899.85	228.28
900.15	228.24
900.46	228.30
900.76	228.46
901.07	228.34
901.38	228.34
901.68	228.37
901.99	228.35
902.29	228.37
902.60	228.34
902.90	228.30
903.21	228.22
903.51	228.19
903.82	228.20
904.12	228.26
904.43	228.28
904.73	228.20
905.03	228.26
905.34	228.50
905.64	228.33
905.95	228.33
906.25	228.40
906.56	228.41
906.86	228.40
907.17	228.31
907.47	228.39
907.77	228.33
908.08	228.29
908.38	228.30
908.69	228.31
908.99	228.27
909.30	228.36
909.60	228.36
909.90	228.39
910.21	228.44
910.51	228.37
910.81	228.37
911.12	228.45
911.42	228.57
911.73	228.43
912.03	228.49
912.33	228.52
912.64	228.53
912.94	228.57
913.24	228.55
913.55	228.57
913.85	228.60
914.15	228.70
914.46	228.73
914.76	228.72
915.06	228.73
915.37	228.82
915.67	228.82
915.97	228.93
916.27	228.87
916.58	228.88
916.88	228.87
917.18	228.81
917.49	228.95
917.79	228.91
918.09	228.90
918.39	228.94
918.70	228.88
919.00	228.76
919.30	228.75
919.60	228.77
919.91	228.73
920.21	228.65
920.51	228.64
920.81	228.67
921.12	228.71
921.42	228.66
921.72	228.59
922.02	228.60
922.32	228.47
922.63	228.47
922.93	228.41
923.23	228.37
923.53	228.42
923.83	228.28
924.13	228.27
924.44	228.25
924.74	228.17
925.04	228.26
925.34	228.31
925.64	228.22
925.94	228.20
926.24	228.30
926.55	228.26
926.85	228.26
927.15	228.24
927.45	228.22
927.75	228.26
928.05	228.28
928.35	228.20
928.65	228.19
928.95	228.16
929.26	228.10
929.56	228.12
929.86	228.04
930.16	228.07
930.46	228.07
930.76	228.05
931.06	228.03
931.36	227.88
931.66	227.85
931.96	227.85
932.26	227.79
932.56	227.69
932.86	227.64
933.16	227.59
933.46	227.58
933.76	227.52
934.06	227.50
934.36	227.61
934.66	227.60
934.96	227.70
935.26	227.80
935.56	227.90
935.86	227.94
936.16	227.94
936.46	227.87
936.76	227.83
937.06	227.86
937.36	227.89
937.66	227.97
937.96	228.00
938.26	228.02
938.56	227.92
938.86	227.95
939.16	228.04
939.46	228.03
939.76	228.09
940.06	228.03
940.35	228.08
940.65	227.89
940.95	227.95
941.25	227.90
941.55	227.80
941.85	227.75
942.15	227.80
942.45	227.85
942.75	227.86
943.04	227.84
943.34	227.87
943.64	227.81
943.94	227.80
944.24	227.91
944.54	227.93
944.84	228.18
945.13	228.12
945.43	228.09
945.73	228.07
946.03	228.06
946.33	228.10
946.62	228.10
946.92	228.21
947.22	228.35
947.52	228.47
947.82	228.59
948.11	228.65
948.41	228.73
948.71	228.75
949.01	228.82
949.31	228.83
949.60	228.81
949.90	229.02
950.20	229.04
950.50	229.00
950.79	228.98
951.09	229.01
951.39	229.17
951.69	229.23
951.98	229.43
952.28	229.43
952.58	229.55
952.87	229.48
953.17	229.56
953.47	229.50
953.76	229.47
954.06	229.45
954.36	229.39
954.66	229.32
954.95	229.39
955.25	229.47
955.55	229.57
955.84	229.59
956.14	229.60
956.44	229.56
956.73	229.49
957.03	229.54
957.32	229.56
957.62	229.48
957.92	229.57
958.21	229.48
958.51	229.66
958.81	229.63
959.10	229.60
959.40	229.50
959.69	229.54
959.99	229.58
960.29	229.49
960.58	229.46
960.88	229.46
961.17	229.35
961.47	229.30
961.76	229.20
962.06	229.20
962.36	229.04
962.65	229.06
962.95	228.95
963.24	228.96
963.54	228.89
963.83	228.81
964.13	228.75
964.42	228.69
964.72	228.52
965.01	228.54
965.31	228.62
965.60	228.63
965.90	228.64
966.19	228.49
966.49	228.58
966.78	228.55
967.08	228.54
967.37	228.55
967.67	228.47
967.96	228.51
968.26	228.43
968.55	228.43
968.85	228.38
969.14	228.43
969.43	228.29
969.73	228.16
970.02	228.12
970.32	228.00
970.61	227.95
970.91	227.88
971.20	227.73
971.49	227.61
971.79	227.69
972.08	227.57
972.38	227.65
972.67	227.61
972.96	227.72
973.26	227.59
973.55	227.65
973.85	227.64
974.14	227.66
974.43	227.69
974.73	227.67
975.02	227.73
975.31	227.80
975.61	227.89
975.90	227.87
976.19	227.89
976.49	227.99
976.78	228.02
977.07	227.95
977.37	228.01
977.66	228.12
977.95	227.98
978.24	228.01
978.54	227.97
978.83	227.99
979.12	227.96
979.42	228.10
979.71	228.01
980.00	228.06
980.29	228.04
980.59	228.05
980.88	228.19
981.17	228.13
981.46	228.10
981.76	228.17
982.05	228.40
982.34	228.49
982.63	228.55
982.93	228.54
983.22	228.68
983.51	228.74
983.80	228.82
984.09	228.83
984.39	228.77
984.68	228.85
984.97	228.92
985.26	228.90
985.55	228.87
985.85	228.96
986.14	229.01
986.43	229.10
986.72	229.07
987.01	229.03
987.30	229.16
987.59	229.22
987.89	229.24
988.18	229.13
988.47	229.09
988.76	229.02
989.05	229.03
989.34	229.08
989.63	229.20
989.92	229.02
990.22	229.08
990.51	229.18
990.80	229.01
991.09	228.91
991.38	228.98
991.67	228.95
991.96	228.88
992.25	228.85
992.54	228.76
992.83	228.82
993.12	228.80
993.41	228.76
993.70	228.85
993.99	228.86
994.28	228.82
994.58	228.91
994.87	228.87
995.16	228.88
995.45	228.78
995.74	228.60
996.03	228.71
996.32	228.70
996.61	228.64
996.90	228.72
997.19	228.70
997.48	228.59
997.77	228.53
998.06	228.58
998.34	228.40
998.63	228.40
998.92	228.30
999.21	228.32
999.50	228.31
999.79	228.15
1000.08	228.10
1000.37	228.10
1000.66	228.05
1000.95	228.12
1001.24	228.06
1001.53	228.14
1001.82	228.17
1002.11	228.12
1002.40	228.04
1002.68	228.06
1002.97	228.15
1003.26	228.18
1003.55	228.26
1003.84	228.28
1004.13	228.22
1004.42	228.27
1004.71	228.29
1004.99	228.33
1005.28	228.44
1005.57	228.37
1005.86	228.38
1006.15	228.31
1006.44	228.21
1006.72	228.16
1007.01	228.02
1007.30	228.07
1007.59	227.94
1007.88	227.87
1008.17	227.85
1008.45	227.92
1008.74	227.81
1009.03	227.67
1009.32	227.68
1009.60	227.47
1009.89	227.44
1010.18	227.48
1010.47	227.55
1010.76	227.53
1011.04	227.54
1011.33	227.53
1011.62	227.49
1011.91	227.47
1012.19	227.55
1012.48	227.62
1012.77	227.61
1013.05	227.80
1013.34	227.74
1013.63	227.79
1013.92	227.79
1014.20	227.81
1014.49	227.87
1014.78	228.06
1015.06	228.10
1015.35	228.17
1015.64	228.36
1015.92	228.47
1016.21	228.45
1016.50	228.44
1016.78	228.42
1017.07	228.39
1017.36	228.22
1017.64	228.33
1017.93	228.37
1018.22	228.26
1018.50	228.21
1018.79	228.17
1019.08	228.12
1019.36	228.15
1019.65	228.10
1019.93	228.17
1020.22	228.19
1020.51	228.23
1020.79	228.17
1021.08	226.80
1021.36	226.60
1021.65	226.70
1021.94	229.60
1022.22	227.60
1022.51	226.70
1022.79	228.30
1023.08	228.50
1023.36	230.40
1023.65	228.90
>>>>>End Processed Spectral Data<<<<<
