SpectraSuite Data File
++++++++++++++++++++++++++++++++++++
Date: Fri Feb 01 14:41:32 EST 2013
User: group
Dark Spectrum Present: No
Reference Spectrum Present: No
Number of Sampled Component Spectra: 1
Spectrometers: USB2E7196
Integration Time (usec): 70000 (USB2E7196)
Spectra Averaged: 10 (USB2E7196)
Boxcar Smoothing: 10 (USB2E7196)
Correct for Electrical Dark: No (USB2E7196)
Strobe/Lamp Enabled: No (USB2E7196)
Correct for Detector Non-linearity: No (USB2E7196)
Correct for Stray Light: No (USB2E7196)
Number of Pixels in Processed Spectrum: 2048
>>>>>Begin Processed Spectral Data<<<<<
339.09	0.00
339.48	216.40
339.86	216.20
340.24	217.50
340.63	220.20
341.01	225.00
341.39	224.10
341.78	225.60
342.16	225.20
342.54	227.10
342.93	214.96
343.31	225.71
343.69	226.20
344.07	226.68
344.46	227.20
344.84	227.57
345.22	227.70
345.60	227.93
345.99	228.07
346.37	228.27
346.75	228.35
347.13	228.40
347.52	228.32
347.90	228.39
348.28	228.46
348.66	228.57
349.05	228.47
349.43	228.49
349.81	228.54
350.19	228.57
350.57	228.61
350.96	228.77
351.34	228.88
351.72	229.04
352.10	229.13
352.48	229.14
352.87	229.13
353.25	229.20
353.63	229.23
354.01	229.30
354.39	229.32
354.77	229.37
355.15	229.43
355.54	229.56
355.92	229.57
356.30	229.63
356.68	229.83
357.06	229.89
357.44	229.83
357.82	229.84
358.20	229.96
358.58	230.10
358.97	230.18
359.35	230.44
359.73	230.52
360.11	230.60
360.49	230.69
360.87	230.79
361.25	230.86
361.63	230.91
362.01	230.89
362.39	230.77
362.77	230.83
363.15	230.96
363.53	230.95
363.91	230.98
364.29	231.02
364.67	230.89
365.05	230.93
365.43	231.05
365.81	231.10
366.19	231.12
366.57	231.10
366.95	230.90
367.33	230.77
367.71	230.76
368.09	230.81
368.47	230.88
368.85	230.95
369.23	230.92
369.61	230.96
369.99	231.03
370.37	231.13
370.75	231.16
371.13	231.01
371.51	230.94
371.89	230.90
372.27	230.79
372.65	230.67
373.03	230.52
373.41	230.40
373.78	230.28
374.16	230.15
374.54	229.95
374.92	229.90
375.30	229.83
375.68	229.65
376.06	229.55
376.44	229.38
376.82	229.24
377.19	229.15
377.57	228.95
377.95	228.73
378.33	228.68
378.71	228.48
379.09	228.50
379.47	228.34
379.84	228.28
380.22	228.19
380.60	228.19
380.98	228.21
381.36	228.11
381.73	227.99
382.11	228.00
382.49	228.02
382.87	227.97
383.25	227.92
383.62	228.03
384.00	227.93
384.38	227.89
384.76	227.93
385.13	227.97
385.51	227.90
385.89	227.95
386.27	227.90
386.64	227.79
387.02	227.66
387.40	227.74
387.78	227.65
388.15	227.72
388.53	227.55
388.91	227.55
389.29	227.57
389.66	227.64
390.04	227.58
390.42	227.63
390.79	227.67
391.17	227.57
391.55	227.42
391.92	227.52
392.30	227.53
392.68	227.46
393.05	227.41
393.43	227.46
393.81	227.53
394.18	227.58
394.56	227.69
394.94	227.82
395.31	227.80
395.69	228.00
396.06	228.02
396.44	228.18
396.82	228.15
397.19	228.35
397.57	228.38
397.95	228.46
398.32	228.43
398.70	228.50
399.07	228.63
399.45	228.82
399.82	228.82
400.20	228.97
400.58	228.97
400.95	229.16
401.33	229.33
401.70	229.48
402.08	229.53
402.45	229.72
402.83	229.80
403.20	229.92
403.58	229.98
403.95	230.10
404.33	230.24
404.71	230.47
405.08	230.71
405.46	231.01
405.83	231.19
406.21	231.39
406.58	231.63
406.96	231.86
407.33	231.98
407.70	232.25
408.08	232.63
408.45	233.01
408.83	233.28
409.20	233.52
409.58	233.70
409.95	234.08
410.33	234.45
410.70	234.76
411.08	235.20
411.45	235.67
411.82	236.06
412.20	236.57
412.57	237.12
412.95	237.47
413.32	237.94
413.69	238.46
414.07	239.02
414.44	239.60
414.82	240.17
415.19	240.86
415.56	241.54
415.94	242.31
416.31	243.18
416.68	243.98
417.06	245.01
417.43	246.02
417.81	247.00
418.18	247.97
418.55	249.16
418.93	250.19
419.30	251.27
419.67	252.45
420.04	253.67
420.42	254.76
420.79	256.25
421.16	257.76
421.54	259.26
421.91	260.83
422.28	262.43
422.66	264.18
423.03	266.09
423.40	267.79
423.77	269.41
424.15	271.10
424.52	273.12
424.89	275.19
425.26	277.02
425.64	278.93
426.01	280.96
426.38	282.97
426.75	285.15
427.13	287.40
427.50	289.85
427.87	292.29
428.24	294.75
428.61	297.01
428.99	299.50
429.36	302.28
429.73	304.87
430.10	307.53
430.47	310.15
430.85	312.73
431.22	315.77
431.59	318.85
431.96	321.85
432.33	324.85
432.70	327.92
433.08	331.68
433.45	335.06
433.82	338.35
434.19	342.10
434.56	345.88
434.93	349.24
435.30	352.65
435.68	356.44
436.05	360.08
436.42	363.54
436.79	366.79
437.16	370.11
437.53	373.89
437.90	377.48
438.27	381.08
438.64	384.71
439.01	387.96
439.38	390.92
439.75	393.70
440.13	396.93
440.50	399.97
440.87	402.40
441.24	404.82
441.61	407.69
441.98	409.63
442.35	411.68
442.72	414.15
443.09	416.34
443.46	417.42
443.83	418.22
444.20	418.91
444.57	419.99
444.94	420.47
445.31	420.95
445.68	421.39
446.05	421.47
446.42	420.90
446.79	420.34
447.16	419.66
447.53	419.19
447.90	417.73
448.27	415.95
448.64	413.74
449.01	412.34
449.37	409.74
449.74	407.23
450.11	404.49
450.48	401.25
450.85	397.98
451.22	395.33
451.59	392.74
451.96	390.29
452.33	386.88
452.70	383.74
453.07	379.98
453.43	376.17
453.80	372.66
454.17	369.21
454.54	365.97
454.91	362.43
455.28	358.91
455.65	355.62
456.02	352.74
456.38	349.95
456.75	346.43
457.12	343.54
457.49	340.72
457.86	338.00
458.23	335.58
458.59	332.96
458.96	330.20
459.33	327.82
459.70	325.37
460.07	323.39
460.43	321.13
460.80	319.07
461.17	317.31
461.54	315.30
461.91	313.34
462.27	311.32
462.64	309.60
463.01	307.91
463.38	306.30
463.74	304.37
464.11	302.77
464.48	301.42
464.85	300.00
465.21	298.74
465.58	297.39
465.95	295.85
466.32	294.67
466.68	293.37
467.05	292.08
467.42	290.82
467.78	289.54
468.15	288.39
468.52	287.38
468.88	286.16
469.25	285.10
469.62	284.34
469.98	283.42
470.35	282.67
470.72	281.87
471.08	280.77
471.45	280.03
471.82	279.26
472.18	278.45
472.55	277.63
472.92	276.97
473.28	276.31
473.65	275.72
474.02	274.97
474.38	274.45
474.75	273.93
475.11	273.40
475.48	272.91
475.85	272.46
476.21	272.10
476.58	271.79
476.94	271.45
477.31	271.03
477.67	270.69
478.04	270.35
478.41	270.08
478.77	270.12
479.14	269.73
479.50	269.69
479.87	269.57
480.23	269.54
480.60	269.41
480.96	269.20
481.33	269.15
481.69	269.19
482.06	269.32
482.42	269.36
482.79	269.59
483.15	269.75
483.52	270.08
483.88	270.22
484.25	270.26
484.61	270.45
484.98	270.78
485.34	271.27
485.71	271.70
486.07	272.27
486.44	272.61
486.80	273.29
487.17	273.80
487.53	274.56
487.90	275.34
488.26	276.21
488.62	277.24
488.99	278.18
489.35	279.16
489.72	280.26
490.08	281.31
490.44	282.36
490.81	283.74
491.17	284.95
491.54	286.40
491.90	288.05
492.26	289.76
492.63	291.48
492.99	293.30
493.36	295.20
493.72	297.25
494.08	299.24
494.45	301.59
494.81	303.92
495.17	306.23
495.54	308.81
495.90	311.45
496.26	314.24
496.63	317.22
496.99	320.37
497.35	323.53
497.72	327.06
498.08	330.65
498.44	334.25
498.80	338.30
499.17	342.34
499.53	346.50
499.89	350.99
500.26	355.66
500.62	360.40
500.98	365.62
501.34	370.70
501.71	376.38
502.07	381.91
502.43	387.92
502.79	394.15
503.16	400.64
503.52	407.10
503.88	413.83
504.24	421.02
504.60	428.45
504.97	436.21
505.33	444.14
505.69	452.53
506.05	461.08
506.41	469.66
506.78	478.60
507.14	487.98
507.50	497.36
507.86	507.25
508.22	517.41
508.59	527.50
508.95	538.23
509.31	549.17
509.67	560.56
510.03	571.93
510.39	583.81
510.75	595.80
511.12	608.09
511.48	620.81
511.84	633.77
512.20	646.82
512.56	660.28
512.92	673.93
513.28	688.10
513.64	702.49
514.00	717.12
514.37	732.27
514.73	747.27
515.09	762.83
515.45	778.51
515.81	794.33
516.17	810.80
516.53	827.28
516.89	843.89
517.25	860.71
517.61	877.83
517.97	894.65
518.33	912.17
518.69	930.14
519.05	948.11
519.41	966.19
519.77	985.05
520.13	1004.03
520.49	1023.05
520.85	1041.66
521.21	1060.31
521.57	1080.07
521.93	1099.02
522.29	1119.02
522.65	1138.49
523.01	1157.82
523.37	1177.02
523.73	1196.78
524.09	1216.12
524.45	1236.30
524.81	1256.45
525.17	1277.00
525.53	1298.23
525.89	1318.76
526.25	1339.41
526.61	1359.91
526.97	1380.90
527.33	1401.60
527.68	1422.38
528.04	1442.86
528.40	1463.82
528.76	1485.30
529.12	1506.36
529.48	1527.48
529.84	1548.01
530.20	1569.53
530.56	1591.67
530.91	1614.09
531.27	1635.50
531.63	1657.41
531.99	1678.87
532.35	1699.80
532.71	1720.23
533.07	1741.23
533.42	1762.23
533.78	1783.24
534.14	1804.19
534.50	1824.09
534.86	1844.10
535.21	1863.45
535.57	1883.74
535.93	1904.03
536.29	1923.96
536.65	1943.65
537.00	1963.67
537.36	1983.38
537.72	2002.17
538.08	2020.84
538.44	2038.76
538.79	2057.40
539.15	2075.32
539.51	2093.30
539.87	2112.21
540.22	2130.85
540.58	2149.00
540.94	2166.74
541.29	2183.93
541.65	2200.83
542.01	2218.90
542.37	2236.41
542.72	2253.81
543.08	2270.60
543.44	2287.20
543.79	2302.60
544.15	2317.70
544.51	2333.74
544.87	2349.58
545.22	2365.00
545.58	2379.88
545.94	2394.35
546.29	2408.61
546.65	2422.75
547.01	2436.54
547.36	2448.88
547.72	2461.71
548.07	2473.83
548.43	2485.83
548.79	2497.66
549.14	2509.77
549.50	2520.80
549.86	2531.36
550.21	2542.11
550.57	2552.98
550.92	2563.33
551.28	2573.82
551.64	2584.03
551.99	2593.40
552.35	2602.84
552.70	2612.39
553.06	2621.77
553.41	2631.63
553.77	2640.53
554.13	2649.89
554.48	2659.03
554.84	2667.78
555.19	2676.68
555.55	2685.50
555.90	2693.00
556.26	2701.04
556.61	2708.55
556.97	2715.39
557.32	2723.08
557.68	2729.90
558.03	2736.96
558.39	2743.14
558.74	2750.97
559.10	2758.00
559.45	2764.76
559.81	2771.70
560.16	2777.31
560.52	2782.50
560.87	2788.63
561.23	2793.68
561.58	2798.75
561.94	2803.05
562.29	2807.69
562.64	2811.17
563.00	2814.89
563.35	2820.54
563.71	2825.55
564.06	2830.30
564.42	2835.33
564.77	2839.51
565.12	2843.95
565.48	2847.60
565.83	2851.01
566.19	2853.52
566.54	2855.88
566.89	2857.76
567.25	2859.40
567.60	2862.56
567.96	2865.26
568.31	2866.28
568.66	2868.04
569.02	2869.65
569.37	2870.70
569.72	2871.77
570.08	2872.74
570.43	2873.78
570.78	2873.55
571.14	2872.57
571.49	2872.07
571.84	2872.15
572.20	2870.32
572.55	2868.80
572.90	2866.83
573.26	2865.65
573.61	2863.86
573.96	2862.14
574.31	2859.66
574.67	2856.23
575.02	2852.36
575.37	2849.00
575.72	2845.24
576.08	2841.89
576.43	2838.17
576.78	2835.00
577.13	2831.98
577.49	2829.03
577.84	2824.52
578.19	2820.04
578.54	2815.96
578.90	2810.61
579.25	2804.36
579.60	2799.70
579.95	2794.13
580.30	2788.43
580.66	2782.71
581.01	2776.03
581.36	2769.91
581.71	2765.00
582.06	2759.96
582.42	2753.90
582.77	2747.88
583.12	2741.85
583.47	2736.33
583.82	2730.48
584.17	2724.00
584.53	2717.28
584.88	2710.15
585.23	2703.85
585.58	2698.17
585.93	2691.24
586.28	2685.84
586.63	2679.85
586.98	2674.12
587.34	2668.18
587.69	2662.22
588.04	2655.94
588.39	2650.20
588.74	2642.55
589.09	2634.51
589.44	2626.09
589.79	2619.29
590.14	2612.32
590.49	2605.44
590.84	2597.33
591.19	2589.41
591.54	2580.84
591.89	2571.56
592.25	2563.60
592.60	2554.34
592.95	2544.65
593.30	2536.00
593.65	2526.13
594.00	2517.03
594.35	2508.26
594.70	2498.80
595.05	2490.07
595.40	2480.15
595.75	2470.75
596.10	2463.14
596.45	2455.31
596.80	2448.56
597.15	2439.96
597.50	2430.91
597.85	2422.37
598.19	2414.61
598.54	2406.39
598.89	2398.28
599.24	2391.66
599.59	2383.34
599.94	2375.81
600.29	2367.81
600.64	2359.85
600.99	2351.02
601.34	2342.66
601.69	2333.10
602.04	2324.91
602.39	2316.50
602.74	2309.47
603.08	2301.27
603.43	2292.60
603.78	2283.91
604.13	2274.23
604.48	2265.54
604.83	2257.16
605.18	2248.63
605.53	2238.65
605.87	2228.40
606.22	2219.35
606.57	2209.44
606.92	2200.17
607.27	2191.12
607.62	2181.91
607.96	2172.73
608.31	2164.45
608.66	2154.41
609.01	2144.94
609.36	2134.39
609.70	2123.29
610.05	2111.96
610.40	2101.82
610.75	2091.32
611.10	2080.49
611.44	2068.94
611.79	2058.60
612.14	2047.78
612.49	2035.93
612.83	2025.09
613.18	2014.80
613.53	2004.56
613.88	1993.25
614.22	1982.74
614.57	1971.52
614.92	1961.10
615.27	1950.92
615.61	1940.39
615.96	1930.66
616.31	1920.79
616.65	1911.99
617.00	1902.26
617.35	1892.72
617.70	1882.18
618.04	1871.91
618.39	1862.13
618.74	1853.07
619.08	1842.77
619.43	1833.02
619.78	1824.25
620.12	1814.71
620.47	1804.80
620.82	1794.49
621.16	1785.18
621.51	1775.52
621.85	1765.98
622.20	1755.84
622.55	1746.08
622.89	1736.31
623.24	1726.83
623.59	1717.49
623.93	1707.78
624.28	1698.39
624.62	1688.25
624.97	1679.68
625.32	1671.09
625.66	1661.68
626.01	1652.65
626.35	1643.37
626.70	1633.98
627.04	1624.57
627.39	1614.90
627.73	1605.68
628.08	1596.70
628.43	1587.11
628.77	1577.37
629.12	1567.73
629.46	1558.40
629.81	1548.02
630.15	1537.82
630.50	1528.03
630.84	1517.38
631.19	1507.17
631.53	1497.55
631.88	1487.69
632.22	1477.29
632.57	1467.58
632.91	1457.83
633.26	1447.94
633.60	1437.94
633.95	1428.74
634.29	1419.33
634.64	1410.73
634.98	1401.61
635.32	1393.08
635.67	1385.15
636.01	1376.56
636.36	1367.65
636.70	1359.16
637.05	1351.28
637.39	1343.29
637.73	1334.93
638.08	1327.57
638.42	1319.74
638.77	1311.65
639.11	1303.69
639.45	1295.59
639.80	1287.06
640.14	1278.78
640.49	1270.78
640.83	1262.82
641.17	1254.20
641.52	1246.00
641.86	1237.52
642.20	1229.67
642.55	1221.19
642.89	1212.62
643.23	1204.35
643.58	1196.85
643.92	1188.30
644.26	1179.71
644.61	1172.27
644.95	1164.24
645.29	1155.27
645.64	1146.69
645.98	1138.76
646.32	1130.97
646.66	1122.80
647.01	1114.82
647.35	1107.05
647.69	1099.22
648.04	1091.96
648.38	1084.09
648.72	1075.84
649.06	1067.81
649.41	1059.68
649.75	1051.31
650.09	1043.06
650.43	1034.92
650.78	1026.46
651.12	1018.88
651.46	1011.44
651.80	1003.51
652.14	995.84
652.49	988.54
652.83	981.33
653.17	973.57
653.51	966.01
653.85	958.79
654.20	951.06
654.54	943.50
654.88	935.88
655.22	927.92
655.56	920.51
655.90	913.45
656.25	906.47
656.59	899.52
656.93	892.91
657.27	886.22
657.61	879.32
657.95	872.99
658.29	866.14
658.64	859.27
658.98	852.05
659.32	845.14
659.66	838.45
660.00	831.70
660.34	825.15
660.68	818.63
661.02	811.98
661.36	805.95
661.70	799.86
662.05	794.00
662.39	788.28
662.73	782.38
663.07	776.56
663.41	770.83
663.75	765.28
664.09	759.33
664.43	753.60
664.77	748.31
665.11	742.67
665.45	737.41
665.79	732.07
666.13	726.62
666.47	721.25
666.81	715.79
667.15	710.30
667.49	705.30
667.83	700.29
668.17	695.12
668.51	689.87
668.85	684.88
669.19	680.03
669.53	675.08
669.87	670.07
670.21	665.38
670.55	660.76
670.89	656.27
671.23	651.80
671.57	647.51
671.91	643.02
672.25	638.67
672.58	634.25
672.92	629.68
673.26	625.70
673.60	621.61
673.94	617.89
674.28	614.17
674.62	610.19
674.96	606.45
675.30	602.93
675.64	599.09
675.97	595.41
676.31	591.60
676.65	587.80
676.99	584.20
677.33	580.36
677.67	576.44
678.01	572.41
678.34	568.59
678.68	564.69
679.02	560.80
679.36	557.16
679.70	553.61
680.04	550.16
680.37	546.65
680.71	543.23
681.05	539.80
681.39	536.44
681.73	533.15
682.06	529.76
682.40	526.51
682.74	523.39
683.08	520.19
683.42	516.92
683.75	513.87
684.09	510.73
684.43	507.52
684.77	504.45
685.10	501.15
685.44	498.11
685.78	495.00
686.12	492.12
686.45	489.22
686.79	486.22
687.13	483.51
687.46	480.46
687.80	477.50
688.14	474.55
688.48	471.75
688.81	468.74
689.15	465.96
689.49	463.11
689.82	460.39
690.16	457.48
690.50	454.73
690.83	452.10
691.17	449.37
691.51	446.91
691.84	444.42
692.18	442.05
692.52	439.67
692.85	437.27
693.19	434.89
693.52	432.36
693.86	429.82
694.20	427.18
694.53	424.97
694.87	422.60
695.21	420.11
695.54	417.69
695.88	415.42
696.21	413.07
696.55	410.71
696.88	408.45
697.22	406.24
697.56	404.28
697.89	402.12
698.23	400.08
698.56	397.89
698.90	395.72
699.23	393.60
699.57	391.44
699.90	389.32
700.24	387.17
700.58	385.09
700.91	383.31
701.25	381.45
701.58	379.55
701.92	377.70
702.25	375.92
702.59	374.12
702.92	372.32
703.26	370.55
703.59	368.92
703.93	367.40
704.26	365.63
704.60	363.67
704.93	361.89
705.26	360.15
705.60	358.59
705.93	357.10
706.27	355.72
706.60	354.45
706.94	353.08
707.27	351.57
707.61	350.10
707.94	348.70
708.27	347.18
708.61	345.60
708.94	344.27
709.28	343.01
709.61	341.63
709.94	340.30
710.28	338.90
710.61	337.58
710.95	335.92
711.28	334.84
711.61	333.63
711.95	332.35
712.28	331.17
712.61	329.89
712.95	328.52
713.28	327.26
713.61	325.77
713.95	324.58
714.28	323.43
714.61	322.24
714.95	321.05
715.28	319.98
715.61	318.74
715.95	317.57
716.28	316.37
716.61	315.25
716.95	314.09
717.28	313.24
717.61	312.30
717.94	311.35
718.28	310.20
718.61	309.23
718.94	308.35
719.27	307.32
719.61	306.48
719.94	305.73
720.27	304.65
720.60	303.75
720.94	302.82
721.27	302.02
721.60	301.06
721.93	300.23
722.27	299.55
722.60	298.96
722.93	298.10
723.26	297.43
723.59	296.72
723.93	296.07
724.26	295.11
724.59	294.23
724.92	293.60
725.25	292.95
725.59	292.22
725.92	291.42
726.25	290.80
726.58	290.04
726.91	289.20
727.24	288.67
727.57	287.99
727.91	287.32
728.24	286.66
728.57	286.16
728.90	285.49
729.23	284.76
729.56	284.05
729.89	283.44
730.22	282.68
730.55	282.01
730.89	281.39
731.22	280.83
731.55	280.21
731.88	279.53
732.21	278.97
732.54	278.40
732.87	277.82
733.20	277.20
733.53	276.71
733.86	276.29
734.19	275.58
734.52	275.09
734.85	274.62
735.18	274.00
735.51	273.49
735.84	272.92
736.17	272.44
736.50	271.91
736.83	271.57
737.16	271.23
737.49	270.73
737.82	270.15
738.15	269.84
738.48	269.46
738.81	268.93
739.14	268.42
739.47	268.06
739.80	267.55
740.13	267.12
740.46	266.57
740.79	265.98
741.12	265.60
741.45	265.11
741.78	264.60
742.11	264.23
742.44	263.70
742.77	263.28
743.10	262.80
743.43	262.36
743.75	261.76
744.08	261.63
744.41	261.20
744.74	260.79
745.07	260.26
745.40	259.87
745.73	259.60
746.06	259.17
746.39	258.69
746.71	258.39
747.04	257.99
747.37	257.70
747.70	257.54
748.03	257.27
748.36	256.94
748.68	256.66
749.01	256.26
749.34	256.03
749.67	255.76
750.00	255.49
750.33	255.30
750.65	255.10
750.98	254.52
751.31	254.29
751.64	254.12
751.97	253.99
752.29	253.66
752.62	253.44
752.95	253.31
753.28	253.03
753.60	252.73
753.93	252.51
754.26	252.22
754.59	251.76
754.91	251.48
755.24	251.30
755.57	250.99
755.90	250.79
756.22	250.51
756.55	250.23
756.88	249.95
757.20	249.56
757.53	249.27
757.86	248.94
758.19	248.73
758.51	248.49
758.84	248.09
759.17	247.88
759.49	247.58
759.82	247.30
760.15	247.09
760.47	246.94
760.80	246.81
761.13	246.65
761.45	246.51
761.78	246.24
762.11	246.05
762.43	245.85
762.76	245.61
763.08	245.32
763.41	245.12
763.74	245.02
764.06	244.96
764.39	244.75
764.71	244.68
765.04	244.41
765.37	244.33
765.69	244.19
766.02	243.90
766.34	243.70
766.67	243.50
767.00	243.40
767.32	243.27
767.65	243.19
767.97	242.93
768.30	242.79
768.62	242.68
768.95	242.57
769.27	242.38
769.60	242.29
769.92	242.19
770.25	242.06
770.57	241.81
770.90	241.57
771.22	241.41
771.55	241.24
771.87	241.21
772.20	240.91
772.52	240.90
772.85	241.11
773.17	241.00
773.50	240.85
773.82	240.57
774.15	240.40
774.47	240.10
774.80	239.99
775.12	239.81
775.45	239.62
775.77	239.46
776.09	239.43
776.42	239.23
776.74	239.19
777.07	239.03
777.39	238.96
777.72	238.78
778.04	238.67
778.36	238.49
778.69	238.31
779.01	238.23
779.33	238.01
779.66	237.59
779.98	237.48
780.31	237.48
780.63	237.52
780.95	237.38
781.28	237.29
781.60	237.24
781.92	237.06
782.25	236.98
782.57	236.82
782.89	236.51
783.22	236.40
783.54	236.24
783.86	236.05
784.19	235.91
784.51	235.99
784.83	235.97
785.16	235.92
785.48	235.86
785.80	235.79
786.12	235.63
786.45	235.55
786.77	235.40
787.09	235.17
787.42	235.03
787.74	234.99
788.06	234.91
788.38	234.70
788.71	234.81
789.03	234.73
789.35	234.72
789.67	234.72
789.99	234.77
790.32	234.74
790.64	234.84
790.96	234.90
791.28	234.72
791.61	234.59
791.93	234.49
792.25	234.38
792.57	234.43
792.89	234.36
793.21	234.29
793.54	234.17
793.86	234.15
794.18	234.07
794.50	234.04
794.82	233.91
795.14	233.92
795.47	233.80
795.79	233.83
796.11	233.76
796.43	233.85
796.75	233.67
797.07	233.55
797.39	233.46
797.71	233.30
798.04	233.33
798.36	233.29
798.68	233.30
799.00	233.37
799.32	233.30
799.64	233.31
799.96	233.36
800.28	233.52
800.60	233.51
800.92	233.58
801.24	233.56
801.56	233.62
801.89	233.66
802.21	233.60
802.53	233.49
802.85	233.39
803.17	233.44
803.49	233.56
803.81	233.56
804.13	233.57
804.45	233.47
804.77	233.30
805.09	233.31
805.41	233.20
805.73	233.06
806.05	232.95
806.37	232.95
806.69	232.84
807.01	232.70
807.33	232.70
807.65	232.65
807.97	232.63
808.28	232.55
808.60	232.49
808.92	232.43
809.24	232.62
809.56	232.65
809.88	232.45
810.20	232.34
810.52	232.33
810.84	232.20
811.16	232.10
811.48	232.21
811.80	232.15
812.12	232.16
812.43	232.12
812.75	232.08
813.07	231.97
813.39	232.02
813.71	231.89
814.03	231.76
814.35	231.67
814.67	231.49
814.98	231.41
815.30	231.35
815.62	231.33
815.94	231.09
816.26	231.10
816.58	230.99
816.89	231.00
817.21	231.00
817.53	231.00
817.85	231.03
818.17	230.98
818.48	230.84
818.80	230.90
819.12	230.86
819.44	230.80
819.76	230.79
820.07	230.79
820.39	230.82
820.71	230.81
821.03	230.66
821.34	230.60
821.66	230.60
821.98	230.56
822.30	230.51
822.61	230.63
822.93	230.50
823.25	230.62
823.57	230.59
823.88	230.57
824.20	230.44
824.52	230.49
824.83	230.38
825.15	230.38
825.47	230.34
825.79	230.35
826.10	230.31
826.42	230.25
826.74	230.19
827.05	230.24
827.37	230.27
827.69	230.30
828.00	230.39
828.32	230.35
828.64	230.32
828.95	230.40
829.27	230.34
829.58	230.38
829.90	230.40
830.22	230.29
830.53	230.21
830.85	230.22
831.17	230.17
831.48	230.30
831.80	230.40
832.11	230.37
832.43	230.40
832.75	230.40
833.06	230.50
833.38	230.40
833.69	230.41
834.01	230.45
834.32	230.47
834.64	230.48
834.96	230.53
835.27	230.65
835.59	230.58
835.90	230.57
836.22	230.56
836.53	230.45
836.85	230.49
837.16	230.63
837.48	230.67
837.79	230.72
838.11	230.68
838.42	230.64
838.74	230.73
839.05	230.70
839.37	230.65
839.68	230.63
840.00	230.66
840.31	230.71
840.63	230.68
840.94	230.68
841.26	230.70
841.57	230.72
841.88	230.60
842.20	230.65
842.51	230.64
842.83	230.65
843.14	230.89
843.46	230.93
843.77	230.89
844.08	230.87
844.40	230.79
844.71	230.71
845.03	230.70
845.34	230.57
845.65	230.43
845.97	230.53
846.28	230.47
846.60	230.42
846.91	230.33
847.22	230.31
847.54	230.33
847.85	230.27
848.16	230.20
848.48	230.15
848.79	230.11
849.10	230.11
849.42	230.08
849.73	229.90
850.04	229.76
850.36	229.73
850.67	229.80
850.98	229.79
851.30	229.77
851.61	229.61
851.92	229.58
852.23	229.69
852.55	229.65
852.86	229.70
853.17	229.69
853.49	229.66
853.80	229.70
854.11	229.68
854.42	229.71
854.74	229.70
855.05	229.75
855.36	229.69
855.67	229.67
855.99	229.60
856.30	229.81
856.61	229.83
856.92	229.70
857.23	229.65
857.55	229.67
857.86	229.70
858.17	229.71
858.48	229.70
858.79	229.66
859.11	229.60
859.42	229.49
859.73	229.51
860.04	229.49
860.35	229.30
860.66	229.28
860.98	229.20
861.29	229.21
861.60	229.21
861.91	229.26
862.22	229.24
862.53	229.28
862.84	228.95
863.16	229.03
863.47	229.02
863.78	229.00
864.09	229.01
864.40	228.92
864.71	228.95
865.02	228.90
865.33	228.81
865.64	228.86
865.95	228.87
866.27	228.99
866.58	228.95
866.89	229.02
867.20	228.94
867.51	228.84
867.82	228.76
868.13	228.72
868.44	228.60
868.75	228.55
869.06	228.56
869.37	228.59
869.68	228.46
869.99	228.47
870.30	228.56
870.61	228.49
870.92	228.52
871.23	228.57
871.54	228.60
871.85	228.68
872.16	228.74
872.47	228.72
872.78	228.56
873.09	228.60
873.40	228.61
873.71	228.55
874.02	228.70
874.33	228.64
874.64	228.67
874.95	228.75
875.26	228.77
875.56	228.69
875.87	228.81
876.18	228.89
876.49	229.11
876.80	229.03
877.11	229.04
877.42	229.07
877.73	229.08
878.04	229.05
878.35	228.99
878.66	228.91
878.96	228.94
879.27	229.02
879.58	229.08
879.89	229.01
880.20	229.20
880.51	229.20
880.82	229.27
881.12	229.30
881.43	229.38
881.74	229.34
882.05	229.37
882.36	229.30
882.67	229.37
882.97	229.11
883.28	229.17
883.59	229.22
883.90	229.14
884.21	229.16
884.51	229.12
884.82	229.24
885.13	229.22
885.44	229.18
885.74	229.09
886.05	229.01
886.36	229.10
886.67	229.04
886.98	229.12
887.28	229.12
887.59	229.11
887.90	229.16
888.20	229.14
888.51	229.08
888.82	229.10
889.13	228.96
889.43	229.20
889.74	229.15
890.05	229.08
890.35	229.17
890.66	229.12
890.97	229.17
891.28	229.11
891.58	229.14
891.89	229.22
892.20	229.25
892.50	229.25
892.81	229.09
893.12	229.03
893.42	228.82
893.73	228.86
894.04	228.79
894.34	228.64
894.65	228.61
894.95	228.62
895.26	228.50
895.57	228.63
895.87	228.46
896.18	228.43
896.48	228.48
896.79	228.44
897.10	228.34
897.40	228.29
897.71	228.28
898.01	228.20
898.32	228.19
898.63	228.17
898.93	228.15
899.24	228.21
899.54	228.15
899.85	228.16
900.15	228.14
900.46	228.16
900.76	228.22
901.07	228.15
901.38	228.30
901.68	228.43
901.99	228.33
902.29	228.24
902.60	228.21
902.90	228.13
903.21	228.04
903.51	227.99
903.82	228.03
904.12	228.00
904.43	228.05
904.73	228.00
905.03	227.90
905.34	228.04
905.64	228.05
905.95	228.21
906.25	228.28
906.56	228.33
906.86	228.24
907.17	228.25
907.47	228.32
907.77	228.27
908.08	228.22
908.38	228.28
908.69	228.27
908.99	228.36
909.30	228.41
909.60	228.53
909.90	228.68
910.21	228.70
910.51	228.66
910.81	228.70
911.12	228.70
911.42	228.82
911.73	228.79
912.03	228.79
912.33	228.78
912.64	228.70
912.94	228.59
913.24	228.75
913.55	228.68
913.85	228.62
914.15	228.62
914.46	228.72
914.76	228.70
915.06	228.77
915.37	228.72
915.67	228.78
915.97	228.82
916.27	228.85
916.58	228.84
916.88	228.88
917.18	228.83
917.49	228.96
917.79	228.87
918.09	228.76
918.39	228.85
918.70	228.83
919.00	228.91
919.30	229.06
919.60	229.03
919.91	228.99
920.21	229.17
920.51	229.02
920.81	228.89
921.12	228.91
921.42	228.88
921.72	228.88
922.02	228.92
922.32	228.86
922.63	228.85
922.93	228.92
923.23	228.89
923.53	228.93
923.83	228.80
924.13	228.86
924.44	228.90
924.74	228.90
925.04	228.92
925.34	228.80
925.64	228.74
925.94	228.73
926.24	228.72
926.55	228.56
926.85	228.62
927.15	228.70
927.45	228.64
927.75	228.60
928.05	228.60
928.35	228.41
928.65	228.38
928.95	228.32
929.26	228.26
929.56	228.26
929.86	228.20
930.16	228.25
930.46	228.28
930.76	228.21
931.06	228.09
931.36	228.06
931.66	228.10
931.96	228.09
932.26	227.98
932.56	227.99
932.86	228.04
933.16	228.00
933.46	227.91
933.76	227.94
934.06	228.09
934.36	228.11
934.66	228.13
934.96	228.19
935.26	228.17
935.56	228.18
935.86	228.18
936.16	228.17
936.46	228.12
936.76	228.10
937.06	228.10
937.36	228.19
937.66	228.19
937.96	228.21
938.26	228.17
938.56	228.24
938.86	228.26
939.16	228.31
939.46	228.42
939.76	228.48
940.06	228.41
940.35	228.34
940.65	228.36
940.95	228.40
941.25	228.34
941.55	228.34
941.85	228.30
942.15	228.33
942.45	228.39
942.75	228.42
943.04	228.39
943.34	228.55
943.64	228.50
943.94	228.42
944.24	228.40
944.54	228.44
944.84	228.47
945.13	228.41
945.43	228.40
945.73	228.38
946.03	228.36
946.33	228.41
946.62	228.36
946.92	228.25
947.22	228.21
947.52	228.38
947.82	228.39
948.11	228.39
948.41	228.44
948.71	228.41
949.01	228.35
949.31	228.40
949.60	228.27
949.90	228.31
950.20	228.39
950.50	228.48
950.79	228.41
951.09	228.40
951.39	228.55
951.69	228.54
951.98	228.48
952.28	228.55
952.58	228.50
952.87	228.56
953.17	228.70
953.47	228.69
953.76	228.71
954.06	228.71
954.36	228.79
954.66	228.72
954.95	228.79
955.25	228.86
955.55	228.83
955.84	228.80
956.14	228.90
956.44	228.85
956.73	228.76
957.03	228.83
957.32	228.84
957.62	228.75
957.92	228.82
958.21	228.84
958.51	228.88
958.81	229.01
959.10	229.03
959.40	229.06
959.69	229.13
959.99	229.10
960.29	229.15
960.58	229.05
960.88	229.17
961.17	229.07
961.47	229.08
961.76	229.02
962.06	229.02
962.36	228.89
962.65	228.91
962.95	229.00
963.24	228.96
963.54	228.97
963.83	229.03
964.13	228.93
964.42	228.90
964.72	228.76
965.01	228.74
965.31	228.65
965.60	228.52
965.90	228.63
966.19	228.56
966.49	228.51
966.78	228.51
967.08	228.35
967.37	228.40
967.67	228.36
967.96	228.45
968.26	228.45
968.55	228.52
968.85	228.58
969.14	228.49
969.43	228.45
969.73	228.37
970.02	228.37
970.32	228.28
970.61	228.30
970.91	228.23
971.20	228.07
971.49	228.11
971.79	228.06
972.08	227.90
972.38	227.78
972.67	227.82
972.96	227.84
973.26	227.87
973.55	227.99
973.85	227.98
974.14	227.94
974.43	227.98
974.73	227.82
975.02	227.79
975.31	227.85
975.61	227.89
975.90	228.00
976.19	227.88
976.49	227.99
976.78	227.92
977.07	228.03
977.37	228.08
977.66	228.13
977.95	228.14
978.24	228.17
978.54	228.31
978.83	228.26
979.12	228.20
979.42	228.24
979.71	228.10
980.00	228.11
980.29	228.15
980.59	228.04
980.88	228.14
981.17	228.13
981.46	228.13
981.76	228.18
982.05	228.15
982.34	228.26
982.63	228.30
982.93	228.45
983.22	228.45
983.51	228.52
983.80	228.54
984.09	228.73
984.39	228.77
984.68	228.71
984.97	228.68
985.26	228.68
985.55	228.70
985.85	228.73
986.14	228.77
986.43	228.80
986.72	228.99
987.01	228.94
987.30	228.97
987.59	228.90
987.89	228.80
988.18	228.79
988.47	228.69
988.76	228.66
989.05	228.61
989.34	228.63
989.63	228.71
989.92	228.60
990.22	228.50
990.51	228.40
990.80	228.40
991.09	228.48
991.38	228.62
991.67	228.55
991.96	228.59
992.25	228.60
992.54	228.60
992.83	228.53
993.12	228.52
993.41	228.59
993.70	228.65
993.99	228.66
994.28	228.64
994.58	228.74
994.87	228.69
995.16	228.69
995.45	228.65
995.74	228.53
996.03	228.61
996.32	228.67
996.61	228.74
996.90	228.74
997.19	228.75
997.48	228.68
997.77	228.74
998.06	228.74
998.34	228.58
998.63	228.51
998.92	228.50
999.21	228.55
999.50	228.52
999.79	228.56
1000.08	228.60
1000.37	228.65
1000.66	228.69
1000.95	228.76
1001.24	228.78
1001.53	228.75
1001.82	228.72
1002.11	228.73
1002.40	228.62
1002.68	228.67
1002.97	228.81
1003.26	228.87
1003.55	228.94
1003.84	228.92
1004.13	228.96
1004.42	229.07
1004.71	229.04
1004.99	229.06
1005.28	229.10
1005.57	229.07
1005.86	229.00
1006.15	228.92
1006.44	228.88
1006.72	228.83
1007.01	228.87
1007.30	228.87
1007.59	229.00
1007.88	228.97
1008.17	228.96
1008.45	229.03
1008.74	228.91
1009.03	228.84
1009.32	228.72
1009.60	228.60
1009.89	228.53
1010.18	228.48
1010.47	228.41
1010.76	228.43
1011.04	228.38
1011.33	228.36
1011.62	228.38
1011.91	228.34
1012.19	228.43
1012.48	228.33
1012.77	228.25
1013.05	228.22
1013.34	228.21
1013.63	228.03
1013.92	228.04
1014.20	227.98
1014.49	227.91
1014.78	227.99
1015.06	227.79
1015.35	227.83
1015.64	227.91
1015.92	228.02
1016.21	227.97
1016.50	228.01
1016.78	228.02
1017.07	228.04
1017.36	227.88
1017.64	227.80
1017.93	227.86
1018.22	227.80
1018.50	227.80
1018.79	227.88
1019.08	227.71
1019.36	227.63
1019.65	227.60
1019.93	227.64
1020.22	227.69
1020.51	227.82
1020.79	227.70
1021.08	227.70
1021.36	226.00
1021.65	229.00
1021.94	226.00
1022.22	227.40
1022.51	226.30
1022.79	228.00
1023.08	228.20
1023.36	231.00
1023.65	226.10
>>>>>End Processed Spectral Data<<<<<
