SpectraSuite Data File
++++++++++++++++++++++++++++++++++++
Date: Fri Feb 01 14:38:16 EST 2013
User: group
Dark Spectrum Present: No
Reference Spectrum Present: No
Number of Sampled Component Spectra: 1
Spectrometers: USB2E7196
Integration Time (usec): 70000 (USB2E7196)
Spectra Averaged: 10 (USB2E7196)
Boxcar Smoothing: 10 (USB2E7196)
Correct for Electrical Dark: No (USB2E7196)
Strobe/Lamp Enabled: No (USB2E7196)
Correct for Detector Non-linearity: No (USB2E7196)
Correct for Stray Light: No (USB2E7196)
Number of Pixels in Processed Spectrum: 2048
>>>>>Begin Processed Spectral Data<<<<<
339.09	0.00
339.48	217.20
339.86	219.00
340.24	217.70
340.63	220.50
341.01	225.70
341.39	224.70
341.78	224.60
342.16	225.30
342.54	225.60
342.93	214.70
343.31	225.56
343.69	226.08
344.07	226.40
344.46	226.86
344.84	227.25
345.22	227.40
345.60	227.54
345.99	227.80
346.37	227.89
346.75	227.95
347.13	227.96
347.52	227.97
347.90	228.01
348.28	228.07
348.66	228.20
349.05	228.06
349.43	228.15
349.81	228.22
350.19	228.30
350.57	228.49
350.96	228.48
351.34	228.45
351.72	228.50
352.10	228.63
352.48	228.65
352.87	228.62
353.25	228.63
353.63	228.67
354.01	228.60
354.39	228.70
354.77	228.82
355.15	228.88
355.54	228.80
355.92	228.81
356.30	228.99
356.68	229.06
357.06	229.17
357.44	229.15
357.82	229.10
358.20	229.06
358.58	229.04
358.97	229.10
359.35	229.15
359.73	229.24
360.11	229.32
360.49	229.43
360.87	229.47
361.25	229.46
361.63	229.61
362.01	229.77
362.39	229.80
362.77	229.75
363.15	229.81
363.53	229.93
363.91	230.05
364.29	229.92
364.67	229.80
365.05	229.86
365.43	229.86
365.81	230.00
366.19	230.08
366.57	230.14
366.95	230.11
367.33	230.10
367.71	229.95
368.09	229.96
368.47	229.96
368.85	229.96
369.23	229.96
369.61	229.90
369.99	229.88
370.37	229.79
370.75	229.81
371.13	229.70
371.51	229.60
371.89	229.46
372.27	229.46
372.65	229.47
373.03	229.40
373.41	229.37
373.78	229.25
374.16	229.12
374.54	228.98
374.92	228.86
375.30	228.81
375.68	228.83
376.06	228.80
376.44	228.70
376.82	228.67
377.19	228.61
377.57	228.46
377.95	228.22
378.33	228.24
378.71	228.19
379.09	228.12
379.47	228.06
379.84	228.07
380.22	227.92
380.60	227.89
380.98	227.85
381.36	227.72
381.73	227.69
382.11	227.74
382.49	227.65
382.87	227.55
383.25	227.48
383.62	227.66
384.00	227.50
384.38	227.47
384.76	227.43
385.13	227.45
385.51	227.45
385.89	227.41
386.27	227.31
386.64	227.26
387.02	227.25
387.40	227.22
387.78	227.09
388.15	227.06
388.53	226.85
388.91	226.79
389.29	226.72
389.66	226.60
390.04	226.45
390.42	226.43
390.79	226.36
391.17	226.28
391.55	226.02
391.92	226.03
392.30	225.96
392.68	225.95
393.05	225.98
393.43	225.92
393.81	225.97
394.18	226.04
394.56	226.04
394.94	226.14
395.31	226.12
395.69	226.15
396.06	226.19
396.44	226.27
396.82	226.30
397.19	226.49
397.57	226.51
397.95	226.62
398.32	226.65
398.70	226.77
399.07	226.89
399.45	227.01
399.82	226.98
400.20	227.04
400.58	227.10
400.95	227.07
401.33	227.16
401.70	227.35
402.08	227.42
402.45	227.60
402.83	227.64
403.20	227.79
403.58	228.08
403.95	228.24
404.33	228.44
404.71	228.64
405.08	228.84
405.46	229.00
405.83	229.09
406.21	229.32
406.58	229.56
406.96	229.80
407.33	229.90
407.70	230.25
408.08	230.60
408.45	230.82
408.83	231.20
409.20	231.45
409.58	231.59
409.95	231.94
410.33	232.23
410.70	232.60
411.08	233.00
411.45	233.31
411.82	233.70
412.20	234.12
412.57	234.72
412.95	235.03
413.32	235.60
413.69	236.27
414.07	236.79
414.44	237.49
414.82	238.20
415.19	238.95
415.56	239.72
415.94	240.38
416.31	241.20
416.68	241.95
417.06	242.92
417.43	243.91
417.81	244.90
418.18	245.98
418.55	247.10
418.93	248.16
419.30	249.34
419.67	250.60
420.04	251.88
420.42	253.13
420.79	254.81
421.16	256.36
421.54	257.98
421.91	259.63
422.28	261.40
422.66	263.11
423.03	264.93
423.40	266.73
423.77	268.66
424.15	270.74
424.52	272.78
424.89	275.00
425.26	277.16
425.64	279.20
426.01	281.46
426.38	283.74
426.75	286.25
427.13	288.67
427.50	291.26
427.87	293.96
428.24	296.57
428.61	299.03
428.99	301.98
429.36	304.99
429.73	308.00
430.10	310.96
430.47	314.03
430.85	317.16
431.22	320.46
431.59	324.16
431.96	327.39
432.33	331.11
432.70	334.72
433.08	338.87
433.45	342.73
433.82	346.56
434.19	350.96
434.56	355.12
434.93	359.19
435.30	363.29
435.68	367.85
436.05	372.24
436.42	376.67
436.79	380.39
437.16	384.59
437.53	389.07
437.90	393.38
438.27	397.73
438.64	402.20
439.01	406.25
439.38	409.84
439.75	413.49
440.13	417.59
440.50	421.25
440.87	424.48
441.24	427.78
441.61	431.47
441.98	434.15
442.35	437.25
442.72	440.65
443.09	443.67
443.46	445.48
443.83	446.89
444.20	447.94
444.57	449.71
444.94	450.52
445.31	451.52
445.68	452.62
446.05	453.26
446.42	453.21
446.79	453.21
447.16	452.94
447.53	452.92
447.90	451.67
448.27	450.67
448.64	448.57
449.01	447.48
449.37	445.01
449.74	442.48
450.11	439.48
450.48	436.03
450.85	432.57
451.22	429.60
451.59	426.79
451.96	424.20
452.33	420.46
452.70	417.15
453.07	413.01
453.43	408.70
453.80	404.60
454.17	400.74
454.54	397.15
454.91	393.31
455.28	389.33
455.65	385.52
456.02	381.94
456.38	378.86
456.75	374.77
457.12	371.28
457.49	367.95
457.86	364.84
458.23	362.12
458.59	359.05
458.96	355.99
459.33	353.22
459.70	350.43
460.07	348.30
460.43	345.82
460.80	343.35
461.17	341.25
461.54	339.03
461.91	336.80
462.27	334.32
462.64	332.32
463.01	330.27
463.38	328.43
463.74	326.21
464.11	324.32
464.48	322.71
464.85	320.96
465.21	319.61
465.58	318.17
465.95	316.34
466.32	314.86
466.68	313.40
467.05	311.94
467.42	310.61
467.78	309.10
468.15	307.52
468.52	306.55
468.88	305.16
469.25	303.86
469.62	302.80
469.98	301.75
470.35	300.62
470.72	299.58
471.08	298.30
471.45	297.28
471.82	296.41
472.18	295.33
472.55	294.54
472.92	293.65
473.28	292.63
473.65	291.78
474.02	291.05
474.38	290.30
474.75	289.55
475.11	288.83
475.48	288.17
475.85	287.69
476.21	287.14
476.58	286.64
476.94	286.18
477.31	285.59
477.67	285.05
478.04	284.61
478.41	284.30
478.77	284.05
479.14	283.62
479.50	283.25
479.87	282.95
480.23	282.63
480.60	282.29
480.96	281.97
481.33	281.79
481.69	281.65
482.06	281.40
482.42	281.20
482.79	280.90
483.15	280.83
483.52	280.75
483.88	280.55
484.25	280.44
484.61	280.39
484.98	280.43
485.34	280.53
485.71	280.55
486.07	280.40
486.44	280.48
486.80	280.52
487.17	280.63
487.53	280.85
487.90	281.15
488.26	281.27
488.62	281.54
488.99	281.70
489.35	281.78
489.72	282.15
490.08	282.40
490.44	282.58
490.81	282.80
491.17	283.04
491.54	283.31
491.90	283.48
492.26	283.68
492.63	283.89
492.99	284.10
493.36	284.50
493.72	285.05
494.08	285.30
494.45	285.76
494.81	286.11
495.17	286.48
495.54	286.78
495.90	287.13
496.26	287.55
496.63	288.00
496.99	288.36
497.35	288.80
497.72	289.12
498.08	289.76
498.44	290.08
498.80	290.57
499.17	290.93
499.53	291.38
499.89	291.90
500.26	292.29
500.62	292.76
500.98	293.01
501.34	293.37
501.71	293.86
502.07	294.12
502.43	294.52
502.79	294.79
503.16	295.10
503.52	295.47
503.88	295.82
504.24	296.19
504.60	296.57
504.97	296.70
505.33	297.10
505.69	297.30
506.05	297.64
506.41	297.84
506.78	298.17
507.14	298.46
507.50	298.71
507.86	299.05
508.22	299.36
508.59	299.82
508.95	300.20
509.31	300.52
509.67	300.90
510.03	301.16
510.39	301.52
510.75	301.86
511.12	302.21
511.48	302.46
511.84	302.73
512.20	303.19
512.56	303.69
512.92	304.18
513.28	304.67
513.64	305.26
514.00	305.79
514.37	306.33
514.73	306.89
515.09	307.49
515.45	308.15
515.81	308.89
516.17	309.50
516.53	310.15
516.89	310.88
517.25	311.82
517.61	312.74
517.97	313.72
518.33	314.71
518.69	315.92
519.05	317.22
519.41	318.40
519.77	319.81
520.13	321.16
520.49	322.51
520.85	323.85
521.21	325.31
521.57	327.15
521.93	328.92
522.29	330.71
522.65	332.57
523.01	334.42
523.37	336.23
523.73	338.20
524.09	340.31
524.45	342.47
524.81	344.62
525.17	347.13
525.53	349.58
525.89	352.09
526.25	354.55
526.61	357.03
526.97	359.73
527.33	362.25
527.68	365.34
528.04	368.34
528.40	371.49
528.76	374.60
529.12	377.62
529.48	380.88
529.84	384.18
530.20	387.66
530.56	391.20
530.91	394.87
531.27	398.76
531.63	402.58
531.99	406.52
532.35	410.47
532.71	414.26
533.07	418.43
533.42	422.85
533.78	427.08
534.14	431.32
534.50	435.70
534.86	440.30
535.21	444.59
535.57	449.26
535.93	453.78
536.29	458.62
536.65	463.49
537.00	468.29
537.36	473.15
537.72	477.94
538.08	482.79
538.44	487.77
538.79	492.79
539.15	497.71
539.51	502.94
539.87	508.47
540.22	513.81
540.58	519.12
540.94	524.25
541.29	529.49
541.65	535.13
542.01	540.75
542.37	546.30
542.72	552.01
543.08	557.35
543.44	562.99
543.79	568.40
544.15	573.99
544.51	579.60
544.87	585.37
545.22	591.07
545.58	596.91
545.94	602.48
546.29	608.14
546.65	613.85
547.01	619.35
547.36	624.74
547.72	630.42
548.07	635.75
548.43	641.42
548.79	647.15
549.14	652.43
549.50	657.73
549.86	663.03
550.21	668.23
550.57	673.99
550.92	679.61
551.28	685.02
551.64	690.42
551.99	695.96
552.35	701.34
552.70	706.68
553.06	712.08
553.41	717.60
553.77	723.08
554.13	728.55
554.48	734.05
554.84	739.15
555.19	744.05
555.55	749.60
555.90	754.48
556.26	759.81
556.61	765.21
556.97	770.23
557.32	775.74
557.68	780.98
558.03	785.87
558.39	790.97
558.74	796.34
559.10	801.32
559.45	806.25
559.81	811.52
560.16	816.55
560.52	821.50
560.87	826.42
561.23	830.73
561.58	835.56
561.94	840.13
562.29	844.73
562.64	849.61
563.00	853.89
563.35	858.91
563.71	863.59
564.06	868.03
564.42	872.92
564.77	876.97
565.12	881.48
565.48	885.91
565.83	889.78
566.19	893.84
566.54	897.56
566.89	901.44
567.25	905.16
567.60	909.24
567.96	912.86
568.31	916.40
568.66	920.36
569.02	923.76
569.37	927.20
569.72	930.89
570.08	934.05
570.43	937.54
570.78	940.45
571.14	942.96
571.49	945.83
571.84	948.68
572.20	951.46
572.55	953.94
572.90	956.23
573.26	958.96
573.61	961.40
573.96	964.20
574.31	966.21
574.67	967.95
575.02	969.38
575.37	971.28
575.72	972.90
576.08	974.59
576.43	975.87
576.78	977.70
577.13	979.37
577.49	981.00
577.84	982.39
578.19	983.71
578.54	985.17
578.90	985.97
579.25	986.45
579.60	987.39
579.95	988.34
580.30	989.12
580.66	989.81
581.01	990.18
581.36	990.63
581.71	991.39
582.06	992.44
582.42	992.86
582.77	993.35
583.12	993.87
583.47	994.45
583.82	995.29
584.17	995.45
584.53	995.32
584.88	995.54
585.23	995.70
585.58	995.71
585.93	995.80
586.28	996.46
586.63	996.90
586.98	997.31
587.34	997.11
587.69	997.02
588.04	996.90
588.39	997.13
588.74	996.25
589.09	996.11
589.44	995.11
589.79	994.94
590.14	994.75
590.49	994.31
590.84	993.21
591.19	992.55
591.54	991.28
591.89	990.15
592.25	989.19
592.60	987.81
592.95	986.47
593.30	985.29
593.65	984.01
594.00	982.60
594.35	981.40
594.70	979.64
595.05	978.66
595.40	977.06
595.75	974.98
596.10	974.15
596.45	972.81
596.80	971.87
597.15	970.61
597.50	968.80
597.85	967.50
598.19	966.63
598.54	965.30
598.89	964.22
599.24	963.26
599.59	961.58
599.94	960.53
600.29	959.29
600.64	957.98
600.99	956.21
601.34	954.68
601.69	952.65
602.04	951.44
602.39	949.39
602.74	948.07
603.08	946.78
603.43	945.38
603.78	943.66
604.13	941.60
604.48	939.85
604.83	938.26
605.18	936.25
605.53	933.78
605.87	931.42
606.22	929.35
606.57	927.03
606.92	925.15
607.27	922.81
607.62	920.92
607.96	918.40
608.31	916.51
608.66	914.10
609.01	911.71
609.36	909.07
609.70	906.36
610.05	903.70
610.40	900.99
610.75	898.11
611.10	895.10
611.44	892.35
611.79	889.63
612.14	886.41
612.49	883.23
612.83	880.43
613.18	877.45
613.53	874.72
613.88	871.73
614.22	868.60
614.57	865.23
614.92	861.84
615.27	859.23
615.61	855.81
615.96	852.83
616.31	850.03
616.65	847.46
617.00	844.85
617.35	841.72
617.70	838.70
618.04	835.40
618.39	832.41
618.74	829.52
619.08	826.15
619.43	823.57
619.78	820.79
620.12	817.87
620.47	815.05
620.82	811.68
621.16	808.81
621.51	806.00
621.85	803.23
622.20	800.21
622.55	796.94
622.89	794.26
623.24	791.52
623.59	788.39
623.93	785.47
624.28	782.50
624.62	779.60
624.97	776.79
625.32	774.15
625.66	771.29
626.01	768.19
626.35	765.33
626.70	762.27
627.04	759.43
627.39	756.51
627.73	753.48
628.08	750.69
628.43	747.61
628.77	744.59
629.12	741.64
629.46	738.70
629.81	735.52
630.15	732.11
630.50	728.96
630.84	725.45
631.19	722.03
631.53	718.84
631.88	715.65
632.22	712.26
632.57	708.98
632.91	705.74
633.26	702.60
633.60	699.35
633.95	696.32
634.29	693.37
634.64	690.48
634.98	687.41
635.32	684.50
635.67	681.80
636.01	678.86
636.36	675.96
636.70	673.15
637.05	670.23
637.39	667.48
637.73	664.49
638.08	662.20
638.42	659.72
638.77	657.19
639.11	654.22
639.45	651.64
639.80	648.83
640.14	646.18
640.49	643.48
640.83	640.75
641.17	637.95
641.52	634.99
641.86	631.86
642.20	629.01
642.55	625.90
642.89	622.90
643.23	620.12
643.58	617.52
643.92	614.68
644.26	612.23
644.61	609.50
644.95	607.02
645.29	604.04
645.64	600.93
645.98	598.06
646.32	595.65
646.66	592.72
647.01	589.98
647.35	587.20
647.69	584.36
648.04	581.84
648.38	578.72
648.72	575.79
649.06	573.13
649.41	570.41
649.75	567.78
650.09	564.97
650.43	562.08
650.78	559.09
651.12	556.20
651.46	553.42
651.80	550.83
652.14	548.04
652.49	545.29
652.83	542.79
653.17	539.90
653.51	537.03
653.85	534.50
654.20	531.68
654.54	528.91
654.88	526.31
655.22	523.48
655.56	520.84
655.90	518.57
656.25	515.85
656.59	513.34
656.93	510.81
657.27	508.31
657.61	505.81
657.95	503.30
658.29	500.94
658.64	498.32
658.98	495.45
659.32	492.82
659.66	490.36
660.00	487.80
660.34	485.46
660.68	483.00
661.02	480.42
661.36	478.12
661.70	475.64
662.05	473.55
662.39	471.44
662.73	469.28
663.07	466.95
663.41	464.77
663.75	462.54
664.09	460.37
664.43	458.19
664.77	456.00
665.11	453.93
665.45	451.87
665.79	449.79
666.13	447.94
666.47	445.83
666.81	443.69
667.15	441.47
667.49	439.37
667.83	437.33
668.17	435.47
668.51	433.53
668.85	431.84
669.19	429.82
669.53	427.78
669.87	425.79
670.21	423.89
670.55	422.07
670.89	420.50
671.23	418.81
671.57	417.03
671.91	415.38
672.25	413.54
672.58	411.88
672.92	410.10
673.26	408.37
673.60	406.84
673.94	405.31
674.28	403.91
674.62	402.48
674.96	400.78
675.30	399.13
675.64	397.66
675.97	396.03
676.31	394.47
676.65	392.93
676.99	391.62
677.33	390.00
677.67	388.46
678.01	386.55
678.34	385.00
678.68	383.57
679.02	381.97
679.36	380.60
679.70	378.99
680.04	377.47
680.37	375.96
680.71	374.37
681.05	373.10
681.39	371.65
681.73	370.16
682.06	368.94
682.40	367.70
682.74	366.19
683.08	365.01
683.42	363.60
683.75	362.20
684.09	360.80
684.43	359.58
684.77	358.34
685.10	357.24
685.44	355.91
685.78	354.58
686.12	353.47
686.45	352.20
686.79	350.88
687.13	349.72
687.46	348.64
687.80	347.56
688.14	346.08
688.48	344.84
688.81	343.67
689.15	342.58
689.49	341.39
689.82	340.42
690.16	339.01
690.50	337.89
690.83	336.89
691.17	335.68
691.51	334.49
691.84	333.42
692.18	332.16
692.52	331.03
692.85	330.01
693.19	328.89
693.52	327.79
693.86	326.78
694.20	325.72
694.53	324.70
694.87	323.57
695.21	322.62
695.54	321.54
695.88	320.39
696.21	319.23
696.55	318.24
696.88	317.14
697.22	316.31
697.56	315.45
697.89	314.37
698.23	313.54
698.56	312.58
698.90	311.56
699.23	310.61
699.57	309.71
699.90	308.71
700.24	307.72
700.58	306.77
700.91	305.88
701.25	305.12
701.58	304.33
701.92	303.47
702.25	302.55
702.59	301.82
702.92	301.28
703.26	300.61
703.59	299.90
703.93	299.23
704.26	298.28
704.60	297.42
704.93	296.67
705.26	295.89
705.60	295.21
705.93	294.60
706.27	294.02
706.60	293.25
706.94	292.56
707.27	291.73
707.61	291.12
707.94	290.47
708.27	289.69
708.61	288.81
708.94	288.17
709.28	287.55
709.61	286.99
709.94	286.25
710.28	285.56
710.61	284.84
710.95	284.12
711.28	283.67
711.61	283.05
711.95	282.55
712.28	281.92
712.61	281.30
712.95	280.73
713.28	280.20
713.61	279.71
713.95	279.14
714.28	278.73
714.61	278.14
714.95	277.57
715.28	276.98
715.61	276.45
715.95	275.91
716.28	275.38
716.61	274.75
716.95	274.16
717.28	273.71
717.61	273.14
717.94	272.72
718.28	272.26
718.61	271.86
718.94	271.32
719.27	270.77
719.61	270.38
719.94	269.85
720.27	269.36
720.60	268.89
720.94	268.59
721.27	268.18
721.60	267.84
721.93	267.50
722.27	267.08
722.60	266.83
722.93	266.50
723.26	266.19
723.59	265.82
723.93	265.53
724.26	265.08
724.59	264.80
724.92	264.37
725.25	263.94
725.59	263.45
725.92	263.20
726.25	262.83
726.58	262.42
726.91	262.03
727.24	261.78
727.57	261.33
727.91	260.94
728.24	260.54
728.57	260.19
728.90	259.85
729.23	259.50
729.56	259.15
729.89	258.75
730.22	258.40
730.55	258.09
730.89	257.67
731.22	257.36
731.55	257.06
731.88	256.81
732.21	256.44
732.54	256.14
732.87	255.70
733.20	255.53
733.53	255.17
733.86	254.95
734.19	254.51
734.52	254.32
734.85	254.13
735.18	253.90
735.51	253.53
735.84	253.24
736.17	253.08
736.50	252.71
736.83	252.62
737.16	252.33
737.49	252.03
737.82	251.73
738.15	251.57
738.48	251.29
738.81	251.01
739.14	250.77
739.47	250.54
739.80	250.32
740.13	250.08
740.46	249.80
740.79	249.51
741.12	249.30
741.45	249.03
741.78	248.57
742.11	248.38
742.44	248.22
742.77	248.03
743.10	247.73
743.43	247.40
743.75	247.04
744.08	247.10
744.41	246.87
744.74	246.79
745.07	246.51
745.40	246.44
745.73	246.26
746.06	246.08
746.39	245.95
746.71	245.74
747.04	245.46
747.37	245.30
747.70	245.22
748.03	245.04
748.36	244.88
748.68	244.88
749.01	244.65
749.34	244.49
749.67	244.28
750.00	244.15
750.33	244.21
750.65	244.01
750.98	243.62
751.31	243.52
751.64	243.38
751.97	243.34
752.29	243.13
752.62	242.96
752.95	242.82
753.28	242.61
753.60	242.51
753.93	242.53
754.26	242.53
754.59	242.30
754.91	242.15
755.24	241.96
755.57	241.82
755.90	241.63
756.22	241.49
756.55	241.32
756.88	241.25
757.20	240.99
757.53	240.94
757.86	240.76
758.19	240.63
758.51	240.41
758.84	240.11
759.17	239.95
759.49	239.81
759.82	239.72
760.15	239.64
760.47	239.57
760.80	239.37
761.13	239.16
761.45	239.03
761.78	238.86
762.11	238.82
762.43	238.64
762.76	238.62
763.08	238.52
763.41	238.39
763.74	238.27
764.06	238.14
764.39	237.93
764.71	237.80
765.04	237.67
765.37	237.61
765.69	237.59
766.02	237.46
766.34	237.26
766.67	237.13
767.00	237.09
767.32	237.08
767.65	237.10
767.97	236.95
768.30	236.88
768.62	236.81
768.95	236.78
769.27	236.73
769.60	236.67
769.92	236.49
770.25	236.47
770.57	236.34
770.90	236.32
771.22	236.31
771.55	236.33
771.87	236.15
772.20	236.05
772.52	236.05
772.85	236.25
773.17	236.22
773.50	236.13
773.82	235.97
774.15	235.75
774.47	235.46
774.80	235.42
775.12	235.34
775.45	235.25
775.77	234.99
776.09	234.82
776.42	234.68
776.74	234.65
777.07	234.55
777.39	234.43
777.72	234.32
778.04	234.15
778.36	233.92
778.69	233.93
779.01	233.90
779.33	233.70
779.66	233.39
779.98	233.31
780.31	233.21
780.63	233.23
780.95	233.22
781.28	233.26
781.60	233.18
781.92	233.06
782.25	233.00
782.57	233.00
782.89	232.95
783.22	232.90
783.54	232.76
783.86	232.70
784.19	232.66
784.51	232.56
784.83	232.51
785.16	232.53
785.48	232.55
785.80	232.47
786.12	232.48
786.45	232.37
786.77	232.37
787.09	232.35
787.42	232.30
787.74	232.21
788.06	232.17
788.38	232.16
788.71	232.20
789.03	232.13
789.35	232.27
789.67	232.18
789.99	232.07
790.32	232.16
790.64	232.24
790.96	232.35
791.28	232.32
791.61	232.34
791.93	232.31
792.25	232.26
792.57	232.44
792.89	232.33
793.21	232.39
793.54	232.28
793.86	232.27
794.18	232.20
794.50	232.11
794.82	232.06
795.14	232.08
795.47	232.14
795.79	232.20
796.11	232.18
796.43	232.19
796.75	232.30
797.07	232.30
797.39	232.21
797.71	232.10
798.04	232.22
798.36	232.26
798.68	232.24
799.00	232.19
799.32	232.02
799.64	232.05
799.96	231.98
800.28	232.10
800.60	231.97
800.92	232.01
801.24	232.10
801.56	232.15
801.89	232.12
802.21	232.08
802.53	232.06
802.85	232.05
803.17	232.10
803.49	231.98
803.81	231.87
804.13	231.81
804.45	231.81
804.77	231.67
805.09	231.68
805.41	231.63
805.73	231.54
806.05	231.58
806.37	231.56
806.69	231.59
807.01	231.53
807.33	231.54
807.65	231.34
807.97	231.38
808.28	231.31
808.60	231.12
808.92	231.04
809.24	231.10
809.56	230.92
809.88	230.97
810.20	231.08
810.52	231.15
810.84	231.05
811.16	230.95
811.48	230.98
811.80	230.88
812.12	230.79
812.43	230.79
812.75	230.72
813.07	230.67
813.39	230.63
813.71	230.60
814.03	230.54
814.35	230.63
814.67	230.47
814.98	230.33
815.30	230.37
815.62	230.30
815.94	230.18
816.26	230.26
816.58	230.01
816.89	229.88
817.21	229.70
817.53	229.66
817.85	229.55
818.17	229.49
818.48	229.45
818.80	229.44
819.12	229.33
819.44	229.12
819.76	229.00
820.07	228.85
820.39	228.68
820.71	228.70
821.03	228.59
821.34	228.48
821.66	228.49
821.98	228.58
822.30	228.50
822.61	228.49
822.93	228.32
823.25	228.37
823.57	228.33
823.88	228.38
824.20	228.35
824.52	228.39
824.83	228.33
825.15	228.28
825.47	228.34
825.79	228.30
826.10	228.33
826.42	228.37
826.74	228.30
827.05	228.44
827.37	228.47
827.69	228.49
828.00	228.50
828.32	228.54
828.64	228.42
828.95	228.51
829.27	228.46
829.58	228.41
829.90	228.39
830.22	228.40
830.53	228.33
830.85	228.28
831.17	228.19
831.48	228.20
831.80	228.22
832.11	228.23
832.43	228.36
832.75	228.50
833.06	228.58
833.38	228.67
833.69	228.60
834.01	228.57
834.32	228.61
834.64	228.58
834.96	228.54
835.27	228.70
835.59	228.75
835.90	228.76
836.22	228.83
836.53	228.82
836.85	228.77
837.16	229.04
837.48	229.17
837.79	229.39
838.11	229.48
838.42	229.51
838.74	229.50
839.05	229.50
839.37	229.44
839.68	229.35
840.00	229.46
840.31	229.50
840.63	229.55
840.94	229.51
841.26	229.66
841.57	229.72
841.88	229.69
842.20	229.61
842.51	229.70
842.83	229.64
843.14	229.79
843.46	229.91
843.77	229.80
844.08	229.79
844.40	229.71
844.71	229.60
845.03	229.61
845.34	229.67
845.65	229.71
845.97	229.67
846.28	229.75
846.60	229.66
846.91	229.69
847.22	229.64
847.54	229.65
847.85	229.68
848.16	229.66
848.48	229.57
848.79	229.62
849.10	229.60
849.42	229.71
849.73	229.65
850.04	229.52
850.36	229.41
850.67	229.42
850.98	229.43
851.30	229.51
851.61	229.45
851.92	229.45
852.23	229.47
852.55	229.55
852.86	229.41
853.17	229.47
853.49	229.42
853.80	229.45
854.11	229.47
854.42	229.41
854.74	229.35
855.05	229.33
855.36	229.13
855.67	229.00
855.99	228.90
856.30	228.93
856.61	228.96
856.92	228.93
857.23	228.92
857.55	228.83
857.86	228.64
858.17	228.66
858.48	228.48
858.79	228.37
859.11	228.25
859.42	228.30
859.73	228.17
860.04	228.17
860.35	228.07
860.66	227.95
860.98	227.86
861.29	227.82
861.60	227.77
861.91	227.76
862.22	227.78
862.53	227.73
862.84	227.54
863.16	227.40
863.47	227.39
863.78	227.34
864.09	227.36
864.40	227.37
864.71	227.28
865.02	227.29
865.33	227.17
865.64	227.16
865.95	227.09
866.27	227.26
866.58	227.24
866.89	227.21
867.20	227.27
867.51	227.23
867.82	227.31
868.13	227.36
868.44	227.41
868.75	227.43
869.06	227.45
869.37	227.51
869.68	227.64
869.99	227.60
870.30	227.66
870.61	227.61
870.92	227.63
871.23	227.60
871.54	227.61
871.85	227.73
872.16	227.78
872.47	227.84
872.78	227.70
873.09	227.78
873.40	227.79
873.71	227.79
874.02	227.88
874.33	227.74
874.64	227.75
874.95	227.89
875.26	227.80
875.56	227.73
875.87	227.69
876.18	227.70
876.49	227.92
876.80	227.81
877.11	227.76
877.42	227.87
877.73	228.01
878.04	228.10
878.35	228.10
878.66	228.11
878.96	228.13
879.27	228.23
879.58	228.26
879.89	228.33
880.20	228.44
880.51	228.42
880.82	228.50
881.12	228.53
881.43	228.43
881.74	228.56
882.05	228.63
882.36	228.77
882.67	228.80
882.97	228.67
883.28	228.78
883.59	228.82
883.90	228.81
884.21	228.82
884.51	228.87
884.82	228.87
885.13	228.90
885.44	228.93
885.74	228.90
886.05	228.83
886.36	228.74
886.67	228.69
886.98	228.77
887.28	228.80
887.59	228.79
887.90	228.79
888.20	228.69
888.51	228.81
888.82	228.73
889.13	228.70
889.43	228.83
889.74	228.85
890.05	228.80
890.35	228.71
890.66	228.66
890.97	228.64
891.28	228.72
891.58	228.67
891.89	228.72
892.20	228.64
892.50	228.52
892.81	228.60
893.12	228.54
893.42	228.46
893.73	228.51
894.04	228.60
894.34	228.55
894.65	228.63
894.95	228.57
895.26	228.60
895.57	228.68
895.87	228.55
896.18	228.53
896.48	228.54
896.79	228.65
897.10	228.65
897.40	228.54
897.71	228.49
898.01	228.54
898.32	228.47
898.63	228.49
898.93	228.61
899.24	228.61
899.54	228.68
899.85	228.70
900.15	228.56
900.46	228.54
900.76	228.61
901.07	228.57
901.38	228.57
901.68	228.52
901.99	228.38
902.29	228.37
902.60	228.38
902.90	228.45
903.21	228.36
903.51	228.32
903.82	228.40
904.12	228.31
904.43	228.26
904.73	228.21
905.03	228.13
905.34	228.25
905.64	228.20
905.95	228.15
906.25	228.03
906.56	228.04
906.86	227.86
907.17	227.81
907.47	227.80
907.77	227.71
908.08	227.68
908.38	227.69
908.69	227.70
908.99	227.54
909.30	227.48
909.60	227.47
909.90	227.54
910.21	227.50
910.51	227.58
910.81	227.56
911.12	227.57
911.42	227.59
911.73	227.35
912.03	227.41
912.33	227.36
912.64	227.41
912.94	227.38
913.24	227.43
913.55	227.35
913.85	227.37
914.15	227.46
914.46	227.51
914.76	227.51
915.06	227.49
915.37	227.56
915.67	227.58
915.97	227.59
916.27	227.44
916.58	227.51
916.88	227.50
917.18	227.52
917.49	227.69
917.79	227.72
918.09	227.75
918.39	227.81
918.70	227.81
919.00	227.87
919.30	228.06
919.60	228.04
919.91	228.18
920.21	228.20
920.51	228.29
920.81	228.20
921.12	228.26
921.42	228.26
921.72	228.25
922.02	228.25
922.32	228.32
922.63	228.41
922.93	228.47
923.23	228.41
923.53	228.43
923.83	228.38
924.13	228.41
924.44	228.54
924.74	228.51
925.04	228.55
925.34	228.68
925.64	228.56
925.94	228.66
926.24	228.65
926.55	228.71
926.85	228.63
927.15	228.79
927.45	228.81
927.75	228.73
928.05	228.82
928.35	228.92
928.65	228.97
928.95	228.98
929.26	228.97
929.56	229.09
929.86	229.14
930.16	229.10
930.46	229.12
930.76	229.12
931.06	229.15
931.36	229.24
931.66	229.27
931.96	229.34
932.26	229.30
932.56	229.30
932.86	229.27
933.16	229.36
933.46	229.33
933.76	229.27
934.06	229.46
934.36	229.55
934.66	229.55
934.96	229.62
935.26	229.67
935.56	229.78
935.86	229.73
936.16	229.68
936.46	229.65
936.76	229.67
937.06	229.67
937.36	229.64
937.66	229.63
937.96	229.50
938.26	229.45
938.56	229.51
938.86	229.61
939.16	229.69
939.46	229.64
939.76	229.52
940.06	229.59
940.35	229.49
940.65	229.29
940.95	229.28
941.25	229.10
941.55	229.06
941.85	229.02
942.15	229.00
942.45	229.01
942.75	228.92
943.04	228.91
943.34	228.91
943.64	228.88
943.94	228.73
944.24	228.74
944.54	228.71
944.84	228.68
945.13	228.58
945.43	228.52
945.73	228.45
946.03	228.49
946.33	228.41
946.62	228.40
946.92	228.60
947.22	228.58
947.52	228.65
947.82	228.51
948.11	228.34
948.41	228.29
948.71	228.30
949.01	228.26
949.31	228.25
949.60	228.18
949.90	228.12
950.20	228.15
950.50	228.18
950.79	228.20
951.09	228.27
951.39	228.28
951.69	228.15
951.98	228.24
952.28	228.26
952.58	228.22
952.87	228.13
953.17	227.97
953.47	227.93
953.76	227.86
954.06	228.02
954.36	228.06
954.66	228.17
954.95	228.17
955.25	228.37
955.55	228.36
955.84	228.32
956.14	228.37
956.44	228.38
956.73	228.36
957.03	228.35
957.32	228.29
957.62	228.25
957.92	228.27
958.21	228.22
958.51	228.50
958.81	228.67
959.10	228.81
959.40	228.92
959.69	228.92
959.99	228.96
960.29	228.92
960.58	228.89
960.88	228.95
961.17	228.92
961.47	228.78
961.76	228.74
962.06	228.86
962.36	228.80
962.65	228.84
962.95	228.85
963.24	228.76
963.54	228.75
963.83	228.75
964.13	228.80
964.42	228.72
964.72	228.55
965.01	228.47
965.31	228.37
965.60	228.29
965.90	228.41
966.19	228.39
966.49	228.42
966.78	228.45
967.08	228.38
967.37	228.43
967.67	228.47
967.96	228.52
968.26	228.43
968.55	228.52
968.85	228.45
969.14	228.41
969.43	228.49
969.73	228.40
970.02	228.36
970.32	228.25
970.61	228.22
970.91	228.12
971.20	228.10
971.49	228.02
971.79	228.07
972.08	227.99
972.38	227.99
972.67	228.00
972.96	227.95
973.26	227.82
973.55	227.81
973.85	227.88
974.14	227.91
974.43	227.92
974.73	227.88
975.02	227.99
975.31	227.89
975.61	227.92
975.90	227.98
976.19	227.97
976.49	228.14
976.78	228.16
977.07	228.11
977.37	228.11
977.66	228.30
977.95	228.20
978.24	228.20
978.54	228.17
978.83	228.10
979.12	228.06
979.42	228.04
979.71	228.00
980.00	227.89
980.29	227.83
980.59	227.77
980.88	227.82
981.17	227.71
981.46	227.78
981.76	227.79
982.05	227.94
982.34	227.92
982.63	227.87
982.93	228.00
983.22	228.14
983.51	228.11
983.80	228.03
984.09	228.12
984.39	228.02
984.68	227.98
984.97	227.96
985.26	228.02
985.55	228.06
985.85	228.11
986.14	228.24
986.43	228.27
986.72	228.30
987.01	228.20
987.30	228.28
987.59	228.22
987.89	228.17
988.18	228.08
988.47	228.05
988.76	228.10
989.05	228.00
989.34	227.97
989.63	227.93
989.92	227.90
990.22	227.83
990.51	227.83
990.80	227.89
991.09	227.89
991.38	228.07
991.67	228.15
991.96	228.09
992.25	228.00
992.54	227.91
992.83	227.92
993.12	227.87
993.41	227.81
993.70	227.99
993.99	228.00
994.28	227.83
994.58	227.91
994.87	227.84
995.16	227.86
995.45	227.84
995.74	227.87
996.03	227.97
996.32	228.03
996.61	228.13
996.90	228.16
997.19	228.29
997.48	228.22
997.77	228.16
998.06	228.23
998.34	228.26
998.63	228.27
998.92	228.24
999.21	228.36
999.50	228.45
999.79	228.31
1000.08	228.40
1000.37	228.50
1000.66	228.68
1000.95	228.72
1001.24	228.68
1001.53	228.72
1001.82	228.67
1002.11	228.59
1002.40	228.61
1002.68	228.64
1002.97	228.82
1003.26	228.72
1003.55	228.70
1003.84	228.74
1004.13	228.77
1004.42	228.77
1004.71	228.90
1004.99	228.97
1005.28	229.15
1005.57	229.13
1005.86	229.19
1006.15	229.05
1006.44	229.02
1006.72	228.79
1007.01	228.80
1007.30	228.85
1007.59	228.72
1007.88	228.82
1008.17	228.88
1008.45	228.87
1008.74	228.79
1009.03	228.63
1009.32	228.66
1009.60	228.60
1009.89	228.50
1010.18	228.40
1010.47	228.37
1010.76	228.31
1011.04	228.27
1011.33	228.18
1011.62	228.20
1011.91	228.25
1012.19	228.40
1012.48	228.43
1012.77	228.47
1013.05	228.52
1013.34	228.49
1013.63	228.59
1013.92	228.59
1014.20	228.46
1014.49	228.43
1014.78	228.50
1015.06	228.55
1015.35	228.45
1015.64	228.41
1015.92	228.39
1016.21	228.46
1016.50	228.50
1016.78	228.45
1017.07	228.48
1017.36	228.35
1017.64	228.28
1017.93	228.15
1018.22	228.04
1018.50	228.04
1018.79	228.02
1019.08	227.96
1019.36	227.97
1019.65	227.88
1019.93	227.83
1020.22	227.93
1020.51	228.05
1020.79	227.97
1021.08	227.40
1021.36	227.80
1021.65	227.60
1021.94	228.90
1022.22	227.70
1022.51	227.00
1022.79	227.90
1023.08	228.20
1023.36	230.90
1023.65	227.60
>>>>>End Processed Spectral Data<<<<<
