SpectraSuite Data File
++++++++++++++++++++++++++++++++++++
Date: Fri Feb 01 14:39:49 EST 2013
User: group
Dark Spectrum Present: No
Reference Spectrum Present: No
Number of Sampled Component Spectra: 1
Spectrometers: USB2E7196
Integration Time (usec): 70000 (USB2E7196)
Spectra Averaged: 10 (USB2E7196)
Boxcar Smoothing: 10 (USB2E7196)
Correct for Electrical Dark: No (USB2E7196)
Strobe/Lamp Enabled: No (USB2E7196)
Correct for Detector Non-linearity: No (USB2E7196)
Correct for Stray Light: No (USB2E7196)
Number of Pixels in Processed Spectrum: 2048
>>>>>Begin Processed Spectral Data<<<<<
339.09	0.00
339.48	216.40
339.86	218.30
340.24	220.30
340.63	221.30
341.01	225.50
341.39	222.40
341.78	224.70
342.16	226.00
342.54	227.40
342.93	215.07
343.31	225.95
343.69	226.59
344.07	227.07
344.46	227.49
344.84	227.78
345.22	227.91
345.60	228.22
345.99	228.41
346.37	228.54
346.75	228.60
347.13	228.71
347.52	228.81
347.90	228.89
348.28	228.83
348.66	228.83
349.05	228.82
349.43	228.84
349.81	229.05
350.19	229.04
350.57	228.99
350.96	229.09
351.34	229.11
351.72	229.11
352.10	229.10
352.48	229.15
352.87	229.26
353.25	229.35
353.63	229.34
354.01	229.36
354.39	229.43
354.77	229.50
355.15	229.55
355.54	229.55
355.92	229.47
356.30	229.62
356.68	229.81
357.06	229.81
357.44	229.73
357.82	229.67
358.20	229.78
358.58	229.91
358.97	229.94
359.35	230.13
359.73	230.17
360.11	230.29
360.49	230.30
360.87	230.42
361.25	230.39
361.63	230.52
362.01	230.59
362.39	230.54
362.77	230.53
363.15	230.44
363.53	230.44
363.91	230.49
364.29	230.50
364.67	230.42
365.05	230.39
365.43	230.48
365.81	230.47
366.19	230.51
366.57	230.59
366.95	230.47
367.33	230.30
367.71	230.32
368.09	230.30
368.47	230.21
368.85	230.03
369.23	230.09
369.61	230.07
369.99	230.04
370.37	229.92
370.75	229.95
371.13	229.90
371.51	229.72
371.89	229.66
372.27	229.63
372.65	229.49
373.03	229.51
373.41	229.39
373.78	229.33
374.16	229.19
374.54	228.99
374.92	228.93
375.30	228.89
375.68	228.70
376.06	228.61
376.44	228.56
376.82	228.51
377.19	228.45
377.57	228.22
377.95	228.11
378.33	228.17
378.71	228.09
379.09	228.04
379.47	228.14
379.84	228.07
380.22	227.85
380.60	227.76
380.98	227.55
381.36	227.67
381.73	227.56
382.11	227.53
382.49	227.54
382.87	227.55
383.25	227.50
383.62	227.70
384.00	227.67
384.38	227.68
384.76	227.72
385.13	227.70
385.51	227.73
385.89	227.74
386.27	227.68
386.64	227.60
387.02	227.59
387.40	227.44
387.78	227.47
388.15	227.47
388.53	227.38
388.91	227.43
389.29	227.36
389.66	227.45
390.04	227.40
390.42	227.50
390.79	227.47
391.17	227.40
391.55	227.10
391.92	227.13
392.30	227.14
392.68	227.02
393.05	226.99
393.43	226.91
393.81	226.86
394.18	226.88
394.56	226.91
394.94	227.02
395.31	227.08
395.69	227.10
396.06	227.12
396.44	227.29
396.82	227.25
397.19	227.33
397.57	227.34
397.95	227.50
398.32	227.47
398.70	227.55
399.07	227.64
399.45	227.78
399.82	227.84
400.20	227.84
400.58	227.90
400.95	227.89
401.33	228.08
401.70	228.38
402.08	228.38
402.45	228.39
402.83	228.48
403.20	228.57
403.58	228.70
403.95	228.99
404.33	228.99
404.71	229.16
405.08	229.38
405.46	229.44
405.83	229.47
406.21	229.57
406.58	229.72
406.96	229.79
407.33	229.90
407.70	230.09
408.08	230.46
408.45	230.71
408.83	230.98
409.20	231.14
409.58	231.19
409.95	231.51
410.33	231.83
410.70	232.00
411.08	232.25
411.45	232.46
411.82	232.62
412.20	233.00
412.57	233.46
412.95	233.62
413.32	233.99
413.69	234.36
414.07	234.72
414.44	235.07
414.82	235.60
415.19	236.21
415.56	236.61
415.94	237.02
416.31	237.70
416.68	238.22
417.06	238.88
417.43	239.45
417.81	240.21
418.18	240.91
418.55	241.70
418.93	242.55
419.30	243.35
419.67	244.28
420.04	245.21
420.42	246.11
420.79	247.26
421.16	248.49
421.54	249.76
421.91	250.98
422.28	252.22
422.66	253.48
423.03	254.88
423.40	256.12
423.77	257.56
424.15	258.86
424.52	260.36
424.89	262.01
425.26	263.55
425.64	265.10
426.01	266.59
426.38	268.34
426.75	270.21
427.13	272.00
427.50	273.78
427.87	275.68
428.24	277.57
428.61	279.31
428.99	281.41
429.36	283.49
429.73	285.67
430.10	287.87
430.47	290.03
430.85	292.09
431.22	294.59
431.59	297.17
431.96	299.55
432.33	302.20
432.70	304.77
433.08	307.78
433.45	310.52
433.82	313.39
434.19	316.39
434.56	319.31
434.93	322.20
435.30	325.07
435.68	328.14
436.05	331.25
436.42	334.28
436.79	336.81
437.16	339.64
437.53	342.62
437.90	345.55
438.27	348.63
438.64	351.73
439.01	354.45
439.38	356.73
439.75	359.14
440.13	361.79
440.50	364.31
440.87	366.31
441.24	368.36
441.61	370.77
441.98	372.40
442.35	374.38
442.72	376.44
443.09	378.46
443.46	379.78
443.83	380.53
444.20	381.17
444.57	382.20
444.94	382.83
445.31	383.50
445.68	384.24
446.05	384.38
446.42	383.94
446.79	383.67
447.16	383.42
447.53	383.30
447.90	382.36
448.27	381.15
448.64	379.70
449.01	378.55
449.37	376.66
449.74	374.81
450.11	372.59
450.48	370.10
450.85	367.55
451.22	365.23
451.59	363.27
451.96	361.37
452.33	358.74
452.70	356.31
453.07	353.27
453.43	350.10
453.80	347.22
454.17	344.71
454.54	342.07
454.91	339.26
455.28	336.41
455.65	333.79
456.02	331.52
456.38	329.22
456.75	326.64
457.12	324.10
457.49	321.80
457.86	319.35
458.23	317.41
458.59	315.23
458.96	313.02
459.33	310.94
459.70	309.04
460.07	307.36
460.43	305.45
460.80	303.68
461.17	302.16
461.54	300.54
461.91	298.84
462.27	297.42
462.64	296.03
463.01	294.55
463.38	293.10
463.74	291.40
464.11	290.15
464.48	289.05
464.85	287.96
465.21	287.03
465.58	286.04
465.95	284.78
466.32	283.69
466.68	282.78
467.05	281.70
467.42	280.60
467.78	279.55
468.15	278.51
468.52	277.83
468.88	276.73
469.25	275.85
469.62	275.21
469.98	274.32
470.35	273.52
470.72	272.75
471.08	271.85
471.45	271.24
471.82	270.53
472.18	269.68
472.55	269.03
472.92	268.22
473.28	267.63
473.65	267.02
474.02	266.43
474.38	265.89
474.75	265.42
475.11	264.89
475.48	264.50
475.85	264.09
476.21	263.52
476.58	263.20
476.94	262.82
477.31	262.31
477.67	261.92
478.04	261.51
478.41	261.27
478.77	261.21
479.14	260.77
479.50	260.45
479.87	260.19
480.23	259.90
480.60	259.66
480.96	259.50
481.33	259.38
481.69	259.20
482.06	258.98
482.42	258.82
482.79	258.67
483.15	258.55
483.52	258.46
483.88	258.31
484.25	258.22
484.61	258.19
484.98	258.07
485.34	258.02
485.71	258.15
486.07	258.11
486.44	257.94
486.80	257.97
487.17	258.09
487.53	258.17
487.90	258.24
488.26	258.39
488.62	258.52
488.99	258.68
489.35	258.81
489.72	258.97
490.08	259.04
490.44	259.19
490.81	259.29
491.17	259.50
491.54	259.90
491.90	260.18
492.26	260.48
492.63	260.83
492.99	261.11
493.36	261.32
493.72	261.73
494.08	262.13
494.45	262.56
494.81	263.06
495.17	263.55
495.54	264.21
495.90	264.71
496.26	265.30
496.63	265.71
496.99	266.31
497.35	266.96
497.72	267.68
498.08	268.37
498.44	269.16
498.80	270.05
499.17	270.85
499.53	271.72
499.89	272.56
500.26	273.53
500.62	274.55
500.98	275.67
501.34	276.71
501.71	277.85
502.07	279.04
502.43	280.13
502.79	281.44
503.16	282.69
503.52	284.11
503.88	285.42
504.24	286.90
504.60	288.53
504.97	290.11
505.33	291.85
505.69	293.68
506.05	295.48
506.41	297.20
506.78	299.06
507.14	300.91
507.50	303.04
507.86	305.22
508.22	307.29
508.59	309.49
508.95	311.83
509.31	314.38
509.67	317.03
510.03	319.71
510.39	322.35
510.75	325.18
511.12	328.09
511.48	331.15
511.84	334.22
512.20	337.36
512.56	340.77
512.92	344.26
513.28	347.87
513.64	351.54
514.00	355.38
514.37	359.35
514.73	363.43
515.09	367.51
515.45	371.66
515.81	375.97
516.17	380.40
516.53	384.81
516.89	389.40
517.25	394.11
517.61	399.10
517.97	404.04
518.33	408.90
518.69	413.98
519.05	419.27
519.41	424.88
519.77	430.52
520.13	436.08
520.49	441.60
520.85	447.37
521.21	453.29
521.57	459.27
521.93	465.11
522.29	471.42
522.65	477.76
523.01	484.07
523.37	490.57
523.73	497.26
524.09	503.96
524.45	510.71
524.81	517.55
525.17	524.41
525.53	531.68
525.89	538.85
526.25	546.32
526.61	553.45
526.97	560.80
527.33	568.34
527.68	576.03
528.04	583.82
528.40	591.56
528.76	599.48
529.12	607.59
529.48	615.92
529.84	624.05
530.20	632.23
530.56	641.03
530.91	649.87
531.27	658.31
531.63	666.92
531.99	675.75
532.35	684.60
532.71	693.13
533.07	701.74
533.42	710.98
533.78	719.57
534.14	728.90
534.50	737.67
534.86	746.70
535.21	755.72
535.57	764.85
535.93	773.90
536.29	783.14
536.65	792.26
537.00	801.20
537.36	810.22
537.72	819.37
538.08	828.33
538.44	837.19
538.79	846.45
539.15	855.30
539.51	864.35
539.87	873.80
540.22	883.03
540.58	892.60
540.94	901.44
541.29	910.83
541.65	919.63
542.01	929.00
542.37	938.15
542.72	947.20
543.08	956.12
543.44	965.28
543.79	974.01
544.15	982.97
544.51	992.19
544.87	1001.21
545.22	1009.98
545.58	1018.12
545.94	1026.47
546.29	1034.82
546.65	1043.67
547.01	1051.92
547.36	1059.34
547.72	1067.31
548.07	1075.08
548.43	1083.27
548.79	1091.01
549.14	1098.83
549.50	1106.18
549.86	1113.36
550.21	1120.61
550.57	1128.20
550.92	1135.49
551.28	1142.37
551.64	1149.60
551.99	1156.66
552.35	1163.77
552.70	1170.71
553.06	1177.87
553.41	1185.22
553.77	1191.94
554.13	1198.71
554.48	1205.56
554.84	1212.57
555.19	1219.29
555.55	1225.88
555.90	1231.70
556.26	1237.95
556.61	1244.32
556.97	1250.56
557.32	1256.75
557.68	1262.99
558.03	1268.79
558.39	1274.73
558.74	1281.11
559.10	1286.79
559.45	1292.51
559.81	1298.42
560.16	1303.87
560.52	1309.65
560.87	1314.77
561.23	1319.75
561.58	1325.00
561.94	1330.20
562.29	1334.95
562.64	1339.79
563.00	1344.60
563.35	1350.02
563.71	1355.49
564.06	1360.30
564.42	1364.80
564.77	1369.69
565.12	1374.43
565.48	1379.15
565.83	1383.19
566.19	1387.51
566.54	1391.40
566.89	1395.09
567.25	1398.72
567.60	1402.71
567.96	1406.50
568.31	1409.90
568.66	1413.55
569.02	1416.81
569.37	1419.35
569.72	1422.60
570.08	1425.46
570.43	1428.31
570.78	1430.57
571.14	1432.44
571.49	1434.55
571.84	1437.64
572.20	1439.35
572.55	1440.77
572.90	1442.32
573.26	1444.50
573.61	1445.62
573.96	1447.10
574.31	1447.94
574.67	1448.54
575.02	1449.21
575.37	1449.36
575.72	1449.69
576.08	1450.52
576.43	1450.87
576.78	1451.44
577.13	1451.99
577.49	1452.71
577.84	1452.53
578.19	1452.82
578.54	1453.03
578.90	1452.80
579.25	1451.72
579.60	1451.40
579.95	1450.49
580.30	1449.34
580.66	1448.12
581.01	1447.00
581.36	1446.06
581.71	1445.70
582.06	1444.97
582.42	1444.04
582.77	1442.94
583.12	1441.94
583.47	1440.41
583.82	1439.42
584.17	1437.83
584.53	1436.40
584.88	1435.01
585.23	1433.25
585.58	1431.73
585.93	1429.87
586.28	1428.50
586.63	1427.20
586.98	1425.61
587.34	1424.31
587.69	1423.18
588.04	1421.60
588.39	1420.20
588.74	1417.79
589.09	1415.18
589.44	1412.64
589.79	1410.70
590.14	1409.36
590.49	1407.14
590.84	1404.90
591.19	1402.29
591.54	1399.70
591.89	1396.49
592.25	1393.69
592.60	1390.79
592.95	1387.46
593.30	1384.42
593.65	1381.10
594.00	1377.96
594.35	1374.92
594.70	1371.56
595.05	1368.15
595.40	1364.28
595.75	1360.53
596.10	1357.69
596.45	1354.67
596.80	1352.09
597.15	1348.62
597.50	1345.20
597.85	1342.43
598.19	1339.30
598.54	1336.21
598.89	1333.40
599.24	1330.79
599.59	1327.42
599.94	1324.86
600.29	1321.69
600.64	1318.40
600.99	1314.77
601.34	1311.24
601.69	1307.53
602.04	1304.34
602.39	1300.72
602.74	1298.09
603.08	1295.37
603.43	1291.98
603.78	1288.64
604.13	1284.82
604.48	1281.39
604.83	1277.37
605.18	1273.51
605.53	1269.50
605.87	1264.97
606.22	1261.27
606.57	1257.10
606.92	1253.09
607.27	1249.07
607.62	1245.59
607.96	1241.69
608.31	1238.22
608.66	1233.97
609.01	1229.67
609.36	1225.15
609.70	1220.68
610.05	1215.67
610.40	1210.92
610.75	1206.19
611.10	1201.50
611.44	1196.45
611.79	1191.73
612.14	1186.86
612.49	1181.47
612.83	1176.69
613.18	1172.40
613.53	1167.36
613.88	1162.16
614.22	1157.13
614.57	1151.64
614.92	1146.35
615.27	1141.52
615.61	1136.31
615.96	1131.70
616.31	1127.02
616.65	1122.75
617.00	1118.27
617.35	1113.96
617.70	1108.85
618.04	1103.92
618.39	1099.47
618.74	1094.89
619.08	1089.79
619.43	1085.33
619.78	1081.17
620.12	1076.69
620.47	1071.63
620.82	1066.96
621.16	1062.45
621.51	1057.96
621.85	1053.37
622.20	1048.67
622.55	1044.03
622.89	1039.51
623.24	1034.89
623.59	1030.43
623.93	1025.90
624.28	1021.27
624.62	1016.60
624.97	1012.60
625.32	1008.50
625.66	1004.09
626.01	999.67
626.35	995.37
626.70	990.83
627.04	986.10
627.39	981.22
627.73	976.83
628.08	972.14
628.43	967.54
628.77	962.62
629.12	958.04
629.46	953.49
629.81	948.23
630.15	943.18
630.50	938.12
630.84	932.95
631.19	927.55
631.53	922.70
631.88	917.43
632.22	912.11
632.57	907.30
632.91	902.17
633.26	897.29
633.60	892.17
633.95	887.24
634.29	882.72
634.64	878.49
634.98	873.56
635.32	869.30
635.67	865.25
636.01	860.87
636.36	856.40
636.70	852.13
637.05	847.99
637.39	844.14
637.73	839.85
638.08	836.08
638.42	832.20
638.77	827.94
639.11	823.81
639.45	819.71
639.80	815.22
640.14	810.85
640.49	806.65
640.83	802.57
641.17	798.40
641.52	794.33
641.86	789.64
642.20	785.92
642.55	781.36
642.89	776.72
643.23	772.30
643.58	768.61
643.92	764.01
644.26	760.00
644.61	755.86
644.95	751.91
645.29	747.10
645.64	742.46
645.98	738.48
646.32	734.53
646.66	730.29
647.01	726.12
647.35	722.01
647.69	717.86
648.04	714.01
648.38	709.71
648.72	705.23
649.06	701.17
649.41	696.77
649.75	692.74
650.09	688.51
650.43	684.68
650.78	680.09
651.12	676.02
651.46	671.96
651.80	667.90
652.14	663.92
652.49	660.03
652.83	656.49
653.17	652.12
653.51	648.03
653.85	644.07
654.20	640.24
654.54	636.35
654.88	632.38
655.22	628.13
655.56	624.13
655.90	620.31
656.25	616.60
656.59	613.00
656.93	609.28
657.27	605.75
657.61	602.02
657.95	598.60
658.29	595.07
658.64	591.42
658.98	587.40
659.32	583.54
659.66	580.29
660.00	576.64
660.34	573.15
660.68	569.67
661.02	566.17
661.36	562.72
661.70	559.36
662.05	556.29
662.39	553.33
662.73	550.33
663.07	547.30
663.41	544.34
663.75	541.23
664.09	537.94
664.43	534.93
664.77	531.94
665.11	529.07
665.45	526.37
665.79	523.53
666.13	520.85
666.47	518.09
666.81	515.16
667.15	512.26
667.49	509.74
667.83	507.18
668.17	504.58
668.51	501.70
668.85	498.90
669.19	496.25
669.53	493.69
669.87	491.07
670.21	488.38
670.55	485.70
670.89	483.27
671.23	481.00
671.57	478.48
671.91	476.10
672.25	473.43
672.58	470.85
672.92	468.30
673.26	465.94
673.60	463.77
673.94	461.40
674.28	459.13
674.62	456.87
674.96	454.49
675.30	452.47
675.64	450.32
675.97	448.23
676.31	445.97
676.65	443.66
676.99	441.66
677.33	439.55
677.67	437.47
678.01	435.14
678.34	432.95
678.68	430.99
679.02	428.86
679.36	426.87
679.70	424.89
680.04	422.88
680.37	420.80
680.71	418.75
681.05	417.02
681.39	415.29
681.73	413.54
682.06	411.80
682.40	409.90
682.74	408.29
683.08	406.79
683.42	404.85
683.75	403.07
684.09	401.18
684.43	399.49
684.77	397.65
685.10	396.03
685.44	394.27
685.78	392.45
686.12	390.78
686.45	389.10
686.79	387.33
687.13	385.70
687.46	384.24
687.80	382.59
688.14	380.73
688.48	379.11
688.81	377.32
689.15	375.69
689.49	374.00
689.82	372.40
690.16	370.69
690.50	369.27
690.83	367.78
691.17	366.25
691.51	364.62
691.84	363.24
692.18	361.72
692.52	360.25
692.85	358.87
693.19	357.43
693.52	355.97
693.86	354.49
694.20	353.11
694.53	351.57
694.87	350.16
695.21	348.91
695.54	347.46
695.88	346.11
696.21	344.70
696.55	343.28
696.88	341.85
697.22	340.48
697.56	339.20
697.89	337.87
698.23	336.64
698.56	335.44
698.90	334.09
699.23	332.74
699.57	331.59
699.90	330.29
700.24	329.01
700.58	327.75
700.91	326.64
701.25	325.44
701.58	324.40
701.92	323.27
702.25	322.04
702.59	321.00
702.92	319.82
703.26	318.79
703.59	317.80
703.93	316.85
704.26	315.76
704.60	314.72
704.93	313.69
705.26	312.51
705.60	311.52
705.93	310.48
706.27	309.62
706.60	308.58
706.94	307.60
707.27	306.69
707.61	305.74
707.94	304.75
708.27	303.89
708.61	302.91
708.94	301.98
709.28	301.24
709.61	300.36
709.94	299.77
710.28	298.77
710.61	297.83
710.95	296.94
711.28	296.30
711.61	295.50
711.95	294.70
712.28	294.01
712.61	293.19
712.95	292.52
713.28	291.84
713.61	291.13
713.95	290.41
714.28	289.67
714.61	289.00
714.95	288.44
715.28	287.72
715.61	287.06
715.95	286.43
716.28	285.64
716.61	285.07
716.95	284.20
717.28	283.67
717.61	283.10
717.94	282.44
718.28	281.60
718.61	280.97
718.94	280.37
719.27	279.70
719.61	279.19
719.94	278.73
720.27	278.14
720.60	277.62
720.94	277.21
721.27	276.68
721.60	276.16
721.93	275.63
722.27	275.16
722.60	274.63
722.93	274.16
723.26	273.78
723.59	273.25
723.93	272.84
724.26	272.30
724.59	271.89
724.92	271.43
725.25	271.13
725.59	270.72
725.92	270.30
726.25	269.87
726.58	269.49
726.91	268.89
727.24	268.42
727.57	268.04
727.91	267.48
728.24	267.14
728.57	266.75
728.90	266.31
729.23	265.86
729.56	265.58
729.89	265.17
730.22	264.78
730.55	264.33
730.89	263.92
731.22	263.63
731.55	263.39
731.88	263.13
732.21	262.71
732.54	262.22
732.87	261.85
733.20	261.60
733.53	261.30
733.86	261.09
734.19	260.71
734.52	260.46
734.85	260.27
735.18	259.91
735.51	259.58
735.84	259.29
736.17	259.06
736.50	258.57
736.83	258.49
737.16	258.13
737.49	257.81
737.82	257.46
738.15	257.07
738.48	256.61
738.81	256.13
739.14	255.77
739.47	255.48
739.80	255.11
740.13	254.70
740.46	254.24
740.79	253.84
741.12	253.59
741.45	253.25
741.78	252.85
742.11	252.67
742.44	252.41
742.77	252.16
743.10	251.80
743.43	251.49
743.75	250.89
744.08	250.81
744.41	250.48
744.74	250.22
745.07	249.94
745.40	249.71
745.73	249.58
746.06	249.37
746.39	249.16
746.71	249.00
747.04	248.74
747.37	248.54
747.70	248.40
748.03	248.14
748.36	247.81
748.68	247.58
749.01	247.13
749.34	246.82
749.67	246.60
750.00	246.40
750.33	246.37
750.65	246.29
750.98	245.90
751.31	245.76
751.64	245.50
751.97	245.35
752.29	245.15
752.62	244.85
752.95	244.60
753.28	244.40
753.60	244.17
753.93	244.11
754.26	243.93
754.59	243.66
754.91	243.44
755.24	243.30
755.57	243.08
755.90	242.90
756.22	242.70
756.55	242.47
756.88	242.29
757.20	241.93
757.53	241.68
757.86	241.50
758.19	241.38
758.51	241.28
758.84	241.22
759.17	241.12
759.49	241.07
759.82	241.03
760.15	240.94
760.47	240.81
760.80	240.65
761.13	240.58
761.45	240.58
761.78	240.48
762.11	240.33
762.43	240.16
762.76	240.06
763.08	240.10
763.41	240.00
763.74	239.94
764.06	239.93
764.39	239.81
764.71	239.78
765.04	239.60
765.37	239.57
765.69	239.41
766.02	239.36
766.34	239.16
766.67	238.96
767.00	238.78
767.32	238.85
767.65	238.83
767.97	238.63
768.30	238.43
768.62	238.43
768.95	238.31
769.27	238.37
769.60	238.38
769.92	238.21
770.25	238.12
770.57	237.92
770.90	237.73
771.22	237.65
771.55	237.49
771.87	237.45
772.20	237.38
772.52	237.42
772.85	237.40
773.17	237.40
773.50	237.32
773.82	237.27
774.15	237.00
774.47	236.74
774.80	236.76
775.12	236.66
775.45	236.53
775.77	236.52
776.09	236.37
776.42	236.15
776.74	236.07
777.07	236.02
777.39	235.96
777.72	235.96
778.04	235.89
778.36	235.80
778.69	235.74
779.01	235.61
779.33	235.41
779.66	235.18
779.98	235.10
780.31	234.99
780.63	235.01
780.95	235.02
781.28	235.00
781.60	234.78
781.92	234.74
782.25	234.60
782.57	234.56
782.89	234.54
783.22	234.51
783.54	234.45
783.86	234.29
784.19	234.17
784.51	234.13
784.83	234.10
785.16	234.00
785.48	233.86
785.80	233.77
786.12	233.71
786.45	233.58
786.77	233.48
787.09	233.49
787.42	233.21
787.74	233.16
788.06	233.11
788.38	233.07
788.71	233.05
789.03	233.10
789.35	232.99
789.67	232.78
789.99	232.82
790.32	232.64
790.64	232.59
790.96	232.76
791.28	232.63
791.61	232.58
791.93	232.48
792.25	232.50
792.57	232.60
792.89	232.38
793.21	232.44
793.54	232.32
793.86	232.20
794.18	232.34
794.50	232.23
794.82	232.16
795.14	232.20
795.47	232.13
795.79	232.03
796.11	232.02
796.43	232.17
796.75	232.13
797.07	232.17
797.39	232.17
797.71	231.97
798.04	231.93
798.36	231.88
798.68	231.93
799.00	231.97
799.32	231.82
799.64	231.93
799.96	231.92
800.28	231.94
800.60	231.92
800.92	231.87
801.24	231.93
801.56	231.96
801.89	231.94
802.21	231.95
802.53	231.88
802.85	231.92
803.17	231.91
803.49	231.78
803.81	231.91
804.13	231.85
804.45	231.77
804.77	231.78
805.09	231.77
805.41	231.76
805.73	231.71
806.05	231.71
806.37	231.67
806.69	231.60
807.01	231.66
807.33	231.65
807.65	231.63
807.97	231.71
808.28	231.62
808.60	231.59
808.92	231.55
809.24	231.67
809.56	231.59
809.88	231.41
810.20	231.49
810.52	231.37
810.84	231.40
811.16	231.43
811.48	231.40
811.80	231.52
812.12	231.48
812.43	231.48
812.75	231.46
813.07	231.51
813.39	231.48
813.71	231.38
814.03	231.44
814.35	231.30
814.67	231.14
814.98	231.09
815.30	231.02
815.62	230.88
815.94	230.72
816.26	230.73
816.58	230.74
816.89	230.71
817.21	230.59
817.53	230.59
817.85	230.64
818.17	230.61
818.48	230.47
818.80	230.46
819.12	230.34
819.44	230.24
819.76	230.12
820.07	230.08
820.39	230.10
820.71	229.95
821.03	229.99
821.34	229.92
821.66	229.85
821.98	229.86
822.30	229.87
822.61	229.90
822.93	229.72
823.25	229.63
823.57	229.58
823.88	229.70
824.20	229.60
824.52	229.49
824.83	229.53
825.15	229.47
825.47	229.47
825.79	229.45
826.10	229.46
826.42	229.54
826.74	229.63
827.05	229.62
827.37	229.70
827.69	229.68
828.00	229.65
828.32	229.86
828.64	229.87
828.95	229.91
829.27	229.81
829.58	229.82
829.90	229.83
830.22	229.69
830.53	229.52
830.85	229.51
831.17	229.48
831.48	229.34
831.80	229.31
832.11	229.33
832.43	229.39
832.75	229.36
833.06	229.36
833.38	229.17
833.69	229.10
834.01	229.03
834.32	228.96
834.64	228.90
834.96	228.77
835.27	228.71
835.59	228.71
835.90	228.72
836.22	228.78
836.53	228.75
836.85	228.84
837.16	229.06
837.48	229.04
837.79	229.06
838.11	229.20
838.42	229.20
838.74	229.19
839.05	229.07
839.37	229.00
839.68	228.80
840.00	228.80
840.31	228.80
840.63	228.83
840.94	228.80
841.26	228.92
841.57	228.88
841.88	228.96
842.20	228.94
842.51	228.80
842.83	228.64
843.14	228.75
843.46	228.74
843.77	228.63
844.08	228.71
844.40	228.70
844.71	228.68
845.03	228.73
845.34	228.78
845.65	228.81
845.97	228.82
846.28	228.93
846.60	228.94
846.91	228.99
847.22	228.97
847.54	229.05
847.85	228.90
848.16	228.98
848.48	228.89
848.79	228.98
849.10	229.18
849.42	229.31
849.73	229.30
850.04	229.33
850.36	229.35
850.67	229.27
850.98	229.23
851.30	229.15
851.61	229.02
851.92	228.96
852.23	229.02
852.55	229.09
852.86	229.13
853.17	229.28
853.49	229.27
853.80	229.33
854.11	229.32
854.42	229.38
854.74	229.32
855.05	229.34
855.36	229.25
855.67	229.15
855.99	229.15
856.30	229.26
856.61	229.18
856.92	229.08
857.23	229.10
857.55	229.06
857.86	229.05
858.17	229.09
858.48	229.06
858.79	229.07
859.11	229.10
859.42	229.03
859.73	228.86
860.04	228.78
860.35	228.60
860.66	228.57
860.98	228.57
861.29	228.59
861.60	228.60
861.91	228.64
862.22	228.60
862.53	228.58
862.84	228.40
863.16	228.60
863.47	228.64
863.78	228.67
864.09	228.68
864.40	228.60
864.71	228.55
865.02	228.54
865.33	228.47
865.64	228.40
865.95	228.35
866.27	228.55
866.58	228.56
866.89	228.72
867.20	228.74
867.51	228.70
867.82	228.66
868.13	228.71
868.44	228.58
868.75	228.61
869.06	228.60
869.37	228.58
869.68	228.33
869.99	228.30
870.30	228.22
870.61	228.29
870.92	228.33
871.23	228.26
871.54	228.24
871.85	228.11
872.16	228.07
872.47	228.10
872.78	227.94
873.09	227.87
873.40	227.78
873.71	227.77
874.02	227.72
874.33	227.66
874.64	227.57
874.95	227.62
875.26	227.55
875.56	227.60
875.87	227.62
876.18	227.64
876.49	227.81
876.80	227.76
877.11	227.65
877.42	227.66
877.73	227.67
878.04	227.76
878.35	227.84
878.66	227.79
878.96	227.78
879.27	227.80
879.58	227.91
879.89	227.96
880.20	227.96
880.51	228.05
880.82	228.10
881.12	228.11
881.43	228.07
881.74	228.11
882.05	228.02
882.36	227.99
882.67	228.00
882.97	227.85
883.28	227.94
883.59	228.06
883.90	228.10
884.21	228.16
884.51	228.11
884.82	228.09
885.13	228.22
885.44	228.21
885.74	228.16
886.05	228.10
886.36	228.06
886.67	228.04
886.98	228.14
887.28	228.17
887.59	228.24
887.90	228.21
888.20	228.27
888.51	228.40
888.82	228.47
889.13	228.36
889.43	228.50
889.74	228.57
890.05	228.56
890.35	228.58
890.66	228.72
890.97	228.73
891.28	228.81
891.58	228.83
891.89	228.87
892.20	228.99
892.50	229.06
892.81	229.06
893.12	229.15
893.42	229.04
893.73	229.12
894.04	229.07
894.34	229.25
894.65	229.17
894.95	229.18
895.26	229.13
895.57	229.38
895.87	229.27
896.18	229.27
896.48	229.32
896.79	229.30
897.10	229.17
897.40	229.09
897.71	229.09
898.01	229.03
898.32	229.06
898.63	229.00
898.93	228.91
899.24	228.99
899.54	228.95
899.85	228.98
900.15	228.82
900.46	228.82
900.76	228.74
901.07	228.82
901.38	228.68
901.68	228.63
901.99	228.56
902.29	228.48
902.60	228.37
902.90	228.32
903.21	228.28
903.51	228.30
903.82	228.36
904.12	228.27
904.43	228.22
904.73	228.24
905.03	228.13
905.34	228.37
905.64	228.30
905.95	228.26
906.25	228.18
906.56	228.20
906.86	228.18
907.17	228.13
907.47	228.10
907.77	228.20
908.08	228.27
908.38	228.23
908.69	228.28
908.99	228.26
909.30	228.21
909.60	228.11
909.90	228.10
910.21	228.05
910.51	228.05
910.81	228.07
911.12	227.95
911.42	228.05
911.73	227.80
912.03	227.81
912.33	227.79
912.64	227.76
912.94	227.79
913.24	227.76
913.55	227.72
913.85	227.71
914.15	227.70
914.46	227.74
914.76	227.65
915.06	227.57
915.37	227.61
915.67	227.62
915.97	227.69
916.27	227.62
916.58	227.64
916.88	227.66
917.18	227.59
917.49	227.79
917.79	227.77
918.09	227.85
918.39	227.82
918.70	227.86
919.00	227.98
919.30	228.08
919.60	228.04
919.91	228.09
920.21	228.09
920.51	228.00
920.81	227.90
921.12	228.05
921.42	228.10
921.72	228.12
922.02	228.22
922.32	228.28
922.63	228.42
922.93	228.53
923.23	228.44
923.53	228.45
923.83	228.39
924.13	228.43
924.44	228.40
924.74	228.56
925.04	228.64
925.34	228.56
925.64	228.51
925.94	228.57
926.24	228.67
926.55	228.74
926.85	228.81
927.15	228.96
927.45	228.97
927.75	228.99
928.05	229.00
928.35	228.99
928.65	229.05
928.95	229.07
929.26	229.08
929.56	229.32
929.86	229.44
930.16	229.51
930.46	229.50
930.76	229.55
931.06	229.41
931.36	229.32
931.66	229.40
931.96	229.35
932.26	229.40
932.56	229.31
932.86	229.37
933.16	229.50
933.46	229.37
933.76	229.36
934.06	229.37
934.36	229.50
934.66	229.44
934.96	229.41
935.26	229.40
935.56	229.39
935.86	229.24
936.16	229.26
936.46	229.18
936.76	229.15
937.06	229.18
937.36	229.27
937.66	229.34
937.96	229.37
938.26	229.45
938.56	229.44
938.86	229.50
939.16	229.44
939.46	229.33
939.76	229.33
940.06	229.29
940.35	229.17
940.65	229.02
940.95	229.07
941.25	229.00
941.55	228.90
941.85	228.84
942.15	228.82
942.45	228.91
942.75	228.90
943.04	228.97
943.34	228.94
943.64	228.84
943.94	228.77
944.24	228.69
944.54	228.57
944.84	228.56
945.13	228.47
945.43	228.40
945.73	228.39
946.03	228.29
946.33	228.19
946.62	228.32
946.92	228.26
947.22	228.18
947.52	228.16
947.82	228.21
948.11	228.14
948.41	228.08
948.71	227.94
949.01	227.85
949.31	227.67
949.60	227.61
949.90	227.67
950.20	227.60
950.50	227.50
950.79	227.53
951.09	227.46
951.39	227.50
951.69	227.40
951.98	227.44
952.28	227.51
952.58	227.56
952.87	227.50
953.17	227.53
953.47	227.56
953.76	227.63
954.06	227.63
954.36	227.65
954.66	227.72
954.95	227.74
955.25	227.77
955.55	227.86
955.84	227.83
956.14	227.80
956.44	227.91
956.73	227.92
957.03	227.85
957.32	227.86
957.62	227.89
957.92	228.00
958.21	227.98
958.51	228.19
958.81	228.31
959.10	228.40
959.40	228.47
959.69	228.50
959.99	228.47
960.29	228.44
960.58	228.48
960.88	228.53
961.17	228.48
961.47	228.55
961.76	228.54
962.06	228.62
962.36	228.58
962.65	228.50
962.95	228.59
963.24	228.62
963.54	228.71
963.83	228.65
964.13	228.70
964.42	228.60
964.72	228.52
965.01	228.53
965.31	228.53
965.60	228.57
965.90	228.68
966.19	228.74
966.49	228.73
966.78	228.80
967.08	228.80
967.37	228.82
967.67	228.75
967.96	228.91
968.26	228.85
968.55	228.89
968.85	228.95
969.14	229.02
969.43	229.08
969.73	229.08
970.02	229.15
970.32	229.12
970.61	229.13
970.91	229.10
971.20	228.91
971.49	228.91
971.79	228.89
972.08	228.81
972.38	228.70
972.67	228.72
972.96	228.69
973.26	228.60
973.55	228.71
973.85	228.78
974.14	228.65
974.43	228.75
974.73	228.80
975.02	228.80
975.31	228.76
975.61	228.72
975.90	228.65
976.19	228.50
976.49	228.47
976.78	228.47
977.07	228.38
977.37	228.34
977.66	228.36
977.95	228.27
978.24	228.23
978.54	228.30
978.83	228.27
979.12	228.23
979.42	228.20
979.71	228.03
980.00	227.93
980.29	227.86
980.59	227.74
980.88	227.69
981.17	227.70
981.46	227.64
981.76	227.61
982.05	227.68
982.34	227.68
982.63	227.64
982.93	227.62
983.22	227.66
983.51	227.72
983.80	227.64
984.09	227.68
984.39	227.64
984.68	227.63
984.97	227.70
985.26	227.62
985.55	227.75
985.85	227.75
986.14	227.78
986.43	227.87
986.72	227.84
987.01	227.71
987.30	227.69
987.59	227.65
987.89	227.57
988.18	227.50
988.47	227.50
988.76	227.50
989.05	227.51
989.34	227.41
989.63	227.55
989.92	227.47
990.22	227.45
990.51	227.30
990.80	227.21
991.09	227.11
991.38	227.13
991.67	227.04
991.96	227.09
992.25	227.10
992.54	227.08
992.83	227.10
993.12	227.14
993.41	227.20
993.70	227.30
993.99	227.44
994.28	227.38
994.58	227.43
994.87	227.43
995.16	227.36
995.45	227.40
995.74	227.22
996.03	227.27
996.32	227.21
996.61	227.42
996.90	227.52
997.19	227.54
997.48	227.61
997.77	227.61
998.06	227.53
998.34	227.54
998.63	227.50
998.92	227.61
999.21	227.70
999.50	227.63
999.79	227.57
1000.08	227.53
1000.37	227.59
1000.66	227.55
1000.95	227.69
1001.24	227.80
1001.53	227.90
1001.82	227.94
1002.11	227.98
1002.40	228.10
1002.68	228.15
1002.97	228.22
1003.26	228.20
1003.55	228.08
1003.84	228.12
1004.13	228.25
1004.42	228.27
1004.71	228.37
1004.99	228.38
1005.28	228.43
1005.57	228.50
1005.86	228.42
1006.15	228.50
1006.44	228.52
1006.72	228.57
1007.01	228.58
1007.30	228.58
1007.59	228.57
1007.88	228.74
1008.17	228.79
1008.45	228.69
1008.74	228.63
1009.03	228.51
1009.32	228.58
1009.60	228.61
1009.89	228.59
1010.18	228.57
1010.47	228.45
1010.76	228.43
1011.04	228.32
1011.33	228.43
1011.62	228.37
1011.91	228.43
1012.19	228.39
1012.48	228.45
1012.77	228.39
1013.05	228.41
1013.34	228.45
1013.63	228.40
1013.92	228.39
1014.20	228.38
1014.49	228.47
1014.78	228.36
1015.06	228.36
1015.35	228.35
1015.64	228.41
1015.92	228.47
1016.21	228.55
1016.50	228.60
1016.78	228.67
1017.07	228.65
1017.36	228.46
1017.64	228.51
1017.93	228.57
1018.22	228.49
1018.50	228.39
1018.79	228.47
1019.08	228.26
1019.36	228.16
1019.65	228.09
1019.93	227.97
1020.22	227.95
1020.51	228.04
1020.79	228.04
1021.08	226.80
1021.36	226.80
1021.65	228.70
1021.94	226.40
1022.22	226.70
1022.51	226.40
1022.79	227.50
1023.08	228.30
1023.36	230.90
1023.65	226.50
>>>>>End Processed Spectral Data<<<<<
