SpectraSuite Data File
++++++++++++++++++++++++++++++++++++
Date: Fri Feb 01 14:40:53 EST 2013
User: group
Dark Spectrum Present: No
Reference Spectrum Present: No
Number of Sampled Component Spectra: 1
Spectrometers: USB2E7196
Integration Time (usec): 70000 (USB2E7196)
Spectra Averaged: 10 (USB2E7196)
Boxcar Smoothing: 10 (USB2E7196)
Correct for Electrical Dark: No (USB2E7196)
Strobe/Lamp Enabled: No (USB2E7196)
Correct for Detector Non-linearity: No (USB2E7196)
Correct for Stray Light: No (USB2E7196)
Number of Pixels in Processed Spectrum: 2048
>>>>>Begin Processed Spectral Data<<<<<
339.09	0.00
339.48	217.10
339.86	218.30
340.24	219.60
340.63	219.90
341.01	223.30
341.39	224.40
341.78	225.60
342.16	226.10
342.54	226.90
342.93	214.74
343.31	225.67
343.69	226.20
344.07	226.66
344.46	227.05
344.84	227.49
345.22	227.84
345.60	228.06
345.99	228.19
346.37	228.38
346.75	228.45
347.13	228.54
347.52	228.67
347.90	228.75
348.28	228.85
348.66	228.90
349.05	228.96
349.43	229.05
349.81	229.16
350.19	229.10
350.57	229.30
350.96	229.34
351.34	229.37
351.72	229.41
352.10	229.51
352.48	229.58
352.87	229.62
353.25	229.56
353.63	229.58
354.01	229.69
354.39	229.72
354.77	229.86
355.15	229.99
355.54	230.02
355.92	230.06
356.30	230.21
356.68	230.29
357.06	230.30
357.44	230.39
357.82	230.39
358.20	230.49
358.58	230.51
358.97	230.54
359.35	230.53
359.73	230.53
360.11	230.51
360.49	230.56
360.87	230.56
361.25	230.60
361.63	230.74
362.01	230.75
362.39	230.76
362.77	230.78
363.15	230.63
363.53	230.67
363.91	230.64
364.29	230.48
364.67	230.34
365.05	230.27
365.43	230.15
365.81	230.13
366.19	230.14
366.57	230.18
366.95	230.12
367.33	230.11
367.71	230.19
368.09	230.17
368.47	230.12
368.85	230.09
369.23	230.10
369.61	229.81
369.99	229.86
370.37	229.74
370.75	229.65
371.13	229.61
371.51	229.57
371.89	229.45
372.27	229.45
372.65	229.41
373.03	229.41
373.41	229.30
373.78	229.19
374.16	229.06
374.54	229.01
374.92	228.89
375.30	228.77
375.68	228.64
376.06	228.56
376.44	228.51
376.82	228.35
377.19	228.23
377.57	228.22
377.95	227.97
378.33	227.93
378.71	227.75
379.09	227.80
379.47	227.63
379.84	227.65
380.22	227.52
380.60	227.48
380.98	227.37
381.36	227.33
381.73	227.26
382.11	227.29
382.49	227.10
382.87	227.06
383.25	227.08
383.62	227.18
384.00	227.19
384.38	227.07
384.76	227.04
385.13	227.11
385.51	227.15
385.89	227.10
386.27	227.07
386.64	227.19
387.02	227.08
387.40	227.09
387.78	227.04
388.15	227.07
388.53	227.03
388.91	227.01
389.29	226.97
389.66	227.06
390.04	226.94
390.42	226.97
390.79	227.00
391.17	226.85
391.55	226.60
391.92	226.54
392.30	226.62
392.68	226.73
393.05	226.76
393.43	226.81
393.81	226.92
394.18	226.93
394.56	226.99
394.94	227.11
395.31	227.17
395.69	227.30
396.06	227.40
396.44	227.52
396.82	227.63
397.19	227.81
397.57	227.83
397.95	227.93
398.32	228.05
398.70	228.18
399.07	228.49
399.45	228.71
399.82	228.86
400.20	229.00
400.58	229.10
400.95	229.02
401.33	229.16
401.70	229.40
402.08	229.53
402.45	229.58
402.83	229.67
403.20	229.77
403.58	229.84
403.95	229.99
404.33	230.07
404.71	230.21
405.08	230.47
405.46	230.61
405.83	230.78
406.21	230.88
406.58	231.09
406.96	231.13
407.33	231.40
407.70	231.56
408.08	231.79
408.45	231.95
408.83	232.41
409.20	232.50
409.58	232.69
409.95	232.90
410.33	233.10
410.70	233.29
411.08	233.59
411.45	233.88
411.82	234.23
412.20	234.72
412.57	235.24
412.95	235.49
413.32	235.91
413.69	236.38
414.07	236.83
414.44	237.14
414.82	237.62
415.19	238.08
415.56	238.61
415.94	239.17
416.31	239.81
416.68	240.29
417.06	241.11
417.43	241.71
417.81	242.63
418.18	243.47
418.55	244.40
418.93	245.36
419.30	246.29
419.67	247.22
420.04	248.14
420.42	249.08
420.79	250.40
421.16	251.64
421.54	253.00
421.91	254.24
422.28	255.64
422.66	257.21
423.03	258.72
423.40	260.29
423.77	261.77
424.15	263.30
424.52	264.80
424.89	266.40
425.26	268.09
425.64	269.58
426.01	271.22
426.38	272.93
426.75	274.65
427.13	276.49
427.50	278.36
427.87	280.45
428.24	282.34
428.61	284.03
428.99	286.07
429.36	288.11
429.73	290.34
430.10	292.45
430.47	294.56
430.85	296.61
431.22	298.95
431.59	301.44
431.96	303.78
432.33	306.50
432.70	309.07
433.08	312.05
433.45	314.73
433.82	317.55
434.19	320.69
434.56	323.77
434.93	326.54
435.30	329.44
435.68	332.35
436.05	335.35
436.42	338.37
436.79	340.97
437.16	343.91
437.53	346.92
437.90	350.00
438.27	352.92
438.64	355.95
439.01	358.60
439.38	361.04
439.75	363.31
440.13	366.00
440.50	368.63
440.87	370.41
441.24	372.58
441.61	374.93
441.98	376.51
442.35	378.26
442.72	380.15
443.09	382.03
443.46	383.06
443.83	383.74
444.20	384.39
444.57	385.29
444.94	385.62
445.31	385.94
445.68	386.24
446.05	386.16
446.42	385.72
446.79	385.27
447.16	384.68
447.53	384.49
447.90	383.14
448.27	381.74
448.64	380.21
449.01	379.05
449.37	377.04
449.74	374.96
450.11	372.78
450.48	370.22
450.85	367.45
451.22	365.31
451.59	363.10
451.96	360.98
452.33	358.30
452.70	355.67
453.07	352.72
453.43	349.72
453.80	346.74
454.17	343.84
454.54	341.26
454.91	338.27
455.28	335.31
455.65	332.76
456.02	330.41
456.38	328.13
456.75	325.14
457.12	322.53
457.49	320.14
457.86	317.62
458.23	315.58
458.59	313.36
458.96	311.02
459.33	309.09
459.70	307.09
460.07	305.40
460.43	303.60
460.80	301.85
461.17	300.30
461.54	298.81
461.91	297.30
462.27	295.69
462.64	294.43
463.01	293.08
463.38	291.58
463.74	289.91
464.11	288.54
464.48	287.49
464.85	286.24
465.21	285.20
465.58	284.21
465.95	283.06
466.32	282.12
466.68	281.11
467.05	280.00
467.42	278.88
467.78	277.86
468.15	276.79
468.52	276.00
468.88	274.91
469.25	274.11
469.62	273.37
469.98	272.39
470.35	271.67
470.72	270.80
471.08	270.03
471.45	269.40
471.82	268.71
472.18	268.06
472.55	267.53
472.92	266.98
473.28	266.45
473.65	265.84
474.02	265.16
474.38	264.63
474.75	264.29
475.11	263.80
475.48	263.41
475.85	263.15
476.21	262.73
476.58	262.34
476.94	261.94
477.31	261.59
477.67	261.39
478.04	261.08
478.41	260.86
478.77	260.81
479.14	260.43
479.50	260.30
479.87	260.04
480.23	259.84
480.60	259.67
480.96	259.46
481.33	259.58
481.69	259.46
482.06	259.32
482.42	259.24
482.79	259.29
483.15	259.22
483.52	259.20
483.88	259.19
484.25	259.27
484.61	259.34
484.98	259.49
485.34	259.78
485.71	259.99
486.07	260.23
486.44	260.28
486.80	260.60
487.17	260.88
487.53	261.30
487.90	261.70
488.26	262.19
488.62	262.76
488.99	263.20
489.35	263.78
489.72	264.39
490.08	265.04
490.44	265.60
490.81	266.37
491.17	267.11
491.54	267.95
491.90	268.80
492.26	269.65
492.63	270.58
492.99	271.53
493.36	272.50
493.72	273.65
494.08	274.80
494.45	276.00
494.81	277.41
495.17	278.77
495.54	280.43
495.90	281.91
496.26	283.41
496.63	285.06
496.99	286.91
497.35	288.79
497.72	290.71
498.08	292.88
498.44	295.02
498.80	297.24
499.17	299.79
499.53	302.33
499.89	304.94
500.26	307.75
500.62	310.39
500.98	313.39
501.34	316.50
501.71	319.72
502.07	323.08
502.43	326.46
502.79	330.16
503.16	333.73
503.52	337.78
503.88	341.80
504.24	345.97
504.60	350.25
504.97	354.91
505.33	359.59
505.69	364.68
506.05	369.71
506.41	375.13
506.78	380.35
507.14	386.10
507.50	392.06
507.86	398.21
508.22	404.57
508.59	411.08
508.95	417.87
509.31	424.80
509.67	432.21
510.03	439.48
510.39	446.93
510.75	454.72
511.12	462.46
511.48	470.70
511.84	478.96
512.20	487.31
512.56	495.89
512.92	504.90
513.28	513.95
513.64	523.31
514.00	532.85
514.37	542.74
514.73	552.56
515.09	562.37
515.45	572.47
515.81	582.99
516.17	593.69
516.53	604.30
516.89	615.19
517.25	626.16
517.61	637.49
517.97	648.80
518.33	660.11
518.69	671.79
519.05	683.61
519.41	695.82
519.77	708.68
520.13	721.38
520.49	733.87
520.85	746.41
521.21	759.19
521.57	772.35
521.93	784.94
522.29	798.43
522.65	811.83
523.01	825.13
523.37	838.29
523.73	852.11
524.09	865.91
524.45	879.85
524.81	893.74
525.17	908.10
525.53	922.67
525.89	937.42
526.25	952.04
526.61	966.46
526.97	981.10
527.33	995.62
527.68	1010.70
528.04	1025.71
528.40	1040.88
528.76	1056.31
529.12	1071.37
529.48	1087.24
529.84	1101.95
530.20	1117.73
530.56	1134.11
530.91	1150.77
531.27	1166.46
531.63	1182.15
531.99	1198.06
532.35	1213.56
532.71	1228.68
533.07	1244.47
533.42	1260.07
533.78	1275.76
534.14	1291.32
534.50	1306.45
534.86	1322.18
535.21	1337.33
535.57	1352.71
535.93	1368.34
536.29	1383.16
536.65	1398.32
537.00	1413.14
537.36	1428.68
537.72	1443.20
538.08	1457.71
538.44	1471.43
538.79	1485.82
539.15	1500.10
539.51	1514.51
539.87	1529.30
540.22	1544.14
540.58	1558.75
540.94	1573.04
541.29	1586.80
541.65	1600.74
542.01	1615.15
542.37	1628.80
542.72	1642.04
543.08	1655.40
543.44	1668.62
543.79	1681.06
544.15	1693.91
544.51	1707.43
544.87	1720.46
545.22	1732.77
545.58	1744.44
545.94	1756.50
546.29	1768.45
546.65	1779.91
547.01	1791.01
547.36	1801.69
547.72	1812.43
548.07	1822.67
548.43	1832.51
548.79	1842.60
549.14	1852.71
549.50	1861.87
549.86	1870.97
550.21	1880.19
550.57	1889.91
550.92	1898.99
551.28	1908.51
551.64	1917.09
551.99	1925.75
552.35	1933.78
552.70	1942.75
553.06	1951.36
553.41	1959.76
553.77	1967.80
554.13	1975.99
554.48	1984.35
554.84	1992.19
555.19	1999.93
555.55	2007.24
555.90	2014.82
556.26	2022.14
556.61	2028.76
556.97	2035.76
557.32	2042.99
557.68	2050.34
558.03	2056.73
558.39	2063.09
558.74	2070.16
559.10	2077.12
559.45	2082.88
559.81	2090.20
560.16	2095.76
560.52	2101.58
560.87	2107.40
561.23	2112.32
561.58	2117.64
561.94	2122.20
562.29	2127.14
562.64	2131.37
563.00	2136.29
563.35	2141.42
563.71	2146.59
564.06	2152.33
564.42	2156.91
564.77	2161.19
565.12	2165.40
565.48	2169.53
565.83	2172.82
566.19	2176.34
566.54	2179.23
566.89	2182.09
567.25	2184.17
567.60	2187.62
567.96	2190.37
568.31	2192.74
568.66	2195.75
569.02	2198.37
569.37	2200.41
569.72	2202.49
570.08	2204.59
570.43	2205.90
570.78	2207.27
571.14	2207.90
571.49	2208.38
571.84	2210.43
572.20	2210.89
572.55	2210.84
572.90	2210.49
573.26	2211.18
573.61	2211.06
573.96	2211.30
574.31	2210.40
574.67	2208.88
575.02	2207.34
575.37	2206.48
575.72	2204.84
576.08	2203.27
576.43	2201.22
576.78	2199.72
577.13	2198.48
577.49	2197.28
577.84	2195.52
578.19	2192.94
578.54	2190.64
578.90	2187.85
579.25	2183.81
579.60	2180.54
579.95	2177.47
580.30	2174.05
580.66	2170.26
581.01	2166.46
581.36	2162.75
581.71	2159.81
582.06	2156.53
582.42	2152.74
582.77	2148.33
583.12	2144.34
583.47	2140.79
583.82	2137.33
584.17	2133.53
584.53	2129.18
584.88	2124.58
585.23	2120.07
585.58	2116.19
585.93	2112.29
586.28	2108.57
586.63	2105.15
586.98	2101.51
587.34	2097.80
587.69	2093.71
588.04	2089.77
588.39	2085.68
588.74	2080.17
589.09	2074.87
589.44	2069.57
589.79	2065.14
590.14	2061.08
590.49	2056.55
590.84	2051.10
591.19	2045.82
591.54	2039.34
591.89	2032.87
592.25	2026.84
592.60	2020.43
592.95	2013.77
593.30	2007.09
593.65	2000.03
594.00	1992.93
594.35	1987.20
594.70	1979.83
595.05	1974.04
595.40	1967.35
595.75	1960.30
596.10	1954.74
596.45	1949.28
596.80	1943.83
597.15	1937.70
597.50	1930.75
597.85	1924.68
598.19	1919.20
598.54	1913.38
598.89	1908.14
599.24	1903.20
599.59	1897.84
599.94	1892.39
600.29	1886.81
600.64	1881.15
600.99	1874.74
601.34	1869.07
601.69	1862.06
602.04	1856.44
602.39	1849.85
602.74	1844.15
603.08	1839.03
603.43	1833.24
603.78	1826.86
604.13	1820.56
604.48	1814.31
604.83	1808.03
605.18	1801.60
605.53	1793.84
605.87	1786.43
606.22	1779.65
606.57	1772.45
606.92	1765.30
607.27	1758.72
607.62	1752.38
607.96	1745.94
608.31	1739.99
608.66	1732.56
609.01	1725.21
609.36	1717.42
609.70	1709.37
610.05	1701.23
610.40	1693.28
610.75	1685.48
611.10	1677.50
611.44	1668.91
611.79	1661.03
612.14	1653.40
612.49	1644.93
612.83	1636.93
613.18	1629.24
613.53	1621.56
613.88	1613.34
614.22	1605.50
614.57	1597.27
614.92	1588.83
615.27	1581.06
615.61	1572.96
615.96	1565.68
616.31	1558.43
616.65	1551.75
617.00	1544.67
617.35	1537.48
617.70	1529.49
618.04	1521.29
618.39	1513.76
618.74	1506.74
619.08	1498.72
619.43	1490.83
619.78	1484.03
620.12	1476.95
620.47	1469.55
620.82	1461.62
621.16	1454.33
621.51	1447.04
621.85	1439.34
622.20	1431.63
622.55	1423.77
622.89	1416.37
623.24	1409.04
623.59	1401.86
623.93	1394.37
624.28	1387.25
624.62	1379.60
624.97	1372.58
625.32	1365.55
625.66	1358.62
626.01	1351.40
626.35	1344.20
626.70	1337.24
627.04	1330.12
627.39	1322.90
627.73	1315.35
628.08	1308.51
628.43	1301.24
628.77	1293.95
629.12	1286.66
629.46	1279.43
629.81	1271.63
630.15	1263.99
630.50	1256.00
630.84	1247.72
631.19	1239.80
631.53	1232.36
631.88	1224.88
632.22	1216.99
632.57	1209.85
632.91	1202.10
633.26	1194.36
633.60	1186.80
633.95	1179.19
634.29	1171.80
634.64	1164.80
634.98	1157.59
635.32	1150.53
635.67	1143.99
636.01	1136.90
636.36	1130.01
636.70	1123.47
637.05	1117.02
637.39	1110.78
637.73	1104.48
638.08	1098.65
638.42	1092.55
638.77	1086.34
639.11	1079.84
639.45	1073.53
639.80	1066.76
640.14	1060.41
640.49	1054.24
640.83	1047.84
641.17	1041.60
641.52	1034.75
641.86	1028.27
642.20	1022.17
642.55	1015.79
642.89	1009.12
643.23	1002.54
643.58	996.70
643.92	990.25
644.26	984.02
644.61	977.70
644.95	971.51
645.29	964.61
645.64	957.67
645.98	951.06
646.32	944.98
646.66	938.91
647.01	932.59
647.35	926.71
647.69	920.65
648.04	915.11
648.38	908.84
648.72	902.72
649.06	896.16
649.41	890.03
649.75	883.54
650.09	877.35
650.43	871.30
650.78	864.70
651.12	858.50
651.46	852.52
651.80	846.67
652.14	840.57
652.49	835.17
652.83	830.00
653.17	823.96
653.51	817.83
653.85	812.17
654.20	806.38
654.54	800.33
654.88	794.54
655.22	788.30
655.56	782.50
655.90	777.15
656.25	771.99
656.59	766.50
656.93	761.24
657.27	755.95
657.61	750.55
657.95	745.82
658.29	740.80
658.64	735.51
658.98	730.02
659.32	724.68
659.66	719.30
660.00	713.75
660.34	708.81
660.68	703.94
661.02	698.65
661.36	693.99
661.70	689.18
662.05	684.59
662.39	680.10
662.73	675.76
663.07	671.06
663.41	666.67
663.75	662.08
664.09	657.60
664.43	652.98
664.77	648.65
665.11	644.17
665.45	639.88
665.79	635.51
666.13	631.34
666.47	627.07
666.81	622.93
667.15	618.82
667.49	614.72
667.83	610.81
668.17	606.65
668.51	602.32
668.85	598.28
669.19	594.35
669.53	590.47
669.87	586.40
670.21	582.71
670.55	578.83
670.89	575.35
671.23	571.88
671.57	568.47
671.91	564.81
672.25	561.25
672.58	557.53
672.92	553.96
673.26	550.66
673.60	547.25
673.94	543.89
674.28	540.82
674.62	537.83
674.96	534.52
675.30	531.81
675.64	528.84
675.97	525.88
676.31	522.82
676.65	519.63
676.99	516.78
677.33	513.48
677.67	510.48
678.01	507.26
678.34	504.23
678.68	501.23
679.02	498.30
679.36	495.41
679.70	492.72
680.04	489.97
680.37	487.03
680.71	484.40
681.05	481.78
681.39	479.10
681.73	476.18
682.06	473.78
682.40	471.15
682.74	468.65
683.08	466.07
683.42	463.50
683.75	460.98
684.09	458.32
684.43	456.22
684.77	453.70
685.10	451.33
685.44	448.90
685.78	446.44
686.12	444.12
686.45	441.49
686.79	439.03
687.13	436.88
687.46	434.47
687.80	432.19
688.14	429.78
688.48	427.56
688.81	425.24
689.15	422.91
689.49	420.55
689.82	418.36
690.16	416.12
690.50	413.87
690.83	411.86
691.17	409.77
691.51	407.54
691.84	405.55
692.18	403.59
692.52	401.52
692.85	399.56
693.19	397.47
693.52	395.78
693.86	393.85
694.20	391.87
694.53	389.94
694.87	388.11
695.21	386.19
695.54	384.20
695.88	382.35
696.21	380.41
696.55	378.51
696.88	376.66
697.22	374.84
697.56	373.14
697.89	371.41
698.23	369.80
698.56	367.98
698.90	366.28
699.23	364.51
699.57	362.89
699.90	361.20
700.24	359.66
700.58	357.90
700.91	356.38
701.25	354.88
701.58	353.50
701.92	352.01
702.25	350.52
702.59	349.05
702.92	347.71
703.26	346.42
703.59	345.20
703.93	344.06
704.26	342.70
704.60	341.33
704.93	339.91
705.26	338.55
705.60	337.43
705.93	336.07
706.27	334.95
706.60	333.72
706.94	332.56
707.27	331.26
707.61	330.17
707.94	328.94
708.27	327.64
708.61	326.41
708.94	325.17
709.28	324.13
709.61	322.96
709.94	321.84
710.28	320.61
710.61	319.44
710.95	318.15
711.28	317.25
711.61	316.12
711.95	315.21
712.28	314.10
712.61	313.01
712.95	312.12
713.28	311.04
713.61	310.04
713.95	308.96
714.28	308.16
714.61	307.10
714.95	306.18
715.28	305.29
715.61	304.17
715.95	303.28
716.28	302.33
716.61	301.62
716.95	300.74
717.28	299.98
717.61	299.08
717.94	298.20
718.28	297.20
718.61	296.40
718.94	295.53
719.27	294.78
719.61	294.02
719.94	293.33
720.27	292.52
720.60	291.69
720.94	291.01
721.27	290.28
721.60	289.72
721.93	289.07
722.27	288.40
722.60	287.92
722.93	287.28
723.26	286.67
723.59	285.85
723.93	285.21
724.26	284.53
724.59	283.95
724.92	283.51
725.25	283.02
725.59	282.47
725.92	282.01
726.25	281.33
726.58	280.70
726.91	279.94
727.24	279.41
727.57	278.96
727.91	278.42
728.24	277.86
728.57	277.20
728.90	276.58
729.23	275.99
729.56	275.47
729.89	275.00
730.22	274.39
730.55	273.88
730.89	273.39
731.22	272.93
731.55	272.33
731.88	271.72
732.21	271.13
732.54	270.55
732.87	269.95
733.20	269.54
733.53	269.15
733.86	268.80
734.19	268.30
734.52	267.77
734.85	267.46
735.18	267.07
735.51	266.71
735.84	266.38
736.17	266.00
736.50	265.57
736.83	265.39
737.16	265.10
737.49	264.80
737.82	264.42
738.15	264.02
738.48	263.70
738.81	263.27
739.14	262.84
739.47	262.62
739.80	262.27
740.13	261.97
740.46	261.57
740.79	261.14
741.12	260.85
741.45	260.61
741.78	260.11
742.11	259.79
742.44	259.48
742.77	259.18
743.10	258.74
743.43	258.28
743.75	257.71
744.08	257.62
744.41	257.31
744.74	257.00
745.07	256.76
745.40	256.47
745.73	256.27
746.06	256.01
746.39	255.71
746.71	255.38
747.04	254.98
747.37	254.71
747.70	254.43
748.03	254.13
748.36	253.81
748.68	253.61
749.01	253.20
749.34	252.89
749.67	252.56
750.00	252.38
750.33	252.42
750.65	252.20
750.98	251.68
751.31	251.40
751.64	251.20
751.97	250.95
752.29	250.65
752.62	250.40
752.95	250.07
753.28	249.65
753.60	249.47
753.93	249.38
754.26	249.14
754.59	248.85
754.91	248.49
755.24	248.15
755.57	247.87
755.90	247.76
756.22	247.52
756.55	247.19
756.88	246.95
757.20	246.47
757.53	246.15
757.86	245.80
758.19	245.62
758.51	245.41
758.84	245.11
759.17	244.95
759.49	244.77
759.82	244.69
760.15	244.51
760.47	244.30
760.80	243.93
761.13	243.76
761.45	243.53
761.78	243.53
762.11	243.41
762.43	243.14
762.76	242.87
763.08	242.70
763.41	242.54
763.74	242.32
764.06	242.18
764.39	242.00
764.71	241.95
765.04	241.70
765.37	241.47
765.69	241.30
766.02	241.17
766.34	240.92
766.67	240.73
767.00	240.73
767.32	240.70
767.65	240.72
767.97	240.50
768.30	240.46
768.62	240.30
768.95	240.20
769.27	240.14
769.60	239.93
769.92	239.75
770.25	239.65
770.57	239.60
770.90	239.40
771.22	239.32
771.55	239.22
771.87	239.12
772.20	238.99
772.52	239.03
772.85	239.14
773.17	239.04
773.50	238.87
773.82	238.56
774.15	238.32
774.47	238.17
774.80	238.07
775.12	237.99
775.45	237.82
775.77	237.63
776.09	237.55
776.42	237.50
776.74	237.47
777.07	237.37
777.39	237.23
777.72	237.26
778.04	237.20
778.36	237.12
778.69	237.13
779.01	237.11
779.33	236.75
779.66	236.43
779.98	236.45
780.31	236.42
780.63	236.55
780.95	236.63
781.28	236.55
781.60	236.51
781.92	236.51
782.25	236.43
782.57	236.41
782.89	236.36
783.22	236.32
783.54	236.17
783.86	236.07
784.19	236.05
784.51	235.96
784.83	235.90
785.16	235.84
785.48	235.67
785.80	235.60
786.12	235.65
786.45	235.48
786.77	235.30
787.09	235.19
787.42	235.05
787.74	234.87
788.06	234.75
788.38	234.62
788.71	234.49
789.03	234.52
789.35	234.51
789.67	234.35
789.99	234.36
790.32	234.27
790.64	234.26
790.96	234.26
791.28	234.20
791.61	234.10
791.93	233.95
792.25	233.98
792.57	234.03
792.89	234.01
793.21	234.07
793.54	233.97
793.86	233.92
794.18	233.81
794.50	233.71
794.82	233.70
795.14	233.71
795.47	233.62
795.79	233.46
796.11	233.28
796.43	233.30
796.75	233.20
797.07	233.17
797.39	233.20
797.71	233.10
798.04	233.04
798.36	233.00
798.68	233.02
799.00	232.85
799.32	232.62
799.64	232.47
799.96	232.35
800.28	232.38
800.60	232.32
800.92	232.43
801.24	232.37
801.56	232.33
801.89	232.31
802.21	232.43
802.53	232.43
802.85	232.53
803.17	232.51
803.49	232.46
803.81	232.41
804.13	232.34
804.45	232.26
804.77	232.32
805.09	232.30
805.41	232.30
805.73	232.34
806.05	232.31
806.37	232.25
806.69	232.29
807.01	232.20
807.33	232.23
807.65	232.10
807.97	232.20
808.28	232.12
808.60	232.08
808.92	231.84
809.24	231.82
809.56	231.69
809.88	231.56
810.20	231.47
810.52	231.49
810.84	231.41
811.16	231.36
811.48	231.22
811.80	231.21
812.12	231.13
812.43	231.18
812.75	231.22
813.07	231.24
813.39	231.18
813.71	231.17
814.03	231.12
814.35	231.06
814.67	230.88
814.98	230.93
815.30	230.83
815.62	230.89
815.94	230.76
816.26	230.77
816.58	230.77
816.89	230.84
817.21	230.77
817.53	230.68
817.85	230.64
818.17	230.54
818.48	230.44
818.80	230.40
819.12	230.29
819.44	230.20
819.76	230.16
820.07	230.13
820.39	230.14
820.71	230.09
821.03	230.03
821.34	230.00
821.66	229.94
821.98	230.03
822.30	229.94
822.61	230.09
822.93	230.08
823.25	229.97
823.57	229.85
823.88	229.89
824.20	229.95
824.52	230.02
824.83	230.09
825.15	230.00
825.47	229.98
825.79	229.98
826.10	229.91
826.42	229.94
826.74	229.91
827.05	229.83
827.37	229.77
827.69	229.79
828.00	229.82
828.32	229.78
828.64	229.67
828.95	229.78
829.27	229.62
829.58	229.52
829.90	229.65
830.22	229.69
830.53	229.69
830.85	229.64
831.17	229.44
831.48	229.39
831.80	229.39
832.11	229.36
832.43	229.28
832.75	229.26
833.06	229.28
833.38	229.16
833.69	229.18
834.01	229.21
834.32	229.20
834.64	229.08
834.96	229.01
835.27	229.00
835.59	228.83
835.90	228.86
836.22	228.85
836.53	228.84
836.85	228.75
837.16	228.87
837.48	228.84
837.79	228.94
838.11	228.92
838.42	228.94
838.74	228.93
839.05	228.87
839.37	228.92
839.68	228.85
840.00	228.90
840.31	228.98
840.63	228.90
840.94	228.85
841.26	228.83
841.57	228.98
841.88	229.02
842.20	228.98
842.51	228.90
842.83	228.89
843.14	228.95
843.46	228.98
843.77	228.87
844.08	228.86
844.40	228.84
844.71	228.80
845.03	228.81
845.34	228.73
845.65	228.81
845.97	228.74
846.28	228.61
846.60	228.69
846.91	228.61
847.22	228.70
847.54	228.78
847.85	228.85
848.16	228.72
848.48	228.64
848.79	228.74
849.10	228.87
849.42	228.91
849.73	228.78
850.04	228.82
850.36	228.73
850.67	228.66
850.98	228.74
851.30	228.79
851.61	228.82
851.92	228.92
852.23	228.95
852.55	229.02
852.86	229.19
853.17	229.24
853.49	229.20
853.80	229.25
854.11	229.27
854.42	229.41
854.74	229.41
855.05	229.43
855.36	229.34
855.67	229.35
855.99	229.39
856.30	229.65
856.61	229.75
856.92	229.77
857.23	229.87
857.55	229.89
857.86	229.88
858.17	230.06
858.48	230.05
858.79	230.06
859.11	230.10
859.42	230.10
859.73	230.00
860.04	230.04
860.35	230.03
860.66	230.01
860.98	229.85
861.29	229.93
861.60	229.97
861.91	230.14
862.22	230.10
862.53	230.07
862.84	229.84
863.16	229.77
863.47	229.72
863.78	229.73
864.09	229.67
864.40	229.77
864.71	229.63
865.02	229.64
865.33	229.58
865.64	229.58
865.95	229.55
866.27	229.60
866.58	229.63
866.89	229.64
867.20	229.52
867.51	229.52
867.82	229.50
868.13	229.57
868.44	229.44
868.75	229.47
869.06	229.35
869.37	229.34
869.68	229.28
869.99	229.35
870.30	229.26
870.61	229.14
870.92	229.09
871.23	229.00
871.54	229.09
871.85	229.04
872.16	228.95
872.47	228.85
872.78	228.85
873.09	228.74
873.40	228.62
873.71	228.75
874.02	228.75
874.33	228.65
874.64	228.57
874.95	228.60
875.26	228.48
875.56	228.54
875.87	228.45
876.18	228.39
876.49	228.51
876.80	228.65
877.11	228.72
877.42	228.68
877.73	228.71
878.04	228.45
878.35	228.39
878.66	228.39
878.96	228.50
879.27	228.43
879.58	228.44
879.89	228.50
880.20	228.42
880.51	228.42
880.82	228.42
881.12	228.36
881.43	228.33
881.74	228.38
882.05	228.33
882.36	228.39
882.67	228.35
882.97	228.13
883.28	228.09
883.59	228.03
883.90	228.06
884.21	228.02
884.51	228.12
884.82	228.18
885.13	228.16
885.44	228.05
885.74	228.10
886.05	228.14
886.36	228.02
886.67	228.03
886.98	228.13
887.28	228.16
887.59	228.16
887.90	228.27
888.20	228.14
888.51	228.21
888.82	228.17
889.13	228.27
889.43	228.52
889.74	228.46
890.05	228.58
890.35	228.50
890.66	228.50
890.97	228.54
891.28	228.69
891.58	228.73
891.89	228.82
892.20	228.84
892.50	228.79
892.81	228.88
893.12	228.86
893.42	228.75
893.73	228.82
894.04	228.91
894.34	228.89
894.65	229.00
894.95	229.06
895.26	229.21
895.57	229.31
895.87	229.17
896.18	229.16
896.48	229.19
896.79	229.21
897.10	229.29
897.40	229.32
897.71	229.24
898.01	229.33
898.32	229.35
898.63	229.33
898.93	229.44
899.24	229.44
899.54	229.50
899.85	229.52
900.15	229.60
900.46	229.54
900.76	229.51
901.07	229.47
901.38	229.38
901.68	229.36
901.99	229.33
902.29	229.31
902.60	229.42
902.90	229.48
903.21	229.48
903.51	229.53
903.82	229.50
904.12	229.52
904.43	229.47
904.73	229.44
905.03	229.40
905.34	229.56
905.64	229.60
905.95	229.61
906.25	229.67
906.56	229.54
906.86	229.57
907.17	229.50
907.47	229.60
907.77	229.60
908.08	229.49
908.38	229.45
908.69	229.47
908.99	229.48
909.30	229.24
909.60	229.30
909.90	229.20
910.21	229.23
910.51	229.12
910.81	229.06
911.12	229.10
911.42	229.18
911.73	228.90
912.03	228.78
912.33	228.73
912.64	228.60
912.94	228.64
913.24	228.61
913.55	228.51
913.85	228.30
914.15	228.29
914.46	228.32
914.76	228.29
915.06	228.24
915.37	228.10
915.67	228.18
915.97	228.15
916.27	228.10
916.58	227.99
916.88	228.00
917.18	228.05
917.49	228.15
917.79	228.06
918.09	228.10
918.39	228.22
918.70	228.28
919.00	228.35
919.30	228.40
919.60	228.44
919.91	228.54
920.21	228.70
920.51	228.74
920.81	228.67
921.12	228.72
921.42	228.62
921.72	228.64
922.02	228.68
922.32	228.66
922.63	228.70
922.93	228.82
923.23	228.93
923.53	228.81
923.83	228.69
924.13	228.74
924.44	228.74
924.74	228.79
925.04	228.81
925.34	228.85
925.64	228.65
925.94	228.62
926.24	228.69
926.55	228.64
926.85	228.68
927.15	228.76
927.45	228.71
927.75	228.72
928.05	228.80
928.35	228.71
928.65	228.80
928.95	228.84
929.26	228.87
929.56	228.75
929.86	228.91
930.16	228.97
930.46	228.90
930.76	228.91
931.06	228.79
931.36	228.78
931.66	228.79
931.96	228.94
932.26	229.03
932.56	229.07
932.86	229.14
933.16	229.09
933.46	229.04
933.76	229.03
934.06	229.16
934.36	229.24
934.66	229.22
934.96	229.18
935.26	229.19
935.56	229.07
935.86	229.10
936.16	228.97
936.46	228.89
936.76	228.91
937.06	228.85
937.36	228.88
937.66	228.83
937.96	228.74
938.26	228.71
938.56	228.60
938.86	228.55
939.16	228.56
939.46	228.64
939.76	228.69
940.06	228.69
940.35	228.58
940.65	228.34
940.95	228.44
941.25	228.36
941.55	228.30
941.85	228.35
942.15	228.38
942.45	228.53
942.75	228.46
943.04	228.44
943.34	228.48
943.64	228.37
943.94	228.32
944.24	228.38
944.54	228.33
944.84	228.29
945.13	228.28
945.43	228.13
945.73	228.12
946.03	228.10
946.33	228.06
946.62	228.12
946.92	228.23
947.22	228.16
947.52	228.14
947.82	228.11
948.11	228.12
948.41	228.10
948.71	227.97
949.01	227.98
949.31	227.92
949.60	227.90
949.90	227.96
950.20	227.97
950.50	227.87
950.79	227.77
951.09	227.81
951.39	227.65
951.69	227.75
951.98	227.69
952.28	227.66
952.58	227.60
952.87	227.49
953.17	227.43
953.47	227.38
953.76	227.45
954.06	227.41
954.36	227.32
954.66	227.27
954.95	227.31
955.25	227.31
955.55	227.33
955.84	227.25
956.14	227.23
956.44	227.24
956.73	227.28
957.03	227.28
957.32	227.28
957.62	227.34
957.92	227.30
958.21	227.32
958.51	227.53
958.81	227.61
959.10	227.70
959.40	227.84
959.69	227.84
959.99	227.75
960.29	227.82
960.58	227.83
960.88	227.94
961.17	227.92
961.47	227.96
961.76	227.96
962.06	228.09
962.36	228.07
962.65	228.13
962.95	228.21
963.24	228.25
963.54	228.24
963.83	228.27
964.13	228.27
964.42	228.23
964.72	228.08
965.01	228.17
965.31	228.16
965.60	228.01
965.90	228.24
966.19	228.34
966.49	228.35
966.78	228.47
967.08	228.46
967.37	228.46
967.67	228.48
967.96	228.59
968.26	228.60
968.55	228.65
968.85	228.56
969.14	228.51
969.43	228.61
969.73	228.73
970.02	228.80
970.32	228.87
970.61	228.87
970.91	228.80
971.20	228.78
971.49	228.84
971.79	228.98
972.08	228.84
972.38	228.88
972.67	228.86
972.96	228.89
973.26	228.91
973.55	229.06
973.85	229.07
974.14	228.99
974.43	228.99
974.73	229.04
975.02	229.09
975.31	229.12
975.61	229.12
975.90	228.97
976.19	228.96
976.49	229.00
976.78	229.02
977.07	229.13
977.37	229.11
977.66	229.05
977.95	229.06
978.24	229.09
978.54	229.06
978.83	229.10
979.12	229.08
979.42	229.07
979.71	229.01
980.00	229.01
980.29	229.12
980.59	229.09
980.88	229.09
981.17	229.07
981.46	229.07
981.76	229.00
982.05	229.07
982.34	229.09
982.63	229.07
982.93	229.14
983.22	229.13
983.51	229.10
983.80	229.14
984.09	229.01
984.39	229.03
984.68	229.05
984.97	229.14
985.26	229.08
985.55	229.12
985.85	229.04
986.14	229.02
986.43	228.94
986.72	228.82
987.01	228.75
987.30	228.76
987.59	228.69
987.89	228.80
988.18	228.65
988.47	228.59
988.76	228.48
989.05	228.32
989.34	228.19
989.63	228.22
989.92	228.19
990.22	228.29
990.51	228.14
990.80	228.03
991.09	227.84
991.38	227.78
991.67	227.68
991.96	227.55
992.25	227.51
992.54	227.45
992.83	227.52
993.12	227.49
993.41	227.45
993.70	227.49
993.99	227.40
994.28	227.49
994.58	227.43
994.87	227.33
995.16	227.35
995.45	227.38
995.74	227.26
996.03	227.30
996.32	227.23
996.61	227.27
996.90	227.31
997.19	227.23
997.48	227.24
997.77	227.16
998.06	227.22
998.34	227.25
998.63	227.24
998.92	227.19
999.21	227.21
999.50	227.21
999.79	227.12
1000.08	227.09
1000.37	227.10
1000.66	227.12
1000.95	227.28
1001.24	227.31
1001.53	227.41
1001.82	227.52
1002.11	227.56
1002.40	227.57
1002.68	227.62
1002.97	227.74
1003.26	227.80
1003.55	227.85
1003.84	227.91
1004.13	227.97
1004.42	227.92
1004.71	228.04
1004.99	228.09
1005.28	228.18
1005.57	228.25
1005.86	228.34
1006.15	228.36
1006.44	228.36
1006.72	228.46
1007.01	228.47
1007.30	228.51
1007.59	228.42
1007.88	228.32
1008.17	228.31
1008.45	228.34
1008.74	228.33
1009.03	228.26
1009.32	228.38
1009.60	228.35
1009.89	228.36
1010.18	228.33
1010.47	228.36
1010.76	228.31
1011.04	228.41
1011.33	228.39
1011.62	228.47
1011.91	228.48
1012.19	228.50
1012.48	228.56
1012.77	228.60
1013.05	228.64
1013.34	228.66
1013.63	228.70
1013.92	228.84
1014.20	228.83
1014.49	228.80
1014.78	228.87
1015.06	228.81
1015.35	228.74
1015.64	228.81
1015.92	228.81
1016.21	228.80
1016.50	228.83
1016.78	228.85
1017.07	228.87
1017.36	228.83
1017.64	228.67
1017.93	228.69
1018.22	228.69
1018.50	228.67
1018.79	228.63
1019.08	228.57
1019.36	228.54
1019.65	228.52
1019.93	228.49
1020.22	228.38
1020.51	228.45
1020.79	228.35
1021.08	228.10
1021.36	228.60
1021.65	229.50
1021.94	228.60
1022.22	228.50
1022.51	227.70
1022.79	228.80
1023.08	227.10
1023.36	230.10
1023.65	227.20
>>>>>End Processed Spectral Data<<<<<
