SpectraSuite Data File
++++++++++++++++++++++++++++++++++++
Date: Fri Feb 01 14:40:15 EST 2013
User: group
Dark Spectrum Present: No
Reference Spectrum Present: No
Number of Sampled Component Spectra: 1
Spectrometers: USB2E7196
Integration Time (usec): 70000 (USB2E7196)
Spectra Averaged: 10 (USB2E7196)
Boxcar Smoothing: 10 (USB2E7196)
Correct for Electrical Dark: No (USB2E7196)
Strobe/Lamp Enabled: No (USB2E7196)
Correct for Detector Non-linearity: No (USB2E7196)
Correct for Stray Light: No (USB2E7196)
Number of Pixels in Processed Spectrum: 2048
>>>>>Begin Processed Spectral Data<<<<<
339.09	0.00
339.48	213.90
339.86	217.60
340.24	219.20
340.63	220.30
341.01	224.80
341.39	222.50
341.78	224.60
342.16	225.30
342.54	227.00
342.93	214.54
343.31	225.40
343.69	226.07
344.07	226.58
344.46	227.04
344.84	227.35
345.22	227.51
345.60	227.81
345.99	227.95
346.37	228.01
346.75	228.09
347.13	228.10
347.52	228.13
347.90	228.29
348.28	228.36
348.66	228.43
349.05	228.42
349.43	228.28
349.81	228.49
350.19	228.49
350.57	228.60
350.96	228.58
351.34	228.65
351.72	228.78
352.10	228.86
352.48	228.92
352.87	229.04
353.25	229.00
353.63	228.97
354.01	229.04
354.39	229.18
354.77	229.22
355.15	229.46
355.54	229.53
355.92	229.49
356.30	229.57
356.68	229.83
357.06	229.82
357.44	230.00
357.82	229.90
358.20	230.00
358.58	229.98
358.97	230.10
359.35	230.14
359.73	230.15
360.11	230.06
360.49	230.05
360.87	230.08
361.25	230.28
361.63	230.49
362.01	230.58
362.39	230.69
362.77	230.68
363.15	230.57
363.53	230.60
363.91	230.62
364.29	230.71
364.67	230.42
365.05	230.50
365.43	230.51
365.81	230.57
366.19	230.62
366.57	230.68
366.95	230.73
367.33	230.70
367.71	230.70
368.09	230.79
368.47	230.78
368.85	230.78
369.23	230.75
369.61	230.57
369.99	230.55
370.37	230.43
370.75	230.48
371.13	230.47
371.51	230.34
371.89	230.34
372.27	230.20
372.65	230.09
373.03	229.94
373.41	229.81
373.78	229.78
374.16	229.47
374.54	229.36
374.92	229.16
375.30	229.09
375.68	228.91
376.06	228.89
376.44	228.66
376.82	228.58
377.19	228.41
377.57	228.29
377.95	228.10
378.33	228.05
378.71	227.96
379.09	227.85
379.47	227.75
379.84	227.49
380.22	227.43
380.60	227.41
380.98	227.40
381.36	227.26
381.73	227.23
382.11	227.37
382.49	227.32
382.87	227.20
383.25	227.13
383.62	227.30
384.00	227.18
384.38	227.33
384.76	227.25
385.13	227.30
385.51	227.34
385.89	227.20
386.27	227.11
386.64	227.02
387.02	226.99
387.40	227.01
387.78	227.10
388.15	227.08
388.53	226.96
388.91	226.86
389.29	226.83
389.66	226.68
390.04	226.59
390.42	226.60
390.79	226.63
391.17	226.58
391.55	226.33
391.92	226.26
392.30	226.14
392.68	226.09
393.05	226.07
393.43	226.05
393.81	226.06
394.18	226.02
394.56	226.12
394.94	226.19
395.31	226.18
395.69	226.22
396.06	226.13
396.44	226.30
396.82	226.36
397.19	226.46
397.57	226.55
397.95	226.65
398.32	226.63
398.70	226.67
399.07	226.76
399.45	226.78
399.82	226.90
400.20	227.06
400.58	227.14
400.95	227.08
401.33	227.21
401.70	227.51
402.08	227.64
402.45	227.63
402.83	227.65
403.20	227.80
403.58	227.91
403.95	228.22
404.33	228.32
404.71	228.55
405.08	228.92
405.46	229.08
405.83	229.14
406.21	229.22
406.58	229.47
406.96	229.70
407.33	229.95
407.70	230.14
408.08	230.50
408.45	230.79
408.83	231.04
409.20	231.24
409.58	231.50
409.95	231.79
410.33	232.03
410.70	232.36
411.08	232.64
411.45	232.97
411.82	233.20
412.20	233.50
412.57	233.88
412.95	234.08
413.32	234.50
413.69	234.97
414.07	235.46
414.44	235.94
414.82	236.41
415.19	236.94
415.56	237.43
415.94	237.94
416.31	238.48
416.68	239.09
417.06	239.74
417.43	240.43
417.81	241.20
418.18	242.04
418.55	242.85
418.93	243.64
419.30	244.39
419.67	245.26
420.04	246.24
420.42	247.17
420.79	248.43
421.16	249.49
421.54	250.62
421.91	251.89
422.28	253.03
422.66	254.29
423.03	255.65
423.40	257.08
423.77	258.31
424.15	259.86
424.52	261.42
424.89	263.04
425.26	264.51
425.64	265.99
426.01	267.54
426.38	269.16
426.75	270.85
427.13	272.63
427.50	274.55
427.87	276.29
428.24	278.17
428.61	279.69
428.99	281.73
429.36	283.90
429.73	285.88
430.10	287.76
430.47	289.79
430.85	291.87
431.22	294.02
431.59	296.53
431.96	298.57
432.33	301.02
432.70	303.44
433.08	306.09
433.45	308.61
433.82	311.22
434.19	314.08
434.56	316.99
434.93	319.65
435.30	322.25
435.68	325.13
436.05	327.88
436.42	330.73
436.79	333.29
437.16	335.92
437.53	338.78
437.90	341.72
438.27	344.52
438.64	347.29
439.01	349.99
439.38	352.14
439.75	354.45
440.13	357.04
440.50	359.26
440.87	361.26
441.24	363.23
441.61	365.39
441.98	366.93
442.35	368.61
442.72	370.37
443.09	372.11
443.46	373.14
443.83	373.77
444.20	374.28
444.57	375.01
444.94	375.34
445.31	375.82
445.68	376.41
446.05	376.61
446.42	376.32
446.79	375.93
447.16	375.40
447.53	375.13
447.90	373.98
448.27	373.02
448.64	371.50
449.01	370.39
449.37	368.45
449.74	366.65
450.11	364.61
450.48	362.29
450.85	359.79
451.22	357.73
451.59	355.80
451.96	353.93
452.33	351.44
452.70	349.14
453.07	346.20
453.43	343.13
453.80	340.24
454.17	337.58
454.54	335.07
454.91	332.41
455.28	329.79
455.65	327.21
456.02	324.89
456.38	322.78
456.75	320.11
457.12	317.93
457.49	315.70
457.86	313.47
458.23	311.69
458.59	309.66
458.96	307.60
459.33	305.71
459.70	303.76
460.07	302.16
460.43	300.43
460.80	298.82
461.17	297.39
461.54	295.90
461.91	294.36
462.27	292.76
462.64	291.48
463.01	290.03
463.38	288.72
463.74	287.10
464.11	285.84
464.48	284.92
464.85	283.70
465.21	282.73
465.58	281.58
465.95	280.33
466.32	279.38
466.68	278.45
467.05	277.53
467.42	276.58
467.78	275.59
468.15	274.60
468.52	273.90
468.88	272.95
469.25	272.11
469.62	271.45
469.98	270.73
470.35	270.11
470.72	269.38
471.08	268.62
471.45	268.06
471.82	267.38
472.18	266.46
472.55	265.91
472.92	265.31
473.28	264.89
473.65	264.42
474.02	263.85
474.38	263.41
474.75	262.93
475.11	262.46
475.48	262.01
475.85	261.70
476.21	261.30
476.58	260.88
476.94	260.43
477.31	260.15
477.67	259.88
478.04	259.54
478.41	259.36
478.77	259.19
479.14	258.88
479.50	258.71
479.87	258.65
480.23	258.55
480.60	258.26
480.96	257.95
481.33	257.72
481.69	257.60
482.06	257.36
482.42	257.18
482.79	257.08
483.15	256.99
483.52	256.94
483.88	256.95
484.25	256.98
484.61	257.04
484.98	257.05
485.34	257.07
485.71	257.11
486.07	257.14
486.44	257.16
486.80	257.32
487.17	257.40
487.53	257.54
487.90	257.61
488.26	257.91
488.62	258.30
488.99	258.48
489.35	258.67
489.72	258.96
490.08	259.20
490.44	259.49
490.81	259.81
491.17	260.03
491.54	260.24
491.90	260.66
492.26	261.16
492.63	261.45
492.99	261.80
493.36	262.31
493.72	262.90
494.08	263.42
494.45	263.91
494.81	264.60
495.17	265.32
495.54	266.11
495.90	266.90
496.26	267.65
496.63	268.53
496.99	269.46
497.35	270.42
497.72	271.59
498.08	272.70
498.44	273.93
498.80	275.21
499.17	276.54
499.53	277.84
499.89	279.20
500.26	280.75
500.62	282.26
500.98	283.91
501.34	285.48
501.71	287.36
502.07	289.18
502.43	291.01
502.79	292.76
503.16	294.82
503.52	296.95
503.88	299.24
504.24	301.67
504.60	304.11
504.97	306.71
505.33	309.29
505.69	312.21
506.05	315.13
506.41	318.15
506.78	321.10
507.14	324.27
507.50	327.69
507.86	331.05
508.22	334.75
508.59	338.43
508.95	342.38
509.31	346.27
509.67	350.47
510.03	354.55
510.39	359.07
510.75	363.62
511.12	368.32
511.48	373.00
511.84	377.93
512.20	382.85
512.56	388.00
512.92	393.24
513.28	398.47
513.64	404.06
514.00	409.62
514.37	415.51
514.73	421.59
515.09	427.55
515.45	433.87
515.81	440.05
516.17	446.66
516.53	453.36
516.89	460.00
517.25	466.80
517.61	474.08
517.97	481.29
518.33	488.29
518.69	495.67
519.05	503.16
519.41	510.70
519.77	518.63
520.13	526.71
520.49	534.90
520.85	543.04
521.21	551.26
521.57	559.64
521.93	568.20
522.29	576.93
522.65	585.57
523.01	594.33
523.37	603.61
523.73	612.58
524.09	621.60
524.45	631.02
524.81	640.58
525.17	650.20
525.53	659.94
525.89	669.90
526.25	679.66
526.61	689.77
526.97	699.97
527.33	710.05
527.68	720.19
528.04	730.33
528.40	740.84
528.76	751.56
529.12	762.25
529.48	773.11
529.84	783.44
530.20	794.63
530.56	805.83
530.91	817.02
531.27	828.08
531.63	839.18
531.99	850.45
532.35	861.42
532.71	872.17
533.07	883.24
533.42	894.58
533.78	905.75
534.14	916.91
534.50	927.79
534.86	939.15
535.21	949.97
535.57	961.45
535.93	972.65
536.29	983.65
536.65	994.89
537.00	1005.71
537.36	1017.31
537.72	1028.34
538.08	1039.20
538.44	1050.09
538.79	1060.97
539.15	1071.82
539.51	1082.81
539.87	1094.14
540.22	1105.44
540.58	1116.67
540.94	1127.39
541.29	1138.30
541.65	1148.85
542.01	1160.06
542.37	1170.99
542.72	1182.14
543.08	1192.41
543.44	1203.08
543.79	1213.18
544.15	1223.69
544.51	1234.67
544.87	1244.88
545.22	1255.08
545.58	1265.27
545.94	1274.79
546.29	1284.64
546.65	1294.33
547.01	1303.77
547.36	1312.87
547.72	1321.71
548.07	1330.85
548.43	1339.63
548.79	1348.26
549.14	1356.96
549.50	1365.04
549.86	1373.29
550.21	1381.36
550.57	1390.04
550.92	1398.00
551.28	1406.39
551.64	1413.89
551.99	1421.29
552.35	1428.68
552.70	1436.06
553.06	1443.51
553.41	1451.12
553.77	1458.67
554.13	1466.23
554.48	1473.51
554.84	1480.33
555.19	1487.33
555.55	1493.90
555.90	1500.46
556.26	1507.43
556.61	1514.33
556.97	1520.96
557.32	1527.34
557.68	1533.53
558.03	1539.86
558.39	1545.87
558.74	1552.19
559.10	1558.51
559.45	1564.41
559.81	1570.73
560.16	1576.43
560.52	1581.90
560.87	1587.73
561.23	1592.63
561.58	1597.77
561.94	1602.56
562.29	1607.58
562.64	1612.55
563.00	1617.23
563.35	1622.81
563.71	1628.09
564.06	1632.93
564.42	1637.91
564.77	1642.45
565.12	1647.44
565.48	1651.89
565.83	1655.90
566.19	1659.68
566.54	1663.54
566.89	1667.55
567.25	1671.08
567.60	1675.11
567.96	1678.77
568.31	1681.47
568.66	1684.54
569.02	1687.67
569.37	1690.82
569.72	1693.82
570.08	1696.60
570.43	1698.86
570.78	1700.70
571.14	1702.03
571.49	1703.74
571.84	1705.84
572.20	1707.25
572.55	1708.39
572.90	1708.80
573.26	1710.63
573.61	1711.59
573.96	1712.28
574.31	1711.84
574.67	1711.67
575.02	1711.49
575.37	1711.60
575.72	1711.37
576.08	1711.62
576.43	1710.98
576.78	1710.41
577.13	1710.19
577.49	1709.52
577.84	1709.50
578.19	1709.09
578.54	1708.25
578.90	1706.96
579.25	1704.81
579.60	1703.23
579.95	1701.76
580.30	1700.25
580.66	1698.00
581.01	1695.83
581.36	1693.95
581.71	1693.00
582.06	1691.39
582.42	1688.82
582.77	1686.45
583.12	1684.65
583.47	1682.80
583.82	1680.95
584.17	1678.68
584.53	1676.32
584.88	1674.43
585.23	1671.56
585.58	1668.99
585.93	1666.44
586.28	1664.26
586.63	1662.37
586.98	1660.55
587.34	1657.71
587.69	1655.40
588.04	1652.86
588.39	1651.00
588.74	1647.89
589.09	1644.47
589.44	1640.88
589.79	1638.27
590.14	1635.49
590.49	1632.26
590.84	1628.89
591.19	1625.63
591.54	1621.75
591.89	1617.11
592.25	1613.09
592.60	1609.04
592.95	1604.32
593.30	1600.34
593.65	1595.89
594.00	1591.40
594.35	1587.11
594.70	1582.70
595.05	1578.58
595.40	1573.76
595.75	1568.62
596.10	1564.40
596.45	1560.45
596.80	1557.30
597.15	1553.45
597.50	1549.10
597.85	1545.20
598.19	1541.22
598.54	1537.15
598.89	1533.43
599.24	1530.61
599.59	1526.34
599.94	1522.46
600.29	1518.90
600.64	1514.29
600.99	1509.98
601.34	1505.73
601.69	1501.00
602.04	1496.89
602.39	1492.63
602.74	1489.39
603.08	1485.76
603.43	1482.04
603.78	1477.71
604.13	1472.83
604.48	1468.05
604.83	1463.26
605.18	1458.70
605.53	1453.17
605.87	1447.31
606.22	1442.51
606.57	1436.97
606.92	1432.33
607.27	1427.62
607.62	1422.89
607.96	1418.59
608.31	1414.20
608.66	1408.91
609.01	1403.63
609.36	1398.06
609.70	1391.72
610.05	1385.30
610.40	1379.42
610.75	1373.29
611.10	1367.28
611.44	1361.12
611.79	1355.53
612.14	1349.87
612.49	1343.11
612.83	1337.40
613.18	1332.00
613.53	1326.35
613.88	1320.22
614.22	1313.80
614.57	1307.37
614.92	1301.10
615.27	1294.96
615.61	1288.47
615.96	1282.84
616.31	1277.35
616.65	1272.22
617.00	1267.17
617.35	1261.59
617.70	1255.60
618.04	1249.37
618.39	1243.83
618.74	1238.38
619.08	1232.35
619.43	1226.50
619.78	1221.20
620.12	1215.40
620.47	1209.69
620.82	1203.49
621.16	1197.69
621.51	1192.22
621.85	1186.80
622.20	1180.96
622.55	1175.13
622.89	1169.50
623.24	1163.44
623.59	1157.89
623.93	1152.37
624.28	1146.39
624.62	1141.06
624.97	1135.53
625.32	1130.44
625.66	1124.95
626.01	1119.57
626.35	1114.06
626.70	1108.55
627.04	1103.30
627.39	1097.56
627.73	1091.93
628.08	1086.49
628.43	1081.04
628.77	1075.44
629.12	1069.71
629.46	1064.10
629.81	1058.25
630.15	1052.35
630.50	1046.95
630.84	1040.95
631.19	1034.47
631.53	1028.65
631.88	1022.51
632.22	1016.50
632.57	1011.02
632.91	1004.99
633.26	998.88
633.60	993.00
633.95	987.14
634.29	981.31
634.64	976.23
634.98	970.70
635.32	965.20
635.67	960.29
636.01	955.16
636.36	949.39
636.70	944.20
637.05	939.17
637.39	934.38
637.73	929.38
638.08	924.53
638.42	920.01
638.77	915.36
639.11	910.24
639.45	905.36
639.80	900.20
640.14	895.48
640.49	890.55
640.83	885.44
641.17	880.86
641.52	876.04
641.86	870.80
642.20	866.28
642.55	861.40
642.89	856.31
643.23	851.20
643.58	846.66
643.92	841.71
644.26	836.78
644.61	832.28
644.95	827.47
645.29	822.07
645.64	816.62
645.98	811.70
646.32	807.30
646.66	802.67
647.01	797.69
647.35	792.92
647.69	788.14
648.04	783.82
648.38	778.87
648.72	773.62
649.06	768.59
649.41	763.58
649.75	758.50
650.09	753.36
650.43	748.52
650.78	743.71
651.12	738.89
651.46	734.25
651.80	729.13
652.14	724.33
652.49	719.97
652.83	715.69
653.17	710.90
653.51	705.94
653.85	701.21
654.20	696.46
654.54	691.47
654.88	686.96
655.22	682.05
655.56	677.42
655.90	673.40
656.25	669.31
656.59	665.02
656.93	660.95
657.27	656.98
657.61	652.45
657.95	648.43
658.29	644.46
658.64	640.36
658.98	636.13
659.32	631.76
659.66	627.63
660.00	623.53
660.34	619.56
660.68	615.64
661.02	611.70
661.36	608.11
661.70	604.77
662.05	601.12
662.39	597.59
662.73	594.02
663.07	590.32
663.41	586.90
663.75	583.26
664.09	579.73
664.43	575.98
664.77	572.98
665.11	569.67
665.45	566.15
665.79	562.74
666.13	559.36
666.47	556.24
666.81	552.72
667.15	549.36
667.49	546.29
667.83	543.30
668.17	540.09
668.51	536.87
668.85	533.45
669.19	530.39
669.53	527.21
669.87	524.23
670.21	521.38
670.55	518.05
670.89	515.32
671.23	512.50
671.57	509.77
671.91	506.70
672.25	503.62
672.58	500.90
672.92	498.10
673.26	495.45
673.60	492.72
673.94	490.37
674.28	487.86
674.62	485.32
674.96	482.60
675.30	480.24
675.64	477.75
675.97	475.42
676.31	472.84
676.65	470.54
676.99	468.10
677.33	465.47
677.67	463.26
678.01	460.74
678.34	458.28
678.68	455.95
679.02	453.64
679.36	451.42
679.70	449.17
680.04	446.96
680.37	444.56
680.71	442.38
681.05	440.20
681.39	438.09
681.73	436.01
682.06	434.00
682.40	431.85
682.74	429.79
683.08	427.60
683.42	425.56
683.75	423.54
684.09	421.44
684.43	419.49
684.77	417.48
685.10	415.41
685.44	413.42
685.78	411.50
686.12	409.48
686.45	407.49
686.79	405.52
687.13	403.55
687.46	401.84
687.80	399.92
688.14	397.90
688.48	395.98
688.81	393.82
689.15	391.93
689.49	389.96
689.82	388.13
690.16	386.34
690.50	384.62
690.83	382.75
691.17	380.86
691.51	379.18
691.84	377.31
692.18	375.62
692.52	373.84
692.85	372.29
693.19	370.80
693.52	369.20
693.86	367.40
694.20	365.81
694.53	364.20
694.87	362.65
695.21	361.06
695.54	359.46
695.88	357.99
696.21	356.42
696.55	355.05
696.88	353.50
697.22	352.11
697.56	350.62
697.89	349.14
698.23	347.84
698.56	346.40
698.90	345.17
699.23	343.65
699.57	342.26
699.90	340.60
700.24	339.13
700.58	337.75
700.91	336.60
701.25	335.50
701.58	334.30
701.92	333.01
702.25	331.66
702.59	330.41
702.92	329.18
703.26	328.07
703.59	326.76
703.93	325.84
704.26	324.63
704.60	323.36
704.93	322.20
705.26	321.04
705.60	320.07
705.93	318.97
706.27	318.09
706.60	317.10
706.94	316.10
707.27	315.02
707.61	314.13
707.94	313.07
708.27	311.79
708.61	310.72
708.94	309.74
709.28	308.99
709.61	308.11
709.94	307.40
710.28	306.41
710.61	305.63
710.95	304.55
711.28	303.65
711.61	302.80
711.95	301.96
712.28	301.08
712.61	299.96
712.95	299.18
713.28	298.36
713.61	297.56
713.95	296.78
714.28	296.09
714.61	295.24
714.95	294.58
715.28	293.87
715.61	293.05
715.95	292.35
716.28	291.51
716.61	290.74
716.95	289.86
717.28	289.17
717.61	288.40
717.94	287.74
718.28	287.15
718.61	286.62
718.94	286.00
719.27	285.28
719.61	284.82
719.94	284.12
720.27	283.35
720.60	282.70
720.94	282.28
721.27	281.77
721.60	281.10
721.93	280.40
722.27	280.00
722.60	279.46
722.93	279.01
723.26	278.50
723.59	277.97
723.93	277.58
724.26	277.16
724.59	276.60
724.92	276.07
725.25	275.51
725.59	274.98
725.92	274.53
726.25	274.16
726.58	273.72
726.91	273.35
727.24	272.98
727.57	272.55
727.91	271.88
728.24	271.29
728.57	270.99
728.90	270.54
729.23	269.97
729.56	269.60
729.89	269.05
730.22	268.55
730.55	268.10
730.89	267.62
731.22	267.12
731.55	266.79
731.88	266.42
732.21	265.98
732.54	265.51
732.87	265.09
733.20	264.62
733.53	264.08
733.86	263.64
734.19	263.18
734.52	262.72
734.85	262.50
735.18	262.08
735.51	261.69
735.84	261.32
736.17	260.99
736.50	260.51
736.83	260.35
737.16	260.04
737.49	259.74
737.82	259.35
738.15	258.87
738.48	258.47
738.81	258.10
739.14	257.78
739.47	257.47
739.80	257.05
740.13	256.90
740.46	256.50
740.79	256.11
741.12	255.87
741.45	255.68
741.78	255.35
742.11	255.07
742.44	254.60
742.77	254.44
743.10	254.03
743.43	253.76
743.75	253.25
744.08	253.21
744.41	252.92
744.74	252.63
745.07	252.46
745.40	252.25
745.73	252.02
746.06	251.71
746.39	251.48
746.71	251.25
747.04	250.78
747.37	250.70
747.70	250.50
748.03	250.26
748.36	249.91
748.68	249.59
749.01	249.27
749.34	249.26
749.67	248.94
750.00	248.81
750.33	248.69
750.65	248.58
750.98	248.09
751.31	247.90
751.64	247.75
751.97	247.55
752.29	247.20
752.62	246.92
752.95	246.76
753.28	246.54
753.60	246.33
753.93	246.25
754.26	246.00
754.59	245.70
754.91	245.40
755.24	245.25
755.57	244.98
755.90	244.85
756.22	244.55
756.55	244.40
756.88	244.22
757.20	243.91
757.53	243.60
757.86	243.52
758.19	243.27
758.51	243.07
758.84	242.89
759.17	242.85
759.49	242.62
759.82	242.43
760.15	242.32
760.47	242.15
760.80	241.95
761.13	241.75
761.45	241.65
761.78	241.56
762.11	241.37
762.43	241.31
762.76	241.14
763.08	240.95
763.41	240.75
763.74	240.59
764.06	240.43
764.39	240.29
764.71	240.09
765.04	239.95
765.37	239.77
765.69	239.59
766.02	239.41
766.34	239.30
766.67	239.25
767.00	239.07
767.32	238.98
767.65	239.01
767.97	238.94
768.30	238.76
768.62	238.61
768.95	238.53
769.27	238.40
769.60	238.30
769.92	238.12
770.25	237.85
770.57	237.69
770.90	237.54
771.22	237.45
771.55	237.39
771.87	237.33
772.20	237.19
772.52	237.27
772.85	237.43
773.17	237.31
773.50	237.17
773.82	237.04
774.15	237.00
774.47	236.71
774.80	236.49
775.12	236.48
775.45	236.44
775.77	236.38
776.09	236.27
776.42	236.25
776.74	236.28
777.07	236.36
777.39	236.32
777.72	236.27
778.04	236.19
778.36	236.04
778.69	235.96
779.01	235.99
779.33	235.74
779.66	235.32
779.98	235.27
780.31	235.16
780.63	235.20
780.95	235.13
781.28	235.11
781.60	235.12
781.92	235.06
782.25	234.90
782.57	234.86
782.89	234.90
783.22	234.75
783.54	234.65
783.86	234.51
784.19	234.40
784.51	234.40
784.83	234.31
785.16	234.18
785.48	234.12
785.80	234.05
786.12	234.05
786.45	234.07
786.77	234.02
787.09	233.92
787.42	233.73
787.74	233.64
788.06	233.60
788.38	233.48
788.71	233.40
789.03	233.41
789.35	233.40
789.67	233.31
789.99	233.29
790.32	233.27
790.64	233.33
790.96	233.35
791.28	233.36
791.61	233.30
791.93	233.40
792.25	233.39
792.57	233.42
792.89	233.31
793.21	233.30
793.54	233.30
793.86	233.32
794.18	233.35
794.50	233.30
794.82	233.20
795.14	233.21
795.47	233.27
795.79	233.15
796.11	233.00
796.43	233.00
796.75	232.95
797.07	232.90
797.39	232.90
797.71	232.80
798.04	232.66
798.36	232.68
798.68	232.60
799.00	232.44
799.32	232.35
799.64	232.31
799.96	232.24
800.28	232.20
800.60	232.12
800.92	232.12
801.24	231.96
801.56	232.01
801.89	232.00
802.21	231.94
802.53	231.97
802.85	231.96
803.17	231.90
803.49	231.87
803.81	231.85
804.13	231.76
804.45	231.75
804.77	231.80
805.09	231.79
805.41	231.66
805.73	231.62
806.05	231.53
806.37	231.49
806.69	231.48
807.01	231.32
807.33	231.39
807.65	231.32
807.97	231.39
808.28	231.30
808.60	231.22
808.92	231.16
809.24	231.15
809.56	231.13
809.88	231.08
810.20	231.03
810.52	230.93
810.84	230.87
811.16	230.87
811.48	230.79
811.80	230.86
812.12	230.97
812.43	231.03
812.75	230.92
813.07	231.05
813.39	231.10
813.71	231.19
814.03	231.15
814.35	231.07
814.67	231.01
814.98	231.03
815.30	231.00
815.62	230.94
815.94	230.73
816.26	230.68
816.58	230.62
816.89	230.62
817.21	230.63
817.53	230.59
817.85	230.43
818.17	230.36
818.48	230.18
818.80	230.23
819.12	230.10
819.44	230.14
819.76	229.91
820.07	229.82
820.39	229.73
820.71	229.71
821.03	229.66
821.34	229.72
821.66	229.66
821.98	229.67
822.30	229.63
822.61	229.75
822.93	229.75
823.25	229.64
823.57	229.57
823.88	229.63
824.20	229.63
824.52	229.80
824.83	229.88
825.15	229.80
825.47	229.63
825.79	229.68
826.10	229.55
826.42	229.57
826.74	229.57
827.05	229.57
827.37	229.44
827.69	229.52
828.00	229.38
828.32	229.41
828.64	229.41
828.95	229.52
829.27	229.59
829.58	229.52
829.90	229.59
830.22	229.61
830.53	229.53
830.85	229.48
831.17	229.38
831.48	229.28
831.80	229.34
832.11	229.45
832.43	229.38
832.75	229.44
833.06	229.53
833.38	229.44
833.69	229.44
834.01	229.50
834.32	229.42
834.64	229.49
834.96	229.42
835.27	229.49
835.59	229.39
835.90	229.25
836.22	229.23
836.53	229.20
836.85	229.14
837.16	229.26
837.48	229.28
837.79	229.22
838.11	229.18
838.42	229.09
838.74	229.07
839.05	229.12
839.37	229.07
839.68	228.89
840.00	228.93
840.31	228.97
840.63	228.91
840.94	228.83
841.26	228.92
841.57	228.98
841.88	228.96
842.20	228.96
842.51	228.89
842.83	228.92
843.14	229.15
843.46	229.22
843.77	229.13
844.08	229.19
844.40	229.19
844.71	229.23
845.03	229.34
845.34	229.22
845.65	229.22
845.97	229.29
846.28	229.32
846.60	229.27
846.91	229.23
847.22	229.21
847.54	229.37
847.85	229.27
848.16	229.22
848.48	229.10
848.79	229.17
849.10	229.30
849.42	229.29
849.73	229.13
850.04	229.05
850.36	228.97
850.67	229.00
850.98	229.07
851.30	229.11
851.61	229.11
851.92	229.08
852.23	229.10
852.55	229.04
852.86	229.10
853.17	229.13
853.49	229.14
853.80	229.22
854.11	229.15
854.42	229.17
854.74	229.19
855.05	229.25
855.36	229.19
855.67	229.18
855.99	229.19
856.30	229.30
856.61	229.40
856.92	229.47
857.23	229.47
857.55	229.37
857.86	229.28
858.17	229.24
858.48	229.31
858.79	229.23
859.11	229.28
859.42	229.39
859.73	229.31
860.04	229.31
860.35	229.21
860.66	229.20
860.98	229.16
861.29	229.17
861.60	229.14
861.91	229.21
862.22	229.16
862.53	229.13
862.84	228.97
863.16	228.96
863.47	228.90
863.78	228.74
864.09	228.72
864.40	228.80
864.71	228.70
865.02	228.68
865.33	228.72
865.64	228.76
865.95	228.63
866.27	228.81
866.58	228.77
866.89	228.80
867.20	228.76
867.51	228.76
867.82	228.70
868.13	228.71
868.44	228.54
868.75	228.58
869.06	228.56
869.37	228.44
869.68	228.39
869.99	228.38
870.30	228.38
870.61	228.44
870.92	228.36
871.23	228.58
871.54	228.61
871.85	228.69
872.16	228.64
872.47	228.69
872.78	228.60
873.09	228.54
873.40	228.54
873.71	228.60
874.02	228.65
874.33	228.70
874.64	228.60
874.95	228.69
875.26	228.67
875.56	228.62
875.87	228.68
876.18	228.67
876.49	228.82
876.80	228.90
877.11	228.88
877.42	228.90
877.73	228.72
878.04	228.64
878.35	228.66
878.66	228.66
878.96	228.59
879.27	228.50
879.58	228.54
879.89	228.55
880.20	228.55
880.51	228.52
880.82	228.47
881.12	228.48
881.43	228.38
881.74	228.24
882.05	228.36
882.36	228.41
882.67	228.42
882.97	228.24
883.28	228.14
883.59	228.20
883.90	228.17
884.21	228.22
884.51	228.27
884.82	228.21
885.13	228.13
885.44	228.17
885.74	228.20
886.05	228.28
886.36	228.29
886.67	228.26
886.98	228.31
887.28	228.34
887.59	228.35
887.90	228.42
888.20	228.43
888.51	228.34
888.82	228.27
889.13	228.23
889.43	228.45
889.74	228.44
890.05	228.38
890.35	228.45
890.66	228.41
890.97	228.40
891.28	228.37
891.58	228.53
891.89	228.47
892.20	228.44
892.50	228.41
892.81	228.33
893.12	228.29
893.42	228.23
893.73	228.23
894.04	228.30
894.34	228.33
894.65	228.38
894.95	228.33
895.26	228.40
895.57	228.46
895.87	228.25
896.18	228.30
896.48	228.32
896.79	228.27
897.10	228.36
897.40	228.36
897.71	228.30
898.01	228.17
898.32	228.19
898.63	228.26
898.93	228.21
899.24	228.22
899.54	228.27
899.85	228.20
900.15	228.17
900.46	228.20
900.76	228.21
901.07	228.15
901.38	228.20
901.68	228.13
901.99	228.02
902.29	228.01
902.60	228.02
902.90	227.91
903.21	227.90
903.51	227.84
903.82	227.88
904.12	227.89
904.43	227.93
904.73	227.99
905.03	227.93
905.34	228.10
905.64	228.04
905.95	227.97
906.25	227.99
906.56	228.01
906.86	227.95
907.17	227.87
907.47	227.92
907.77	227.90
908.08	227.88
908.38	228.03
908.69	228.10
908.99	228.16
909.30	228.24
909.60	228.24
909.90	228.25
910.21	228.16
910.51	228.11
910.81	228.16
911.12	228.14
911.42	228.15
911.73	227.94
912.03	228.02
912.33	228.08
912.64	228.13
912.94	228.04
913.24	228.02
913.55	228.01
913.85	227.99
914.15	228.19
914.46	228.26
914.76	228.14
915.06	228.14
915.37	228.04
915.67	228.02
915.97	228.03
916.27	227.87
916.58	227.90
916.88	227.91
917.18	227.81
917.49	227.84
917.79	227.85
918.09	227.94
918.39	228.06
918.70	228.08
919.00	227.97
919.30	228.10
919.60	228.18
919.91	228.14
920.21	228.26
920.51	228.02
920.81	227.96
921.12	228.04
921.42	227.98
921.72	228.15
922.02	228.24
922.32	228.27
922.63	228.39
922.93	228.51
923.23	228.55
923.53	228.63
923.83	228.55
924.13	228.54
924.44	228.54
924.74	228.53
925.04	228.62
925.34	228.77
925.64	228.66
925.94	228.63
926.24	228.81
926.55	228.79
926.85	228.90
927.15	228.91
927.45	228.90
927.75	228.93
928.05	228.80
928.35	228.77
928.65	228.76
928.95	228.87
929.26	228.77
929.56	228.84
929.86	228.90
930.16	228.85
930.46	228.88
930.76	228.84
931.06	228.70
931.36	228.66
931.66	228.65
931.96	228.71
932.26	228.76
932.56	228.71
932.86	228.69
933.16	228.65
933.46	228.67
933.76	228.60
934.06	228.64
934.36	228.64
934.66	228.65
934.96	228.75
935.26	228.60
935.56	228.58
935.86	228.50
936.16	228.42
936.46	228.50
936.76	228.48
937.06	228.48
937.36	228.60
937.66	228.54
937.96	228.54
938.26	228.46
938.56	228.38
938.86	228.43
939.16	228.46
939.46	228.50
939.76	228.49
940.06	228.46
940.35	228.35
940.65	228.30
940.95	228.27
941.25	228.11
941.55	228.12
941.85	228.11
942.15	228.13
942.45	228.13
942.75	228.09
943.04	228.02
943.34	228.13
943.64	228.10
943.94	228.10
944.24	228.03
944.54	227.99
944.84	227.98
945.13	227.87
945.43	227.84
945.73	227.79
946.03	227.82
946.33	227.88
946.62	228.01
946.92	228.04
947.22	227.97
947.52	227.98
947.82	228.10
948.11	228.06
948.41	228.02
948.71	227.99
949.01	227.98
949.31	227.99
949.60	227.87
949.90	227.88
950.20	227.89
950.50	227.87
950.79	227.90
951.09	228.06
951.39	228.04
951.69	227.98
951.98	228.03
952.28	228.07
952.58	228.07
952.87	228.02
953.17	228.02
953.47	228.09
953.76	228.15
954.06	228.10
954.36	228.11
954.66	228.21
954.95	228.26
955.25	228.42
955.55	228.37
955.84	228.41
956.14	228.31
956.44	228.31
956.73	228.36
957.03	228.32
957.32	228.27
957.62	228.33
957.92	228.43
958.21	228.45
958.51	228.75
958.81	228.80
959.10	228.74
959.40	228.88
959.69	228.88
959.99	228.94
960.29	228.94
960.58	229.03
960.88	229.01
961.17	229.05
961.47	229.04
961.76	229.12
962.06	229.14
962.36	229.20
962.65	229.22
962.95	229.16
963.24	229.20
963.54	229.12
963.83	229.10
964.13	229.07
964.42	228.98
964.72	228.76
965.01	228.67
965.31	228.75
965.60	228.60
965.90	228.75
966.19	228.65
966.49	228.65
966.78	228.70
967.08	228.66
967.37	228.57
967.67	228.50
967.96	228.55
968.26	228.60
968.55	228.54
968.85	228.49
969.14	228.48
969.43	228.49
969.73	228.40
970.02	228.42
970.32	228.39
970.61	228.42
970.91	228.28
971.20	228.32
971.49	228.20
971.79	228.33
972.08	228.09
972.38	228.07
972.67	228.07
972.96	227.96
973.26	227.82
973.55	227.95
973.85	227.86
974.14	227.80
974.43	227.70
974.73	227.70
975.02	227.78
975.31	227.82
975.61	227.89
975.90	228.00
976.19	227.90
976.49	227.86
976.78	227.88
977.07	227.85
977.37	227.87
977.66	227.90
977.95	227.81
978.24	227.91
978.54	227.85
978.83	227.82
979.12	227.82
979.42	227.94
979.71	227.87
980.00	227.92
980.29	227.99
980.59	227.97
980.88	227.99
981.17	227.96
981.46	228.01
981.76	228.02
982.05	228.15
982.34	228.24
982.63	228.30
982.93	228.31
983.22	228.48
983.51	228.45
983.80	228.50
984.09	228.51
984.39	228.46
984.68	228.48
984.97	228.42
985.26	228.42
985.55	228.45
985.85	228.34
986.14	228.40
986.43	228.38
986.72	228.50
987.01	228.50
987.30	228.49
987.59	228.47
987.89	228.49
988.18	228.31
988.47	228.27
988.76	228.27
989.05	228.19
989.34	228.27
989.63	228.30
989.92	228.29
990.22	228.34
990.51	228.36
990.80	228.44
991.09	228.45
991.38	228.40
991.67	228.33
991.96	228.47
992.25	228.38
992.54	228.42
992.83	228.41
993.12	228.39
993.41	228.31
993.70	228.32
993.99	228.28
994.28	228.31
994.58	228.32
994.87	228.33
995.16	228.36
995.45	228.20
995.74	228.10
996.03	228.13
996.32	228.10
996.61	228.12
996.90	228.11
997.19	228.18
997.48	228.18
997.77	228.22
998.06	228.18
998.34	228.21
998.63	228.19
998.92	228.10
999.21	228.18
999.50	228.25
999.79	228.26
1000.08	228.29
1000.37	228.35
1000.66	228.37
1000.95	228.35
1001.24	228.39
1001.53	228.39
1001.82	228.55
1002.11	228.48
1002.40	228.53
1002.68	228.62
1002.97	228.71
1003.26	228.72
1003.55	228.80
1003.84	228.82
1004.13	228.88
1004.42	228.90
1004.71	228.86
1004.99	228.94
1005.28	228.96
1005.57	228.96
1005.86	228.80
1006.15	228.73
1006.44	228.58
1006.72	228.58
1007.01	228.52
1007.30	228.46
1007.59	228.39
1007.88	228.27
1008.17	228.27
1008.45	228.20
1008.74	228.09
1009.03	227.99
1009.32	227.88
1009.60	227.85
1009.89	227.80
1010.18	227.75
1010.47	227.70
1010.76	227.60
1011.04	227.50
1011.33	227.47
1011.62	227.49
1011.91	227.50
1012.19	227.50
1012.48	227.61
1012.77	227.57
1013.05	227.68
1013.34	227.68
1013.63	227.71
1013.92	227.76
1014.20	227.72
1014.49	227.77
1014.78	227.80
1015.06	227.79
1015.35	227.88
1015.64	227.85
1015.92	227.90
1016.21	227.94
1016.50	227.92
1016.78	227.92
1017.07	227.96
1017.36	227.95
1017.64	227.88
1017.93	228.03
1018.22	227.92
1018.50	227.85
1018.79	227.88
1019.08	227.76
1019.36	227.81
1019.65	227.74
1019.93	227.69
1020.22	227.73
1020.51	227.70
1020.79	227.72
1021.08	225.20
1021.36	227.30
1021.65	228.00
1021.94	227.40
1022.22	228.50
1022.51	226.30
1022.79	227.60
1023.08	227.00
1023.36	228.60
1023.65	228.80
>>>>>End Processed Spectral Data<<<<<
