SpectraSuite Data File
++++++++++++++++++++++++++++++++++++
Date: Fri Feb 01 14:34:36 EST 2013
User: group
Dark Spectrum Present: No
Reference Spectrum Present: No
Number of Sampled Component Spectra: 1
Spectrometers: USB2E7196
Integration Time (usec): 70000 (USB2E7196)
Spectra Averaged: 10 (USB2E7196)
Boxcar Smoothing: 10 (USB2E7196)
Correct for Electrical Dark: No (USB2E7196)
Strobe/Lamp Enabled: No (USB2E7196)
Correct for Detector Non-linearity: No (USB2E7196)
Correct for Stray Light: No (USB2E7196)
Number of Pixels in Processed Spectrum: 2048
>>>>>Begin Processed Spectral Data<<<<<
339.09	0.00
339.48	214.90
339.86	216.60
340.24	219.70
340.63	221.60
341.01	225.20
341.39	223.90
341.78	223.30
342.16	224.40
342.54	226.20
342.93	214.63
343.31	225.45
343.69	226.10
344.07	226.62
344.46	227.02
344.84	227.38
345.22	227.58
345.60	227.85
345.99	228.12
346.37	228.33
346.75	228.38
347.13	228.38
347.52	228.50
347.90	228.60
348.28	228.64
348.66	228.65
349.05	228.55
349.43	228.60
349.81	228.70
350.19	228.71
350.57	228.65
350.96	228.76
351.34	228.89
351.72	228.97
352.10	229.12
352.48	229.26
352.87	229.25
353.25	229.30
353.63	229.27
354.01	229.43
354.39	229.57
354.77	229.69
355.15	229.81
355.54	229.85
355.92	229.82
356.30	229.80
356.68	229.97
357.06	230.02
357.44	230.04
357.82	230.21
358.20	230.30
358.58	230.55
358.97	230.65
359.35	230.73
359.73	230.75
360.11	230.80
360.49	230.73
360.87	230.83
361.25	230.83
361.63	230.91
362.01	230.80
362.39	230.69
362.77	230.81
363.15	230.84
363.53	230.82
363.91	230.93
364.29	231.04
364.67	230.82
365.05	230.86
365.43	230.94
365.81	230.91
366.19	230.98
366.57	230.96
366.95	230.99
367.33	230.86
367.71	230.86
368.09	230.85
368.47	230.87
368.85	230.86
369.23	230.89
369.61	230.81
369.99	230.85
370.37	230.94
370.75	230.96
371.13	230.91
371.51	230.94
371.89	230.85
372.27	230.78
372.65	230.78
373.03	230.76
373.41	230.67
373.78	230.52
374.16	230.35
374.54	230.24
374.92	230.09
375.30	230.00
375.68	229.83
376.06	229.73
376.44	229.55
376.82	229.49
377.19	229.33
377.57	229.26
377.95	229.07
378.33	228.86
378.71	228.61
379.09	228.60
379.47	228.46
379.84	228.31
380.22	228.13
380.60	228.01
380.98	227.84
381.36	227.73
381.73	227.65
382.11	227.64
382.49	227.62
382.87	227.49
383.25	227.47
383.62	227.72
384.00	227.61
384.38	227.63
384.76	227.49
385.13	227.59
385.51	227.56
385.89	227.53
386.27	227.45
386.64	227.40
387.02	227.22
387.40	227.13
387.78	227.14
388.15	227.25
388.53	227.17
388.91	227.16
389.29	227.16
389.66	227.24
390.04	227.11
390.42	227.08
390.79	227.10
391.17	227.14
391.55	226.83
391.92	226.85
392.30	226.95
392.68	227.04
393.05	226.95
393.43	226.86
393.81	226.94
394.18	227.00
394.56	227.05
394.94	227.14
395.31	227.21
395.69	227.41
396.06	227.47
396.44	227.63
396.82	227.70
397.19	227.83
397.57	227.91
397.95	228.08
398.32	228.13
398.70	228.30
399.07	228.48
399.45	228.73
399.82	228.83
400.20	228.90
400.58	228.96
400.95	229.01
401.33	229.30
401.70	229.56
402.08	229.80
402.45	230.02
402.83	230.28
403.20	230.50
403.58	230.69
403.95	230.84
404.33	231.21
404.71	231.50
405.08	231.91
405.46	232.20
405.83	232.59
406.21	233.00
406.58	233.44
406.96	233.81
407.33	234.23
407.70	234.74
408.08	235.40
408.45	236.08
408.83	236.72
409.20	237.38
409.58	237.94
409.95	238.60
410.33	239.39
410.70	240.11
411.08	240.96
411.45	241.72
411.82	242.70
412.20	243.52
412.57	244.76
412.95	245.61
413.32	246.72
413.69	247.99
414.07	249.26
414.44	250.59
414.82	252.00
415.19	253.61
415.56	255.15
415.94	256.80
416.31	258.60
416.68	260.64
417.06	262.72
417.43	264.93
417.81	267.24
418.18	269.59
418.55	272.11
418.93	274.83
419.30	277.78
419.67	280.73
420.04	283.85
420.42	286.97
420.79	290.77
421.16	294.57
421.54	298.22
421.91	302.12
422.28	306.10
422.66	310.41
423.03	314.63
423.40	319.12
423.77	323.89
424.15	328.80
424.52	333.65
424.89	339.10
425.26	344.25
425.64	349.34
426.01	354.83
426.38	360.60
426.75	366.42
427.13	372.19
427.50	378.46
427.87	384.93
428.24	391.47
428.61	397.69
428.99	404.43
429.36	411.99
429.73	419.22
430.10	426.48
430.47	433.89
430.85	441.60
431.22	449.63
431.59	457.94
431.96	465.96
432.33	474.89
432.70	483.60
433.08	493.83
433.45	503.55
433.82	513.13
434.19	523.76
434.56	534.11
434.93	544.18
435.30	554.10
435.68	565.29
436.05	576.23
436.42	586.79
436.79	596.73
437.16	607.23
437.53	618.41
437.90	629.50
438.27	640.45
438.64	651.88
439.01	662.41
439.38	671.81
439.75	680.89
440.13	691.23
440.50	701.19
440.87	709.54
441.24	718.12
441.61	727.52
441.98	734.57
442.35	742.79
442.72	751.26
443.09	759.53
443.46	764.67
443.83	768.29
444.20	771.80
444.57	776.36
444.94	779.02
445.31	781.93
445.68	784.91
446.05	786.85
446.42	786.72
446.79	786.52
447.16	786.66
447.53	787.03
447.90	784.32
448.27	781.34
448.64	776.52
449.01	773.58
449.37	767.46
449.74	761.46
450.11	754.14
450.48	745.93
450.85	737.54
451.22	730.61
451.59	724.02
451.96	717.87
452.33	709.06
452.70	701.31
453.07	691.39
453.43	681.16
453.80	671.19
454.17	661.91
454.54	653.28
454.91	643.38
455.28	633.92
455.65	625.29
456.02	616.16
456.38	608.67
456.75	599.09
457.12	591.13
457.49	583.42
457.86	575.86
458.23	569.31
458.59	561.91
458.96	554.16
459.33	547.65
459.70	540.94
460.07	535.43
460.43	529.03
460.80	523.29
461.17	518.20
461.54	513.02
461.91	507.89
462.27	502.51
462.64	498.15
463.01	493.08
463.38	487.99
463.74	483.29
464.11	478.85
464.48	474.88
464.85	470.72
465.21	467.41
465.58	463.76
465.95	459.56
466.32	456.13
466.68	452.86
467.05	449.25
467.42	445.68
467.78	442.24
468.15	438.75
468.52	436.03
468.88	432.68
469.25	429.73
469.62	427.36
469.98	424.68
470.35	422.23
470.72	420.04
471.08	417.77
471.45	415.72
471.82	413.72
472.18	411.43
472.55	409.75
472.92	407.68
473.28	405.92
473.65	404.27
474.02	402.57
474.38	400.90
474.75	399.66
475.11	398.31
475.48	397.22
475.85	396.33
476.21	395.42
476.58	394.57
476.94	393.86
477.31	392.90
477.67	392.23
478.04	391.51
478.41	390.93
478.77	390.58
479.14	390.03
479.50	389.81
479.87	389.71
480.23	389.55
480.60	389.26
480.96	389.32
481.33	389.46
481.69	389.51
482.06	389.78
482.42	389.65
482.79	389.79
483.15	390.04
483.52	390.77
483.88	391.43
484.25	391.92
484.61	392.57
484.98	393.20
485.34	394.23
485.71	395.23
486.07	396.28
486.44	397.20
486.80	398.44
487.17	399.66
487.53	401.07
487.90	402.71
488.26	404.46
488.62	406.12
488.99	407.70
489.35	409.48
489.72	411.50
490.08	413.86
490.44	416.06
490.81	418.35
491.17	420.30
491.54	422.71
491.90	425.28
492.26	428.01
492.63	430.66
492.99	433.28
493.36	435.99
493.72	438.94
494.08	441.87
494.45	445.12
494.81	448.28
495.17	451.39
495.54	454.63
495.90	457.91
496.26	461.40
496.63	465.13
496.99	468.78
497.35	472.53
497.72	476.34
498.08	480.20
498.44	484.19
498.80	488.62
499.17	492.44
499.53	496.56
499.89	500.39
500.26	504.68
500.62	508.89
500.98	513.32
501.34	517.71
501.71	522.15
502.07	526.37
502.43	530.63
502.79	535.04
503.16	539.46
503.52	544.05
503.88	548.05
504.24	552.20
504.60	556.64
504.97	561.13
505.33	565.44
505.69	570.20
506.05	574.68
506.41	578.55
506.78	582.87
507.14	587.04
507.50	591.24
507.86	595.47
508.22	599.77
508.59	603.72
508.95	607.72
509.31	611.75
509.67	615.88
510.03	619.94
510.39	623.91
510.75	627.59
511.12	631.29
511.48	635.41
511.84	639.36
512.20	643.18
512.56	646.84
512.92	650.50
513.28	653.60
513.64	656.73
514.00	660.18
514.37	663.35
514.73	666.55
515.09	669.71
515.45	672.52
515.81	675.44
516.17	678.44
516.53	681.19
516.89	683.95
517.25	686.55
517.61	689.22
517.97	691.77
518.33	694.17
518.69	696.58
519.05	698.99
519.41	701.28
519.77	703.77
520.13	705.89
520.49	707.77
520.85	709.94
521.21	712.03
521.57	714.34
521.93	716.34
522.29	718.55
522.65	720.50
523.01	722.46
523.37	723.96
523.73	725.90
524.09	727.78
524.45	729.47
524.81	731.45
525.17	733.40
525.53	735.41
525.89	737.39
526.25	739.35
526.61	740.90
526.97	742.73
527.33	744.40
527.68	746.21
528.04	748.32
528.40	750.16
528.76	752.08
529.12	753.94
529.48	756.26
529.84	757.91
530.20	759.90
530.56	762.27
530.91	765.06
531.27	767.37
531.63	769.28
531.99	771.60
532.35	773.38
532.71	775.18
533.07	777.21
533.42	779.49
533.78	781.60
534.14	783.80
534.50	785.90
534.86	788.04
535.21	790.04
535.57	792.30
535.93	794.83
536.29	797.56
536.65	800.00
537.00	801.93
537.36	804.48
537.72	806.75
538.08	808.80
538.44	810.86
538.79	813.12
539.15	815.54
539.51	817.80
539.87	820.60
540.22	823.08
540.58	825.80
540.94	828.33
541.29	830.61
541.65	833.47
542.01	836.35
542.37	838.91
542.72	841.84
543.08	844.64
543.44	847.18
543.79	849.33
544.15	851.94
544.51	854.85
544.87	857.56
545.22	860.48
545.58	863.17
545.94	865.62
546.29	867.92
546.65	870.85
547.01	873.62
547.36	876.20
547.72	878.82
548.07	881.52
548.43	883.98
548.79	886.80
549.14	889.06
549.50	891.43
549.86	894.10
550.21	896.49
550.57	898.79
550.92	901.17
551.28	903.76
551.64	906.04
551.99	908.63
552.35	911.00
552.70	913.64
553.06	916.40
553.41	918.99
553.77	921.60
554.13	923.97
554.48	926.81
554.84	929.55
555.19	932.23
555.55	934.61
555.90	937.27
556.26	939.54
556.61	942.10
556.97	944.60
557.32	947.02
557.68	949.77
558.03	952.19
558.39	954.51
558.74	957.20
559.10	959.82
559.45	962.22
559.81	965.29
560.16	967.63
560.52	969.87
560.87	972.20
561.23	974.77
561.58	977.50
561.94	979.32
562.29	981.19
562.64	983.13
563.00	985.27
563.35	987.66
563.71	990.64
564.06	993.01
564.42	995.29
564.77	997.41
565.12	999.27
565.48	1001.62
565.83	1003.55
566.19	1005.40
566.54	1007.28
566.89	1009.09
567.25	1010.59
567.60	1012.70
567.96	1014.92
568.31	1016.67
568.66	1018.13
569.02	1019.25
569.37	1020.65
569.72	1022.42
570.08	1024.25
570.43	1025.55
570.78	1026.57
571.14	1027.01
571.49	1028.01
571.84	1029.26
572.20	1030.06
572.55	1031.17
572.90	1031.52
573.26	1032.89
573.61	1033.59
573.96	1034.10
574.31	1034.16
574.67	1034.11
575.02	1033.80
575.37	1033.67
575.72	1033.58
576.08	1033.97
576.43	1034.07
576.78	1034.51
577.13	1034.27
577.49	1033.98
577.84	1033.94
578.19	1033.68
578.54	1033.53
578.90	1032.96
579.25	1032.18
579.60	1031.73
579.95	1030.79
580.30	1030.45
580.66	1029.47
581.01	1028.46
581.36	1027.68
581.71	1027.25
582.06	1026.49
582.42	1025.54
582.77	1024.48
583.12	1023.47
583.47	1022.29
583.82	1021.15
584.17	1019.70
584.53	1018.71
584.88	1017.58
585.23	1016.10
585.58	1014.68
585.93	1013.53
586.28	1012.75
586.63	1011.40
586.98	1010.19
587.34	1009.04
587.69	1007.67
588.04	1006.40
588.39	1005.14
588.74	1003.60
589.09	1001.79
589.44	999.99
589.79	998.44
590.14	997.17
590.49	995.57
590.84	993.42
591.19	991.91
591.54	989.82
591.89	987.48
592.25	985.33
592.60	983.12
592.95	980.82
593.30	978.30
593.65	975.83
594.00	973.43
594.35	971.51
594.70	968.96
595.05	966.62
595.40	963.69
595.75	961.26
596.10	958.63
596.45	956.50
596.80	954.85
597.15	952.52
597.50	949.79
597.85	947.60
598.19	945.86
598.54	943.57
598.89	941.49
599.24	939.70
599.59	937.65
599.94	935.60
600.29	933.58
600.64	931.25
600.99	928.55
601.34	926.50
601.69	923.48
602.04	921.21
602.39	918.81
602.74	916.76
603.08	914.52
603.43	912.72
603.78	910.40
604.13	907.45
604.48	905.11
604.83	902.58
605.18	900.19
605.53	897.10
605.87	894.03
606.22	891.30
606.57	888.40
606.92	885.50
607.27	882.95
607.62	880.67
607.96	878.38
608.31	875.96
608.66	872.97
609.01	870.06
609.36	866.99
609.70	863.39
610.05	860.00
610.40	856.95
610.75	853.48
611.10	850.23
611.44	846.79
611.79	843.56
612.14	840.29
612.49	836.53
612.83	833.18
613.18	830.20
613.53	826.92
613.88	823.13
614.22	819.72
614.57	815.94
614.92	812.18
615.27	808.95
615.61	805.32
615.96	801.90
616.31	799.00
616.65	796.07
617.00	793.47
617.35	790.75
617.70	787.27
618.04	783.72
618.39	780.46
618.74	777.50
619.08	774.13
619.43	771.05
619.78	768.33
620.12	765.39
620.47	762.00
620.82	758.43
621.16	755.39
621.51	752.49
621.85	749.56
622.20	746.27
622.55	742.92
622.89	740.02
623.24	737.21
623.59	734.03
623.93	730.78
624.28	727.44
624.62	724.32
624.97	721.37
625.32	718.99
625.66	715.85
626.01	712.90
626.35	709.60
626.70	706.60
627.04	703.46
627.39	700.22
627.73	697.16
628.08	694.85
628.43	692.05
628.77	688.90
629.12	685.83
629.46	682.87
629.81	679.70
630.15	676.48
630.50	673.15
630.84	669.86
631.19	666.61
631.53	663.57
631.88	660.25
632.22	657.01
632.57	653.69
632.91	650.48
633.26	647.43
633.60	644.71
633.95	641.62
634.29	638.61
634.64	635.74
634.98	632.88
635.32	629.72
635.67	626.90
636.01	624.09
636.36	621.11
636.70	618.42
637.05	615.64
637.39	613.01
637.73	610.32
638.08	607.84
638.42	605.27
638.77	602.79
639.11	600.13
639.45	597.48
639.80	594.67
640.14	592.33
640.49	589.55
640.83	586.90
641.17	584.40
641.52	581.69
641.86	579.32
642.20	576.75
642.55	574.10
642.89	571.53
643.23	568.80
643.58	566.42
643.92	563.86
644.26	561.31
644.61	559.08
644.95	556.63
645.29	553.88
645.64	551.27
645.98	548.56
646.32	546.10
646.66	543.62
647.01	541.17
647.35	538.67
647.69	536.47
648.04	534.25
648.38	531.54
648.72	529.07
649.06	526.36
649.41	523.95
649.75	521.61
650.09	518.97
650.43	516.58
650.78	514.10
651.12	511.51
651.46	509.06
651.80	506.46
652.14	504.28
652.49	502.08
652.83	499.87
653.17	497.58
653.51	495.16
653.85	492.93
654.20	490.59
654.54	488.12
654.88	485.48
655.22	482.88
655.56	480.58
655.90	478.34
656.25	476.17
656.59	473.83
656.93	471.73
657.27	469.68
657.61	467.41
657.95	465.31
658.29	463.24
658.64	461.21
658.98	458.88
659.32	456.43
659.66	454.38
660.00	452.10
660.34	449.90
660.68	448.00
661.02	445.85
661.36	443.83
661.70	441.90
662.05	440.11
662.39	438.45
662.73	436.67
663.07	434.87
663.41	433.04
663.75	431.29
664.09	429.25
664.43	427.34
664.77	425.55
665.11	423.68
665.45	421.79
665.79	419.92
666.13	418.13
666.47	416.44
666.81	414.55
667.15	412.82
667.49	411.18
667.83	409.45
668.17	407.68
668.51	405.88
668.85	404.23
669.19	402.74
669.53	400.88
669.87	399.24
670.21	397.52
670.55	395.91
670.89	394.37
671.23	392.79
671.57	391.30
671.91	389.81
672.25	388.23
672.58	386.87
672.92	385.40
673.26	384.05
673.60	382.76
673.94	381.29
674.28	379.95
674.62	378.60
674.96	377.20
675.30	375.97
675.64	374.68
675.97	373.39
676.31	371.86
676.65	370.48
676.99	369.22
677.33	367.87
677.67	366.60
678.01	365.15
678.34	363.92
678.68	362.66
679.02	361.37
679.36	360.13
679.70	358.93
680.04	357.67
680.37	356.37
680.71	354.96
681.05	353.85
681.39	352.63
681.73	351.51
682.06	350.33
682.40	349.20
682.74	348.21
683.08	347.05
683.42	345.83
683.75	344.81
684.09	343.61
684.43	342.53
684.77	341.38
685.10	340.33
685.44	339.18
685.78	338.13
686.12	337.10
686.45	335.87
686.79	334.69
687.13	333.78
687.46	332.75
687.80	331.70
688.14	330.55
688.48	329.57
688.81	328.47
689.15	327.47
689.49	326.43
689.82	325.42
690.16	324.27
690.50	323.31
690.83	322.32
691.17	321.28
691.51	320.37
691.84	319.43
692.18	318.48
692.52	317.60
692.85	316.56
693.19	315.67
693.52	314.89
693.86	313.96
694.20	312.98
694.53	312.04
694.87	311.25
695.21	310.47
695.54	309.59
695.88	308.67
696.21	307.68
696.55	306.88
696.88	305.92
697.22	305.27
697.56	304.43
697.89	303.47
698.23	302.74
698.56	301.83
698.90	301.03
699.23	300.21
699.57	299.33
699.90	298.53
700.24	297.61
700.58	296.89
700.91	296.28
701.25	295.67
701.58	294.99
701.92	294.20
702.25	293.51
702.59	292.81
702.92	292.10
703.26	291.46
703.59	290.72
703.93	290.24
704.26	289.50
704.60	289.00
704.93	288.48
705.26	287.88
705.60	287.38
705.93	286.73
706.27	286.34
706.60	285.84
706.94	285.39
707.27	284.95
707.61	284.42
707.94	283.84
708.27	283.13
708.61	282.64
708.94	282.12
709.28	281.58
709.61	281.12
709.94	280.70
710.28	280.27
710.61	279.70
710.95	278.99
711.28	278.68
711.61	278.14
711.95	277.62
712.28	276.97
712.61	276.33
712.95	275.99
713.28	275.44
713.61	274.98
713.95	274.46
714.28	273.91
714.61	273.43
714.95	272.89
715.28	272.40
715.61	271.87
715.95	271.48
716.28	271.00
716.61	270.46
716.95	269.86
717.28	269.41
717.61	269.09
717.94	268.73
718.28	268.05
718.61	267.48
718.94	266.99
719.27	266.58
719.61	266.18
719.94	265.70
720.27	265.21
720.60	264.78
720.94	264.48
721.27	264.20
721.60	263.82
721.93	263.54
722.27	263.32
722.60	262.97
722.93	262.47
723.26	261.99
723.59	261.62
723.93	261.38
724.26	261.02
724.59	260.55
724.92	260.10
725.25	259.94
725.59	259.69
725.92	259.47
726.25	259.24
726.58	258.95
726.91	258.69
727.24	258.46
727.57	258.08
727.91	257.60
728.24	257.19
728.57	256.85
728.90	256.48
729.23	256.04
729.56	255.85
729.89	255.57
730.22	255.43
730.55	255.23
730.89	255.12
731.22	254.78
731.55	254.51
731.88	254.36
732.21	254.00
732.54	253.72
732.87	253.33
733.20	253.12
733.53	252.95
733.86	252.76
734.19	252.45
734.52	252.35
734.85	252.27
735.18	252.06
735.51	251.90
735.84	251.72
736.17	251.57
736.50	251.23
736.83	251.31
737.16	251.07
737.49	250.79
737.82	250.40
738.15	250.25
738.48	250.20
738.81	249.97
739.14	249.74
739.47	249.50
739.80	249.35
740.13	249.00
740.46	248.70
740.79	248.26
741.12	247.99
741.45	247.67
741.78	247.33
742.11	247.16
742.44	246.95
742.77	246.75
743.10	246.46
743.43	246.19
743.75	245.77
744.08	245.91
744.41	245.75
744.74	245.58
745.07	245.25
745.40	244.98
745.73	244.89
746.06	244.65
746.39	244.56
746.71	244.42
747.04	244.40
747.37	244.32
747.70	244.48
748.03	244.40
748.36	244.39
748.68	244.27
749.01	244.09
749.34	243.88
749.67	243.58
750.00	243.56
750.33	243.58
750.65	243.45
750.98	243.02
751.31	242.87
751.64	242.76
751.97	242.80
752.29	242.62
752.62	242.39
752.95	242.24
753.28	242.02
753.60	241.84
753.93	241.69
754.26	241.53
754.59	241.12
754.91	240.93
755.24	240.68
755.57	240.52
755.90	240.44
756.22	240.24
756.55	240.24
756.88	240.02
757.20	239.86
757.53	239.74
757.86	239.62
758.19	239.56
758.51	239.38
758.84	239.23
759.17	239.24
759.49	239.09
759.82	239.11
760.15	239.02
760.47	238.96
760.80	238.86
761.13	238.90
761.45	238.87
761.78	238.79
762.11	238.74
762.43	238.62
762.76	238.42
763.08	238.48
763.41	238.40
763.74	238.40
764.06	238.27
764.39	238.15
764.71	238.03
765.04	237.88
765.37	237.89
765.69	237.73
766.02	237.51
766.34	237.39
766.67	237.26
767.00	237.25
767.32	237.29
767.65	237.33
767.97	237.15
768.30	237.12
768.62	237.19
768.95	237.10
769.27	237.17
769.60	237.14
769.92	237.04
770.25	236.89
770.57	236.67
770.90	236.59
771.22	236.43
771.55	236.38
771.87	236.32
772.20	236.20
772.52	236.34
772.85	236.50
773.17	236.46
773.50	236.43
773.82	236.37
774.15	236.20
774.47	235.99
774.80	235.91
775.12	235.71
775.45	235.51
775.77	235.54
776.09	235.40
776.42	235.37
776.74	235.24
777.07	235.21
777.39	235.15
777.72	235.10
778.04	235.10
778.36	234.99
778.69	234.94
779.01	234.85
779.33	234.61
779.66	234.30
779.98	234.21
780.31	234.12
780.63	234.08
780.95	234.03
781.28	233.92
781.60	233.82
781.92	233.80
782.25	233.78
782.57	233.51
782.89	233.32
783.22	233.17
783.54	233.18
783.86	233.20
784.19	233.24
784.51	233.21
784.83	233.18
785.16	233.00
785.48	232.96
785.80	232.85
786.12	232.84
786.45	232.84
786.77	232.77
787.09	232.75
787.42	232.63
787.74	232.58
788.06	232.59
788.38	232.44
788.71	232.35
789.03	232.24
789.35	232.39
789.67	232.33
789.99	232.40
790.32	232.24
790.64	232.00
790.96	232.03
791.28	231.96
791.61	231.90
791.93	231.97
792.25	231.89
792.57	232.03
792.89	231.87
793.21	231.91
793.54	231.90
793.86	231.68
794.18	231.60
794.50	231.46
794.82	231.41
795.14	231.47
795.47	231.40
795.79	231.36
796.11	231.19
796.43	231.23
796.75	231.11
797.07	231.21
797.39	231.22
797.71	231.05
798.04	231.02
798.36	230.93
798.68	230.80
799.00	230.83
799.32	230.70
799.64	230.75
799.96	230.60
800.28	230.55
800.60	230.66
800.92	230.70
801.24	230.72
801.56	230.69
801.89	230.62
802.21	230.65
802.53	230.67
802.85	230.71
803.17	230.78
803.49	230.76
803.81	230.60
804.13	230.61
804.45	230.60
804.77	230.58
805.09	230.66
805.41	230.68
805.73	230.54
806.05	230.50
806.37	230.55
806.69	230.54
807.01	230.55
807.33	230.58
807.65	230.55
807.97	230.66
808.28	230.56
808.60	230.52
808.92	230.56
809.24	230.68
809.56	230.64
809.88	230.60
810.20	230.50
810.52	230.59
810.84	230.60
811.16	230.50
811.48	230.50
811.80	230.46
812.12	230.36
812.43	230.46
812.75	230.46
813.07	230.37
813.39	230.43
813.71	230.42
814.03	230.28
814.35	230.20
814.67	230.13
814.98	230.20
815.30	230.29
815.62	230.23
815.94	230.07
816.26	230.11
816.58	230.02
816.89	230.04
817.21	229.92
817.53	229.92
817.85	230.00
818.17	229.89
818.48	229.84
818.80	229.94
819.12	229.81
819.44	229.70
819.76	229.71
820.07	229.64
820.39	229.61
820.71	229.66
821.03	229.66
821.34	229.63
821.66	229.58
821.98	229.62
822.30	229.60
822.61	229.66
822.93	229.53
823.25	229.56
823.57	229.62
823.88	229.75
824.20	229.61
824.52	229.51
824.83	229.56
825.15	229.46
825.47	229.49
825.79	229.54
826.10	229.57
826.42	229.55
826.74	229.67
827.05	229.59
827.37	229.66
827.69	229.66
828.00	229.61
828.32	229.56
828.64	229.43
828.95	229.52
829.27	229.44
829.58	229.44
829.90	229.44
830.22	229.39
830.53	229.28
830.85	229.37
831.17	229.45
831.48	229.44
831.80	229.49
832.11	229.51
832.43	229.49
832.75	229.45
833.06	229.54
833.38	229.43
833.69	229.50
834.01	229.45
834.32	229.41
834.64	229.43
834.96	229.47
835.27	229.43
835.59	229.44
835.90	229.38
836.22	229.43
836.53	229.40
836.85	229.39
837.16	229.58
837.48	229.67
837.79	229.64
838.11	229.61
838.42	229.63
838.74	229.64
839.05	229.62
839.37	229.59
839.68	229.43
840.00	229.42
840.31	229.32
840.63	229.34
840.94	229.44
841.26	229.37
841.57	229.36
841.88	229.43
842.20	229.28
842.51	229.28
842.83	229.23
843.14	229.33
843.46	229.37
843.77	229.27
844.08	229.13
844.40	229.11
844.71	229.10
845.03	229.15
845.34	229.06
845.65	229.07
845.97	229.17
846.28	229.15
846.60	229.17
846.91	229.25
847.22	229.27
847.54	229.18
847.85	229.27
848.16	229.25
848.48	229.15
848.79	229.21
849.10	229.22
849.42	229.18
849.73	229.06
850.04	229.01
850.36	228.93
850.67	229.00
850.98	229.07
851.30	229.04
851.61	228.94
851.92	228.89
852.23	228.94
852.55	228.90
852.86	228.99
853.17	228.92
853.49	229.05
853.80	229.01
854.11	229.03
854.42	228.97
854.74	228.93
855.05	228.92
855.36	228.91
855.67	228.93
855.99	229.03
856.30	229.19
856.61	229.19
856.92	229.14
857.23	229.16
857.55	229.06
857.86	229.08
858.17	229.16
858.48	229.30
858.79	229.18
859.11	229.23
859.42	229.21
859.73	229.21
860.04	229.08
860.35	228.99
860.66	228.90
860.98	228.89
861.29	228.95
861.60	229.04
861.91	229.02
862.22	229.02
862.53	228.92
862.84	228.71
863.16	228.79
863.47	228.85
863.78	228.71
864.09	228.86
864.40	228.80
864.71	228.80
865.02	228.82
865.33	228.85
865.64	228.74
865.95	228.82
866.27	228.94
866.58	229.03
866.89	229.02
867.20	229.09
867.51	229.07
867.82	228.98
868.13	229.00
868.44	228.99
868.75	229.00
869.06	229.08
869.37	229.09
869.68	229.02
869.99	229.07
870.30	229.14
870.61	229.08
870.92	229.15
871.23	229.14
871.54	229.10
871.85	229.17
872.16	229.29
872.47	229.19
872.78	229.08
873.09	228.98
873.40	228.95
873.71	228.92
874.02	228.90
874.33	229.00
874.64	228.88
874.95	228.87
875.26	228.89
875.56	228.85
875.87	228.86
876.18	228.83
876.49	229.03
876.80	229.06
877.11	229.05
877.42	229.04
877.73	228.97
878.04	229.00
878.35	229.02
878.66	228.92
878.96	228.88
879.27	228.85
879.58	228.90
879.89	228.92
880.20	229.01
880.51	229.06
880.82	229.06
881.12	229.08
881.43	229.11
881.74	229.06
882.05	229.10
882.36	229.10
882.67	229.09
882.97	228.75
883.28	228.64
883.59	228.62
883.90	228.65
884.21	228.66
884.51	228.53
884.82	228.48
885.13	228.48
885.44	228.48
885.74	228.48
886.05	228.42
886.36	228.45
886.67	228.31
886.98	228.39
887.28	228.34
887.59	228.39
887.90	228.33
888.20	228.24
888.51	228.22
888.82	228.19
889.13	228.17
889.43	228.40
889.74	228.45
890.05	228.38
890.35	228.34
890.66	228.30
890.97	228.31
891.28	228.20
891.58	228.29
891.89	228.28
892.20	228.24
892.50	228.13
892.81	228.05
893.12	228.06
893.42	227.98
893.73	227.99
894.04	227.99
894.34	228.03
894.65	228.05
894.95	228.02
895.26	228.02
895.57	228.13
895.87	227.95
896.18	227.95
896.48	227.96
896.79	227.91
897.10	227.93
897.40	227.98
897.71	228.10
898.01	227.99
898.32	227.99
898.63	227.91
898.93	228.07
899.24	228.17
899.54	228.15
899.85	228.06
900.15	228.02
900.46	227.89
900.76	227.88
901.07	227.97
901.38	228.00
901.68	228.02
901.99	227.85
902.29	227.82
902.60	227.82
902.90	227.83
903.21	227.88
903.51	227.95
903.82	227.92
904.12	227.87
904.43	227.89
904.73	227.99
905.03	228.10
905.34	228.20
905.64	228.14
905.95	228.18
906.25	228.23
906.56	228.20
906.86	228.32
907.17	228.35
907.47	228.27
907.77	228.28
908.08	228.28
908.38	228.43
908.69	228.50
908.99	228.56
909.30	228.55
909.60	228.63
909.90	228.60
910.21	228.60
910.51	228.63
910.81	228.62
911.12	228.64
911.42	228.61
911.73	228.37
912.03	228.33
912.33	228.42
912.64	228.53
912.94	228.56
913.24	228.58
913.55	228.53
913.85	228.54
914.15	228.58
914.46	228.68
914.76	228.62
915.06	228.56
915.37	228.44
915.67	228.42
915.97	228.37
916.27	228.40
916.58	228.42
916.88	228.34
917.18	228.37
917.49	228.46
917.79	228.53
918.09	228.60
918.39	228.75
918.70	228.62
919.00	228.42
919.30	228.53
919.60	228.48
919.91	228.55
920.21	228.53
920.51	228.45
920.81	228.30
921.12	228.23
921.42	228.27
921.72	228.36
922.02	228.38
922.32	228.37
922.63	228.27
922.93	228.31
923.23	228.43
923.53	228.47
923.83	228.34
924.13	228.35
924.44	228.39
924.74	228.39
925.04	228.46
925.34	228.52
925.64	228.43
925.94	228.43
926.24	228.54
926.55	228.56
926.85	228.57
927.15	228.61
927.45	228.75
927.75	228.73
928.05	228.73
928.35	228.69
928.65	228.74
928.95	228.80
929.26	228.74
929.56	228.75
929.86	228.73
930.16	228.69
930.46	228.69
930.76	228.71
931.06	228.62
931.36	228.58
931.66	228.68
931.96	228.76
932.26	228.75
932.56	228.60
932.86	228.66
933.16	228.65
933.46	228.67
933.76	228.57
934.06	228.59
934.36	228.56
934.66	228.62
934.96	228.64
935.26	228.55
935.56	228.62
935.86	228.58
936.16	228.56
936.46	228.55
936.76	228.57
937.06	228.54
937.36	228.49
937.66	228.52
937.96	228.48
938.26	228.50
938.56	228.64
938.86	228.63
939.16	228.57
939.46	228.64
939.76	228.62
940.06	228.63
940.35	228.64
940.65	228.66
940.95	228.61
941.25	228.53
941.55	228.55
941.85	228.55
942.15	228.60
942.45	228.67
942.75	228.79
943.04	228.69
943.34	228.67
943.64	228.72
943.94	228.77
944.24	228.78
944.54	228.79
944.84	228.70
945.13	228.69
945.43	228.73
945.73	228.66
946.03	228.58
946.33	228.64
946.62	228.63
946.92	228.62
947.22	228.66
947.52	228.64
947.82	228.60
948.11	228.54
948.41	228.48
948.71	228.37
949.01	228.19
949.31	228.19
949.60	228.15
949.90	228.18
950.20	228.14
950.50	228.11
950.79	227.96
951.09	227.96
951.39	228.03
951.69	228.10
951.98	228.00
952.28	228.19
952.58	228.12
952.87	228.11
953.17	228.16
953.47	228.23
953.76	228.26
954.06	228.35
954.36	228.31
954.66	228.38
954.95	228.37
955.25	228.49
955.55	228.52
955.84	228.50
956.14	228.55
956.44	228.55
956.73	228.53
957.03	228.61
957.32	228.62
957.62	228.60
957.92	228.53
958.21	228.66
958.51	228.75
958.81	228.79
959.10	228.75
959.40	228.73
959.69	228.77
959.99	228.87
960.29	228.81
960.58	228.85
960.88	228.89
961.17	228.95
961.47	228.88
961.76	228.90
962.06	229.00
962.36	228.94
962.65	228.94
962.95	228.96
963.24	228.88
963.54	228.83
963.83	228.84
964.13	228.76
964.42	228.68
964.72	228.66
965.01	228.70
965.31	228.74
965.60	228.76
965.90	228.88
966.19	228.76
966.49	228.82
966.78	228.78
967.08	228.75
967.37	228.68
967.67	228.69
967.96	228.72
968.26	228.66
968.55	228.64
968.85	228.61
969.14	228.62
969.43	228.65
969.73	228.63
970.02	228.60
970.32	228.67
970.61	228.76
970.91	228.60
971.20	228.51
971.49	228.50
971.79	228.39
972.08	228.20
972.38	228.18
972.67	228.25
972.96	228.31
973.26	228.28
973.55	228.34
973.85	228.39
974.14	228.37
974.43	228.40
974.73	228.45
975.02	228.43
975.31	228.42
975.61	228.34
975.90	228.43
976.19	228.42
976.49	228.41
976.78	228.39
977.07	228.34
977.37	228.44
977.66	228.46
977.95	228.53
978.24	228.42
978.54	228.50
978.83	228.43
979.12	228.42
979.42	228.44
979.71	228.47
980.00	228.46
980.29	228.50
980.59	228.48
980.88	228.51
981.17	228.46
981.46	228.53
981.76	228.60
982.05	228.64
982.34	228.54
982.63	228.57
982.93	228.55
983.22	228.71
983.51	228.61
983.80	228.65
984.09	228.75
984.39	228.91
984.68	228.77
984.97	228.75
985.26	228.78
985.55	228.84
985.85	228.80
986.14	228.73
986.43	228.78
986.72	228.81
987.01	228.78
987.30	228.85
987.59	228.79
987.89	228.78
988.18	228.68
988.47	228.79
988.76	228.79
989.05	228.78
989.34	228.71
989.63	228.72
989.92	228.73
990.22	228.57
990.51	228.47
990.80	228.54
991.09	228.64
991.38	228.56
991.67	228.42
991.96	228.44
992.25	228.52
992.54	228.41
992.83	228.40
993.12	228.37
993.41	228.40
993.70	228.46
993.99	228.52
994.28	228.62
994.58	228.67
994.87	228.59
995.16	228.62
995.45	228.60
995.74	228.65
996.03	228.65
996.32	228.79
996.61	228.86
996.90	228.76
997.19	228.67
997.48	228.71
997.77	228.65
998.06	228.52
998.34	228.45
998.63	228.38
998.92	228.47
999.21	228.58
999.50	228.57
999.79	228.54
1000.08	228.54
1000.37	228.42
1000.66	228.30
1000.95	228.40
1001.24	228.40
1001.53	228.43
1001.82	228.40
1002.11	228.31
1002.40	228.24
1002.68	228.29
1002.97	228.53
1003.26	228.41
1003.55	228.27
1003.84	228.29
1004.13	228.43
1004.42	228.47
1004.71	228.50
1004.99	228.32
1005.28	228.18
1005.57	228.17
1005.86	228.04
1006.15	227.97
1006.44	227.88
1006.72	227.92
1007.01	227.77
1007.30	227.71
1007.59	227.60
1007.88	227.54
1008.17	227.58
1008.45	227.50
1008.74	227.39
1009.03	227.30
1009.32	227.40
1009.60	227.55
1009.89	227.59
1010.18	227.58
1010.47	227.47
1010.76	227.43
1011.04	227.56
1011.33	227.65
1011.62	227.57
1011.91	227.67
1012.19	227.67
1012.48	227.77
1012.77	227.72
1013.05	227.88
1013.34	227.93
1013.63	228.00
1013.92	228.14
1014.20	228.11
1014.49	228.14
1014.78	228.09
1015.06	227.98
1015.35	227.95
1015.64	227.84
1015.92	227.84
1016.21	227.78
1016.50	227.92
1016.78	227.98
1017.07	228.00
1017.36	228.03
1017.64	228.06
1017.93	228.10
1018.22	228.08
1018.50	228.02
1018.79	228.09
1019.08	228.04
1019.36	228.02
1019.65	227.97
1019.93	227.95
1020.22	228.03
1020.51	228.12
1020.79	228.18
1021.08	227.00
1021.36	226.70
1021.65	228.10
1021.94	228.90
1022.22	228.10
1022.51	227.30
1022.79	229.00
1023.08	229.60
1023.36	229.60
1023.65	228.10
>>>>>End Processed Spectral Data<<<<<
