SpectraSuite Data File
++++++++++++++++++++++++++++++++++++
Date: Fri Feb 01 14:37:51 EST 2013
User: group
Dark Spectrum Present: No
Reference Spectrum Present: No
Number of Sampled Component Spectra: 1
Spectrometers: USB2E7196
Integration Time (usec): 70000 (USB2E7196)
Spectra Averaged: 10 (USB2E7196)
Boxcar Smoothing: 10 (USB2E7196)
Correct for Electrical Dark: No (USB2E7196)
Strobe/Lamp Enabled: No (USB2E7196)
Correct for Detector Non-linearity: No (USB2E7196)
Correct for Stray Light: No (USB2E7196)
Number of Pixels in Processed Spectrum: 2048
>>>>>Begin Processed Spectral Data<<<<<
339.09	0.00
339.48	217.80
339.86	219.60
340.24	219.80
340.63	220.50
341.01	225.20
341.39	223.90
341.78	224.60
342.16	225.60
342.54	225.50
342.93	215.29
343.31	226.10
343.69	226.52
344.07	226.86
344.46	227.14
344.84	227.58
345.22	227.60
345.60	227.80
345.99	228.03
346.37	228.13
346.75	228.21
347.13	228.23
347.52	228.19
347.90	228.19
348.28	228.18
348.66	228.16
349.05	228.11
349.43	228.14
349.81	228.11
350.19	228.15
350.57	228.17
350.96	228.25
351.34	228.36
351.72	228.39
352.10	228.46
352.48	228.59
352.87	228.55
353.25	228.77
353.63	228.80
354.01	228.82
354.39	228.86
354.77	228.99
355.15	229.11
355.54	229.14
355.92	229.24
356.30	229.31
356.68	229.45
357.06	229.50
357.44	229.52
357.82	229.58
358.20	229.58
358.58	229.53
358.97	229.50
359.35	229.58
359.73	229.77
360.11	229.80
360.49	229.95
360.87	229.89
361.25	229.81
361.63	229.94
362.01	229.93
362.39	229.86
362.77	229.80
363.15	229.80
363.53	229.84
363.91	229.75
364.29	229.80
364.67	229.58
365.05	229.51
365.43	229.54
365.81	229.59
366.19	229.75
366.57	229.91
366.95	229.80
367.33	229.68
367.71	229.65
368.09	229.69
368.47	229.59
368.85	229.67
369.23	229.72
369.61	229.58
369.99	229.60
370.37	229.66
370.75	229.78
371.13	229.55
371.51	229.50
371.89	229.52
372.27	229.47
372.65	229.48
373.03	229.43
373.41	229.36
373.78	229.25
374.16	229.06
374.54	228.89
374.92	228.85
375.30	228.80
375.68	228.64
376.06	228.57
376.44	228.44
376.82	228.28
377.19	228.22
377.57	228.17
377.95	228.05
378.33	227.92
378.71	227.75
379.09	227.72
379.47	227.65
379.84	227.47
380.22	227.47
380.60	227.36
380.98	227.18
381.36	227.13
381.73	227.04
382.11	226.98
382.49	226.85
382.87	226.79
383.25	226.77
383.62	226.99
384.00	226.88
384.38	226.88
384.76	226.95
385.13	227.01
385.51	226.92
385.89	226.90
386.27	226.89
386.64	226.83
387.02	226.68
387.40	226.63
387.78	226.62
388.15	226.57
388.53	226.50
388.91	226.58
389.29	226.47
389.66	226.45
390.04	226.49
390.42	226.52
390.79	226.53
391.17	226.51
391.55	226.31
391.92	226.21
392.30	226.22
392.68	226.17
393.05	225.97
393.43	225.99
393.81	225.98
394.18	226.03
394.56	226.08
394.94	226.30
395.31	226.25
395.69	226.42
396.06	226.50
396.44	226.55
396.82	226.55
397.19	226.81
397.57	226.89
397.95	226.92
398.32	227.00
398.70	227.12
399.07	227.16
399.45	227.12
399.82	227.28
400.20	227.40
400.58	227.50
400.95	227.56
401.33	227.68
401.70	227.93
402.08	228.08
402.45	228.12
402.83	228.28
403.20	228.46
403.58	228.56
403.95	228.70
404.33	228.94
404.71	229.16
405.08	229.40
405.46	229.56
405.83	229.74
406.21	229.97
406.58	230.20
406.96	230.43
407.33	230.78
407.70	231.10
408.08	231.40
408.45	231.73
408.83	232.23
409.20	232.62
409.58	232.83
409.95	233.18
410.33	233.60
410.70	233.89
411.08	234.32
411.45	234.73
411.82	235.18
412.20	235.71
412.57	236.30
412.95	236.57
413.32	237.14
413.69	237.66
414.07	238.23
414.44	238.85
414.82	239.68
415.19	240.55
415.56	241.37
415.94	242.11
416.31	242.97
416.68	243.87
417.06	244.89
417.43	245.90
417.81	247.00
418.18	248.12
418.55	249.43
418.93	250.76
419.30	252.04
419.67	253.44
420.04	254.80
420.42	256.28
420.79	258.15
421.16	259.94
421.54	261.78
421.91	263.58
422.28	265.48
422.66	267.39
423.03	269.27
423.40	271.35
423.77	273.47
424.15	275.66
424.52	277.87
424.89	280.28
425.26	282.71
425.64	285.04
426.01	287.62
426.38	290.15
426.75	292.85
427.13	295.65
427.50	298.45
427.87	301.40
428.24	304.37
428.61	307.13
428.99	310.19
429.36	313.63
429.73	317.00
430.10	320.31
430.47	323.64
430.85	327.13
431.22	330.70
431.59	334.64
431.96	338.21
432.33	342.36
432.70	346.32
433.08	350.90
433.45	355.27
433.82	359.60
434.19	364.38
434.56	369.05
434.93	373.55
435.30	378.15
435.68	383.22
436.05	388.00
436.42	392.71
436.79	397.17
437.16	401.85
437.53	406.81
437.90	411.67
438.27	416.58
438.64	421.46
439.01	426.13
439.38	430.20
439.75	434.46
440.13	438.98
440.50	443.31
440.87	446.85
441.24	450.56
441.61	454.63
441.98	457.59
442.35	461.10
442.72	464.54
443.09	468.00
443.46	470.10
443.83	471.78
444.20	473.31
444.57	475.21
444.94	476.30
445.31	477.63
445.68	479.00
446.05	479.66
446.42	479.74
446.79	479.63
447.16	479.56
447.53	479.66
447.90	478.53
448.27	477.16
448.64	474.99
449.01	473.64
449.37	470.80
449.74	468.12
450.11	464.97
450.48	461.40
450.85	457.71
451.22	454.63
451.59	451.56
451.96	448.63
452.33	444.66
452.70	441.01
453.07	436.28
453.43	431.49
453.80	426.99
454.17	422.72
454.54	418.68
454.91	414.22
455.28	409.76
455.65	405.55
456.02	401.52
456.38	398.05
456.75	393.73
457.12	389.99
457.49	386.38
457.86	382.73
458.23	379.68
458.59	376.01
458.96	372.48
459.33	369.35
459.70	366.27
460.07	363.73
460.43	360.85
460.80	358.15
461.17	355.84
461.54	353.41
461.91	351.05
462.27	348.59
462.64	346.43
463.01	344.05
463.38	341.66
463.74	339.24
464.11	337.31
464.48	335.36
464.85	333.60
465.21	332.06
465.58	330.28
465.95	328.42
466.32	326.84
466.68	325.18
467.05	323.51
467.42	321.84
467.78	320.09
468.15	318.38
468.52	317.25
468.88	315.62
469.25	314.24
469.62	312.96
469.98	311.64
470.35	310.48
470.72	309.36
471.08	308.18
471.45	307.20
471.82	305.96
472.18	304.69
472.55	303.60
472.92	302.50
473.28	301.56
473.65	300.55
474.02	299.65
474.38	298.80
474.75	298.10
475.11	297.32
475.48	296.67
475.85	296.04
476.21	295.37
476.58	294.85
476.94	294.24
477.31	293.61
477.67	293.09
478.04	292.59
478.41	292.20
478.77	291.92
479.14	291.43
479.50	291.15
479.87	290.96
480.23	290.76
480.60	290.42
480.96	289.95
481.33	289.62
481.69	289.49
482.06	289.10
482.42	288.93
482.79	288.88
483.15	288.82
483.52	288.91
483.88	288.84
484.25	288.73
484.61	288.72
484.98	288.86
485.34	288.90
485.71	288.97
486.07	288.81
486.44	288.76
486.80	288.83
487.17	289.00
487.53	289.30
487.90	289.58
488.26	289.90
488.62	290.45
488.99	290.85
489.35	291.09
489.72	291.49
490.08	291.88
490.44	292.11
490.81	292.37
491.17	292.61
491.54	293.04
491.90	293.51
492.26	293.89
492.63	294.25
492.99	294.67
493.36	294.96
493.72	295.66
494.08	296.24
494.45	296.88
494.81	297.42
495.17	297.90
495.54	298.32
495.90	298.75
496.26	299.28
496.63	299.78
496.99	300.42
497.35	300.97
497.72	301.49
498.08	302.22
498.44	302.74
498.80	303.36
499.17	303.82
499.53	304.32
499.89	304.90
500.26	305.37
500.62	305.93
500.98	306.59
501.34	306.94
501.71	307.48
502.07	308.05
502.43	308.38
502.79	308.70
503.16	309.12
503.52	309.67
503.88	309.97
504.24	310.44
504.60	310.68
504.97	311.18
505.33	311.56
505.69	311.80
506.05	312.18
506.41	312.52
506.78	312.84
507.14	313.10
507.50	313.47
507.86	313.67
508.22	313.87
508.59	314.04
508.95	314.36
509.31	314.61
509.67	314.66
510.03	314.88
510.39	315.19
510.75	315.48
511.12	315.61
511.48	315.83
511.84	315.89
512.20	316.07
512.56	316.19
512.92	316.37
513.28	316.60
513.64	316.85
514.00	317.02
514.37	317.18
514.73	317.42
515.09	317.61
515.45	317.91
515.81	318.09
516.17	318.43
516.53	318.77
516.89	319.02
517.25	319.40
517.61	319.88
517.97	320.40
518.33	320.83
518.69	321.46
519.05	322.18
519.41	322.82
519.77	323.64
520.13	324.37
520.49	325.30
520.85	325.95
521.21	326.96
521.57	327.97
521.93	328.96
522.29	330.09
522.65	331.25
523.01	332.44
523.37	333.82
523.73	335.21
524.09	336.51
524.45	337.99
524.81	339.62
525.17	341.31
525.53	343.05
525.89	344.78
526.25	346.65
526.61	348.40
526.97	350.51
527.33	352.56
527.68	354.90
528.04	356.86
528.40	359.30
528.76	361.71
529.12	364.10
529.48	366.78
529.84	369.37
530.20	371.97
530.56	374.81
530.91	377.72
531.27	380.64
531.63	383.87
531.99	386.98
532.35	390.20
532.71	393.31
533.07	396.64
533.42	400.25
533.78	403.70
534.14	407.30
534.50	410.96
534.86	414.80
535.21	418.55
535.57	422.50
535.93	426.42
536.29	430.44
536.65	434.54
537.00	438.59
537.36	442.87
537.72	447.29
538.08	451.63
538.44	455.80
538.79	460.21
539.15	464.61
539.51	469.09
539.87	473.51
540.22	478.23
540.58	483.09
540.94	487.79
541.29	492.50
541.65	497.39
542.01	502.11
542.37	506.86
542.72	511.59
543.08	516.49
543.44	521.69
543.79	526.50
544.15	531.62
544.51	536.80
544.87	541.95
545.22	547.08
545.58	552.10
545.94	557.47
546.29	562.67
546.65	567.69
547.01	572.85
547.36	578.11
547.72	583.36
548.07	588.20
548.43	593.11
548.79	598.34
549.14	603.46
549.50	608.66
549.86	613.72
550.21	618.76
550.57	624.18
550.92	629.26
551.28	634.50
551.64	639.48
551.99	644.48
552.35	649.51
552.70	654.48
553.06	659.83
553.41	664.86
553.77	670.08
554.13	675.10
554.48	680.47
554.84	685.55
555.19	690.50
555.55	695.80
555.90	700.89
556.26	705.93
556.61	710.80
556.97	715.89
557.32	720.78
557.68	725.86
558.03	730.59
558.39	735.30
558.74	740.43
559.10	745.45
559.45	750.49
559.81	755.25
560.16	759.98
560.52	764.58
560.87	769.34
561.23	773.75
561.58	778.64
561.94	782.73
562.29	787.10
562.64	791.47
563.00	795.60
563.35	800.00
563.71	804.55
564.06	808.88
564.42	812.91
564.77	817.30
565.12	821.84
565.48	826.19
565.83	830.26
566.19	834.08
566.54	837.90
566.89	841.70
567.25	845.63
567.60	849.84
567.96	853.60
568.31	857.19
568.66	860.84
569.02	864.34
569.37	867.82
569.72	871.40
570.08	874.71
570.43	878.00
570.78	881.02
571.14	883.80
571.49	887.04
571.84	890.29
572.20	893.04
572.55	895.42
572.90	897.82
573.26	900.37
573.61	902.60
573.96	905.20
574.31	907.21
574.67	909.07
575.02	910.38
575.37	912.28
575.72	914.12
576.08	915.96
576.43	917.64
576.78	919.37
577.13	920.77
577.49	922.42
577.84	923.93
578.19	925.45
578.54	926.84
578.90	927.82
579.25	928.47
579.60	929.46
579.95	930.32
580.30	931.17
580.66	931.95
581.01	932.70
581.36	933.33
581.71	934.21
582.06	935.01
582.42	935.85
582.77	936.20
583.12	936.59
583.47	937.30
583.82	937.87
584.17	938.30
584.53	938.76
584.88	938.96
585.23	939.10
585.58	939.31
585.93	939.41
586.28	939.73
586.63	940.04
586.98	940.25
587.34	940.40
587.69	940.63
588.04	940.66
588.39	941.03
588.74	940.46
589.09	940.15
589.44	939.72
589.79	939.97
590.14	940.00
590.49	939.77
590.84	939.00
591.19	938.59
591.54	937.79
591.89	936.85
592.25	936.48
592.60	935.61
592.95	934.79
593.30	933.71
593.65	932.70
594.00	931.54
594.35	930.90
594.70	929.60
595.05	928.60
595.40	927.47
595.75	926.15
596.10	925.24
596.45	924.31
596.80	923.54
597.15	922.10
597.50	920.56
597.85	919.44
598.19	918.59
598.54	917.41
598.89	916.67
599.24	915.63
599.59	914.07
599.94	913.00
600.29	911.65
600.64	910.63
600.99	908.71
601.34	907.23
601.69	905.27
602.04	903.86
602.39	902.19
602.74	900.95
603.08	899.52
603.43	898.19
603.78	896.57
604.13	894.74
604.48	893.19
604.83	891.88
605.18	890.09
605.53	887.95
605.87	885.61
606.22	883.57
606.57	881.64
606.92	879.83
607.27	878.05
607.62	876.48
607.96	874.32
608.31	872.93
608.66	871.08
609.01	869.03
609.36	866.76
609.70	864.04
610.05	861.43
610.40	858.94
610.75	856.39
611.10	853.68
611.44	850.82
611.79	848.08
612.14	845.21
612.49	842.13
612.83	839.50
613.18	836.90
613.53	834.25
613.88	831.55
614.22	828.59
614.57	825.52
614.92	822.45
615.27	819.82
615.61	816.70
615.96	814.05
616.31	811.55
616.65	809.46
617.00	807.07
617.35	804.41
617.70	801.59
618.04	798.82
618.39	795.98
618.74	793.66
619.08	790.73
619.43	788.24
619.78	785.80
620.12	783.30
620.47	780.80
620.82	777.76
621.16	775.01
621.51	772.56
621.85	770.03
622.20	767.10
622.55	764.35
622.89	761.87
623.24	759.26
623.59	756.41
623.93	753.47
624.28	750.90
624.62	748.28
624.97	745.55
625.32	743.01
625.66	740.60
626.01	737.92
626.35	735.32
626.70	732.46
627.04	729.87
627.39	726.79
627.73	723.81
628.08	721.27
628.43	718.56
628.77	715.75
629.12	712.60
629.46	709.73
629.81	706.72
630.15	703.65
630.50	700.57
630.84	697.52
631.19	694.42
631.53	691.33
631.88	688.19
632.22	685.02
632.57	682.22
632.91	679.06
633.26	675.87
633.60	672.76
633.95	669.68
634.29	666.80
634.64	664.08
634.98	661.25
635.32	658.49
635.67	655.95
636.01	653.39
636.36	650.71
636.70	648.12
637.05	645.53
637.39	643.07
637.73	640.44
638.08	638.09
638.42	635.59
638.77	633.28
639.11	630.35
639.45	628.09
639.80	625.30
640.14	622.78
640.49	620.46
640.83	618.12
641.17	615.89
641.52	613.24
641.86	610.67
642.20	608.28
642.55	605.67
642.89	602.80
643.23	600.15
643.58	597.88
643.92	595.20
644.26	592.54
644.61	590.13
644.95	587.79
645.29	584.89
645.64	582.20
645.98	579.60
646.32	577.45
646.66	574.79
647.01	572.19
647.35	569.88
647.69	567.20
648.04	564.71
648.38	561.92
648.72	559.24
649.06	556.58
649.41	554.05
649.75	551.25
650.09	548.62
650.43	545.81
650.78	542.88
651.12	540.46
651.46	538.08
651.80	535.31
652.14	532.75
652.49	530.34
652.83	527.72
653.17	525.02
653.51	522.52
653.85	520.02
654.20	517.30
654.54	514.38
654.88	511.93
655.22	509.29
655.56	506.54
655.90	503.98
656.25	501.64
656.59	499.01
656.93	496.66
657.27	494.39
657.61	491.80
657.95	489.64
658.29	487.20
658.64	484.62
658.98	482.15
659.32	479.60
659.66	477.14
660.00	474.86
660.34	472.31
660.68	469.75
661.02	467.38
661.36	465.36
661.70	463.33
662.05	461.08
662.39	459.00
662.73	457.11
663.07	455.26
663.41	453.22
663.75	451.13
664.09	448.99
664.43	446.70
664.77	444.92
665.11	442.84
665.45	440.76
665.79	438.80
666.13	436.84
666.47	434.78
666.81	432.81
667.15	430.74
667.49	429.04
667.83	427.25
668.17	425.35
668.51	423.34
668.85	421.48
669.19	419.68
669.53	417.65
669.87	415.71
670.21	413.86
670.55	411.86
670.89	410.36
671.23	408.74
671.57	407.27
671.91	405.56
672.25	403.90
672.58	402.34
672.92	400.70
673.26	399.27
673.60	397.86
673.94	396.35
674.28	395.10
674.62	393.56
674.96	392.14
675.30	390.78
675.64	389.41
675.97	387.92
676.31	386.40
676.65	384.93
676.99	383.66
677.33	382.13
677.67	380.91
678.01	379.29
678.34	377.84
678.68	376.45
679.02	374.96
679.36	373.60
679.70	372.26
680.04	370.92
680.37	369.36
680.71	367.91
681.05	366.56
681.39	365.21
681.73	364.05
682.06	362.75
682.40	361.51
682.74	360.24
683.08	359.00
683.42	357.84
683.75	356.76
684.09	355.60
684.43	354.62
684.77	353.28
685.10	352.13
685.44	351.04
685.78	349.88
686.12	348.80
686.45	347.66
686.79	346.55
687.13	345.46
687.46	344.38
687.80	343.28
688.14	342.19
688.48	340.90
688.81	339.70
689.15	338.62
689.49	337.28
689.82	336.12
690.16	335.03
690.50	333.91
690.83	332.70
691.17	331.42
691.51	330.25
691.84	329.27
692.18	328.24
692.52	327.09
692.85	325.98
693.19	325.01
693.52	324.07
693.86	322.97
694.20	321.90
694.53	320.90
694.87	319.78
695.21	318.78
695.54	317.91
695.88	316.89
696.21	315.79
696.55	315.09
696.88	314.20
697.22	313.21
697.56	312.32
697.89	311.56
698.23	310.61
698.56	309.60
698.90	308.64
699.23	307.67
699.57	306.81
699.90	305.90
700.24	304.88
700.58	303.92
700.91	303.01
701.25	302.28
701.58	301.52
701.92	300.79
702.25	299.99
702.59	299.15
702.92	298.29
703.26	297.66
703.59	296.64
703.93	295.96
704.26	295.35
704.60	294.58
704.93	293.81
705.26	293.31
705.60	292.80
705.93	292.03
706.27	291.46
706.60	290.87
706.94	290.34
707.27	289.62
707.61	288.91
707.94	288.26
708.27	287.51
708.61	286.76
708.94	286.20
709.28	285.60
709.61	285.05
709.94	284.54
710.28	283.91
710.61	283.36
710.95	282.56
711.28	282.01
711.61	281.31
711.95	280.64
712.28	279.90
712.61	279.21
712.95	278.77
713.28	278.18
713.61	277.58
713.95	277.00
714.28	276.51
714.61	276.00
714.95	275.58
715.28	274.99
715.61	274.58
715.95	274.01
716.28	273.44
716.61	272.93
716.95	272.40
717.28	271.90
717.61	271.52
717.94	271.05
718.28	270.41
718.61	270.00
718.94	269.68
719.27	269.39
719.61	268.91
719.94	268.44
720.27	268.00
720.60	267.51
720.94	267.06
721.27	266.68
721.60	266.36
721.93	265.95
722.27	265.63
722.60	265.19
722.93	264.67
723.26	264.28
723.59	263.82
723.93	263.43
724.26	263.13
724.59	262.73
724.92	262.47
725.25	262.28
725.59	262.04
725.92	261.61
726.25	261.18
726.58	260.95
726.91	260.60
727.24	260.23
727.57	260.13
727.91	259.83
728.24	259.43
728.57	259.04
728.90	258.80
729.23	258.46
729.56	258.24
729.89	258.11
730.22	257.87
730.55	257.65
730.89	257.50
731.22	257.14
731.55	256.80
731.88	256.51
732.21	256.10
732.54	255.71
732.87	255.48
733.20	255.21
733.53	254.96
733.86	254.79
734.19	254.49
734.52	254.10
734.85	254.01
735.18	253.75
735.51	253.62
735.84	253.23
736.17	253.09
736.50	252.85
736.83	252.80
737.16	252.44
737.49	252.24
737.82	251.89
738.15	251.57
738.48	251.37
738.81	251.04
739.14	250.86
739.47	250.68
739.80	250.48
740.13	250.22
740.46	249.99
740.79	249.65
741.12	249.42
741.45	249.21
741.78	248.83
742.11	248.65
742.44	248.34
742.77	248.22
743.10	247.93
743.43	247.58
743.75	247.10
744.08	247.34
744.41	246.99
744.74	246.76
745.07	246.57
745.40	246.45
745.73	246.34
746.06	246.12
746.39	245.83
746.71	245.54
747.04	245.40
747.37	245.10
747.70	244.93
748.03	244.86
748.36	244.70
748.68	244.45
749.01	244.26
749.34	244.10
749.67	243.93
750.00	243.80
750.33	243.78
750.65	243.64
750.98	243.21
751.31	243.14
751.64	243.05
751.97	243.05
752.29	242.85
752.62	242.69
752.95	242.48
753.28	242.47
753.60	242.37
753.93	242.26
754.26	242.16
754.59	242.00
754.91	241.80
755.24	241.58
755.57	241.47
755.90	241.29
756.22	241.08
756.55	240.88
756.88	240.69
757.20	240.37
757.53	240.18
757.86	239.96
758.19	239.91
758.51	239.68
758.84	239.47
759.17	239.33
759.49	239.09
759.82	239.14
760.15	238.88
760.47	238.80
760.80	238.56
761.13	238.39
761.45	238.20
761.78	238.13
762.11	238.01
762.43	237.89
762.76	237.78
763.08	237.66
763.41	237.56
763.74	237.40
764.06	237.32
764.39	237.20
764.71	237.08
765.04	236.88
765.37	236.82
765.69	236.65
766.02	236.49
766.34	236.49
766.67	236.27
767.00	236.25
767.32	236.12
767.65	236.24
767.97	236.13
768.30	236.12
768.62	235.99
768.95	235.90
769.27	235.75
769.60	235.69
769.92	235.67
770.25	235.60
770.57	235.62
770.90	235.51
771.22	235.48
771.55	235.48
771.87	235.49
772.20	235.42
772.52	235.61
772.85	235.83
773.17	235.63
773.50	235.64
773.82	235.54
774.15	235.47
774.47	235.20
774.80	235.13
775.12	235.00
775.45	234.93
775.77	234.86
776.09	234.81
776.42	234.71
776.74	234.71
777.07	234.60
777.39	234.47
777.72	234.33
778.04	234.26
778.36	234.07
778.69	233.83
779.01	233.80
779.33	233.46
779.66	233.12
779.98	233.13
780.31	232.91
780.63	232.96
780.95	232.81
781.28	232.70
781.60	232.60
781.92	232.49
782.25	232.41
782.57	232.31
782.89	232.27
783.22	232.24
783.54	232.10
783.86	232.03
784.19	232.03
784.51	232.07
784.83	231.96
785.16	231.94
785.48	231.97
785.80	231.84
786.12	231.89
786.45	231.71
786.77	231.59
787.09	231.62
787.42	231.49
787.74	231.57
788.06	231.56
788.38	231.59
788.71	231.59
789.03	231.59
789.35	231.58
789.67	231.43
789.99	231.50
790.32	231.45
790.64	231.41
790.96	231.40
791.28	231.39
791.61	231.39
791.93	231.38
792.25	231.30
792.57	231.46
792.89	231.30
793.21	231.47
793.54	231.52
793.86	231.35
794.18	231.27
794.50	231.24
794.82	231.24
795.14	231.26
795.47	231.27
795.79	231.35
796.11	231.31
796.43	231.38
796.75	231.27
797.07	231.24
797.39	231.19
797.71	231.06
798.04	231.08
798.36	231.13
798.68	231.09
799.00	231.14
799.32	231.02
799.64	231.06
799.96	230.98
800.28	230.97
800.60	231.09
800.92	231.18
801.24	231.03
801.56	231.06
801.89	230.88
802.21	230.84
802.53	230.65
802.85	230.59
803.17	230.61
803.49	230.45
803.81	230.47
804.13	230.51
804.45	230.47
804.77	230.45
805.09	230.35
805.41	230.30
805.73	230.20
806.05	230.09
806.37	230.02
806.69	229.94
807.01	229.88
807.33	229.80
807.65	229.55
807.97	229.72
808.28	229.59
808.60	229.62
808.92	229.66
809.24	229.76
809.56	229.79
809.88	229.78
810.20	229.86
810.52	229.84
810.84	229.77
811.16	229.69
811.48	229.65
811.80	229.75
812.12	229.71
812.43	229.83
812.75	229.80
813.07	229.84
813.39	229.94
813.71	229.91
814.03	229.88
814.35	229.99
814.67	229.86
814.98	229.85
815.30	229.90
815.62	229.83
815.94	229.66
816.26	229.69
816.58	229.56
816.89	229.60
817.21	229.49
817.53	229.47
817.85	229.59
818.17	229.53
818.48	229.47
818.80	229.55
819.12	229.40
819.44	229.50
819.76	229.42
820.07	229.35
820.39	229.34
820.71	229.33
821.03	229.38
821.34	229.35
821.66	229.48
821.98	229.42
822.30	229.39
822.61	229.58
822.93	229.48
823.25	229.43
823.57	229.34
823.88	229.39
824.20	229.41
824.52	229.46
824.83	229.44
825.15	229.35
825.47	229.35
825.79	229.47
826.10	229.32
826.42	229.28
826.74	229.32
827.05	229.30
827.37	229.35
827.69	229.29
828.00	229.36
828.32	229.32
828.64	229.39
828.95	229.46
829.27	229.45
829.58	229.49
829.90	229.57
830.22	229.57
830.53	229.49
830.85	229.40
831.17	229.28
831.48	229.33
831.80	229.32
832.11	229.30
832.43	229.18
832.75	229.30
833.06	229.40
833.38	229.34
833.69	229.32
834.01	229.26
834.32	229.26
834.64	229.20
834.96	229.12
835.27	229.00
835.59	229.03
835.90	228.90
836.22	228.90
836.53	228.83
836.85	228.87
837.16	229.06
837.48	229.08
837.79	229.21
838.11	229.18
838.42	229.19
838.74	229.19
839.05	229.22
839.37	229.13
839.68	229.13
840.00	229.09
840.31	229.21
840.63	229.23
840.94	229.17
841.26	229.15
841.57	229.19
841.88	229.26
842.20	229.16
842.51	229.09
842.83	229.06
843.14	229.31
843.46	229.21
843.77	229.03
844.08	229.02
844.40	228.87
844.71	228.81
845.03	228.81
845.34	228.77
845.65	228.72
845.97	228.75
846.28	228.66
846.60	228.66
846.91	228.54
847.22	228.48
847.54	228.51
847.85	228.47
848.16	228.44
848.48	228.36
848.79	228.45
849.10	228.41
849.42	228.49
849.73	228.32
850.04	228.39
850.36	228.47
850.67	228.56
850.98	228.51
851.30	228.46
851.61	228.36
851.92	228.39
852.23	228.42
852.55	228.43
852.86	228.49
853.17	228.51
853.49	228.55
853.80	228.56
854.11	228.51
854.42	228.53
854.74	228.58
855.05	228.64
855.36	228.54
855.67	228.57
855.99	228.49
856.30	228.67
856.61	228.69
856.92	228.60
857.23	228.56
857.55	228.65
857.86	228.73
858.17	228.85
858.48	228.81
858.79	228.74
859.11	228.79
859.42	228.80
859.73	228.94
860.04	228.88
860.35	228.82
860.66	228.87
860.98	228.90
861.29	228.74
861.60	228.70
861.91	228.81
862.22	228.79
862.53	228.83
862.84	228.68
863.16	228.64
863.47	228.60
863.78	228.65
864.09	228.64
864.40	228.56
864.71	228.63
865.02	228.67
865.33	228.77
865.64	228.76
865.95	228.69
866.27	228.74
866.58	228.71
866.89	228.84
867.20	228.87
867.51	228.81
867.82	228.92
868.13	229.08
868.44	228.95
868.75	229.10
869.06	228.98
869.37	228.91
869.68	228.90
869.99	229.01
870.30	229.01
870.61	229.00
870.92	229.03
871.23	228.96
871.54	229.00
871.85	229.05
872.16	229.03
872.47	229.13
872.78	228.96
873.09	229.09
873.40	229.01
873.71	229.00
874.02	228.98
874.33	228.90
874.64	228.82
874.95	228.82
875.26	228.80
875.56	228.90
875.87	228.84
876.18	228.81
876.49	229.00
876.80	228.89
877.11	228.80
877.42	228.90
877.73	228.93
878.04	228.90
878.35	228.80
878.66	228.77
878.96	228.76
879.27	228.74
879.58	228.69
879.89	228.66
880.20	228.69
880.51	228.73
880.82	228.78
881.12	228.65
881.43	228.60
881.74	228.48
882.05	228.41
882.36	228.43
882.67	228.49
882.97	228.25
883.28	228.30
883.59	228.32
883.90	228.23
884.21	228.15
884.51	228.13
884.82	228.01
885.13	227.97
885.44	227.90
885.74	227.95
886.05	227.91
886.36	227.98
886.67	227.87
886.98	227.96
887.28	228.09
887.59	228.11
887.90	228.04
888.20	228.07
888.51	228.08
888.82	228.13
889.13	228.03
889.43	228.17
889.74	228.11
890.05	228.12
890.35	228.16
890.66	228.11
890.97	228.03
891.28	228.15
891.58	228.21
891.89	228.20
892.20	228.16
892.50	228.06
892.81	228.01
893.12	227.98
893.42	227.88
893.73	227.77
894.04	227.75
894.34	227.92
894.65	227.93
894.95	227.97
895.26	228.00
895.57	228.16
895.87	227.96
896.18	227.97
896.48	228.00
896.79	227.93
897.10	228.01
897.40	228.12
897.71	228.12
898.01	228.07
898.32	227.96
898.63	227.88
898.93	227.99
899.24	227.98
899.54	228.05
899.85	228.07
900.15	228.10
900.46	228.28
900.76	228.15
901.07	228.22
901.38	228.19
901.68	228.14
901.99	228.08
902.29	228.08
902.60	228.12
902.90	228.12
903.21	228.09
903.51	228.09
903.82	228.08
904.12	228.11
904.43	228.18
904.73	228.36
905.03	228.43
905.34	228.61
905.64	228.67
905.95	228.65
906.25	228.59
906.56	228.59
906.86	228.50
907.17	228.53
907.47	228.42
907.77	228.39
908.08	228.34
908.38	228.41
908.69	228.51
908.99	228.62
909.30	228.69
909.60	228.82
909.90	228.80
910.21	228.73
910.51	228.67
910.81	228.64
911.12	228.59
911.42	228.66
911.73	228.46
912.03	228.45
912.33	228.55
912.64	228.60
912.94	228.57
913.24	228.52
913.55	228.52
913.85	228.59
914.15	228.75
914.46	228.78
914.76	228.69
915.06	228.66
915.37	228.52
915.67	228.43
915.97	228.34
916.27	228.33
916.58	228.32
916.88	228.31
917.18	228.24
917.49	228.38
917.79	228.29
918.09	228.32
918.39	228.43
918.70	228.35
919.00	228.33
919.30	228.45
919.60	228.39
919.91	228.44
920.21	228.40
920.51	228.32
920.81	228.40
921.12	228.45
921.42	228.36
921.72	228.46
922.02	228.56
922.32	228.64
922.63	228.68
922.93	228.86
923.23	228.85
923.53	228.88
923.83	228.76
924.13	228.70
924.44	228.76
924.74	228.80
925.04	228.82
925.34	228.80
925.64	228.61
925.94	228.69
926.24	228.78
926.55	228.81
926.85	228.84
927.15	228.76
927.45	228.62
927.75	228.70
928.05	228.60
928.35	228.51
928.65	228.47
928.95	228.52
929.26	228.34
929.56	228.44
929.86	228.46
930.16	228.40
930.46	228.61
930.76	228.49
931.06	228.37
931.36	228.33
931.66	228.32
931.96	228.43
932.26	228.33
932.56	228.25
932.86	228.20
933.16	228.19
933.46	228.19
933.76	228.32
934.06	228.28
934.36	228.41
934.66	228.40
934.96	228.30
935.26	228.29
935.56	228.36
935.86	228.28
936.16	228.34
936.46	228.37
936.76	228.27
937.06	228.38
937.36	228.38
937.66	228.37
937.96	228.46
938.26	228.40
938.56	228.55
938.86	228.49
939.16	228.50
939.46	228.51
939.76	228.52
940.06	228.50
940.35	228.49
940.65	228.36
940.95	228.48
941.25	228.60
941.55	228.54
941.85	228.52
942.15	228.57
942.45	228.51
942.75	228.43
943.04	228.46
943.34	228.32
943.64	228.29
943.94	228.26
944.24	228.21
944.54	228.38
944.84	228.33
945.13	228.36
945.43	228.40
945.73	228.31
946.03	228.20
946.33	228.25
946.62	228.24
946.92	228.29
947.22	228.25
947.52	228.14
947.82	228.20
948.11	228.17
948.41	228.11
948.71	228.11
949.01	228.13
949.31	228.10
949.60	228.18
949.90	228.26
950.20	228.29
950.50	228.37
950.79	228.20
951.09	228.20
951.39	228.24
951.69	228.16
951.98	228.26
952.28	228.36
952.58	228.28
952.87	228.37
953.17	228.40
953.47	228.38
953.76	228.45
954.06	228.44
954.36	228.44
954.66	228.48
954.95	228.60
955.25	228.66
955.55	228.62
955.84	228.64
956.14	228.58
956.44	228.62
956.73	228.52
957.03	228.52
957.32	228.60
957.62	228.47
957.92	228.53
958.21	228.53
958.51	228.73
958.81	228.76
959.10	228.70
959.40	228.64
959.69	228.69
959.99	228.65
960.29	228.57
960.58	228.61
960.88	228.63
961.17	228.49
961.47	228.49
961.76	228.50
962.06	228.44
962.36	228.44
962.65	228.45
962.95	228.38
963.24	228.38
963.54	228.31
963.83	228.43
964.13	228.47
964.42	228.39
964.72	228.16
965.01	228.10
965.31	228.05
965.60	228.01
965.90	227.99
966.19	228.11
966.49	228.10
966.78	227.98
967.08	227.98
967.37	228.01
967.67	228.03
967.96	228.00
968.26	228.09
968.55	228.09
968.85	228.03
969.14	228.03
969.43	228.01
969.73	227.99
970.02	227.92
970.32	227.89
970.61	227.79
970.91	227.76
971.20	227.83
971.49	227.85
971.79	227.81
972.08	227.77
972.38	227.68
972.67	227.72
972.96	227.81
973.26	227.62
973.55	227.58
973.85	227.55
974.14	227.57
974.43	227.52
974.73	227.51
975.02	227.49
975.31	227.55
975.61	227.59
975.90	227.60
976.19	227.68
976.49	227.60
976.78	227.76
977.07	227.76
977.37	227.78
977.66	227.82
977.95	227.85
978.24	227.83
978.54	227.91
978.83	227.84
979.12	227.76
979.42	227.85
979.71	227.89
980.00	227.90
980.29	227.97
980.59	228.02
980.88	227.95
981.17	227.96
981.46	227.92
981.76	227.96
982.05	227.97
982.34	227.96
982.63	228.01
982.93	227.98
983.22	228.13
983.51	228.04
983.80	228.04
984.09	228.09
984.39	228.09
984.68	228.12
984.97	228.23
985.26	228.30
985.55	228.31
985.85	228.23
986.14	228.20
986.43	228.24
986.72	228.11
987.01	228.12
987.30	228.13
987.59	228.11
987.89	228.11
988.18	228.05
988.47	228.06
988.76	228.15
989.05	228.10
989.34	227.98
989.63	228.12
989.92	228.13
990.22	228.09
990.51	228.07
990.80	228.04
991.09	228.05
991.38	228.02
991.67	228.12
991.96	228.25
992.25	228.25
992.54	228.16
992.83	228.30
993.12	228.44
993.41	228.52
993.70	228.72
993.99	228.78
994.28	228.83
994.58	228.84
994.87	228.78
995.16	228.80
995.45	228.86
995.74	228.76
996.03	228.79
996.32	228.94
996.61	229.08
996.90	229.06
997.19	229.00
997.48	229.05
997.77	229.07
998.06	228.99
998.34	229.00
998.63	229.07
998.92	228.96
999.21	228.91
999.50	228.90
999.79	228.74
1000.08	228.73
1000.37	228.75
1000.66	228.70
1000.95	228.74
1001.24	228.75
1001.53	228.71
1001.82	228.80
1002.11	228.79
1002.40	228.69
1002.68	228.55
1002.97	228.69
1003.26	228.73
1003.55	228.68
1003.84	228.52
1004.13	228.54
1004.42	228.52
1004.71	228.41
1004.99	228.39
1005.28	228.46
1005.57	228.40
1005.86	228.41
1006.15	228.34
1006.44	228.29
1006.72	228.25
1007.01	228.14
1007.30	228.13
1007.59	228.11
1007.88	227.95
1008.17	227.99
1008.45	227.96
1008.74	228.02
1009.03	227.95
1009.32	227.86
1009.60	227.82
1009.89	227.83
1010.18	227.76
1010.47	227.67
1010.76	227.66
1011.04	227.72
1011.33	227.66
1011.62	227.61
1011.91	227.65
1012.19	227.71
1012.48	227.71
1012.77	227.75
1013.05	227.86
1013.34	227.85
1013.63	227.91
1013.92	227.98
1014.20	227.89
1014.49	227.85
1014.78	227.77
1015.06	227.63
1015.35	227.66
1015.64	227.73
1015.92	227.78
1016.21	227.89
1016.50	227.98
1016.78	227.91
1017.07	227.96
1017.36	227.91
1017.64	227.96
1017.93	227.92
1018.22	227.86
1018.50	227.81
1018.79	227.79
1019.08	227.68
1019.36	227.70
1019.65	227.64
1019.93	227.65
1020.22	227.72
1020.51	227.83
1020.79	227.77
1021.08	228.00
1021.36	226.50
1021.65	227.80
1021.94	226.90
1022.22	228.10
1022.51	227.90
1022.79	228.00
1023.08	229.10
1023.36	229.60
1023.65	226.10
>>>>>End Processed Spectral Data<<<<<
