SpectraSuite Data File
++++++++++++++++++++++++++++++++++++
Date: Fri Feb 01 14:40:00 EST 2013
User: group
Dark Spectrum Present: No
Reference Spectrum Present: No
Number of Sampled Component Spectra: 1
Spectrometers: USB2E7196
Integration Time (usec): 70000 (USB2E7196)
Spectra Averaged: 10 (USB2E7196)
Boxcar Smoothing: 10 (USB2E7196)
Correct for Electrical Dark: No (USB2E7196)
Strobe/Lamp Enabled: No (USB2E7196)
Correct for Detector Non-linearity: No (USB2E7196)
Correct for Stray Light: No (USB2E7196)
Number of Pixels in Processed Spectrum: 2048
>>>>>Begin Processed Spectral Data<<<<<
339.09	0.00
339.48	215.00
339.86	216.50
340.24	219.50
340.63	221.60
341.01	225.10
341.39	224.10
341.78	224.40
342.16	227.00
342.54	225.90
342.93	214.83
343.31	225.61
343.69	226.17
344.07	226.68
344.46	227.09
344.84	227.45
345.22	227.50
345.60	227.65
345.99	227.85
346.37	227.89
346.75	227.88
347.13	227.87
347.52	227.90
347.90	227.93
348.28	227.87
348.66	227.90
349.05	227.81
349.43	227.90
349.81	227.88
350.19	228.01
350.57	228.03
350.96	228.14
351.34	228.23
351.72	228.35
352.10	228.33
352.48	228.34
352.87	228.34
353.25	228.56
353.63	228.70
354.01	228.73
354.39	228.85
354.77	229.01
355.15	229.09
355.54	229.10
355.92	229.17
356.30	229.35
356.68	229.60
357.06	229.73
357.44	229.77
357.82	229.88
358.20	229.85
358.58	229.93
358.97	229.99
359.35	230.13
359.73	230.23
360.11	230.37
360.49	230.47
360.87	230.54
361.25	230.50
361.63	230.66
362.01	230.70
362.39	230.68
362.77	230.72
363.15	230.76
363.53	230.76
363.91	230.79
364.29	230.69
364.67	230.42
365.05	230.50
365.43	230.51
365.81	230.48
366.19	230.52
366.57	230.53
366.95	230.49
367.33	230.43
367.71	230.36
368.09	230.39
368.47	230.30
368.85	230.17
369.23	230.17
369.61	230.00
369.99	229.95
370.37	229.97
370.75	230.04
371.13	229.95
371.51	229.92
371.89	229.85
372.27	229.79
372.65	229.85
373.03	229.67
373.41	229.57
373.78	229.50
374.16	229.50
374.54	229.41
374.92	229.26
375.30	229.20
375.68	229.14
376.06	229.00
376.44	228.90
376.82	228.84
377.19	228.74
377.57	228.56
377.95	228.50
378.33	228.45
378.71	228.26
379.09	228.18
379.47	228.09
379.84	227.97
380.22	227.90
380.60	227.71
380.98	227.65
381.36	227.62
381.73	227.52
382.11	227.41
382.49	227.37
382.87	227.37
383.25	227.28
383.62	227.35
384.00	227.32
384.38	227.30
384.76	227.29
385.13	227.28
385.51	227.37
385.89	227.26
386.27	227.11
386.64	227.05
387.02	227.01
387.40	226.98
387.78	226.99
388.15	226.95
388.53	226.94
388.91	226.91
389.29	226.75
389.66	226.71
390.04	226.61
390.42	226.58
390.79	226.49
391.17	226.47
391.55	226.30
391.92	226.16
392.30	226.20
392.68	226.21
393.05	226.25
393.43	226.20
393.81	226.20
394.18	226.20
394.56	226.32
394.94	226.41
395.31	226.47
395.69	226.49
396.06	226.61
396.44	226.64
396.82	226.64
397.19	226.82
397.57	226.89
397.95	226.94
398.32	226.90
398.70	227.04
399.07	227.16
399.45	227.30
399.82	227.44
400.20	227.50
400.58	227.55
400.95	227.50
401.33	227.66
401.70	227.91
402.08	228.03
402.45	228.02
402.83	228.12
403.20	228.13
403.58	228.19
403.95	228.27
404.33	228.33
404.71	228.52
405.08	228.78
405.46	228.90
405.83	229.11
406.21	229.30
406.58	229.51
406.96	229.66
407.33	229.73
407.70	229.94
408.08	230.25
408.45	230.46
408.83	230.80
409.20	231.02
409.58	231.08
409.95	231.33
410.33	231.64
410.70	231.88
411.08	232.31
411.45	232.66
411.82	232.99
412.20	233.43
412.57	233.80
412.95	234.00
413.32	234.42
413.69	234.67
414.07	235.06
414.44	235.36
414.82	235.74
415.19	236.23
415.56	236.70
415.94	237.08
416.31	237.63
416.68	238.13
417.06	238.69
417.43	239.38
417.81	240.06
418.18	240.73
418.55	241.50
418.93	242.19
419.30	243.11
419.67	243.98
420.04	244.87
420.42	245.74
420.79	246.93
421.16	247.91
421.54	249.10
421.91	250.28
422.28	251.62
422.66	252.92
423.03	254.26
423.40	255.60
423.77	257.02
424.15	258.38
424.52	259.86
424.89	261.50
425.26	263.00
425.64	264.36
426.01	265.93
426.38	267.57
426.75	269.34
427.13	270.97
427.50	272.70
427.87	274.53
428.24	276.44
428.61	278.13
428.99	280.34
429.36	282.55
429.73	284.71
430.10	286.67
430.47	288.72
430.85	290.75
431.22	292.97
431.59	295.52
431.96	297.95
432.33	300.45
432.70	302.73
433.08	305.56
433.45	308.36
433.82	310.98
434.19	314.03
434.56	316.86
434.93	319.60
435.30	322.25
435.68	325.26
436.05	328.38
436.42	331.31
436.79	333.84
437.16	336.52
437.53	339.42
437.90	342.38
438.27	345.36
438.64	348.36
439.01	351.13
439.38	353.54
439.75	355.87
440.13	358.54
440.50	361.13
440.87	363.30
441.24	365.49
441.61	367.87
441.98	369.31
442.35	371.12
442.72	373.13
443.09	375.38
443.46	376.60
443.83	377.11
444.20	377.69
444.57	378.62
444.94	379.17
445.31	379.67
445.68	380.28
446.05	380.34
446.42	380.17
446.79	379.86
447.16	379.50
447.53	379.16
447.90	378.16
448.27	377.09
448.64	375.45
449.01	374.30
449.37	372.44
449.74	370.69
450.11	368.81
450.48	366.38
450.85	363.65
451.22	361.40
451.59	359.62
451.96	357.77
452.33	355.12
452.70	352.77
453.07	349.73
453.43	346.69
453.80	344.10
454.17	341.29
454.54	338.68
454.91	335.78
455.28	333.12
455.65	330.61
456.02	328.30
456.38	326.10
456.75	323.41
457.12	321.11
457.49	318.85
457.86	316.43
458.23	314.57
458.59	312.40
458.96	310.35
459.33	308.13
459.70	306.14
460.07	304.67
460.43	302.80
460.80	301.34
461.17	299.85
461.54	298.20
461.91	296.72
462.27	295.27
462.64	293.89
463.01	292.41
463.38	290.87
463.74	289.25
464.11	287.92
464.48	286.81
464.85	285.58
465.21	284.68
465.58	283.66
465.95	282.42
466.32	281.53
466.68	280.53
467.05	279.64
467.42	278.61
467.78	277.42
468.15	276.51
468.52	275.67
468.88	274.70
469.25	273.78
469.62	273.05
469.98	272.31
470.35	271.56
470.72	270.81
471.08	270.10
471.45	269.43
471.82	268.88
472.18	268.10
472.55	267.49
472.92	266.70
473.28	266.14
473.65	265.49
474.02	264.74
474.38	264.09
474.75	263.60
475.11	263.07
475.48	262.67
475.85	262.20
476.21	261.79
476.58	261.28
476.94	260.95
477.31	260.59
477.67	260.13
478.04	259.73
478.41	259.50
478.77	259.34
479.14	258.96
479.50	258.65
479.87	258.52
480.23	258.34
480.60	258.23
480.96	257.95
481.33	257.96
481.69	257.94
482.06	257.96
482.42	257.67
482.79	257.48
483.15	257.41
483.52	257.31
483.88	257.24
484.25	257.20
484.61	257.13
484.98	257.09
485.34	257.24
485.71	257.45
486.07	257.46
486.44	257.44
486.80	257.56
487.17	257.63
487.53	257.66
487.90	257.73
488.26	257.87
488.62	258.08
488.99	258.08
489.35	258.19
489.72	258.25
490.08	258.63
490.44	259.01
490.81	259.37
491.17	259.64
491.54	259.88
491.90	260.33
492.26	260.59
492.63	260.94
492.99	261.14
493.36	261.45
493.72	262.04
494.08	262.38
494.45	262.83
494.81	263.30
495.17	263.82
495.54	264.43
495.90	265.00
496.26	265.58
496.63	266.41
496.99	267.17
497.35	268.00
497.72	268.71
498.08	269.49
498.44	270.30
498.80	271.26
499.17	272.23
499.53	273.21
499.89	274.28
500.26	275.39
500.62	276.51
500.98	277.71
501.34	278.92
501.71	280.30
502.07	281.70
502.43	283.15
502.79	284.60
503.16	286.16
503.52	287.76
503.88	289.39
504.24	291.09
504.60	292.95
504.97	294.82
505.33	296.82
505.69	299.02
506.05	301.19
506.41	303.50
506.78	305.80
507.14	308.21
507.50	310.89
507.86	313.55
508.22	316.35
508.59	319.18
508.95	322.07
509.31	325.18
509.67	328.30
510.03	331.63
510.39	334.94
510.75	338.34
511.12	341.79
511.48	345.45
511.84	349.16
512.20	352.97
512.56	356.99
512.92	361.12
513.28	365.37
513.64	369.59
514.00	374.01
514.37	378.62
514.73	383.20
515.09	387.80
515.45	392.69
515.81	397.55
516.17	402.62
516.53	407.87
516.89	413.15
517.25	418.70
517.61	424.28
517.97	429.95
518.33	435.61
518.69	441.78
519.05	447.90
519.41	454.06
519.77	460.48
520.13	467.12
520.49	473.74
520.85	480.22
521.21	487.10
521.57	494.13
521.93	501.03
522.29	508.43
522.65	515.75
523.01	523.09
523.37	530.41
523.73	537.86
524.09	545.51
524.45	553.48
524.81	561.24
525.17	569.50
525.53	577.80
525.89	586.17
526.25	594.39
526.61	602.68
526.97	611.19
527.33	619.80
527.68	628.38
528.04	637.10
528.40	646.04
528.76	655.09
529.12	664.00
529.48	673.27
529.84	682.01
530.20	691.40
530.56	701.05
530.91	710.88
531.27	720.55
531.63	729.86
531.99	739.29
532.35	748.69
532.71	757.93
533.07	767.64
533.42	777.43
533.78	787.17
534.14	797.02
534.50	806.79
534.86	816.70
535.21	826.29
535.57	836.22
535.93	846.21
536.29	855.96
536.65	866.19
537.00	876.01
537.36	886.24
537.72	896.23
538.08	905.65
538.44	915.60
538.79	925.70
539.15	935.51
539.51	945.60
539.87	956.06
540.22	966.00
540.58	976.31
540.94	986.16
541.29	995.90
541.65	1005.73
542.01	1015.89
542.37	1025.74
542.72	1035.56
543.08	1045.19
543.44	1055.02
543.79	1064.50
544.15	1073.45
544.51	1083.29
544.87	1092.83
545.22	1101.93
545.58	1111.20
545.94	1119.67
546.29	1128.53
546.65	1137.19
547.01	1145.66
547.36	1154.10
547.72	1162.65
548.07	1170.52
548.43	1178.63
548.79	1186.82
549.14	1194.77
549.50	1201.94
549.86	1209.38
550.21	1217.19
550.57	1225.17
550.92	1232.38
551.28	1239.54
551.64	1247.04
551.99	1254.04
552.35	1261.13
552.70	1268.19
553.06	1275.68
553.41	1283.69
553.77	1290.50
554.13	1297.84
554.48	1304.84
554.84	1311.22
555.19	1317.74
555.55	1324.22
555.90	1330.77
556.26	1337.34
556.61	1343.59
556.97	1350.18
557.32	1356.43
557.68	1362.30
558.03	1368.13
558.39	1373.92
558.74	1380.65
559.10	1386.37
559.45	1392.27
559.81	1398.59
560.16	1404.23
560.52	1409.36
560.87	1414.25
561.23	1419.30
561.58	1424.68
561.94	1429.47
562.29	1434.33
562.64	1439.25
563.00	1444.19
563.35	1449.43
563.71	1454.27
564.06	1459.21
564.42	1463.92
564.77	1468.73
565.12	1473.38
565.48	1477.96
565.83	1482.11
566.19	1486.23
566.54	1490.29
566.89	1493.70
567.25	1496.80
567.60	1500.86
567.96	1504.42
568.31	1507.74
568.66	1511.00
569.02	1514.27
569.37	1517.40
569.72	1520.62
570.08	1523.52
570.43	1526.40
570.78	1528.59
571.14	1530.57
571.49	1532.91
571.84	1535.82
572.20	1537.42
572.55	1538.93
572.90	1539.72
573.26	1541.64
573.61	1542.27
573.96	1543.70
574.31	1544.55
574.67	1544.97
575.02	1544.70
575.37	1545.54
575.72	1545.66
576.08	1546.37
576.43	1546.17
576.78	1546.66
577.13	1547.04
577.49	1547.58
577.84	1546.85
578.19	1546.49
578.54	1546.48
578.90	1545.46
579.25	1543.92
579.60	1543.10
579.95	1542.26
580.30	1541.46
580.66	1540.01
581.01	1538.91
581.36	1537.46
581.71	1536.63
582.06	1535.61
582.42	1534.37
582.77	1532.63
583.12	1531.24
583.47	1529.88
583.82	1528.70
584.17	1526.95
584.53	1525.10
584.88	1523.08
585.23	1521.52
585.58	1519.85
585.93	1517.97
586.28	1516.69
586.63	1515.07
586.98	1513.44
587.34	1511.61
587.69	1510.10
588.04	1508.52
588.39	1506.75
588.74	1503.93
589.09	1501.37
589.44	1498.51
589.79	1496.52
590.14	1494.40
590.49	1491.66
590.84	1488.34
591.19	1485.33
591.54	1481.62
591.89	1477.69
592.25	1474.25
592.60	1470.80
592.95	1467.02
593.30	1463.45
593.65	1459.62
594.00	1456.20
594.35	1452.95
594.70	1448.84
595.05	1444.90
595.40	1440.95
595.75	1436.82
596.10	1433.72
596.45	1430.20
596.80	1427.09
597.15	1423.90
597.50	1420.04
597.85	1417.03
598.19	1414.00
598.54	1410.77
598.89	1407.83
599.24	1405.11
599.59	1401.61
599.94	1398.20
600.29	1395.01
600.64	1391.08
600.99	1386.69
601.34	1382.71
601.69	1378.15
602.04	1374.72
602.39	1371.07
602.74	1367.68
603.08	1364.47
603.43	1361.41
603.78	1357.73
604.13	1353.79
604.48	1349.31
604.83	1345.05
605.18	1340.64
605.53	1336.06
605.87	1331.32
606.22	1327.25
606.57	1322.72
606.92	1318.38
607.27	1314.37
607.62	1310.11
607.96	1306.04
608.31	1302.46
608.66	1297.81
609.01	1293.23
609.36	1288.12
609.70	1282.56
610.05	1277.02
610.40	1272.00
610.75	1266.10
611.10	1260.57
611.44	1255.03
611.79	1250.09
612.14	1245.11
612.49	1239.56
612.83	1234.45
613.18	1228.90
613.53	1223.38
613.88	1217.92
614.22	1212.60
614.57	1207.05
614.92	1201.41
615.27	1196.10
615.61	1190.60
615.96	1185.35
616.31	1180.72
616.65	1176.36
617.00	1171.95
617.35	1167.17
617.70	1161.61
618.04	1156.54
618.39	1151.49
618.74	1146.87
619.08	1141.26
619.43	1136.18
619.78	1131.65
620.12	1126.66
620.47	1122.04
620.82	1116.79
621.16	1112.12
621.51	1107.19
621.85	1102.07
622.20	1096.80
622.55	1092.01
622.89	1087.11
623.24	1082.27
623.59	1077.11
623.93	1072.26
624.28	1067.24
624.62	1062.03
624.97	1057.50
625.32	1052.73
625.66	1048.44
626.01	1043.30
626.35	1038.62
626.70	1033.51
627.04	1028.32
627.39	1022.99
627.73	1017.79
628.08	1013.13
628.43	1007.93
628.77	1003.01
629.12	997.77
629.46	992.96
629.81	987.40
630.15	981.84
630.50	976.48
630.84	970.95
631.19	965.24
631.53	959.99
631.88	954.49
632.22	948.97
632.57	943.83
632.91	938.37
633.26	933.19
633.60	927.81
633.95	922.71
634.29	918.02
634.64	913.40
634.98	908.43
635.32	903.66
635.67	899.04
636.01	894.24
636.36	889.50
636.70	885.08
637.05	880.60
637.39	876.59
637.73	872.30
638.08	868.38
638.42	863.99
638.77	859.45
639.11	854.88
639.45	850.29
639.80	845.75
640.14	841.28
640.49	836.90
640.83	832.78
641.17	828.42
641.52	823.68
641.86	819.22
642.20	815.12
642.55	810.34
642.89	805.89
643.23	801.33
643.58	797.10
643.92	792.21
644.26	787.58
644.61	783.15
644.95	778.62
645.29	773.61
645.64	768.97
645.98	764.59
646.32	760.59
646.66	756.37
647.01	751.99
647.35	747.70
647.69	743.29
648.04	738.98
648.38	734.46
648.72	729.81
649.06	725.36
649.41	720.80
649.75	716.21
650.09	711.61
650.43	707.27
650.78	702.72
651.12	698.50
651.46	694.49
651.80	690.16
652.14	685.95
652.49	681.88
652.83	677.94
653.17	673.59
653.51	669.43
653.85	665.30
654.20	660.92
654.54	656.44
654.88	652.25
655.22	647.73
655.56	643.54
655.90	639.59
656.25	635.61
656.59	631.75
656.93	628.19
657.27	624.50
657.61	620.42
657.95	616.93
658.29	613.42
658.64	609.64
658.98	605.59
659.32	601.72
659.66	597.83
660.00	593.91
660.34	590.42
660.68	586.84
661.02	583.14
661.36	579.70
661.70	576.35
662.05	573.23
662.39	570.31
662.73	567.16
663.07	563.98
663.41	560.70
663.75	557.44
664.09	554.07
664.43	550.75
664.77	547.72
665.11	544.50
665.45	541.26
665.79	538.05
666.13	535.24
666.47	532.28
666.81	529.34
667.15	526.36
667.49	523.25
667.83	520.28
668.17	517.31
668.51	514.45
668.85	511.42
669.19	508.49
669.53	505.30
669.87	502.44
670.21	499.70
670.55	496.99
670.89	494.31
671.23	491.78
671.57	489.24
671.91	486.81
672.25	484.26
672.58	481.71
672.92	479.21
673.26	476.74
673.60	474.23
673.94	471.89
674.28	469.63
674.62	467.56
674.96	465.18
675.30	463.01
675.64	460.63
675.97	458.47
676.31	456.14
676.65	454.05
676.99	451.94
677.33	449.64
677.67	447.32
678.01	445.00
678.34	442.76
678.68	440.53
679.02	438.32
679.36	436.06
679.70	433.88
680.04	431.81
680.37	429.58
680.71	427.48
681.05	425.60
681.39	423.87
681.73	421.91
682.06	420.12
682.40	418.15
682.74	416.36
683.08	414.46
683.42	412.53
683.75	410.68
684.09	408.66
684.43	406.91
684.77	405.07
685.10	403.34
685.44	401.46
685.78	399.85
686.12	397.87
686.45	396.05
686.79	394.30
687.13	392.48
687.46	390.78
687.80	389.04
688.14	387.04
688.48	385.08
688.81	382.98
689.15	381.22
689.49	379.59
689.82	377.93
690.16	376.17
690.50	374.52
690.83	372.92
691.17	371.32
691.51	369.72
691.84	368.29
692.18	366.75
692.52	365.17
692.85	363.39
693.19	361.96
693.52	360.45
693.86	358.94
694.20	357.44
694.53	355.86
694.87	354.32
695.21	352.97
695.54	351.49
695.88	350.18
696.21	348.67
696.55	347.23
696.88	345.78
697.22	344.43
697.56	343.20
697.89	341.82
698.23	340.51
698.56	339.13
698.90	337.72
699.23	336.23
699.57	335.05
699.90	333.70
700.24	332.31
700.58	331.06
700.91	329.83
701.25	328.75
701.58	327.60
701.92	326.58
702.25	325.50
702.59	324.40
702.92	323.24
703.26	322.10
703.59	320.91
703.93	320.04
704.26	319.01
704.60	317.85
704.93	316.77
705.26	315.66
705.60	314.78
705.93	313.83
706.27	312.96
706.60	311.98
706.94	311.14
707.27	310.17
707.61	309.37
707.94	308.47
708.27	307.47
708.61	306.50
708.94	305.54
709.28	304.67
709.61	303.82
709.94	303.11
710.28	302.29
710.61	301.52
710.95	300.49
711.28	299.85
711.61	299.10
711.95	298.31
712.28	297.62
712.61	296.78
712.95	296.07
713.28	295.38
713.61	294.63
713.95	293.90
714.28	293.19
714.61	292.41
714.95	291.79
715.28	291.05
715.61	290.37
715.95	289.76
716.28	288.98
716.61	288.36
716.95	287.60
717.28	286.92
717.61	286.40
717.94	285.87
718.28	285.14
718.61	284.42
718.94	283.78
719.27	283.23
719.61	282.64
719.94	282.05
720.27	281.28
720.60	280.60
720.94	280.04
721.27	279.53
721.60	279.02
721.93	278.46
722.27	278.06
722.60	277.59
722.93	277.06
723.26	276.63
723.59	275.96
723.93	275.52
724.26	275.06
724.59	274.43
724.92	273.90
725.25	273.44
725.59	273.09
725.92	272.66
726.25	272.24
726.58	271.78
726.91	271.31
727.24	270.90
727.57	270.53
727.91	270.09
728.24	269.60
728.57	269.09
728.90	268.66
729.23	268.09
729.56	267.78
729.89	267.32
730.22	266.90
730.55	266.53
730.89	266.07
731.22	265.63
731.55	265.24
731.88	264.78
732.21	264.32
732.54	263.86
732.87	263.50
733.20	263.02
733.53	262.64
733.86	262.17
734.19	261.89
734.52	261.51
734.85	261.25
735.18	261.02
735.51	260.70
735.84	260.33
736.17	259.97
736.50	259.39
736.83	259.14
737.16	258.81
737.49	258.46
737.82	258.13
738.15	257.80
738.48	257.49
738.81	257.18
739.14	256.91
739.47	256.45
739.80	256.16
740.13	255.77
740.46	255.37
740.79	255.17
741.12	254.76
741.45	254.35
741.78	253.97
742.11	253.60
742.44	253.28
742.77	252.93
743.10	252.68
743.43	252.45
743.75	252.03
744.08	251.91
744.41	251.72
744.74	251.45
745.07	251.20
745.40	250.89
745.73	250.70
746.06	250.34
746.39	250.14
746.71	249.75
747.04	249.60
747.37	249.40
747.70	249.10
748.03	248.81
748.36	248.71
748.68	248.43
749.01	248.12
749.34	247.99
749.67	247.80
750.00	247.56
750.33	247.35
750.65	247.20
750.98	246.69
751.31	246.39
751.64	246.15
751.97	246.00
752.29	245.75
752.62	245.40
752.95	245.20
753.28	244.99
753.60	244.80
753.93	244.57
754.26	244.40
754.59	244.09
754.91	243.77
755.24	243.48
755.57	243.24
755.90	243.10
756.22	242.77
756.55	242.52
756.88	242.23
757.20	242.08
757.53	241.80
757.86	241.66
758.19	241.64
758.51	241.59
758.84	241.34
759.17	241.21
759.49	241.09
759.82	241.08
760.15	240.97
760.47	240.82
760.80	240.53
761.13	240.34
761.45	240.36
761.78	240.26
762.11	240.18
762.43	240.07
762.76	239.89
763.08	239.85
763.41	239.71
763.74	239.66
764.06	239.52
764.39	239.42
764.71	239.20
765.04	238.98
765.37	238.77
765.69	238.73
766.02	238.67
766.34	238.55
766.67	238.34
767.00	238.34
767.32	238.33
767.65	238.42
767.97	238.42
768.30	238.27
768.62	238.29
768.95	238.16
769.27	238.03
769.60	237.96
769.92	237.86
770.25	237.80
770.57	237.72
770.90	237.59
771.22	237.53
771.55	237.59
771.87	237.51
772.20	237.38
772.52	237.32
772.85	237.39
773.17	237.33
773.50	237.17
773.82	237.09
774.15	236.92
774.47	236.63
774.80	236.47
775.12	236.37
775.45	236.23
775.77	236.18
776.09	236.09
776.42	236.02
776.74	235.98
777.07	235.87
777.39	235.71
777.72	235.67
778.04	235.60
778.36	235.55
778.69	235.51
779.01	235.47
779.33	235.34
779.66	235.11
779.98	235.00
780.31	235.01
780.63	234.96
780.95	234.93
781.28	234.98
781.60	234.86
781.92	234.84
782.25	234.91
782.57	234.78
782.89	234.69
783.22	234.60
783.54	234.52
783.86	234.45
784.19	234.35
784.51	234.28
784.83	234.19
785.16	234.06
785.48	233.90
785.80	233.85
786.12	233.78
786.45	233.76
786.77	233.79
787.09	233.75
787.42	233.53
787.74	233.49
788.06	233.39
788.38	233.37
788.71	233.25
789.03	233.16
789.35	233.27
789.67	233.24
789.99	233.28
790.32	233.12
790.64	233.13
790.96	233.34
791.28	233.22
791.61	233.14
791.93	233.05
792.25	233.05
792.57	233.09
792.89	232.91
793.21	232.87
793.54	232.77
793.86	232.61
794.18	232.61
794.50	232.46
794.82	232.44
795.14	232.44
795.47	232.41
795.79	232.35
796.11	232.14
796.43	232.17
796.75	232.06
797.07	232.11
797.39	231.94
797.71	231.76
798.04	231.78
798.36	231.71
798.68	231.72
799.00	231.63
799.32	231.61
799.64	231.72
799.96	231.60
800.28	231.58
800.60	231.64
800.92	231.56
801.24	231.58
801.56	231.61
801.89	231.61
802.21	231.60
802.53	231.44
802.85	231.52
803.17	231.56
803.49	231.50
803.81	231.42
804.13	231.56
804.45	231.48
804.77	231.43
805.09	231.52
805.41	231.42
805.73	231.48
806.05	231.35
806.37	231.31
806.69	231.32
807.01	231.29
807.33	231.22
807.65	231.18
807.97	231.27
808.28	231.14
808.60	231.07
808.92	230.97
809.24	231.17
809.56	231.18
809.88	231.09
810.20	231.06
810.52	231.19
810.84	231.15
811.16	231.10
811.48	231.11
811.80	231.19
812.12	231.25
812.43	231.29
812.75	231.22
813.07	231.23
813.39	231.25
813.71	231.16
814.03	231.14
814.35	231.18
814.67	231.13
814.98	231.15
815.30	231.17
815.62	231.13
815.94	230.95
816.26	230.93
816.58	230.91
816.89	230.85
817.21	230.71
817.53	230.66
817.85	230.70
818.17	230.68
818.48	230.50
818.80	230.52
819.12	230.51
819.44	230.57
819.76	230.58
820.07	230.50
820.39	230.52
820.71	230.53
821.03	230.56
821.34	230.44
821.66	230.52
821.98	230.47
822.30	230.47
822.61	230.61
822.93	230.47
823.25	230.34
823.57	230.36
823.88	230.35
824.20	230.30
824.52	230.27
824.83	230.18
825.15	230.12
825.47	230.06
825.79	229.93
826.10	229.80
826.42	229.67
826.74	229.72
827.05	229.70
827.37	229.61
827.69	229.53
828.00	229.53
828.32	229.51
828.64	229.39
828.95	229.45
829.27	229.30
829.58	229.22
829.90	229.28
830.22	229.28
830.53	229.15
830.85	229.05
831.17	229.00
831.48	229.04
831.80	229.20
832.11	229.24
832.43	229.21
832.75	229.22
833.06	229.26
833.38	229.09
833.69	229.11
834.01	229.07
834.32	228.99
834.64	229.00
834.96	228.97
835.27	229.11
835.59	229.13
835.90	229.07
836.22	229.11
836.53	229.02
836.85	228.95
837.16	229.23
837.48	229.14
837.79	229.19
838.11	229.23
838.42	229.05
838.74	228.99
839.05	229.05
839.37	229.00
839.68	228.94
840.00	229.00
840.31	229.00
840.63	229.05
840.94	229.00
841.26	228.98
841.57	229.00
841.88	228.95
842.20	228.70
842.51	228.69
842.83	228.69
843.14	228.92
843.46	229.00
843.77	228.85
844.08	229.07
844.40	229.08
844.71	229.02
845.03	229.04
845.34	229.07
845.65	229.04
845.97	229.08
846.28	229.08
846.60	229.13
846.91	229.10
847.22	229.13
847.54	229.29
847.85	229.28
848.16	229.26
848.48	229.18
848.79	229.49
849.10	229.64
849.42	229.63
849.73	229.45
850.04	229.49
850.36	229.43
850.67	229.45
850.98	229.46
851.30	229.49
851.61	229.55
851.92	229.57
852.23	229.58
852.55	229.67
852.86	229.66
853.17	229.69
853.49	229.74
853.80	229.72
854.11	229.70
854.42	229.73
854.74	229.63
855.05	229.66
855.36	229.47
855.67	229.40
855.99	229.43
856.30	229.63
856.61	229.59
856.92	229.64
857.23	229.62
857.55	229.59
857.86	229.59
858.17	229.44
858.48	229.36
858.79	229.31
859.11	229.20
859.42	229.20
859.73	229.12
860.04	229.10
860.35	229.03
860.66	228.90
860.98	228.88
861.29	228.93
861.60	228.98
861.91	229.08
862.22	228.99
862.53	228.99
862.84	228.83
863.16	228.84
863.47	228.78
863.78	228.70
864.09	228.66
864.40	228.67
864.71	228.86
865.02	228.85
865.33	228.77
865.64	228.75
865.95	228.72
866.27	228.89
866.58	228.86
866.89	228.83
867.20	228.87
867.51	228.76
867.82	228.80
868.13	228.73
868.44	228.71
868.75	228.80
869.06	228.81
869.37	228.69
869.68	228.61
869.99	228.54
870.30	228.52
870.61	228.50
870.92	228.45
871.23	228.27
871.54	228.23
871.85	228.33
872.16	228.31
872.47	228.30
872.78	228.10
873.09	228.08
873.40	228.09
873.71	228.17
874.02	228.16
874.33	228.04
874.64	228.14
874.95	228.14
875.26	228.00
875.56	228.05
875.87	228.12
876.18	227.99
876.49	228.29
876.80	228.24
877.11	228.19
877.42	228.20
877.73	228.27
878.04	228.32
878.35	228.30
878.66	228.37
878.96	228.40
879.27	228.40
879.58	228.52
879.89	228.59
880.20	228.58
880.51	228.68
880.82	228.65
881.12	228.55
881.43	228.59
881.74	228.72
882.05	228.59
882.36	228.62
882.67	228.83
882.97	228.64
883.28	228.73
883.59	228.82
883.90	228.83
884.21	228.82
884.51	228.79
884.82	228.94
885.13	228.91
885.44	228.95
885.74	228.99
886.05	228.94
886.36	228.98
886.67	228.95
886.98	229.10
887.28	229.15
887.59	229.27
887.90	229.26
888.20	229.25
888.51	229.33
888.82	229.27
889.13	229.25
889.43	229.42
889.74	229.41
890.05	229.38
890.35	229.40
890.66	229.39
890.97	229.43
891.28	229.34
891.58	229.41
891.89	229.33
892.20	229.31
892.50	229.28
892.81	229.24
893.12	229.23
893.42	229.10
893.73	229.18
894.04	229.11
894.34	229.11
894.65	229.11
894.95	229.15
895.26	229.17
895.57	229.15
895.87	228.93
896.18	228.92
896.48	228.88
896.79	228.89
897.10	229.03
897.40	228.96
897.71	228.94
898.01	228.90
898.32	228.95
898.63	228.98
898.93	228.91
899.24	228.94
899.54	228.96
899.85	228.96
900.15	228.87
900.46	228.87
900.76	228.85
901.07	228.82
901.38	228.78
901.68	228.84
901.99	228.81
902.29	228.77
902.60	228.73
902.90	228.73
903.21	228.75
903.51	228.64
903.82	228.78
904.12	228.79
904.43	228.72
904.73	228.75
905.03	228.63
905.34	228.85
905.64	228.69
905.95	228.66
906.25	228.54
906.56	228.52
906.86	228.51
907.17	228.44
907.47	228.34
907.77	228.22
908.08	228.12
908.38	228.10
908.69	228.20
908.99	228.18
909.30	228.11
909.60	228.08
909.90	227.98
910.21	227.83
910.51	227.68
910.81	227.68
911.12	227.66
911.42	227.64
911.73	227.42
912.03	227.50
912.33	227.45
912.64	227.53
912.94	227.56
913.24	227.48
913.55	227.51
913.85	227.48
914.15	227.65
914.46	227.68
914.76	227.70
915.06	227.67
915.37	227.70
915.67	227.80
915.97	227.79
916.27	227.80
916.58	227.83
916.88	227.88
917.18	227.98
917.49	228.11
917.79	228.24
918.09	228.30
918.39	228.39
918.70	228.40
919.00	228.41
919.30	228.58
919.60	228.57
919.91	228.50
920.21	228.68
920.51	228.61
920.81	228.60
921.12	228.61
921.42	228.59
921.72	228.62
922.02	228.60
922.32	228.67
922.63	228.68
922.93	228.82
923.23	228.92
923.53	228.88
923.83	228.72
924.13	228.80
924.44	228.80
924.74	228.86
925.04	228.87
925.34	228.80
925.64	228.69
925.94	228.66
926.24	228.83
926.55	228.80
926.85	228.80
927.15	228.80
927.45	228.89
927.75	228.86
928.05	228.80
928.35	228.90
928.65	228.84
928.95	228.92
929.26	228.74
929.56	228.75
929.86	228.75
930.16	228.77
930.46	228.68
930.76	228.70
931.06	228.56
931.36	228.51
931.66	228.54
931.96	228.48
932.26	228.61
932.56	228.51
932.86	228.40
933.16	228.41
933.46	228.37
933.76	228.23
934.06	228.20
934.36	228.34
934.66	228.23
934.96	228.18
935.26	228.22
935.56	228.32
935.86	228.25
936.16	228.25
936.46	228.14
936.76	228.11
937.06	228.07
937.36	228.05
937.66	228.12
937.96	228.10
938.26	228.12
938.56	228.09
938.86	228.09
939.16	228.20
939.46	228.19
939.76	228.18
940.06	228.15
940.35	228.13
940.65	227.98
940.95	228.04
941.25	227.99
941.55	227.87
941.85	227.76
942.15	227.72
942.45	227.78
942.75	227.87
943.04	227.89
943.34	227.99
943.64	228.06
943.94	228.00
944.24	228.10
944.54	228.06
944.84	227.99
945.13	228.00
945.43	227.89
945.73	227.89
946.03	227.93
946.33	227.94
946.62	227.95
946.92	228.01
947.22	228.00
947.52	228.05
947.82	228.11
948.11	228.14
948.41	228.14
948.71	228.06
949.01	228.10
949.31	227.97
949.60	227.79
949.90	227.77
950.20	227.80
950.50	227.72
950.79	227.67
951.09	227.80
951.39	227.71
951.69	227.67
951.98	227.77
952.28	227.72
952.58	227.73
952.87	227.83
953.17	227.76
953.47	227.66
953.76	227.76
954.06	227.70
954.36	227.61
954.66	227.60
954.95	227.78
955.25	227.72
955.55	227.84
955.84	227.91
956.14	227.93
956.44	227.87
956.73	227.87
957.03	227.88
957.32	227.80
957.62	227.85
957.92	228.01
958.21	227.97
958.51	228.26
958.81	228.35
959.10	228.35
959.40	228.49
959.69	228.57
959.99	228.46
960.29	228.53
960.58	228.60
960.88	228.69
961.17	228.62
961.47	228.71
961.76	228.68
962.06	228.76
962.36	228.82
962.65	228.88
962.95	228.88
963.24	229.02
963.54	229.00
963.83	229.01
964.13	228.90
964.42	228.90
964.72	228.65
965.01	228.54
965.31	228.51
965.60	228.39
965.90	228.60
966.19	228.61
966.49	228.62
966.78	228.70
967.08	228.81
967.37	228.86
967.67	228.84
967.96	228.94
968.26	228.89
968.55	228.87
968.85	228.83
969.14	228.82
969.43	228.78
969.73	228.80
970.02	228.85
970.32	228.76
970.61	228.74
970.91	228.84
971.20	228.91
971.49	228.93
971.79	229.04
972.08	228.85
972.38	228.89
972.67	228.86
972.96	228.70
973.26	228.60
973.55	228.53
973.85	228.48
974.14	228.39
974.43	228.34
974.73	228.23
975.02	228.21
975.31	228.24
975.61	228.25
975.90	228.20
976.19	228.14
976.49	228.21
976.78	228.15
977.07	228.05
977.37	228.07
977.66	228.06
977.95	227.98
978.24	227.84
978.54	227.90
978.83	227.83
979.12	227.98
979.42	227.97
979.71	227.92
980.00	227.91
980.29	228.00
980.59	228.01
980.88	228.12
981.17	228.10
981.46	228.03
981.76	228.00
982.05	228.08
982.34	228.05
982.63	228.15
982.93	228.21
983.22	228.23
983.51	228.18
983.80	228.26
984.09	228.33
984.39	228.35
984.68	228.26
984.97	228.25
985.26	228.26
985.55	228.28
985.85	228.18
986.14	228.27
986.43	228.23
986.72	228.23
987.01	228.32
987.30	228.40
987.59	228.42
987.89	228.33
988.18	228.25
988.47	228.29
988.76	228.13
989.05	228.00
989.34	228.00
989.63	228.00
989.92	227.91
990.22	227.89
990.51	227.90
990.80	227.81
991.09	227.89
991.38	227.83
991.67	227.91
991.96	227.99
992.25	227.93
992.54	227.90
992.83	227.85
993.12	227.57
993.41	227.59
993.70	227.68
993.99	227.76
994.28	227.73
994.58	227.72
994.87	227.76
995.16	227.84
995.45	227.89
995.74	227.86
996.03	227.91
996.32	227.92
996.61	228.03
996.90	228.09
997.19	228.08
997.48	228.10
997.77	227.97
998.06	227.93
998.34	227.86
998.63	227.90
998.92	227.90
999.21	228.11
999.50	228.08
999.79	228.02
1000.08	228.02
1000.37	228.06
1000.66	227.92
1000.95	228.04
1001.24	228.04
1001.53	228.01
1001.82	228.08
1002.11	228.10
1002.40	228.08
1002.68	228.10
1002.97	228.20
1003.26	228.15
1003.55	228.18
1003.84	228.20
1004.13	228.23
1004.42	228.28
1004.71	228.27
1004.99	228.23
1005.28	228.26
1005.57	228.23
1005.86	228.23
1006.15	228.31
1006.44	228.32
1006.72	228.43
1007.01	228.28
1007.30	228.26
1007.59	228.33
1007.88	228.29
1008.17	228.20
1008.45	228.18
1008.74	228.11
1009.03	228.01
1009.32	228.14
1009.60	228.05
1009.89	227.99
1010.18	227.98
1010.47	227.96
1010.76	227.97
1011.04	227.98
1011.33	227.99
1011.62	228.02
1011.91	228.02
1012.19	227.97
1012.48	227.96
1012.77	228.04
1013.05	228.18
1013.34	228.26
1013.63	228.19
1013.92	228.19
1014.20	228.27
1014.49	228.31
1014.78	228.40
1015.06	228.46
1015.35	228.38
1015.64	228.47
1015.92	228.60
1016.21	228.60
1016.50	228.57
1016.78	228.54
1017.07	228.62
1017.36	228.51
1017.64	228.51
1017.93	228.48
1018.22	228.40
1018.50	228.36
1018.79	228.35
1019.08	228.31
1019.36	228.34
1019.65	228.28
1019.93	228.30
1020.22	228.26
1020.51	228.17
1020.79	228.03
1021.08	226.60
1021.36	226.80
1021.65	229.30
1021.94	228.70
1022.22	229.10
1022.51	226.90
1022.79	228.40
1023.08	228.40
1023.36	227.30
1023.65	226.80
>>>>>End Processed Spectral Data<<<<<
