SpectraSuite Data File
++++++++++++++++++++++++++++++++++++
Date: Fri Feb 01 14:34:52 EST 2013
User: group
Dark Spectrum Present: No
Reference Spectrum Present: No
Number of Sampled Component Spectra: 1
Spectrometers: USB2E7196
Integration Time (usec): 70000 (USB2E7196)
Spectra Averaged: 10 (USB2E7196)
Boxcar Smoothing: 10 (USB2E7196)
Correct for Electrical Dark: No (USB2E7196)
Strobe/Lamp Enabled: No (USB2E7196)
Correct for Detector Non-linearity: No (USB2E7196)
Correct for Stray Light: No (USB2E7196)
Number of Pixels in Processed Spectrum: 2048
>>>>>Begin Processed Spectral Data<<<<<
339.09	0.00
339.48	215.60
339.86	216.90
340.24	218.30
340.63	220.30
341.01	225.10
341.39	222.20
341.78	222.70
342.16	225.70
342.54	225.60
342.93	214.03
343.31	224.82
343.69	225.39
344.07	225.89
344.46	226.40
344.84	226.77
345.22	226.93
345.60	227.22
345.99	227.51
346.37	227.60
346.75	227.63
347.13	227.54
347.52	227.69
347.90	227.87
348.28	227.88
348.66	227.84
349.05	227.86
349.43	227.91
349.81	227.86
350.19	227.78
350.57	227.83
350.96	227.92
351.34	228.01
351.72	228.05
352.10	228.12
352.48	228.12
352.87	228.11
353.25	228.20
353.63	228.29
354.01	228.25
354.39	228.38
354.77	228.59
355.15	228.79
355.54	228.85
355.92	228.93
356.30	228.98
356.68	229.17
357.06	229.33
357.44	229.43
357.82	229.64
358.20	229.88
358.58	230.02
358.97	230.08
359.35	230.27
359.73	230.47
360.11	230.51
360.49	230.57
360.87	230.68
361.25	230.69
361.63	230.80
362.01	230.98
362.39	231.09
362.77	231.16
363.15	231.21
363.53	231.20
363.91	231.29
364.29	231.40
364.67	231.30
365.05	231.32
365.43	231.27
365.81	231.31
366.19	231.33
366.57	231.41
366.95	231.44
367.33	231.33
367.71	231.25
368.09	231.21
368.47	231.17
368.85	231.09
369.23	231.17
369.61	230.96
369.99	230.99
370.37	230.85
370.75	230.71
371.13	230.58
371.51	230.58
371.89	230.49
372.27	230.41
372.65	230.36
373.03	230.30
373.41	230.30
373.78	230.22
374.16	230.08
374.54	229.94
374.92	229.90
375.30	229.80
375.68	229.69
376.06	229.70
376.44	229.65
376.82	229.65
377.19	229.50
377.57	229.53
377.95	229.36
378.33	229.24
378.71	229.22
379.09	229.22
379.47	229.04
379.84	228.95
380.22	228.79
380.60	228.60
380.98	228.50
381.36	228.40
381.73	228.16
382.11	228.06
382.49	227.91
382.87	227.76
383.25	227.67
383.62	227.74
384.00	227.65
384.38	227.59
384.76	227.52
385.13	227.62
385.51	227.56
385.89	227.41
386.27	227.41
386.64	227.36
387.02	227.23
387.40	227.29
387.78	227.24
388.15	227.27
388.53	227.28
388.91	227.20
389.29	227.14
389.66	227.10
390.04	227.09
390.42	227.16
390.79	227.21
391.17	227.23
391.55	227.13
391.92	227.12
392.30	227.14
392.68	227.25
393.05	227.09
393.43	227.08
393.81	227.16
394.18	227.24
394.56	227.22
394.94	227.33
395.31	227.38
395.69	227.40
396.06	227.45
396.44	227.48
396.82	227.51
397.19	227.65
397.57	227.89
397.95	228.03
398.32	228.10
398.70	228.26
399.07	228.40
399.45	228.52
399.82	228.71
400.20	228.86
400.58	228.97
400.95	229.06
401.33	229.31
401.70	229.66
402.08	229.84
402.45	230.07
402.83	230.34
403.20	230.45
403.58	230.66
403.95	230.99
404.33	231.38
404.71	231.76
405.08	232.15
405.46	232.40
405.83	232.77
406.21	233.06
406.58	233.42
406.96	233.84
407.33	234.27
407.70	234.71
408.08	235.42
408.45	235.99
408.83	236.63
409.20	237.21
409.58	237.72
409.95	238.26
410.33	239.00
410.70	239.66
411.08	240.57
411.45	241.45
411.82	242.27
412.20	243.14
412.57	244.20
412.95	245.11
413.32	246.26
413.69	247.44
414.07	248.68
414.44	249.92
414.82	251.30
415.19	252.79
415.56	254.37
415.94	255.84
416.31	257.63
416.68	259.44
417.06	261.40
417.43	263.33
417.81	265.55
418.18	267.82
418.55	270.20
418.93	272.72
419.30	275.44
419.67	278.19
420.04	281.10
420.42	284.19
420.79	287.67
421.16	291.14
421.54	294.70
421.91	298.40
422.28	302.36
422.66	306.43
423.03	310.60
423.40	314.76
423.77	319.24
424.15	323.73
424.52	328.52
424.89	333.66
425.26	338.69
425.64	343.43
426.01	348.75
426.38	354.20
426.75	359.77
427.13	365.45
427.50	371.60
427.87	377.78
428.24	383.87
428.61	389.84
428.99	396.40
429.36	403.62
429.73	410.62
430.10	417.37
430.47	424.38
430.85	431.58
431.22	439.30
431.59	447.50
431.96	455.39
432.33	463.83
432.70	472.16
433.08	481.92
433.45	491.22
433.82	500.51
434.19	510.66
434.56	520.59
434.93	529.90
435.30	539.14
435.68	549.76
436.05	560.26
436.42	570.44
436.79	579.83
437.16	589.73
437.53	600.31
437.90	611.02
438.27	621.58
438.64	632.28
439.01	642.01
439.38	651.01
439.75	659.65
440.13	669.70
440.50	679.19
440.87	686.84
441.24	694.83
441.61	703.65
441.98	710.32
442.35	718.10
442.72	726.40
443.09	734.36
443.46	739.30
443.83	742.93
444.20	746.46
444.57	751.16
444.94	753.79
445.31	756.65
445.68	759.31
446.05	761.09
446.42	761.45
446.79	761.78
447.16	761.42
447.53	761.92
447.90	759.23
448.27	756.62
448.64	752.28
449.01	749.82
449.37	743.96
449.74	738.46
450.11	731.42
450.48	723.46
450.85	715.35
451.22	708.90
451.59	702.63
451.96	696.46
452.33	687.77
452.70	680.17
453.07	670.60
453.43	661.08
453.80	651.77
454.17	642.62
454.54	634.01
454.91	624.91
455.28	615.81
455.65	607.30
456.02	598.72
456.38	591.76
456.75	582.36
457.12	574.60
457.49	566.99
457.86	559.60
458.23	553.57
458.59	546.75
458.96	539.34
459.33	532.96
459.70	526.53
460.07	521.54
460.43	515.55
460.80	510.01
461.17	505.16
461.54	499.95
461.91	494.82
462.27	489.81
462.64	485.43
463.01	480.39
463.38	475.87
463.74	471.08
464.11	466.87
464.48	463.34
464.85	459.49
465.21	456.43
465.58	453.18
465.95	448.91
466.32	445.55
466.68	442.30
467.05	438.87
467.42	435.69
467.78	432.00
468.15	428.80
468.52	426.28
468.88	423.03
469.25	420.20
469.62	418.05
469.98	415.40
470.35	413.13
470.72	411.07
471.08	408.66
471.45	406.76
471.82	404.70
472.18	402.36
472.55	400.69
472.92	398.78
473.28	397.10
473.65	395.54
474.02	393.81
474.38	392.32
474.75	390.97
475.11	389.55
475.48	388.57
475.85	387.60
476.21	386.72
476.58	385.79
476.94	385.11
477.31	384.30
477.67	383.60
478.04	382.82
478.41	382.44
478.77	382.00
479.14	381.32
479.50	381.04
479.87	381.06
480.23	380.80
480.60	380.40
480.96	380.24
481.33	380.39
481.69	380.60
482.06	380.75
482.42	380.82
482.79	380.92
483.15	381.25
483.52	381.75
483.88	382.26
484.25	382.75
484.61	383.38
484.98	384.08
485.34	384.98
485.71	386.00
486.07	386.81
486.44	387.70
486.80	388.92
487.17	390.02
487.53	391.30
487.90	392.72
488.26	394.40
488.62	396.02
488.99	397.58
489.35	399.18
489.72	401.10
490.08	403.18
490.44	405.37
490.81	407.32
491.17	409.29
491.54	411.30
491.90	413.70
492.26	415.93
492.63	418.39
492.99	420.85
493.36	423.50
493.72	426.12
494.08	428.94
494.45	431.87
494.81	434.78
495.17	437.67
495.54	440.93
495.90	443.96
496.26	447.08
496.63	450.19
496.99	453.66
497.35	456.95
497.72	460.50
498.08	463.81
498.44	467.44
498.80	471.37
499.17	475.16
499.53	478.62
499.89	482.48
500.26	486.33
500.62	490.11
500.98	494.00
501.34	498.00
501.71	502.08
502.07	505.79
502.43	509.68
502.79	513.62
503.16	517.34
503.52	521.20
503.88	525.11
504.24	529.20
504.60	532.91
504.97	536.83
505.33	540.69
505.69	544.83
506.05	548.87
506.41	552.38
506.78	556.05
507.14	559.83
507.50	563.56
507.86	567.32
508.22	571.28
508.59	574.59
508.95	577.88
509.31	581.31
509.67	584.91
510.03	588.29
510.39	591.65
510.75	595.10
511.12	598.50
511.48	601.81
511.84	605.04
512.20	608.25
512.56	611.33
512.92	614.37
513.28	617.01
513.64	619.65
514.00	622.40
514.37	625.30
514.73	627.89
515.09	630.51
515.45	632.92
515.81	635.08
516.17	637.61
516.53	640.22
516.89	642.44
517.25	644.54
517.61	646.65
517.97	648.77
518.33	650.50
518.69	652.51
519.05	654.39
519.41	656.29
519.77	658.29
520.13	660.22
520.49	661.75
520.85	663.47
521.21	665.26
521.57	667.25
521.93	668.57
522.29	670.66
522.65	672.26
523.01	673.65
523.37	675.26
523.73	676.60
524.09	677.87
524.45	679.29
524.81	681.01
525.17	682.90
525.53	684.69
525.89	686.54
526.25	687.91
526.61	689.30
526.97	690.72
527.33	692.10
527.68	693.83
528.04	695.62
528.40	697.28
528.76	698.93
529.12	700.61
529.48	702.73
529.84	704.27
530.20	706.11
530.56	708.20
530.91	710.29
531.27	712.50
531.63	714.43
531.99	716.59
532.35	718.39
532.71	720.15
533.07	722.07
533.42	724.15
533.78	726.31
534.14	728.64
534.50	730.83
534.86	733.09
535.21	734.81
535.57	737.08
535.93	739.37
536.29	741.79
536.65	743.93
537.00	746.01
537.36	748.20
537.72	750.49
538.08	752.88
538.44	755.10
538.79	757.35
539.15	759.63
539.51	762.08
539.87	764.79
540.22	767.24
540.58	770.14
540.94	772.54
541.29	775.12
541.65	777.71
542.01	780.65
542.37	783.30
542.72	786.24
543.08	788.57
543.44	791.49
543.79	794.10
544.15	797.10
544.51	800.47
544.87	803.30
545.22	806.32
545.58	809.05
545.94	811.94
546.29	814.88
546.65	817.95
547.01	820.68
547.36	823.12
547.72	826.20
548.07	828.70
548.43	831.46
548.79	834.39
549.14	837.29
549.50	839.69
549.86	842.31
550.21	845.02
550.57	848.12
550.92	850.95
551.28	853.56
551.64	856.24
551.99	858.66
552.35	861.70
552.70	864.31
553.06	867.17
553.41	869.92
553.77	872.85
554.13	875.65
554.48	878.61
554.84	881.77
555.19	884.36
555.55	887.27
555.90	890.00
556.26	892.92
556.61	895.37
556.97	898.30
557.32	901.14
557.68	903.99
558.03	906.37
558.39	908.76
558.74	911.96
559.10	914.41
559.45	917.02
559.81	919.60
560.16	922.25
560.52	924.70
560.87	927.28
561.23	929.40
561.58	932.29
561.94	934.60
562.29	936.80
562.64	939.13
563.00	941.27
563.35	944.13
563.71	946.58
564.06	949.16
564.42	951.55
564.77	954.19
565.12	956.43
565.48	959.10
565.83	961.59
566.19	963.57
566.54	965.86
566.89	967.88
567.25	970.16
567.60	972.56
567.96	974.92
568.31	976.99
568.66	978.95
569.02	980.37
569.37	982.16
569.72	984.12
570.08	985.73
570.43	987.39
570.78	988.57
571.14	989.76
571.49	991.27
571.84	992.74
572.20	993.63
572.55	994.97
572.90	995.94
573.26	997.12
573.61	998.14
573.96	999.02
574.31	999.74
574.67	1000.07
575.02	1000.08
575.37	1000.23
575.72	1000.37
576.08	1000.98
576.43	1001.20
576.78	1001.48
577.13	1001.62
577.49	1002.14
577.84	1002.20
578.19	1002.65
578.54	1002.70
578.90	1002.51
579.25	1002.05
579.60	1001.89
579.95	1001.22
580.30	1000.67
580.66	999.86
581.01	999.19
581.36	998.43
581.71	997.91
582.06	997.37
582.42	996.72
582.77	996.06
583.12	995.35
583.47	994.67
583.82	993.89
584.17	992.96
584.53	992.24
584.88	991.23
585.23	990.32
585.58	988.96
585.93	987.74
586.28	986.91
586.63	985.95
586.98	984.84
587.34	983.79
587.69	982.64
588.04	981.68
588.39	980.54
588.74	979.04
589.09	977.58
589.44	976.16
589.79	974.83
590.14	973.48
590.49	972.01
590.84	970.23
591.19	968.80
591.54	966.68
591.89	964.30
592.25	962.61
592.60	960.44
592.95	958.26
593.30	956.46
593.65	953.99
594.00	951.60
594.35	950.22
594.70	947.74
595.05	945.73
595.40	943.29
595.75	940.99
596.10	939.12
596.45	937.41
596.80	935.41
597.15	933.30
597.50	930.91
597.85	929.09
598.19	927.25
598.54	925.15
598.89	923.59
599.24	922.15
599.59	919.90
599.94	917.99
600.29	915.94
600.64	913.43
600.99	911.22
601.34	909.33
601.69	906.32
602.04	904.32
602.39	902.14
602.74	899.98
603.08	897.85
603.43	895.87
603.78	893.39
604.13	890.94
604.48	888.66
604.83	886.53
605.18	884.03
605.53	881.22
605.87	878.44
606.22	875.92
606.57	873.10
606.92	870.31
607.27	867.86
607.62	865.67
607.96	863.41
608.31	861.08
608.66	858.22
609.01	855.41
609.36	852.47
609.70	849.35
610.05	846.27
610.40	843.07
610.75	839.86
611.10	836.77
611.44	833.45
611.79	830.26
612.14	827.09
612.49	823.39
612.83	820.23
613.18	817.15
613.53	813.72
613.88	810.31
614.22	807.08
614.57	803.65
614.92	800.20
615.27	796.87
615.61	793.18
615.96	790.18
616.31	787.40
616.65	784.66
617.00	781.84
617.35	779.28
617.70	776.33
618.04	773.04
618.39	769.98
618.74	767.01
619.08	763.91
619.43	760.67
619.78	757.85
620.12	754.66
620.47	751.48
620.82	748.40
621.16	745.58
621.51	742.73
621.85	739.55
622.20	736.23
622.55	733.26
622.89	730.56
623.24	727.42
623.59	724.40
623.93	721.48
624.28	718.34
624.62	714.98
624.97	712.12
625.32	709.42
625.66	706.58
626.01	703.86
626.35	700.85
626.70	697.95
627.04	695.10
627.39	692.14
627.73	689.56
628.08	686.92
628.43	683.83
628.77	680.89
629.12	677.99
629.46	675.20
629.81	672.15
630.15	669.05
630.50	666.07
630.84	662.76
631.19	659.53
631.53	656.35
631.88	653.37
632.22	650.11
632.57	647.10
632.91	643.86
633.26	640.77
633.60	637.78
633.95	634.78
634.29	632.11
634.64	629.55
634.98	626.50
635.32	623.65
635.67	621.18
636.01	618.53
636.36	616.07
636.70	613.55
637.05	611.01
637.39	608.55
637.73	606.08
638.08	603.95
638.42	601.65
638.77	599.42
639.11	596.82
639.45	594.37
639.80	591.78
640.14	589.30
640.49	586.76
640.83	584.24
641.17	581.96
641.52	579.37
641.86	577.00
642.20	574.72
642.55	572.26
642.89	569.57
643.23	567.04
643.58	564.69
643.92	561.93
644.26	559.47
644.61	557.23
644.95	554.69
645.29	551.92
645.64	549.23
645.98	546.62
646.32	544.20
646.66	541.79
647.01	539.26
647.35	536.91
647.69	534.59
648.04	532.44
648.38	529.77
648.72	527.21
649.06	524.45
649.41	521.60
649.75	518.82
650.09	516.26
650.43	513.72
650.78	511.00
651.12	508.58
651.46	506.01
651.80	503.50
652.14	501.25
652.49	498.91
652.83	496.70
653.17	494.40
653.51	492.05
653.85	489.55
654.20	487.28
654.54	484.87
654.88	482.46
655.22	479.74
655.56	477.48
655.90	475.13
656.25	472.82
656.59	470.84
656.93	468.89
657.27	466.85
657.61	464.60
657.95	462.59
658.29	460.60
658.64	458.50
658.98	456.24
659.32	453.85
659.66	451.64
660.00	449.34
660.34	447.27
660.68	445.38
661.02	443.31
661.36	441.42
661.70	439.41
662.05	437.46
662.39	435.78
662.73	433.95
663.07	432.09
663.41	430.46
663.75	428.60
664.09	426.68
664.43	424.78
664.77	423.03
665.11	421.18
665.45	419.45
665.79	417.73
666.13	415.86
666.47	414.29
666.81	412.52
667.15	410.90
667.49	409.25
667.83	407.41
668.17	405.75
668.51	403.97
668.85	402.20
669.19	400.50
669.53	398.72
669.87	397.08
670.21	395.61
670.55	394.01
670.89	392.53
671.23	391.10
671.57	389.60
671.91	388.11
672.25	386.60
672.58	385.15
672.92	383.91
673.26	382.71
673.60	381.27
673.94	380.04
674.28	378.72
674.62	377.47
674.96	376.21
675.30	375.10
675.64	373.85
675.97	372.80
676.31	371.60
676.65	370.37
676.99	369.16
677.33	367.75
677.67	366.38
678.01	365.12
678.34	363.92
678.68	362.79
679.02	361.54
679.36	360.38
679.70	359.08
680.04	357.62
680.37	356.27
680.71	355.08
681.05	353.94
681.39	352.82
681.73	351.48
682.06	350.39
682.40	349.25
682.74	348.09
683.08	346.93
683.42	345.72
683.75	344.77
684.09	343.69
684.43	342.77
684.77	341.80
685.10	340.70
685.44	339.48
685.78	338.38
686.12	337.25
686.45	336.07
686.79	335.07
687.13	334.13
687.46	333.03
687.80	331.98
688.14	330.75
688.48	329.60
688.81	328.58
689.15	327.49
689.49	326.44
689.82	325.49
690.16	324.33
690.50	323.43
690.83	322.35
691.17	321.37
691.51	320.20
691.84	319.19
692.18	318.18
692.52	317.18
692.85	316.19
693.19	315.30
693.52	314.44
693.86	313.39
694.20	312.48
694.53	311.72
694.87	310.76
695.21	309.92
695.54	309.00
695.88	308.20
696.21	307.24
696.55	306.36
696.88	305.47
697.22	304.72
697.56	303.92
697.89	303.05
698.23	302.22
698.56	301.54
698.90	300.78
699.23	300.00
699.57	299.33
699.90	298.60
700.24	297.73
700.58	296.99
700.91	296.30
701.25	295.58
701.58	294.99
701.92	294.39
702.25	293.68
702.59	293.18
702.92	292.40
703.26	291.76
703.59	291.10
703.93	290.52
704.26	289.81
704.60	289.16
704.93	288.60
705.26	287.82
705.60	287.23
705.93	286.59
706.27	285.95
706.60	285.38
706.94	284.78
707.27	284.22
707.61	283.57
707.94	283.02
708.27	282.45
708.61	281.76
708.94	281.18
709.28	280.69
709.61	280.03
709.94	279.57
710.28	279.01
710.61	278.53
710.95	277.69
711.28	277.26
711.61	276.67
711.95	276.15
712.28	275.79
712.61	275.00
712.95	274.59
713.28	274.13
713.61	273.55
713.95	273.02
714.28	272.62
714.61	272.14
714.95	271.70
715.28	271.09
715.61	270.49
715.95	269.98
716.28	269.41
716.61	268.94
716.95	268.47
717.28	268.12
717.61	267.69
717.94	267.37
718.28	266.86
718.61	266.41
718.94	266.04
719.27	265.59
719.61	265.38
719.94	264.91
720.27	264.46
720.60	264.12
720.94	263.80
721.27	263.44
721.60	263.17
721.93	262.70
722.27	262.58
722.60	262.25
722.93	261.82
723.26	261.49
723.59	261.25
723.93	260.90
724.26	260.61
724.59	260.26
724.92	260.01
725.25	259.77
725.59	259.54
725.92	259.15
726.25	258.85
726.58	258.54
726.91	258.29
727.24	258.15
727.57	257.81
727.91	257.47
728.24	257.21
728.57	256.86
728.90	256.67
729.23	256.21
729.56	256.12
729.89	256.02
730.22	255.78
730.55	255.40
730.89	255.18
731.22	254.88
731.55	254.61
731.88	254.41
732.21	254.20
732.54	253.97
732.87	253.89
733.20	253.52
733.53	253.33
733.86	253.09
734.19	252.78
734.52	252.71
734.85	252.63
735.18	252.30
735.51	252.12
735.84	251.99
736.17	251.77
736.50	251.43
736.83	251.32
737.16	251.14
737.49	251.02
737.82	250.79
738.15	250.54
738.48	250.37
738.81	250.07
739.14	249.76
739.47	249.52
739.80	249.25
740.13	249.27
740.46	249.03
740.79	248.88
741.12	248.70
741.45	248.39
741.78	248.11
742.11	247.95
742.44	247.74
742.77	247.50
743.10	247.25
743.43	246.98
743.75	246.60
744.08	246.58
744.41	246.25
744.74	246.03
745.07	245.85
745.40	245.62
745.73	245.55
746.06	245.42
746.39	245.20
746.71	245.05
747.04	244.71
747.37	244.56
747.70	244.34
748.03	244.25
748.36	244.02
748.68	243.76
749.01	243.54
749.34	243.40
749.67	243.20
750.00	243.15
750.33	243.18
750.65	242.94
750.98	242.61
751.31	242.50
751.64	242.39
751.97	242.28
752.29	242.17
752.62	241.87
752.95	241.68
753.28	241.50
753.60	241.14
753.93	241.07
754.26	240.87
754.59	240.76
754.91	240.44
755.24	240.25
755.57	240.15
755.90	240.12
756.22	239.93
756.55	239.75
756.88	239.56
757.20	239.19
757.53	239.09
757.86	238.89
758.19	238.71
758.51	238.52
758.84	238.24
759.17	238.04
759.49	238.01
759.82	237.97
760.15	237.84
760.47	237.86
760.80	237.70
761.13	237.53
761.45	237.25
761.78	237.17
762.11	237.08
762.43	237.02
762.76	236.90
763.08	236.74
763.41	236.66
763.74	236.52
764.06	236.50
764.39	236.35
764.71	236.22
765.04	236.23
765.37	236.14
765.69	236.11
766.02	236.02
766.34	235.90
766.67	235.72
767.00	235.74
767.32	235.71
767.65	235.78
767.97	235.77
768.30	235.79
768.62	235.58
768.95	235.56
769.27	235.38
769.60	235.22
769.92	235.12
770.25	235.07
770.57	235.02
770.90	234.99
771.22	234.96
771.55	234.96
771.87	234.87
772.20	234.86
772.52	234.99
772.85	235.12
773.17	235.09
773.50	235.08
773.82	235.05
774.15	235.00
774.47	234.81
774.80	234.77
775.12	234.70
775.45	234.74
775.77	234.68
776.09	234.63
776.42	234.60
776.74	234.68
777.07	234.66
777.39	234.54
777.72	234.36
778.04	234.40
778.36	234.40
778.69	234.35
779.01	234.24
779.33	234.01
779.66	233.87
779.98	233.80
780.31	233.74
780.63	233.72
780.95	233.66
781.28	233.59
781.60	233.46
781.92	233.45
782.25	233.43
782.57	233.31
782.89	233.32
783.22	233.24
783.54	233.16
783.86	233.10
784.19	233.14
784.51	233.30
784.83	233.24
785.16	233.18
785.48	233.18
785.80	233.09
786.12	233.07
786.45	232.92
786.77	232.80
787.09	232.76
787.42	232.76
787.74	232.69
788.06	232.62
788.38	232.64
788.71	232.51
789.03	232.50
789.35	232.66
789.67	232.56
789.99	232.55
790.32	232.47
790.64	232.42
790.96	232.51
791.28	232.20
791.61	232.04
791.93	231.92
792.25	231.75
792.57	231.87
792.89	231.72
793.21	231.72
793.54	231.69
793.86	231.55
794.18	231.28
794.50	231.14
794.82	231.13
795.14	231.09
795.47	231.10
795.79	231.06
796.11	230.90
796.43	230.82
796.75	230.74
797.07	230.67
797.39	230.54
797.71	230.30
798.04	230.31
798.36	230.37
798.68	230.32
799.00	230.35
799.32	230.20
799.64	230.20
799.96	230.21
800.28	230.14
800.60	230.07
800.92	230.19
801.24	230.24
801.56	230.19
801.89	230.03
802.21	230.03
802.53	229.93
802.85	229.87
803.17	230.02
803.49	230.01
803.81	230.04
804.13	230.10
804.45	230.13
804.77	230.14
805.09	230.03
805.41	230.08
805.73	229.97
806.05	229.90
806.37	229.94
806.69	229.80
807.01	229.81
807.33	229.84
807.65	229.70
807.97	229.69
808.28	229.70
808.60	229.74
808.92	229.73
809.24	229.84
809.56	229.91
809.88	229.84
810.20	229.86
810.52	229.88
810.84	229.88
811.16	229.87
811.48	229.85
811.80	229.97
812.12	229.94
812.43	230.02
812.75	230.10
813.07	230.16
813.39	230.23
813.71	230.26
814.03	230.23
814.35	230.33
814.67	230.28
814.98	230.32
815.30	230.33
815.62	230.27
815.94	230.10
816.26	230.21
816.58	230.24
816.89	230.30
817.21	230.36
817.53	230.33
817.85	230.39
818.17	230.44
818.48	230.36
818.80	230.41
819.12	230.54
819.44	230.53
819.76	230.49
820.07	230.48
820.39	230.53
820.71	230.68
821.03	230.65
821.34	230.61
821.66	230.59
821.98	230.67
822.30	230.60
822.61	230.74
822.93	230.56
823.25	230.53
823.57	230.50
823.88	230.50
824.20	230.46
824.52	230.40
824.83	230.36
825.15	230.32
825.47	230.28
825.79	230.06
826.10	230.01
826.42	229.94
826.74	229.94
827.05	229.94
827.37	229.97
827.69	229.93
828.00	230.01
828.32	229.92
828.64	229.96
828.95	230.16
829.27	230.03
829.58	229.88
829.90	229.85
830.22	229.76
830.53	229.62
830.85	229.56
831.17	229.44
831.48	229.41
831.80	229.33
832.11	229.31
832.43	229.31
832.75	229.25
833.06	229.37
833.38	229.28
833.69	229.22
834.01	229.07
834.32	229.03
834.64	228.98
834.96	229.00
835.27	228.90
835.59	228.77
835.90	228.77
836.22	228.85
836.53	228.70
836.85	228.51
837.16	228.63
837.48	228.61
837.79	228.63
838.11	228.59
838.42	228.69
838.74	228.52
839.05	228.54
839.37	228.56
839.68	228.30
840.00	228.28
840.31	228.14
840.63	228.14
840.94	228.05
841.26	228.06
841.57	228.09
841.88	228.03
842.20	228.02
842.51	227.98
842.83	228.00
843.14	228.19
843.46	228.42
843.77	228.41
844.08	228.40
844.40	228.46
844.71	228.48
845.03	228.40
845.34	228.52
845.65	228.47
845.97	228.47
846.28	228.60
846.60	228.60
846.91	228.70
847.22	228.70
847.54	228.86
847.85	228.86
848.16	228.85
848.48	228.84
848.79	228.87
849.10	228.93
849.42	228.92
849.73	228.81
850.04	228.80
850.36	228.71
850.67	228.84
850.98	228.75
851.30	228.83
851.61	228.88
851.92	228.89
852.23	228.97
852.55	229.11
852.86	229.10
853.17	229.15
853.49	229.18
853.80	229.24
854.11	229.30
854.42	229.32
854.74	229.34
855.05	229.38
855.36	229.23
855.67	229.28
855.99	229.35
856.30	229.55
856.61	229.59
856.92	229.61
857.23	229.68
857.55	229.73
857.86	229.71
858.17	229.80
858.48	229.80
858.79	229.81
859.11	229.74
859.42	229.78
859.73	229.80
860.04	229.85
860.35	229.74
860.66	229.58
860.98	229.64
861.29	229.62
861.60	229.59
861.91	229.69
862.22	229.61
862.53	229.62
862.84	229.46
863.16	229.43
863.47	229.39
863.78	229.22
864.09	229.28
864.40	229.29
864.71	229.30
865.02	229.29
865.33	229.18
865.64	229.13
865.95	229.01
866.27	229.06
866.58	228.96
866.89	229.05
867.20	229.13
867.51	229.00
867.82	228.93
868.13	228.98
868.44	228.87
868.75	228.88
869.06	228.79
869.37	228.77
869.68	228.63
869.99	228.63
870.30	228.60
870.61	228.50
870.92	228.39
871.23	228.32
871.54	228.37
871.85	228.40
872.16	228.36
872.47	228.42
872.78	228.33
873.09	228.30
873.40	228.19
873.71	228.06
874.02	228.06
874.33	228.07
874.64	228.02
874.95	228.14
875.26	228.06
875.56	228.02
875.87	227.91
876.18	227.84
876.49	227.93
876.80	227.95
877.11	228.05
877.42	228.10
877.73	228.09
878.04	228.00
878.35	228.01
878.66	228.01
878.96	227.96
879.27	227.98
879.58	227.96
879.89	227.96
880.20	228.08
880.51	227.99
880.82	227.93
881.12	227.90
881.43	227.83
881.74	227.90
882.05	227.89
882.36	227.93
882.67	228.06
882.97	227.92
883.28	227.98
883.59	227.84
883.90	227.82
884.21	227.85
884.51	227.86
884.82	227.74
885.13	227.78
885.44	227.75
885.74	227.70
886.05	227.78
886.36	227.76
886.67	227.72
886.98	227.88
887.28	227.89
887.59	227.83
887.90	227.90
888.20	227.85
888.51	227.94
888.82	227.92
889.13	227.95
889.43	228.11
889.74	228.00
890.05	228.10
890.35	228.09
890.66	228.03
890.97	228.05
891.28	228.20
891.58	228.24
891.89	228.35
892.20	228.30
892.50	228.31
892.81	228.39
893.12	228.29
893.42	228.26
893.73	228.34
894.04	228.40
894.34	228.36
894.65	228.46
894.95	228.44
895.26	228.50
895.57	228.55
895.87	228.41
896.18	228.55
896.48	228.61
896.79	228.75
897.10	228.79
897.40	228.78
897.71	228.81
898.01	228.72
898.32	228.80
898.63	228.77
898.93	228.76
899.24	228.81
899.54	228.86
899.85	228.85
900.15	228.87
900.46	228.92
900.76	228.92
901.07	228.78
901.38	228.78
901.68	228.73
901.99	228.69
902.29	228.79
902.60	228.78
902.90	228.76
903.21	228.53
903.51	228.49
903.82	228.51
904.12	228.40
904.43	228.53
904.73	228.32
905.03	228.37
905.34	228.45
905.64	228.40
905.95	228.49
906.25	228.38
906.56	228.34
906.86	228.30
907.17	228.23
907.47	228.27
907.77	228.19
908.08	228.17
908.38	228.10
908.69	227.97
908.99	227.92
909.30	227.90
909.60	227.92
909.90	227.97
910.21	227.95
910.51	227.95
910.81	227.76
911.12	227.89
911.42	227.92
911.73	227.76
912.03	227.74
912.33	227.70
912.64	227.81
912.94	227.76
913.24	227.80
913.55	227.77
913.85	227.71
914.15	227.79
914.46	227.78
914.76	227.73
915.06	227.71
915.37	227.67
915.67	227.54
915.97	227.63
916.27	227.51
916.58	227.54
916.88	227.54
917.18	227.57
917.49	227.60
917.79	227.58
918.09	227.63
918.39	227.57
918.70	227.54
919.00	227.45
919.30	227.58
919.60	227.53
919.91	227.58
920.21	227.58
920.51	227.46
920.81	227.52
921.12	227.58
921.42	227.60
921.72	227.70
922.02	227.81
922.32	227.81
922.63	227.84
922.93	227.97
923.23	227.96
923.53	227.98
923.83	227.91
924.13	227.89
924.44	227.96
924.74	227.99
925.04	227.97
925.34	227.98
925.64	227.85
925.94	227.81
926.24	227.90
926.55	228.04
926.85	228.19
927.15	228.18
927.45	228.26
927.75	228.24
928.05	228.06
928.35	228.08
928.65	228.11
928.95	228.14
929.26	228.09
929.56	228.19
929.86	228.19
930.16	228.21
930.46	228.26
930.76	228.30
931.06	228.39
931.36	228.42
931.66	228.50
931.96	228.62
932.26	228.70
932.56	228.63
932.86	228.61
933.16	228.61
933.46	228.62
933.76	228.65
934.06	228.70
934.36	228.90
934.66	228.82
934.96	228.78
935.26	228.84
935.56	228.83
935.86	228.72
936.16	228.83
936.46	228.87
936.76	228.87
937.06	228.86
937.36	228.81
937.66	228.86
937.96	228.94
938.26	228.79
938.56	228.74
938.86	228.83
939.16	228.87
939.46	228.93
939.76	228.95
940.06	228.89
940.35	228.88
940.65	228.71
940.95	228.85
941.25	228.85
941.55	228.78
941.85	228.75
942.15	228.87
942.45	228.77
942.75	228.74
943.04	228.70
943.34	228.67
943.64	228.59
943.94	228.48
944.24	228.43
944.54	228.50
944.84	228.48
945.13	228.36
945.43	228.29
945.73	228.20
946.03	228.11
946.33	228.17
946.62	228.11
946.92	228.16
947.22	228.06
947.52	228.08
947.82	228.06
948.11	228.04
948.41	228.02
948.71	228.02
949.01	228.04
949.31	228.05
949.60	228.01
949.90	228.13
950.20	228.07
950.50	227.95
950.79	227.82
951.09	227.79
951.39	227.82
951.69	227.83
951.98	227.84
952.28	227.90
952.58	227.89
952.87	227.93
953.17	227.94
953.47	227.89
953.76	227.80
954.06	227.85
954.36	227.81
954.66	227.81
954.95	227.80
955.25	227.77
955.55	227.72
955.84	227.66
956.14	227.66
956.44	227.75
956.73	227.75
957.03	227.92
957.32	228.00
957.62	227.98
957.92	227.98
958.21	227.98
958.51	228.18
958.81	228.08
959.10	228.12
959.40	228.17
959.69	228.25
959.99	228.34
960.29	228.40
960.58	228.45
960.88	228.50
961.17	228.54
961.47	228.60
961.76	228.69
962.06	228.78
962.36	228.71
962.65	228.80
962.95	228.85
963.24	228.72
963.54	228.75
963.83	228.80
964.13	228.88
964.42	228.80
964.72	228.66
965.01	228.67
965.31	228.58
965.60	228.55
965.90	228.60
966.19	228.60
966.49	228.61
966.78	228.61
967.08	228.56
967.37	228.60
967.67	228.55
967.96	228.57
968.26	228.50
968.55	228.60
968.85	228.48
969.14	228.51
969.43	228.60
969.73	228.51
970.02	228.41
970.32	228.36
970.61	228.44
970.91	228.33
971.20	228.34
971.49	228.43
971.79	228.53
972.08	228.46
972.38	228.45
972.67	228.45
972.96	228.31
973.26	228.37
973.55	228.35
973.85	228.31
974.14	228.30
974.43	228.40
974.73	228.35
975.02	228.43
975.31	228.47
975.61	228.40
975.90	228.38
976.19	228.44
976.49	228.47
976.78	228.44
977.07	228.51
977.37	228.54
977.66	228.55
977.95	228.47
978.24	228.49
978.54	228.55
978.83	228.40
979.12	228.49
979.42	228.38
979.71	228.44
980.00	228.44
980.29	228.40
980.59	228.27
980.88	228.19
981.17	228.11
981.46	228.10
981.76	228.19
982.05	228.37
982.34	228.32
982.63	228.34
982.93	228.28
983.22	228.23
983.51	228.26
983.80	228.22
984.09	228.30
984.39	228.19
984.68	228.08
984.97	228.22
985.26	228.09
985.55	228.09
985.85	228.02
986.14	228.05
986.43	228.04
986.72	228.07
987.01	227.95
987.30	227.99
987.59	227.95
987.89	227.90
988.18	227.73
988.47	227.88
988.76	227.80
989.05	227.85
989.34	227.91
989.63	227.89
989.92	227.87
990.22	227.82
990.51	227.85
990.80	227.86
991.09	227.82
991.38	227.98
991.67	227.90
991.96	227.80
992.25	227.81
992.54	227.76
992.83	227.80
993.12	227.89
993.41	227.80
993.70	227.87
993.99	227.94
994.28	227.98
994.58	227.94
994.87	227.90
995.16	227.82
995.45	227.79
995.74	227.77
996.03	227.82
996.32	227.74
996.61	227.82
996.90	227.85
997.19	227.83
997.48	227.79
997.77	227.88
998.06	227.94
998.34	227.92
998.63	227.96
998.92	227.86
999.21	227.86
999.50	227.87
999.79	227.89
1000.08	227.88
1000.37	227.92
1000.66	227.82
1000.95	227.97
1001.24	228.08
1001.53	228.09
1001.82	228.10
1002.11	228.07
1002.40	228.20
1002.68	228.24
1002.97	228.36
1003.26	228.41
1003.55	228.40
1003.84	228.37
1004.13	228.34
1004.42	228.32
1004.71	228.31
1004.99	228.29
1005.28	228.44
1005.57	228.54
1005.86	228.40
1006.15	228.32
1006.44	228.24
1006.72	228.25
1007.01	228.16
1007.30	228.16
1007.59	228.06
1007.88	227.94
1008.17	227.90
1008.45	227.83
1008.74	227.77
1009.03	227.70
1009.32	227.72
1009.60	227.74
1009.89	227.72
1010.18	227.76
1010.47	227.74
1010.76	227.76
1011.04	227.89
1011.33	227.81
1011.62	227.84
1011.91	227.97
1012.19	227.97
1012.48	228.04
1012.77	228.10
1013.05	228.22
1013.34	228.16
1013.63	228.26
1013.92	228.27
1014.20	228.29
1014.49	228.32
1014.78	228.32
1015.06	228.23
1015.35	228.13
1015.64	228.20
1015.92	228.32
1016.21	228.28
1016.50	228.40
1016.78	228.45
1017.07	228.52
1017.36	228.49
1017.64	228.43
1017.93	228.37
1018.22	228.38
1018.50	228.40
1018.79	228.36
1019.08	228.18
1019.36	228.19
1019.65	228.24
1019.93	228.40
1020.22	228.48
1020.51	228.53
1020.79	228.56
1021.08	227.30
1021.36	228.40
1021.65	228.00
1021.94	226.50
1022.22	227.70
1022.51	229.20
1022.79	230.00
1023.08	229.60
1023.36	230.30
1023.65	228.60
>>>>>End Processed Spectral Data<<<<<
