SpectraSuite Data File
++++++++++++++++++++++++++++++++++++
Date: Fri Feb 01 14:37:35 EST 2013
User: group
Dark Spectrum Present: No
Reference Spectrum Present: No
Number of Sampled Component Spectra: 1
Spectrometers: USB2E7196
Integration Time (usec): 70000 (USB2E7196)
Spectra Averaged: 10 (USB2E7196)
Boxcar Smoothing: 10 (USB2E7196)
Correct for Electrical Dark: No (USB2E7196)
Strobe/Lamp Enabled: No (USB2E7196)
Correct for Detector Non-linearity: No (USB2E7196)
Correct for Stray Light: No (USB2E7196)
Number of Pixels in Processed Spectrum: 2048
>>>>>Begin Processed Spectral Data<<<<<
339.09	0.00
339.48	215.80
339.86	218.50
340.24	218.50
340.63	220.00
341.01	224.10
341.39	224.00
341.78	224.90
342.16	227.00
342.54	225.70
342.93	214.66
343.31	225.45
343.69	226.02
344.07	226.35
344.46	226.76
344.84	227.07
345.22	227.23
345.60	227.35
345.99	227.52
346.37	227.56
346.75	227.68
347.13	227.59
347.52	227.63
347.90	227.63
348.28	227.58
348.66	227.66
349.05	227.65
349.43	227.60
349.81	227.67
350.19	227.79
350.57	227.89
350.96	227.92
351.34	227.99
351.72	227.97
352.10	228.12
352.48	228.19
352.87	228.25
353.25	228.27
353.63	228.36
354.01	228.41
354.39	228.46
354.77	228.49
355.15	228.58
355.54	228.71
355.92	228.79
356.30	228.87
356.68	229.02
357.06	228.95
357.44	229.04
357.82	229.08
358.20	229.15
358.58	229.21
358.97	229.23
359.35	229.46
359.73	229.63
360.11	229.64
360.49	229.64
360.87	229.78
361.25	229.81
361.63	230.01
362.01	230.17
362.39	230.21
362.77	230.39
363.15	230.44
363.53	230.42
363.91	230.45
364.29	230.50
364.67	230.31
365.05	230.49
365.43	230.50
365.81	230.49
366.19	230.58
366.57	230.71
366.95	230.70
367.33	230.55
367.71	230.53
368.09	230.58
368.47	230.64
368.85	230.59
369.23	230.70
369.61	230.43
369.99	230.35
370.37	230.41
370.75	230.40
371.13	230.33
371.51	230.25
371.89	230.24
372.27	230.33
372.65	230.27
373.03	230.22
373.41	230.15
373.78	230.10
374.16	229.85
374.54	229.72
374.92	229.73
375.30	229.69
375.68	229.58
376.06	229.39
376.44	229.30
376.82	229.23
377.19	229.10
377.57	229.18
377.95	228.95
378.33	228.83
378.71	228.70
379.09	228.64
379.47	228.54
379.84	228.40
380.22	228.25
380.60	228.12
380.98	227.93
381.36	227.91
381.73	227.72
382.11	227.67
382.49	227.60
382.87	227.46
383.25	227.38
383.62	227.44
384.00	227.52
384.38	227.38
384.76	227.34
385.13	227.41
385.51	227.30
385.89	227.33
386.27	227.21
386.64	227.03
387.02	226.95
387.40	226.86
387.78	226.80
388.15	226.77
388.53	226.78
388.91	226.82
389.29	226.68
389.66	226.72
390.04	226.75
390.42	226.80
390.79	226.73
391.17	226.71
391.55	226.57
391.92	226.55
392.30	226.63
392.68	226.60
393.05	226.63
393.43	226.67
393.81	226.63
394.18	226.70
394.56	226.79
394.94	226.86
395.31	226.85
395.69	226.99
396.06	226.96
396.44	226.97
396.82	226.94
397.19	227.14
397.57	227.20
397.95	227.29
398.32	227.26
398.70	227.36
399.07	227.44
399.45	227.42
399.82	227.56
400.20	227.68
400.58	227.76
400.95	227.69
401.33	227.90
401.70	228.11
402.08	228.20
402.45	228.43
402.83	228.58
403.20	228.80
403.58	228.96
403.95	229.18
404.33	229.46
404.71	229.67
405.08	229.94
405.46	230.19
405.83	230.42
406.21	230.56
406.58	230.75
406.96	231.06
407.33	231.41
407.70	231.69
408.08	232.01
408.45	232.35
408.83	232.69
409.20	233.00
409.58	233.29
409.95	233.70
410.33	233.96
410.70	234.29
411.08	234.71
411.45	235.10
411.82	235.46
412.20	235.90
412.57	236.57
412.95	237.01
413.32	237.54
413.69	238.14
414.07	238.84
414.44	239.68
414.82	240.33
415.19	241.15
415.56	241.87
415.94	242.73
416.31	243.69
416.68	244.66
417.06	245.62
417.43	246.50
417.81	247.69
418.18	248.90
418.55	250.25
418.93	251.61
419.30	253.04
419.67	254.59
420.04	256.10
420.42	257.65
420.79	259.46
421.16	261.32
421.54	263.23
421.91	265.13
422.28	267.15
422.66	269.33
423.03	271.61
423.40	273.93
423.77	276.17
424.15	278.57
424.52	281.15
424.89	283.88
425.26	286.61
425.64	289.08
426.01	291.80
426.38	294.59
426.75	297.44
427.13	300.39
427.50	303.50
427.87	306.75
428.24	309.94
428.61	312.99
428.99	316.31
429.36	320.04
429.73	323.82
430.10	327.18
430.47	330.88
430.85	334.67
431.22	338.46
431.59	342.80
431.96	346.61
432.33	351.06
432.70	355.30
433.08	360.42
433.45	365.10
433.82	369.79
434.19	375.10
434.56	380.14
434.93	385.09
435.30	389.98
435.68	395.42
436.05	400.87
436.42	406.10
436.79	411.07
437.16	416.29
437.53	421.72
437.90	427.33
438.27	432.47
438.64	437.88
439.01	443.11
439.38	447.60
439.75	452.12
440.13	457.13
440.50	461.97
440.87	465.92
441.24	470.07
441.61	474.69
441.98	477.92
442.35	482.07
442.72	486.00
443.09	489.97
443.46	492.52
443.83	494.02
444.20	495.70
444.57	497.87
444.94	499.09
445.31	500.36
445.68	501.74
446.05	502.73
446.42	502.61
446.79	502.50
447.16	502.36
447.53	502.44
447.90	500.97
448.27	499.59
448.64	497.21
449.01	495.75
449.37	492.75
449.74	489.97
450.11	486.28
450.48	482.28
450.85	478.26
451.22	474.73
451.59	471.44
451.96	468.28
452.33	463.88
452.70	459.87
453.07	454.84
453.43	449.74
453.80	444.89
454.17	440.21
454.54	435.82
454.91	431.07
455.28	426.47
455.65	422.10
456.02	417.53
456.38	413.73
456.75	409.05
457.12	404.91
457.49	400.77
457.86	396.92
458.23	393.80
458.59	389.99
458.96	386.25
459.33	383.10
459.70	379.67
460.07	376.90
460.43	373.75
460.80	370.99
461.17	368.50
461.54	365.85
461.91	363.23
462.27	360.51
462.64	358.26
463.01	355.66
463.38	353.21
463.74	350.77
464.11	348.60
464.48	346.59
464.85	344.70
465.21	343.09
465.58	341.37
465.95	339.20
466.32	337.30
466.68	335.31
467.05	333.59
467.42	331.87
467.78	330.11
468.15	328.30
468.52	326.93
468.88	325.19
469.25	323.66
469.62	322.46
469.98	321.06
470.35	319.65
470.72	318.39
471.08	316.96
471.45	315.90
471.82	314.79
472.18	313.54
472.55	312.50
472.92	311.37
473.28	310.32
473.65	309.30
474.02	308.32
474.38	307.61
474.75	306.70
475.11	305.81
475.48	305.13
475.85	304.51
476.21	303.73
476.58	303.04
476.94	302.41
477.31	301.84
477.67	301.39
478.04	300.95
478.41	300.56
478.77	300.36
479.14	299.73
479.50	299.35
479.87	299.04
480.23	298.65
480.60	298.45
480.96	298.02
481.33	297.83
481.69	297.64
482.06	297.35
482.42	297.16
482.79	297.07
483.15	296.94
483.52	296.93
483.88	296.89
484.25	296.90
484.61	296.86
484.98	296.90
485.34	296.93
485.71	297.10
486.07	297.14
486.44	297.11
486.80	297.36
487.17	297.51
487.53	297.78
487.90	298.11
488.26	298.42
488.62	298.94
488.99	299.30
489.35	299.83
489.72	300.32
490.08	300.77
490.44	301.26
490.81	301.67
491.17	302.09
491.54	302.72
491.90	303.22
492.26	303.72
492.63	304.26
492.99	304.75
493.36	305.35
493.72	306.10
494.08	306.77
494.45	307.47
494.81	308.20
495.17	308.90
495.54	309.64
495.90	310.31
496.26	311.10
496.63	311.76
496.99	312.49
497.35	313.29
497.72	313.99
498.08	314.55
498.44	315.36
498.80	316.14
499.17	316.86
499.53	317.55
499.89	318.43
500.26	319.08
500.62	319.70
500.98	320.37
501.34	320.90
501.71	321.60
502.07	322.09
502.43	322.65
502.79	323.21
503.16	323.68
503.52	324.07
503.88	324.27
504.24	324.76
504.60	325.15
504.97	325.58
505.33	325.88
505.69	326.61
506.05	327.00
506.41	327.20
506.78	327.41
507.14	327.57
507.50	327.79
507.86	328.05
508.22	328.34
508.59	328.45
508.95	328.68
509.31	328.92
509.67	329.17
510.03	329.26
510.39	329.40
510.75	329.52
511.12	329.64
511.48	329.77
511.84	329.80
512.20	329.79
512.56	329.85
512.92	330.20
513.28	330.09
513.64	330.12
514.00	330.32
514.37	330.40
514.73	330.50
515.09	330.59
515.45	330.55
515.81	330.60
516.17	330.68
516.53	330.83
516.89	330.85
517.25	331.02
517.61	331.28
517.97	331.39
518.33	331.68
518.69	332.05
519.05	332.41
519.41	332.86
519.77	333.46
520.13	333.98
520.49	334.34
520.85	334.84
521.21	335.41
521.57	335.99
521.93	336.71
522.29	337.56
522.65	338.31
523.01	339.19
523.37	340.13
523.73	341.08
524.09	342.08
524.45	343.06
524.81	344.22
525.17	345.54
525.53	346.88
525.89	348.21
526.25	349.69
526.61	351.15
526.97	352.66
527.33	354.25
527.68	355.93
528.04	357.74
528.40	359.57
528.76	361.54
529.12	363.70
529.48	365.70
529.84	367.92
530.20	370.32
530.56	372.81
530.91	375.32
531.27	378.05
531.63	380.85
531.99	383.61
532.35	386.37
532.71	389.08
533.07	392.05
533.42	395.28
533.78	398.35
534.14	401.64
534.50	404.98
534.86	408.24
535.21	411.54
535.57	415.17
535.93	418.65
536.29	422.33
536.65	425.99
537.00	429.68
537.36	433.62
537.72	437.36
538.08	441.41
538.44	445.16
538.79	449.07
539.15	452.97
539.51	457.27
539.87	461.54
540.22	465.90
540.58	470.37
540.94	474.45
541.29	478.78
541.65	483.35
542.01	487.96
542.37	492.55
542.72	497.08
543.08	501.54
543.44	506.32
543.79	510.87
544.15	515.57
544.51	520.75
544.87	525.44
545.22	530.25
545.58	534.90
545.94	539.93
546.29	544.64
546.65	549.45
547.01	554.22
547.36	559.00
547.72	563.81
548.07	568.59
548.43	573.49
548.79	578.35
549.14	582.89
549.50	587.50
549.86	592.12
550.21	597.15
550.57	601.87
550.92	606.63
551.28	611.58
551.64	616.32
551.99	620.98
552.35	625.87
552.70	630.62
553.06	635.63
553.41	640.35
553.77	645.30
554.13	650.25
554.48	655.13
554.84	660.22
555.19	665.05
555.55	670.06
555.90	674.76
556.26	679.71
556.61	684.58
556.97	689.28
557.32	694.00
557.68	698.64
558.03	703.38
558.39	708.04
558.74	712.70
559.10	717.50
559.45	722.20
559.81	726.74
560.16	731.50
560.52	735.97
560.87	740.62
561.23	745.06
561.58	749.56
561.94	753.94
562.29	758.13
562.64	762.30
563.00	766.58
563.35	770.85
563.71	775.15
564.06	779.59
564.42	783.81
564.77	788.12
565.12	792.33
565.48	796.55
565.83	800.66
566.19	804.54
566.54	808.22
566.89	811.77
567.25	815.51
567.60	819.52
567.96	823.20
568.31	826.86
568.66	830.48
569.02	833.79
569.37	837.16
569.72	840.42
570.08	843.44
570.43	846.31
570.78	849.38
571.14	852.00
571.49	854.69
571.84	857.85
572.20	860.65
572.55	863.16
572.90	865.57
573.26	868.14
573.61	870.51
573.96	872.90
574.31	875.03
574.67	877.02
575.02	878.43
575.37	880.51
575.72	882.12
576.08	883.80
576.43	885.76
576.78	887.34
577.13	889.04
577.49	891.10
577.84	892.57
578.19	894.06
578.54	895.68
578.90	897.05
579.25	897.83
579.60	898.73
579.95	899.90
580.30	900.99
580.66	901.70
581.01	902.60
581.36	903.60
581.71	904.63
582.06	905.50
582.42	906.21
582.77	906.41
583.12	907.26
583.47	908.04
583.82	908.61
584.17	909.12
584.53	909.66
584.88	909.90
585.23	910.33
585.58	910.90
585.93	911.14
586.28	911.50
586.63	911.82
586.98	912.27
587.34	912.42
587.69	912.55
588.04	913.05
588.39	913.18
588.74	912.63
589.09	912.40
589.44	912.10
589.79	912.18
590.14	912.47
590.49	911.95
590.84	911.76
591.19	911.45
591.54	910.83
591.89	909.65
592.25	909.18
592.60	908.48
592.95	907.38
593.30	906.38
593.65	905.36
594.00	904.66
594.35	904.05
594.70	902.70
595.05	901.96
595.40	900.40
595.75	899.18
596.10	898.53
596.45	897.58
596.80	896.69
597.15	895.64
597.50	894.20
597.85	893.50
598.19	892.37
598.54	891.17
598.89	890.04
599.24	889.39
599.59	888.10
599.94	886.97
600.29	885.80
600.64	884.76
600.99	883.50
601.34	882.14
601.69	880.44
602.04	879.24
602.39	877.58
602.74	876.56
603.08	875.40
603.43	874.18
603.78	872.89
604.13	871.28
604.48	869.63
604.83	868.15
605.18	866.55
605.53	864.59
605.87	862.50
606.22	860.87
606.57	859.09
606.92	857.30
607.27	855.38
607.62	853.57
607.96	851.59
608.31	849.73
608.66	847.47
609.01	845.08
609.36	842.93
609.70	840.57
610.05	838.20
610.40	835.88
610.75	833.19
611.10	830.68
611.44	827.82
611.79	825.48
612.14	822.80
612.49	819.69
612.83	817.17
613.18	814.56
613.53	811.84
613.88	808.80
614.22	806.28
614.57	803.53
614.92	800.95
615.27	798.58
615.61	795.54
615.96	792.96
616.31	790.74
616.65	788.28
617.00	785.62
617.35	782.90
617.70	780.11
618.04	777.40
618.39	774.81
618.74	772.64
619.08	769.69
619.43	767.11
619.78	764.47
620.12	761.74
620.47	759.22
620.82	756.49
621.16	754.13
621.51	751.30
621.85	748.86
622.20	745.81
622.55	742.87
622.89	740.53
623.24	738.00
623.59	735.32
623.93	732.87
624.28	730.45
624.62	727.91
624.97	725.44
625.32	722.96
625.66	720.36
626.01	717.71
626.35	715.32
626.70	712.85
627.04	710.55
627.39	707.91
627.73	705.26
628.08	702.87
628.43	700.29
628.77	697.66
629.12	694.61
629.46	692.20
629.81	689.38
630.15	686.53
630.50	683.57
630.84	680.60
631.19	677.47
631.53	674.42
631.88	671.40
632.22	668.37
632.57	665.68
632.91	662.69
633.26	659.81
633.60	656.87
633.95	654.06
634.29	651.36
634.64	648.90
634.98	646.06
635.32	643.38
635.67	640.74
636.01	638.04
636.36	635.65
636.70	633.42
637.05	630.98
637.39	628.51
637.73	626.24
638.08	624.18
638.42	622.18
638.77	619.95
639.11	617.53
639.45	615.28
639.80	612.72
640.14	610.12
640.49	607.74
640.83	605.40
641.17	603.10
641.52	600.54
641.86	597.65
642.20	595.45
642.55	592.75
642.89	590.26
643.23	587.72
643.58	585.46
643.92	582.43
644.26	579.95
644.61	577.65
644.95	575.20
645.29	572.27
645.64	569.34
645.98	566.86
646.32	564.52
646.66	561.82
647.01	559.10
647.35	557.05
647.69	554.72
648.04	552.38
648.38	549.61
648.72	546.99
649.06	544.45
649.41	541.84
649.75	539.31
650.09	536.58
650.43	534.02
650.78	531.25
651.12	528.80
651.46	526.35
651.80	523.79
652.14	521.18
652.49	518.82
652.83	516.44
653.17	513.73
653.51	511.14
653.85	508.69
654.20	506.45
654.54	503.51
654.88	500.71
655.22	497.90
655.56	495.41
655.90	493.05
656.25	491.04
656.59	488.67
656.93	486.44
657.27	484.38
657.61	481.99
657.95	479.83
658.29	477.73
658.64	475.44
658.98	472.94
659.32	470.51
659.66	468.21
660.00	466.00
660.34	463.73
660.68	461.56
661.02	459.29
661.36	457.22
661.70	455.29
662.05	453.26
662.39	451.42
662.73	449.38
663.07	447.33
663.41	445.28
663.75	443.24
664.09	441.17
664.43	438.96
664.77	437.14
665.11	435.08
665.45	433.24
665.79	431.27
666.13	429.40
666.47	427.75
666.81	425.77
667.15	423.74
667.49	422.09
667.83	420.35
668.17	418.44
668.51	416.52
668.85	414.74
669.19	413.22
669.53	411.38
669.87	409.71
670.21	408.09
670.55	406.35
670.89	404.99
671.23	403.61
671.57	402.17
671.91	400.71
672.25	399.12
672.58	397.34
672.92	395.85
673.26	394.42
673.60	392.90
673.94	391.50
674.28	390.35
674.62	389.10
674.96	387.62
675.30	386.46
675.64	385.10
675.97	383.81
676.31	382.31
676.65	380.98
676.99	379.75
677.33	378.27
677.67	376.89
678.01	375.25
678.34	373.76
678.68	372.30
679.02	370.89
679.36	369.57
679.70	368.25
680.04	366.93
680.37	365.63
680.71	364.36
681.05	363.34
681.39	361.98
681.73	360.70
682.06	359.59
682.40	358.41
682.74	357.21
683.08	356.00
683.42	354.81
683.75	353.65
684.09	352.40
684.43	351.41
684.77	350.23
685.10	349.11
685.44	348.08
685.78	347.00
686.12	345.89
686.45	344.79
686.79	343.73
687.13	342.64
687.46	341.61
687.80	340.34
688.14	339.01
688.48	337.90
688.81	336.75
689.15	335.50
689.49	334.30
689.82	333.21
690.16	331.98
690.50	330.83
690.83	329.79
691.17	328.67
691.51	327.57
691.84	326.61
692.18	325.60
692.52	324.34
692.85	323.23
693.19	322.18
693.52	321.11
693.86	320.08
694.20	319.07
694.53	317.99
694.87	317.02
695.21	316.10
695.54	314.99
695.88	313.87
696.21	312.81
696.55	311.81
696.88	310.81
697.22	310.06
697.56	309.26
697.89	308.38
698.23	307.37
698.56	306.37
698.90	305.46
699.23	304.44
699.57	303.51
699.90	302.78
700.24	301.95
700.58	301.16
700.91	300.35
701.25	299.64
701.58	298.91
701.92	298.10
702.25	297.24
702.59	296.63
702.92	295.93
703.26	295.35
703.59	294.78
703.93	294.19
704.26	293.36
704.60	292.55
704.93	291.86
705.26	291.22
705.60	290.61
705.93	289.89
706.27	289.25
706.60	288.80
706.94	288.21
707.27	287.48
707.61	286.79
707.94	286.16
708.27	285.40
708.61	284.79
708.94	284.25
709.28	283.70
709.61	283.05
709.94	282.59
710.28	282.03
710.61	281.52
710.95	280.81
711.28	280.36
711.61	279.77
711.95	279.16
712.28	278.66
712.61	278.11
712.95	277.63
713.28	277.23
713.61	276.73
713.95	276.02
714.28	275.56
714.61	275.17
714.95	274.80
715.28	274.30
715.61	273.67
715.95	273.27
716.28	272.80
716.61	272.30
716.95	271.73
717.28	271.35
717.61	270.79
717.94	270.42
718.28	269.79
718.61	269.51
718.94	269.10
719.27	268.60
719.61	268.23
719.94	267.87
720.27	267.32
720.60	266.95
720.94	266.66
721.27	266.26
721.60	265.88
721.93	265.40
722.27	265.10
722.60	264.75
722.93	264.25
723.26	263.92
723.59	263.56
723.93	263.31
724.26	262.80
724.59	262.40
724.92	262.03
725.25	261.79
725.59	261.35
725.92	261.08
726.25	260.80
726.58	260.41
726.91	260.04
727.24	259.80
727.57	259.39
727.91	259.09
728.24	258.85
728.57	258.53
728.90	258.21
729.23	257.79
729.56	257.59
729.89	257.34
730.22	256.94
730.55	256.65
730.89	256.30
731.22	256.04
731.55	255.64
731.88	255.26
732.21	254.93
732.54	254.53
732.87	254.25
733.20	253.96
733.53	253.66
733.86	253.41
734.19	253.09
734.52	252.80
734.85	252.60
735.18	252.30
735.51	252.04
735.84	251.72
736.17	251.61
736.50	251.29
736.83	251.20
737.16	250.98
737.49	250.79
737.82	250.48
738.15	250.29
738.48	250.06
738.81	249.98
739.14	249.77
739.47	249.58
739.80	249.29
740.13	249.10
740.46	248.89
740.79	248.64
741.12	248.40
741.45	248.16
741.78	247.80
742.11	247.52
742.44	247.21
742.77	247.16
743.10	246.86
743.43	246.68
743.75	246.38
744.08	246.47
744.41	246.16
744.74	245.89
745.07	245.64
745.40	245.64
745.73	245.42
746.06	245.25
746.39	245.14
746.71	244.89
747.04	244.73
747.37	244.68
747.70	244.44
748.03	244.30
748.36	244.28
748.68	244.19
749.01	244.05
749.34	243.87
749.67	243.65
750.00	243.50
750.33	243.55
750.65	243.36
750.98	242.98
751.31	242.89
751.64	242.77
751.97	242.73
752.29	242.42
752.62	242.24
752.95	242.14
753.28	241.99
753.60	241.85
753.93	241.69
754.26	241.52
754.59	241.39
754.91	241.15
755.24	240.93
755.57	240.78
755.90	240.63
756.22	240.53
756.55	240.45
756.88	240.34
757.20	240.00
757.53	239.88
757.86	239.77
758.19	239.77
758.51	239.86
758.84	239.68
759.17	239.57
759.49	239.51
759.82	239.39
760.15	239.33
760.47	239.20
760.80	239.01
761.13	238.93
761.45	238.82
761.78	238.84
762.11	238.76
762.43	238.64
762.76	238.59
763.08	238.40
763.41	238.29
763.74	238.27
764.06	238.16
764.39	237.98
764.71	237.85
765.04	237.67
765.37	237.41
765.69	237.36
766.02	237.36
766.34	237.21
766.67	237.03
767.00	236.99
767.32	237.12
767.65	237.28
767.97	237.11
768.30	237.00
768.62	236.99
768.95	236.88
769.27	236.86
769.60	236.76
769.92	236.79
770.25	236.59
770.57	236.44
770.90	236.36
771.22	236.31
771.55	236.26
771.87	236.13
772.20	236.01
772.52	236.01
772.85	236.11
773.17	236.01
773.50	236.03
773.82	235.89
774.15	235.64
774.47	235.39
774.80	235.29
775.12	235.26
775.45	235.12
775.77	234.98
776.09	234.83
776.42	234.71
776.74	234.69
777.07	234.68
777.39	234.59
777.72	234.54
778.04	234.54
778.36	234.37
778.69	234.33
779.01	234.20
779.33	233.90
779.66	233.60
779.98	233.55
780.31	233.42
780.63	233.41
780.95	233.43
781.28	233.34
781.60	233.30
781.92	233.28
782.25	233.17
782.57	233.04
782.89	233.04
783.22	233.06
783.54	232.99
783.86	232.91
784.19	232.83
784.51	232.72
784.83	232.50
785.16	232.52
785.48	232.44
785.80	232.48
786.12	232.61
786.45	232.53
786.77	232.48
787.09	232.45
787.42	232.31
787.74	232.20
788.06	232.17
788.38	232.19
788.71	232.06
789.03	232.05
789.35	232.10
789.67	232.01
789.99	231.88
790.32	231.80
790.64	231.79
790.96	231.90
791.28	231.79
791.61	231.79
791.93	231.67
792.25	231.57
792.57	231.67
792.89	231.54
793.21	231.47
793.54	231.38
793.86	231.22
794.18	231.25
794.50	231.24
794.82	231.22
795.14	231.11
795.47	231.08
795.79	231.01
796.11	231.03
796.43	230.93
796.75	230.89
797.07	230.84
797.39	230.85
797.71	230.66
798.04	230.71
798.36	230.78
798.68	230.90
799.00	231.03
799.32	230.94
799.64	230.90
799.96	230.98
800.28	230.92
800.60	231.02
800.92	231.02
801.24	230.94
801.56	230.92
801.89	230.95
802.21	231.01
802.53	231.07
802.85	230.98
803.17	231.15
803.49	231.19
803.81	231.21
804.13	231.24
804.45	231.24
804.77	231.30
805.09	231.30
805.41	231.26
805.73	231.21
806.05	231.12
806.37	231.20
806.69	231.16
807.01	231.35
807.33	231.30
807.65	231.24
807.97	231.27
808.28	231.28
808.60	231.29
808.92	231.13
809.24	231.20
809.56	231.23
809.88	231.09
810.20	231.08
810.52	231.05
810.84	230.98
811.16	231.00
811.48	230.90
811.80	230.88
812.12	230.81
812.43	230.78
812.75	230.81
813.07	230.80
813.39	230.83
813.71	230.72
814.03	230.73
814.35	230.72
814.67	230.74
814.98	230.66
815.30	230.54
815.62	230.54
815.94	230.32
816.26	230.39
816.58	230.38
816.89	230.39
817.21	230.40
817.53	230.27
817.85	230.20
818.17	230.18
818.48	230.14
818.80	230.13
819.12	230.03
819.44	229.98
819.76	229.82
820.07	229.75
820.39	229.73
820.71	229.66
821.03	229.56
821.34	229.49
821.66	229.51
821.98	229.58
822.30	229.59
822.61	229.76
822.93	229.62
823.25	229.62
823.57	229.57
823.88	229.54
824.20	229.52
824.52	229.45
824.83	229.45
825.15	229.33
825.47	229.26
825.79	229.26
826.10	229.18
826.42	229.12
826.74	229.15
827.05	229.10
827.37	229.11
827.69	229.11
828.00	229.10
828.32	229.06
828.64	228.93
828.95	229.02
829.27	228.90
829.58	228.90
829.90	228.82
830.22	228.75
830.53	228.63
830.85	228.61
831.17	228.52
831.48	228.42
831.80	228.50
832.11	228.44
832.43	228.45
832.75	228.56
833.06	228.73
833.38	228.61
833.69	228.51
834.01	228.56
834.32	228.57
834.64	228.55
834.96	228.55
835.27	228.58
835.59	228.62
835.90	228.59
836.22	228.60
836.53	228.57
836.85	228.60
837.16	228.74
837.48	228.86
837.79	229.00
838.11	229.08
838.42	229.05
838.74	229.16
839.05	229.15
839.37	229.02
839.68	228.86
840.00	228.96
840.31	229.02
840.63	229.02
840.94	228.94
841.26	228.97
841.57	229.00
841.88	228.97
842.20	228.90
842.51	228.91
842.83	228.91
843.14	229.19
843.46	229.19
843.77	229.24
844.08	229.17
844.40	229.10
844.71	229.21
845.03	229.20
845.34	229.23
845.65	229.34
845.97	229.40
846.28	229.48
846.60	229.51
846.91	229.50
847.22	229.43
847.54	229.55
847.85	229.58
848.16	229.57
848.48	229.70
848.79	229.78
849.10	229.88
849.42	229.92
849.73	229.76
850.04	229.82
850.36	229.70
850.67	229.73
850.98	229.71
851.30	229.71
851.61	229.69
851.92	229.67
852.23	229.70
852.55	229.75
852.86	229.72
853.17	229.68
853.49	229.83
853.80	229.98
854.11	229.99
854.42	230.00
854.74	229.93
855.05	229.85
855.36	229.71
855.67	229.66
855.99	229.61
856.30	229.77
856.61	229.72
856.92	229.72
857.23	229.65
857.55	229.63
857.86	229.52
858.17	229.53
858.48	229.48
858.79	229.30
859.11	229.19
859.42	229.10
859.73	229.02
860.04	228.98
860.35	228.80
860.66	228.68
860.98	228.63
861.29	228.68
861.60	228.67
861.91	228.60
862.22	228.50
862.53	228.44
862.84	228.20
863.16	228.21
863.47	228.16
863.78	228.14
864.09	228.11
864.40	228.05
864.71	228.03
865.02	227.99
865.33	227.89
865.64	227.90
865.95	227.98
866.27	228.11
866.58	228.00
866.89	227.95
867.20	227.98
867.51	227.90
867.82	227.83
868.13	227.94
868.44	227.98
868.75	228.02
869.06	228.01
869.37	227.98
869.68	227.89
869.99	227.85
870.30	227.90
870.61	227.90
870.92	227.84
871.23	227.73
871.54	227.70
871.85	227.82
872.16	227.85
872.47	227.72
872.78	227.56
873.09	227.55
873.40	227.65
873.71	227.67
874.02	227.70
874.33	227.72
874.64	227.59
874.95	227.59
875.26	227.46
875.56	227.50
875.87	227.50
876.18	227.51
876.49	227.80
876.80	227.85
877.11	227.81
877.42	227.93
877.73	228.10
878.04	228.24
878.35	228.30
878.66	228.26
878.96	228.48
879.27	228.51
879.58	228.62
879.89	228.58
880.20	228.64
880.51	228.63
880.82	228.60
881.12	228.61
881.43	228.59
881.74	228.70
882.05	228.61
882.36	228.53
882.67	228.67
882.97	228.49
883.28	228.45
883.59	228.51
883.90	228.49
884.21	228.50
884.51	228.38
884.82	228.33
885.13	228.47
885.44	228.34
885.74	228.39
886.05	228.27
886.36	228.24
886.67	228.21
886.98	228.42
887.28	228.47
887.59	228.41
887.90	228.48
888.20	228.50
888.51	228.60
888.82	228.73
889.13	228.67
889.43	228.77
889.74	228.71
890.05	228.77
890.35	228.79
890.66	228.78
890.97	228.80
891.28	228.73
891.58	228.59
891.89	228.56
892.20	228.53
892.50	228.59
892.81	228.66
893.12	228.52
893.42	228.34
893.73	228.31
894.04	228.43
894.34	228.43
894.65	228.44
894.95	228.45
895.26	228.40
895.57	228.45
895.87	228.32
896.18	228.31
896.48	228.27
896.79	228.26
897.10	228.20
897.40	228.17
897.71	228.27
898.01	228.27
898.32	228.31
898.63	228.29
898.93	228.24
899.24	228.22
899.54	228.27
899.85	228.19
900.15	228.19
900.46	228.09
900.76	228.04
901.07	228.02
901.38	227.97
901.68	228.06
901.99	227.96
902.29	227.92
902.60	227.99
902.90	228.00
903.21	227.93
903.51	227.97
903.82	228.02
904.12	227.83
904.43	227.85
904.73	227.70
905.03	227.70
905.34	227.90
905.64	227.84
905.95	227.82
906.25	227.91
906.56	227.90
906.86	228.00
907.17	227.99
907.47	227.92
907.77	227.98
908.08	227.92
908.38	227.94
908.69	227.98
908.99	227.89
909.30	227.86
909.60	227.92
909.90	227.90
910.21	227.82
910.51	227.87
910.81	227.84
911.12	228.01
911.42	228.00
911.73	227.82
912.03	227.85
912.33	227.85
912.64	227.79
912.94	227.86
913.24	227.71
913.55	227.70
913.85	227.77
914.15	227.74
914.46	227.68
914.76	227.65
915.06	227.56
915.37	227.60
915.67	227.61
915.97	227.60
916.27	227.58
916.58	227.64
916.88	227.67
917.18	227.74
917.49	227.88
917.79	227.95
918.09	227.96
918.39	227.94
918.70	227.95
919.00	228.05
919.30	228.05
919.60	228.10
919.91	228.12
920.21	228.13
920.51	228.07
920.81	228.17
921.12	228.21
921.42	228.29
921.72	228.35
922.02	228.32
922.32	228.39
922.63	228.40
922.93	228.50
923.23	228.63
923.53	228.52
923.83	228.39
924.13	228.39
924.44	228.48
924.74	228.71
925.04	228.79
925.34	228.79
925.64	228.79
925.94	228.87
926.24	228.98
926.55	229.00
926.85	229.13
927.15	229.09
927.45	229.19
927.75	229.17
928.05	229.23
928.35	229.18
928.65	229.19
928.95	229.24
929.26	229.13
929.56	229.08
929.86	229.20
930.16	229.16
930.46	229.08
930.76	229.14
931.06	228.95
931.36	228.95
931.66	228.90
931.96	228.94
932.26	228.93
932.56	228.91
932.86	228.92
933.16	228.77
933.46	228.81
933.76	228.72
934.06	228.83
934.36	228.83
934.66	228.88
934.96	228.90
935.26	228.90
935.56	228.97
935.86	228.91
936.16	228.88
936.46	228.90
936.76	228.92
937.06	228.80
937.36	228.80
937.66	228.75
937.96	228.80
938.26	228.58
938.56	228.50
938.86	228.45
939.16	228.46
939.46	228.50
939.76	228.39
940.06	228.39
940.35	228.30
940.65	228.17
940.95	228.28
941.25	228.18
941.55	228.17
941.85	228.14
942.15	228.29
942.45	228.41
942.75	228.43
943.04	228.38
943.34	228.38
943.64	228.28
943.94	228.24
944.24	228.17
944.54	228.28
944.84	228.29
945.13	228.19
945.43	228.19
945.73	228.12
946.03	228.20
946.33	228.09
946.62	228.08
946.92	228.10
947.22	227.98
947.52	228.01
947.82	227.94
948.11	228.00
948.41	227.82
948.71	227.55
949.01	227.45
949.31	227.42
949.60	227.40
949.90	227.47
950.20	227.55
950.50	227.48
950.79	227.46
951.09	227.55
951.39	227.54
951.69	227.48
951.98	227.65
952.28	227.56
952.58	227.60
952.87	227.65
953.17	227.68
953.47	227.64
953.76	227.60
954.06	227.61
954.36	227.47
954.66	227.56
954.95	227.68
955.25	227.76
955.55	227.84
955.84	227.80
956.14	227.82
956.44	227.72
956.73	227.82
957.03	227.76
957.32	227.65
957.62	227.70
957.92	227.74
958.21	227.55
958.51	227.78
958.81	227.84
959.10	227.84
959.40	227.82
959.69	227.86
959.99	227.96
960.29	227.94
960.58	227.92
960.88	228.03
961.17	228.00
961.47	228.03
961.76	228.03
962.06	228.16
962.36	228.14
962.65	228.28
962.95	228.28
963.24	228.31
963.54	228.30
963.83	228.34
964.13	228.27
964.42	228.37
964.72	228.26
965.01	228.24
965.31	228.25
965.60	228.18
965.90	228.27
966.19	228.23
966.49	228.33
966.78	228.38
967.08	228.24
967.37	228.34
967.67	228.22
967.96	228.38
968.26	228.32
968.55	228.47
968.85	228.40
969.14	228.37
969.43	228.36
969.73	228.49
970.02	228.47
970.32	228.48
970.61	228.49
970.91	228.43
971.20	228.45
971.49	228.34
971.79	228.51
972.08	228.50
972.38	228.46
972.67	228.30
972.96	228.43
973.26	228.48
973.55	228.57
973.85	228.61
974.14	228.39
974.43	228.40
974.73	228.34
975.02	228.39
975.31	228.50
975.61	228.56
975.90	228.45
976.19	228.55
976.49	228.60
976.78	228.58
977.07	228.50
977.37	228.44
977.66	228.44
977.95	228.26
978.24	228.18
978.54	228.22
978.83	228.24
979.12	228.11
979.42	228.07
979.71	227.95
980.00	227.94
980.29	228.04
980.59	228.07
980.88	227.99
981.17	227.89
981.46	227.85
981.76	227.83
982.05	227.94
982.34	227.78
982.63	227.82
982.93	227.88
983.22	228.01
983.51	228.07
983.80	228.20
984.09	228.32
984.39	228.44
984.68	228.40
984.97	228.44
985.26	228.40
985.55	228.40
985.85	228.39
986.14	228.42
986.43	228.40
986.72	228.26
987.01	228.32
987.30	228.28
987.59	228.26
987.89	228.27
988.18	228.21
988.47	228.27
988.76	228.23
989.05	228.13
989.34	228.05
989.63	228.06
989.92	227.98
990.22	227.90
990.51	227.80
990.80	227.80
991.09	227.87
991.38	228.03
991.67	228.05
991.96	228.10
992.25	228.13
992.54	228.05
992.83	228.19
993.12	228.15
993.41	228.26
993.70	228.29
993.99	228.29
994.28	228.33
994.58	228.30
994.87	228.30
995.16	228.37
995.45	228.47
995.74	228.44
996.03	228.53
996.32	228.61
996.61	228.69
996.90	228.68
997.19	228.72
997.48	228.54
997.77	228.52
998.06	228.44
998.34	228.32
998.63	228.40
998.92	228.34
999.21	228.33
999.50	228.19
999.79	228.18
1000.08	228.28
1000.37	228.24
1000.66	228.27
1000.95	228.28
1001.24	228.28
1001.53	228.27
1001.82	228.36
1002.11	228.28
1002.40	228.32
1002.68	228.39
1002.97	228.65
1003.26	228.63
1003.55	228.80
1003.84	228.85
1004.13	229.04
1004.42	229.13
1004.71	229.14
1004.99	229.15
1005.28	229.13
1005.57	229.27
1005.86	229.26
1006.15	229.20
1006.44	229.20
1006.72	229.17
1007.01	229.23
1007.30	229.21
1007.59	229.13
1007.88	229.04
1008.17	229.00
1008.45	228.89
1008.74	228.75
1009.03	228.58
1009.32	228.60
1009.60	228.48
1009.89	228.46
1010.18	228.33
1010.47	228.26
1010.76	228.29
1011.04	228.25
1011.33	228.33
1011.62	228.27
1011.91	228.23
1012.19	228.25
1012.48	228.21
1012.77	228.27
1013.05	228.30
1013.34	228.25
1013.63	228.26
1013.92	228.22
1014.20	228.30
1014.49	228.24
1014.78	228.23
1015.06	228.13
1015.35	228.06
1015.64	228.11
1015.92	228.09
1016.21	228.02
1016.50	228.03
1016.78	228.00
1017.07	227.97
1017.36	227.80
1017.64	227.80
1017.93	227.81
1018.22	227.79
1018.50	227.87
1018.79	227.80
1019.08	227.70
1019.36	227.77
1019.65	227.79
1019.93	227.82
1020.22	227.73
1020.51	227.88
1020.79	227.80
1021.08	228.00
1021.36	229.60
1021.65	227.30
1021.94	228.60
1022.22	228.90
1022.51	228.30
1022.79	228.10
1023.08	226.90
1023.36	229.40
1023.65	226.10
>>>>>End Processed Spectral Data<<<<<
