SpectraSuite Data File
++++++++++++++++++++++++++++++++++++
Date: Fri Feb 01 14:40:06 EST 2013
User: group
Dark Spectrum Present: No
Reference Spectrum Present: No
Number of Sampled Component Spectra: 1
Spectrometers: USB2E7196
Integration Time (usec): 70000 (USB2E7196)
Spectra Averaged: 10 (USB2E7196)
Boxcar Smoothing: 10 (USB2E7196)
Correct for Electrical Dark: No (USB2E7196)
Strobe/Lamp Enabled: No (USB2E7196)
Correct for Detector Non-linearity: No (USB2E7196)
Correct for Stray Light: No (USB2E7196)
Number of Pixels in Processed Spectrum: 2048
>>>>>Begin Processed Spectral Data<<<<<
339.09	0.00
339.48	215.30
339.86	217.50
340.24	217.30
340.63	218.90
341.01	224.30
341.39	223.10
341.78	225.00
342.16	225.30
342.54	225.60
342.93	214.02
343.31	224.88
343.69	225.38
344.07	225.76
344.46	226.18
344.84	226.66
345.22	226.83
345.60	227.07
345.99	227.20
346.37	227.39
346.75	227.48
347.13	227.64
347.52	227.55
347.90	227.68
348.28	227.72
348.66	227.80
349.05	227.74
349.43	227.82
349.81	227.86
350.19	227.89
350.57	227.89
350.96	227.98
351.34	228.06
351.72	228.24
352.10	228.40
352.48	228.60
352.87	228.66
353.25	228.69
353.63	228.82
354.01	228.94
354.39	228.94
354.77	229.06
355.15	229.16
355.54	229.35
355.92	229.33
356.30	229.50
356.68	229.82
357.06	229.94
357.44	229.93
357.82	229.98
358.20	230.08
358.58	230.20
358.97	230.28
359.35	230.37
359.73	230.48
360.11	230.51
360.49	230.41
360.87	230.48
361.25	230.64
361.63	230.65
362.01	230.64
362.39	230.73
362.77	230.76
363.15	230.80
363.53	230.78
363.91	230.81
364.29	230.76
364.67	230.41
365.05	230.50
365.43	230.58
365.81	230.66
366.19	230.74
366.57	230.77
366.95	230.81
367.33	230.77
367.71	230.64
368.09	230.66
368.47	230.75
368.85	230.70
369.23	230.63
369.61	230.63
369.99	230.57
370.37	230.45
370.75	230.44
371.13	230.33
371.51	230.22
371.89	230.19
372.27	230.09
372.65	230.07
373.03	229.95
373.41	229.83
373.78	229.68
374.16	229.41
374.54	229.24
374.92	229.18
375.30	229.05
375.68	228.96
376.06	228.98
376.44	228.91
376.82	228.82
377.19	228.75
377.57	228.54
377.95	228.49
378.33	228.42
378.71	228.20
379.09	228.09
379.47	228.04
379.84	228.05
380.22	228.06
380.60	228.04
380.98	227.99
381.36	227.95
381.73	227.84
382.11	227.86
382.49	227.76
382.87	227.56
383.25	227.41
383.62	227.60
384.00	227.40
384.38	227.33
384.76	227.21
385.13	227.21
385.51	227.20
385.89	227.03
386.27	227.00
386.64	226.99
387.02	226.95
387.40	226.95
387.78	226.82
388.15	226.71
388.53	226.61
388.91	226.50
389.29	226.40
389.66	226.40
390.04	226.29
390.42	226.26
390.79	226.30
391.17	226.35
391.55	226.10
391.92	226.05
392.30	226.08
392.68	226.06
393.05	226.06
393.43	226.05
393.81	226.16
394.18	226.09
394.56	226.16
394.94	226.21
395.31	226.15
395.69	226.17
396.06	226.26
396.44	226.34
396.82	226.42
397.19	226.68
397.57	226.86
397.95	226.98
398.32	227.04
398.70	227.11
399.07	227.28
399.45	227.40
399.82	227.53
400.20	227.53
400.58	227.70
400.95	227.67
401.33	227.78
401.70	228.01
402.08	228.29
402.45	228.36
402.83	228.45
403.20	228.67
403.58	228.79
403.95	229.00
404.33	229.15
404.71	229.30
405.08	229.48
405.46	229.51
405.83	229.70
406.21	229.93
406.58	230.14
406.96	230.27
407.33	230.49
407.70	230.73
408.08	231.06
408.45	231.20
408.83	231.51
409.20	231.75
409.58	231.89
409.95	232.10
410.33	232.40
410.70	232.71
411.08	232.99
411.45	233.32
411.82	233.59
412.20	233.91
412.57	234.36
412.95	234.50
413.32	234.79
413.69	235.21
414.07	235.54
414.44	235.95
414.82	236.40
415.19	236.84
415.56	237.26
415.94	237.76
416.31	238.37
416.68	238.91
417.06	239.67
417.43	240.32
417.81	241.08
418.18	241.81
418.55	242.51
418.93	243.31
419.30	244.20
419.67	245.00
420.04	245.90
420.42	246.83
420.79	248.07
421.16	249.33
421.54	250.46
421.91	251.74
422.28	252.96
422.66	254.23
423.03	255.61
423.40	256.98
423.77	258.23
424.15	259.60
424.52	261.03
424.89	262.54
425.26	264.04
425.64	265.37
426.01	266.97
426.38	268.73
426.75	270.38
427.13	271.99
427.50	273.79
427.87	275.58
428.24	277.33
428.61	278.95
428.99	280.85
429.36	282.92
429.73	284.88
430.10	286.91
430.47	288.91
430.85	290.93
431.22	293.05
431.59	295.50
431.96	297.87
432.33	300.43
432.70	302.82
433.08	305.73
433.45	308.47
433.82	311.04
434.19	313.90
434.56	316.78
434.93	319.44
435.30	321.98
435.68	324.97
436.05	327.91
436.42	330.72
436.79	333.23
437.16	335.86
437.53	338.76
437.90	341.64
438.27	344.53
438.64	347.51
439.01	350.22
439.38	352.57
439.75	354.81
440.13	357.36
440.50	359.74
440.87	361.64
441.24	363.81
441.61	366.12
441.98	367.70
442.35	369.63
442.72	371.62
443.09	373.79
443.46	374.96
443.83	375.67
444.20	376.30
444.57	377.38
444.94	377.97
445.31	378.50
445.68	378.92
446.05	379.21
446.42	378.92
446.79	378.66
447.16	378.21
447.53	378.03
447.90	376.83
448.27	375.72
448.64	374.05
449.01	372.74
449.37	370.79
449.74	368.96
450.11	366.86
450.48	364.44
450.85	361.69
451.22	359.48
451.59	357.53
451.96	355.68
452.33	352.98
452.70	350.49
453.07	347.54
453.43	344.67
453.80	341.86
454.17	339.10
454.54	336.56
454.91	333.96
455.28	331.13
455.65	328.63
456.02	326.38
456.38	324.29
456.75	321.72
457.12	319.39
457.49	317.04
457.86	314.62
458.23	312.77
458.59	310.79
458.96	308.71
459.33	306.65
459.70	304.77
460.07	303.26
460.43	301.54
460.80	299.91
461.17	298.45
461.54	296.88
461.91	295.38
462.27	293.82
462.64	292.51
463.01	291.13
463.38	289.95
463.74	288.38
464.11	287.18
464.48	285.95
464.85	284.77
465.21	283.94
465.58	283.11
465.95	281.96
466.32	280.99
466.68	280.08
467.05	279.22
467.42	278.25
467.78	277.26
468.15	276.32
468.52	275.60
468.88	274.54
469.25	273.69
469.62	273.09
469.98	272.41
470.35	271.54
470.72	270.75
471.08	269.84
471.45	269.21
471.82	268.58
472.18	267.87
472.55	267.40
472.92	266.69
473.28	265.89
473.65	265.18
474.02	264.63
474.38	264.11
474.75	263.56
475.11	263.10
475.48	262.68
475.85	262.20
476.21	261.77
476.58	261.42
476.94	261.04
477.31	260.58
477.67	260.09
478.04	259.87
478.41	259.59
478.77	259.50
479.14	259.14
479.50	258.91
479.87	258.73
480.23	258.39
480.60	258.16
480.96	257.96
481.33	257.89
481.69	257.66
482.06	257.40
482.42	257.22
482.79	257.03
483.15	256.93
483.52	256.93
483.88	256.81
484.25	256.80
484.61	256.59
484.98	256.47
485.34	256.49
485.71	256.52
486.07	256.65
486.44	256.62
486.80	256.65
487.17	256.63
487.53	256.80
487.90	256.97
488.26	257.19
488.62	257.49
488.99	257.64
489.35	257.90
489.72	258.18
490.08	258.48
490.44	258.67
490.81	258.90
491.17	259.28
491.54	259.57
491.90	259.82
492.26	260.17
492.63	260.68
492.99	261.08
493.36	261.44
493.72	261.89
494.08	262.34
494.45	262.89
494.81	263.46
495.17	263.89
495.54	264.61
495.90	265.18
496.26	265.91
496.63	266.72
496.99	267.43
497.35	268.16
497.72	269.04
498.08	270.00
498.44	270.99
498.80	272.01
499.17	273.10
499.53	274.29
499.89	275.68
500.26	276.97
500.62	278.40
500.98	279.85
501.34	281.25
501.71	282.81
502.07	284.34
502.43	285.91
502.79	287.72
503.16	289.44
503.52	291.37
503.88	293.22
504.24	295.22
504.60	297.42
504.97	299.66
505.33	301.98
505.69	304.43
506.05	306.90
506.41	309.29
506.78	311.93
507.14	314.72
507.50	317.47
507.86	320.33
508.22	323.38
508.59	326.44
508.95	329.77
509.31	333.15
509.67	336.79
510.03	340.49
510.39	344.26
510.75	348.27
511.12	352.26
511.48	356.44
511.84	360.61
512.20	364.91
512.56	369.59
512.92	374.21
513.28	379.00
513.64	383.80
514.00	388.80
514.37	394.05
514.73	399.17
515.09	404.51
515.45	409.88
515.81	415.50
516.17	421.21
516.53	427.16
516.89	433.15
517.25	439.25
517.61	445.61
517.97	451.78
518.33	457.88
518.69	464.37
519.05	471.06
519.41	477.87
519.77	484.88
520.13	491.71
520.49	498.99
520.85	506.21
521.21	513.70
521.57	521.28
521.93	528.67
522.29	536.67
522.65	544.53
523.01	552.51
523.37	560.29
523.73	568.57
524.09	576.58
524.45	584.89
524.81	593.29
525.17	601.75
525.53	610.81
525.89	619.75
526.25	628.70
526.61	637.46
526.97	646.81
527.33	655.79
527.68	665.31
528.04	674.32
528.40	683.80
528.76	693.46
529.12	703.05
529.48	713.02
529.84	722.58
530.20	732.65
530.56	742.85
530.91	753.33
531.27	763.52
531.63	773.84
531.99	783.92
532.35	794.12
532.71	804.33
533.07	814.40
533.42	825.06
533.78	835.20
534.14	845.75
534.50	855.67
534.86	866.29
535.21	876.59
535.57	887.66
535.93	898.30
536.29	908.63
536.65	919.40
537.00	929.56
537.36	940.24
537.72	950.40
538.08	960.75
538.44	970.91
538.79	981.16
539.15	991.24
539.51	1001.74
539.87	1012.52
540.22	1023.11
540.58	1033.71
540.94	1043.96
541.29	1054.50
541.65	1064.65
542.01	1075.24
542.37	1085.63
542.72	1095.68
543.08	1105.45
543.44	1115.16
543.79	1124.60
544.15	1134.27
544.51	1144.65
544.87	1154.42
545.22	1164.07
545.58	1173.47
545.94	1182.27
546.29	1191.57
546.65	1200.81
547.01	1209.91
547.36	1218.58
547.72	1227.10
548.07	1235.88
548.43	1244.10
548.79	1252.53
549.14	1261.01
549.50	1269.32
549.86	1277.06
550.21	1285.15
550.57	1293.08
550.92	1300.91
551.28	1309.18
551.64	1316.84
551.99	1324.37
552.35	1331.93
552.70	1339.46
553.06	1347.22
553.41	1355.19
553.77	1362.42
554.13	1369.84
554.48	1376.98
554.84	1383.99
555.19	1390.80
555.55	1397.52
555.90	1404.12
556.26	1410.79
556.61	1417.16
556.97	1422.82
557.32	1429.20
557.68	1435.20
558.03	1440.97
558.39	1446.92
558.74	1453.05
559.10	1458.70
559.45	1464.12
559.81	1470.05
560.16	1475.68
560.52	1480.68
560.87	1486.04
561.23	1491.02
561.58	1496.20
561.94	1500.91
562.29	1505.67
562.64	1510.60
563.00	1515.30
563.35	1520.67
563.71	1525.68
564.06	1530.59
564.42	1535.91
564.77	1540.84
565.12	1545.82
565.48	1550.71
565.83	1555.01
566.19	1559.08
566.54	1563.13
566.89	1567.00
567.25	1570.26
567.60	1574.00
567.96	1577.93
568.31	1581.12
568.66	1584.49
569.02	1587.48
569.37	1590.35
569.72	1593.06
570.08	1595.43
570.43	1597.80
570.78	1599.97
571.14	1601.68
571.49	1603.63
571.84	1605.94
572.20	1607.32
572.55	1608.07
572.90	1609.40
573.26	1610.65
573.61	1611.56
573.96	1612.47
574.31	1612.66
574.67	1612.70
575.02	1612.64
575.37	1612.55
575.72	1612.28
576.08	1612.82
576.43	1612.70
576.78	1613.10
577.13	1613.11
577.49	1613.18
577.84	1613.00
578.19	1612.42
578.54	1612.03
578.90	1611.18
579.25	1609.57
579.60	1608.59
579.95	1607.38
580.30	1605.51
580.66	1604.05
581.01	1602.40
581.36	1601.03
581.71	1600.60
582.06	1599.60
582.42	1598.09
582.77	1596.37
583.12	1594.90
583.47	1592.60
583.82	1591.13
584.17	1588.98
584.53	1587.38
584.88	1585.24
585.23	1583.12
585.58	1580.86
585.93	1578.08
586.28	1576.19
586.63	1574.31
586.98	1572.19
587.34	1570.40
587.69	1568.73
588.04	1566.62
588.39	1564.88
588.74	1562.05
589.09	1558.61
589.44	1555.60
589.79	1553.03
590.14	1550.63
590.49	1547.92
590.84	1544.80
591.19	1542.08
591.54	1538.56
591.89	1534.07
592.25	1531.09
592.60	1526.98
592.95	1523.37
593.30	1519.85
593.65	1515.76
594.00	1511.64
594.35	1508.07
594.70	1503.73
595.05	1499.76
595.40	1495.29
595.75	1490.82
596.10	1486.95
596.45	1483.23
596.80	1479.89
597.15	1476.44
597.50	1472.29
597.85	1468.45
598.19	1465.60
598.54	1461.28
598.89	1457.76
599.24	1455.11
599.59	1450.90
599.94	1447.43
600.29	1443.64
600.64	1440.28
600.99	1436.27
601.34	1432.64
601.69	1427.98
602.04	1424.46
602.39	1420.50
602.74	1417.26
603.08	1413.75
603.43	1410.18
603.78	1406.59
604.13	1402.18
604.48	1397.65
604.83	1393.50
605.18	1389.36
605.53	1384.20
605.87	1379.76
606.22	1375.11
606.57	1370.07
606.92	1365.73
607.27	1361.55
607.62	1357.41
607.96	1352.88
608.31	1348.42
608.66	1342.94
609.01	1338.12
609.36	1333.06
609.70	1327.23
610.05	1321.80
610.40	1316.30
610.75	1310.88
611.10	1305.26
611.44	1299.48
611.79	1294.45
612.14	1288.82
612.49	1282.99
612.83	1277.26
613.18	1271.54
613.53	1266.23
613.88	1260.31
614.22	1254.46
614.57	1248.80
614.92	1242.99
615.27	1237.37
615.61	1231.47
615.96	1226.33
616.31	1221.42
616.65	1216.32
617.00	1211.48
617.35	1206.09
617.70	1200.45
618.04	1194.55
618.39	1189.42
618.74	1184.44
619.08	1178.66
619.43	1173.43
619.78	1168.33
620.12	1163.30
620.47	1157.88
620.82	1152.18
621.16	1147.24
621.51	1142.23
621.85	1136.69
622.20	1130.88
622.55	1125.70
622.89	1120.67
623.24	1115.65
623.59	1110.58
623.93	1105.16
624.28	1099.92
624.62	1094.63
624.97	1089.57
625.32	1084.86
625.66	1079.40
626.01	1074.19
626.35	1068.82
626.70	1063.70
627.04	1058.63
627.39	1053.07
627.73	1047.85
628.08	1043.25
628.43	1038.13
628.77	1033.03
629.12	1027.50
629.46	1022.47
629.81	1016.53
630.15	1010.89
630.50	1005.40
630.84	998.95
631.19	993.03
631.53	987.45
631.88	981.72
632.22	975.88
632.57	970.61
632.91	965.21
633.26	959.75
633.60	954.58
633.95	949.15
634.29	944.07
634.64	939.20
634.98	934.00
635.32	928.64
635.67	923.78
636.01	918.64
636.36	913.83
636.70	908.87
637.05	904.37
637.39	900.03
637.73	895.20
638.08	891.44
638.42	887.38
638.77	883.11
639.11	878.52
639.45	874.23
639.80	869.34
640.14	864.63
640.49	859.90
640.83	854.89
641.17	850.11
641.52	845.02
641.86	840.02
642.20	835.45
642.55	830.79
642.89	825.92
643.23	821.28
643.58	816.84
643.92	812.29
644.26	807.57
644.61	802.93
644.95	798.31
645.29	792.99
645.64	787.86
645.98	783.08
646.32	778.59
646.66	774.05
647.01	769.31
647.35	764.63
647.69	760.36
648.04	756.25
648.38	751.65
648.72	747.00
649.06	742.61
649.41	738.09
649.75	733.32
650.09	728.72
650.43	723.91
650.78	719.25
651.12	714.68
651.46	710.21
651.80	705.70
652.14	701.40
652.49	697.30
652.83	693.04
653.17	688.54
653.51	684.10
653.85	679.65
654.20	675.38
654.54	670.93
654.88	666.30
655.22	661.67
655.56	657.43
655.90	653.31
656.25	649.41
656.59	645.35
656.93	641.40
657.27	637.44
657.61	633.30
657.95	629.37
658.29	625.38
658.64	621.33
658.98	617.17
659.32	612.95
659.66	608.94
660.00	605.10
660.34	601.19
660.68	597.55
661.02	593.75
661.36	590.24
661.70	586.83
662.05	583.40
662.39	580.21
662.73	577.06
663.07	573.84
663.41	570.36
663.75	567.02
664.09	563.65
664.43	560.30
664.77	557.36
665.11	554.22
665.45	550.99
665.79	547.90
666.13	544.68
666.47	541.60
666.81	538.65
667.15	535.44
667.49	532.33
667.83	529.34
668.17	526.21
668.51	523.12
668.85	520.02
669.19	517.29
669.53	514.07
669.87	510.93
670.21	508.01
670.55	505.19
670.89	502.59
671.23	499.88
671.57	497.18
671.91	494.44
672.25	491.55
672.58	488.92
672.92	486.31
673.26	483.97
673.60	481.57
673.94	479.08
674.28	476.81
674.62	474.64
674.96	472.19
675.30	469.94
675.64	467.66
675.97	465.41
676.31	462.95
676.65	460.84
676.99	458.87
677.33	456.47
677.67	454.16
678.01	451.65
678.34	449.34
678.68	447.00
679.02	444.75
679.36	442.62
679.70	440.53
680.04	438.30
680.37	436.02
680.71	433.84
681.05	431.72
681.39	429.70
681.73	427.39
682.06	425.44
682.40	423.59
682.74	421.57
683.08	419.64
683.42	417.70
683.75	415.68
684.09	413.54
684.43	411.70
684.77	409.85
685.10	408.04
685.44	406.11
685.78	404.30
686.12	402.52
686.45	400.65
686.79	398.80
687.13	397.16
687.46	395.52
687.80	393.65
688.14	391.63
688.48	389.87
688.81	388.22
689.15	386.54
689.49	384.72
689.82	383.00
690.16	381.13
690.50	379.40
690.83	377.64
691.17	375.96
691.51	374.30
691.84	372.74
692.18	371.20
692.52	369.63
692.85	368.07
693.19	366.43
693.52	364.89
693.86	363.23
694.20	361.50
694.53	359.78
694.87	358.28
695.21	356.97
695.54	355.41
695.88	353.82
696.21	352.24
696.55	350.73
696.88	349.24
697.22	347.93
697.56	346.63
697.89	345.47
698.23	344.01
698.56	342.61
698.90	341.21
699.23	339.56
699.57	338.10
699.90	336.89
700.24	335.63
700.58	334.30
700.91	333.13
701.25	331.96
701.58	330.80
701.92	329.70
702.25	328.49
702.59	327.42
702.92	326.40
703.26	325.13
703.59	324.06
703.93	323.05
704.26	321.87
704.60	320.66
704.93	319.46
705.26	318.43
705.60	317.30
705.93	316.08
706.27	315.18
706.60	314.29
706.94	313.19
707.27	311.99
707.61	310.91
707.94	309.90
708.27	308.85
708.61	307.94
708.94	306.97
709.28	306.04
709.61	305.13
709.94	304.27
710.28	303.56
710.61	302.64
710.95	301.67
711.28	301.00
711.61	300.24
711.95	299.45
712.28	298.48
712.61	297.64
712.95	296.87
713.28	296.12
713.61	295.34
713.95	294.44
714.28	293.60
714.61	292.91
714.95	292.21
715.28	291.42
715.61	290.61
715.95	289.84
716.28	289.02
716.61	288.27
716.95	287.44
717.28	286.59
717.61	286.00
717.94	285.36
718.28	284.54
718.61	283.82
718.94	283.09
719.27	282.48
719.61	281.89
719.94	281.35
720.27	280.68
720.60	280.10
720.94	279.60
721.27	279.22
721.60	278.71
721.93	278.12
722.27	277.64
722.60	277.20
722.93	276.75
723.26	276.23
723.59	275.65
723.93	275.16
724.26	274.80
724.59	274.08
724.92	273.60
725.25	273.01
725.59	272.60
725.92	272.21
726.25	271.75
726.58	271.43
726.91	270.91
727.24	270.46
727.57	269.93
727.91	269.47
728.24	269.07
728.57	268.63
728.90	268.24
729.23	267.83
729.56	267.47
729.89	267.03
730.22	266.60
730.55	266.22
730.89	265.92
731.22	265.45
731.55	265.20
731.88	264.78
732.21	264.50
732.54	264.00
732.87	263.71
733.20	263.32
733.53	262.89
733.86	262.56
734.19	262.24
734.52	261.99
734.85	261.73
735.18	261.26
735.51	260.85
735.84	260.68
736.17	260.40
736.50	259.82
736.83	259.70
737.16	259.40
737.49	259.07
737.82	258.67
738.15	258.39
738.48	258.06
738.81	257.76
739.14	257.51
739.47	257.35
739.80	256.93
740.13	256.66
740.46	256.33
740.79	256.10
741.12	255.77
741.45	255.49
741.78	255.04
742.11	254.81
742.44	254.53
742.77	254.10
743.10	253.72
743.43	253.44
743.75	252.95
744.08	252.98
744.41	252.72
744.74	252.39
745.07	251.93
745.40	251.60
745.73	251.47
746.06	251.08
746.39	250.73
746.71	250.38
747.04	250.06
747.37	249.74
747.70	249.38
748.03	249.10
748.36	248.81
748.68	248.61
749.01	248.21
749.34	247.93
749.67	247.60
750.00	247.44
750.33	247.41
750.65	247.12
750.98	246.61
751.31	246.30
751.64	246.08
751.97	246.10
752.29	245.89
752.62	245.49
752.95	245.29
753.28	244.95
753.60	244.74
753.93	244.65
754.26	244.52
754.59	244.36
754.91	244.19
755.24	244.04
755.57	243.84
755.90	243.70
756.22	243.63
756.55	243.52
756.88	243.20
757.20	242.89
757.53	242.76
757.86	242.61
758.19	242.51
758.51	242.44
758.84	242.24
759.17	242.10
759.49	241.99
759.82	241.94
760.15	241.88
760.47	241.76
760.80	241.60
761.13	241.44
761.45	241.33
761.78	241.13
762.11	241.04
762.43	240.94
762.76	240.90
763.08	240.60
763.41	240.45
763.74	240.41
764.06	240.39
764.39	240.21
764.71	240.09
765.04	240.00
765.37	239.75
765.69	239.53
766.02	239.44
766.34	239.24
766.67	239.14
767.00	239.07
767.32	239.05
767.65	239.13
767.97	239.06
768.30	238.93
768.62	238.81
768.95	238.54
769.27	238.47
769.60	238.42
769.92	238.40
770.25	238.28
770.57	238.16
770.90	238.00
771.22	237.93
771.55	237.82
771.87	237.71
772.20	237.66
772.52	237.86
772.85	238.10
773.17	238.05
773.50	237.94
773.82	237.86
774.15	237.67
774.47	237.36
774.80	237.32
775.12	237.20
775.45	237.15
775.77	237.19
776.09	237.14
776.42	237.05
776.74	237.01
777.07	236.95
777.39	236.82
777.72	236.67
778.04	236.62
778.36	236.49
778.69	236.36
779.01	236.30
779.33	235.98
779.66	235.57
779.98	235.48
780.31	235.40
780.63	235.34
780.95	235.40
781.28	235.32
781.60	235.11
781.92	235.08
782.25	235.05
782.57	234.91
782.89	234.78
783.22	234.64
783.54	234.60
783.86	234.51
784.19	234.36
784.51	234.40
784.83	234.26
785.16	234.23
785.48	234.19
785.80	234.12
786.12	234.09
786.45	234.04
786.77	234.00
787.09	233.90
787.42	233.75
787.74	233.67
788.06	233.60
788.38	233.52
788.71	233.50
789.03	233.35
789.35	233.23
789.67	233.10
789.99	233.10
790.32	233.06
790.64	233.03
790.96	233.19
791.28	233.06
791.61	233.09
791.93	233.02
792.25	233.01
792.57	233.10
792.89	233.00
793.21	233.04
793.54	232.91
793.86	232.82
794.18	232.81
794.50	232.65
794.82	232.66
795.14	232.74
795.47	232.65
795.79	232.65
796.11	232.72
796.43	232.79
796.75	232.75
797.07	232.74
797.39	232.67
797.71	232.51
798.04	232.54
798.36	232.44
798.68	232.46
799.00	232.40
799.32	232.24
799.64	232.26
799.96	232.10
800.28	232.22
800.60	232.19
800.92	232.13
801.24	232.10
801.56	232.06
801.89	231.93
802.21	231.89
802.53	231.89
802.85	231.90
803.17	231.86
803.49	231.80
803.81	231.58
804.13	231.57
804.45	231.63
804.77	231.58
805.09	231.59
805.41	231.57
805.73	231.63
806.05	231.61
806.37	231.54
806.69	231.47
807.01	231.40
807.33	231.46
807.65	231.40
807.97	231.53
808.28	231.50
808.60	231.47
808.92	231.50
809.24	231.57
809.56	231.44
809.88	231.43
810.20	231.40
810.52	231.59
810.84	231.48
811.16	231.41
811.48	231.45
811.80	231.49
812.12	231.44
812.43	231.34
812.75	231.34
813.07	231.32
813.39	231.39
813.71	231.24
814.03	231.14
814.35	231.09
814.67	230.96
814.98	230.99
815.30	230.94
815.62	230.78
815.94	230.60
816.26	230.69
816.58	230.59
816.89	230.60
817.21	230.44
817.53	230.53
817.85	230.46
818.17	230.33
818.48	230.24
818.80	230.22
819.12	230.16
819.44	230.07
819.76	229.99
820.07	229.97
820.39	230.05
820.71	230.03
821.03	230.10
821.34	230.07
821.66	230.00
821.98	230.01
822.30	230.11
822.61	230.18
822.93	230.06
823.25	230.04
823.57	230.03
823.88	230.08
824.20	229.97
824.52	229.96
824.83	230.07
825.15	229.93
825.47	229.83
825.79	229.85
826.10	229.76
826.42	229.69
826.74	229.71
827.05	229.63
827.37	229.64
827.69	229.50
828.00	229.46
828.32	229.45
828.64	229.46
828.95	229.50
829.27	229.42
829.58	229.38
829.90	229.36
830.22	229.27
830.53	229.28
830.85	229.27
831.17	229.24
831.48	229.04
831.80	229.17
832.11	229.21
832.43	229.17
832.75	229.19
833.06	229.36
833.38	229.23
833.69	229.22
834.01	229.13
834.32	229.20
834.64	229.17
834.96	229.11
835.27	229.13
835.59	229.02
835.90	229.03
836.22	229.05
836.53	229.05
836.85	229.07
837.16	229.21
837.48	229.30
837.79	229.25
838.11	229.26
838.42	229.17
838.74	229.14
839.05	229.11
839.37	229.11
839.68	228.90
840.00	228.93
840.31	228.98
840.63	229.07
840.94	229.05
841.26	229.09
841.57	229.20
841.88	229.14
842.20	229.12
842.51	229.15
842.83	229.09
843.14	229.26
843.46	229.20
843.77	229.11
844.08	229.04
844.40	229.05
844.71	229.14
845.03	229.12
845.34	229.15
845.65	229.24
845.97	229.20
846.28	229.28
846.60	229.26
846.91	229.24
847.22	229.28
847.54	229.40
847.85	229.37
848.16	229.26
848.48	229.32
848.79	229.44
849.10	229.39
849.42	229.35
849.73	229.22
850.04	229.26
850.36	229.15
850.67	229.23
850.98	229.24
851.30	229.22
851.61	229.22
851.92	229.26
852.23	229.20
852.55	229.37
852.86	229.30
853.17	229.42
853.49	229.46
853.80	229.39
854.11	229.25
854.42	229.35
854.74	229.34
855.05	229.26
855.36	229.24
855.67	229.23
855.99	229.33
856.30	229.52
856.61	229.46
856.92	229.48
857.23	229.49
857.55	229.51
857.86	229.55
858.17	229.56
858.48	229.56
858.79	229.56
859.11	229.58
859.42	229.71
859.73	229.54
860.04	229.51
860.35	229.48
860.66	229.53
860.98	229.47
861.29	229.50
861.60	229.50
861.91	229.45
862.22	229.49
862.53	229.48
862.84	229.16
863.16	229.21
863.47	229.20
863.78	229.14
864.09	229.10
864.40	229.05
864.71	229.14
865.02	228.99
865.33	228.87
865.64	228.67
865.95	228.50
866.27	228.55
866.58	228.51
866.89	228.55
867.20	228.42
867.51	228.37
867.82	228.37
868.13	228.41
868.44	228.30
868.75	228.27
869.06	228.09
869.37	228.12
869.68	228.05
869.99	228.07
870.30	228.10
870.61	228.14
870.92	228.10
871.23	227.97
871.54	228.05
871.85	228.11
872.16	228.22
872.47	228.24
872.78	228.28
873.09	228.28
873.40	228.28
873.71	228.34
874.02	228.28
874.33	228.22
874.64	228.19
874.95	228.22
875.26	228.23
875.56	228.38
875.87	228.40
876.18	228.41
876.49	228.44
876.80	228.34
877.11	228.30
877.42	228.26
877.73	228.31
878.04	228.34
878.35	228.36
878.66	228.25
878.96	228.27
879.27	228.20
879.58	228.22
879.89	228.19
880.20	228.30
880.51	228.37
880.82	228.41
881.12	228.37
881.43	228.37
881.74	228.35
882.05	228.33
882.36	228.33
882.67	228.30
882.97	228.19
883.28	228.12
883.59	228.10
883.90	228.16
884.21	228.18
884.51	228.20
884.82	228.27
885.13	228.31
885.44	228.33
885.74	228.37
886.05	228.34
886.36	228.31
886.67	228.23
886.98	228.36
887.28	228.28
887.59	228.38
887.90	228.40
888.20	228.45
888.51	228.62
888.82	228.58
889.13	228.67
889.43	228.86
889.74	228.91
890.05	228.85
890.35	228.88
890.66	228.81
890.97	228.81
891.28	228.74
891.58	228.90
891.89	228.95
892.20	228.89
892.50	228.93
892.81	229.03
893.12	229.08
893.42	228.98
893.73	229.07
894.04	229.00
894.34	229.04
894.65	229.02
894.95	228.86
895.26	228.87
895.57	228.97
895.87	228.83
896.18	228.90
896.48	229.02
896.79	228.94
897.10	229.03
897.40	228.97
897.71	229.02
898.01	228.96
898.32	228.96
898.63	229.03
898.93	229.06
899.24	229.04
899.54	228.98
899.85	229.01
900.15	229.02
900.46	229.15
900.76	229.13
901.07	229.17
901.38	229.23
901.68	229.24
901.99	229.09
902.29	229.10
902.60	229.02
902.90	228.96
903.21	228.97
903.51	228.97
903.82	229.07
904.12	228.91
904.43	228.85
904.73	228.79
905.03	228.72
905.34	228.92
905.64	228.77
905.95	228.80
906.25	228.70
906.56	228.67
906.86	228.52
907.17	228.57
907.47	228.47
907.77	228.41
908.08	228.36
908.38	228.40
908.69	228.28
908.99	228.27
909.30	228.19
909.60	228.18
909.90	228.13
910.21	227.98
910.51	228.05
910.81	228.08
911.12	228.04
911.42	228.02
911.73	227.71
912.03	227.73
912.33	227.64
912.64	227.61
912.94	227.54
913.24	227.49
913.55	227.37
913.85	227.39
914.15	227.42
914.46	227.51
914.76	227.51
915.06	227.53
915.37	227.66
915.67	227.61
915.97	227.60
916.27	227.54
916.58	227.62
916.88	227.57
917.18	227.50
917.49	227.67
917.79	227.70
918.09	227.70
918.39	227.84
918.70	227.83
919.00	227.85
919.30	227.90
919.60	227.93
919.91	227.95
920.21	227.87
920.51	227.89
920.81	227.83
921.12	227.80
921.42	227.85
921.72	227.74
922.02	227.89
922.32	227.94
922.63	228.04
922.93	228.09
923.23	228.13
923.53	228.13
923.83	228.15
924.13	228.21
924.44	228.34
924.74	228.38
925.04	228.49
925.34	228.59
925.64	228.61
925.94	228.62
926.24	228.77
926.55	228.78
926.85	228.70
927.15	228.80
927.45	228.89
927.75	228.89
928.05	228.98
928.35	228.92
928.65	228.99
928.95	229.01
929.26	228.97
929.56	229.11
929.86	229.25
930.16	229.10
930.46	229.12
930.76	229.10
931.06	229.02
931.36	228.98
931.66	229.01
931.96	229.09
932.26	229.17
932.56	229.07
932.86	229.17
933.16	229.27
933.46	229.24
933.76	229.15
934.06	229.24
934.36	229.28
934.66	229.35
934.96	229.27
935.26	229.23
935.56	229.34
935.86	229.24
936.16	229.25
936.46	229.27
936.76	229.25
937.06	229.22
937.36	229.16
937.66	229.19
937.96	229.14
938.26	229.05
938.56	228.94
938.86	228.96
939.16	228.93
939.46	228.93
939.76	228.94
940.06	228.85
940.35	228.84
940.65	228.70
940.95	228.61
941.25	228.70
941.55	228.70
941.85	228.59
942.15	228.64
942.45	228.54
942.75	228.50
943.04	228.37
943.34	228.32
943.64	228.27
943.94	228.16
944.24	228.09
944.54	228.10
944.84	228.07
945.13	227.95
945.43	227.87
945.73	227.75
946.03	227.65
946.33	227.67
946.62	227.55
946.92	227.50
947.22	227.50
947.52	227.37
947.82	227.26
948.11	227.12
948.41	227.00
948.71	226.89
949.01	226.91
949.31	226.98
949.60	227.02
949.90	226.98
950.20	227.01
950.50	227.07
950.79	226.98
951.09	227.07
951.39	227.10
951.69	227.12
951.98	227.27
952.28	227.34
952.58	227.31
952.87	227.32
953.17	227.41
953.47	227.46
953.76	227.48
954.06	227.49
954.36	227.55
954.66	227.56
954.95	227.72
955.25	227.67
955.55	227.65
955.84	227.63
956.14	227.82
956.44	227.78
956.73	227.75
957.03	227.80
957.32	227.83
957.62	227.89
957.92	227.90
958.21	227.80
958.51	228.01
958.81	228.07
959.10	228.11
959.40	228.20
959.69	228.15
959.99	228.22
960.29	228.30
960.58	228.23
960.88	228.29
961.17	228.27
961.47	228.34
961.76	228.36
962.06	228.44
962.36	228.43
962.65	228.52
962.95	228.51
963.24	228.50
963.54	228.56
963.83	228.60
964.13	228.57
964.42	228.60
964.72	228.39
965.01	228.51
965.31	228.49
965.60	228.48
965.90	228.69
966.19	228.63
966.49	228.57
966.78	228.72
967.08	228.82
967.37	228.87
967.67	228.93
967.96	229.02
968.26	228.99
968.55	228.99
968.85	228.97
969.14	228.98
969.43	229.03
969.73	228.88
970.02	228.84
970.32	228.93
970.61	228.97
970.91	228.96
971.20	228.82
971.49	228.86
971.79	228.80
972.08	228.70
972.38	228.76
972.67	228.87
972.96	228.81
973.26	228.76
973.55	228.75
973.85	228.62
974.14	228.68
974.43	228.64
974.73	228.54
975.02	228.45
975.31	228.49
975.61	228.55
975.90	228.67
976.19	228.60
976.49	228.59
976.78	228.60
977.07	228.56
977.37	228.56
977.66	228.50
977.95	228.51
978.24	228.49
978.54	228.46
978.83	228.38
979.12	228.45
979.42	228.39
979.71	228.30
980.00	228.30
980.29	228.17
980.59	228.08
980.88	228.19
981.17	228.29
981.46	228.19
981.76	228.03
982.05	228.00
982.34	228.01
982.63	227.94
982.93	227.85
983.22	228.03
983.51	228.01
983.80	228.02
984.09	228.00
984.39	227.89
984.68	227.86
984.97	227.90
985.26	227.70
985.55	227.65
985.85	227.61
986.14	227.66
986.43	227.65
986.72	227.70
987.01	227.56
987.30	227.53
987.59	227.56
987.89	227.60
988.18	227.55
988.47	227.52
988.76	227.62
989.05	227.61
989.34	227.40
989.63	227.48
989.92	227.52
990.22	227.47
990.51	227.58
990.80	227.53
991.09	227.55
991.38	227.70
991.67	227.76
991.96	227.70
992.25	227.79
992.54	227.77
992.83	227.77
993.12	227.73
993.41	227.76
993.70	227.78
993.99	227.95
994.28	228.07
994.58	228.09
994.87	228.03
995.16	228.08
995.45	228.17
995.74	228.15
996.03	228.18
996.32	228.31
996.61	228.25
996.90	228.33
997.19	228.30
997.48	228.29
997.77	228.26
998.06	228.27
998.34	228.22
998.63	228.24
998.92	228.34
999.21	228.58
999.50	228.57
999.79	228.59
1000.08	228.51
1000.37	228.48
1000.66	228.58
1000.95	228.66
1001.24	228.70
1001.53	228.85
1001.82	228.92
1002.11	228.94
1002.40	228.80
1002.68	228.95
1002.97	229.09
1003.26	229.13
1003.55	229.25
1003.84	229.28
1004.13	229.48
1004.42	229.48
1004.71	229.56
1004.99	229.59
1005.28	229.53
1005.57	229.60
1005.86	229.65
1006.15	229.68
1006.44	229.67
1006.72	229.67
1007.01	229.61
1007.30	229.58
1007.59	229.36
1007.88	229.30
1008.17	229.34
1008.45	229.47
1008.74	229.30
1009.03	229.20
1009.32	229.13
1009.60	229.03
1009.89	229.07
1010.18	228.97
1010.47	228.98
1010.76	228.96
1011.04	228.87
1011.33	228.81
1011.62	228.85
1011.91	228.72
1012.19	228.65
1012.48	228.68
1012.77	228.61
1013.05	228.70
1013.34	228.70
1013.63	228.80
1013.92	228.85
1014.20	228.77
1014.49	228.72
1014.78	228.72
1015.06	228.70
1015.35	228.74
1015.64	228.77
1015.92	228.68
1016.21	228.64
1016.50	228.61
1016.78	228.53
1017.07	228.49
1017.36	228.45
1017.64	228.23
1017.93	228.32
1018.22	228.31
1018.50	228.26
1018.79	228.18
1019.08	228.06
1019.36	228.07
1019.65	227.86
1019.93	227.79
1020.22	227.80
1020.51	227.88
1020.79	227.92
1021.08	228.00
1021.36	228.60
1021.65	226.20
1021.94	227.80
1022.22	228.90
1022.51	225.10
1022.79	227.70
1023.08	229.20
1023.36	230.50
1023.65	227.90
>>>>>End Processed Spectral Data<<<<<
