SpectraSuite Data File
++++++++++++++++++++++++++++++++++++
Date: Fri Feb 01 14:39:40 EST 2013
User: group
Dark Spectrum Present: No
Reference Spectrum Present: No
Number of Sampled Component Spectra: 1
Spectrometers: USB2E7196
Integration Time (usec): 70000 (USB2E7196)
Spectra Averaged: 10 (USB2E7196)
Boxcar Smoothing: 10 (USB2E7196)
Correct for Electrical Dark: No (USB2E7196)
Strobe/Lamp Enabled: No (USB2E7196)
Correct for Detector Non-linearity: No (USB2E7196)
Correct for Stray Light: No (USB2E7196)
Number of Pixels in Processed Spectrum: 2048
>>>>>Begin Processed Spectral Data<<<<<
339.09	0.00
339.48	215.90
339.86	215.20
340.24	219.40
340.63	220.50
341.01	223.90
341.39	221.80
341.78	223.70
342.16	226.40
342.54	224.80
342.93	214.20
343.31	225.03
343.69	225.66
344.07	226.23
344.46	226.61
344.84	226.95
345.22	227.06
345.60	227.39
345.99	227.55
346.37	227.58
346.75	227.74
347.13	227.81
347.52	227.85
347.90	227.89
348.28	228.08
348.66	228.07
349.05	228.01
349.43	227.97
349.81	228.00
350.19	228.11
350.57	228.25
350.96	228.30
351.34	228.32
351.72	228.38
352.10	228.53
352.48	228.69
352.87	228.76
353.25	228.94
353.63	228.97
354.01	229.14
354.39	229.38
354.77	229.48
355.15	229.72
355.54	229.86
355.92	229.92
356.30	230.08
356.68	230.26
357.06	230.34
357.44	230.45
357.82	230.53
358.20	230.50
358.58	230.49
358.97	230.58
359.35	230.69
359.73	230.73
360.11	230.75
360.49	230.75
360.87	230.81
361.25	230.92
361.63	231.11
362.01	231.04
362.39	230.93
362.77	230.94
363.15	230.83
363.53	230.80
363.91	230.82
364.29	230.71
364.67	230.64
365.05	230.67
365.43	230.73
365.81	230.72
366.19	230.79
366.57	230.81
366.95	230.85
367.33	230.80
367.71	230.78
368.09	230.85
368.47	230.82
368.85	230.75
369.23	230.70
369.61	230.50
369.99	230.60
370.37	230.53
370.75	230.67
371.13	230.57
371.51	230.40
371.89	230.40
372.27	230.36
372.65	230.23
373.03	230.09
373.41	230.00
373.78	229.84
374.16	229.59
374.54	229.49
374.92	229.21
375.30	229.15
375.68	229.04
376.06	228.89
376.44	228.70
376.82	228.61
377.19	228.42
377.57	228.33
377.95	228.09
378.33	228.02
378.71	227.75
379.09	227.70
379.47	227.62
379.84	227.52
380.22	227.38
380.60	227.35
380.98	227.30
381.36	227.20
381.73	227.13
382.11	227.16
382.49	227.10
382.87	227.09
383.25	227.00
383.62	227.17
384.00	226.98
384.38	226.98
384.76	226.97
385.13	227.02
385.51	226.89
385.89	226.80
386.27	226.72
386.64	226.69
387.02	226.62
387.40	226.61
387.78	226.50
388.15	226.48
388.53	226.44
388.91	226.43
389.29	226.38
389.66	226.41
390.04	226.43
390.42	226.51
390.79	226.52
391.17	226.55
391.55	226.39
391.92	226.48
392.30	226.47
392.68	226.40
393.05	226.48
393.43	226.61
393.81	226.77
394.18	226.84
394.56	226.78
394.94	226.82
395.31	226.89
395.69	227.07
396.06	227.18
396.44	227.23
396.82	227.30
397.19	227.41
397.57	227.54
397.95	227.64
398.32	227.51
398.70	227.61
399.07	227.68
399.45	227.75
399.82	227.83
400.20	227.92
400.58	227.95
400.95	227.93
401.33	228.16
401.70	228.37
402.08	228.45
402.45	228.66
402.83	228.90
403.20	229.02
403.58	229.13
403.95	229.24
404.33	229.42
404.71	229.59
405.08	229.81
405.46	229.82
405.83	229.98
406.21	230.24
406.58	230.39
406.96	230.57
407.33	230.69
407.70	230.87
408.08	231.27
408.45	231.53
408.83	231.85
409.20	231.91
409.58	231.97
409.95	232.30
410.33	232.48
410.70	232.62
411.08	232.91
411.45	233.19
411.82	233.47
412.20	233.72
412.57	234.08
412.95	234.31
413.32	234.71
413.69	235.00
414.07	235.40
414.44	235.82
414.82	236.29
415.19	236.79
415.56	237.24
415.94	237.65
416.31	238.34
416.68	238.83
417.06	239.55
417.43	240.25
417.81	240.91
418.18	241.71
418.55	242.49
418.93	243.29
419.30	244.14
419.67	245.01
420.04	245.94
420.42	246.93
420.79	248.12
421.16	249.20
421.54	250.42
421.91	251.55
422.28	252.88
422.66	254.21
423.03	255.45
423.40	256.86
423.77	258.31
424.15	259.74
424.52	261.17
424.89	262.78
425.26	264.41
425.64	265.88
426.01	267.51
426.38	269.18
426.75	270.96
427.13	272.73
427.50	274.58
427.87	276.60
428.24	278.44
428.61	280.18
428.99	282.35
429.36	284.62
429.73	286.88
430.10	288.94
430.47	291.15
430.85	293.43
431.22	295.71
431.59	298.21
431.96	300.61
432.33	303.39
432.70	305.89
433.08	308.92
433.45	311.86
433.82	314.63
434.19	317.72
434.56	320.88
434.93	323.84
435.30	326.78
435.68	329.79
436.05	333.08
436.42	336.27
436.79	339.04
437.16	342.04
437.53	345.07
437.90	348.16
438.27	351.09
438.64	354.34
439.01	357.19
439.38	359.85
439.75	362.28
440.13	365.09
440.50	367.84
440.87	369.97
441.24	372.15
441.61	374.71
441.98	376.52
442.35	378.58
442.72	380.64
443.09	382.82
443.46	384.12
443.83	384.90
444.20	385.60
444.57	386.78
444.94	387.24
445.31	387.86
445.68	388.72
446.05	389.02
446.42	388.74
446.79	388.70
447.16	388.24
447.53	388.13
447.90	387.09
448.27	386.00
448.64	384.30
449.01	383.35
449.37	381.30
449.74	379.41
450.11	377.14
450.48	374.78
450.85	371.99
451.22	369.70
451.59	367.50
451.96	365.48
452.33	362.69
452.70	360.27
453.07	357.34
453.43	354.07
453.80	351.20
454.17	348.36
454.54	345.60
454.91	342.79
455.28	339.88
455.65	337.17
456.02	334.74
456.38	332.51
456.75	329.59
457.12	327.14
457.49	324.78
457.86	322.39
458.23	320.15
458.59	318.02
458.96	315.89
459.33	313.87
459.70	311.80
460.07	310.06
460.43	307.96
460.80	306.10
461.17	304.51
461.54	302.80
461.91	301.16
462.27	299.54
462.64	298.02
463.01	296.46
463.38	294.93
463.74	293.17
464.11	291.76
464.48	290.54
464.85	289.24
465.21	288.13
465.58	287.06
465.95	285.80
466.32	284.70
466.68	283.60
467.05	282.55
467.42	281.45
467.78	280.27
468.15	279.34
468.52	278.53
468.88	277.48
469.25	276.59
469.62	275.85
469.98	274.93
470.35	274.18
470.72	273.54
471.08	272.68
471.45	271.94
471.82	271.28
472.18	270.50
472.55	269.93
472.92	269.30
473.28	268.55
473.65	268.01
474.02	267.40
474.38	266.84
474.75	266.40
475.11	266.01
475.48	265.71
475.85	265.20
476.21	264.83
476.58	264.48
476.94	264.06
477.31	263.75
477.67	263.44
478.04	263.03
478.41	262.58
478.77	262.47
479.14	262.16
479.50	261.99
479.87	261.74
480.23	261.62
480.60	261.43
480.96	261.19
481.33	261.05
481.69	260.93
482.06	260.80
482.42	260.58
482.79	260.38
483.15	260.25
483.52	260.33
483.88	260.12
484.25	259.98
484.61	259.95
484.98	259.75
485.34	259.79
485.71	259.87
486.07	260.04
486.44	259.90
486.80	259.91
487.17	259.92
487.53	260.15
487.90	260.27
488.26	260.45
488.62	260.80
488.99	260.85
489.35	260.92
489.72	261.15
490.08	261.31
490.44	261.43
490.81	261.70
491.17	261.80
491.54	262.10
491.90	262.35
492.26	262.64
492.63	262.96
492.99	263.19
493.36	263.59
493.72	263.91
494.08	264.31
494.45	264.69
494.81	265.07
495.17	265.36
495.54	265.73
495.90	266.14
496.26	266.50
496.63	267.04
496.99	267.64
497.35	268.11
497.72	268.67
498.08	269.30
498.44	269.88
498.80	270.59
499.17	271.22
499.53	271.86
499.89	272.53
500.26	273.30
500.62	273.96
500.98	274.83
501.34	275.53
501.71	276.45
502.07	277.41
502.43	278.43
502.79	279.38
503.16	280.47
503.52	281.56
503.88	282.57
504.24	283.80
504.60	284.94
504.97	286.23
505.33	287.62
505.69	289.07
506.05	290.53
506.41	291.99
506.78	293.57
507.14	295.33
507.50	297.12
507.86	298.99
508.22	301.01
508.59	302.86
508.95	305.00
509.31	307.25
509.67	309.43
510.03	311.70
510.39	314.14
510.75	316.46
511.12	318.96
511.48	321.66
511.84	324.26
512.20	327.17
512.56	330.18
512.92	333.31
513.28	336.28
513.64	339.42
514.00	342.83
514.37	346.16
514.73	349.61
515.09	353.11
515.45	356.69
515.81	360.40
516.17	364.23
516.53	368.21
516.89	372.10
517.25	376.40
517.61	380.66
517.97	384.90
518.33	389.50
518.69	394.06
519.05	398.96
519.41	403.75
519.77	408.75
520.13	413.61
520.49	418.64
520.85	424.05
521.21	429.45
521.57	434.88
521.93	440.41
522.29	446.17
522.65	451.79
523.01	457.69
523.37	463.58
523.73	469.70
524.09	475.70
524.45	482.00
524.81	488.27
525.17	494.84
525.53	501.38
525.89	508.06
526.25	514.74
526.61	521.20
526.97	528.09
527.33	535.19
527.68	542.61
528.04	549.92
528.40	557.14
528.76	564.68
529.12	572.19
529.48	579.96
529.84	587.42
530.20	595.31
530.56	603.26
530.91	611.47
531.27	619.30
531.63	627.40
531.99	635.63
532.35	643.67
532.71	651.64
533.07	660.20
533.42	668.45
533.78	676.79
534.14	685.40
534.50	693.74
534.86	702.22
535.21	710.35
535.57	719.10
535.93	727.64
536.29	736.23
536.65	744.98
537.00	753.42
537.36	762.26
537.72	770.98
538.08	779.39
538.44	787.70
538.79	796.50
539.15	805.03
539.51	813.82
539.87	822.90
540.22	831.74
540.58	840.47
540.94	849.12
541.29	857.79
541.65	866.25
542.01	874.97
542.37	883.41
542.72	892.08
543.08	900.30
543.44	909.00
543.79	916.80
544.15	924.91
544.51	933.80
544.87	942.53
545.22	950.59
545.58	959.06
545.94	967.10
546.29	974.86
546.65	983.01
547.01	990.44
547.36	998.16
547.72	1005.74
548.07	1013.36
548.43	1020.50
548.79	1027.97
549.14	1035.57
549.50	1042.60
549.86	1049.66
550.21	1056.86
550.57	1064.10
550.92	1071.27
551.28	1078.54
551.64	1085.67
551.99	1092.39
552.35	1098.90
552.70	1105.82
553.06	1112.55
553.41	1119.46
553.77	1126.68
554.13	1133.31
554.48	1140.25
554.84	1146.21
555.19	1152.90
555.55	1159.40
555.90	1165.75
556.26	1171.81
556.61	1177.80
556.97	1184.21
557.32	1190.21
557.68	1196.20
558.03	1202.18
558.39	1207.70
558.74	1213.66
559.10	1219.37
559.45	1224.90
559.81	1230.50
560.16	1235.94
560.52	1241.22
560.87	1246.74
561.23	1251.50
561.58	1256.82
561.94	1261.75
562.29	1266.92
562.64	1271.40
563.00	1275.82
563.35	1281.17
563.71	1286.58
564.06	1291.53
564.42	1296.26
564.77	1301.03
565.12	1305.43
565.48	1309.55
565.83	1313.45
566.19	1317.52
566.54	1321.54
566.89	1325.20
567.25	1329.00
567.60	1333.27
567.96	1337.23
568.31	1340.81
568.66	1344.45
569.02	1347.45
569.37	1350.68
569.72	1353.88
570.08	1357.10
570.43	1359.91
570.78	1362.59
571.14	1364.55
571.49	1366.82
571.84	1369.66
572.20	1371.73
572.55	1373.81
572.90	1375.66
573.26	1377.80
573.61	1379.65
573.96	1380.95
574.31	1382.43
574.67	1383.20
575.02	1383.60
575.37	1384.35
575.72	1384.60
576.08	1385.42
576.43	1386.28
576.78	1386.73
577.13	1387.57
577.49	1387.94
577.84	1388.30
578.19	1388.47
578.54	1388.80
578.90	1388.70
579.25	1387.70
579.60	1387.61
579.95	1387.11
580.30	1386.55
580.66	1385.69
581.01	1384.89
581.36	1384.52
581.71	1384.07
582.06	1383.66
582.42	1382.98
582.77	1382.02
583.12	1381.07
583.47	1379.81
583.82	1378.94
584.17	1377.94
584.53	1376.23
584.88	1375.30
585.23	1374.20
585.58	1373.08
585.93	1372.05
586.28	1371.28
586.63	1370.30
586.98	1368.98
587.34	1368.04
587.69	1366.62
588.04	1365.62
588.39	1364.27
588.74	1362.05
589.09	1359.98
589.44	1357.43
589.79	1355.47
590.14	1353.70
590.49	1351.95
590.84	1349.85
591.19	1347.56
591.54	1344.87
591.89	1342.11
592.25	1339.20
592.60	1335.90
592.95	1332.63
593.30	1329.40
593.65	1325.92
594.00	1322.96
594.35	1320.40
594.70	1316.57
595.05	1313.59
595.40	1310.16
595.75	1306.94
596.10	1304.34
596.45	1301.35
596.80	1299.04
597.15	1296.23
597.50	1293.10
597.85	1290.38
598.19	1287.90
598.54	1285.05
598.89	1282.18
599.24	1280.05
599.59	1277.25
599.94	1275.17
600.29	1272.39
600.64	1269.20
600.99	1265.80
601.34	1262.57
601.69	1258.82
602.04	1256.17
602.39	1253.16
602.74	1250.32
603.08	1247.34
603.43	1244.42
603.78	1241.38
604.13	1238.01
604.48	1234.58
604.83	1231.00
605.18	1227.32
605.53	1223.26
605.87	1218.81
606.22	1215.22
606.57	1211.13
606.92	1207.31
607.27	1203.27
607.62	1199.85
607.96	1196.70
608.31	1193.29
608.66	1189.51
609.01	1185.52
609.36	1181.16
609.70	1176.43
610.05	1171.92
610.40	1167.69
610.75	1163.24
611.10	1158.64
611.44	1153.57
611.79	1149.36
612.14	1145.03
612.49	1140.17
612.83	1135.47
613.18	1131.25
613.53	1126.87
613.88	1122.15
614.22	1117.58
614.57	1112.72
614.92	1107.63
615.27	1102.76
615.61	1098.04
615.96	1093.34
616.31	1089.05
616.65	1085.18
617.00	1081.32
617.35	1077.07
617.70	1072.40
618.04	1067.42
618.39	1062.75
618.74	1058.66
619.08	1053.71
619.43	1049.15
619.78	1045.11
620.12	1041.04
620.47	1036.92
620.82	1032.15
621.16	1027.84
621.51	1023.60
621.85	1019.30
622.20	1014.79
622.55	1010.45
622.89	1006.13
623.24	1001.94
623.59	997.48
623.93	992.98
624.28	988.47
624.62	984.14
624.97	979.77
625.32	975.85
625.66	971.74
626.01	967.70
626.35	963.57
626.70	959.42
627.04	955.24
627.39	950.55
627.73	945.90
628.08	941.74
628.43	937.39
628.77	932.75
629.12	928.35
629.46	924.01
629.81	919.15
630.15	914.40
630.50	909.77
630.84	904.93
631.19	899.97
631.53	895.37
631.88	890.27
632.22	885.55
632.57	880.89
632.91	876.30
633.26	871.56
633.60	866.86
633.95	861.92
634.29	857.20
634.64	853.10
634.98	848.73
635.32	844.46
635.67	840.25
636.01	836.20
636.36	831.72
636.70	827.57
637.05	823.58
637.39	819.87
637.73	815.55
638.08	811.84
638.42	808.18
638.77	804.38
639.11	800.38
639.45	796.28
639.80	792.11
640.14	788.18
640.49	783.93
640.83	779.91
641.17	775.97
641.52	771.81
641.86	767.51
642.20	763.61
642.55	759.40
642.89	755.34
643.23	751.24
643.58	747.49
643.92	743.28
644.26	739.18
644.61	735.17
644.95	731.16
645.29	726.78
645.64	722.15
645.98	717.93
646.32	714.29
646.66	710.22
647.01	706.20
647.35	702.15
647.69	698.54
648.04	694.85
648.38	691.01
648.72	686.89
649.06	682.81
649.41	678.69
649.75	674.58
650.09	670.45
650.43	666.46
650.78	662.33
651.12	658.56
651.46	654.77
651.80	650.93
652.14	647.29
652.49	643.48
652.83	640.08
653.17	636.27
653.51	632.33
653.85	628.89
654.20	625.17
654.54	621.37
654.88	617.48
655.22	613.33
655.56	609.48
655.90	606.15
656.25	602.67
656.59	599.16
656.93	595.88
657.27	592.45
657.61	588.65
657.95	585.46
658.29	582.09
658.64	578.75
658.98	575.28
659.32	571.84
659.66	568.67
660.00	565.33
660.34	562.05
660.68	558.70
661.02	555.35
661.36	552.27
661.70	549.13
662.05	546.09
662.39	543.41
662.73	540.57
663.07	537.62
663.41	534.67
663.75	531.73
664.09	528.91
664.43	526.00
664.77	523.31
665.11	520.63
665.45	517.91
665.79	515.10
666.13	512.20
666.47	509.50
666.81	506.56
667.15	503.74
667.49	501.03
667.83	498.65
668.17	495.82
668.51	493.11
668.85	490.46
669.19	488.09
669.53	485.49
669.87	482.91
670.21	480.26
670.55	477.84
670.89	475.67
671.23	473.19
671.57	470.86
671.91	468.53
672.25	466.10
672.58	463.65
672.92	461.20
673.26	459.03
673.60	456.91
673.94	454.84
674.28	452.89
674.62	450.78
674.96	448.63
675.30	446.59
675.64	444.47
675.97	442.46
676.31	440.16
676.65	438.11
676.99	436.27
677.33	434.16
677.67	432.14
678.01	429.97
678.34	427.85
678.68	425.82
679.02	423.94
679.36	421.87
679.70	420.02
680.04	418.13
680.37	416.23
680.71	414.14
681.05	412.44
681.39	410.58
681.73	408.89
682.06	407.03
682.40	405.33
682.74	403.70
683.08	402.04
683.42	400.31
683.75	398.47
684.09	396.53
684.43	394.82
684.77	393.11
685.10	391.11
685.44	389.55
685.78	387.94
686.12	386.20
686.45	384.60
686.79	382.90
687.13	381.20
687.46	379.52
687.80	377.93
688.14	376.05
688.48	374.36
688.81	372.59
689.15	371.04
689.49	369.37
689.82	367.70
690.16	366.00
690.50	364.64
690.83	363.16
691.17	361.63
691.51	360.18
691.84	358.85
692.18	357.54
692.52	355.87
692.85	354.39
693.19	352.89
693.52	351.21
693.86	349.81
694.20	348.46
694.53	347.01
694.87	345.63
695.21	344.37
695.54	342.95
695.88	341.62
696.21	340.10
696.55	338.81
696.88	337.50
697.22	336.20
697.56	334.76
697.89	333.44
698.23	332.12
698.56	330.89
698.90	329.50
699.23	328.23
699.57	327.08
699.90	325.81
700.24	324.55
700.58	323.46
700.91	322.22
701.25	321.20
701.58	320.09
701.92	319.02
702.25	317.97
702.59	316.93
702.92	315.85
703.26	314.94
703.59	314.00
703.93	313.24
704.26	312.24
704.60	311.30
704.93	310.33
705.26	309.37
705.60	308.42
705.93	307.61
706.27	306.84
706.60	306.18
706.94	305.39
707.27	304.68
707.61	303.95
707.94	303.24
708.27	302.40
708.61	301.70
708.94	300.81
709.28	299.96
709.61	299.20
709.94	298.51
710.28	297.72
710.61	297.00
710.95	296.05
711.28	295.55
711.61	294.80
711.95	294.12
712.28	293.50
712.61	292.76
712.95	292.03
713.28	291.36
713.61	290.45
713.95	289.73
714.28	289.06
714.61	288.46
714.95	287.80
715.28	287.04
715.61	286.23
715.95	285.65
716.28	285.10
716.61	284.46
716.95	283.75
717.28	283.10
717.61	282.43
717.94	281.87
718.28	281.11
718.61	280.51
718.94	280.00
719.27	279.40
719.61	278.84
719.94	278.28
720.27	277.57
720.60	277.09
720.94	276.51
721.27	275.96
721.60	275.44
721.93	274.80
722.27	274.48
722.60	274.08
722.93	273.69
723.26	273.16
723.59	272.55
723.93	272.11
724.26	271.68
724.59	271.21
724.92	270.68
725.25	270.25
725.59	269.79
725.92	269.17
726.25	268.73
726.58	268.41
726.91	268.00
727.24	267.66
727.57	267.19
727.91	266.82
728.24	266.31
728.57	265.82
728.90	265.42
729.23	264.86
729.56	264.53
729.89	264.08
730.22	263.60
730.55	263.33
730.89	263.01
731.22	262.60
731.55	262.11
731.88	261.72
732.21	261.25
732.54	260.89
732.87	260.68
733.20	260.35
733.53	260.01
733.86	259.64
734.19	259.18
734.52	258.89
734.85	258.71
735.18	258.33
735.51	258.09
735.84	257.77
736.17	257.50
736.50	257.03
736.83	256.84
737.16	256.51
737.49	256.13
737.82	255.73
738.15	255.40
738.48	255.20
738.81	254.82
739.14	254.49
739.47	254.11
739.80	253.68
740.13	253.41
740.46	252.97
740.79	252.72
741.12	252.46
741.45	252.07
741.78	251.63
742.11	251.43
742.44	251.08
742.77	250.92
743.10	250.59
743.43	250.45
743.75	249.97
744.08	249.92
744.41	249.78
744.74	249.58
745.07	249.42
745.40	249.24
745.73	249.12
746.06	248.92
746.39	248.77
746.71	248.66
747.04	248.33
747.37	248.20
747.70	247.89
748.03	247.75
748.36	247.80
748.68	247.67
749.01	247.56
749.34	247.32
749.67	247.15
750.00	246.90
750.33	246.74
750.65	246.63
750.98	246.31
751.31	246.05
751.64	245.83
751.97	245.69
752.29	245.41
752.62	245.16
752.95	244.92
753.28	244.81
753.60	244.65
753.93	244.54
754.26	244.38
754.59	244.27
754.91	244.05
755.24	243.82
755.57	243.66
755.90	243.47
756.22	243.37
756.55	243.13
756.88	243.20
757.20	242.98
757.53	242.82
757.86	242.73
758.19	242.60
758.51	242.54
758.84	242.37
759.17	242.29
759.49	242.19
759.82	242.30
760.15	242.12
760.47	241.99
760.80	241.90
761.13	241.69
761.45	241.56
761.78	241.54
762.11	241.40
762.43	241.33
762.76	241.18
763.08	240.99
763.41	240.89
763.74	240.65
764.06	240.59
764.39	240.34
764.71	240.08
765.04	240.03
765.37	239.79
765.69	239.62
766.02	239.44
766.34	239.39
766.67	239.08
767.00	238.99
767.32	238.89
767.65	238.80
767.97	238.76
768.30	238.62
768.62	238.46
768.95	238.27
769.27	238.04
769.60	237.94
769.92	237.77
770.25	237.63
770.57	237.38
770.90	237.14
771.22	237.09
771.55	237.00
771.87	236.75
772.20	236.56
772.52	236.62
772.85	236.69
773.17	236.61
773.50	236.44
773.82	236.29
774.15	236.12
774.47	235.85
774.80	235.77
775.12	235.60
775.45	235.36
775.77	235.17
776.09	235.07
776.42	234.99
776.74	235.03
777.07	234.84
777.39	234.84
777.72	234.67
778.04	234.60
778.36	234.50
778.69	234.52
779.01	234.57
779.33	234.27
779.66	234.07
779.98	233.85
780.31	233.85
780.63	233.92
780.95	233.80
781.28	233.84
781.60	233.69
781.92	233.60
782.25	233.65
782.57	233.59
782.89	233.53
783.22	233.48
783.54	233.29
783.86	233.28
784.19	233.14
784.51	233.23
784.83	233.11
785.16	233.02
785.48	232.93
785.80	232.84
786.12	232.88
786.45	232.77
786.77	232.80
787.09	232.72
787.42	232.51
787.74	232.60
788.06	232.59
788.38	232.59
788.71	232.64
789.03	232.55
789.35	232.64
789.67	232.51
789.99	232.42
790.32	232.49
790.64	232.46
790.96	232.68
791.28	232.56
791.61	232.50
791.93	232.58
792.25	232.58
792.57	232.71
792.89	232.56
793.21	232.63
793.54	232.58
793.86	232.57
794.18	232.62
794.50	232.64
794.82	232.51
795.14	232.51
795.47	232.50
795.79	232.60
796.11	232.59
796.43	232.69
796.75	232.72
797.07	232.70
797.39	232.73
797.71	232.53
798.04	232.49
798.36	232.60
798.68	232.47
799.00	232.45
799.32	232.32
799.64	232.45
799.96	232.42
800.28	232.44
800.60	232.48
800.92	232.44
801.24	232.36
801.56	232.46
801.89	232.47
802.21	232.43
802.53	232.27
802.85	232.25
803.17	232.30
803.49	232.19
803.81	232.17
804.13	232.01
804.45	232.08
804.77	232.11
805.09	232.07
805.41	232.10
805.73	232.00
806.05	231.95
806.37	231.85
806.69	231.77
807.01	231.73
807.33	231.55
807.65	231.48
807.97	231.42
808.28	231.32
808.60	231.15
808.92	231.06
809.24	231.17
809.56	231.08
809.88	230.92
810.20	230.90
810.52	230.88
810.84	230.91
811.16	230.77
811.48	230.76
811.80	230.75
812.12	230.76
812.43	230.70
812.75	230.60
813.07	230.54
813.39	230.44
813.71	230.29
814.03	230.34
814.35	230.25
814.67	230.14
814.98	230.00
815.30	230.05
815.62	229.97
815.94	229.83
816.26	229.92
816.58	229.84
816.89	229.70
817.21	229.55
817.53	229.55
817.85	229.49
818.17	229.32
818.48	229.24
818.80	229.16
819.12	229.10
819.44	229.17
819.76	229.11
820.07	229.17
820.39	229.20
820.71	229.17
821.03	229.17
821.34	229.12
821.66	229.16
821.98	229.21
822.30	229.14
822.61	229.17
822.93	229.00
823.25	229.03
823.57	229.12
823.88	229.20
824.20	229.16
824.52	229.21
824.83	229.29
825.15	229.26
825.47	229.34
825.79	229.43
826.10	229.37
826.42	229.35
826.74	229.36
827.05	229.36
827.37	229.33
827.69	229.38
828.00	229.32
828.32	229.35
828.64	229.31
828.95	229.44
829.27	229.51
829.58	229.50
829.90	229.47
830.22	229.42
830.53	229.31
830.85	229.34
831.17	229.26
831.48	229.24
831.80	229.30
832.11	229.19
832.43	229.19
832.75	229.21
833.06	229.34
833.38	229.32
833.69	229.33
834.01	229.36
834.32	229.32
834.64	229.41
834.96	229.41
835.27	229.40
835.59	229.45
835.90	229.42
836.22	229.41
836.53	229.37
836.85	229.55
837.16	229.75
837.48	229.69
837.79	229.74
838.11	229.62
838.42	229.56
838.74	229.70
839.05	229.57
839.37	229.46
839.68	229.33
840.00	229.36
840.31	229.45
840.63	229.44
840.94	229.45
841.26	229.46
841.57	229.49
841.88	229.43
842.20	229.47
842.51	229.42
842.83	229.48
843.14	229.70
843.46	229.58
843.77	229.42
844.08	229.44
844.40	229.36
844.71	229.38
845.03	229.45
845.34	229.34
845.65	229.37
845.97	229.42
846.28	229.43
846.60	229.44
846.91	229.37
847.22	229.34
847.54	229.40
847.85	229.33
848.16	229.29
848.48	229.25
848.79	229.21
849.10	229.13
849.42	229.16
849.73	228.98
850.04	228.99
850.36	229.01
850.67	229.04
850.98	229.14
851.30	229.19
851.61	229.15
851.92	229.16
852.23	229.27
852.55	229.20
852.86	229.24
853.17	229.06
853.49	229.10
853.80	229.13
854.11	228.91
854.42	228.93
854.74	228.86
855.05	228.87
855.36	228.68
855.67	228.76
855.99	228.63
856.30	228.87
856.61	228.82
856.92	228.77
857.23	228.76
857.55	228.70
857.86	228.71
858.17	228.76
858.48	228.69
858.79	228.63
859.11	228.71
859.42	228.63
859.73	228.73
860.04	228.71
860.35	228.73
860.66	228.73
860.98	228.74
861.29	228.73
861.60	228.74
861.91	228.79
862.22	228.75
862.53	228.80
862.84	228.52
863.16	228.57
863.47	228.53
863.78	228.49
864.09	228.49
864.40	228.51
864.71	228.52
865.02	228.54
865.33	228.54
865.64	228.53
865.95	228.63
866.27	228.73
866.58	228.64
866.89	228.60
867.20	228.78
867.51	228.78
867.82	228.80
868.13	228.91
868.44	228.90
868.75	229.01
869.06	229.14
869.37	229.15
869.68	229.04
869.99	229.11
870.30	229.23
870.61	229.31
870.92	229.25
871.23	229.15
871.54	229.13
871.85	229.18
872.16	229.24
872.47	229.13
872.78	228.98
873.09	229.12
873.40	229.08
873.71	229.05
874.02	229.04
874.33	229.00
874.64	228.90
874.95	228.99
875.26	228.83
875.56	228.64
875.87	228.62
876.18	228.60
876.49	228.70
876.80	228.62
877.11	228.57
877.42	228.58
877.73	228.63
878.04	228.75
878.35	228.68
878.66	228.60
878.96	228.63
879.27	228.64
879.58	228.60
879.89	228.60
880.20	228.47
880.51	228.52
880.82	228.53
881.12	228.54
881.43	228.49
881.74	228.55
882.05	228.59
882.36	228.72
882.67	228.83
882.97	228.66
883.28	228.60
883.59	228.45
883.90	228.49
884.21	228.43
884.51	228.30
884.82	228.38
885.13	228.37
885.44	228.38
885.74	228.36
886.05	228.33
886.36	228.34
886.67	228.48
886.98	228.56
887.28	228.56
887.59	228.49
887.90	228.54
888.20	228.46
888.51	228.47
888.82	228.32
889.13	228.30
889.43	228.43
889.74	228.40
890.05	228.48
890.35	228.40
890.66	228.49
890.97	228.50
891.28	228.32
891.58	228.40
891.89	228.38
892.20	228.37
892.50	228.36
892.81	228.36
893.12	228.29
893.42	228.27
893.73	228.40
894.04	228.45
894.34	228.30
894.65	228.32
894.95	228.27
895.26	228.29
895.57	228.37
895.87	228.19
896.18	228.26
896.48	228.33
896.79	228.36
897.10	228.30
897.40	228.34
897.71	228.50
898.01	228.41
898.32	228.43
898.63	228.45
898.93	228.44
899.24	228.47
899.54	228.47
899.85	228.41
900.15	228.46
900.46	228.43
900.76	228.58
901.07	228.65
901.38	228.69
901.68	228.76
901.99	228.68
902.29	228.81
902.60	228.90
902.90	228.86
903.21	228.80
903.51	228.76
903.82	228.82
904.12	228.83
904.43	228.88
904.73	228.88
905.03	228.96
905.34	229.21
905.64	229.15
905.95	229.18
906.25	229.22
906.56	229.24
906.86	229.24
907.17	229.22
907.47	229.20
907.77	229.30
908.08	229.27
908.38	229.31
908.69	229.33
908.99	229.26
909.30	229.32
909.60	229.43
909.90	229.48
910.21	229.34
910.51	229.36
910.81	229.28
911.12	229.38
911.42	229.36
911.73	229.15
912.03	229.22
912.33	229.32
912.64	229.21
912.94	229.02
913.24	228.98
913.55	228.87
913.85	228.89
914.15	228.81
914.46	228.84
914.76	228.78
915.06	228.74
915.37	228.75
915.67	228.62
915.97	228.53
916.27	228.50
916.58	228.51
916.88	228.42
917.18	228.44
917.49	228.43
917.79	228.29
918.09	228.31
918.39	228.28
918.70	228.19
919.00	228.18
919.30	228.37
919.60	228.38
919.91	228.55
920.21	228.54
920.51	228.51
920.81	228.49
921.12	228.43
921.42	228.47
921.72	228.40
922.02	228.40
922.32	228.57
922.63	228.57
922.93	228.64
923.23	228.69
923.53	228.63
923.83	228.53
924.13	228.64
924.44	228.56
924.74	228.62
925.04	228.64
925.34	228.57
925.64	228.45
925.94	228.35
926.24	228.34
926.55	228.26
926.85	228.19
927.15	228.14
927.45	228.21
927.75	228.11
928.05	228.19
928.35	228.25
928.65	228.19
928.95	228.12
929.26	228.10
929.56	228.09
929.86	228.19
930.16	228.17
930.46	228.18
930.76	228.20
931.06	228.11
931.36	228.04
931.66	228.15
931.96	228.13
932.26	228.22
932.56	228.12
932.86	228.14
933.16	228.28
933.46	228.23
933.76	228.24
934.06	228.36
934.36	228.43
934.66	228.40
934.96	228.35
935.26	228.44
935.56	228.48
935.86	228.38
936.16	228.38
936.46	228.44
936.76	228.38
937.06	228.40
937.36	228.48
937.66	228.56
937.96	228.53
938.26	228.48
938.56	228.44
938.86	228.45
939.16	228.53
939.46	228.54
939.76	228.65
940.06	228.67
940.35	228.51
940.65	228.44
940.95	228.49
941.25	228.49
941.55	228.41
941.85	228.40
942.15	228.55
942.45	228.55
942.75	228.50
943.04	228.56
943.34	228.53
943.64	228.53
943.94	228.39
944.24	228.39
944.54	228.46
944.84	228.52
945.13	228.53
945.43	228.50
945.73	228.57
946.03	228.53
946.33	228.50
946.62	228.47
946.92	228.38
947.22	228.50
947.52	228.40
947.82	228.46
948.11	228.48
948.41	228.35
948.71	228.30
949.01	228.39
949.31	228.37
949.60	228.35
949.90	228.32
950.20	228.38
950.50	228.32
950.79	228.30
951.09	228.38
951.39	228.35
951.69	228.26
951.98	228.20
952.28	228.20
952.58	228.11
952.87	228.20
953.17	228.27
953.47	228.01
953.76	228.00
954.06	227.92
954.36	227.84
954.66	227.88
954.95	227.92
955.25	227.89
955.55	227.87
955.84	227.76
956.14	227.72
956.44	227.70
956.73	227.70
957.03	227.68
957.32	227.63
957.62	227.54
957.92	227.58
958.21	227.48
958.51	227.60
958.81	227.64
959.10	227.60
959.40	227.60
959.69	227.62
959.99	227.78
960.29	227.86
960.58	227.84
960.88	227.96
961.17	227.87
961.47	227.87
961.76	227.88
962.06	228.00
962.36	228.04
962.65	228.09
962.95	228.12
963.24	228.07
963.54	228.09
963.83	228.10
964.13	228.13
964.42	227.99
964.72	227.85
965.01	227.91
965.31	227.89
965.60	227.89
965.90	228.17
966.19	228.06
966.49	227.99
966.78	228.03
967.08	228.01
967.37	228.03
967.67	227.88
967.96	227.88
968.26	227.90
968.55	227.82
968.85	227.81
969.14	227.93
969.43	227.95
969.73	228.02
970.02	228.05
970.32	228.03
970.61	228.19
970.91	228.23
971.20	228.23
971.49	228.32
971.79	228.33
972.08	228.23
972.38	228.25
972.67	228.33
972.96	228.28
973.26	228.21
973.55	228.40
973.85	228.62
974.14	228.62
974.43	228.72
974.73	228.75
975.02	228.69
975.31	228.52
975.61	228.54
975.90	228.37
976.19	228.40
976.49	228.40
976.78	228.41
977.07	228.33
977.37	228.32
977.66	228.30
977.95	228.24
978.24	228.24
978.54	228.30
978.83	228.32
979.12	228.36
979.42	228.37
979.71	228.25
980.00	228.15
980.29	228.20
980.59	228.00
980.88	228.08
981.17	228.10
981.46	228.18
981.76	228.35
982.05	228.51
982.34	228.55
982.63	228.52
982.93	228.41
983.22	228.50
983.51	228.50
983.80	228.58
984.09	228.58
984.39	228.53
984.68	228.48
984.97	228.47
985.26	228.50
985.55	228.51
985.85	228.49
986.14	228.42
986.43	228.43
986.72	228.50
987.01	228.44
987.30	228.40
987.59	228.26
987.89	228.12
988.18	227.99
988.47	227.96
988.76	227.95
989.05	227.98
989.34	227.96
989.63	227.97
989.92	227.82
990.22	227.80
990.51	227.72
990.80	227.73
991.09	227.66
991.38	227.58
991.67	227.51
991.96	227.47
992.25	227.36
992.54	227.15
992.83	227.10
993.12	227.07
993.41	227.08
993.70	227.20
993.99	227.19
994.28	227.20
994.58	227.22
994.87	227.16
995.16	227.18
995.45	227.16
995.74	227.02
996.03	227.09
996.32	227.10
996.61	227.11
996.90	227.09
997.19	227.12
997.48	227.19
997.77	227.15
998.06	227.17
998.34	227.21
998.63	227.31
998.92	227.17
999.21	227.20
999.50	227.28
999.79	227.23
1000.08	227.18
1000.37	227.13
1000.66	227.07
1000.95	227.15
1001.24	227.20
1001.53	227.21
1001.82	227.27
1002.11	227.24
1002.40	227.33
1002.68	227.45
1002.97	227.64
1003.26	227.64
1003.55	227.56
1003.84	227.65
1004.13	227.69
1004.42	227.78
1004.71	227.88
1004.99	228.05
1005.28	228.15
1005.57	228.08
1005.86	228.06
1006.15	228.15
1006.44	228.33
1006.72	228.46
1007.01	228.41
1007.30	228.40
1007.59	228.44
1007.88	228.50
1008.17	228.64
1008.45	228.61
1008.74	228.57
1009.03	228.51
1009.32	228.50
1009.60	228.57
1009.89	228.57
1010.18	228.55
1010.47	228.62
1010.76	228.56
1011.04	228.56
1011.33	228.55
1011.62	228.62
1011.91	228.70
1012.19	228.69
1012.48	228.59
1012.77	228.58
1013.05	228.73
1013.34	228.76
1013.63	228.68
1013.92	228.71
1014.20	228.62
1014.49	228.65
1014.78	228.64
1015.06	228.55
1015.35	228.57
1015.64	228.65
1015.92	228.63
1016.21	228.69
1016.50	228.62
1016.78	228.64
1017.07	228.66
1017.36	228.61
1017.64	228.62
1017.93	228.76
1018.22	228.69
1018.50	228.67
1018.79	228.61
1019.08	228.46
1019.36	228.47
1019.65	228.48
1019.93	228.43
1020.22	228.36
1020.51	228.33
1020.79	228.27
1021.08	227.40
1021.36	227.50
1021.65	228.30
1021.94	226.50
1022.22	228.90
1022.51	227.70
1022.79	227.90
1023.08	227.00
1023.36	228.50
1023.65	227.40
>>>>>End Processed Spectral Data<<<<<
