SpectraSuite Data File
++++++++++++++++++++++++++++++++++++
Date: Fri Feb 01 14:37:44 EST 2013
User: group
Dark Spectrum Present: No
Reference Spectrum Present: No
Number of Sampled Component Spectra: 1
Spectrometers: USB2E7196
Integration Time (usec): 70000 (USB2E7196)
Spectra Averaged: 10 (USB2E7196)
Boxcar Smoothing: 10 (USB2E7196)
Correct for Electrical Dark: No (USB2E7196)
Strobe/Lamp Enabled: No (USB2E7196)
Correct for Detector Non-linearity: No (USB2E7196)
Correct for Stray Light: No (USB2E7196)
Number of Pixels in Processed Spectrum: 2048
>>>>>Begin Processed Spectral Data<<<<<
339.09	0.00
339.48	215.40
339.86	217.60
340.24	219.10
340.63	221.90
341.01	225.20
341.39	222.70
341.78	223.30
342.16	226.40
342.54	226.20
342.93	214.60
343.31	225.39
343.69	225.99
344.07	226.47
344.46	226.91
344.84	227.17
345.22	227.38
345.60	227.67
345.99	227.89
346.37	227.99
346.75	228.17
347.13	228.26
347.52	228.30
347.90	228.22
348.28	228.20
348.66	228.26
349.05	228.30
349.43	228.46
349.81	228.51
350.19	228.58
350.57	228.68
350.96	228.81
351.34	228.93
351.72	229.01
352.10	229.10
352.48	229.18
352.87	229.36
353.25	229.37
353.63	229.36
354.01	229.43
354.39	229.44
354.77	229.47
355.15	229.54
355.54	229.65
355.92	229.74
356.30	229.79
356.68	230.05
357.06	230.00
357.44	229.94
357.82	230.11
358.20	230.19
358.58	230.20
358.97	230.32
359.35	230.43
359.73	230.38
360.11	230.43
360.49	230.43
360.87	230.35
361.25	230.38
361.63	230.55
362.01	230.61
362.39	230.70
362.77	230.70
363.15	230.71
363.53	230.70
363.91	230.71
364.29	230.82
364.67	230.58
365.05	230.58
365.43	230.67
365.81	230.59
366.19	230.53
366.57	230.56
366.95	230.52
367.33	230.39
367.71	230.45
368.09	230.36
368.47	230.29
368.85	230.23
369.23	230.19
369.61	230.02
369.99	229.96
370.37	229.94
370.75	229.98
371.13	229.90
371.51	229.70
371.89	229.57
372.27	229.37
372.65	229.33
373.03	229.16
373.41	229.05
373.78	228.93
374.16	228.87
374.54	228.71
374.92	228.63
375.30	228.56
375.68	228.47
376.06	228.43
376.44	228.49
376.82	228.45
377.19	228.33
377.57	228.36
377.95	228.22
378.33	228.11
378.71	227.92
379.09	227.81
379.47	227.90
379.84	227.77
380.22	227.85
380.60	227.71
380.98	227.73
381.36	227.68
381.73	227.63
382.11	227.56
382.49	227.57
382.87	227.44
383.25	227.42
383.62	227.57
384.00	227.50
384.38	227.30
384.76	227.30
385.13	227.27
385.51	227.14
385.89	227.09
386.27	227.03
386.64	226.93
387.02	226.89
387.40	226.79
387.78	226.80
388.15	226.70
388.53	226.68
388.91	226.63
389.29	226.46
389.66	226.50
390.04	226.43
390.42	226.46
390.79	226.46
391.17	226.44
391.55	226.17
391.92	226.15
392.30	226.27
392.68	226.23
393.05	226.32
393.43	226.30
393.81	226.37
394.18	226.33
394.56	226.34
394.94	226.34
395.31	226.34
395.69	226.37
396.06	226.37
396.44	226.45
396.82	226.50
397.19	226.67
397.57	226.70
397.95	226.71
398.32	226.54
398.70	226.52
399.07	226.63
399.45	226.80
399.82	226.96
400.20	227.02
400.58	227.18
400.95	227.10
401.33	227.26
401.70	227.51
402.08	227.63
402.45	227.80
402.83	227.97
403.20	228.14
403.58	228.43
403.95	228.59
404.33	228.75
404.71	228.86
405.08	229.16
405.46	229.28
405.83	229.65
406.21	229.94
406.58	230.24
406.96	230.45
407.33	230.53
407.70	230.72
408.08	231.04
408.45	231.33
408.83	231.77
409.20	232.00
409.58	232.16
409.95	232.47
410.33	232.89
410.70	233.30
411.08	233.70
411.45	234.02
411.82	234.45
412.20	234.88
412.57	235.60
412.95	235.94
413.32	236.51
413.69	236.94
414.07	237.60
414.44	238.26
414.82	238.91
415.19	239.79
415.56	240.65
415.94	241.46
416.31	242.27
416.68	243.17
417.06	244.27
417.43	245.33
417.81	246.51
418.18	247.63
418.55	248.86
418.93	250.22
419.30	251.56
419.67	252.98
420.04	254.49
420.42	255.90
420.79	257.70
421.16	259.42
421.54	261.33
421.91	263.22
422.28	265.21
422.66	267.33
423.03	269.34
423.40	271.37
423.77	273.53
424.15	275.86
424.52	278.29
424.89	280.80
425.26	283.26
425.64	285.61
426.01	288.21
426.38	290.97
426.75	293.67
427.13	296.63
427.50	299.67
427.87	302.72
428.24	305.88
428.61	308.88
428.99	312.20
429.36	315.65
429.73	319.15
430.10	322.53
430.47	326.07
430.85	329.76
431.22	333.60
431.59	337.69
431.96	341.53
432.33	345.70
432.70	349.96
433.08	354.87
433.45	359.44
433.82	364.04
434.19	369.20
434.56	374.25
434.93	378.91
435.30	383.54
435.68	388.73
436.05	393.95
436.42	398.95
436.79	403.60
437.16	408.64
437.53	413.86
437.90	419.09
438.27	424.26
438.64	429.61
439.01	434.44
439.38	438.73
439.75	443.10
440.13	448.07
440.50	452.63
440.87	456.38
441.24	460.36
441.61	464.77
441.98	467.82
442.35	471.52
442.72	475.50
443.09	479.38
443.46	481.85
443.83	483.41
444.20	485.00
444.57	487.10
444.94	488.30
445.31	489.66
445.68	490.97
446.05	491.58
446.42	491.53
446.79	491.38
447.16	491.37
447.53	491.33
447.90	489.89
448.27	488.42
448.64	486.27
449.01	484.87
449.37	481.81
449.74	479.06
450.11	475.54
450.48	471.66
450.85	467.55
451.22	464.10
451.59	460.92
451.96	457.90
452.33	453.57
452.70	449.80
453.07	444.94
453.43	440.14
453.80	435.60
454.17	430.99
454.54	426.96
454.91	422.37
455.28	417.67
455.65	413.25
456.02	409.08
456.38	405.46
456.75	400.76
457.12	396.89
457.49	392.95
457.86	389.23
458.23	385.90
458.59	382.20
458.96	378.64
459.33	375.42
459.70	372.11
460.07	369.67
460.43	366.61
460.80	363.79
461.17	361.24
461.54	358.49
461.91	355.95
462.27	353.35
462.64	350.93
463.01	348.60
463.38	346.41
463.74	344.00
464.11	341.81
464.48	339.93
464.85	337.83
465.21	336.23
465.58	334.38
465.95	332.20
466.32	330.68
466.68	328.87
467.05	327.16
467.42	325.48
467.78	323.65
468.15	321.90
468.52	320.51
468.88	318.84
469.25	317.38
469.62	316.25
469.98	314.83
470.35	313.64
470.72	312.49
471.08	311.15
471.45	309.90
471.82	308.65
472.18	307.41
472.55	306.42
472.92	305.31
473.28	304.49
473.65	303.70
474.02	302.78
474.38	302.09
474.75	301.24
475.11	300.58
475.48	299.86
475.85	299.18
476.21	298.66
476.58	298.09
476.94	297.65
477.31	297.06
477.67	296.52
478.04	296.08
478.41	295.72
478.77	295.59
479.14	295.23
479.50	295.01
479.87	294.85
480.23	294.71
480.60	294.44
480.96	294.14
481.33	294.00
481.69	293.92
482.06	293.73
482.42	293.60
482.79	293.33
483.15	293.32
483.52	293.45
483.88	293.40
484.25	293.38
484.61	293.49
484.98	293.52
485.34	293.67
485.71	293.82
486.07	293.94
486.44	293.88
486.80	294.02
487.17	294.16
487.53	294.40
487.90	294.71
488.26	295.06
488.62	295.54
488.99	295.87
489.35	296.19
489.72	296.46
490.08	296.80
490.44	297.21
490.81	297.66
491.17	297.93
491.54	298.40
491.90	298.91
492.26	299.30
492.63	299.81
492.99	300.21
493.36	300.73
493.72	301.25
494.08	301.75
494.45	302.46
494.81	303.13
495.17	303.64
495.54	304.31
495.90	304.92
496.26	305.38
496.63	305.84
496.99	306.34
497.35	307.05
497.72	307.74
498.08	308.42
498.44	308.93
498.80	309.64
499.17	310.36
499.53	310.82
499.89	311.37
500.26	311.85
500.62	312.56
500.98	313.03
501.34	313.57
501.71	314.19
502.07	314.60
502.43	314.91
502.79	315.43
503.16	315.71
503.52	315.97
503.88	316.22
504.24	316.74
504.60	317.14
504.97	317.41
505.33	317.69
505.69	317.97
506.05	318.19
506.41	318.35
506.78	318.41
507.14	318.67
507.50	318.96
507.86	319.24
508.22	319.29
508.59	319.40
508.95	319.55
509.31	319.75
509.67	319.86
510.03	320.04
510.39	320.07
510.75	320.25
511.12	320.44
511.48	320.66
511.84	320.60
512.20	320.68
512.56	320.70
512.92	320.71
513.28	320.81
513.64	321.01
514.00	321.18
514.37	321.28
514.73	321.46
515.09	321.56
515.45	321.59
515.81	321.82
516.17	322.14
516.53	322.35
516.89	322.48
517.25	322.74
517.61	323.26
517.97	323.70
518.33	324.07
518.69	324.66
519.05	325.23
519.41	325.81
519.77	326.50
520.13	327.17
520.49	327.96
520.85	328.64
521.21	329.37
521.57	330.25
521.93	331.13
522.29	332.04
522.65	333.13
523.01	334.30
523.37	335.42
523.73	336.64
524.09	337.90
524.45	339.21
524.81	340.61
525.17	341.89
525.53	343.48
525.89	345.15
526.25	346.67
526.61	348.29
526.97	350.20
527.33	352.09
527.68	354.29
528.04	356.32
528.40	358.28
528.76	360.53
529.12	362.79
529.48	365.18
529.84	367.70
530.20	370.10
530.56	372.87
530.91	375.75
531.27	378.50
531.63	381.40
531.99	384.25
532.35	387.30
532.71	390.42
533.07	393.65
533.42	396.98
533.78	400.35
534.14	403.80
534.50	407.02
534.86	410.47
535.21	413.96
535.57	417.70
535.93	421.64
536.29	425.58
536.65	429.48
537.00	433.49
537.36	437.49
537.72	441.69
538.08	445.80
538.44	449.84
538.79	454.01
539.15	458.17
539.51	462.78
539.87	467.37
540.22	471.81
540.58	476.47
540.94	481.03
541.29	485.52
541.65	490.09
542.01	495.33
542.37	500.09
542.72	504.84
543.08	509.50
543.44	514.25
543.79	518.82
544.15	523.68
544.51	528.73
544.87	533.72
545.22	538.52
545.58	543.28
545.94	548.22
546.29	553.20
546.65	557.91
547.01	562.81
547.36	567.73
547.72	572.75
548.07	577.53
548.43	582.44
548.79	587.38
549.14	592.42
549.50	597.01
549.86	601.91
550.21	606.79
550.57	611.72
550.92	616.76
551.28	621.77
551.64	626.91
551.99	631.81
552.35	636.62
552.70	641.64
553.06	646.84
553.41	651.88
553.77	657.03
554.13	662.35
554.48	667.33
554.84	671.93
555.19	676.78
555.55	681.79
555.90	686.44
556.26	691.31
556.61	696.06
556.97	700.58
557.32	705.43
557.68	710.20
558.03	715.01
558.39	719.90
558.74	725.07
559.10	729.63
559.45	734.16
559.81	739.12
560.16	743.63
560.52	748.32
560.87	753.04
561.23	757.40
561.58	761.90
561.94	766.19
562.29	770.76
562.64	775.16
563.00	779.29
563.35	783.89
563.71	788.60
564.06	793.10
564.42	797.49
564.77	801.79
565.12	806.24
565.48	810.64
565.83	814.35
566.19	818.28
566.54	822.48
566.89	826.50
567.25	830.28
567.60	834.25
567.96	838.10
568.31	841.74
568.66	845.43
569.02	848.93
569.37	852.35
569.72	855.82
570.08	859.10
570.43	862.53
570.78	865.36
571.14	868.06
571.49	870.81
571.84	874.51
572.20	877.29
572.55	879.90
572.90	882.20
573.26	884.95
573.61	887.34
573.96	889.66
574.31	891.87
574.67	894.01
575.02	896.07
575.37	898.01
575.72	899.62
576.08	901.42
576.43	903.38
576.78	905.17
577.13	906.93
577.49	908.82
577.84	910.50
578.19	912.23
578.54	913.63
578.90	914.91
579.25	915.26
579.60	916.34
579.95	917.16
580.30	918.30
580.66	919.18
581.01	919.78
581.36	920.42
581.71	921.16
582.06	921.83
582.42	922.33
582.77	922.57
583.12	923.38
583.47	924.10
583.82	924.72
584.17	925.05
584.53	925.34
584.88	925.51
585.23	925.55
585.58	925.72
585.93	926.08
586.28	926.55
586.63	927.18
586.98	927.28
587.34	927.80
587.69	927.89
588.04	928.09
588.39	928.13
588.74	927.70
589.09	927.59
589.44	927.11
589.79	927.22
590.14	927.20
590.49	926.46
590.84	925.89
591.19	925.09
591.54	924.39
591.89	923.63
592.25	923.14
592.60	922.12
592.95	921.27
593.30	920.07
593.65	918.97
594.00	917.51
594.35	917.13
594.70	915.56
595.05	914.44
595.40	913.26
595.75	911.95
596.10	911.08
596.45	910.10
596.80	909.30
597.15	907.77
597.50	906.53
597.85	905.51
598.19	904.27
598.54	903.32
598.89	902.41
599.24	901.30
599.59	899.79
599.94	898.55
600.29	897.28
600.64	896.22
600.99	894.75
601.34	893.79
601.69	891.68
602.04	890.24
602.39	888.62
602.74	887.36
603.08	885.93
603.43	884.81
603.78	883.14
604.13	881.50
604.48	880.14
604.83	878.27
605.18	876.84
605.53	875.17
605.87	872.95
606.22	871.09
606.57	869.13
606.92	867.32
607.27	865.91
607.62	864.08
607.96	862.50
608.31	860.75
608.66	858.58
609.01	856.58
609.36	854.47
609.70	852.26
610.05	849.54
610.40	847.72
610.75	845.09
611.10	842.69
611.44	840.06
611.79	837.54
612.14	835.22
612.49	832.38
612.83	829.62
613.18	827.32
613.53	824.60
613.88	821.93
614.22	819.30
614.57	816.33
614.92	813.77
615.27	810.88
615.61	808.10
615.96	805.36
616.31	802.78
616.65	800.71
617.00	798.27
617.35	796.03
617.70	793.05
618.04	790.03
618.39	787.29
618.74	784.68
619.08	781.74
619.43	779.08
619.78	776.63
620.12	774.02
620.47	771.27
620.82	768.74
621.16	766.08
621.51	763.39
621.85	760.68
622.20	757.70
622.55	754.91
622.89	752.12
623.24	749.88
623.59	747.42
623.93	744.63
624.28	742.18
624.62	739.61
624.97	736.98
625.32	734.81
625.66	732.34
626.01	729.73
626.35	727.30
626.70	724.72
627.04	722.28
627.39	719.62
627.73	716.83
628.08	714.08
628.43	711.43
628.77	708.76
629.12	705.88
629.46	703.27
629.81	700.25
630.15	697.46
630.50	694.24
630.84	690.99
631.19	687.81
631.53	684.72
631.88	681.39
632.22	678.23
632.57	675.30
632.91	672.16
633.26	669.40
633.60	666.36
633.95	663.29
634.29	660.12
634.64	657.42
634.98	654.58
635.32	651.94
635.67	649.17
636.01	646.46
636.36	643.70
636.70	641.05
637.05	638.77
637.39	636.21
637.73	633.68
638.08	631.37
638.42	628.95
638.77	626.55
639.11	624.23
639.45	621.70
639.80	618.79
640.14	616.39
640.49	613.66
640.83	610.91
641.17	608.50
641.52	605.97
641.86	603.27
642.20	600.80
642.55	598.20
642.89	595.94
643.23	593.30
643.58	591.18
643.92	588.59
644.26	586.03
644.61	583.60
644.95	581.06
645.29	578.13
645.64	575.29
645.98	572.55
646.32	570.09
646.66	567.58
647.01	565.21
647.35	562.66
647.69	560.16
648.04	558.05
648.38	555.38
648.72	552.80
649.06	550.25
649.41	547.72
649.75	544.83
650.09	541.93
650.43	539.34
650.78	536.38
651.12	533.92
651.46	531.31
651.80	528.79
652.14	526.12
652.49	523.65
652.83	521.50
653.17	518.88
653.51	516.14
653.85	513.78
654.20	511.20
654.54	508.64
654.88	505.97
655.22	503.19
655.56	500.68
655.90	498.34
656.25	495.89
656.59	493.49
656.93	491.34
657.27	489.27
657.61	486.83
657.95	484.80
658.29	482.44
658.64	480.07
658.98	477.49
659.32	475.21
659.66	473.17
660.00	470.76
660.34	468.53
660.68	466.28
661.02	463.99
661.36	461.90
661.70	459.89
662.05	457.97
662.39	456.10
662.73	454.13
663.07	452.08
663.41	450.05
663.75	448.20
664.09	446.30
664.43	444.02
664.77	442.18
665.11	440.38
665.45	438.47
665.79	436.60
666.13	434.95
666.47	433.03
666.81	431.06
667.15	429.10
667.49	427.36
667.83	425.65
668.17	423.91
668.51	422.07
668.85	420.30
669.19	418.67
669.53	417.00
669.87	415.15
670.21	413.47
670.55	411.80
670.89	410.26
671.23	408.56
671.57	407.01
671.91	405.53
672.25	403.80
672.58	402.20
672.92	400.50
673.26	398.89
673.60	397.35
673.94	395.90
674.28	394.59
674.62	393.28
674.96	391.79
675.30	390.44
675.64	389.06
675.97	387.56
676.31	386.03
676.65	384.51
676.99	383.16
677.33	381.63
677.67	380.31
678.01	378.60
678.34	377.16
678.68	375.87
679.02	374.23
679.36	372.79
679.70	371.38
680.04	370.01
680.37	368.55
680.71	367.28
681.05	366.02
681.39	364.74
681.73	363.32
682.06	362.13
682.40	360.83
682.74	359.55
683.08	358.21
683.42	356.98
683.75	355.74
684.09	354.51
684.43	353.20
684.77	351.85
685.10	350.62
685.44	349.40
685.78	348.07
686.12	346.85
686.45	345.57
686.79	344.32
687.13	343.17
687.46	342.02
687.80	340.86
688.14	339.46
688.48	338.20
688.81	336.89
689.15	335.73
689.49	334.51
689.82	333.45
690.16	332.21
690.50	331.12
690.83	330.02
691.17	328.82
691.51	327.77
691.84	326.81
692.18	325.69
692.52	324.59
692.85	323.59
693.19	322.71
693.52	321.75
693.86	320.69
694.20	319.71
694.53	318.76
694.87	317.80
695.21	316.90
695.54	315.91
695.88	315.01
696.21	313.88
696.55	312.96
696.88	311.90
697.22	311.06
697.56	310.14
697.89	309.21
698.23	308.45
698.56	307.51
698.90	306.61
699.23	305.86
699.57	305.01
699.90	304.03
700.24	303.06
700.58	302.18
700.91	301.38
701.25	300.59
701.58	299.82
701.92	299.01
702.25	298.26
702.59	297.46
702.92	296.66
703.26	296.00
703.59	295.22
703.93	294.68
704.26	294.02
704.60	293.26
704.93	292.43
705.26	291.66
705.60	291.16
705.93	290.50
706.27	289.85
706.60	289.40
706.94	288.98
707.27	288.36
707.61	287.70
707.94	287.15
708.27	286.52
708.61	285.88
708.94	285.26
709.28	284.70
709.61	284.20
709.94	283.80
710.28	283.29
710.61	282.72
710.95	282.07
711.28	281.54
711.61	280.96
711.95	280.54
712.28	279.97
712.61	279.30
712.95	278.78
713.28	278.19
713.61	277.48
713.95	276.76
714.28	276.26
714.61	275.77
714.95	275.24
715.28	274.73
715.61	274.20
715.95	273.74
716.28	273.27
716.61	272.91
716.95	272.27
717.28	271.79
717.61	271.37
717.94	270.78
718.28	270.27
718.61	269.79
718.94	269.37
719.27	268.92
719.61	268.53
719.94	268.09
720.27	267.59
720.60	267.27
720.94	266.97
721.27	266.55
721.60	266.22
721.93	265.72
722.27	265.35
722.60	265.00
722.93	264.56
723.26	264.01
723.59	263.41
723.93	263.01
724.26	262.60
724.59	262.20
724.92	261.85
725.25	261.59
725.59	261.32
725.92	260.89
726.25	260.59
726.58	260.23
726.91	259.97
727.24	259.71
727.57	259.29
727.91	258.90
728.24	258.70
728.57	258.31
728.90	258.07
729.23	257.59
729.56	257.39
729.89	257.04
730.22	256.78
730.55	256.50
730.89	256.22
731.22	255.79
731.55	255.44
731.88	255.29
732.21	254.81
732.54	254.41
732.87	254.16
733.20	253.76
733.53	253.39
733.86	253.12
734.19	252.77
734.52	252.48
734.85	252.31
735.18	251.89
735.51	251.67
735.84	251.50
736.17	251.39
736.50	251.00
736.83	251.09
737.16	250.96
737.49	250.67
737.82	250.45
738.15	250.42
738.48	250.20
738.81	249.82
739.14	249.63
739.47	249.46
739.80	249.30
740.13	249.24
740.46	249.15
740.79	248.87
741.12	248.70
741.45	248.51
741.78	248.28
742.11	248.12
742.44	247.86
742.77	247.64
743.10	247.49
743.43	247.32
743.75	246.91
744.08	246.88
744.41	246.77
744.74	246.64
745.07	246.31
745.40	246.30
745.73	246.28
746.06	246.20
746.39	246.02
746.71	245.71
747.04	245.47
747.37	245.35
747.70	245.20
748.03	245.09
748.36	244.96
748.68	244.79
749.01	244.60
749.34	244.48
749.67	244.37
750.00	244.19
750.33	244.23
750.65	244.09
750.98	243.71
751.31	243.50
751.64	243.36
751.97	243.33
752.29	243.11
752.62	242.84
752.95	242.69
753.28	242.62
753.60	242.52
753.93	242.50
754.26	242.29
754.59	242.06
754.91	241.88
755.24	241.72
755.57	241.62
755.90	241.49
756.22	241.37
756.55	241.09
756.88	240.94
757.20	240.66
757.53	240.43
757.86	240.38
758.19	240.26
758.51	240.08
758.84	239.87
759.17	239.70
759.49	239.66
759.82	239.58
760.15	239.32
760.47	239.20
760.80	239.03
761.13	238.84
761.45	238.72
761.78	238.50
762.11	238.40
762.43	238.18
762.76	238.17
763.08	238.03
763.41	237.97
763.74	237.81
764.06	237.56
764.39	237.47
764.71	237.19
765.04	237.14
765.37	236.96
765.69	236.88
766.02	236.75
766.34	236.57
766.67	236.35
767.00	236.30
767.32	236.38
767.65	236.29
767.97	236.20
768.30	236.10
768.62	236.06
768.95	235.84
769.27	235.70
769.60	235.47
769.92	235.36
770.25	235.19
770.57	235.15
770.90	235.03
771.22	234.84
771.55	234.81
771.87	234.70
772.20	234.68
772.52	234.66
772.85	234.82
773.17	234.72
773.50	234.60
773.82	234.50
774.15	234.31
774.47	234.15
774.80	234.09
775.12	233.92
775.45	233.89
775.77	233.92
776.09	233.83
776.42	233.73
776.74	233.74
777.07	233.80
777.39	233.66
777.72	233.60
778.04	233.55
778.36	233.42
778.69	233.32
779.01	233.25
779.33	233.15
779.66	232.86
779.98	232.85
780.31	232.88
780.63	232.87
780.95	232.89
781.28	232.89
781.60	232.93
781.92	232.92
782.25	232.89
782.57	232.74
782.89	232.78
783.22	232.81
783.54	232.58
783.86	232.45
784.19	232.38
784.51	232.45
784.83	232.48
785.16	232.57
785.48	232.60
785.80	232.55
786.12	232.48
786.45	232.44
786.77	232.45
787.09	232.43
787.42	232.41
787.74	232.32
788.06	232.34
788.38	232.24
788.71	232.28
789.03	232.30
789.35	232.37
789.67	232.26
789.99	232.35
790.32	232.48
790.64	232.52
790.96	232.76
791.28	232.70
791.61	232.70
791.93	232.75
792.25	232.70
792.57	232.80
792.89	232.78
793.21	232.74
793.54	232.60
793.86	232.47
794.18	232.42
794.50	232.38
794.82	232.30
795.14	232.30
795.47	232.34
795.79	232.24
796.11	232.05
796.43	232.06
796.75	231.91
797.07	231.94
797.39	231.89
797.71	231.70
798.04	231.61
798.36	231.62
798.68	231.48
799.00	231.44
799.32	231.41
799.64	231.30
799.96	231.27
800.28	231.35
800.60	231.44
800.92	231.40
801.24	231.32
801.56	231.29
801.89	231.17
802.21	231.06
802.53	231.07
802.85	231.23
803.17	231.32
803.49	231.30
803.81	231.16
804.13	231.13
804.45	231.10
804.77	231.10
805.09	231.00
805.41	230.95
805.73	230.86
806.05	230.76
806.37	230.79
806.69	230.75
807.01	230.66
807.33	230.61
807.65	230.49
807.97	230.52
808.28	230.52
808.60	230.59
808.92	230.54
809.24	230.58
809.56	230.50
809.88	230.38
810.20	230.29
810.52	230.32
810.84	230.15
811.16	230.13
811.48	230.13
811.80	230.14
812.12	230.15
812.43	230.15
812.75	230.07
813.07	230.05
813.39	229.99
813.71	229.87
814.03	229.68
814.35	229.73
814.67	229.60
814.98	229.41
815.30	229.34
815.62	229.32
815.94	229.11
816.26	229.14
816.58	229.10
816.89	229.19
817.21	229.01
817.53	229.05
817.85	228.93
818.17	228.82
818.48	228.75
818.80	228.75
819.12	228.67
819.44	228.77
819.76	228.75
820.07	228.84
820.39	228.84
820.71	228.95
821.03	228.88
821.34	228.87
821.66	229.08
821.98	229.04
822.30	229.04
822.61	229.10
822.93	228.96
823.25	228.95
823.57	228.88
823.88	229.04
824.20	229.06
824.52	229.15
824.83	229.22
825.15	229.21
825.47	229.20
825.79	229.24
826.10	229.09
826.42	229.07
826.74	229.11
827.05	229.26
827.37	229.23
827.69	229.28
828.00	229.40
828.32	229.33
828.64	229.31
828.95	229.40
829.27	229.52
829.58	229.47
829.90	229.55
830.22	229.58
830.53	229.47
830.85	229.54
831.17	229.50
831.48	229.48
831.80	229.55
832.11	229.60
832.43	229.59
832.75	229.70
833.06	229.75
833.38	229.70
833.69	229.66
834.01	229.77
834.32	229.83
834.64	229.75
834.96	229.74
835.27	229.77
835.59	229.66
835.90	229.55
836.22	229.67
836.53	229.69
836.85	229.66
837.16	229.84
837.48	229.79
837.79	229.90
838.11	229.94
838.42	229.87
838.74	229.91
839.05	229.98
839.37	229.93
839.68	229.84
840.00	229.88
840.31	229.99
840.63	229.88
840.94	229.82
841.26	229.80
841.57	229.83
841.88	229.88
842.20	229.93
842.51	229.97
842.83	229.94
843.14	229.98
843.46	230.06
843.77	229.97
844.08	229.86
844.40	229.70
844.71	229.64
845.03	229.63
845.34	229.53
845.65	229.47
845.97	229.50
846.28	229.53
846.60	229.41
846.91	229.20
847.22	229.12
847.54	229.11
847.85	229.13
848.16	228.97
848.48	228.84
848.79	228.81
849.10	228.80
849.42	228.71
849.73	228.44
850.04	228.37
850.36	228.24
850.67	228.30
850.98	228.29
851.30	228.28
851.61	228.18
851.92	228.05
852.23	228.05
852.55	228.03
852.86	228.00
853.17	227.99
853.49	228.05
853.80	228.22
854.11	228.15
854.42	228.01
854.74	228.04
855.05	228.08
855.36	227.98
855.67	227.90
855.99	227.96
856.30	228.30
856.61	228.24
856.92	228.21
857.23	228.19
857.55	228.18
857.86	228.13
858.17	228.22
858.48	228.21
858.79	228.13
859.11	228.11
859.42	228.05
859.73	228.09
860.04	228.00
860.35	227.90
860.66	227.84
860.98	227.83
861.29	227.79
861.60	227.76
861.91	227.86
862.22	227.83
862.53	227.71
862.84	227.44
863.16	227.47
863.47	227.43
863.78	227.52
864.09	227.45
864.40	227.49
864.71	227.41
865.02	227.49
865.33	227.46
865.64	227.35
865.95	227.38
866.27	227.52
866.58	227.51
866.89	227.49
867.20	227.57
867.51	227.72
867.82	227.62
868.13	227.64
868.44	227.57
868.75	227.72
869.06	227.79
869.37	227.80
869.68	227.78
869.99	227.89
870.30	227.84
870.61	227.93
870.92	227.94
871.23	228.00
871.54	228.07
871.85	228.14
872.16	228.22
872.47	228.17
872.78	228.00
873.09	228.06
873.40	228.05
873.71	228.10
874.02	228.05
874.33	228.29
874.64	228.31
874.95	228.41
875.26	228.31
875.56	228.35
875.87	228.47
876.18	228.49
876.49	228.74
876.80	228.75
877.11	228.84
877.42	228.83
877.73	228.93
878.04	228.87
878.35	228.93
878.66	228.94
878.96	229.01
879.27	229.06
879.58	229.04
879.89	228.98
880.20	229.01
880.51	229.03
880.82	228.98
881.12	229.04
881.43	229.02
881.74	229.09
882.05	229.17
882.36	229.15
882.67	229.14
882.97	228.82
883.28	228.81
883.59	228.71
883.90	228.76
884.21	228.69
884.51	228.72
884.82	228.65
885.13	228.64
885.44	228.62
885.74	228.66
886.05	228.64
886.36	228.79
886.67	228.73
886.98	228.83
887.28	228.83
887.59	228.77
887.90	228.78
888.20	228.65
888.51	228.51
888.82	228.53
889.13	228.61
889.43	228.82
889.74	228.78
890.05	228.83
890.35	228.86
890.66	228.78
890.97	228.75
891.28	228.77
891.58	228.77
891.89	228.73
892.20	228.70
892.50	228.75
892.81	228.77
893.12	228.79
893.42	228.56
893.73	228.57
894.04	228.61
894.34	228.61
894.65	228.68
894.95	228.72
895.26	228.64
895.57	228.62
895.87	228.54
896.18	228.56
896.48	228.48
896.79	228.38
897.10	228.53
897.40	228.54
897.71	228.60
898.01	228.62
898.32	228.61
898.63	228.49
898.93	228.44
899.24	228.30
899.54	228.25
899.85	228.30
900.15	228.19
900.46	228.05
900.76	227.92
901.07	227.83
901.38	227.81
901.68	227.83
901.99	227.74
902.29	227.61
902.60	227.44
902.90	227.43
903.21	227.50
903.51	227.42
903.82	227.40
904.12	227.28
904.43	227.21
904.73	227.25
905.03	227.37
905.34	227.52
905.64	227.63
905.95	227.57
906.25	227.62
906.56	227.67
906.86	227.66
907.17	227.71
907.47	227.77
907.77	227.85
908.08	227.79
908.38	227.84
908.69	227.93
908.99	228.04
909.30	228.08
909.60	228.12
909.90	228.20
910.21	228.19
910.51	228.29
910.81	228.41
911.12	228.51
911.42	228.41
911.73	228.38
912.03	228.38
912.33	228.41
912.64	228.41
912.94	228.47
913.24	228.54
913.55	228.51
913.85	228.56
914.15	228.52
914.46	228.58
914.76	228.60
915.06	228.55
915.37	228.55
915.67	228.60
915.97	228.50
916.27	228.41
916.58	228.47
916.88	228.47
917.18	228.39
917.49	228.50
917.79	228.65
918.09	228.56
918.39	228.63
918.70	228.70
919.00	228.71
919.30	228.81
919.60	228.79
919.91	228.84
920.21	228.78
920.51	228.80
920.81	228.81
921.12	228.76
921.42	228.82
921.72	228.85
922.02	228.77
922.32	228.83
922.63	228.83
922.93	228.93
923.23	229.00
923.53	229.03
923.83	228.88
924.13	228.82
924.44	228.87
924.74	228.87
925.04	228.87
925.34	228.93
925.64	228.78
925.94	228.80
926.24	228.84
926.55	228.92
926.85	228.97
927.15	228.92
927.45	228.94
927.75	228.85
928.05	228.85
928.35	228.88
928.65	228.90
928.95	228.87
929.26	228.78
929.56	228.65
929.86	228.62
930.16	228.60
930.46	228.59
930.76	228.51
931.06	228.37
931.36	228.30
931.66	228.20
931.96	228.24
932.26	228.26
932.56	228.23
932.86	228.28
933.16	228.14
933.46	228.14
933.76	228.08
934.06	228.17
934.36	228.30
934.66	228.30
934.96	228.34
935.26	228.29
935.56	228.29
935.86	228.36
936.16	228.37
936.46	228.28
936.76	228.34
937.06	228.31
937.36	228.30
937.66	228.27
937.96	228.25
938.26	228.18
938.56	228.21
938.86	228.09
939.16	228.07
939.46	228.10
939.76	228.07
940.06	228.09
940.35	228.05
940.65	227.93
940.95	227.93
941.25	227.76
941.55	227.80
941.85	227.82
942.15	227.77
942.45	227.70
942.75	227.77
943.04	227.70
943.34	227.68
943.64	227.65
943.94	227.66
944.24	227.68
944.54	227.69
944.84	227.60
945.13	227.60
945.43	227.63
945.73	227.59
946.03	227.52
946.33	227.50
946.62	227.41
946.92	227.39
947.22	227.40
947.52	227.48
947.82	227.63
948.11	227.50
948.41	227.42
948.71	227.36
949.01	227.35
949.31	227.31
949.60	227.45
949.90	227.48
950.20	227.48
950.50	227.52
950.79	227.59
951.09	227.70
951.39	227.74
951.69	227.68
951.98	227.83
952.28	227.91
952.58	227.99
952.87	228.02
953.17	228.06
953.47	228.00
953.76	227.97
954.06	227.84
954.36	227.96
954.66	227.92
954.95	228.09
955.25	228.17
955.55	228.26
955.84	228.20
956.14	228.25
956.44	228.35
956.73	228.36
957.03	228.31
957.32	228.29
957.62	228.30
957.92	228.31
958.21	228.33
958.51	228.67
958.81	228.66
959.10	228.69
959.40	228.75
959.69	228.80
959.99	228.87
960.29	228.92
960.58	228.85
960.88	229.05
961.17	229.00
961.47	228.90
961.76	228.75
962.06	228.74
962.36	228.76
962.65	228.74
962.95	228.73
963.24	228.76
963.54	228.70
963.83	228.67
964.13	228.60
964.42	228.40
964.72	228.08
965.01	228.00
965.31	227.96
965.60	227.91
965.90	227.98
966.19	227.81
966.49	227.75
966.78	227.65
967.08	227.59
967.37	227.50
967.67	227.44
967.96	227.42
968.26	227.44
968.55	227.36
968.85	227.32
969.14	227.23
969.43	227.15
969.73	227.07
970.02	227.03
970.32	226.99
970.61	226.97
970.91	226.93
971.20	226.85
971.49	226.80
971.79	226.72
972.08	226.62
972.38	226.63
972.67	226.50
972.96	226.50
973.26	226.48
973.55	226.52
973.85	226.50
974.14	226.52
974.43	226.51
974.73	226.54
975.02	226.41
975.31	226.48
975.61	226.46
975.90	226.51
976.19	226.53
976.49	226.52
976.78	226.62
977.07	226.57
977.37	226.59
977.66	226.65
977.95	226.61
978.24	226.54
978.54	226.70
978.83	226.83
979.12	226.87
979.42	226.83
979.71	226.82
980.00	226.76
980.29	226.88
980.59	226.84
980.88	226.87
981.17	226.93
981.46	226.93
981.76	226.94
982.05	227.03
982.34	227.06
982.63	227.19
982.93	227.12
983.22	227.32
983.51	227.46
983.80	227.58
984.09	227.68
984.39	227.76
984.68	227.69
984.97	227.72
985.26	227.84
985.55	228.01
985.85	228.13
986.14	228.38
986.43	228.44
986.72	228.55
987.01	228.58
987.30	228.70
987.59	228.79
987.89	228.92
988.18	228.91
988.47	228.94
988.76	229.03
989.05	229.10
989.34	228.98
989.63	229.04
989.92	229.05
990.22	229.06
990.51	229.17
990.80	229.20
991.09	229.28
991.38	229.23
991.67	229.18
991.96	229.12
992.25	229.16
992.54	229.16
992.83	229.10
993.12	229.10
993.41	229.14
993.70	229.26
993.99	229.29
994.28	229.24
994.58	229.25
994.87	229.19
995.16	229.20
995.45	229.30
995.74	229.17
996.03	229.13
996.32	229.18
996.61	229.15
996.90	229.18
997.19	229.16
997.48	229.24
997.77	229.19
998.06	229.14
998.34	228.98
998.63	228.89
998.92	228.89
999.21	228.90
999.50	228.87
999.79	228.64
1000.08	228.59
1000.37	228.71
1000.66	228.71
1000.95	228.64
1001.24	228.65
1001.53	228.57
1001.82	228.56
1002.11	228.49
1002.40	228.44
1002.68	228.34
1002.97	228.39
1003.26	228.30
1003.55	228.20
1003.84	228.12
1004.13	228.11
1004.42	228.06
1004.71	228.03
1004.99	227.95
1005.28	227.88
1005.57	227.68
1005.86	227.68
1006.15	227.58
1006.44	227.45
1006.72	227.39
1007.01	227.38
1007.30	227.22
1007.59	227.14
1007.88	227.11
1008.17	227.10
1008.45	227.00
1008.74	227.03
1009.03	226.82
1009.32	226.80
1009.60	226.74
1009.89	226.77
1010.18	226.72
1010.47	226.70
1010.76	226.68
1011.04	226.70
1011.33	226.73
1011.62	226.80
1011.91	226.76
1012.19	226.81
1012.48	226.81
1012.77	226.92
1013.05	227.01
1013.34	227.13
1013.63	227.17
1013.92	227.24
1014.20	227.23
1014.49	227.29
1014.78	227.27
1015.06	227.29
1015.35	227.38
1015.64	227.50
1015.92	227.48
1016.21	227.55
1016.50	227.66
1016.78	227.64
1017.07	227.76
1017.36	227.82
1017.64	227.94
1017.93	228.07
1018.22	228.06
1018.50	228.09
1018.79	228.05
1019.08	228.02
1019.36	228.06
1019.65	228.10
1019.93	228.18
1020.22	228.21
1020.51	228.30
1020.79	228.30
1021.08	227.90
1021.36	227.80
1021.65	227.90
1021.94	229.00
1022.22	228.20
1022.51	227.90
1022.79	229.40
1023.08	228.10
1023.36	229.60
1023.65	227.20
>>>>>End Processed Spectral Data<<<<<
