SpectraSuite Data File
++++++++++++++++++++++++++++++++++++
Date: Fri Feb 01 14:36:45 EST 2013
User: group
Dark Spectrum Present: No
Reference Spectrum Present: No
Number of Sampled Component Spectra: 1
Spectrometers: USB2E7196
Integration Time (usec): 70000 (USB2E7196)
Spectra Averaged: 10 (USB2E7196)
Boxcar Smoothing: 10 (USB2E7196)
Correct for Electrical Dark: No (USB2E7196)
Strobe/Lamp Enabled: No (USB2E7196)
Correct for Detector Non-linearity: No (USB2E7196)
Correct for Stray Light: No (USB2E7196)
Number of Pixels in Processed Spectrum: 2048
>>>>>Begin Processed Spectral Data<<<<<
339.09	0.00
339.48	216.20
339.86	216.90
340.24	218.40
340.63	220.50
341.01	223.30
341.39	222.90
341.78	223.20
342.16	225.20
342.54	225.30
342.93	214.73
343.31	225.64
343.69	226.19
344.07	226.62
344.46	227.00
344.84	227.33
345.22	227.57
345.60	227.82
345.99	227.96
346.37	228.22
346.75	228.34
347.13	228.20
347.52	228.27
347.90	228.40
348.28	228.32
348.66	228.30
349.05	228.13
349.43	228.17
349.81	228.25
350.19	228.31
350.57	228.41
350.96	228.41
351.34	228.49
351.72	228.59
352.10	228.71
352.48	228.91
352.87	229.07
353.25	229.12
353.63	229.24
354.01	229.43
354.39	229.33
354.77	229.44
355.15	229.63
355.54	229.60
355.92	229.60
356.30	229.73
356.68	230.05
357.06	230.17
357.44	230.10
357.82	230.11
358.20	230.21
358.58	230.22
358.97	230.30
359.35	230.43
359.73	230.50
360.11	230.44
360.49	230.41
360.87	230.34
361.25	230.50
361.63	230.61
362.01	230.68
362.39	230.75
362.77	230.75
363.15	230.83
363.53	230.95
363.91	230.98
364.29	230.93
364.67	230.75
365.05	230.79
365.43	230.84
365.81	230.87
366.19	231.02
366.57	231.09
366.95	231.14
367.33	230.96
367.71	230.90
368.09	231.03
368.47	231.00
368.85	231.05
369.23	230.90
369.61	230.76
369.99	230.75
370.37	230.78
370.75	230.85
371.13	230.71
371.51	230.63
371.89	230.55
372.27	230.48
372.65	230.40
373.03	230.22
373.41	230.08
373.78	229.99
374.16	229.70
374.54	229.50
374.92	229.40
375.30	229.37
375.68	229.25
376.06	229.19
376.44	229.10
376.82	229.02
377.19	228.98
377.57	228.84
377.95	228.70
378.33	228.55
378.71	228.31
379.09	228.35
379.47	228.30
379.84	228.08
380.22	228.12
380.60	228.05
380.98	228.04
381.36	227.98
381.73	227.89
382.11	227.72
382.49	227.62
382.87	227.53
383.25	227.36
383.62	227.46
384.00	227.28
384.38	227.25
384.76	227.14
385.13	227.15
385.51	227.14
385.89	227.08
386.27	227.01
386.64	226.94
387.02	226.77
387.40	226.67
387.78	226.72
388.15	226.66
388.53	226.50
388.91	226.49
389.29	226.54
389.66	226.46
390.04	226.55
390.42	226.55
390.79	226.44
391.17	226.54
391.55	226.37
391.92	226.45
392.30	226.44
392.68	226.43
393.05	226.45
393.43	226.42
393.81	226.39
394.18	226.41
394.56	226.42
394.94	226.57
395.31	226.64
395.69	226.82
396.06	226.81
396.44	227.00
396.82	227.04
397.19	227.16
397.57	227.23
397.95	227.26
398.32	227.45
398.70	227.66
399.07	227.82
399.45	227.86
399.82	227.96
400.20	228.00
400.58	228.04
400.95	228.04
401.33	228.14
401.70	228.44
402.08	228.61
402.45	228.84
402.83	228.95
403.20	229.09
403.58	229.12
403.95	229.36
404.33	229.53
404.71	229.69
405.08	230.04
405.46	230.35
405.83	230.68
406.21	230.80
406.58	231.12
406.96	231.30
407.33	231.65
407.70	232.03
408.08	232.62
408.45	233.06
408.83	233.51
409.20	234.00
409.58	234.26
409.95	234.77
410.33	235.19
410.70	235.70
411.08	236.21
411.45	236.72
411.82	237.27
412.20	237.91
412.57	238.64
412.95	239.10
413.32	239.86
413.69	240.51
414.07	241.26
414.44	242.05
414.82	243.01
415.19	244.08
415.56	245.04
415.94	246.02
416.31	247.29
416.68	248.47
417.06	249.79
417.43	251.14
417.81	252.61
418.18	254.19
418.55	255.78
418.93	257.35
419.30	259.19
419.67	261.01
420.04	262.89
420.42	264.86
420.79	267.21
421.16	269.48
421.54	271.90
421.91	274.42
422.28	276.92
422.66	279.54
423.03	282.09
423.40	284.72
423.77	287.51
424.15	290.44
424.52	293.54
424.89	296.79
425.26	299.98
425.64	302.94
426.01	306.20
426.38	309.70
426.75	313.36
427.13	316.91
427.50	320.87
427.87	324.78
428.24	328.72
428.61	332.61
428.99	336.70
429.36	341.20
429.73	345.64
430.10	350.09
430.47	354.49
430.85	359.12
431.22	363.98
431.59	369.22
431.96	374.17
432.33	379.65
432.70	384.96
433.08	391.31
433.45	397.24
433.82	403.22
434.19	409.74
434.56	416.10
434.93	422.32
435.30	428.24
435.68	434.96
436.05	441.56
436.42	447.94
436.79	454.03
437.16	460.48
437.53	467.15
437.90	473.87
438.27	480.66
438.64	487.66
439.01	494.10
439.38	499.72
439.75	505.15
440.13	511.28
440.50	517.17
440.87	521.96
441.24	527.01
441.61	532.41
441.98	536.49
442.35	541.59
442.72	546.69
443.09	551.66
443.46	555.00
443.83	557.20
444.20	559.22
444.57	561.95
444.94	563.54
445.31	565.52
445.68	567.28
446.05	568.34
446.42	568.03
446.79	568.13
447.16	568.07
447.53	568.43
447.90	566.78
448.27	565.07
448.64	562.24
449.01	560.72
449.37	557.30
449.74	553.86
450.11	549.12
450.48	544.02
450.85	539.02
451.22	534.61
451.59	530.60
451.96	526.79
452.33	521.36
452.70	516.55
453.07	510.23
453.43	503.95
453.80	498.15
454.17	492.66
454.54	487.00
454.91	481.01
455.28	475.02
455.65	469.58
456.02	464.19
456.38	459.46
456.75	453.50
457.12	448.50
457.49	443.46
457.86	438.71
458.23	434.64
458.59	429.90
458.96	425.19
459.33	420.98
459.70	416.71
460.07	413.39
460.43	409.39
460.80	405.89
461.17	402.80
461.54	399.23
461.91	396.02
462.27	392.75
462.64	390.08
463.01	386.96
463.38	383.92
463.74	380.83
464.11	378.24
464.48	375.75
464.85	373.08
465.21	371.08
465.58	369.07
465.95	366.43
466.32	364.32
466.68	362.20
467.05	360.06
467.42	358.01
467.78	355.81
468.15	353.76
468.52	352.20
468.88	349.88
469.25	347.95
469.62	346.36
469.98	344.80
470.35	343.17
470.72	341.65
471.08	340.08
471.45	338.70
471.82	337.28
472.18	335.64
472.55	334.49
472.92	333.27
473.28	331.98
473.65	330.79
474.02	329.49
474.38	328.42
474.75	327.60
475.11	326.50
475.48	325.74
475.85	325.03
476.21	324.17
476.58	323.64
476.94	323.20
477.31	322.61
477.67	321.96
478.04	321.32
478.41	320.90
478.77	320.60
479.14	320.15
479.50	319.71
479.87	319.52
480.23	319.33
480.60	318.90
480.96	318.58
481.33	318.50
481.69	318.55
482.06	318.48
482.42	318.19
482.79	318.24
483.15	318.14
483.52	318.30
483.88	318.17
484.25	318.24
484.61	318.28
484.98	318.29
485.34	318.66
485.71	319.03
486.07	319.25
486.44	319.50
486.80	319.89
487.17	320.43
487.53	320.93
487.90	321.40
488.26	322.05
488.62	322.77
488.99	323.40
489.35	324.11
489.72	324.89
490.08	325.89
490.44	326.63
490.81	327.50
491.17	328.32
491.54	329.35
491.90	330.23
492.26	331.20
492.63	332.32
492.99	333.14
493.36	334.12
493.72	335.33
494.08	336.56
494.45	337.77
494.81	338.93
495.17	340.21
495.54	341.49
495.90	342.60
496.26	343.97
496.63	345.24
496.99	346.41
497.35	347.66
497.72	348.89
498.08	350.12
498.44	351.52
498.80	352.86
499.17	354.21
499.53	355.39
499.89	356.74
500.26	358.02
500.62	359.40
500.98	360.65
501.34	361.92
501.71	363.07
502.07	364.05
502.43	365.30
502.79	366.26
503.16	367.37
503.52	368.58
503.88	369.46
504.24	370.59
504.60	371.59
504.97	372.55
505.33	373.53
505.69	374.58
506.05	375.36
506.41	376.09
506.78	376.91
507.14	377.69
507.50	378.48
507.86	379.17
508.22	379.92
508.59	380.65
508.95	381.23
509.31	381.78
509.67	382.50
510.03	382.84
510.39	383.42
510.75	383.82
511.12	384.18
511.48	384.45
511.84	384.68
512.20	385.04
512.56	385.31
512.92	385.54
513.28	385.76
513.64	386.00
514.00	386.01
514.37	386.04
514.73	386.35
515.09	386.35
515.45	386.50
515.81	386.45
516.17	386.45
516.53	386.41
516.89	386.43
517.25	386.40
517.61	386.55
517.97	386.64
518.33	386.71
518.69	386.83
519.05	386.98
519.41	387.18
519.77	387.52
520.13	387.67
520.49	387.66
520.85	387.83
521.21	388.10
521.57	388.58
521.93	388.87
522.29	389.16
522.65	389.37
523.01	389.51
523.37	390.06
523.73	390.56
524.09	391.15
524.45	391.70
524.81	392.24
525.17	392.89
525.53	393.54
525.89	394.26
526.25	395.03
526.61	395.80
526.97	396.70
527.33	397.60
527.68	398.72
528.04	399.94
528.40	401.13
528.76	402.25
529.12	403.34
529.48	404.80
529.84	406.23
530.20	407.90
530.56	409.78
530.91	411.59
531.27	413.43
531.63	415.33
531.99	417.18
532.35	419.21
532.71	421.26
533.07	423.56
533.42	425.98
533.78	428.26
534.14	430.81
534.50	433.01
534.86	435.55
535.21	438.06
535.57	440.68
535.93	443.39
536.29	446.43
536.65	449.46
537.00	452.31
537.36	455.44
537.72	458.67
538.08	461.68
538.44	464.58
538.79	467.73
539.15	470.87
539.51	474.30
539.87	477.94
540.22	481.45
540.58	484.94
540.94	488.30
541.29	491.94
541.65	495.35
542.01	499.49
542.37	503.33
542.72	507.07
543.08	510.90
543.44	514.76
543.79	518.26
544.15	522.09
544.51	526.22
544.87	530.33
545.22	534.21
545.58	538.18
545.94	542.30
546.29	546.35
546.65	550.61
547.01	554.89
547.36	558.88
547.72	563.02
548.07	567.12
548.43	571.24
548.79	575.41
549.14	579.62
549.50	583.65
549.86	587.67
550.21	592.10
550.57	596.59
550.92	600.76
551.28	605.27
551.64	609.75
551.99	614.03
552.35	618.10
552.70	622.39
553.06	626.67
553.41	630.99
553.77	635.36
554.13	639.53
554.48	643.75
554.84	648.09
555.19	652.40
555.55	656.66
555.90	660.97
556.26	665.15
556.61	669.55
556.97	673.54
557.32	677.78
557.68	681.73
558.03	685.81
558.39	690.13
558.74	694.60
559.10	698.56
559.45	702.62
559.81	706.85
560.16	710.81
560.52	714.85
560.87	719.10
561.23	723.04
561.58	727.39
561.94	731.48
562.29	735.29
562.64	739.14
563.00	743.13
563.35	747.05
563.71	751.03
564.06	754.97
564.42	758.90
564.77	762.83
565.12	766.63
565.48	770.50
565.83	774.14
566.19	777.59
566.54	781.20
566.89	784.85
567.25	788.50
567.60	792.15
567.96	795.87
568.31	799.31
568.66	802.73
569.02	805.81
569.37	808.81
569.72	811.91
570.08	814.80
570.43	817.63
570.78	820.54
571.14	823.23
571.49	826.03
571.84	829.08
572.20	831.43
572.55	834.08
572.90	836.20
573.26	838.51
573.61	840.70
573.96	843.03
574.31	844.89
574.67	846.57
575.02	848.36
575.37	850.24
575.72	851.53
576.08	853.11
576.43	854.58
576.78	856.23
577.13	858.05
577.49	859.90
577.84	861.47
578.19	862.74
578.54	864.33
578.90	865.34
579.25	866.22
579.60	867.13
579.95	868.17
580.30	869.10
580.66	869.91
581.01	870.57
581.36	871.40
581.71	872.48
582.06	873.24
582.42	873.85
582.77	874.30
583.12	875.02
583.47	875.70
583.82	876.61
584.17	876.90
584.53	876.90
584.88	877.28
585.23	877.57
585.58	877.90
585.93	878.18
586.28	878.64
586.63	878.95
586.98	879.36
587.34	879.51
587.69	879.64
588.04	879.93
588.39	880.33
588.74	879.95
589.09	879.52
589.44	879.15
589.79	879.10
590.14	879.13
590.49	878.91
590.84	878.58
591.19	877.96
591.54	877.41
591.89	876.61
592.25	876.03
592.60	874.90
592.95	874.03
593.30	872.80
593.65	871.60
594.00	870.43
594.35	870.01
594.70	868.87
595.05	868.03
595.40	866.89
595.75	865.58
596.10	864.65
596.45	863.62
596.80	863.01
597.15	861.76
597.50	860.29
597.85	859.24
598.19	857.98
598.54	856.81
598.89	855.80
599.24	855.06
599.59	853.85
599.94	852.97
600.29	852.01
600.64	850.78
600.99	849.58
601.34	848.25
601.69	846.30
602.04	845.01
602.39	843.35
602.74	841.93
603.08	840.60
603.43	839.45
603.78	838.08
604.13	836.42
604.48	835.10
604.83	833.70
605.18	832.14
605.53	830.25
605.87	828.26
606.22	826.41
606.57	824.60
606.92	822.69
607.27	821.08
607.62	819.20
607.96	817.66
608.31	816.16
608.66	814.35
609.01	812.35
609.36	810.01
609.70	807.99
610.05	805.68
610.40	803.61
610.75	800.92
611.10	798.82
611.44	796.36
611.79	793.98
612.14	791.40
612.49	788.64
612.83	786.21
613.18	783.76
613.53	781.46
613.88	778.83
614.22	776.24
614.57	773.37
614.92	770.71
615.27	768.03
615.61	765.03
615.96	762.33
616.31	759.92
616.65	758.10
617.00	755.82
617.35	753.49
617.70	750.70
618.04	748.30
618.39	745.51
618.74	742.88
619.08	740.31
619.43	737.85
619.78	735.40
620.12	733.06
620.47	730.64
620.82	727.93
621.16	725.53
621.51	723.10
621.85	720.96
622.20	718.33
622.55	715.99
622.89	713.51
623.24	711.27
623.59	708.79
623.93	705.93
624.28	703.23
624.62	700.89
624.97	698.63
625.32	696.20
625.66	694.02
626.01	691.60
626.35	688.86
626.70	686.35
627.04	684.23
627.39	681.66
627.73	679.17
628.08	676.89
628.43	674.32
628.77	671.61
629.12	668.90
629.46	666.53
629.81	663.51
630.15	660.83
630.50	658.07
630.84	655.16
631.19	652.37
631.53	649.77
631.88	646.59
632.22	643.43
632.57	640.91
632.91	637.82
633.26	635.28
633.60	633.01
633.95	630.37
634.29	627.44
634.64	625.10
634.98	622.55
635.32	620.09
635.67	617.81
636.01	615.61
636.36	613.01
636.70	610.69
637.05	608.71
637.39	606.35
637.73	604.02
638.08	601.94
638.42	599.77
638.77	597.59
639.11	595.45
639.45	593.18
639.80	590.62
640.14	588.59
640.49	586.12
640.83	583.57
641.17	581.42
641.52	579.10
641.86	576.52
642.20	574.24
642.55	571.67
642.89	569.26
643.23	566.76
643.58	564.71
643.92	562.10
644.26	559.57
644.61	557.47
644.95	555.20
645.29	552.59
645.64	550.00
645.98	547.40
646.32	545.19
646.66	542.82
647.01	540.62
647.35	538.29
647.69	536.13
648.04	533.87
648.38	531.38
648.72	528.89
649.06	526.39
649.41	523.96
649.75	521.51
650.09	518.97
650.43	516.51
650.78	513.70
651.12	511.23
651.46	508.90
651.80	506.63
652.14	504.20
652.49	502.13
652.83	499.93
653.17	497.60
653.51	495.21
653.85	493.12
654.20	490.72
654.54	488.39
654.88	485.88
655.22	483.35
655.56	480.93
655.90	478.88
656.25	476.79
656.59	474.52
656.93	472.40
657.27	470.30
657.61	468.03
657.95	465.98
658.29	463.82
658.64	461.64
658.98	459.17
659.32	456.90
659.66	454.62
660.00	452.46
660.34	450.40
660.68	448.19
661.02	445.87
661.36	443.87
661.70	441.87
662.05	440.03
662.39	438.38
662.73	436.63
663.07	434.68
663.41	432.88
663.75	430.90
664.09	428.87
664.43	427.06
664.77	425.26
665.11	423.64
665.45	422.05
665.79	420.25
666.13	418.57
666.47	416.87
666.81	415.14
667.15	413.34
667.49	411.66
667.83	410.09
668.17	408.55
668.51	406.77
668.85	405.04
669.19	403.37
669.53	401.67
669.87	399.88
670.21	398.39
670.55	396.88
670.89	395.58
671.23	394.23
671.57	392.63
671.91	391.12
672.25	389.62
672.58	388.05
672.92	386.65
673.26	385.32
673.60	384.06
673.94	382.61
674.28	381.35
674.62	380.04
674.96	378.65
675.30	377.47
675.64	376.26
675.97	374.96
676.31	373.60
676.65	372.28
676.99	371.15
677.33	369.66
677.67	368.27
678.01	366.87
678.34	365.56
678.68	364.50
679.02	363.28
679.36	362.11
679.70	360.99
680.04	359.66
680.37	358.49
680.71	357.12
681.05	356.06
681.39	355.02
681.73	353.93
682.06	352.91
682.40	351.66
682.74	350.55
683.08	349.51
683.42	348.41
683.75	347.28
684.09	346.21
684.43	345.05
684.77	343.97
685.10	342.93
685.44	341.81
685.78	340.58
686.12	339.47
686.45	338.22
686.79	337.02
687.13	336.08
687.46	335.01
687.80	334.13
688.14	332.91
688.48	331.73
688.81	330.68
689.15	329.58
689.49	328.50
689.82	327.40
690.16	326.31
690.50	325.39
690.83	324.46
691.17	323.28
691.51	322.39
691.84	321.42
692.18	320.40
692.52	319.40
692.85	318.50
693.19	317.67
693.52	316.77
693.86	315.85
694.20	314.85
694.53	313.93
694.87	312.91
695.21	312.08
695.54	311.01
695.88	310.05
696.21	309.11
696.55	308.29
696.88	307.48
697.22	306.58
697.56	305.59
697.89	304.71
698.23	303.94
698.56	303.08
698.90	302.29
699.23	301.30
699.57	300.49
699.90	299.54
700.24	298.58
700.58	297.65
700.91	296.87
701.25	296.26
701.58	295.63
701.92	294.91
702.25	294.12
702.59	293.51
702.92	292.78
703.26	292.19
703.59	291.39
703.93	290.78
704.26	290.02
704.60	289.44
704.93	288.72
705.26	287.99
705.60	287.53
705.93	286.89
706.27	286.40
706.60	286.00
706.94	285.50
707.27	284.93
707.61	284.43
707.94	283.97
708.27	283.25
708.61	282.41
708.94	281.83
709.28	281.27
709.61	280.67
709.94	280.15
710.28	279.45
710.61	278.96
710.95	278.27
711.28	278.02
711.61	277.58
711.95	277.01
712.28	276.57
712.61	275.88
712.95	275.39
713.28	275.00
713.61	274.33
713.95	273.76
714.28	273.34
714.61	272.85
714.95	272.30
715.28	271.71
715.61	271.22
715.95	270.78
716.28	270.47
716.61	270.14
716.95	269.72
717.28	269.52
717.61	269.18
717.94	268.91
718.28	268.12
718.61	267.61
718.94	267.34
719.27	266.95
719.61	266.61
719.94	266.26
720.27	265.87
720.60	265.59
720.94	265.27
721.27	264.89
721.60	264.60
721.93	264.27
722.27	264.09
722.60	263.76
722.93	263.39
723.26	262.98
723.59	262.57
723.93	262.20
724.26	261.67
724.59	261.32
724.92	260.96
725.25	260.92
725.59	260.60
725.92	260.18
726.25	259.82
726.58	259.47
726.91	259.08
727.24	258.70
727.57	258.34
727.91	258.00
728.24	257.78
728.57	257.45
728.90	257.14
729.23	256.81
729.56	256.60
729.89	256.30
730.22	255.99
730.55	255.73
730.89	255.45
731.22	255.30
731.55	254.93
731.88	254.63
732.21	254.20
732.54	253.92
732.87	253.73
733.20	253.55
733.53	253.30
733.86	252.94
734.19	252.66
734.52	252.48
734.85	252.43
735.18	252.06
735.51	251.90
735.84	251.70
736.17	251.40
736.50	251.15
736.83	251.18
737.16	250.90
737.49	250.70
737.82	250.43
738.15	250.21
738.48	250.03
738.81	249.72
739.14	249.53
739.47	249.24
739.80	249.03
740.13	248.70
740.46	248.52
740.79	248.39
741.12	248.20
741.45	247.86
741.78	247.45
742.11	247.30
742.44	246.89
742.77	246.85
743.10	246.59
743.43	246.29
743.75	245.87
744.08	245.97
744.41	245.73
744.74	245.55
745.07	245.31
745.40	245.13
745.73	245.05
746.06	244.85
746.39	244.68
746.71	244.51
747.04	244.40
747.37	244.16
747.70	243.99
748.03	243.77
748.36	243.70
748.68	243.57
749.01	243.29
749.34	243.26
749.67	243.03
750.00	243.15
750.33	243.15
750.65	243.09
750.98	242.70
751.31	242.52
751.64	242.40
751.97	242.31
752.29	242.10
752.62	241.90
752.95	241.76
753.28	241.63
753.60	241.35
753.93	241.33
754.26	241.31
754.59	241.15
754.91	240.98
755.24	240.75
755.57	240.61
755.90	240.61
756.22	240.40
756.55	240.13
756.88	239.83
757.20	239.69
757.53	239.51
757.86	239.41
758.19	239.33
758.51	239.22
758.84	239.01
759.17	238.97
759.49	238.85
759.82	238.85
760.15	238.72
760.47	238.66
760.80	238.45
761.13	238.28
761.45	238.25
761.78	238.20
762.11	238.19
762.43	238.13
762.76	238.01
763.08	237.99
763.41	238.04
763.74	237.83
764.06	237.76
764.39	237.57
764.71	237.48
765.04	237.33
765.37	237.17
765.69	237.08
766.02	236.90
766.34	236.81
766.67	236.68
767.00	236.70
767.32	236.82
767.65	236.79
767.97	236.64
768.30	236.50
768.62	236.46
768.95	236.30
769.27	236.16
769.60	236.04
769.92	235.89
770.25	235.78
770.57	235.64
770.90	235.52
771.22	235.46
771.55	235.40
771.87	235.33
772.20	235.25
772.52	235.43
772.85	235.69
773.17	235.58
773.50	235.40
773.82	235.28
774.15	234.99
774.47	234.83
774.80	234.88
775.12	234.70
775.45	234.60
775.77	234.56
776.09	234.53
776.42	234.52
776.74	234.43
777.07	234.20
777.39	234.19
777.72	234.12
778.04	234.08
778.36	233.96
778.69	233.89
779.01	233.81
779.33	233.46
779.66	233.09
779.98	232.99
780.31	232.99
780.63	232.93
780.95	232.97
781.28	232.87
781.60	232.70
781.92	232.70
782.25	232.64
782.57	232.55
782.89	232.39
783.22	232.30
783.54	232.30
783.86	232.26
784.19	232.22
784.51	232.14
784.83	232.11
785.16	232.07
785.48	232.04
785.80	232.02
786.12	232.00
786.45	232.02
786.77	231.99
787.09	231.87
787.42	231.84
787.74	231.80
788.06	231.82
788.38	231.77
788.71	231.78
789.03	231.67
789.35	231.69
789.67	231.66
789.99	231.63
790.32	231.51
790.64	231.50
790.96	231.60
791.28	231.54
791.61	231.55
791.93	231.40
792.25	231.37
792.57	231.48
792.89	231.42
793.21	231.36
793.54	231.35
793.86	231.39
794.18	231.35
794.50	231.30
794.82	231.24
795.14	231.32
795.47	231.26
795.79	231.31
796.11	231.29
796.43	231.25
796.75	231.24
797.07	231.26
797.39	231.30
797.71	231.17
798.04	231.23
798.36	231.14
798.68	231.23
799.00	231.25
799.32	231.11
799.64	231.12
799.96	231.17
800.28	231.16
800.60	231.08
800.92	231.05
801.24	231.00
801.56	231.03
801.89	230.99
802.21	231.10
802.53	231.03
802.85	231.03
803.17	231.19
803.49	231.01
803.81	231.07
804.13	231.07
804.45	231.03
804.77	231.00
805.09	230.97
805.41	230.98
805.73	230.95
806.05	230.93
806.37	230.92
806.69	230.90
807.01	230.92
807.33	230.98
807.65	230.94
807.97	231.05
808.28	231.06
808.60	231.02
808.92	230.88
809.24	231.00
809.56	230.98
809.88	230.85
810.20	231.03
810.52	231.01
810.84	230.90
811.16	230.85
811.48	230.85
811.80	230.87
812.12	230.87
812.43	230.91
812.75	230.89
813.07	230.92
813.39	230.86
813.71	230.85
814.03	230.84
814.35	230.88
814.67	230.85
814.98	230.80
815.30	230.84
815.62	230.80
815.94	230.64
816.26	230.70
816.58	230.58
816.89	230.54
817.21	230.42
817.53	230.42
817.85	230.50
818.17	230.35
818.48	230.18
818.80	230.18
819.12	230.16
819.44	230.13
819.76	230.02
820.07	230.01
820.39	229.92
820.71	229.85
821.03	229.73
821.34	229.60
821.66	229.54
821.98	229.42
822.30	229.49
822.61	229.64
822.93	229.51
823.25	229.52
823.57	229.41
823.88	229.50
824.20	229.43
824.52	229.38
824.83	229.38
825.15	229.51
825.47	229.48
825.79	229.32
826.10	229.28
826.42	229.21
826.74	229.14
827.05	229.08
827.37	229.03
827.69	229.01
828.00	228.90
828.32	228.93
828.64	228.87
828.95	228.81
829.27	228.61
829.58	228.58
829.90	228.60
830.22	228.65
830.53	228.57
830.85	228.55
831.17	228.55
831.48	228.53
831.80	228.40
832.11	228.28
832.43	228.27
832.75	228.29
833.06	228.35
833.38	228.35
833.69	228.32
834.01	228.27
834.32	228.32
834.64	228.37
834.96	228.37
835.27	228.33
835.59	228.38
835.90	228.46
836.22	228.48
836.53	228.44
836.85	228.40
837.16	228.62
837.48	228.59
837.79	228.47
838.11	228.47
838.42	228.53
838.74	228.70
839.05	228.70
839.37	228.67
839.68	228.65
840.00	228.71
840.31	228.79
840.63	228.85
840.94	228.83
841.26	228.84
841.57	228.78
841.88	228.90
842.20	228.85
842.51	228.75
842.83	228.78
843.14	228.92
843.46	228.90
843.77	228.78
844.08	228.95
844.40	228.94
844.71	228.99
845.03	228.96
845.34	228.91
845.65	229.00
845.97	228.99
846.28	229.01
846.60	228.97
846.91	228.97
847.22	229.10
847.54	229.11
847.85	229.20
848.16	229.22
848.48	229.20
848.79	229.24
849.10	229.31
849.42	229.30
849.73	229.20
850.04	229.36
850.36	229.23
850.67	229.18
850.98	229.27
851.30	229.27
851.61	229.30
851.92	229.30
852.23	229.30
852.55	229.44
852.86	229.42
853.17	229.52
853.49	229.66
853.80	229.62
854.11	229.69
854.42	229.66
854.74	229.66
855.05	229.69
855.36	229.60
855.67	229.63
855.99	229.61
856.30	229.82
856.61	229.69
856.92	229.75
857.23	229.66
857.55	229.64
857.86	229.53
858.17	229.52
858.48	229.36
858.79	229.36
859.11	229.19
859.42	229.20
859.73	229.15
860.04	229.05
860.35	228.89
860.66	228.78
860.98	228.79
861.29	228.86
861.60	228.76
861.91	228.74
862.22	228.63
862.53	228.57
862.84	228.35
863.16	228.41
863.47	228.27
863.78	228.28
864.09	228.22
864.40	228.31
864.71	228.30
865.02	228.30
865.33	228.21
865.64	228.25
865.95	228.18
866.27	228.28
866.58	228.17
866.89	228.28
867.20	228.35
867.51	228.20
867.82	228.09
868.13	228.15
868.44	228.14
868.75	228.18
869.06	228.15
869.37	228.10
869.68	228.01
869.99	228.11
870.30	228.12
870.61	228.15
870.92	228.17
871.23	228.23
871.54	228.25
871.85	228.31
872.16	228.41
872.47	228.33
872.78	228.25
873.09	228.25
873.40	228.14
873.71	228.13
874.02	228.31
874.33	228.30
874.64	228.22
874.95	228.30
875.26	228.28
875.56	228.42
875.87	228.58
876.18	228.61
876.49	228.85
876.80	228.90
877.11	228.90
877.42	228.85
877.73	228.79
878.04	228.80
878.35	228.83
878.66	228.83
878.96	228.97
879.27	228.90
879.58	229.00
879.89	229.04
880.20	229.03
880.51	229.02
880.82	229.03
881.12	229.12
881.43	229.06
881.74	229.11
882.05	229.11
882.36	229.10
882.67	229.14
882.97	228.94
883.28	228.89
883.59	228.91
883.90	229.03
884.21	229.14
884.51	229.23
884.82	229.21
885.13	229.15
885.44	229.19
885.74	229.23
886.05	229.21
886.36	229.25
886.67	229.16
886.98	229.19
887.28	229.18
887.59	229.25
887.90	229.28
888.20	229.21
888.51	229.20
888.82	229.18
889.13	229.24
889.43	229.29
889.74	229.26
890.05	229.21
890.35	229.19
890.66	229.10
890.97	229.01
891.28	229.00
891.58	229.07
891.89	228.94
892.20	228.88
892.50	228.79
892.81	228.73
893.12	228.74
893.42	228.62
893.73	228.62
894.04	228.50
894.34	228.49
894.65	228.51
894.95	228.53
895.26	228.40
895.57	228.28
895.87	228.13
896.18	228.11
896.48	228.18
896.79	228.10
897.10	228.10
897.40	228.04
897.71	228.07
898.01	227.88
898.32	227.88
898.63	227.89
898.93	227.97
899.24	227.92
899.54	227.90
899.85	227.90
900.15	227.90
900.46	227.84
900.76	227.84
901.07	227.77
901.38	227.68
901.68	227.75
901.99	227.78
902.29	227.84
902.60	227.83
902.90	227.78
903.21	227.76
903.51	227.84
903.82	227.87
904.12	227.86
904.43	228.00
904.73	228.04
905.03	227.99
905.34	228.18
905.64	228.20
905.95	228.23
906.25	228.22
906.56	228.28
906.86	228.36
907.17	228.36
907.47	228.32
907.77	228.27
908.08	228.20
908.38	228.10
908.69	228.18
908.99	228.30
909.30	228.33
909.60	228.30
909.90	228.19
910.21	228.16
910.51	228.02
910.81	228.04
911.12	228.05
911.42	228.03
911.73	227.86
912.03	227.90
912.33	227.95
912.64	227.92
912.94	227.81
913.24	227.86
913.55	227.85
913.85	227.89
914.15	228.03
914.46	228.15
914.76	228.19
915.06	228.10
915.37	228.00
915.67	227.93
915.97	228.08
916.27	228.04
916.58	228.08
916.88	228.12
917.18	227.97
917.49	228.13
917.79	228.25
918.09	228.18
918.39	228.20
918.70	228.28
919.00	228.33
919.30	228.47
919.60	228.46
919.91	228.38
920.21	228.37
920.51	228.34
920.81	228.31
921.12	228.39
921.42	228.41
921.72	228.42
922.02	228.51
922.32	228.40
922.63	228.49
922.93	228.53
923.23	228.60
923.53	228.66
923.83	228.48
924.13	228.47
924.44	228.54
924.74	228.65
925.04	228.66
925.34	228.66
925.64	228.61
925.94	228.59
926.24	228.71
926.55	228.70
926.85	228.75
927.15	228.69
927.45	228.71
927.75	228.66
928.05	228.68
928.35	228.61
928.65	228.70
928.95	228.68
929.26	228.71
929.56	228.71
929.86	228.67
930.16	228.64
930.46	228.66
930.76	228.66
931.06	228.63
931.36	228.55
931.66	228.48
931.96	228.43
932.26	228.39
932.56	228.32
932.86	228.44
933.16	228.38
933.46	228.35
933.76	228.27
934.06	228.30
934.36	228.39
934.66	228.42
934.96	228.40
935.26	228.43
935.56	228.44
935.86	228.43
936.16	228.51
936.46	228.51
936.76	228.45
937.06	228.34
937.36	228.22
937.66	228.21
937.96	228.25
938.26	228.25
938.56	228.20
938.86	228.21
939.16	228.23
939.46	228.26
939.76	228.30
940.06	228.41
940.35	228.30
940.65	228.25
940.95	228.26
941.25	228.12
941.55	228.08
941.85	228.10
942.15	228.10
942.45	228.16
942.75	228.11
943.04	228.17
943.34	228.20
943.64	228.17
943.94	228.14
944.24	228.07
944.54	228.18
944.84	228.18
945.13	228.16
945.43	228.06
945.73	227.97
946.03	227.98
946.33	227.98
946.62	228.12
946.92	228.10
947.22	228.10
947.52	228.15
947.82	228.18
948.11	228.03
948.41	227.95
948.71	227.82
949.01	227.97
949.31	227.90
949.60	227.96
949.90	227.95
950.20	227.92
950.50	228.03
950.79	227.83
951.09	227.97
951.39	227.96
951.69	227.95
951.98	227.98
952.28	227.97
952.58	227.87
952.87	227.77
953.17	227.78
953.47	227.74
953.76	227.76
954.06	227.72
954.36	227.81
954.66	227.82
954.95	227.90
955.25	227.87
955.55	227.84
955.84	227.71
956.14	227.80
956.44	227.84
956.73	227.78
957.03	227.91
957.32	227.91
957.62	227.91
957.92	227.97
958.21	227.98
958.51	228.19
958.81	228.11
959.10	228.17
959.40	228.20
959.69	228.12
959.99	228.15
960.29	228.16
960.58	228.15
960.88	228.29
961.17	228.29
961.47	228.23
961.76	228.23
962.06	228.38
962.36	228.35
962.65	228.31
962.95	228.30
963.24	228.27
963.54	228.11
963.83	228.19
964.13	228.22
964.42	228.15
964.72	227.97
965.01	227.99
965.31	227.85
965.60	227.77
965.90	228.09
966.19	227.97
966.49	227.94
966.78	227.90
967.08	227.75
967.37	227.72
967.67	227.77
967.96	227.87
968.26	227.85
968.55	227.88
968.85	227.84
969.14	227.82
969.43	227.74
969.73	227.81
970.02	227.66
970.32	227.64
970.61	227.62
970.91	227.54
971.20	227.67
971.49	227.85
971.79	227.95
972.08	227.70
972.38	227.66
972.67	227.66
972.96	227.73
973.26	227.76
973.55	227.83
973.85	227.80
974.14	227.67
974.43	227.53
974.73	227.44
975.02	227.42
975.31	227.41
975.61	227.39
975.90	227.43
976.19	227.40
976.49	227.35
976.78	227.41
977.07	227.45
977.37	227.32
977.66	227.29
977.95	227.14
978.24	227.14
978.54	227.21
978.83	227.23
979.12	227.20
979.42	227.19
979.71	227.14
980.00	227.22
980.29	227.29
980.59	227.40
980.88	227.51
981.17	227.60
981.46	227.60
981.76	227.61
982.05	227.62
982.34	227.76
982.63	227.77
982.93	227.85
983.22	227.89
983.51	227.91
983.80	227.99
984.09	228.03
984.39	228.10
984.68	228.06
984.97	228.04
985.26	228.05
985.55	228.10
985.85	228.07
986.14	227.93
986.43	227.98
986.72	227.99
987.01	227.92
987.30	227.94
987.59	228.02
987.89	228.11
988.18	228.14
988.47	228.04
988.76	228.03
989.05	227.94
989.34	227.93
989.63	228.04
989.92	227.96
990.22	228.03
990.51	227.90
990.80	228.02
991.09	228.06
991.38	227.99
991.67	227.95
991.96	228.01
992.25	228.20
992.54	228.12
992.83	228.13
993.12	228.17
993.41	228.15
993.70	228.23
993.99	228.32
994.28	228.33
994.58	228.46
994.87	228.55
995.16	228.54
995.45	228.52
995.74	228.47
996.03	228.58
996.32	228.72
996.61	228.81
996.90	228.79
997.19	228.83
997.48	228.86
997.77	228.85
998.06	228.73
998.34	228.58
998.63	228.62
998.92	228.52
999.21	228.40
999.50	228.38
999.79	228.24
1000.08	228.20
1000.37	228.24
1000.66	228.11
1000.95	228.08
1001.24	228.06
1001.53	227.96
1001.82	227.88
1002.11	227.81
1002.40	227.72
1002.68	227.82
1002.97	227.92
1003.26	227.96
1003.55	227.91
1003.84	227.91
1004.13	228.00
1004.42	228.10
1004.71	228.09
1004.99	228.09
1005.28	228.29
1005.57	228.19
1005.86	228.28
1006.15	228.23
1006.44	228.06
1006.72	228.11
1007.01	228.05
1007.30	228.05
1007.59	228.15
1007.88	228.18
1008.17	228.11
1008.45	228.00
1008.74	227.91
1009.03	227.89
1009.32	227.79
1009.60	227.83
1009.89	227.80
1010.18	227.76
1010.47	227.62
1010.76	227.63
1011.04	227.80
1011.33	227.77
1011.62	227.86
1011.91	227.79
1012.19	227.74
1012.48	227.84
1012.77	227.83
1013.05	227.95
1013.34	227.96
1013.63	228.00
1013.92	227.90
1014.20	227.93
1014.49	228.01
1014.78	228.02
1015.06	227.93
1015.35	228.05
1015.64	228.07
1015.92	228.13
1016.21	228.20
1016.50	228.26
1016.78	228.26
1017.07	228.21
1017.36	228.15
1017.64	228.13
1017.93	228.25
1018.22	228.26
1018.50	228.26
1018.79	228.40
1019.08	228.31
1019.36	228.40
1019.65	228.36
1019.93	228.52
1020.22	228.51
1020.51	228.61
1020.79	228.61
1021.08	227.00
1021.36	228.60
1021.65	230.40
1021.94	227.90
1022.22	229.30
1022.51	227.90
1022.79	229.20
1023.08	228.20
1023.36	230.70
1023.65	228.50
>>>>>End Processed Spectral Data<<<<<
