SpectraSuite Data File
++++++++++++++++++++++++++++++++++++
Date: Fri Feb 01 14:37:42 EST 2013
User: group
Dark Spectrum Present: No
Reference Spectrum Present: No
Number of Sampled Component Spectra: 1
Spectrometers: USB2E7196
Integration Time (usec): 70000 (USB2E7196)
Spectra Averaged: 10 (USB2E7196)
Boxcar Smoothing: 10 (USB2E7196)
Correct for Electrical Dark: No (USB2E7196)
Strobe/Lamp Enabled: No (USB2E7196)
Correct for Detector Non-linearity: No (USB2E7196)
Correct for Stray Light: No (USB2E7196)
Number of Pixels in Processed Spectrum: 2048
>>>>>Begin Processed Spectral Data<<<<<
339.09	0.00
339.48	217.00
339.86	219.20
340.24	219.70
340.63	219.10
341.01	224.50
341.39	223.40
341.78	224.70
342.16	226.10
342.54	227.00
342.93	214.90
343.31	225.70
343.69	226.17
344.07	226.49
344.46	226.91
344.84	227.27
345.22	227.32
345.60	227.53
345.99	227.66
346.37	227.79
346.75	227.82
347.13	227.86
347.52	227.86
347.90	227.92
348.28	227.86
348.66	227.92
349.05	227.78
349.43	227.74
349.81	227.76
350.19	227.73
350.57	227.70
350.96	227.82
351.34	227.90
351.72	227.97
352.10	228.12
352.48	228.08
352.87	228.21
353.25	228.35
353.63	228.42
354.01	228.46
354.39	228.49
354.77	228.59
355.15	228.78
355.54	228.72
355.92	228.74
356.30	228.78
356.68	228.92
357.06	228.99
357.44	229.03
357.82	229.09
358.20	229.16
358.58	229.21
358.97	229.25
359.35	229.32
359.73	229.38
360.11	229.43
360.49	229.53
360.87	229.59
361.25	229.72
361.63	229.75
362.01	229.87
362.39	229.93
362.77	230.00
363.15	229.96
363.53	230.05
363.91	230.10
364.29	230.15
364.67	230.10
365.05	230.15
365.43	230.16
365.81	230.17
366.19	230.31
366.57	230.47
366.95	230.51
367.33	230.52
367.71	230.50
368.09	230.47
368.47	230.46
368.85	230.42
369.23	230.41
369.61	230.46
369.99	230.45
370.37	230.39
370.75	230.37
371.13	230.43
371.51	230.27
371.89	230.33
372.27	230.30
372.65	230.27
373.03	230.18
373.41	230.07
373.78	229.95
374.16	229.71
374.54	229.56
374.92	229.48
375.30	229.50
375.68	229.47
376.06	229.46
376.44	229.37
376.82	229.32
377.19	229.24
377.57	229.07
377.95	228.98
378.33	228.96
378.71	228.73
379.09	228.52
379.47	228.55
379.84	228.33
380.22	228.25
380.60	228.09
380.98	228.01
381.36	228.01
381.73	228.00
382.11	228.00
382.49	228.04
382.87	227.85
383.25	227.62
383.62	227.74
384.00	227.61
384.38	227.49
384.76	227.45
385.13	227.36
385.51	227.28
385.89	227.11
386.27	227.03
386.64	227.02
387.02	226.94
387.40	226.75
387.78	226.67
388.15	226.64
388.53	226.66
388.91	226.69
389.29	226.64
389.66	226.68
390.04	226.59
390.42	226.37
390.79	226.35
391.17	226.34
391.55	226.10
391.92	225.97
392.30	226.03
392.68	225.89
393.05	225.91
393.43	225.88
393.81	225.91
394.18	225.85
394.56	225.84
394.94	225.91
395.31	225.98
395.69	226.10
396.06	226.17
396.44	226.16
396.82	226.14
397.19	226.27
397.57	226.26
397.95	226.42
398.32	226.47
398.70	226.61
399.07	226.75
399.45	226.82
399.82	226.98
400.20	227.04
400.58	227.21
400.95	227.15
401.33	227.41
401.70	227.79
402.08	227.93
402.45	228.15
402.83	228.43
403.20	228.59
403.58	228.78
403.95	228.94
404.33	229.15
404.71	229.24
405.08	229.44
405.46	229.55
405.83	229.66
406.21	229.92
406.58	230.15
406.96	230.38
407.33	230.66
407.70	231.04
408.08	231.51
408.45	231.82
408.83	232.30
409.20	232.54
409.58	232.66
409.95	233.06
410.33	233.32
410.70	233.61
411.08	234.09
411.45	234.43
411.82	234.92
412.20	235.52
412.57	236.25
412.95	236.70
413.32	237.41
413.69	238.10
414.07	238.69
414.44	239.38
414.82	240.09
415.19	240.90
415.56	241.63
415.94	242.42
416.31	243.30
416.68	244.15
417.06	245.26
417.43	246.33
417.81	247.47
418.18	248.74
418.55	249.92
418.93	251.33
419.30	252.83
419.67	254.21
420.04	255.58
420.42	257.03
420.79	258.88
421.16	260.62
421.54	262.44
421.91	264.37
422.28	266.23
422.66	268.30
423.03	270.40
423.40	272.47
423.77	274.57
424.15	276.93
424.52	279.45
424.89	282.02
425.26	284.50
425.64	286.78
426.01	289.39
426.38	292.10
426.75	294.73
427.13	297.47
427.50	300.29
427.87	303.35
428.24	306.45
428.61	309.27
428.99	312.63
429.36	316.02
429.73	319.57
430.10	323.15
430.47	326.51
430.85	330.11
431.22	333.94
431.59	338.10
431.96	341.89
432.33	345.96
432.70	350.11
433.08	354.94
433.45	359.54
433.82	364.17
434.19	369.35
434.56	374.26
434.93	379.10
435.30	383.87
435.68	389.19
436.05	394.25
436.42	399.40
436.79	403.88
437.16	409.18
437.53	414.41
437.90	419.51
438.27	424.70
438.64	430.00
439.01	434.89
439.38	439.35
439.75	443.71
440.13	448.56
440.50	453.00
440.87	456.88
441.24	460.90
441.61	465.20
441.98	468.48
442.35	472.41
442.72	476.11
443.09	480.02
443.46	482.41
443.83	484.24
444.20	485.73
444.57	487.85
444.94	488.79
445.31	489.93
445.68	491.13
446.05	492.20
446.42	492.21
446.79	492.15
447.16	491.90
447.53	491.95
447.90	490.64
448.27	489.20
448.64	486.95
449.01	485.65
449.37	482.60
449.74	479.50
450.11	475.98
450.48	472.20
450.85	468.10
451.22	464.66
451.59	461.32
451.96	458.32
452.33	453.95
452.70	450.06
453.07	445.44
453.43	440.76
453.80	435.94
454.17	431.43
454.54	427.26
454.91	422.65
455.28	418.10
455.65	413.95
456.02	409.90
456.38	406.20
456.75	401.51
457.12	397.78
457.49	394.07
457.86	390.31
458.23	387.05
458.59	383.57
458.96	379.89
459.33	376.70
459.70	373.42
460.07	370.99
460.43	368.00
460.80	365.19
461.17	362.69
461.54	360.19
461.91	357.62
462.27	354.86
462.64	352.46
463.01	350.01
463.38	347.55
463.74	345.07
464.11	342.94
464.48	341.02
464.85	338.87
465.21	337.22
465.58	335.44
465.95	333.47
466.32	331.78
466.68	330.08
467.05	328.28
467.42	326.67
467.78	324.90
468.15	323.21
468.52	321.78
468.88	319.99
469.25	318.40
469.62	317.16
469.98	316.02
470.35	314.89
470.72	313.65
471.08	312.45
471.45	311.33
471.82	310.29
472.18	308.99
472.55	308.21
472.92	307.19
473.28	306.36
473.65	305.33
474.02	304.29
474.38	303.50
474.75	302.83
475.11	301.97
475.48	301.21
475.85	300.67
476.21	300.04
476.58	299.55
476.94	298.96
477.31	298.33
477.67	297.78
478.04	297.18
478.41	296.81
478.77	296.42
479.14	295.94
479.50	295.51
479.87	295.30
480.23	294.96
480.60	294.65
480.96	294.26
481.33	294.13
481.69	293.96
482.06	293.81
482.42	293.60
482.79	293.47
483.15	293.54
483.52	293.46
483.88	293.40
484.25	293.37
484.61	293.28
484.98	293.35
485.34	293.40
485.71	293.70
486.07	293.70
486.44	293.77
486.80	293.90
487.17	294.16
487.53	294.54
487.90	294.75
488.26	295.11
488.62	295.36
488.99	295.71
489.35	296.08
489.72	296.39
490.08	296.82
490.44	297.22
490.81	297.53
491.17	298.20
491.54	298.68
491.90	299.10
492.26	299.70
492.63	300.22
492.99	300.77
493.36	301.29
493.72	301.92
494.08	302.45
494.45	303.10
494.81	303.71
495.17	304.27
495.54	304.93
495.90	305.47
496.26	306.22
496.63	306.78
496.99	307.44
497.35	308.20
497.72	308.88
498.08	309.53
498.44	310.21
498.80	310.65
499.17	311.42
499.53	312.05
499.89	312.81
500.26	313.42
500.62	313.99
500.98	314.65
501.34	315.13
501.71	315.85
502.07	316.39
502.43	316.85
502.79	317.19
503.16	317.57
503.52	317.99
503.88	318.29
504.24	318.64
504.60	319.06
504.97	319.34
505.33	319.71
505.69	320.11
506.05	320.40
506.41	320.65
506.78	320.88
507.14	321.16
507.50	321.22
507.86	321.38
508.22	321.57
508.59	321.66
508.95	321.98
509.31	322.04
509.67	322.22
510.03	322.29
510.39	322.63
510.75	322.80
511.12	322.83
511.48	323.00
511.84	323.15
512.20	323.22
512.56	323.33
512.92	323.36
513.28	323.41
513.64	323.45
514.00	323.63
514.37	323.74
514.73	323.74
515.09	323.97
515.45	324.13
515.81	324.24
516.17	324.30
516.53	324.29
516.89	324.50
517.25	324.78
517.61	325.08
517.97	325.25
518.33	325.64
518.69	326.08
519.05	326.62
519.41	327.14
519.77	327.77
520.13	328.39
520.49	329.04
520.85	329.68
521.21	330.51
521.57	331.29
521.93	332.06
522.29	333.10
522.65	333.98
523.01	334.92
523.37	335.91
523.73	337.14
524.09	338.51
524.45	339.84
524.81	341.19
525.17	342.69
525.53	344.30
525.89	345.84
526.25	347.41
526.61	348.99
526.97	350.72
527.33	352.41
527.68	354.36
528.04	356.34
528.40	358.49
528.76	360.76
529.12	363.06
529.48	365.39
529.84	367.87
530.20	370.31
530.56	373.10
530.91	375.79
531.27	378.51
531.63	381.21
531.99	384.17
532.35	386.91
532.71	389.97
533.07	392.97
533.42	396.30
533.78	399.65
534.14	403.00
534.50	406.33
534.86	410.01
535.21	413.39
535.57	417.05
535.93	420.71
536.29	424.55
536.65	428.37
537.00	432.25
537.36	436.07
537.72	440.07
538.08	444.00
538.44	448.15
538.79	452.40
539.15	456.82
539.51	461.26
539.87	465.70
540.22	470.09
540.58	474.83
540.94	479.20
541.29	483.79
541.65	488.28
542.01	493.20
542.37	497.77
542.72	502.57
543.08	507.31
543.44	512.22
543.79	516.74
544.15	521.51
544.51	526.52
544.87	531.40
545.22	536.38
545.58	541.11
545.94	546.15
546.29	551.03
546.65	555.78
547.01	560.41
547.36	565.33
547.72	570.40
548.07	574.96
548.43	579.80
548.79	584.85
549.14	589.83
549.50	594.67
549.86	599.60
550.21	604.70
550.57	609.65
550.92	614.56
551.28	619.50
551.64	624.58
551.99	629.55
552.35	634.40
552.70	639.37
553.06	644.62
553.41	649.45
553.77	654.46
554.13	659.68
554.48	664.89
554.84	669.95
555.19	674.78
555.55	679.99
555.90	684.68
556.26	689.40
556.61	694.26
556.97	698.88
557.32	703.70
557.68	708.43
558.03	713.17
558.39	717.88
558.74	722.90
559.10	727.58
559.45	732.22
559.81	737.17
560.16	741.74
560.52	746.28
560.87	751.21
561.23	755.73
561.58	760.34
561.94	764.64
562.29	769.01
562.64	772.98
563.00	777.01
563.35	781.78
563.71	786.38
564.06	790.78
564.42	795.28
564.77	799.46
565.12	803.59
565.48	807.96
565.83	811.81
566.19	815.52
566.54	819.49
566.89	823.20
567.25	827.17
567.60	831.30
567.96	834.97
568.31	838.50
568.66	841.90
569.02	844.98
569.37	848.25
569.72	851.53
570.08	855.05
570.43	858.63
570.78	861.49
571.14	864.25
571.49	867.20
571.84	870.30
572.20	872.84
572.55	875.46
572.90	877.92
573.26	880.62
573.61	883.20
573.96	885.52
574.31	887.73
574.67	889.55
575.02	891.14
575.37	893.18
575.72	894.73
576.08	896.63
576.43	898.40
576.78	900.29
577.13	901.98
577.49	903.86
577.84	905.33
578.19	907.14
578.54	908.64
578.90	909.75
579.25	910.74
579.60	911.73
579.95	912.80
580.30	913.79
580.66	914.73
581.01	915.67
581.36	916.56
581.71	917.45
582.06	918.30
582.42	919.12
582.77	919.89
583.12	920.39
583.47	921.06
583.82	921.84
584.17	922.27
584.53	922.65
584.88	922.77
585.23	922.96
585.58	923.03
585.93	923.42
586.28	924.05
586.63	924.50
586.98	925.11
587.34	925.75
587.69	926.05
588.04	926.21
588.39	926.18
588.74	925.60
589.09	925.41
589.44	925.05
589.79	924.86
590.14	924.72
590.49	924.69
590.84	924.29
591.19	924.17
591.54	923.30
591.89	922.77
592.25	922.54
592.60	921.55
592.95	920.38
593.30	919.14
593.65	917.81
594.00	916.31
594.35	915.57
594.70	914.05
595.05	912.90
595.40	911.47
595.75	910.08
596.10	909.19
596.45	908.46
596.80	907.69
597.15	906.58
597.50	905.21
597.85	904.31
598.19	903.20
598.54	901.77
598.89	900.79
599.24	899.60
599.59	898.19
599.94	897.34
600.29	896.07
600.64	894.79
600.99	893.36
601.34	892.39
601.69	890.50
602.04	889.10
602.39	887.55
602.74	886.25
603.08	885.25
603.43	884.09
603.78	882.20
604.13	880.46
604.48	878.83
604.83	877.16
605.18	875.35
605.53	873.30
605.87	871.30
606.22	869.50
606.57	867.61
606.92	865.89
607.27	864.10
607.62	862.72
607.96	861.04
608.31	859.29
608.66	857.04
609.01	855.13
609.36	852.61
609.70	850.29
610.05	848.11
610.40	845.54
610.75	842.98
611.10	840.66
611.44	837.84
611.79	835.41
612.14	833.00
612.49	830.22
612.83	827.61
613.18	825.05
613.53	822.38
613.88	819.53
614.22	816.67
614.57	813.53
614.92	810.88
615.27	808.21
615.61	805.25
615.96	802.41
616.31	799.75
616.65	797.81
617.00	795.19
617.35	792.45
617.70	789.84
618.04	787.08
618.39	784.35
618.74	781.86
619.08	779.12
619.43	776.31
619.78	773.85
620.12	771.24
620.47	768.60
620.82	765.81
621.16	763.24
621.51	760.51
621.85	758.00
622.20	754.91
622.55	752.10
622.89	749.62
623.24	747.19
623.59	744.79
623.93	741.81
624.28	739.14
624.62	736.68
624.97	734.34
625.32	731.86
625.66	729.50
626.01	727.02
626.35	724.40
626.70	721.82
627.04	719.30
627.39	716.76
627.73	714.07
628.08	711.57
628.43	708.97
628.77	706.23
629.12	703.52
629.46	700.82
629.81	698.02
630.15	695.15
630.50	691.91
630.84	688.61
631.19	685.53
631.53	682.77
631.88	679.57
632.22	676.07
632.57	673.25
632.91	670.17
633.26	667.21
633.60	664.09
633.95	661.24
634.29	658.09
634.64	655.47
634.98	652.60
635.32	650.10
635.67	647.39
636.01	644.90
636.36	642.11
636.70	639.63
637.05	637.03
637.39	634.52
637.73	632.39
638.08	630.21
638.42	627.95
638.77	625.44
639.11	622.77
639.45	620.42
639.80	617.65
640.14	615.08
640.49	612.62
640.83	610.15
641.17	607.70
641.52	605.17
641.86	602.44
642.20	600.14
642.55	597.44
642.89	594.95
643.23	592.19
643.58	589.88
643.92	587.14
644.26	584.55
644.61	582.33
644.95	579.84
645.29	576.90
645.64	574.16
645.98	571.47
646.32	569.12
646.66	566.59
647.01	564.20
647.35	561.81
647.69	559.22
648.04	556.96
648.38	554.33
648.72	551.54
649.06	548.91
649.41	546.21
649.75	543.42
650.09	540.79
650.43	538.20
650.78	535.35
651.12	532.92
651.46	530.42
651.80	527.65
652.14	525.02
652.49	522.80
652.83	520.50
653.17	517.97
653.51	515.48
653.85	513.00
654.20	510.48
654.54	507.64
654.88	505.00
655.22	502.21
655.56	499.53
655.90	497.36
656.25	495.03
656.59	492.54
656.93	490.45
657.27	488.27
657.61	485.90
657.95	483.83
658.29	481.37
658.64	479.02
658.98	476.66
659.32	474.25
659.66	471.92
660.00	469.45
660.34	467.32
660.68	465.06
661.02	462.79
661.36	460.56
661.70	458.41
662.05	456.55
662.39	454.82
662.73	452.89
663.07	450.96
663.41	449.00
663.75	447.10
664.09	444.93
664.43	442.80
664.77	440.90
665.11	438.90
665.45	437.03
665.79	435.16
666.13	433.14
666.47	431.24
666.81	429.31
667.15	427.39
667.49	425.48
667.83	423.87
668.17	422.16
668.51	420.40
668.85	418.78
669.19	417.04
669.53	415.09
669.87	413.33
670.21	411.68
670.55	409.85
670.89	408.33
671.23	406.73
671.57	405.13
671.91	403.56
672.25	401.80
672.58	400.43
672.92	398.88
673.26	397.45
673.60	395.99
673.94	394.46
674.28	393.16
674.62	391.93
674.96	390.42
675.30	389.00
675.64	387.64
675.97	386.23
676.31	384.76
676.65	383.32
676.99	382.09
677.33	380.56
677.67	379.24
678.01	377.50
678.34	376.09
678.68	374.67
679.02	373.09
679.36	371.80
679.70	370.33
680.04	368.83
680.37	367.55
680.71	366.21
681.05	365.03
681.39	363.60
681.73	362.15
682.06	360.87
682.40	359.61
682.74	358.21
683.08	356.99
683.42	355.75
683.75	354.61
684.09	353.37
684.43	352.08
684.77	350.76
685.10	349.75
685.44	348.48
685.78	347.32
686.12	346.19
686.45	345.00
686.79	343.81
687.13	342.66
687.46	341.58
687.80	340.58
688.14	339.33
688.48	338.34
688.81	337.22
689.15	335.98
689.49	334.84
689.82	333.81
690.16	332.67
690.50	331.51
690.83	330.28
691.17	328.99
691.51	328.01
691.84	327.13
692.18	326.01
692.52	324.95
692.85	323.87
693.19	322.90
693.52	321.87
693.86	320.74
694.20	319.86
694.53	318.77
694.87	317.54
695.21	316.53
695.54	315.49
695.88	314.37
696.21	313.40
696.55	312.44
696.88	311.46
697.22	310.44
697.56	309.52
697.89	308.58
698.23	307.76
698.56	306.80
698.90	305.81
699.23	304.70
699.57	303.77
699.90	302.93
700.24	302.13
700.58	301.35
700.91	300.58
701.25	299.89
701.58	299.21
701.92	298.55
702.25	297.76
702.59	296.99
702.92	296.32
703.26	295.60
703.59	294.90
703.93	294.35
704.26	293.78
704.60	293.01
704.93	292.39
705.26	291.74
705.60	291.09
705.93	290.37
706.27	289.94
706.60	289.55
706.94	288.90
707.27	288.27
707.61	287.64
707.94	287.04
708.27	286.21
708.61	285.51
708.94	284.91
709.28	284.32
709.61	283.81
709.94	283.29
710.28	282.74
710.61	282.19
710.95	281.40
711.28	280.95
711.61	280.40
711.95	279.96
712.28	279.28
712.61	278.70
712.95	278.32
713.28	277.90
713.61	277.23
713.95	276.70
714.28	276.11
714.61	275.56
714.95	275.06
715.28	274.67
715.61	274.09
715.95	273.57
716.28	273.06
716.61	272.52
716.95	272.08
717.28	271.64
717.61	271.11
717.94	270.79
718.28	270.18
718.61	269.71
718.94	269.21
719.27	268.81
719.61	268.36
719.94	267.85
720.27	267.39
720.60	267.04
720.94	266.73
721.27	266.40
721.60	266.00
721.93	265.64
722.27	265.37
722.60	265.04
722.93	264.65
723.26	264.41
723.59	264.09
723.93	263.62
724.26	263.22
724.59	262.84
724.92	262.44
725.25	262.17
725.59	261.92
725.92	261.57
726.25	261.23
726.58	261.13
726.91	260.92
727.24	260.60
727.57	260.16
727.91	259.74
728.24	259.48
728.57	259.17
728.90	258.81
729.23	258.29
729.56	258.15
729.89	257.92
730.22	257.55
730.55	257.28
730.89	257.10
731.22	256.79
731.55	256.41
731.88	256.11
732.21	255.75
732.54	255.49
732.87	255.20
733.20	254.96
733.53	254.62
733.86	254.31
734.19	253.94
734.52	253.73
734.85	253.55
735.18	253.14
735.51	252.91
735.84	252.71
736.17	252.49
736.50	252.06
736.83	251.88
737.16	251.63
737.49	251.22
737.82	250.79
738.15	250.59
738.48	250.44
738.81	250.23
739.14	249.98
739.47	249.62
739.80	249.40
740.13	249.20
740.46	248.82
740.79	248.59
741.12	248.42
741.45	248.20
741.78	247.91
742.11	247.78
742.44	247.55
742.77	247.28
743.10	247.04
743.43	246.84
743.75	246.48
744.08	246.50
744.41	246.40
744.74	246.28
745.07	245.99
745.40	245.81
745.73	245.76
746.06	245.63
746.39	245.44
746.71	245.23
747.04	245.06
747.37	244.94
747.70	244.81
748.03	244.63
748.36	244.45
748.68	244.26
749.01	244.03
749.34	243.96
749.67	243.92
750.00	243.86
750.33	243.73
750.65	243.59
750.98	243.20
751.31	243.01
751.64	242.87
751.97	242.95
752.29	242.85
752.62	242.56
752.95	242.36
753.28	242.28
753.60	242.08
753.93	241.92
754.26	241.83
754.59	241.52
754.91	241.38
755.24	241.25
755.57	241.23
755.90	241.03
756.22	240.74
756.55	240.58
756.88	240.38
757.20	240.31
757.53	240.19
757.86	239.97
758.19	239.87
758.51	239.75
758.84	239.45
759.17	239.24
759.49	239.01
759.82	238.86
760.15	238.75
760.47	238.74
760.80	238.54
761.13	238.43
761.45	238.33
761.78	238.13
762.11	237.97
762.43	237.77
762.76	237.70
763.08	237.68
763.41	237.50
763.74	237.47
764.06	237.29
764.39	237.14
764.71	237.03
765.04	236.89
765.37	236.77
765.69	236.65
766.02	236.60
766.34	236.52
766.67	236.45
767.00	236.32
767.32	236.33
767.65	236.34
767.97	236.14
768.30	236.11
768.62	235.99
768.95	236.00
769.27	235.85
769.60	235.93
769.92	235.79
770.25	235.64
770.57	235.54
770.90	235.44
771.22	235.41
771.55	235.36
771.87	235.30
772.20	235.23
772.52	235.30
772.85	235.45
773.17	235.30
773.50	235.14
773.82	235.19
774.15	234.92
774.47	234.78
774.80	234.77
775.12	234.67
775.45	234.61
775.77	234.48
776.09	234.38
776.42	234.10
776.74	234.01
777.07	233.96
777.39	233.83
777.72	233.70
778.04	233.58
778.36	233.55
778.69	233.45
779.01	233.39
779.33	233.14
779.66	232.89
779.98	232.85
780.31	232.94
780.63	232.86
780.95	232.88
781.28	232.78
781.60	232.56
781.92	232.46
782.25	232.49
782.57	232.41
782.89	232.44
783.22	232.39
783.54	232.31
783.86	232.29
784.19	232.32
784.51	232.35
784.83	232.23
785.16	232.15
785.48	232.14
785.80	232.11
786.12	232.09
786.45	231.96
786.77	231.98
787.09	231.81
787.42	231.72
787.74	231.60
788.06	231.62
788.38	231.73
788.71	231.74
789.03	231.60
789.35	231.61
789.67	231.51
789.99	231.51
790.32	231.46
790.64	231.43
790.96	231.52
791.28	231.51
791.61	231.62
791.93	231.64
792.25	231.62
792.57	231.68
792.89	231.68
793.21	231.70
793.54	231.73
793.86	231.72
794.18	231.67
794.50	231.70
794.82	231.68
795.14	231.66
795.47	231.72
795.79	231.87
796.11	231.76
796.43	231.80
796.75	231.85
797.07	231.93
797.39	231.86
797.71	231.62
798.04	231.50
798.36	231.44
798.68	231.42
799.00	231.39
799.32	231.27
799.64	231.35
799.96	231.28
800.28	231.24
800.60	231.13
800.92	231.19
801.24	231.16
801.56	231.23
801.89	231.17
802.21	231.12
802.53	231.04
802.85	231.20
803.17	231.25
803.49	231.21
803.81	231.16
804.13	231.11
804.45	231.15
804.77	231.12
805.09	230.97
805.41	230.95
805.73	230.87
806.05	230.78
806.37	230.60
806.69	230.59
807.01	230.56
807.33	230.61
807.65	230.52
807.97	230.58
808.28	230.48
808.60	230.48
808.92	230.45
809.24	230.58
809.56	230.44
809.88	230.29
810.20	230.18
810.52	230.14
810.84	230.22
811.16	230.15
811.48	230.15
811.80	230.26
812.12	230.28
812.43	230.36
812.75	230.40
813.07	230.33
813.39	230.41
813.71	230.36
814.03	230.27
814.35	230.21
814.67	230.10
814.98	230.14
815.30	230.13
815.62	230.01
815.94	229.74
816.26	229.70
816.58	229.74
816.89	229.77
817.21	229.72
817.53	229.66
817.85	229.64
818.17	229.69
818.48	229.67
818.80	229.60
819.12	229.53
819.44	229.50
819.76	229.57
820.07	229.41
820.39	229.38
820.71	229.44
821.03	229.41
821.34	229.43
821.66	229.40
821.98	229.45
822.30	229.46
822.61	229.62
822.93	229.57
823.25	229.44
823.57	229.39
823.88	229.50
824.20	229.55
824.52	229.59
824.83	229.55
825.15	229.48
825.47	229.45
825.79	229.45
826.10	229.34
826.42	229.31
826.74	229.29
827.05	229.38
827.37	229.46
827.69	229.49
828.00	229.51
828.32	229.26
828.64	229.22
828.95	229.29
829.27	229.18
829.58	229.29
829.90	229.34
830.22	229.29
830.53	229.23
830.85	229.12
831.17	229.03
831.48	229.09
831.80	229.17
832.11	229.20
832.43	229.20
832.75	229.32
833.06	229.42
833.38	229.57
833.69	229.45
834.01	229.30
834.32	229.24
834.64	229.12
834.96	229.23
835.27	229.21
835.59	229.17
835.90	229.09
836.22	228.95
836.53	228.96
836.85	228.94
837.16	229.11
837.48	229.04
837.79	229.16
838.11	229.08
838.42	228.97
838.74	228.82
839.05	228.83
839.37	228.74
839.68	228.59
840.00	228.41
840.31	228.50
840.63	228.59
840.94	228.59
841.26	228.66
841.57	228.73
841.88	228.66
842.20	228.63
842.51	228.71
842.83	228.72
843.14	228.86
843.46	228.90
843.77	228.60
844.08	228.73
844.40	228.57
844.71	228.50
845.03	228.58
845.34	228.68
845.65	228.59
845.97	228.59
846.28	228.58
846.60	228.72
846.91	228.59
847.22	228.53
847.54	228.58
847.85	228.51
848.16	228.49
848.48	228.56
848.79	228.59
849.10	228.60
849.42	228.69
849.73	228.57
850.04	228.60
850.36	228.67
850.67	228.63
850.98	228.58
851.30	228.67
851.61	228.57
851.92	228.60
852.23	228.68
852.55	228.75
852.86	228.89
853.17	228.81
853.49	228.94
853.80	228.99
854.11	229.07
854.42	229.17
854.74	229.14
855.05	229.07
855.36	228.98
855.67	228.99
855.99	228.96
856.30	229.11
856.61	229.12
856.92	229.22
857.23	229.22
857.55	229.34
857.86	229.34
858.17	229.32
858.48	229.22
858.79	229.19
859.11	229.12
859.42	229.01
859.73	228.99
860.04	228.86
860.35	228.80
860.66	228.66
860.98	228.64
861.29	228.60
861.60	228.51
861.91	228.62
862.22	228.55
862.53	228.48
862.84	228.28
863.16	228.28
863.47	228.15
863.78	228.14
864.09	228.17
864.40	228.17
864.71	228.30
865.02	228.35
865.33	228.33
865.64	228.35
865.95	228.35
866.27	228.51
866.58	228.57
866.89	228.58
867.20	228.50
867.51	228.49
867.82	228.41
868.13	228.65
868.44	228.47
868.75	228.44
869.06	228.51
869.37	228.51
869.68	228.47
869.99	228.52
870.30	228.55
870.61	228.59
870.92	228.63
871.23	228.60
871.54	228.61
871.85	228.65
872.16	228.66
872.47	228.66
872.78	228.58
873.09	228.57
873.40	228.59
873.71	228.64
874.02	228.62
874.33	228.72
874.64	228.55
874.95	228.63
875.26	228.63
875.56	228.59
875.87	228.50
876.18	228.50
876.49	228.76
876.80	228.70
877.11	228.64
877.42	228.59
877.73	228.52
878.04	228.54
878.35	228.50
878.66	228.50
878.96	228.50
879.27	228.38
879.58	228.44
879.89	228.42
880.20	228.49
880.51	228.44
880.82	228.42
881.12	228.42
881.43	228.37
881.74	228.31
882.05	228.34
882.36	228.40
882.67	228.36
882.97	228.13
883.28	228.15
883.59	228.03
883.90	227.96
884.21	228.06
884.51	228.10
884.82	228.05
885.13	228.11
885.44	228.18
885.74	228.24
886.05	228.24
886.36	228.25
886.67	228.18
886.98	228.28
887.28	228.30
887.59	228.35
887.90	228.41
888.20	228.47
888.51	228.50
888.82	228.50
889.13	228.57
889.43	228.71
889.74	228.71
890.05	228.79
890.35	228.92
890.66	228.89
890.97	228.81
891.28	228.95
891.58	228.79
891.89	228.70
892.20	228.82
892.50	228.85
892.81	228.84
893.12	228.90
893.42	228.86
893.73	228.96
894.04	228.99
894.34	228.95
894.65	228.98
894.95	229.04
895.26	229.08
895.57	229.20
895.87	229.02
896.18	229.10
896.48	229.07
896.79	228.99
897.10	229.00
897.40	229.10
897.71	229.10
898.01	229.26
898.32	229.37
898.63	229.23
898.93	229.12
899.24	229.10
899.54	229.11
899.85	229.05
900.15	228.94
900.46	228.89
900.76	228.95
901.07	228.98
901.38	228.90
901.68	228.94
901.99	228.81
902.29	228.83
902.60	228.85
902.90	228.90
903.21	229.00
903.51	228.84
903.82	228.80
904.12	228.69
904.43	228.57
904.73	228.48
905.03	228.50
905.34	228.73
905.64	228.67
905.95	228.66
906.25	228.73
906.56	228.77
906.86	228.80
907.17	228.71
907.47	228.69
907.77	228.69
908.08	228.62
908.38	228.62
908.69	228.52
908.99	228.50
909.30	228.52
909.60	228.35
909.90	228.47
910.21	228.33
910.51	228.29
910.81	228.34
911.12	228.43
911.42	228.34
911.73	228.12
912.03	228.09
912.33	228.07
912.64	227.95
912.94	227.90
913.24	227.87
913.55	227.82
913.85	227.66
914.15	227.64
914.46	227.68
914.76	227.57
915.06	227.59
915.37	227.44
915.67	227.33
915.97	227.43
916.27	227.36
916.58	227.45
916.88	227.46
917.18	227.46
917.49	227.56
917.79	227.64
918.09	227.66
918.39	227.81
918.70	227.80
919.00	227.81
919.30	227.90
919.60	227.93
919.91	228.06
920.21	228.17
920.51	228.12
920.81	228.07
921.12	228.14
921.42	228.12
921.72	228.19
922.02	228.23
922.32	228.30
922.63	228.35
922.93	228.57
923.23	228.55
923.53	228.48
923.83	228.29
924.13	228.31
924.44	228.25
924.74	228.26
925.04	228.28
925.34	228.35
925.64	228.28
925.94	228.21
926.24	228.34
926.55	228.28
926.85	228.27
927.15	228.28
927.45	228.30
927.75	228.31
928.05	228.32
928.35	228.35
928.65	228.28
928.95	228.35
929.26	228.16
929.56	228.27
929.86	228.40
930.16	228.45
930.46	228.56
930.76	228.60
931.06	228.63
931.36	228.64
931.66	228.70
931.96	228.70
932.26	228.77
932.56	228.67
932.86	228.80
933.16	228.96
933.46	228.96
933.76	228.94
934.06	229.08
934.36	229.24
934.66	229.21
934.96	229.18
935.26	229.19
935.56	229.22
935.86	229.13
936.16	229.00
936.46	228.98
936.76	228.88
937.06	228.98
937.36	228.98
937.66	228.93
937.96	228.84
938.26	228.84
938.56	228.75
938.86	228.80
939.16	228.89
939.46	228.80
939.76	228.80
940.06	228.87
940.35	228.80
940.65	228.64
940.95	228.64
941.25	228.55
941.55	228.50
941.85	228.38
942.15	228.36
942.45	228.43
942.75	228.43
943.04	228.42
943.34	228.30
943.64	228.24
943.94	228.23
944.24	228.32
944.54	228.28
944.84	228.36
945.13	228.24
945.43	228.13
945.73	228.16
946.03	228.10
946.33	228.04
946.62	227.97
946.92	227.97
947.22	227.98
947.52	227.96
947.82	227.94
948.11	228.00
948.41	227.93
948.71	227.86
949.01	227.73
949.31	227.66
949.60	227.69
949.90	227.61
950.20	227.59
950.50	227.52
950.79	227.45
951.09	227.38
951.39	227.35
951.69	227.24
951.98	227.15
952.28	227.30
952.58	227.26
952.87	227.26
953.17	227.22
953.47	227.23
953.76	227.30
954.06	227.24
954.36	227.17
954.66	227.29
954.95	227.38
955.25	227.36
955.55	227.46
955.84	227.36
956.14	227.40
956.44	227.41
956.73	227.37
957.03	227.45
957.32	227.49
957.62	227.50
957.92	227.55
958.21	227.66
958.51	227.78
958.81	227.85
959.10	227.90
959.40	227.94
959.69	227.92
959.99	227.92
960.29	228.00
960.58	228.09
960.88	228.18
961.17	228.23
961.47	228.40
961.76	228.40
962.06	228.50
962.36	228.45
962.65	228.48
962.95	228.56
963.24	228.54
963.54	228.60
963.83	228.70
964.13	228.78
964.42	228.70
964.72	228.61
965.01	228.57
965.31	228.57
965.60	228.54
965.90	228.68
966.19	228.74
966.49	228.63
966.78	228.60
967.08	228.63
967.37	228.57
967.67	228.58
967.96	228.48
968.26	228.54
968.55	228.66
968.85	228.75
969.14	228.72
969.43	228.85
969.73	228.83
970.02	228.85
970.32	228.77
970.61	228.81
970.91	228.73
971.20	228.88
971.49	228.89
971.79	228.97
972.08	228.94
972.38	228.99
972.67	229.02
972.96	229.13
973.26	229.10
973.55	229.19
973.85	229.16
974.14	229.26
974.43	229.30
974.73	229.25
975.02	229.12
975.31	229.26
975.61	229.17
975.90	229.11
976.19	229.03
976.49	229.12
976.78	229.09
977.07	229.08
977.37	228.90
977.66	228.84
977.95	228.84
978.24	228.72
978.54	228.77
978.83	228.77
979.12	228.65
979.42	228.57
979.71	228.51
980.00	228.43
980.29	228.32
980.59	228.20
980.88	228.23
981.17	228.21
981.46	228.05
981.76	228.03
982.05	228.10
982.34	228.12
982.63	228.03
982.93	228.02
983.22	227.94
983.51	227.92
983.80	227.91
984.09	227.89
984.39	227.88
984.68	227.80
984.97	227.84
985.26	227.86
985.55	227.87
985.85	227.75
986.14	227.80
986.43	227.91
986.72	227.88
987.01	227.70
987.30	227.74
987.59	227.70
987.89	227.65
988.18	227.65
988.47	227.60
988.76	227.64
989.05	227.60
989.34	227.67
989.63	227.68
989.92	227.73
990.22	227.59
990.51	227.52
990.80	227.42
991.09	227.48
991.38	227.47
991.67	227.38
991.96	227.46
992.25	227.45
992.54	227.43
992.83	227.44
993.12	227.52
993.41	227.49
993.70	227.62
993.99	227.70
994.28	227.62
994.58	227.70
994.87	227.63
995.16	227.67
995.45	227.68
995.74	227.70
996.03	227.67
996.32	227.77
996.61	227.87
996.90	227.93
997.19	227.88
997.48	227.90
997.77	227.90
998.06	227.96
998.34	227.92
998.63	227.80
998.92	227.88
999.21	227.86
999.50	227.93
999.79	227.91
1000.08	227.97
1000.37	228.08
1000.66	228.06
1000.95	228.16
1001.24	228.30
1001.53	228.41
1001.82	228.50
1002.11	228.57
1002.40	228.60
1002.68	228.68
1002.97	228.93
1003.26	228.90
1003.55	228.97
1003.84	229.00
1004.13	228.91
1004.42	229.01
1004.71	229.14
1004.99	229.03
1005.28	229.07
1005.57	229.07
1005.86	229.08
1006.15	229.00
1006.44	228.94
1006.72	229.09
1007.01	229.09
1007.30	229.03
1007.59	228.96
1007.88	228.98
1008.17	229.02
1008.45	229.00
1008.74	228.95
1009.03	228.77
1009.32	228.79
1009.60	228.81
1009.89	228.84
1010.18	228.87
1010.47	228.81
1010.76	228.71
1011.04	228.71
1011.33	228.77
1011.62	228.70
1011.91	228.60
1012.19	228.64
1012.48	228.65
1012.77	228.50
1013.05	228.54
1013.34	228.44
1013.63	228.44
1013.92	228.37
1014.20	228.31
1014.49	228.34
1014.78	228.33
1015.06	228.26
1015.35	228.19
1015.64	228.07
1015.92	228.08
1016.21	228.12
1016.50	228.00
1016.78	228.13
1017.07	228.25
1017.36	228.10
1017.64	228.02
1017.93	228.01
1018.22	227.88
1018.50	227.94
1018.79	227.88
1019.08	227.74
1019.36	227.74
1019.65	227.65
1019.93	227.62
1020.22	227.65
1020.51	227.72
1020.79	227.64
1021.08	226.20
1021.36	230.00
1021.65	227.00
1021.94	227.00
1022.22	227.00
1022.51	227.20
1022.79	227.70
1023.08	229.30
1023.36	230.20
1023.65	227.20
>>>>>End Processed Spectral Data<<<<<
