SpectraSuite Data File
++++++++++++++++++++++++++++++++++++
Date: Fri Feb 01 14:39:36 EST 2013
User: group
Dark Spectrum Present: No
Reference Spectrum Present: No
Number of Sampled Component Spectra: 1
Spectrometers: USB2E7196
Integration Time (usec): 70000 (USB2E7196)
Spectra Averaged: 10 (USB2E7196)
Boxcar Smoothing: 10 (USB2E7196)
Correct for Electrical Dark: No (USB2E7196)
Strobe/Lamp Enabled: No (USB2E7196)
Correct for Detector Non-linearity: No (USB2E7196)
Correct for Stray Light: No (USB2E7196)
Number of Pixels in Processed Spectrum: 2048
>>>>>Begin Processed Spectral Data<<<<<
339.09	0.00
339.48	216.40
339.86	216.50
340.24	218.60
340.63	221.50
341.01	224.50
341.39	222.50
341.78	223.90
342.16	225.00
342.54	226.60
342.93	214.46
343.31	225.25
343.69	225.79
344.07	226.28
344.46	226.70
344.84	227.04
345.22	227.28
345.60	227.61
345.99	227.80
346.37	227.87
346.75	227.98
347.13	227.96
347.52	228.00
347.90	228.11
348.28	228.14
348.66	228.14
349.05	228.07
349.43	228.07
349.81	228.17
350.19	228.15
350.57	228.15
350.96	228.23
351.34	228.30
351.72	228.31
352.10	228.40
352.48	228.42
352.87	228.45
353.25	228.40
353.63	228.35
354.01	228.35
354.39	228.49
354.77	228.47
355.15	228.61
355.54	228.60
355.92	228.56
356.30	228.64
356.68	228.79
357.06	228.83
357.44	228.91
357.82	228.87
358.20	229.00
358.58	229.15
358.97	229.22
359.35	229.42
359.73	229.56
360.11	229.62
360.49	229.71
360.87	229.68
361.25	229.73
361.63	229.90
362.01	230.04
362.39	230.00
362.77	230.05
363.15	230.09
363.53	230.15
363.91	230.28
364.29	230.31
364.67	230.25
365.05	230.26
365.43	230.23
365.81	230.29
366.19	230.30
366.57	230.27
366.95	230.27
367.33	230.15
367.71	230.07
368.09	230.08
368.47	230.03
368.85	230.00
369.23	230.03
369.61	229.83
369.99	229.77
370.37	229.76
370.75	229.80
371.13	229.81
371.51	229.77
371.89	229.67
372.27	229.58
372.65	229.50
373.03	229.46
373.41	229.27
373.78	229.25
374.16	229.10
374.54	228.98
374.92	228.91
375.30	228.85
375.68	228.78
376.06	228.71
376.44	228.68
376.82	228.64
377.19	228.53
377.57	228.53
377.95	228.40
378.33	228.34
378.71	228.10
379.09	227.96
379.47	227.88
379.84	227.71
380.22	227.54
380.60	227.40
380.98	227.30
381.36	227.37
381.73	227.28
382.11	227.36
382.49	227.24
382.87	227.10
383.25	226.98
383.62	227.12
384.00	227.01
384.38	226.91
384.76	226.91
385.13	226.91
385.51	226.85
385.89	226.79
386.27	226.74
386.64	226.85
387.02	226.87
387.40	226.84
387.78	226.85
388.15	226.90
388.53	226.82
388.91	226.78
389.29	226.74
389.66	226.76
390.04	226.61
390.42	226.64
390.79	226.66
391.17	226.57
391.55	226.37
391.92	226.29
392.30	226.34
392.68	226.29
393.05	226.29
393.43	226.31
393.81	226.41
394.18	226.43
394.56	226.40
394.94	226.36
395.31	226.40
395.69	226.50
396.06	226.53
396.44	226.59
396.82	226.68
397.19	226.71
397.57	226.73
397.95	226.87
398.32	226.92
398.70	227.11
399.07	227.23
399.45	227.27
399.82	227.34
400.20	227.32
400.58	227.40
400.95	227.39
401.33	227.50
401.70	227.60
402.08	227.64
402.45	227.72
402.83	227.90
403.20	227.89
403.58	228.01
403.95	228.24
404.33	228.43
404.71	228.50
405.08	228.75
405.46	228.95
405.83	229.09
406.21	229.19
406.58	229.30
406.96	229.51
407.33	229.78
407.70	230.05
408.08	230.46
408.45	230.71
408.83	231.07
409.20	231.29
409.58	231.49
409.95	231.86
410.33	232.18
410.70	232.41
411.08	232.72
411.45	232.96
411.82	233.20
412.20	233.65
412.57	234.26
412.95	234.52
413.32	234.82
413.69	235.24
414.07	235.71
414.44	236.19
414.82	236.72
415.19	237.22
415.56	237.80
415.94	238.27
416.31	238.93
416.68	239.45
417.06	240.21
417.43	240.91
417.81	241.57
418.18	242.35
418.55	243.13
418.93	243.98
419.30	244.90
419.67	245.83
420.04	246.65
420.42	247.50
420.79	248.84
421.16	249.91
421.54	251.16
421.91	252.40
422.28	253.62
422.66	254.93
423.03	256.29
423.40	257.62
423.77	258.96
424.15	260.34
424.52	261.98
424.89	263.49
425.26	264.99
425.64	266.59
426.01	268.22
426.38	269.93
426.75	271.79
427.13	273.55
427.50	275.51
427.87	277.52
428.24	279.43
428.61	281.09
428.99	283.29
429.36	285.43
429.73	287.71
430.10	289.79
430.47	292.04
430.85	294.32
431.22	296.80
431.59	299.41
431.96	301.73
432.33	304.28
432.70	306.97
433.08	310.08
433.45	312.83
433.82	315.72
434.19	318.95
434.56	322.11
434.93	325.13
435.30	327.94
435.68	331.00
436.05	334.29
436.42	337.38
436.79	340.16
437.16	343.20
437.53	346.32
437.90	349.40
438.27	352.38
438.64	355.46
439.01	358.26
439.38	360.84
439.75	363.48
440.13	366.31
440.50	368.84
440.87	371.05
441.24	373.24
441.61	375.58
441.98	377.34
442.35	379.44
442.72	381.47
443.09	383.73
443.46	385.09
443.83	385.77
444.20	386.47
444.57	387.49
444.94	388.13
445.31	388.66
445.68	389.50
446.05	389.70
446.42	389.51
446.79	389.32
447.16	388.87
447.53	388.77
447.90	387.81
448.27	386.85
448.64	385.23
449.01	384.24
449.37	382.44
449.74	380.50
450.11	378.22
450.48	375.77
450.85	372.98
451.22	370.93
451.59	368.81
451.96	366.79
452.33	364.13
452.70	361.51
453.07	358.51
453.43	355.35
453.80	352.59
454.17	349.67
454.54	346.88
454.91	344.15
455.28	341.21
455.65	338.36
456.02	335.83
456.38	333.47
456.75	330.60
457.12	328.06
457.49	325.64
457.86	323.06
458.23	321.01
458.59	318.86
458.96	316.36
459.33	314.37
459.70	312.33
460.07	310.75
460.43	308.81
460.80	306.99
461.17	305.31
461.54	303.59
461.91	301.95
462.27	300.34
462.64	298.81
463.01	297.25
463.38	295.90
463.74	294.24
464.11	292.88
464.48	291.75
464.85	290.40
465.21	289.38
465.58	288.43
465.95	287.20
466.32	286.03
466.68	284.92
467.05	283.86
467.42	282.85
467.78	281.56
468.15	280.48
468.52	279.68
468.88	278.69
469.25	277.70
469.62	277.01
469.98	276.19
470.35	275.47
470.72	274.73
471.08	273.85
471.45	273.03
471.82	272.33
472.18	271.44
472.55	270.86
472.92	270.10
473.28	269.41
473.65	268.65
474.02	268.06
474.38	267.63
474.75	267.13
475.11	266.50
475.48	266.14
475.85	265.73
476.21	265.23
476.58	264.77
476.94	264.40
477.31	264.05
477.67	263.68
478.04	263.30
478.41	262.90
478.77	262.78
479.14	262.54
479.50	262.26
479.87	262.17
480.23	261.98
480.60	261.80
480.96	261.46
481.33	261.38
481.69	261.20
482.06	261.02
482.42	260.94
482.79	260.83
483.15	260.65
483.52	260.62
483.88	260.50
484.25	260.43
484.61	260.33
484.98	260.15
485.34	260.19
485.71	260.29
486.07	260.35
486.44	260.20
486.80	260.22
487.17	260.28
487.53	260.37
487.90	260.40
488.26	260.50
488.62	260.82
488.99	261.01
489.35	261.20
489.72	261.35
490.08	261.52
490.44	261.64
490.81	261.85
491.17	261.87
491.54	262.18
491.90	262.39
492.26	262.66
492.63	263.04
492.99	263.26
493.36	263.42
493.72	263.73
494.08	264.11
494.45	264.43
494.81	264.86
495.17	265.22
495.54	265.71
495.90	266.09
496.26	266.38
496.63	266.79
496.99	267.28
497.35	267.80
497.72	268.22
498.08	268.74
498.44	269.38
498.80	270.08
499.17	270.59
499.53	271.20
499.89	271.84
500.26	272.45
500.62	273.05
500.98	273.92
501.34	274.72
501.71	275.60
502.07	276.51
502.43	277.38
502.79	278.29
503.16	279.25
503.52	280.26
503.88	281.35
504.24	282.52
504.60	283.60
504.97	284.90
505.33	286.19
505.69	287.73
506.05	289.11
506.41	290.55
506.78	292.13
507.14	293.70
507.50	295.36
507.86	297.20
508.22	299.10
508.59	300.82
508.95	302.79
509.31	304.81
509.67	307.05
510.03	309.27
510.39	311.61
510.75	313.90
511.12	316.39
511.48	318.77
511.84	321.28
512.20	324.09
512.56	326.85
512.92	329.67
513.28	332.59
513.64	335.61
514.00	338.81
514.37	342.00
514.73	345.49
515.09	349.04
515.45	352.40
515.81	356.01
516.17	359.80
516.53	363.54
516.89	367.34
517.25	371.26
517.61	375.44
517.97	379.39
518.33	383.66
518.69	388.07
519.05	392.74
519.41	397.16
519.77	401.97
520.13	406.79
520.49	411.72
520.85	416.60
521.21	421.80
521.57	426.89
521.93	432.27
522.29	437.48
522.65	442.88
523.01	448.44
523.37	454.15
523.73	459.71
524.09	465.65
524.45	471.61
524.81	477.73
525.17	483.84
525.53	490.26
525.89	496.70
526.25	503.24
526.61	509.78
526.97	516.68
527.33	523.31
527.68	530.20
528.04	537.10
528.40	544.24
528.76	551.64
529.12	559.20
529.48	566.60
529.84	573.97
530.20	581.44
530.56	589.35
530.91	597.31
531.27	605.33
531.63	613.13
531.99	620.93
532.35	628.79
532.71	636.57
533.07	644.73
533.42	652.96
533.78	661.08
534.14	669.20
534.50	677.23
534.86	685.37
535.21	693.52
535.57	702.19
535.93	710.32
536.29	718.51
536.65	726.69
537.00	734.91
537.36	743.60
537.72	751.90
538.08	759.99
538.44	768.40
538.79	776.70
539.15	784.95
539.51	793.33
539.87	802.10
540.22	810.78
540.58	819.28
540.94	827.33
541.29	835.67
541.65	844.22
542.01	852.87
542.37	861.26
542.72	869.33
543.08	877.43
543.44	886.08
543.79	893.87
544.15	902.27
544.51	910.81
544.87	919.18
545.22	927.41
545.58	935.64
545.94	943.02
546.29	951.05
546.65	959.09
547.01	966.90
547.36	974.53
547.72	982.10
548.07	989.73
548.43	997.60
548.79	1005.22
549.14	1012.59
549.50	1019.54
549.86	1026.83
550.21	1034.22
550.57	1041.25
550.92	1048.20
551.28	1055.20
551.64	1061.77
551.99	1068.48
552.35	1075.06
552.70	1081.82
553.06	1088.68
553.41	1095.60
553.77	1101.92
554.13	1108.55
554.48	1115.43
554.84	1121.68
555.19	1128.08
555.55	1134.51
555.90	1140.28
556.26	1146.37
556.61	1152.24
556.97	1158.32
557.32	1164.27
557.68	1170.27
558.03	1176.23
558.39	1182.09
558.74	1188.61
559.10	1194.33
559.45	1199.87
559.81	1205.91
560.16	1211.38
560.52	1216.58
560.87	1222.10
561.23	1227.35
561.58	1232.69
561.94	1237.46
562.29	1242.14
562.64	1246.90
563.00	1251.30
563.35	1256.88
563.71	1261.94
564.06	1267.04
564.42	1271.68
564.77	1276.53
565.12	1281.29
565.48	1285.75
565.83	1289.84
566.19	1293.44
566.54	1297.44
566.89	1301.51
567.25	1304.94
567.60	1309.11
567.96	1313.27
568.31	1316.67
568.66	1320.32
569.02	1323.64
569.37	1327.07
569.72	1330.13
570.08	1333.20
570.43	1336.00
570.78	1338.18
571.14	1340.27
571.49	1342.57
571.84	1345.42
572.20	1347.18
572.55	1348.97
572.90	1350.76
573.26	1352.78
573.61	1354.64
573.96	1356.49
574.31	1357.32
574.67	1358.02
575.02	1358.30
575.37	1358.71
575.72	1359.55
576.08	1360.37
576.43	1360.93
576.78	1361.54
577.13	1362.30
577.49	1363.05
577.84	1363.60
578.19	1364.13
578.54	1364.27
578.90	1364.25
579.25	1363.38
579.60	1363.22
579.95	1362.93
580.30	1362.40
580.66	1361.59
581.01	1360.88
581.36	1359.98
581.71	1359.99
582.06	1359.85
582.42	1359.41
582.77	1358.76
583.12	1357.78
583.47	1357.25
583.82	1356.49
584.17	1355.08
584.53	1353.84
584.88	1352.56
585.23	1351.30
585.58	1350.00
585.93	1348.88
586.28	1347.80
586.63	1347.03
586.98	1346.15
587.34	1345.18
587.69	1344.06
588.04	1343.06
588.39	1341.84
588.74	1339.88
589.09	1337.88
589.44	1335.49
589.79	1334.01
590.14	1332.44
590.49	1330.28
590.84	1327.71
591.19	1325.80
591.54	1323.20
591.89	1320.68
592.25	1318.04
592.60	1315.37
592.95	1312.63
593.30	1310.08
593.65	1307.03
594.00	1304.27
594.35	1301.38
594.70	1297.99
595.05	1294.96
595.40	1292.10
595.75	1288.69
596.10	1286.22
596.45	1283.63
596.80	1281.55
597.15	1278.91
597.50	1275.68
597.85	1273.15
598.19	1270.80
598.54	1267.72
598.89	1265.50
599.24	1263.35
599.59	1260.62
599.94	1258.27
600.29	1255.60
600.64	1252.27
600.99	1248.68
601.34	1245.59
601.69	1242.10
602.04	1239.22
602.39	1236.06
602.74	1232.98
603.08	1230.70
603.43	1227.63
603.78	1224.33
604.13	1220.91
604.48	1217.19
604.83	1213.82
605.18	1210.79
605.53	1206.70
605.87	1202.83
606.22	1199.23
606.57	1195.24
606.92	1191.64
607.27	1188.14
607.62	1184.47
607.96	1181.21
608.31	1178.50
608.66	1174.69
609.01	1170.93
609.36	1166.47
609.70	1162.15
610.05	1157.48
610.40	1152.93
610.75	1148.40
611.10	1144.02
611.44	1138.90
611.79	1134.83
612.14	1130.76
612.49	1125.57
612.83	1121.29
613.18	1116.83
613.53	1112.31
613.88	1107.70
614.22	1103.22
614.57	1098.33
614.92	1093.67
615.27	1088.95
615.61	1084.18
615.96	1079.52
616.31	1075.13
616.65	1071.32
617.00	1067.20
617.35	1063.15
617.70	1058.22
618.04	1053.90
618.39	1049.40
618.74	1045.65
619.08	1040.83
619.43	1036.26
619.78	1032.50
620.12	1028.17
620.47	1023.79
620.82	1019.03
621.16	1014.80
621.51	1010.46
621.85	1006.18
622.20	1001.52
622.55	997.24
622.89	992.83
623.24	988.91
623.59	984.92
623.93	980.60
624.28	976.40
624.62	972.30
624.97	968.35
625.32	964.40
625.66	960.61
626.01	956.50
626.35	952.37
626.70	948.16
627.04	943.69
627.39	939.20
627.73	934.95
628.08	930.84
628.43	926.51
628.77	922.20
629.12	917.46
629.46	913.24
629.81	908.55
630.15	904.15
630.50	899.41
630.84	894.37
631.19	889.47
631.53	884.90
631.88	879.85
632.22	875.06
632.57	870.63
632.91	865.76
633.26	861.08
633.60	856.44
633.95	851.71
634.29	847.26
634.64	843.29
634.98	838.76
635.32	834.99
635.67	831.16
636.01	827.00
636.36	822.97
636.70	819.17
637.05	815.38
637.39	811.34
637.73	807.17
638.08	803.75
638.42	800.25
638.77	796.40
639.11	792.63
639.45	789.00
639.80	784.96
640.14	781.03
640.49	776.93
640.83	773.16
641.17	769.45
641.52	765.38
641.86	761.37
642.20	757.62
642.55	753.42
642.89	749.15
643.23	745.03
643.58	741.26
643.92	737.03
644.26	732.99
644.61	729.14
644.95	725.45
645.29	721.02
645.64	716.87
645.98	713.07
646.32	709.40
646.66	705.30
647.01	701.33
647.35	697.46
647.69	693.73
648.04	690.02
648.38	685.79
648.72	681.79
649.06	677.68
649.41	673.96
649.75	669.71
650.09	665.79
650.43	661.98
650.78	658.03
651.12	654.22
651.46	650.51
651.80	646.84
652.14	643.27
652.49	639.76
652.83	636.11
653.17	632.12
653.51	628.31
653.85	624.64
654.20	621.01
654.54	617.18
654.88	613.28
655.22	609.26
655.56	605.79
655.90	602.34
656.25	598.94
656.59	595.47
656.93	592.26
657.27	588.92
657.61	585.43
657.95	582.13
658.29	579.01
658.64	575.57
658.98	571.97
659.32	568.21
659.66	564.78
660.00	561.37
660.34	558.14
660.68	554.86
661.02	551.77
661.36	548.65
661.70	545.67
662.05	542.82
662.39	540.06
662.73	537.30
663.07	534.58
663.41	531.75
663.75	528.68
664.09	525.88
664.43	522.97
664.77	520.10
665.11	517.24
665.45	514.11
665.79	511.40
666.13	508.51
666.47	505.86
666.81	503.06
667.15	500.17
667.49	497.47
667.83	494.90
668.17	492.03
668.51	489.25
668.85	486.57
669.19	484.16
669.53	481.60
669.87	478.83
670.21	476.13
670.55	473.58
670.89	471.14
671.23	468.74
671.57	466.24
671.91	464.03
672.25	461.72
672.58	459.40
672.92	457.03
673.26	455.00
673.60	452.82
673.94	450.67
674.28	448.73
674.62	446.74
674.96	444.50
675.30	442.69
675.64	440.71
675.97	438.84
676.31	436.71
676.65	434.68
676.99	432.86
677.33	430.86
677.67	428.79
678.01	426.71
678.34	424.64
678.68	422.81
679.02	420.72
679.36	418.71
679.70	416.87
680.04	415.05
680.37	412.93
680.71	411.00
681.05	409.35
681.39	407.62
681.73	405.82
682.06	404.09
682.40	402.22
682.74	400.40
683.08	398.62
683.42	396.74
683.75	395.02
684.09	393.10
684.43	391.41
684.77	389.86
685.10	388.30
685.44	386.69
685.78	385.06
686.12	383.53
686.45	381.99
686.79	380.48
687.13	378.90
687.46	377.42
687.80	375.93
688.14	374.20
688.48	372.60
688.81	370.94
689.15	369.51
689.49	368.08
689.82	366.66
690.16	365.17
690.50	363.80
690.83	362.28
691.17	360.87
691.51	359.47
691.84	358.10
692.18	356.51
692.52	355.15
692.85	353.79
693.19	352.40
693.52	350.99
693.86	349.56
694.20	348.03
694.53	346.78
694.87	345.40
695.21	344.03
695.54	342.66
695.88	341.28
696.21	339.85
696.55	338.40
696.88	337.16
697.22	335.82
697.56	334.66
697.89	333.52
698.23	332.26
698.56	331.14
698.90	329.89
699.23	328.80
699.57	327.43
699.90	326.16
700.24	324.87
700.58	323.69
700.91	322.49
701.25	321.64
701.58	320.57
701.92	319.51
702.25	318.52
702.59	317.42
702.92	316.43
703.26	315.46
703.59	314.55
703.93	313.71
704.26	312.82
704.60	311.80
704.93	310.89
705.26	309.93
705.60	309.06
705.93	308.10
706.27	307.20
706.60	306.44
706.94	305.69
707.27	304.84
707.61	304.01
707.94	303.18
708.27	302.19
708.61	301.35
708.94	300.57
709.28	299.79
709.61	299.04
709.94	298.33
710.28	297.59
710.61	296.84
710.95	295.77
711.28	295.00
711.61	294.27
711.95	293.51
712.28	292.89
712.61	292.03
712.95	291.39
713.28	290.84
713.61	290.07
713.95	289.23
714.28	288.52
714.61	287.72
714.95	287.09
715.28	286.53
715.61	285.73
715.95	285.08
716.28	284.47
716.61	283.87
716.95	283.16
717.28	282.40
717.61	281.80
717.94	281.25
718.28	280.57
718.61	279.94
718.94	279.38
719.27	278.85
719.61	278.30
719.94	277.75
720.27	277.05
720.60	276.53
720.94	276.04
721.27	275.65
721.60	275.26
721.93	274.77
722.27	274.27
722.60	273.90
722.93	273.41
723.26	272.90
723.59	272.49
723.93	272.08
724.26	271.74
724.59	271.28
724.92	270.96
725.25	270.64
725.59	270.24
725.92	269.69
726.25	269.16
726.58	268.80
726.91	268.30
727.24	268.00
727.57	267.73
727.91	267.38
728.24	267.00
728.57	266.61
728.90	266.25
729.23	265.80
729.56	265.42
729.89	265.01
730.22	264.65
730.55	264.17
730.89	263.85
731.22	263.43
731.55	263.05
731.88	262.53
732.21	262.01
732.54	261.53
732.87	261.24
733.20	260.91
733.53	260.60
733.86	260.27
734.19	259.77
734.52	259.35
734.85	259.07
735.18	258.65
735.51	258.26
735.84	257.88
736.17	257.49
736.50	257.07
736.83	256.93
737.16	256.57
737.49	256.42
737.82	256.08
738.15	255.84
738.48	255.54
738.81	255.32
739.14	255.10
739.47	254.77
739.80	254.46
740.13	254.20
740.46	253.81
740.79	253.45
741.12	253.21
741.45	252.88
741.78	252.50
742.11	252.33
742.44	252.14
742.77	251.94
743.10	251.71
743.43	251.40
743.75	250.88
744.08	250.88
744.41	250.42
744.74	250.10
745.07	249.77
745.40	249.50
745.73	249.28
746.06	249.03
746.39	248.90
746.71	248.45
747.04	248.20
747.37	247.97
747.70	247.65
748.03	247.54
748.36	247.30
748.68	247.07
749.01	246.76
749.34	246.44
749.67	246.20
750.00	246.00
750.33	246.08
750.65	246.04
750.98	245.48
751.31	245.32
751.64	245.07
751.97	245.01
752.29	244.81
752.62	244.51
752.95	244.29
753.28	244.15
753.60	244.14
753.93	244.06
754.26	243.81
754.59	243.82
754.91	243.49
755.24	243.38
755.57	243.20
755.90	243.07
756.22	242.82
756.55	242.64
756.88	242.43
757.20	242.13
757.53	241.86
757.86	241.84
758.19	241.63
758.51	241.60
758.84	241.34
759.17	241.19
759.49	241.12
759.82	241.02
760.15	240.82
760.47	240.76
760.80	240.58
761.13	240.58
761.45	240.38
761.78	240.24
762.11	240.14
762.43	240.01
762.76	239.83
763.08	239.86
763.41	239.81
763.74	239.77
764.06	239.55
764.39	239.46
764.71	239.38
765.04	239.37
765.37	239.22
765.69	239.08
766.02	239.00
766.34	238.91
766.67	238.81
767.00	238.81
767.32	238.66
767.65	238.71
767.97	238.50
768.30	238.41
768.62	238.41
768.95	238.32
769.27	238.17
769.60	238.08
769.92	238.00
770.25	237.85
770.57	237.69
770.90	237.67
771.22	237.64
771.55	237.54
771.87	237.39
772.20	237.27
772.52	237.42
772.85	237.56
773.17	237.43
773.50	237.24
773.82	237.07
774.15	237.04
774.47	236.70
774.80	236.70
775.12	236.61
775.45	236.50
775.77	236.35
776.09	236.30
776.42	236.28
776.74	236.18
777.07	236.05
777.39	235.90
777.72	235.88
778.04	235.79
778.36	235.64
778.69	235.62
779.01	235.50
779.33	235.21
779.66	234.98
779.98	234.91
780.31	234.94
780.63	234.88
780.95	234.72
781.28	234.58
781.60	234.32
781.92	234.16
782.25	234.02
782.57	233.96
782.89	233.87
783.22	233.70
783.54	233.54
783.86	233.44
784.19	233.43
784.51	233.36
784.83	233.24
785.16	233.19
785.48	233.04
785.80	233.06
786.12	233.01
786.45	232.92
786.77	232.84
787.09	232.69
787.42	232.58
787.74	232.61
788.06	232.53
788.38	232.60
788.71	232.66
789.03	232.70
789.35	232.64
789.67	232.53
789.99	232.55
790.32	232.53
790.64	232.59
790.96	232.72
791.28	232.64
791.61	232.50
791.93	232.46
792.25	232.57
792.57	232.65
792.89	232.60
793.21	232.48
793.54	232.40
793.86	232.30
794.18	232.42
794.50	232.24
794.82	232.28
795.14	232.22
795.47	232.19
795.79	232.15
796.11	232.09
796.43	232.08
796.75	232.09
797.07	232.19
797.39	232.04
797.71	231.83
798.04	231.71
798.36	231.81
798.68	231.84
799.00	231.77
799.32	231.58
799.64	231.58
799.96	231.59
800.28	231.63
800.60	231.73
800.92	231.63
801.24	231.67
801.56	231.76
801.89	231.83
802.21	231.74
802.53	231.69
802.85	231.72
803.17	231.84
803.49	231.76
803.81	231.71
804.13	231.82
804.45	231.80
804.77	231.76
805.09	231.67
805.41	231.60
805.73	231.46
806.05	231.41
806.37	231.34
806.69	231.37
807.01	231.37
807.33	231.27
807.65	231.15
807.97	231.25
808.28	231.19
808.60	231.16
808.92	231.23
809.24	231.24
809.56	231.26
809.88	231.15
810.20	231.14
810.52	231.10
810.84	230.96
811.16	230.92
811.48	230.94
811.80	230.94
812.12	230.86
812.43	230.92
812.75	230.92
813.07	230.82
813.39	230.75
813.71	230.74
814.03	230.71
814.35	230.77
814.67	230.62
814.98	230.56
815.30	230.41
815.62	230.37
815.94	230.30
816.26	230.25
816.58	230.12
816.89	230.13
817.21	229.98
817.53	230.00
817.85	229.90
818.17	229.91
818.48	229.90
818.80	229.90
819.12	229.86
819.44	229.84
819.76	229.89
820.07	229.77
820.39	229.67
820.71	229.74
821.03	229.72
821.34	229.67
821.66	229.68
821.98	229.71
822.30	229.70
822.61	229.77
822.93	229.71
823.25	229.78
823.57	229.76
823.88	229.89
824.20	229.88
824.52	230.00
824.83	229.93
825.15	229.85
825.47	229.98
825.79	230.03
826.10	230.00
826.42	229.89
826.74	229.97
827.05	230.03
827.37	229.85
827.69	229.80
828.00	229.80
828.32	229.78
828.64	229.81
828.95	229.76
829.27	229.69
829.58	229.61
829.90	229.68
830.22	229.64
830.53	229.52
830.85	229.59
831.17	229.57
831.48	229.62
831.80	229.64
832.11	229.56
832.43	229.48
832.75	229.47
833.06	229.70
833.38	229.57
833.69	229.52
834.01	229.68
834.32	229.65
834.64	229.58
834.96	229.59
835.27	229.53
835.59	229.52
835.90	229.43
836.22	229.52
836.53	229.41
836.85	229.38
837.16	229.60
837.48	229.51
837.79	229.52
838.11	229.48
838.42	229.52
838.74	229.41
839.05	229.44
839.37	229.37
839.68	229.22
840.00	229.34
840.31	229.35
840.63	229.32
840.94	229.24
841.26	229.29
841.57	229.23
841.88	229.27
842.20	229.31
842.51	229.27
842.83	229.23
843.14	229.45
843.46	229.50
843.77	229.35
844.08	229.33
844.40	229.27
844.71	229.26
845.03	229.24
845.34	229.34
845.65	229.16
845.97	229.21
846.28	229.17
846.60	229.15
846.91	229.12
847.22	229.02
847.54	229.17
847.85	229.11
848.16	229.09
848.48	229.07
848.79	229.14
849.10	229.27
849.42	229.26
849.73	229.10
850.04	229.03
850.36	229.00
850.67	229.06
850.98	229.07
851.30	229.09
851.61	229.04
851.92	228.93
852.23	229.09
852.55	229.10
852.86	229.12
853.17	229.10
853.49	229.11
853.80	229.15
854.11	229.11
854.42	229.22
854.74	229.14
855.05	229.09
855.36	228.98
855.67	228.91
855.99	228.94
856.30	229.07
856.61	229.00
856.92	229.01
857.23	229.06
857.55	228.92
857.86	228.92
858.17	229.05
858.48	229.06
858.79	228.95
859.11	228.96
859.42	228.94
859.73	228.92
860.04	228.96
860.35	228.94
860.66	228.88
860.98	228.81
861.29	228.91
861.60	228.80
861.91	228.90
862.22	228.97
862.53	228.90
862.84	228.76
863.16	228.90
863.47	228.90
863.78	228.80
864.09	228.91
864.40	228.89
864.71	228.70
865.02	228.83
865.33	228.82
865.64	228.83
865.95	228.79
866.27	228.91
866.58	228.80
866.89	228.82
867.20	228.79
867.51	228.72
867.82	228.71
868.13	228.90
868.44	228.77
868.75	228.79
869.06	228.80
869.37	228.75
869.68	228.69
869.99	228.59
870.30	228.60
870.61	228.63
870.92	228.59
871.23	228.61
871.54	228.60
871.85	228.76
872.16	228.74
872.47	228.73
872.78	228.57
873.09	228.62
873.40	228.57
873.71	228.74
874.02	228.82
874.33	228.86
874.64	228.89
874.95	228.87
875.26	228.83
875.56	228.87
875.87	228.90
876.18	228.85
876.49	229.10
876.80	229.08
877.11	229.11
877.42	229.20
877.73	229.23
878.04	229.07
878.35	229.02
878.66	229.08
878.96	229.18
879.27	229.23
879.58	229.19
879.89	229.20
880.20	229.07
880.51	229.04
880.82	229.02
881.12	228.93
881.43	228.93
881.74	228.86
882.05	228.82
882.36	228.89
882.67	228.90
882.97	228.70
883.28	228.73
883.59	228.59
883.90	228.57
884.21	228.61
884.51	228.71
884.82	228.68
885.13	228.60
885.44	228.52
885.74	228.54
886.05	228.55
886.36	228.54
886.67	228.55
886.98	228.59
887.28	228.62
887.59	228.67
887.90	228.63
888.20	228.57
888.51	228.66
888.82	228.58
889.13	228.61
889.43	228.82
889.74	228.72
890.05	228.80
890.35	228.74
890.66	228.64
890.97	228.54
891.28	228.43
891.58	228.46
891.89	228.34
892.20	228.27
892.50	228.22
892.81	228.19
893.12	228.20
893.42	228.14
893.73	228.05
894.04	227.92
894.34	228.03
894.65	228.00
894.95	227.94
895.26	227.94
895.57	228.15
895.87	227.94
896.18	227.95
896.48	227.97
896.79	227.94
897.10	227.95
897.40	227.94
897.71	228.03
898.01	227.97
898.32	228.13
898.63	228.08
898.93	228.20
899.24	228.23
899.54	228.24
899.85	228.20
900.15	228.20
900.46	228.23
900.76	228.09
901.07	228.20
901.38	228.23
901.68	228.25
901.99	227.91
902.29	227.85
902.60	227.89
902.90	227.86
903.21	227.89
903.51	227.92
903.82	228.01
904.12	228.07
904.43	228.13
904.73	228.06
905.03	228.13
905.34	228.31
905.64	228.40
905.95	228.42
906.25	228.52
906.56	228.63
906.86	228.62
907.17	228.72
907.47	228.72
907.77	228.74
908.08	228.67
908.38	228.81
908.69	228.91
908.99	228.90
909.30	228.94
909.60	229.01
909.90	229.00
910.21	229.10
910.51	229.03
910.81	228.99
911.12	229.11
911.42	229.10
911.73	228.90
912.03	228.80
912.33	228.75
912.64	228.71
912.94	228.81
913.24	228.84
913.55	228.88
913.85	228.81
914.15	228.71
914.46	228.78
914.76	228.73
915.06	228.75
915.37	228.70
915.67	228.57
915.97	228.54
916.27	228.48
916.58	228.37
916.88	228.40
917.18	228.47
917.49	228.58
917.79	228.46
918.09	228.39
918.39	228.46
918.70	228.42
919.00	228.44
919.30	228.39
919.60	228.45
919.91	228.41
920.21	228.48
920.51	228.52
920.81	228.46
921.12	228.47
921.42	228.44
921.72	228.50
922.02	228.59
922.32	228.61
922.63	228.70
922.93	228.91
923.23	228.93
923.53	228.87
923.83	228.62
924.13	228.76
924.44	228.85
924.74	228.87
925.04	228.92
925.34	228.87
925.64	228.72
925.94	228.68
926.24	228.71
926.55	228.67
926.85	228.72
927.15	228.72
927.45	228.68
927.75	228.60
928.05	228.63
928.35	228.67
928.65	228.71
928.95	228.70
929.26	228.57
929.56	228.48
929.86	228.47
930.16	228.57
930.46	228.58
930.76	228.59
931.06	228.47
931.36	228.41
931.66	228.43
931.96	228.39
932.26	228.27
932.56	228.20
932.86	228.20
933.16	228.06
933.46	228.08
933.76	228.10
934.06	228.18
934.36	228.20
934.66	228.10
934.96	227.90
935.26	227.85
935.56	227.76
935.86	227.68
936.16	227.51
936.46	227.50
936.76	227.47
937.06	227.40
937.36	227.44
937.66	227.50
937.96	227.50
938.26	227.40
938.56	227.51
938.86	227.51
939.16	227.47
939.46	227.52
939.76	227.50
940.06	227.54
940.35	227.52
940.65	227.43
940.95	227.44
941.25	227.49
941.55	227.49
941.85	227.43
942.15	227.50
942.45	227.64
942.75	227.56
943.04	227.54
943.34	227.56
943.64	227.58
943.94	227.57
944.24	227.55
944.54	227.74
944.84	227.78
945.13	227.79
945.43	227.83
945.73	227.95
946.03	227.96
946.33	227.90
946.62	227.87
946.92	227.87
947.22	227.87
947.52	228.02
947.82	228.03
948.11	228.11
948.41	228.18
948.71	228.19
949.01	228.25
949.31	228.30
949.60	228.27
949.90	228.25
950.20	228.21
950.50	228.29
950.79	228.13
951.09	228.22
951.39	228.26
951.69	228.36
951.98	228.30
952.28	228.38
952.58	228.34
952.87	228.35
953.17	228.42
953.47	228.43
953.76	228.32
954.06	228.34
954.36	228.26
954.66	228.22
954.95	228.35
955.25	228.40
955.55	228.41
955.84	228.41
956.14	228.46
956.44	228.41
956.73	228.28
957.03	228.38
957.32	228.30
957.62	228.23
957.92	228.22
958.21	228.19
958.51	228.37
958.81	228.44
959.10	228.41
959.40	228.51
959.69	228.50
959.99	228.60
960.29	228.60
960.58	228.62
960.88	228.68
961.17	228.61
961.47	228.55
961.76	228.51
962.06	228.54
962.36	228.52
962.65	228.57
962.95	228.67
963.24	228.69
963.54	228.50
963.83	228.55
964.13	228.51
964.42	228.43
964.72	228.21
965.01	228.15
965.31	228.15
965.60	228.07
965.90	228.30
966.19	228.22
966.49	228.12
966.78	228.19
967.08	228.17
967.37	228.08
967.67	228.07
967.96	228.13
968.26	228.07
968.55	228.04
968.85	228.06
969.14	228.07
969.43	228.01
969.73	228.15
970.02	228.12
970.32	228.17
970.61	228.20
970.91	228.11
971.20	228.20
971.49	228.22
971.79	228.12
972.08	228.01
972.38	228.04
972.67	228.16
972.96	228.13
973.26	227.99
973.55	228.12
973.85	228.07
974.14	227.94
974.43	227.98
974.73	227.99
975.02	227.85
975.31	227.84
975.61	227.87
975.90	227.83
976.19	227.85
976.49	227.78
976.78	227.82
977.07	227.82
977.37	227.76
977.66	227.83
977.95	227.77
978.24	227.71
978.54	227.66
978.83	227.74
979.12	227.70
979.42	227.80
979.71	227.73
980.00	227.79
980.29	227.93
980.59	228.00
980.88	228.00
981.17	228.22
981.46	228.20
981.76	228.18
982.05	228.21
982.34	228.20
982.63	228.21
982.93	228.19
983.22	228.29
983.51	228.37
983.80	228.35
984.09	228.52
984.39	228.44
984.68	228.50
984.97	228.42
985.26	228.53
985.55	228.49
985.85	228.48
986.14	228.58
986.43	228.62
986.72	228.55
987.01	228.52
987.30	228.40
987.59	228.44
987.89	228.54
988.18	228.58
988.47	228.51
988.76	228.60
989.05	228.64
989.34	228.66
989.63	228.59
989.92	228.50
990.22	228.45
990.51	228.58
990.80	228.64
991.09	228.65
991.38	228.66
991.67	228.71
991.96	228.67
992.25	228.64
992.54	228.58
992.83	228.57
993.12	228.61
993.41	228.70
993.70	228.75
993.99	228.80
994.28	228.84
994.58	229.00
994.87	228.85
995.16	228.79
995.45	228.73
995.74	228.69
996.03	228.72
996.32	228.76
996.61	228.71
996.90	228.62
997.19	228.61
997.48	228.57
997.77	228.58
998.06	228.56
998.34	228.48
998.63	228.38
998.92	228.52
999.21	228.50
999.50	228.54
999.79	228.52
1000.08	228.34
1000.37	228.28
1000.66	228.15
1000.95	228.27
1001.24	228.34
1001.53	228.32
1001.82	228.30
1002.11	228.28
1002.40	228.31
1002.68	228.27
1002.97	228.38
1003.26	228.30
1003.55	228.28
1003.84	228.11
1004.13	228.18
1004.42	228.11
1004.71	228.13
1004.99	227.94
1005.28	227.96
1005.57	227.83
1005.86	227.67
1006.15	227.79
1006.44	227.67
1006.72	227.76
1007.01	227.62
1007.30	227.58
1007.59	227.50
1007.88	227.45
1008.17	227.39
1008.45	227.25
1008.74	227.19
1009.03	227.05
1009.32	227.10
1009.60	227.07
1009.89	227.11
1010.18	227.07
1010.47	227.08
1010.76	227.09
1011.04	227.18
1011.33	227.15
1011.62	227.07
1011.91	227.04
1012.19	226.94
1012.48	226.98
1012.77	226.81
1013.05	226.92
1013.34	226.87
1013.63	226.88
1013.92	226.97
1014.20	227.09
1014.49	227.14
1014.78	227.18
1015.06	227.11
1015.35	227.12
1015.64	227.12
1015.92	227.24
1016.21	227.27
1016.50	227.39
1016.78	227.39
1017.07	227.38
1017.36	227.35
1017.64	227.57
1017.93	227.70
1018.22	227.81
1018.50	227.86
1018.79	227.95
1019.08	227.86
1019.36	227.91
1019.65	227.97
1019.93	228.07
1020.22	228.10
1020.51	228.20
1020.79	228.24
1021.08	229.30
1021.36	228.00
1021.65	227.50
1021.94	227.10
1022.22	228.20
1022.51	227.50
1022.79	229.30
1023.08	229.50
1023.36	229.80
1023.65	228.30
>>>>>End Processed Spectral Data<<<<<
