SpectraSuite Data File
++++++++++++++++++++++++++++++++++++
Date: Fri Feb 01 14:33:43 EST 2013
User: group
Dark Spectrum Present: No
Reference Spectrum Present: No
Number of Sampled Component Spectra: 1
Spectrometers: USB2E7196
Integration Time (usec): 70000 (USB2E7196)
Spectra Averaged: 10 (USB2E7196)
Boxcar Smoothing: 10 (USB2E7196)
Correct for Electrical Dark: No (USB2E7196)
Strobe/Lamp Enabled: No (USB2E7196)
Correct for Detector Non-linearity: No (USB2E7196)
Correct for Stray Light: No (USB2E7196)
Number of Pixels in Processed Spectrum: 2048
>>>>>Begin Processed Spectral Data<<<<<
339.09	0.00
339.48	217.40
339.86	219.00
340.24	220.50
340.63	220.80
341.01	225.90
341.39	221.80
341.78	226.10
342.16	225.80
342.54	225.40
342.93	214.98
343.31	225.83
343.69	226.26
344.07	226.68
344.46	227.06
344.84	227.43
345.22	227.58
345.60	227.87
345.99	227.98
346.37	228.15
346.75	228.32
347.13	228.22
347.52	228.34
347.90	228.54
348.28	228.59
348.66	228.70
349.05	228.65
349.43	228.74
349.81	228.71
350.19	228.80
350.57	228.85
350.96	228.92
351.34	229.07
351.72	229.30
352.10	229.34
352.48	229.47
352.87	229.50
353.25	229.60
353.63	229.71
354.01	229.75
354.39	229.81
354.77	229.77
355.15	229.90
355.54	230.01
355.92	230.06
356.30	230.17
356.68	230.34
357.06	230.52
357.44	230.67
357.82	230.86
358.20	230.92
358.58	231.09
358.97	231.11
359.35	231.10
359.73	231.17
360.11	231.32
360.49	231.27
360.87	231.32
361.25	231.35
361.63	231.44
362.01	231.65
362.39	231.70
362.77	231.76
363.15	231.82
363.53	231.82
363.91	231.68
364.29	231.68
364.67	231.40
365.05	231.33
365.43	231.29
365.81	231.23
366.19	231.27
366.57	231.26
366.95	231.22
367.33	231.21
367.71	231.10
368.09	231.05
368.47	231.01
368.85	230.94
369.23	230.94
369.61	230.84
369.99	230.69
370.37	230.60
370.75	230.65
371.13	230.58
371.51	230.41
371.89	230.40
372.27	230.29
372.65	230.26
373.03	230.29
373.41	230.24
373.78	230.16
374.16	229.97
374.54	229.87
374.92	229.71
375.30	229.58
375.68	229.46
376.06	229.49
376.44	229.37
376.82	229.40
377.19	229.34
377.57	229.27
377.95	229.07
378.33	228.93
378.71	228.79
379.09	228.65
379.47	228.65
379.84	228.56
380.22	228.43
380.60	228.28
380.98	228.21
381.36	228.02
381.73	227.85
382.11	227.82
382.49	227.59
382.87	227.55
383.25	227.51
383.62	227.65
384.00	227.39
384.38	227.43
384.76	227.35
385.13	227.31
385.51	227.20
385.89	227.22
386.27	227.33
386.64	227.28
387.02	227.22
387.40	227.19
387.78	227.20
388.15	227.17
388.53	227.20
388.91	227.12
389.29	227.12
389.66	227.17
390.04	227.12
390.42	227.24
390.79	227.29
391.17	227.44
391.55	227.35
391.92	227.50
392.30	227.49
392.68	227.52
393.05	227.50
393.43	227.64
393.81	227.67
394.18	227.62
394.56	227.71
394.94	227.89
395.31	227.91
395.69	227.93
396.06	228.08
396.44	228.27
396.82	228.32
397.19	228.48
397.57	228.61
397.95	228.79
398.32	228.91
398.70	229.02
399.07	229.04
399.45	229.14
399.82	229.22
400.20	229.36
400.58	229.52
400.95	229.68
401.33	229.85
401.70	230.20
402.08	230.39
402.45	230.57
402.83	230.73
403.20	231.02
403.58	231.47
403.95	231.72
404.33	231.93
404.71	232.28
405.08	232.81
405.46	233.24
405.83	233.62
406.21	233.99
406.58	234.49
406.96	234.99
407.33	235.40
407.70	235.97
408.08	236.73
408.45	237.29
408.83	238.03
409.20	238.74
409.58	239.30
409.95	240.06
410.33	240.91
410.70	241.69
411.08	242.67
411.45	243.49
411.82	244.54
412.20	245.79
412.57	247.04
412.95	248.06
413.32	249.32
413.69	250.79
414.07	252.32
414.44	253.99
414.82	255.66
415.19	257.57
415.56	259.59
415.94	261.61
416.31	263.87
416.68	266.01
417.06	268.47
417.43	270.81
417.81	273.78
418.18	276.58
418.55	279.80
418.93	282.88
419.30	286.24
419.67	289.73
420.04	293.23
420.42	297.04
420.79	301.50
421.16	305.84
421.54	310.25
421.91	314.85
422.28	319.70
422.66	324.94
423.03	329.99
423.40	335.17
423.77	340.61
424.15	346.39
424.52	352.34
424.89	358.89
425.26	365.30
425.64	371.10
426.01	377.68
426.38	384.53
426.75	391.60
427.13	398.81
427.50	406.26
427.87	414.19
428.24	422.07
428.61	429.33
428.99	437.46
429.36	446.57
429.73	455.47
430.10	464.09
430.47	472.66
430.85	481.86
431.22	491.40
431.59	501.72
431.96	511.41
432.33	522.20
432.70	532.47
433.08	544.89
433.45	556.36
433.82	568.01
434.19	580.94
434.56	593.29
434.93	605.23
435.30	617.20
435.68	630.30
436.05	643.17
436.42	656.10
436.79	668.13
437.16	680.64
437.53	693.89
437.90	707.29
438.27	720.51
438.64	733.85
439.01	746.58
439.38	758.02
439.75	768.99
440.13	781.34
440.50	793.17
440.87	802.98
441.24	813.21
441.61	824.56
441.98	832.76
442.35	842.98
442.72	852.91
443.09	862.65
443.46	868.84
443.83	873.29
444.20	877.68
444.57	883.45
444.94	886.88
445.31	890.30
445.68	893.27
446.05	895.46
446.42	895.80
446.79	895.72
447.16	895.64
447.53	896.05
447.90	892.94
448.27	889.57
448.64	883.99
449.01	880.95
449.37	873.24
449.74	866.25
450.11	856.99
450.48	847.50
450.85	837.72
451.22	829.24
451.59	821.44
451.96	813.68
452.33	802.79
452.70	792.96
453.07	781.17
453.43	769.37
453.80	757.70
454.17	746.56
454.54	736.03
454.91	724.07
455.28	712.80
455.65	702.11
456.02	691.16
456.38	682.03
456.75	670.25
457.12	660.82
457.49	651.18
457.86	642.08
458.23	633.97
458.59	625.08
458.96	616.17
459.33	608.28
459.70	600.39
460.07	594.10
460.43	586.71
460.80	579.67
461.17	573.41
461.54	567.00
461.91	560.58
462.27	554.07
462.64	548.75
463.01	542.80
463.38	537.05
463.74	531.70
464.11	526.65
464.48	522.14
464.85	517.23
465.21	513.37
465.58	509.45
465.95	504.60
466.32	500.69
466.68	496.76
467.05	492.76
467.42	488.82
467.78	484.34
468.15	480.24
468.52	477.34
468.88	473.70
469.25	470.36
469.62	467.86
469.98	464.91
470.35	462.02
470.72	459.28
471.08	456.39
471.45	453.96
471.82	451.40
472.18	448.65
472.55	446.60
472.92	444.60
473.28	442.34
473.65	440.30
474.02	438.26
474.38	436.44
474.75	434.89
475.11	433.12
475.48	432.00
475.85	431.02
476.21	429.87
476.58	428.75
476.94	427.91
477.31	426.97
477.67	426.11
478.04	425.47
478.41	424.82
478.77	424.49
479.14	423.88
479.50	423.59
479.87	423.57
480.23	423.60
480.60	423.30
480.96	423.29
481.33	423.55
481.69	423.91
482.06	424.31
482.42	424.48
482.79	424.79
483.15	425.50
483.52	426.54
483.88	427.40
484.25	428.48
484.61	429.53
484.98	430.45
485.34	431.85
485.71	433.33
486.07	434.80
486.44	436.20
486.80	437.99
487.17	439.92
487.53	441.88
487.90	443.88
488.26	446.10
488.62	448.50
488.99	450.99
489.35	453.21
489.72	455.87
490.08	458.74
490.44	461.77
490.81	464.87
491.17	467.78
491.54	470.88
491.90	474.00
492.26	477.48
492.63	481.19
492.99	484.98
493.36	488.84
493.72	493.04
494.08	497.18
494.45	501.40
494.81	505.74
495.17	510.14
495.54	514.96
495.90	519.60
496.26	524.53
496.63	529.54
496.99	534.93
497.35	540.11
497.72	545.55
498.08	550.88
498.44	556.32
498.80	562.24
499.17	568.07
499.53	573.86
499.89	579.83
500.26	585.61
500.62	591.48
500.98	597.73
501.34	603.86
501.71	610.03
502.07	616.34
502.43	622.64
502.79	629.21
503.16	635.72
503.52	642.47
503.88	648.79
504.24	655.08
504.60	661.46
504.97	668.18
505.33	674.92
505.69	681.95
506.05	688.70
506.41	695.03
506.78	701.58
507.14	708.10
507.50	714.60
507.86	721.51
508.22	728.34
508.59	734.75
508.95	741.27
509.31	747.87
509.67	754.40
510.03	761.04
510.39	767.15
510.75	773.72
511.12	779.84
511.48	786.15
511.84	792.56
512.20	798.60
512.56	804.87
512.92	810.90
513.28	816.58
513.64	822.20
514.00	828.08
514.37	833.94
514.73	839.54
515.09	844.82
515.45	850.18
515.81	855.38
516.17	860.84
516.53	866.24
516.89	871.23
517.25	876.36
517.61	881.05
517.97	885.94
518.33	890.18
518.69	894.62
519.05	899.50
519.41	904.18
519.77	909.22
520.13	913.54
520.49	917.58
520.85	921.95
521.21	926.29
521.57	930.34
521.93	934.05
522.29	938.36
522.65	942.44
523.01	946.35
523.37	949.88
523.73	953.18
524.09	956.49
524.45	960.51
524.81	964.00
525.17	967.94
525.53	971.90
525.89	975.33
526.25	978.85
526.61	981.77
526.97	984.93
527.33	987.89
527.68	991.17
528.04	994.38
528.40	997.40
528.76	1000.70
529.12	1004.02
529.48	1007.31
529.84	1010.03
530.20	1013.30
530.56	1016.64
530.91	1020.09
531.27	1023.25
531.63	1026.17
531.99	1029.10
532.35	1031.63
532.71	1034.20
533.07	1037.17
533.42	1040.07
533.78	1042.90
534.14	1045.89
534.50	1048.24
534.86	1050.81
535.21	1053.19
535.57	1056.19
535.93	1058.79
536.29	1061.23
536.65	1063.76
537.00	1066.34
537.36	1069.38
537.72	1071.57
538.08	1073.61
538.44	1075.93
538.79	1078.41
539.15	1080.67
539.51	1082.85
539.87	1085.66
540.22	1088.23
540.58	1090.69
540.94	1093.21
541.29	1095.39
541.65	1097.72
542.01	1100.41
542.37	1102.90
542.72	1105.50
543.08	1107.47
543.44	1109.77
543.79	1111.44
544.15	1113.70
544.51	1115.99
544.87	1118.04
545.22	1120.60
545.58	1122.80
545.94	1124.44
546.29	1126.46
546.65	1128.45
547.01	1130.18
547.36	1131.90
547.72	1133.37
548.07	1134.88
548.43	1136.00
548.79	1137.89
549.14	1139.16
549.50	1140.22
549.86	1141.20
550.21	1142.38
550.57	1143.61
550.92	1145.10
551.28	1146.82
551.64	1148.06
551.99	1149.50
552.35	1150.57
552.70	1151.60
553.06	1153.07
553.41	1154.62
553.77	1155.85
554.13	1157.35
554.48	1159.09
554.84	1160.31
555.19	1161.65
555.55	1162.74
555.90	1164.11
556.26	1165.34
556.61	1166.80
556.97	1168.14
557.32	1169.58
557.68	1170.66
558.03	1172.17
558.39	1173.14
558.74	1174.54
559.10	1175.23
559.45	1176.08
559.81	1177.61
560.16	1178.66
560.52	1179.74
560.87	1180.93
561.23	1181.56
561.58	1182.84
561.94	1183.73
562.29	1184.54
562.64	1185.00
563.00	1185.67
563.35	1186.91
563.71	1187.89
564.06	1188.84
564.42	1190.02
564.77	1191.13
565.12	1192.17
565.48	1192.99
565.83	1193.62
566.19	1194.20
566.54	1195.15
566.89	1196.10
567.25	1196.27
567.60	1197.09
567.96	1197.57
568.31	1198.00
568.66	1198.53
569.02	1198.61
569.37	1198.39
569.72	1198.68
570.08	1198.95
570.43	1199.14
570.78	1199.03
571.14	1198.51
571.49	1198.01
571.84	1197.92
572.20	1197.31
572.55	1196.81
572.90	1196.03
573.26	1195.96
573.61	1195.44
573.96	1194.81
574.31	1193.31
574.67	1192.10
575.02	1190.72
575.37	1189.19
575.72	1187.60
576.08	1186.70
576.43	1185.30
576.78	1184.05
577.13	1182.90
577.49	1181.85
577.84	1180.23
578.19	1178.61
578.54	1177.16
578.90	1175.75
579.25	1173.69
579.60	1171.91
579.95	1169.81
580.30	1167.76
580.66	1165.27
581.01	1162.91
581.36	1160.64
581.71	1158.94
582.06	1157.02
582.42	1154.75
582.77	1152.90
583.12	1151.00
583.47	1148.80
583.82	1146.52
584.17	1144.28
584.53	1141.67
584.88	1139.37
585.23	1137.05
585.58	1134.68
585.93	1132.39
586.28	1130.38
586.63	1128.08
586.98	1125.81
587.34	1123.79
587.69	1121.48
588.04	1119.43
588.39	1117.22
588.74	1114.51
589.09	1111.99
589.44	1109.32
589.79	1107.03
590.14	1104.13
590.49	1101.16
590.84	1098.25
591.19	1095.66
591.54	1092.50
591.89	1089.58
592.25	1086.69
592.60	1083.45
592.95	1080.17
593.30	1076.81
593.65	1073.33
594.00	1070.07
594.35	1067.42
594.70	1063.72
595.05	1060.98
595.40	1057.33
595.75	1053.93
596.10	1051.05
596.45	1047.78
596.80	1044.88
597.15	1041.63
597.50	1038.31
597.85	1035.51
598.19	1032.33
598.54	1029.29
598.89	1026.54
599.24	1023.50
599.59	1020.34
599.94	1017.37
600.29	1014.66
600.64	1011.66
600.99	1007.98
601.34	1004.80
601.69	1000.79
602.04	997.78
602.39	994.10
602.74	991.21
603.08	988.12
603.43	984.87
603.78	981.44
604.13	978.04
604.48	974.68
604.83	971.50
605.18	967.89
605.53	964.40
605.87	960.24
606.22	956.58
606.57	952.94
606.92	949.31
607.27	946.12
607.62	942.49
607.96	939.15
608.31	936.13
608.66	932.32
609.01	928.61
609.36	924.73
609.70	920.63
610.05	916.27
610.40	912.40
610.75	908.31
611.10	904.40
611.44	900.29
611.79	896.30
612.14	892.40
612.49	888.12
612.83	883.96
613.18	880.22
613.53	876.28
613.88	872.06
614.22	867.76
614.57	863.21
614.92	859.30
615.27	855.44
615.61	851.33
615.96	847.61
616.31	843.94
616.65	840.37
617.00	837.09
617.35	833.34
617.70	829.55
618.04	825.69
618.39	821.88
618.74	818.14
619.08	814.17
619.43	810.38
619.78	806.89
620.12	803.27
620.47	799.64
620.82	795.60
621.16	791.92
621.51	788.79
621.85	785.48
622.20	781.45
622.55	777.73
622.89	774.05
623.24	770.42
623.59	767.01
623.93	763.75
624.28	760.24
624.62	757.22
624.97	753.67
625.32	750.55
625.66	747.25
626.01	743.66
626.35	740.47
626.70	737.11
627.04	733.83
627.39	730.30
627.73	726.85
628.08	723.99
628.43	720.85
628.77	717.25
629.12	713.81
629.46	710.66
629.81	707.05
630.15	703.58
630.50	700.54
630.84	696.96
631.19	693.17
631.53	689.54
631.88	685.68
632.22	681.92
632.57	678.40
632.91	675.00
633.26	671.65
633.60	668.15
633.95	664.82
634.29	661.80
634.64	658.76
634.98	655.64
635.32	652.43
635.67	649.57
636.01	646.50
636.36	643.51
636.70	640.57
637.05	637.78
637.39	635.04
637.73	631.80
638.08	629.15
638.42	626.33
638.77	623.46
639.11	620.71
639.45	618.19
639.80	615.28
640.14	612.58
640.49	609.85
640.83	607.17
641.17	604.33
641.52	601.18
641.86	598.47
642.20	595.65
642.55	592.88
642.89	589.93
643.23	587.13
643.58	584.61
643.92	581.97
644.26	579.25
644.61	576.57
644.95	573.93
645.29	570.71
645.64	567.90
645.98	565.20
646.32	562.60
646.66	559.97
647.01	557.13
647.35	554.32
647.69	551.79
648.04	549.30
648.38	546.65
648.72	543.89
649.06	540.97
649.41	538.34
649.75	535.35
650.09	532.54
650.43	529.83
650.78	526.79
651.12	523.68
651.46	521.02
651.80	518.35
652.14	515.78
652.49	513.52
652.83	511.02
653.17	508.48
653.51	505.90
653.85	503.27
654.20	500.86
654.54	498.34
654.88	495.56
655.22	492.77
655.56	490.18
655.90	488.02
656.25	485.76
656.59	483.44
656.93	481.32
657.27	479.12
657.61	476.60
657.95	474.45
658.29	472.33
658.64	469.90
658.98	467.58
659.32	465.06
659.66	462.81
660.00	460.42
660.34	458.17
660.68	455.86
661.02	453.56
661.36	451.47
661.70	449.40
662.05	447.51
662.39	445.66
662.73	443.73
663.07	441.63
663.41	439.79
663.75	437.70
664.09	435.66
664.43	433.64
664.77	431.83
665.11	429.85
665.45	428.01
665.79	426.31
666.13	424.43
666.47	422.70
666.81	420.70
667.15	418.92
667.49	417.10
667.83	415.40
668.17	413.65
668.51	411.74
668.85	409.95
669.19	408.25
669.53	406.45
669.87	404.57
670.21	402.90
670.55	401.16
670.89	399.59
671.23	398.00
671.57	396.36
671.91	394.73
672.25	393.08
672.58	391.56
672.92	389.90
673.26	388.45
673.60	386.92
673.94	385.51
674.28	384.21
674.62	382.87
674.96	381.42
675.30	380.10
675.64	378.95
675.97	377.70
676.31	376.54
676.65	375.21
676.99	374.02
677.33	372.72
677.67	371.22
678.01	369.83
678.34	368.51
678.68	367.27
679.02	365.98
679.36	364.83
679.70	363.64
680.04	362.30
680.37	360.96
680.71	359.73
681.05	358.51
681.39	357.30
681.73	355.96
682.06	354.84
682.40	353.62
682.74	352.49
683.08	351.26
683.42	349.76
683.75	348.66
684.09	347.51
684.43	346.28
684.77	345.23
685.10	344.02
685.44	342.99
685.78	341.71
686.12	340.68
686.45	339.46
686.79	338.13
687.13	337.16
687.46	336.10
687.80	334.98
688.14	333.77
688.48	332.68
688.81	331.63
689.15	330.58
689.49	329.66
689.82	328.56
690.16	327.42
690.50	326.48
690.83	325.49
691.17	324.43
691.51	323.49
691.84	322.49
692.18	321.54
692.52	320.52
692.85	319.72
693.19	318.69
693.52	317.74
693.86	316.82
694.20	315.80
694.53	314.85
694.87	313.94
695.21	313.10
695.54	312.05
695.88	311.11
696.21	310.15
696.55	309.17
696.88	308.09
697.22	307.25
697.56	306.55
697.89	305.62
698.23	304.68
698.56	303.81
698.90	303.08
699.23	302.38
699.57	301.55
699.90	300.69
700.24	300.00
700.58	299.26
700.91	298.52
701.25	297.90
701.58	297.28
701.92	296.71
702.25	296.02
702.59	295.40
702.92	294.75
703.26	294.17
703.59	293.50
703.93	293.12
704.26	292.48
704.60	291.69
704.93	291.09
705.26	290.54
705.60	290.00
705.93	289.38
706.27	288.84
706.60	288.17
706.94	287.59
707.27	286.91
707.61	286.33
707.94	285.71
708.27	284.94
708.61	284.26
708.94	283.55
709.28	283.07
709.61	282.59
709.94	282.17
710.28	281.49
710.61	280.93
710.95	280.15
711.28	279.70
711.61	279.09
711.95	278.61
712.28	277.98
712.61	277.30
712.95	276.89
713.28	276.28
713.61	275.73
713.95	275.17
714.28	274.58
714.61	273.97
714.95	273.46
715.28	273.00
715.61	272.41
715.95	271.83
716.28	271.25
716.61	270.70
716.95	270.10
717.28	269.71
717.61	269.30
717.94	269.01
718.28	268.42
718.61	268.16
718.94	267.64
719.27	267.21
719.61	266.88
719.94	266.29
720.27	265.84
720.60	265.52
720.94	265.22
721.27	264.95
721.60	264.77
721.93	264.52
722.27	264.20
722.60	263.91
722.93	263.58
723.26	263.21
723.59	262.75
723.93	262.47
724.26	262.12
724.59	261.74
724.92	261.29
725.25	261.06
725.59	260.54
725.92	260.24
726.25	259.89
726.58	259.50
726.91	259.26
727.24	258.98
727.57	258.72
727.91	258.38
728.24	258.17
728.57	257.72
728.90	257.33
729.23	256.91
729.56	256.68
729.89	256.41
730.22	256.18
730.55	255.96
730.89	255.59
731.22	255.26
731.55	255.04
731.88	254.84
732.21	254.53
732.54	254.31
732.87	253.93
733.20	253.72
733.53	253.57
733.86	253.31
734.19	253.00
734.52	252.75
734.85	252.58
735.18	252.23
735.51	252.02
735.84	251.89
736.17	251.82
736.50	251.54
736.83	251.57
737.16	251.45
737.49	251.32
737.82	251.19
738.15	250.99
738.48	250.72
738.81	250.31
739.14	250.12
739.47	249.93
739.80	249.86
740.13	249.69
740.46	249.42
740.79	249.21
741.12	249.02
741.45	248.75
741.78	248.50
742.11	248.40
742.44	248.21
742.77	247.94
743.10	247.64
743.43	247.42
743.75	247.04
744.08	246.87
744.41	246.54
744.74	246.40
745.07	246.28
745.40	246.12
745.73	246.10
746.06	245.87
746.39	245.70
746.71	245.42
747.04	245.18
747.37	244.96
747.70	244.78
748.03	244.58
748.36	244.50
748.68	244.29
749.01	244.03
749.34	243.90
749.67	243.78
750.00	243.67
750.33	243.66
750.65	243.46
750.98	243.18
751.31	243.06
751.64	242.78
751.97	242.71
752.29	242.49
752.62	242.26
752.95	242.07
753.28	241.94
753.60	241.83
753.93	241.82
754.26	241.76
754.59	241.62
754.91	241.51
755.24	241.30
755.57	241.23
755.90	241.10
756.22	240.97
756.55	240.78
756.88	240.59
757.20	240.34
757.53	240.22
757.86	240.14
758.19	240.11
758.51	240.09
758.84	239.82
759.17	239.70
759.49	239.73
759.82	239.76
760.15	239.60
760.47	239.44
760.80	239.22
761.13	239.10
761.45	238.90
761.78	238.80
762.11	238.69
762.43	238.47
762.76	238.30
763.08	238.22
763.41	238.24
763.74	238.21
764.06	238.16
764.39	238.10
764.71	238.00
765.04	237.88
765.37	237.69
765.69	237.60
766.02	237.54
766.34	237.40
766.67	237.23
767.00	237.24
767.32	237.20
767.65	237.20
767.97	237.17
768.30	237.09
768.62	237.01
768.95	236.90
769.27	236.80
769.60	236.73
769.92	236.61
770.25	236.47
770.57	236.30
770.90	236.17
771.22	236.08
771.55	235.96
771.87	235.90
772.20	235.90
772.52	236.01
772.85	236.11
773.17	236.04
773.50	235.92
773.82	235.79
774.15	235.70
774.47	235.56
774.80	235.37
775.12	235.30
775.45	235.31
775.77	235.21
776.09	235.18
776.42	235.18
776.74	235.20
777.07	235.00
777.39	235.07
777.72	234.98
778.04	234.95
778.36	234.72
778.69	234.62
779.01	234.63
779.33	234.45
779.66	234.21
779.98	234.03
780.31	234.03
780.63	234.00
780.95	234.00
781.28	234.03
781.60	234.06
781.92	234.00
782.25	233.85
782.57	233.89
782.89	233.86
783.22	233.83
783.54	233.69
783.86	233.67
784.19	233.60
784.51	233.59
784.83	233.46
785.16	233.66
785.48	233.67
785.80	233.53
786.12	233.51
786.45	233.50
786.77	233.59
787.09	233.45
787.42	233.47
787.74	233.36
788.06	233.29
788.38	233.05
788.71	233.09
789.03	233.10
789.35	233.09
789.67	233.04
789.99	233.04
790.32	233.04
790.64	233.11
790.96	233.20
791.28	233.18
791.61	233.15
791.93	233.00
792.25	232.91
792.57	232.97
792.89	232.82
793.21	232.73
793.54	232.65
793.86	232.63
794.18	232.55
794.50	232.42
794.82	232.44
795.14	232.52
795.47	232.49
795.79	232.49
796.11	232.40
796.43	232.33
796.75	232.16
797.07	232.08
797.39	232.02
797.71	231.84
798.04	231.76
798.36	231.75
798.68	231.76
799.00	231.79
799.32	231.71
799.64	231.79
799.96	231.78
800.28	231.67
800.60	231.61
800.92	231.65
801.24	231.68
801.56	231.65
801.89	231.60
802.21	231.62
802.53	231.48
802.85	231.50
803.17	231.65
803.49	231.62
803.81	231.69
804.13	231.67
804.45	231.58
804.77	231.56
805.09	231.53
805.41	231.44
805.73	231.36
806.05	231.31
806.37	231.30
806.69	231.29
807.01	231.33
807.33	231.33
807.65	231.19
807.97	231.24
808.28	231.16
808.60	231.21
808.92	231.13
809.24	231.19
809.56	231.07
809.88	230.90
810.20	230.99
810.52	230.93
810.84	230.95
811.16	230.94
811.48	231.02
811.80	231.09
812.12	231.08
812.43	231.09
812.75	231.08
813.07	230.91
813.39	230.84
813.71	230.83
814.03	230.72
814.35	230.77
814.67	230.75
814.98	230.73
815.30	230.70
815.62	230.63
815.94	230.59
816.26	230.66
816.58	230.68
816.89	230.60
817.21	230.56
817.53	230.39
817.85	230.30
818.17	230.07
818.48	229.96
818.80	230.04
819.12	229.97
819.44	229.84
819.76	229.88
820.07	229.88
820.39	229.83
820.71	229.89
821.03	229.86
821.34	229.80
821.66	229.81
821.98	229.75
822.30	229.71
822.61	229.73
822.93	229.68
823.25	229.66
823.57	229.69
823.88	229.74
824.20	229.78
824.52	229.86
824.83	229.91
825.15	229.89
825.47	229.72
825.79	229.76
826.10	229.71
826.42	229.61
826.74	229.65
827.05	229.66
827.37	229.67
827.69	229.58
828.00	229.57
828.32	229.52
828.64	229.53
828.95	229.66
829.27	229.63
829.58	229.60
829.90	229.57
830.22	229.45
830.53	229.33
830.85	229.30
831.17	229.28
831.48	229.22
831.80	229.17
832.11	229.18
832.43	229.09
832.75	229.19
833.06	229.42
833.38	229.43
833.69	229.46
834.01	229.50
834.32	229.49
834.64	229.52
834.96	229.49
835.27	229.43
835.59	229.33
835.90	229.30
836.22	229.32
836.53	229.24
836.85	229.21
837.16	229.47
837.48	229.50
837.79	229.47
838.11	229.59
838.42	229.58
838.74	229.64
839.05	229.64
839.37	229.56
839.68	229.33
840.00	229.23
840.31	229.23
840.63	229.18
840.94	229.24
841.26	229.14
841.57	229.24
841.88	229.34
842.20	229.32
842.51	229.37
842.83	229.35
843.14	229.60
843.46	229.59
843.77	229.36
844.08	229.39
844.40	229.39
844.71	229.28
845.03	229.23
845.34	229.21
845.65	229.20
845.97	229.25
846.28	229.36
846.60	229.45
846.91	229.44
847.22	229.50
847.54	229.43
847.85	229.46
848.16	229.40
848.48	229.33
848.79	229.35
849.10	229.28
849.42	229.32
849.73	229.10
850.04	229.17
850.36	229.16
850.67	229.22
850.98	229.24
851.30	229.33
851.61	229.38
851.92	229.42
852.23	229.54
852.55	229.53
852.86	229.50
853.17	229.40
853.49	229.40
853.80	229.40
854.11	229.42
854.42	229.49
854.74	229.45
855.05	229.43
855.36	229.51
855.67	229.50
855.99	229.50
856.30	229.75
856.61	229.69
856.92	229.63
857.23	229.61
857.55	229.62
857.86	229.69
858.17	229.71
858.48	229.59
858.79	229.55
859.11	229.50
859.42	229.40
859.73	229.45
860.04	229.45
860.35	229.31
860.66	229.36
860.98	229.32
861.29	229.24
861.60	229.16
861.91	229.12
862.22	229.14
862.53	229.18
862.84	228.89
863.16	229.02
863.47	229.09
863.78	229.01
864.09	228.98
864.40	228.90
864.71	228.90
865.02	228.97
865.33	228.92
865.64	228.90
865.95	228.96
866.27	229.10
866.58	228.99
866.89	229.06
867.20	228.88
867.51	228.96
867.82	228.99
868.13	229.13
868.44	229.09
868.75	229.13
869.06	229.06
869.37	229.10
869.68	229.00
869.99	228.90
870.30	228.89
870.61	228.90
870.92	228.89
871.23	228.86
871.54	228.87
871.85	228.86
872.16	228.90
872.47	228.87
872.78	228.66
873.09	228.79
873.40	228.79
873.71	228.85
874.02	228.78
874.33	228.75
874.64	228.65
874.95	228.66
875.26	228.62
875.56	228.61
875.87	228.65
876.18	228.70
876.49	228.92
876.80	228.90
877.11	228.89
877.42	228.83
877.73	228.84
878.04	228.80
878.35	228.75
878.66	228.70
878.96	228.79
879.27	228.92
879.58	228.85
879.89	228.85
880.20	229.00
880.51	228.90
880.82	228.92
881.12	228.99
881.43	228.96
881.74	228.84
882.05	228.85
882.36	228.85
882.67	228.86
882.97	228.59
883.28	228.60
883.59	228.54
883.90	228.62
884.21	228.67
884.51	228.66
884.82	228.72
885.13	228.78
885.44	228.75
885.74	228.68
886.05	228.72
886.36	228.62
886.67	228.53
886.98	228.70
887.28	228.80
887.59	228.77
887.90	228.78
888.20	228.90
888.51	228.82
888.82	228.80
889.13	228.74
889.43	228.92
889.74	228.92
890.05	229.01
890.35	228.98
890.66	228.91
890.97	228.96
891.28	228.88
891.58	228.84
891.89	228.78
892.20	228.66
892.50	228.56
892.81	228.68
893.12	228.58
893.42	228.49
893.73	228.42
894.04	228.41
894.34	228.48
894.65	228.35
894.95	228.38
895.26	228.30
895.57	228.40
895.87	228.22
896.18	228.22
896.48	228.21
896.79	228.14
897.10	228.16
897.40	228.11
897.71	228.12
898.01	228.15
898.32	228.25
898.63	228.26
898.93	228.24
899.24	228.21
899.54	228.26
899.85	228.21
900.15	228.21
900.46	228.27
900.76	228.26
901.07	228.30
901.38	228.39
901.68	228.44
901.99	228.42
902.29	228.45
902.60	228.46
902.90	228.38
903.21	228.47
903.51	228.49
903.82	228.52
904.12	228.58
904.43	228.58
904.73	228.57
905.03	228.69
905.34	228.91
905.64	228.93
905.95	228.95
906.25	228.90
906.56	228.97
906.86	229.01
907.17	228.98
907.47	229.05
907.77	229.00
908.08	229.02
908.38	228.99
908.69	229.06
908.99	229.11
909.30	229.22
909.60	229.25
909.90	229.25
910.21	229.23
910.51	229.32
910.81	229.31
911.12	229.20
911.42	229.17
911.73	229.01
912.03	229.06
912.33	229.17
912.64	229.20
912.94	229.12
913.24	228.99
913.55	228.98
913.85	229.04
914.15	229.11
914.46	229.06
914.76	229.17
915.06	229.15
915.37	229.07
915.67	228.99
915.97	228.95
916.27	228.90
916.58	229.03
916.88	229.02
917.18	228.98
917.49	229.17
917.79	229.24
918.09	229.25
918.39	229.26
918.70	229.24
919.00	229.31
919.30	229.45
919.60	229.46
919.91	229.41
920.21	229.37
920.51	229.32
920.81	229.32
921.12	229.20
921.42	229.32
921.72	229.36
922.02	229.40
922.32	229.51
922.63	229.51
922.93	229.49
923.23	229.39
923.53	229.44
923.83	229.37
924.13	229.33
924.44	229.33
924.74	229.37
925.04	229.27
925.34	229.21
925.64	229.03
925.94	228.99
926.24	229.05
926.55	228.95
926.85	228.95
927.15	228.95
927.45	228.95
927.75	228.83
928.05	228.79
928.35	228.72
928.65	228.60
928.95	228.68
929.26	228.56
929.56	228.61
929.86	228.54
930.16	228.45
930.46	228.44
930.76	228.38
931.06	228.25
931.36	228.23
931.66	228.28
931.96	228.29
932.26	228.47
932.56	228.35
932.86	228.38
933.16	228.34
933.46	228.31
933.76	228.30
934.06	228.35
934.36	228.40
934.66	228.40
934.96	228.42
935.26	228.40
935.56	228.38
935.86	228.27
936.16	228.32
936.46	228.32
936.76	228.25
937.06	228.35
937.36	228.37
937.66	228.49
937.96	228.45
938.26	228.48
938.56	228.32
938.86	228.37
939.16	228.38
939.46	228.42
939.76	228.50
940.06	228.44
940.35	228.37
940.65	228.23
940.95	228.28
941.25	228.23
941.55	228.15
941.85	228.22
942.15	228.27
942.45	228.38
942.75	228.33
943.04	228.32
943.34	228.33
943.64	228.38
943.94	228.25
944.24	228.27
944.54	228.30
944.84	228.34
945.13	228.36
945.43	228.39
945.73	228.39
946.03	228.30
946.33	228.37
946.62	228.37
946.92	228.51
947.22	228.49
947.52	228.47
947.82	228.51
948.11	228.50
948.41	228.56
948.71	228.46
949.01	228.46
949.31	228.44
949.60	228.46
949.90	228.50
950.20	228.51
950.50	228.49
950.79	228.55
951.09	228.51
951.39	228.46
951.69	228.39
951.98	228.42
952.28	228.55
952.58	228.55
952.87	228.65
953.17	228.66
953.47	228.75
953.76	228.77
954.06	228.82
954.36	228.81
954.66	228.79
954.95	228.80
955.25	228.85
955.55	228.95
955.84	228.81
956.14	228.73
956.44	228.79
956.73	228.66
957.03	228.60
957.32	228.74
957.62	228.75
957.92	228.86
958.21	228.87
958.51	229.04
958.81	229.04
959.10	228.95
959.40	228.91
959.69	228.80
959.99	228.86
960.29	228.81
960.58	228.76
960.88	228.82
961.17	228.90
961.47	228.92
961.76	228.86
962.06	228.91
962.36	228.86
962.65	228.90
962.95	229.00
963.24	228.92
963.54	228.80
963.83	228.75
964.13	228.74
964.42	228.63
964.72	228.44
965.01	228.40
965.31	228.36
965.60	228.35
965.90	228.56
966.19	228.50
966.49	228.46
966.78	228.35
967.08	228.30
967.37	228.18
967.67	228.09
967.96	228.10
968.26	228.06
968.55	228.19
968.85	227.98
969.14	227.95
969.43	227.96
969.73	227.90
970.02	227.87
970.32	227.83
970.61	227.79
970.91	227.70
971.20	227.62
971.49	227.59
971.79	227.54
972.08	227.37
972.38	227.36
972.67	227.38
972.96	227.43
973.26	227.38
973.55	227.47
973.85	227.51
974.14	227.56
974.43	227.55
974.73	227.50
975.02	227.55
975.31	227.53
975.61	227.52
975.90	227.50
976.19	227.55
976.49	227.54
976.78	227.50
977.07	227.51
977.37	227.52
977.66	227.62
977.95	227.50
978.24	227.40
978.54	227.36
978.83	227.30
979.12	227.33
979.42	227.36
979.71	227.33
980.00	227.30
980.29	227.22
980.59	227.18
980.88	227.20
981.17	227.28
981.46	227.34
981.76	227.38
982.05	227.51
982.34	227.58
982.63	227.55
982.93	227.62
983.22	227.71
983.51	227.75
983.80	227.78
984.09	227.94
984.39	228.05
984.68	228.13
984.97	228.17
985.26	228.24
985.55	228.19
985.85	228.19
986.14	228.24
986.43	228.39
986.72	228.49
987.01	228.45
987.30	228.52
987.59	228.48
987.89	228.49
988.18	228.38
988.47	228.42
988.76	228.48
989.05	228.52
989.34	228.48
989.63	228.59
989.92	228.58
990.22	228.60
990.51	228.61
990.80	228.59
991.09	228.63
991.38	228.55
991.67	228.61
991.96	228.59
992.25	228.63
992.54	228.49
992.83	228.49
993.12	228.45
993.41	228.49
993.70	228.50
993.99	228.65
994.28	228.67
994.58	228.68
994.87	228.74
995.16	228.74
995.45	228.72
995.74	228.70
996.03	228.72
996.32	228.69
996.61	228.71
996.90	228.77
997.19	228.74
997.48	228.86
997.77	228.82
998.06	228.84
998.34	228.84
998.63	228.85
998.92	228.84
999.21	228.93
999.50	228.86
999.79	228.90
1000.08	228.75
1000.37	228.84
1000.66	228.76
1000.95	228.58
1001.24	228.60
1001.53	228.69
1001.82	228.61
1002.11	228.50
1002.40	228.53
1002.68	228.60
1002.97	228.71
1003.26	228.70
1003.55	228.65
1003.84	228.68
1004.13	228.67
1004.42	228.72
1004.71	228.80
1004.99	228.77
1005.28	228.76
1005.57	228.75
1005.86	228.73
1006.15	228.77
1006.44	228.62
1006.72	228.72
1007.01	228.84
1007.30	228.71
1007.59	228.63
1007.88	228.58
1008.17	228.59
1008.45	228.60
1008.74	228.50
1009.03	228.30
1009.32	228.26
1009.60	228.20
1009.89	228.16
1010.18	228.20
1010.47	228.12
1010.76	228.06
1011.04	228.10
1011.33	228.04
1011.62	228.02
1011.91	228.00
1012.19	227.97
1012.48	227.98
1012.77	227.87
1013.05	227.88
1013.34	227.91
1013.63	227.82
1013.92	227.87
1014.20	227.93
1014.49	227.91
1014.78	227.88
1015.06	227.89
1015.35	227.93
1015.64	228.00
1015.92	228.03
1016.21	228.02
1016.50	227.98
1016.78	227.97
1017.07	227.90
1017.36	227.85
1017.64	227.84
1017.93	227.84
1018.22	227.84
1018.50	227.92
1018.79	228.01
1019.08	228.00
1019.36	228.13
1019.65	228.17
1019.93	228.18
1020.22	228.25
1020.51	228.35
1020.79	228.39
1021.08	227.70
1021.36	228.50
1021.65	229.40
1021.94	229.10
1022.22	229.60
1022.51	227.40
1022.79	227.70
1023.08	230.60
1023.36	231.00
1023.65	228.10
>>>>>End Processed Spectral Data<<<<<
