SpectraSuite Data File
++++++++++++++++++++++++++++++++++++
Date: Fri Feb 01 14:36:19 EST 2013
User: group
Dark Spectrum Present: No
Reference Spectrum Present: No
Number of Sampled Component Spectra: 1
Spectrometers: USB2E7196
Integration Time (usec): 70000 (USB2E7196)
Spectra Averaged: 10 (USB2E7196)
Boxcar Smoothing: 10 (USB2E7196)
Correct for Electrical Dark: No (USB2E7196)
Strobe/Lamp Enabled: No (USB2E7196)
Correct for Detector Non-linearity: No (USB2E7196)
Correct for Stray Light: No (USB2E7196)
Number of Pixels in Processed Spectrum: 2048
>>>>>Begin Processed Spectral Data<<<<<
339.09	0.00
339.48	217.30
339.86	219.10
340.24	218.70
340.63	219.00
341.01	225.70
341.39	222.90
341.78	223.80
342.16	225.70
342.54	227.00
342.93	215.05
343.31	225.92
343.69	226.38
344.07	226.72
344.46	227.19
344.84	227.58
345.22	227.71
345.60	227.92
345.99	228.18
346.37	228.35
346.75	228.34
347.13	228.26
347.52	228.29
347.90	228.33
348.28	228.38
348.66	228.41
349.05	228.16
349.43	228.12
349.81	228.15
350.19	228.05
350.57	228.16
350.96	228.14
351.34	228.13
351.72	228.13
352.10	228.22
352.48	228.20
352.87	228.24
353.25	228.27
353.63	228.34
354.01	228.43
354.39	228.45
354.77	228.62
355.15	228.77
355.54	228.80
355.92	228.69
356.30	228.68
356.68	228.80
357.06	228.94
357.44	229.00
357.82	229.10
358.20	229.28
358.58	229.21
358.97	229.25
359.35	229.39
359.73	229.55
360.11	229.54
360.49	229.59
360.87	229.72
361.25	229.82
361.63	229.87
362.01	229.90
362.39	229.85
362.77	229.79
363.15	229.79
363.53	229.89
363.91	229.99
364.29	230.04
364.67	229.90
365.05	229.92
365.43	229.98
365.81	230.07
366.19	230.07
366.57	230.08
366.95	230.19
367.33	230.08
367.71	230.08
368.09	230.20
368.47	230.20
368.85	230.06
369.23	230.01
369.61	229.99
369.99	229.84
370.37	229.83
370.75	229.86
371.13	229.65
371.51	229.59
371.89	229.52
372.27	229.50
372.65	229.50
373.03	229.46
373.41	229.30
373.78	229.12
374.16	228.96
374.54	228.90
374.92	228.80
375.30	228.76
375.68	228.55
376.06	228.42
376.44	228.37
376.82	228.38
377.19	228.30
377.57	228.19
377.95	228.18
378.33	228.19
378.71	228.04
379.09	228.10
379.47	228.05
379.84	227.91
380.22	227.89
380.60	227.70
380.98	227.56
381.36	227.64
381.73	227.54
382.11	227.47
382.49	227.41
382.87	227.38
383.25	227.34
383.62	227.53
384.00	227.40
384.38	227.28
384.76	227.23
385.13	227.20
385.51	227.15
385.89	227.00
386.27	226.92
386.64	226.94
387.02	226.87
387.40	226.80
387.78	226.75
388.15	226.64
388.53	226.65
388.91	226.60
389.29	226.48
389.66	226.52
390.04	226.51
390.42	226.57
390.79	226.60
391.17	226.53
391.55	226.30
391.92	226.31
392.30	226.40
392.68	226.39
393.05	226.44
393.43	226.49
393.81	226.54
394.18	226.57
394.56	226.65
394.94	226.74
395.31	226.75
395.69	226.89
396.06	226.98
396.44	227.12
396.82	227.18
397.19	227.32
397.57	227.32
397.95	227.47
398.32	227.46
398.70	227.52
399.07	227.70
399.45	227.85
399.82	228.05
400.20	228.14
400.58	228.30
400.95	228.35
401.33	228.46
401.70	228.76
402.08	228.88
402.45	228.95
402.83	229.10
403.20	229.30
403.58	229.38
403.95	229.46
404.33	229.69
404.71	229.94
405.08	230.18
405.46	230.47
405.83	230.76
406.21	231.07
406.58	231.30
406.96	231.57
407.33	231.94
407.70	232.25
408.08	232.74
408.45	233.13
408.83	233.52
409.20	233.99
409.58	234.21
409.95	234.69
410.33	235.23
410.70	235.73
411.08	236.25
411.45	237.00
411.82	237.58
412.20	238.22
412.57	239.06
412.95	239.71
413.32	240.56
413.69	241.40
414.07	242.20
414.44	243.14
414.82	244.10
415.19	245.10
415.56	246.31
415.94	247.27
416.31	248.64
416.68	249.96
417.06	251.40
417.43	252.88
417.81	254.38
418.18	256.00
418.55	257.89
418.93	259.72
419.30	261.58
419.67	263.57
420.04	265.58
420.42	267.67
420.79	270.14
421.16	272.60
421.54	275.08
421.91	277.76
422.28	280.51
422.66	283.54
423.03	286.53
423.40	289.41
423.77	292.77
424.15	295.95
424.52	299.35
424.89	303.00
425.26	306.50
425.64	310.00
426.01	313.76
426.38	317.47
426.75	321.58
427.13	325.68
427.50	330.05
427.87	334.48
428.24	338.85
428.61	343.08
428.99	347.57
429.36	352.77
429.73	357.71
430.10	362.50
430.47	367.49
430.85	372.53
431.22	378.04
431.59	383.64
431.96	389.02
432.33	395.11
432.70	401.08
433.08	408.12
433.45	414.58
433.82	421.00
434.19	428.36
434.56	435.12
434.93	441.77
435.30	448.39
435.68	455.80
436.05	463.16
436.42	470.40
436.79	477.20
437.16	484.29
437.53	491.92
437.90	499.58
438.27	506.95
438.64	514.55
439.01	521.61
439.38	527.94
439.75	534.06
440.13	540.79
440.50	547.30
440.87	552.56
441.24	558.39
441.61	564.53
441.98	569.05
442.35	574.60
442.72	580.21
443.09	585.95
443.46	589.56
443.83	592.01
444.20	594.34
444.57	597.26
444.94	599.15
445.31	600.90
445.68	602.46
446.05	603.52
446.42	603.76
446.79	603.67
447.16	603.57
447.53	603.78
447.90	602.03
448.27	600.26
448.64	597.45
449.01	595.35
449.37	591.50
449.74	587.57
450.11	582.66
450.48	577.16
450.85	571.20
451.22	566.34
451.59	561.88
451.96	557.62
452.33	551.69
452.70	546.20
453.07	539.40
453.43	533.05
453.80	526.55
454.17	520.23
454.54	514.20
454.91	507.79
455.28	501.34
455.65	495.51
456.02	489.39
456.38	484.03
456.75	477.65
457.12	472.14
457.49	466.64
457.86	461.39
458.23	456.82
458.59	451.98
458.96	446.96
459.33	442.60
459.70	438.07
460.07	434.60
460.43	430.20
460.80	426.22
461.17	422.59
461.54	418.93
461.91	415.40
462.27	411.80
462.64	408.63
463.01	405.31
463.38	401.99
463.74	398.53
464.11	395.59
464.48	392.97
464.85	390.12
465.21	387.80
465.58	385.46
465.95	382.76
466.32	380.38
466.68	378.04
467.05	375.47
467.42	372.97
467.78	370.30
468.15	367.97
468.52	366.38
468.88	364.05
469.25	361.86
469.62	360.01
469.98	358.16
470.35	356.40
470.72	354.73
471.08	352.97
471.45	351.53
471.82	350.01
472.18	348.33
472.55	346.99
472.92	345.80
473.28	344.53
473.65	343.26
474.02	342.05
474.38	340.82
474.75	339.83
475.11	338.85
475.48	338.10
475.85	337.40
476.21	336.57
476.58	335.74
476.94	335.30
477.31	334.58
477.67	333.93
478.04	333.36
478.41	332.76
478.77	332.29
479.14	331.71
479.50	331.42
479.87	331.17
480.23	330.82
480.60	330.56
480.96	330.26
481.33	330.27
481.69	330.05
482.06	330.10
482.42	329.99
482.79	329.83
483.15	329.91
483.52	330.01
483.88	330.12
484.25	330.31
484.61	330.52
484.98	330.86
485.34	331.38
485.71	331.80
486.07	332.33
486.44	332.89
486.80	333.53
487.17	333.98
487.53	334.77
487.90	335.54
488.26	336.28
488.62	337.00
488.99	337.71
489.35	338.76
489.72	339.61
490.08	340.71
490.44	341.85
490.81	342.99
491.17	344.02
491.54	345.22
491.90	346.51
492.26	347.63
492.63	348.77
492.99	349.88
493.36	351.25
493.72	352.70
494.08	353.79
494.45	355.25
494.81	356.97
495.17	358.35
495.54	359.88
495.90	361.32
496.26	362.91
496.63	364.38
496.99	365.72
497.35	367.32
497.72	368.86
498.08	370.41
498.44	371.96
498.80	373.78
499.17	375.45
499.53	377.00
499.89	378.57
500.26	380.26
500.62	381.74
500.98	383.27
501.34	384.84
501.71	386.76
502.07	388.30
502.43	389.69
502.79	391.18
503.16	392.64
503.52	393.91
503.88	395.40
504.24	396.83
504.60	398.46
504.97	399.83
505.33	401.16
505.69	402.67
506.05	404.10
506.41	405.20
506.78	406.21
507.14	407.30
507.50	408.54
507.86	409.60
508.22	410.79
508.59	411.73
508.95	412.59
509.31	413.38
509.67	414.26
510.03	415.20
510.39	415.93
510.75	416.71
511.12	417.60
511.48	418.36
511.84	419.04
512.20	419.49
512.56	420.12
512.92	420.71
513.28	421.17
513.64	421.37
514.00	421.77
514.37	422.23
514.73	422.58
515.09	422.87
515.45	423.20
515.81	423.46
516.17	424.03
516.53	424.36
516.89	424.48
517.25	424.60
517.61	424.79
517.97	424.97
518.33	425.12
518.69	425.27
519.05	425.55
519.41	425.73
519.77	426.33
520.13	426.62
520.49	426.69
520.85	426.80
521.21	427.14
521.57	427.57
521.93	427.78
522.29	428.23
522.65	428.66
523.01	429.16
523.37	429.58
523.73	429.85
524.09	430.23
524.45	430.93
524.81	431.60
525.17	432.17
525.53	432.92
525.89	433.60
526.25	434.49
526.61	435.00
526.97	435.94
527.33	436.59
527.68	437.56
528.04	438.73
528.40	439.97
528.76	441.35
529.12	442.31
529.48	443.74
529.84	445.18
530.20	446.64
530.56	448.13
530.91	449.76
531.27	451.37
531.63	453.13
531.99	454.77
532.35	456.50
532.71	458.38
533.07	460.45
533.42	462.91
533.78	465.00
534.14	467.37
534.50	469.38
534.86	471.72
535.21	473.86
535.57	476.43
535.93	478.78
536.29	481.37
536.65	484.08
537.00	486.63
537.36	489.24
537.72	491.95
538.08	494.75
538.44	497.46
538.79	500.26
539.15	503.27
539.51	506.18
539.87	509.44
540.22	512.61
540.58	515.82
540.94	518.85
541.29	522.15
541.65	525.34
542.01	529.09
542.37	532.40
542.72	535.73
543.08	539.11
543.44	542.69
543.79	546.05
544.15	549.76
544.51	553.62
544.87	557.32
545.22	561.10
545.58	564.69
545.94	568.52
546.29	572.55
546.65	576.42
547.01	580.39
547.36	584.16
547.72	587.94
548.07	591.67
548.43	595.24
548.79	599.20
549.14	603.16
549.50	606.80
549.86	610.80
550.21	614.92
550.57	618.91
550.92	622.80
551.28	626.68
551.64	630.65
551.99	634.58
552.35	638.68
552.70	642.46
553.06	646.54
553.41	650.59
553.77	654.59
554.13	658.72
554.48	662.90
554.84	666.92
555.19	671.11
555.55	675.20
555.90	679.39
556.26	683.30
556.61	687.15
556.97	691.20
557.32	695.29
557.68	699.19
558.03	703.25
558.39	707.32
558.74	711.49
559.10	715.32
559.45	719.19
559.81	723.22
560.16	727.31
560.52	731.45
560.87	735.40
561.23	739.07
561.58	742.86
561.94	746.42
562.29	750.22
562.64	753.74
563.00	757.34
563.35	761.37
563.71	765.31
564.06	769.13
564.42	772.74
564.77	776.20
565.12	779.91
565.48	783.51
565.83	786.92
566.19	790.31
566.54	793.98
566.89	797.44
567.25	800.59
567.60	804.01
567.96	807.12
568.31	810.12
568.66	813.31
569.02	816.22
569.37	819.03
569.72	822.01
570.08	825.00
570.43	827.50
570.78	829.72
571.14	832.12
571.49	834.65
571.84	837.50
572.20	839.83
572.55	842.05
572.90	844.04
573.26	846.52
573.61	848.54
573.96	850.49
574.31	852.23
574.67	853.86
575.02	855.27
575.37	857.05
575.72	858.42
576.08	860.14
576.43	861.64
576.78	863.50
577.13	864.90
577.49	866.21
577.84	868.00
578.19	869.53
578.54	870.71
578.90	871.61
579.25	871.83
579.60	873.05
579.95	873.94
580.30	874.69
580.66	875.08
581.01	875.53
581.36	875.96
581.71	876.41
582.06	877.20
582.42	877.73
582.77	878.02
583.12	878.64
583.47	879.12
583.82	879.50
584.17	879.50
584.53	879.70
584.88	880.03
585.23	879.70
585.58	879.58
585.93	879.52
586.28	879.80
586.63	880.22
586.98	880.20
587.34	880.23
587.69	880.33
588.04	880.54
588.39	880.62
588.74	880.23
589.09	879.84
589.44	879.28
589.79	879.19
590.14	878.96
590.49	878.35
590.84	877.77
591.19	877.22
591.54	876.55
591.89	875.43
592.25	874.74
592.60	873.86
592.95	873.07
593.30	872.14
593.65	871.19
594.00	870.08
594.35	869.34
594.70	868.16
595.05	867.00
595.40	865.61
595.75	864.32
596.10	863.35
596.45	862.56
596.80	861.69
597.15	860.36
597.50	859.11
597.85	858.30
598.19	857.03
598.54	855.94
598.89	854.71
599.24	853.81
599.59	852.16
599.94	851.22
600.29	849.92
600.64	848.65
600.99	846.70
601.34	845.58
601.69	843.40
602.04	841.76
602.39	840.17
602.74	838.98
603.08	837.61
603.43	836.26
603.78	834.56
604.13	832.81
604.48	831.10
604.83	829.37
605.18	827.57
605.53	825.67
605.87	823.36
606.22	821.53
606.57	819.66
606.92	818.10
607.27	816.41
607.62	814.67
607.96	812.82
608.31	811.51
608.66	809.49
609.01	807.61
609.36	805.41
609.70	802.96
610.05	800.48
610.40	798.27
610.75	795.79
611.10	793.50
611.44	790.75
611.79	788.43
612.14	786.12
612.49	783.38
612.83	780.88
613.18	778.63
613.53	776.18
613.88	773.39
614.22	770.68
614.57	767.82
614.92	765.02
615.27	762.38
615.61	759.47
615.96	756.79
616.31	754.30
616.65	752.40
617.00	750.18
617.35	747.62
617.70	744.78
618.04	742.11
618.39	739.49
618.74	737.06
619.08	734.38
619.43	731.53
619.78	729.13
620.12	726.54
620.47	723.93
620.82	721.20
621.16	718.88
621.51	716.33
621.85	713.89
622.20	711.23
622.55	708.70
622.89	706.35
623.24	703.83
623.59	701.39
623.93	698.96
624.28	696.41
624.62	693.96
624.97	691.88
625.32	689.46
625.66	687.06
626.01	684.58
626.35	682.04
626.70	679.60
627.04	677.25
627.39	674.50
627.73	671.97
628.08	669.52
628.43	666.91
628.77	664.69
629.12	662.15
629.46	659.66
629.81	656.94
630.15	654.25
630.50	651.79
630.84	649.00
631.19	645.79
631.53	643.21
631.88	640.43
632.22	637.29
632.57	634.66
632.91	631.98
633.26	629.61
633.60	626.96
633.95	624.26
634.29	621.82
634.64	619.76
634.98	617.32
635.32	615.09
635.67	612.87
636.01	610.17
636.36	607.43
636.70	605.19
637.05	602.78
637.39	600.43
637.73	597.84
638.08	595.97
638.42	593.92
638.77	591.63
639.11	589.22
639.45	587.15
639.80	584.94
640.14	582.70
640.49	580.26
640.83	578.05
641.17	575.77
641.52	573.20
641.86	570.68
642.20	568.45
642.55	566.15
642.89	563.77
643.23	561.31
643.58	559.39
643.92	556.84
644.26	554.49
644.61	552.34
644.95	550.15
645.29	547.15
645.64	544.64
645.98	542.20
646.32	539.90
646.66	537.46
647.01	535.18
647.35	532.74
647.69	530.53
648.04	528.42
648.38	526.13
648.72	523.72
649.06	521.33
649.41	518.96
649.75	516.46
650.09	514.04
650.43	511.77
650.78	509.20
651.12	506.90
651.46	504.55
651.80	502.06
652.14	499.77
652.49	497.81
652.83	495.76
653.17	493.47
653.51	491.21
653.85	489.16
654.20	486.79
654.54	484.48
654.88	481.95
655.22	479.40
655.56	477.06
655.90	474.88
656.25	472.70
656.59	470.45
656.93	468.25
657.27	466.01
657.61	463.64
657.95	461.52
658.29	459.38
658.64	457.58
658.98	455.50
659.32	453.44
659.66	451.27
660.00	449.03
660.34	446.90
660.68	444.84
661.02	442.60
661.36	440.62
661.70	438.63
662.05	437.14
662.39	435.46
662.73	433.79
663.07	431.98
663.41	430.10
663.75	428.34
664.09	426.50
664.43	424.79
664.77	423.26
665.11	421.57
665.45	419.93
665.79	418.07
666.13	416.18
666.47	414.25
666.81	412.44
667.15	410.66
667.49	409.11
667.83	407.71
668.17	406.20
668.51	404.53
668.85	403.01
669.19	401.18
669.53	399.45
669.87	397.67
670.21	396.17
670.55	394.65
670.89	393.00
671.23	391.60
671.57	390.11
671.91	388.58
672.25	387.04
672.58	385.71
672.92	384.30
673.26	383.08
673.60	381.86
673.94	380.54
674.28	379.37
674.62	378.23
674.96	376.81
675.30	375.58
675.64	374.33
675.97	373.09
676.31	371.90
676.65	370.56
676.99	369.44
677.33	368.20
677.67	366.80
678.01	365.64
678.34	364.28
678.68	363.08
679.02	361.83
679.36	360.67
679.70	359.37
680.04	358.00
680.37	356.74
680.71	355.47
681.05	354.42
681.39	353.30
681.73	351.99
682.06	350.93
682.40	349.69
682.74	348.54
683.08	347.49
683.42	346.14
683.75	345.15
684.09	343.97
684.43	342.88
684.77	341.98
685.10	340.86
685.44	339.84
685.78	338.74
686.12	337.74
686.45	336.70
686.79	335.62
687.13	334.65
687.46	333.54
687.80	332.57
688.14	331.47
688.48	330.41
688.81	329.43
689.15	328.40
689.49	327.47
689.82	326.52
690.16	325.46
690.50	324.54
690.83	323.56
691.17	322.56
691.51	321.50
691.84	320.61
692.18	319.64
692.52	318.64
692.85	317.71
693.19	316.92
693.52	315.96
693.86	314.94
694.20	313.98
694.53	313.11
694.87	312.27
695.21	311.21
695.54	310.19
695.88	309.11
696.21	308.09
696.55	307.16
696.88	306.17
697.22	305.39
697.56	304.64
697.89	303.70
698.23	302.90
698.56	302.05
698.90	301.10
699.23	300.15
699.57	299.38
699.90	298.50
700.24	297.60
700.58	296.86
700.91	296.15
701.25	295.50
701.58	294.97
701.92	294.15
702.25	293.45
702.59	292.76
702.92	292.16
703.26	291.44
703.59	290.74
703.93	290.28
704.26	289.41
704.60	288.82
704.93	288.26
705.26	287.61
705.60	287.05
705.93	286.55
706.27	286.18
706.60	285.63
706.94	285.05
707.27	284.36
707.61	283.72
707.94	283.12
708.27	282.55
708.61	281.86
708.94	281.32
709.28	280.92
709.61	280.44
709.94	279.97
710.28	279.50
710.61	278.97
710.95	278.27
711.28	278.05
711.61	277.42
711.95	276.92
712.28	276.52
712.61	275.94
712.95	275.37
713.28	274.84
713.61	274.33
713.95	273.73
714.28	273.35
714.61	272.90
714.95	272.50
715.28	271.92
715.61	271.43
715.95	270.99
716.28	270.50
716.61	270.10
716.95	269.59
717.28	269.18
717.61	268.70
717.94	268.40
718.28	267.71
718.61	267.32
718.94	266.87
719.27	266.36
719.61	266.11
719.94	265.75
720.27	265.27
720.60	264.81
720.94	264.49
721.27	264.13
721.60	263.77
721.93	263.36
722.27	263.12
722.60	262.77
722.93	262.36
723.26	262.01
723.59	261.66
723.93	261.36
724.26	261.05
724.59	260.80
724.92	260.48
725.25	260.20
725.59	259.91
725.92	259.64
726.25	259.29
726.58	258.92
726.91	258.62
727.24	258.34
727.57	258.13
727.91	257.93
728.24	257.54
728.57	257.16
728.90	256.90
729.23	256.54
729.56	256.30
729.89	256.03
730.22	255.65
730.55	255.30
730.89	254.96
731.22	254.67
731.55	254.41
731.88	254.16
732.21	253.95
732.54	253.68
732.87	253.40
733.20	253.09
733.53	252.72
733.86	252.49
734.19	252.23
734.52	251.98
734.85	251.72
735.18	251.48
735.51	251.39
735.84	251.28
736.17	251.11
736.50	250.75
736.83	250.75
737.16	250.56
737.49	250.34
737.82	250.19
738.15	249.85
738.48	249.51
738.81	249.15
739.14	248.87
739.47	248.61
739.80	248.44
740.13	248.30
740.46	248.18
740.79	247.92
741.12	247.70
741.45	247.41
741.78	247.18
742.11	247.11
742.44	246.78
742.77	246.49
743.10	246.12
743.43	246.00
743.75	245.57
744.08	245.58
744.41	245.34
744.74	245.08
745.07	244.91
745.40	244.80
745.73	244.69
746.06	244.45
746.39	244.28
746.71	244.09
747.04	243.90
747.37	243.67
747.70	243.49
748.03	243.32
748.36	243.19
748.68	243.04
749.01	242.70
749.34	242.70
749.67	242.52
750.00	242.40
750.33	242.37
750.65	242.32
750.98	242.06
751.31	241.87
751.64	241.67
751.97	241.62
752.29	241.52
752.62	241.35
752.95	241.32
753.28	241.13
753.60	241.01
753.93	240.92
754.26	240.89
754.59	240.70
754.91	240.54
755.24	240.42
755.57	240.26
755.90	240.21
756.22	239.97
756.55	239.77
756.88	239.71
757.20	239.56
757.53	239.30
757.86	239.19
758.19	239.17
758.51	239.21
758.84	239.05
759.17	238.82
759.49	238.74
759.82	238.65
760.15	238.61
760.47	238.47
760.80	238.25
761.13	238.20
761.45	238.00
761.78	237.93
762.11	237.83
762.43	237.70
762.76	237.59
763.08	237.53
763.41	237.52
763.74	237.45
764.06	237.28
764.39	237.14
764.71	237.05
765.04	236.91
765.37	236.70
765.69	236.62
766.02	236.63
766.34	236.51
766.67	236.39
767.00	236.36
767.32	236.34
767.65	236.41
767.97	236.23
768.30	236.28
768.62	236.23
768.95	236.13
769.27	236.12
769.60	236.05
769.92	235.93
770.25	235.84
770.57	235.80
770.90	235.75
771.22	235.79
771.55	235.59
771.87	235.55
772.20	235.57
772.52	235.65
772.85	235.73
773.17	235.61
773.50	235.62
773.82	235.55
774.15	235.38
774.47	235.19
774.80	235.15
775.12	235.05
775.45	234.93
775.77	234.87
776.09	234.86
776.42	234.80
776.74	234.78
777.07	234.74
777.39	234.67
777.72	234.62
778.04	234.46
778.36	234.48
778.69	234.45
779.01	234.37
779.33	234.16
779.66	233.92
779.98	233.86
780.31	233.75
780.63	233.69
780.95	233.64
781.28	233.60
781.60	233.49
781.92	233.42
782.25	233.30
782.57	233.25
782.89	233.07
783.22	233.00
783.54	232.91
783.86	232.70
784.19	232.54
784.51	232.53
784.83	232.55
785.16	232.48
785.48	232.31
785.80	232.30
786.12	232.15
786.45	232.09
786.77	232.04
787.09	231.98
787.42	231.83
787.74	231.82
788.06	231.65
788.38	231.61
788.71	231.59
789.03	231.54
789.35	231.54
789.67	231.58
789.99	231.54
790.32	231.39
790.64	231.41
790.96	231.50
791.28	231.39
791.61	231.30
791.93	231.28
792.25	231.30
792.57	231.33
792.89	231.30
793.21	231.25
793.54	231.17
793.86	231.10
794.18	231.16
794.50	231.07
794.82	231.16
795.14	231.09
795.47	231.15
795.79	231.19
796.11	231.10
796.43	230.96
796.75	230.92
797.07	230.94
797.39	230.93
797.71	230.83
798.04	230.78
798.36	230.81
798.68	230.71
799.00	230.69
799.32	230.58
799.64	230.56
799.96	230.54
800.28	230.61
800.60	230.54
800.92	230.45
801.24	230.35
801.56	230.32
801.89	230.26
802.21	230.19
802.53	230.10
802.85	230.07
803.17	230.15
803.49	230.02
803.81	230.06
804.13	230.09
804.45	230.01
804.77	229.97
805.09	229.86
805.41	229.95
805.73	229.91
806.05	229.80
806.37	229.90
806.69	229.93
807.01	229.90
807.33	229.95
807.65	229.96
807.97	230.10
808.28	230.09
808.60	230.11
808.92	230.06
809.24	230.14
809.56	230.13
809.88	230.02
810.20	230.13
810.52	230.15
810.84	230.10
811.16	230.04
811.48	230.00
811.80	230.05
812.12	230.01
812.43	229.95
812.75	230.07
813.07	230.04
813.39	230.00
813.71	229.93
814.03	229.93
814.35	229.82
814.67	229.80
814.98	229.75
815.30	229.77
815.62	229.71
815.94	229.60
816.26	229.67
816.58	229.80
816.89	229.77
817.21	229.73
817.53	229.63
817.85	229.70
818.17	229.70
818.48	229.63
818.80	229.65
819.12	229.69
819.44	229.57
819.76	229.51
820.07	229.39
820.39	229.40
820.71	229.32
821.03	229.33
821.34	229.28
821.66	229.31
821.98	229.29
822.30	229.32
822.61	229.50
822.93	229.41
823.25	229.33
823.57	229.28
823.88	229.29
824.20	229.29
824.52	229.28
824.83	229.34
825.15	229.33
825.47	229.22
825.79	229.24
826.10	229.28
826.42	229.27
826.74	229.42
827.05	229.42
827.37	229.45
827.69	229.46
828.00	229.45
828.32	229.45
828.64	229.47
828.95	229.55
829.27	229.48
829.58	229.35
829.90	229.38
830.22	229.32
830.53	229.23
830.85	229.14
831.17	229.16
831.48	229.11
831.80	229.18
832.11	229.16
832.43	229.11
832.75	229.16
833.06	229.29
833.38	229.15
833.69	229.13
834.01	229.08
834.32	229.10
834.64	229.11
834.96	229.04
835.27	229.00
835.59	228.95
835.90	228.80
836.22	228.83
836.53	228.76
836.85	228.82
837.16	229.01
837.48	229.17
837.79	229.09
838.11	229.00
838.42	228.97
838.74	229.04
839.05	229.09
839.37	229.06
839.68	228.83
840.00	228.84
840.31	228.87
840.63	228.93
840.94	228.91
841.26	228.89
841.57	228.91
841.88	228.96
842.20	228.99
842.51	228.99
842.83	229.00
843.14	229.16
843.46	229.21
843.77	229.13
844.08	229.10
844.40	229.06
844.71	229.06
845.03	229.04
845.34	228.98
845.65	228.90
845.97	228.83
846.28	228.90
846.60	228.84
846.91	228.78
847.22	228.76
847.54	228.68
847.85	228.63
848.16	228.64
848.48	228.57
848.79	228.54
849.10	228.70
849.42	228.75
849.73	228.70
850.04	228.68
850.36	228.64
850.67	228.72
850.98	228.79
851.30	228.84
851.61	228.84
851.92	228.90
852.23	228.98
852.55	228.96
852.86	228.94
853.17	228.96
853.49	229.03
853.80	229.07
854.11	229.20
854.42	229.28
854.74	229.32
855.05	229.40
855.36	229.35
855.67	229.25
855.99	229.40
856.30	229.49
856.61	229.46
856.92	229.42
857.23	229.39
857.55	229.40
857.86	229.45
858.17	229.53
858.48	229.50
858.79	229.40
859.11	229.43
859.42	229.47
859.73	229.55
860.04	229.51
860.35	229.47
860.66	229.37
860.98	229.44
861.29	229.50
861.60	229.38
861.91	229.34
862.22	229.34
862.53	229.26
862.84	229.12
863.16	229.19
863.47	229.06
863.78	229.07
864.09	229.16
864.40	229.11
864.71	229.04
865.02	229.03
865.33	229.05
865.64	229.00
865.95	228.90
866.27	228.92
866.58	228.90
866.89	228.91
867.20	228.83
867.51	228.66
867.82	228.60
868.13	228.76
868.44	228.81
868.75	228.91
869.06	228.84
869.37	228.78
869.68	228.68
869.99	228.80
870.30	228.73
870.61	228.66
870.92	228.60
871.23	228.59
871.54	228.56
871.85	228.58
872.16	228.56
872.47	228.66
872.78	228.55
873.09	228.59
873.40	228.50
873.71	228.52
874.02	228.51
874.33	228.41
874.64	228.27
874.95	228.32
875.26	228.10
875.56	228.09
875.87	228.05
876.18	227.97
876.49	228.10
876.80	228.03
877.11	227.99
877.42	227.98
877.73	228.00
878.04	227.96
878.35	227.94
878.66	227.95
878.96	227.90
879.27	227.93
879.58	227.94
879.89	228.02
880.20	228.13
880.51	228.21
880.82	228.20
881.12	228.29
881.43	228.16
881.74	228.28
882.05	228.21
882.36	228.21
882.67	228.33
882.97	228.08
883.28	228.14
883.59	228.04
883.90	228.06
884.21	228.05
884.51	228.06
884.82	228.12
885.13	228.10
885.44	228.00
885.74	228.00
886.05	228.01
886.36	227.94
886.67	227.77
886.98	227.76
887.28	227.80
887.59	227.73
887.90	227.82
888.20	227.82
888.51	227.83
888.82	227.86
889.13	227.85
889.43	228.10
889.74	228.06
890.05	228.15
890.35	228.21
890.66	228.12
890.97	228.11
891.28	228.07
891.58	228.16
891.89	228.22
892.20	228.22
892.50	228.23
892.81	228.36
893.12	228.48
893.42	228.46
893.73	228.46
894.04	228.51
894.34	228.47
894.65	228.42
894.95	228.50
895.26	228.53
895.57	228.59
895.87	228.42
896.18	228.55
896.48	228.63
896.79	228.65
897.10	228.76
897.40	228.82
897.71	228.80
898.01	228.81
898.32	228.89
898.63	228.98
898.93	229.01
899.24	228.93
899.54	228.92
899.85	229.02
900.15	229.04
900.46	229.07
900.76	229.17
901.07	229.20
901.38	229.21
901.68	229.29
901.99	229.28
902.29	229.36
902.60	229.24
902.90	229.17
903.21	229.12
903.51	229.06
903.82	229.05
904.12	229.09
904.43	229.06
904.73	229.02
905.03	228.91
905.34	229.01
905.64	228.96
905.95	228.94
906.25	228.82
906.56	228.86
906.86	228.83
907.17	228.83
907.47	228.81
907.77	228.70
908.08	228.53
908.38	228.47
908.69	228.37
908.99	228.44
909.30	228.40
909.60	228.37
909.90	228.33
910.21	228.29
910.51	228.29
910.81	228.19
911.12	228.17
911.42	228.19
911.73	227.90
912.03	227.91
912.33	227.88
912.64	227.80
912.94	227.69
913.24	227.53
913.55	227.30
913.85	227.26
914.15	227.27
914.46	227.29
914.76	227.29
915.06	227.20
915.37	227.14
915.67	227.14
915.97	227.17
916.27	227.21
916.58	227.28
916.88	227.23
917.18	227.21
917.49	227.40
917.79	227.36
918.09	227.38
918.39	227.30
918.70	227.22
919.00	227.24
919.30	227.41
919.60	227.38
919.91	227.44
920.21	227.50
920.51	227.48
920.81	227.45
921.12	227.50
921.42	227.54
921.72	227.53
922.02	227.44
922.32	227.44
922.63	227.37
922.93	227.46
923.23	227.44
923.53	227.43
923.83	227.24
924.13	227.21
924.44	227.28
924.74	227.48
925.04	227.64
925.34	227.72
925.64	227.62
925.94	227.77
926.24	227.96
926.55	227.95
926.85	228.01
927.15	228.07
927.45	228.05
927.75	228.15
928.05	228.19
928.35	228.22
928.65	228.29
928.95	228.40
929.26	228.30
929.56	228.44
929.86	228.55
930.16	228.49
930.46	228.55
930.76	228.50
931.06	228.44
931.36	228.46
931.66	228.49
931.96	228.56
932.26	228.59
932.56	228.57
932.86	228.55
933.16	228.46
933.46	228.39
933.76	228.38
934.06	228.34
934.36	228.54
934.66	228.55
934.96	228.53
935.26	228.50
935.56	228.53
935.86	228.43
936.16	228.49
936.46	228.64
936.76	228.68
937.06	228.67
937.36	228.72
937.66	228.68
937.96	228.63
938.26	228.52
938.56	228.46
938.86	228.40
939.16	228.46
939.46	228.53
939.76	228.61
940.06	228.68
940.35	228.69
940.65	228.47
940.95	228.56
941.25	228.51
941.55	228.53
941.85	228.57
942.15	228.62
942.45	228.54
942.75	228.35
943.04	228.27
943.34	228.30
943.64	228.17
943.94	228.14
944.24	228.12
944.54	228.16
944.84	228.17
945.13	228.10
945.43	228.12
945.73	228.11
946.03	228.11
946.33	227.99
946.62	227.96
946.92	227.90
947.22	227.91
947.52	227.88
947.82	227.89
948.11	227.69
948.41	227.59
948.71	227.59
949.01	227.69
949.31	227.73
949.60	227.75
949.90	227.82
950.20	227.80
950.50	227.71
950.79	227.67
951.09	227.60
951.39	227.60
951.69	227.53
951.98	227.47
952.28	227.46
952.58	227.33
952.87	227.26
953.17	227.36
953.47	227.24
953.76	227.26
954.06	227.23
954.36	227.27
954.66	227.26
954.95	227.25
955.25	227.30
955.55	227.27
955.84	227.35
956.14	227.33
956.44	227.37
956.73	227.46
957.03	227.54
957.32	227.62
957.62	227.63
957.92	227.66
958.21	227.77
958.51	228.02
958.81	228.17
959.10	228.34
959.40	228.37
959.69	228.37
959.99	228.43
960.29	228.45
960.58	228.48
960.88	228.59
961.17	228.68
961.47	228.61
961.76	228.64
962.06	228.56
962.36	228.61
962.65	228.61
962.95	228.60
963.24	228.56
963.54	228.53
963.83	228.56
964.13	228.59
964.42	228.49
964.72	228.27
965.01	228.25
965.31	228.13
965.60	228.06
965.90	228.28
966.19	228.37
966.49	228.40
966.78	228.38
967.08	228.33
967.37	228.27
967.67	228.32
967.96	228.37
968.26	228.45
968.55	228.41
968.85	228.44
969.14	228.46
969.43	228.41
969.73	228.45
970.02	228.41
970.32	228.37
970.61	228.30
970.91	228.34
971.20	228.45
971.49	228.45
971.79	228.55
972.08	228.42
972.38	228.37
972.67	228.32
972.96	228.48
973.26	228.52
973.55	228.59
973.85	228.54
974.14	228.56
974.43	228.62
974.73	228.58
975.02	228.57
975.31	228.56
975.61	228.58
975.90	228.52
976.19	228.50
976.49	228.53
976.78	228.64
977.07	228.63
977.37	228.56
977.66	228.58
977.95	228.59
978.24	228.51
978.54	228.50
978.83	228.51
979.12	228.40
979.42	228.40
979.71	228.41
980.00	228.43
980.29	228.39
980.59	228.22
980.88	228.30
981.17	228.20
981.46	228.19
981.76	228.19
982.05	228.18
982.34	228.24
982.63	228.19
982.93	228.14
983.22	228.07
983.51	228.03
983.80	228.02
984.09	227.93
984.39	227.88
984.68	227.84
984.97	227.82
985.26	227.79
985.55	227.68
985.85	227.53
986.14	227.54
986.43	227.50
986.72	227.57
987.01	227.49
987.30	227.42
987.59	227.40
987.89	227.38
988.18	227.39
988.47	227.35
988.76	227.33
989.05	227.37
989.34	227.38
989.63	227.40
989.92	227.34
990.22	227.32
990.51	227.42
990.80	227.43
991.09	227.40
991.38	227.41
991.67	227.42
991.96	227.40
992.25	227.35
992.54	227.36
992.83	227.32
993.12	227.24
993.41	227.35
993.70	227.45
993.99	227.44
994.28	227.44
994.58	227.47
994.87	227.47
995.16	227.49
995.45	227.47
995.74	227.40
996.03	227.51
996.32	227.51
996.61	227.50
996.90	227.40
997.19	227.47
997.48	227.50
997.77	227.56
998.06	227.60
998.34	227.61
998.63	227.57
998.92	227.56
999.21	227.59
999.50	227.67
999.79	227.57
1000.08	227.56
1000.37	227.60
1000.66	227.52
1000.95	227.47
1001.24	227.56
1001.53	227.62
1001.82	227.71
1002.11	227.61
1002.40	227.64
1002.68	227.73
1002.97	227.93
1003.26	227.92
1003.55	227.93
1003.84	227.94
1004.13	227.99
1004.42	228.01
1004.71	228.04
1004.99	228.03
1005.28	228.14
1005.57	228.14
1005.86	228.20
1006.15	228.24
1006.44	228.19
1006.72	228.29
1007.01	228.39
1007.30	228.36
1007.59	228.35
1007.88	228.41
1008.17	228.50
1008.45	228.43
1008.74	228.35
1009.03	228.26
1009.32	228.25
1009.60	228.20
1009.89	228.15
1010.18	228.15
1010.47	228.28
1010.76	228.26
1011.04	228.26
1011.33	228.29
1011.62	228.23
1011.91	228.27
1012.19	228.25
1012.48	228.25
1012.77	228.12
1013.05	228.32
1013.34	228.28
1013.63	228.24
1013.92	228.18
1014.20	228.12
1014.49	228.20
1014.78	228.27
1015.06	228.22
1015.35	228.13
1015.64	228.17
1015.92	228.25
1016.21	228.22
1016.50	228.01
1016.78	228.11
1017.07	228.16
1017.36	228.07
1017.64	228.05
1017.93	228.06
1018.22	228.10
1018.50	228.11
1018.79	228.22
1019.08	228.01
1019.36	228.03
1019.65	228.03
1019.93	228.02
1020.22	228.11
1020.51	228.20
1020.79	228.12
1021.08	228.40
1021.36	227.40
1021.65	228.10
1021.94	228.00
1022.22	228.40
1022.51	227.70
1022.79	228.30
1023.08	229.40
1023.36	230.30
1023.65	227.70
>>>>>End Processed Spectral Data<<<<<
