SpectraSuite Data File
++++++++++++++++++++++++++++++++++++
Date: Fri Feb 01 14:37:31 EST 2013
User: group
Dark Spectrum Present: No
Reference Spectrum Present: No
Number of Sampled Component Spectra: 1
Spectrometers: USB2E7196
Integration Time (usec): 70000 (USB2E7196)
Spectra Averaged: 10 (USB2E7196)
Boxcar Smoothing: 10 (USB2E7196)
Correct for Electrical Dark: No (USB2E7196)
Strobe/Lamp Enabled: No (USB2E7196)
Correct for Detector Non-linearity: No (USB2E7196)
Correct for Stray Light: No (USB2E7196)
Number of Pixels in Processed Spectrum: 2048
>>>>>Begin Processed Spectral Data<<<<<
339.09	0.00
339.48	217.50
339.86	218.40
340.24	220.90
340.63	221.00
341.01	223.30
341.39	223.80
341.78	224.90
342.16	226.60
342.54	225.80
342.93	215.07
343.31	225.88
343.69	226.33
344.07	226.75
344.46	227.15
344.84	227.51
345.22	227.76
345.60	227.94
345.99	228.10
346.37	228.17
346.75	228.35
347.13	228.36
347.52	228.40
347.90	228.63
348.28	228.62
348.66	228.65
349.05	228.57
349.43	228.66
349.81	228.67
350.19	228.66
350.57	228.69
350.96	228.73
351.34	228.84
351.72	228.90
352.10	229.03
352.48	228.92
352.87	228.95
353.25	228.99
353.63	229.08
354.01	229.17
354.39	229.34
354.77	229.36
355.15	229.47
355.54	229.45
355.92	229.36
356.30	229.48
356.68	229.63
357.06	229.65
357.44	229.61
357.82	229.65
358.20	229.77
358.58	229.79
358.97	229.82
359.35	229.87
359.73	229.94
360.11	230.01
360.49	230.20
360.87	230.25
361.25	230.32
361.63	230.43
362.01	230.42
362.39	230.34
362.77	230.41
363.15	230.48
363.53	230.50
363.91	230.57
364.29	230.44
364.67	230.29
365.05	230.41
365.43	230.42
365.81	230.47
366.19	230.57
366.57	230.67
366.95	230.59
367.33	230.47
367.71	230.52
368.09	230.43
368.47	230.40
368.85	230.30
369.23	230.30
369.61	230.16
369.99	230.15
370.37	230.10
370.75	230.11
371.13	229.92
371.51	229.88
371.89	229.81
372.27	229.84
372.65	229.81
373.03	229.70
373.41	229.65
373.78	229.49
374.16	229.29
374.54	229.18
374.92	229.10
375.30	229.05
375.68	228.93
376.06	228.91
376.44	228.78
376.82	228.61
377.19	228.57
377.57	228.48
377.95	228.34
378.33	228.23
378.71	227.99
379.09	227.94
379.47	227.93
379.84	227.81
380.22	227.67
380.60	227.53
380.98	227.31
381.36	227.23
381.73	227.12
382.11	226.98
382.49	226.85
382.87	226.78
383.25	226.80
383.62	226.86
384.00	226.80
384.38	226.78
384.76	226.84
385.13	226.77
385.51	226.73
385.89	226.63
386.27	226.63
386.64	226.62
387.02	226.58
387.40	226.37
387.78	226.41
388.15	226.42
388.53	226.38
388.91	226.36
389.29	226.38
389.66	226.47
390.04	226.53
390.42	226.44
390.79	226.40
391.17	226.34
391.55	226.15
391.92	226.11
392.30	226.05
392.68	226.11
393.05	226.08
393.43	226.02
393.81	226.15
394.18	226.07
394.56	226.11
394.94	226.13
395.31	226.28
395.69	226.25
396.06	226.32
396.44	226.32
396.82	226.46
397.19	226.47
397.57	226.45
397.95	226.44
398.32	226.54
398.70	226.67
399.07	226.78
399.45	226.95
399.82	226.94
400.20	227.05
400.58	227.02
400.95	227.08
401.33	227.20
401.70	227.40
402.08	227.61
402.45	227.68
402.83	227.90
403.20	228.01
403.58	228.19
403.95	228.31
404.33	228.53
404.71	228.71
405.08	228.99
405.46	229.23
405.83	229.51
406.21	229.78
406.58	230.01
406.96	230.34
407.33	230.55
407.70	230.86
408.08	231.33
408.45	231.80
408.83	232.14
409.20	232.56
409.58	232.83
409.95	233.16
410.33	233.57
410.70	233.85
411.08	234.35
411.45	234.78
411.82	235.25
412.20	235.77
412.57	236.38
412.95	236.86
413.32	237.46
413.69	238.07
414.07	238.71
414.44	239.46
414.82	240.09
415.19	240.84
415.56	241.74
415.94	242.60
416.31	243.37
416.68	244.41
417.06	245.52
417.43	246.60
417.81	247.89
418.18	249.19
418.55	250.58
418.93	251.92
419.30	253.41
419.67	254.94
420.04	256.56
420.42	258.18
420.79	260.13
421.16	262.05
421.54	264.15
421.91	266.20
422.28	268.29
422.66	270.61
423.03	272.93
423.40	275.08
423.77	277.38
424.15	279.94
424.52	282.34
424.89	285.11
425.26	287.76
425.64	290.19
426.01	292.98
426.38	295.84
426.75	298.83
427.13	301.86
427.50	305.05
427.87	308.35
428.24	311.64
428.61	314.65
428.99	318.10
429.36	321.71
429.73	325.30
430.10	328.85
430.47	332.55
430.85	336.30
431.22	340.50
431.59	344.94
431.96	349.11
432.33	353.75
432.70	358.08
433.08	363.19
433.45	368.16
433.82	372.87
434.19	378.35
434.56	383.53
434.93	388.40
435.30	393.43
435.68	399.04
436.05	404.52
436.42	410.00
436.79	414.84
437.16	420.07
437.53	425.65
437.90	431.12
438.27	436.67
438.64	442.30
439.01	447.41
439.38	451.92
439.75	456.52
440.13	461.60
440.50	466.64
440.87	470.77
441.24	474.84
441.61	479.42
441.98	482.79
442.35	486.82
442.72	491.18
443.09	494.95
443.46	497.35
443.83	499.15
444.20	500.57
444.57	502.83
444.94	504.31
445.31	505.86
445.68	507.30
446.05	507.97
446.42	508.05
446.79	507.90
447.16	507.78
447.53	507.82
447.90	506.40
448.27	504.64
448.64	502.30
449.01	500.97
449.37	498.07
449.74	495.01
450.11	491.27
450.48	487.07
450.85	482.96
451.22	479.55
451.59	476.22
451.96	473.30
452.33	468.77
452.70	464.50
453.07	459.32
453.43	454.32
453.80	449.45
454.17	444.69
454.54	440.20
454.91	435.25
455.28	430.36
455.65	425.89
456.02	421.53
456.38	417.63
456.75	412.51
457.12	408.30
457.49	404.21
457.86	400.32
458.23	396.89
458.59	393.19
458.96	389.21
459.33	385.69
459.70	382.10
460.07	379.52
460.43	376.43
460.80	373.45
461.17	370.69
461.54	367.89
461.91	365.11
462.27	362.47
462.64	360.17
463.01	357.53
463.38	355.13
463.74	352.49
464.11	350.22
464.48	348.43
464.85	346.40
465.21	344.73
465.58	342.93
465.95	340.87
466.32	338.93
466.68	337.13
467.05	335.35
467.42	333.67
467.78	331.61
468.15	329.82
468.52	328.40
468.88	326.67
469.25	325.08
469.62	323.89
469.98	322.62
470.35	321.28
470.72	320.06
471.08	318.60
471.45	317.56
471.82	316.31
472.18	315.04
472.55	314.05
472.92	312.96
473.28	311.95
473.65	310.87
474.02	310.02
474.38	309.13
474.75	308.34
475.11	307.43
475.48	306.83
475.85	306.19
476.21	305.45
476.58	304.91
476.94	304.34
477.31	303.67
477.67	303.05
478.04	302.48
478.41	302.00
478.77	301.72
479.14	301.23
479.50	300.87
479.87	300.51
480.23	300.08
480.60	299.76
480.96	299.48
481.33	299.39
481.69	299.23
482.06	299.03
482.42	298.81
482.79	298.66
483.15	298.58
483.52	298.51
483.88	298.49
484.25	298.46
484.61	298.56
484.98	298.54
485.34	298.68
485.71	298.94
486.07	299.08
486.44	299.04
486.80	299.21
487.17	299.57
487.53	299.91
487.90	300.26
488.26	300.69
488.62	301.04
488.99	301.41
489.35	301.86
489.72	302.43
490.08	302.90
490.44	303.36
490.81	303.82
491.17	304.32
491.54	304.91
491.90	305.41
492.26	305.99
492.63	306.72
492.99	307.16
493.36	307.69
493.72	308.25
494.08	309.00
494.45	309.69
494.81	310.32
495.17	311.00
495.54	311.83
495.90	312.53
496.26	313.17
496.63	313.79
496.99	314.52
497.35	315.15
497.72	315.98
498.08	316.83
498.44	317.65
498.80	318.50
499.17	319.11
499.53	319.76
499.89	320.43
500.26	321.00
500.62	321.76
500.98	322.58
501.34	323.36
501.71	324.07
502.07	324.76
502.43	325.40
502.79	326.03
503.16	326.48
503.52	326.98
503.88	327.45
504.24	328.04
504.60	328.34
504.97	328.90
505.33	329.27
505.69	329.68
506.05	330.15
506.41	330.27
506.78	330.83
507.14	331.20
507.50	331.55
507.86	332.03
508.22	332.18
508.59	332.37
508.95	332.57
509.31	332.71
509.67	332.82
510.03	332.80
510.39	332.82
510.75	333.05
511.12	333.12
511.48	333.33
511.84	333.50
512.20	333.69
512.56	333.74
512.92	333.77
513.28	333.88
513.64	333.72
514.00	334.01
514.37	334.01
514.73	334.04
515.09	334.15
515.45	334.07
515.81	334.24
516.17	334.21
516.53	334.30
516.89	334.46
517.25	334.58
517.61	334.82
517.97	335.17
518.33	335.30
518.69	335.60
519.05	335.91
519.41	336.30
519.77	336.90
520.13	337.30
520.49	337.75
520.85	338.16
521.21	338.90
521.57	339.54
521.93	340.07
522.29	340.90
522.65	341.52
523.01	342.31
523.37	343.08
523.73	344.05
524.09	345.10
524.45	346.21
524.81	347.42
525.17	348.75
525.53	349.92
525.89	351.39
526.25	352.87
526.61	354.17
526.97	355.53
527.33	356.91
527.68	358.68
528.04	360.55
528.40	362.42
528.76	364.25
529.12	366.04
529.48	368.20
529.84	370.23
530.20	372.63
530.56	375.10
530.91	377.62
531.27	380.11
531.63	382.53
531.99	385.07
532.35	387.64
532.71	390.24
533.07	393.14
533.42	395.94
533.78	398.81
534.14	401.96
534.50	404.91
534.86	408.09
535.21	411.29
535.57	414.70
535.93	418.18
536.29	421.75
536.65	425.31
537.00	428.86
537.36	432.53
537.72	436.14
538.08	439.76
538.44	443.52
538.79	447.30
539.15	451.28
539.51	455.28
539.87	459.42
540.22	463.62
540.58	467.84
540.94	472.21
541.29	476.59
541.65	480.82
542.01	485.64
542.37	490.09
542.72	494.43
543.08	498.80
543.44	503.27
543.79	507.64
544.15	512.27
544.51	517.04
544.87	521.73
545.22	526.43
545.58	531.33
545.94	535.96
546.29	540.81
546.65	545.47
547.01	550.22
547.36	554.98
547.72	559.66
548.07	564.38
548.43	569.09
548.79	573.66
549.14	578.52
549.50	583.29
549.86	588.16
550.21	592.92
550.57	597.67
550.92	602.32
551.28	607.19
551.64	612.14
551.99	617.02
552.35	621.76
552.70	626.80
553.06	631.44
553.41	636.56
553.77	641.64
554.13	646.62
554.48	651.50
554.84	656.34
555.19	661.42
555.55	666.41
555.90	671.20
556.26	675.99
556.61	680.65
556.97	684.98
557.32	689.61
557.68	694.54
558.03	699.24
558.39	703.94
558.74	708.63
559.10	713.28
559.45	717.67
559.81	722.63
560.16	727.00
560.52	731.42
560.87	735.73
561.23	740.02
561.58	744.60
561.94	748.98
562.29	753.15
562.64	757.20
563.00	761.33
563.35	765.83
563.71	770.33
564.06	774.73
564.42	779.20
564.77	783.37
565.12	787.50
565.48	791.99
565.83	795.83
566.19	799.78
566.54	803.81
566.89	807.69
567.25	811.37
567.60	815.19
567.96	819.11
568.31	822.75
568.66	826.15
569.02	829.24
569.37	832.66
569.72	836.17
570.08	839.57
570.43	842.91
570.78	845.71
571.14	848.63
571.49	851.54
571.84	854.66
572.20	857.32
572.55	859.70
572.90	861.84
573.26	864.56
573.61	867.05
573.96	869.18
574.31	871.08
574.67	872.89
575.02	874.56
575.37	876.56
575.72	878.33
576.08	880.24
576.43	882.25
576.78	883.86
577.13	885.70
577.49	887.33
577.84	888.75
578.19	890.18
578.54	891.54
578.90	892.78
579.25	893.52
579.60	894.52
579.95	895.47
580.30	896.48
580.66	897.51
581.01	898.07
581.36	898.89
581.71	900.02
582.06	900.73
582.42	901.80
582.77	902.04
583.12	902.77
583.47	903.30
583.82	903.90
584.17	904.29
584.53	904.75
584.88	904.96
585.23	905.25
585.58	905.44
585.93	905.90
586.28	906.42
586.63	906.95
586.98	907.48
587.34	908.03
587.69	908.22
588.04	908.32
588.39	908.65
588.74	908.20
589.09	908.05
589.44	907.88
589.79	907.50
590.14	907.20
590.49	906.62
590.84	906.39
591.19	905.90
591.54	905.20
591.89	904.16
592.25	903.63
592.60	902.37
592.95	901.45
593.30	900.23
593.65	899.09
594.00	897.77
594.35	897.11
594.70	895.70
595.05	894.62
595.40	893.20
595.75	892.04
596.10	891.11
596.45	890.17
596.80	889.32
597.15	888.61
597.50	887.91
597.85	887.23
598.19	886.06
598.54	885.46
598.89	884.55
599.24	883.76
599.59	882.60
599.94	881.80
600.29	880.73
600.64	879.64
600.99	878.32
601.34	876.96
601.69	874.89
602.04	873.80
602.39	872.50
602.74	871.67
603.08	870.57
603.43	869.54
603.78	868.10
604.13	866.55
604.48	864.65
604.83	863.32
605.18	861.57
605.53	859.54
605.87	857.15
606.22	855.46
606.57	853.53
606.92	851.64
607.27	849.85
607.62	848.29
607.96	846.67
608.31	844.75
608.66	843.08
609.01	841.41
609.36	839.08
609.70	836.53
610.05	833.87
610.40	831.72
610.75	829.38
611.10	826.96
611.44	824.24
611.79	822.06
612.14	819.37
612.49	816.64
612.83	814.27
613.18	811.73
613.53	809.11
613.88	806.33
614.22	803.63
614.57	800.80
614.92	798.01
615.27	795.26
615.61	792.65
615.96	789.91
616.31	787.14
616.65	785.00
617.00	782.60
617.35	780.11
617.70	777.05
618.04	774.07
618.39	771.28
618.74	768.70
619.08	765.65
619.43	762.93
619.78	760.28
620.12	757.87
620.47	755.30
620.82	752.47
621.16	749.98
621.51	747.60
621.85	745.10
622.20	742.38
622.55	739.76
622.89	737.36
623.24	734.94
623.59	732.49
623.93	729.82
624.28	727.43
624.62	724.94
624.97	722.45
625.32	719.93
625.66	717.59
626.01	715.34
626.35	713.14
626.70	710.75
627.04	708.32
627.39	705.43
627.73	702.76
628.08	700.17
628.43	697.36
628.77	694.72
629.12	692.03
629.46	689.34
629.81	686.24
630.15	683.23
630.50	680.30
630.84	677.10
631.19	674.00
631.53	670.71
631.88	667.59
632.22	664.47
632.57	661.86
632.91	658.82
633.26	655.89
633.60	652.70
633.95	649.71
634.29	647.23
634.64	644.80
634.98	642.04
635.32	639.69
635.67	637.16
636.01	634.58
636.36	631.92
636.70	629.43
637.05	627.01
637.39	624.53
637.73	621.99
638.08	619.84
638.42	617.59
638.77	615.57
639.11	613.17
639.45	611.00
639.80	608.50
640.14	606.13
640.49	603.50
640.83	601.23
641.17	598.77
641.52	596.30
641.86	593.69
642.20	591.39
642.55	588.87
642.89	586.44
643.23	583.71
643.58	581.52
643.92	578.92
644.26	576.37
644.61	573.98
644.95	571.75
645.29	569.27
645.64	566.63
645.98	564.09
646.32	561.72
646.66	559.20
647.01	556.69
647.35	554.41
647.69	552.15
648.04	549.88
648.38	547.37
648.72	544.60
649.06	542.05
649.41	539.53
649.75	536.77
650.09	534.35
650.43	532.07
650.78	529.50
651.12	527.02
651.46	524.81
651.80	522.35
652.14	519.76
652.49	517.49
652.83	515.15
653.17	512.79
653.51	510.46
653.85	507.95
654.20	505.55
654.54	503.00
654.88	500.53
655.22	497.93
655.56	495.50
655.90	493.01
656.25	490.59
656.59	488.17
656.93	486.11
657.27	483.89
657.61	481.42
657.95	479.21
658.29	477.02
658.64	474.72
658.98	472.43
659.32	470.08
659.66	467.94
660.00	465.55
660.34	463.21
660.68	460.80
661.02	458.63
661.36	456.49
661.70	454.45
662.05	452.50
662.39	450.57
662.73	448.66
663.07	446.80
663.41	445.08
663.75	443.21
664.09	441.23
664.43	439.23
664.77	437.48
665.11	435.46
665.45	433.64
665.79	431.84
666.13	430.01
666.47	428.20
666.81	426.19
667.15	424.32
667.49	422.45
667.83	420.95
668.17	419.10
668.51	417.33
668.85	415.34
669.19	413.54
669.53	411.72
669.87	409.85
670.21	408.05
670.55	406.20
670.89	404.69
671.23	403.06
671.57	401.30
671.91	399.65
672.25	398.10
672.58	396.60
672.92	394.98
673.26	393.42
673.60	391.83
673.94	390.19
674.28	388.78
674.62	387.58
674.96	385.99
675.30	384.70
675.64	383.28
675.97	381.93
676.31	380.57
676.65	379.16
676.99	377.93
677.33	376.70
677.67	375.38
678.01	373.69
678.34	372.38
678.68	371.08
679.02	369.56
679.36	368.17
679.70	366.84
680.04	365.58
680.37	364.23
680.71	362.99
681.05	361.98
681.39	360.79
681.73	359.31
682.06	358.10
682.40	356.87
682.74	355.66
683.08	354.57
683.42	353.31
683.75	352.02
684.09	350.82
684.43	349.58
684.77	348.47
685.10	347.51
685.44	346.29
685.78	345.14
686.12	344.13
686.45	342.95
686.79	341.73
687.13	340.56
687.46	339.42
687.80	338.41
688.14	337.20
688.48	336.31
688.81	335.39
689.15	334.41
689.49	333.33
689.82	332.29
690.16	331.10
690.50	330.10
690.83	329.21
691.17	328.03
691.51	327.11
691.84	326.10
692.18	324.98
692.52	323.91
692.85	322.93
693.19	322.07
693.52	321.23
693.86	320.22
694.20	319.30
694.53	318.30
694.87	317.35
695.21	316.36
695.54	315.25
695.88	314.33
696.21	313.23
696.55	312.46
696.88	311.62
697.22	310.81
697.56	310.02
697.89	309.11
698.23	308.45
698.56	307.50
698.90	306.68
699.23	305.86
699.57	305.04
699.90	304.28
700.24	303.22
700.58	302.22
700.91	301.45
701.25	300.73
701.58	300.16
701.92	299.28
702.25	298.56
702.59	297.89
702.92	297.18
703.26	296.56
703.59	295.66
703.93	295.15
704.26	294.42
704.60	293.66
704.93	292.88
705.26	292.12
705.60	291.44
705.93	290.85
706.27	290.47
706.60	289.97
706.94	289.37
707.27	288.70
707.61	288.19
707.94	287.65
708.27	286.90
708.61	286.07
708.94	285.58
709.28	285.03
709.61	284.41
709.94	283.68
710.28	283.10
710.61	282.61
710.95	281.73
711.28	281.32
711.61	280.74
711.95	280.34
712.28	279.71
712.61	279.21
712.95	278.56
713.28	277.82
713.61	277.10
713.95	276.45
714.28	275.90
714.61	275.33
714.95	274.64
715.28	274.05
715.61	273.61
715.95	273.07
716.28	272.39
716.61	271.79
716.95	271.32
717.28	270.73
717.61	270.12
717.94	269.65
718.28	268.98
718.61	268.35
718.94	267.72
719.27	267.31
719.61	266.87
719.94	266.44
720.27	265.98
720.60	265.54
720.94	265.16
721.27	264.87
721.60	264.50
721.93	264.09
722.27	263.72
722.60	263.38
722.93	262.91
723.26	262.65
723.59	262.35
723.93	261.93
724.26	261.56
724.59	261.20
724.92	260.76
725.25	260.48
725.59	260.20
725.92	259.99
726.25	259.55
726.58	259.23
726.91	258.87
727.24	258.50
727.57	258.23
727.91	257.79
728.24	257.49
728.57	257.28
728.90	256.95
729.23	256.68
729.56	256.46
729.89	256.10
730.22	255.70
730.55	255.31
730.89	255.11
731.22	254.87
731.55	254.59
731.88	254.40
732.21	254.17
732.54	253.91
732.87	253.56
733.20	253.30
733.53	253.02
733.86	252.79
734.19	252.55
734.52	252.35
734.85	252.42
735.18	252.13
735.51	251.85
735.84	251.75
736.17	251.46
736.50	251.10
736.83	251.19
737.16	251.03
737.49	250.91
737.82	250.75
738.15	250.60
738.48	250.45
738.81	250.29
739.14	250.08
739.47	249.91
739.80	249.74
740.13	249.68
740.46	249.42
740.79	249.25
741.12	249.07
741.45	248.78
741.78	248.39
742.11	248.26
742.44	248.02
742.77	247.85
743.10	247.75
743.43	247.55
743.75	247.22
744.08	247.22
744.41	247.05
744.74	246.80
745.07	246.50
745.40	246.40
745.73	246.22
746.06	245.99
746.39	245.86
746.71	245.65
747.04	245.36
747.37	245.18
747.70	245.06
748.03	244.90
748.36	244.81
748.68	244.55
749.01	244.35
749.34	244.21
749.67	244.04
750.00	243.80
750.33	243.84
750.65	243.63
750.98	243.31
751.31	243.08
751.64	242.90
751.97	242.85
752.29	242.50
752.62	242.26
752.95	241.95
753.28	241.80
753.60	241.60
753.93	241.56
754.26	241.40
754.59	241.08
754.91	240.91
755.24	240.62
755.57	240.52
755.90	240.31
756.22	240.08
756.55	239.93
756.88	239.72
757.20	239.35
757.53	239.09
757.86	238.96
758.19	238.80
758.51	238.62
758.84	238.49
759.17	238.49
759.49	238.36
759.82	238.31
760.15	238.11
760.47	237.97
760.80	237.72
761.13	237.61
761.45	237.47
761.78	237.29
762.11	237.26
762.43	237.10
762.76	237.00
763.08	237.00
763.41	236.80
763.74	236.69
764.06	236.59
764.39	236.52
764.71	236.33
765.04	236.24
765.37	236.19
765.69	236.00
766.02	235.80
766.34	235.67
766.67	235.67
767.00	235.60
767.32	235.69
767.65	235.81
767.97	235.67
768.30	235.57
768.62	235.46
768.95	235.38
769.27	235.29
769.60	235.24
769.92	234.96
770.25	234.90
770.57	234.83
770.90	234.78
771.22	234.77
771.55	234.72
771.87	234.67
772.20	234.57
772.52	234.67
772.85	234.86
773.17	234.80
773.50	234.66
773.82	234.61
774.15	234.44
774.47	234.26
774.80	234.33
775.12	234.37
775.45	234.36
775.77	234.30
776.09	234.37
776.42	234.25
776.74	234.29
777.07	234.16
777.39	234.24
777.72	234.21
778.04	234.20
778.36	234.14
778.69	234.15
779.01	234.17
779.33	234.00
779.66	233.73
779.98	233.71
780.31	233.72
780.63	233.79
780.95	233.83
781.28	233.82
781.60	233.73
781.92	233.60
782.25	233.64
782.57	233.68
782.89	233.60
783.22	233.60
783.54	233.54
783.86	233.63
784.19	233.48
784.51	233.50
784.83	233.39
785.16	233.32
785.48	233.33
785.80	233.28
786.12	233.24
786.45	233.20
786.77	233.20
787.09	233.17
787.42	233.11
787.74	233.09
788.06	232.97
788.38	233.10
788.71	233.07
789.03	232.89
789.35	232.90
789.67	232.80
789.99	232.81
790.32	232.87
790.64	232.79
790.96	232.97
791.28	232.88
791.61	232.93
791.93	232.98
792.25	232.90
792.57	232.93
792.89	232.87
793.21	232.93
793.54	232.88
793.86	232.77
794.18	232.59
794.50	232.44
794.82	232.41
795.14	232.25
795.47	232.25
795.79	232.24
796.11	232.07
796.43	232.10
796.75	232.13
797.07	232.04
797.39	232.03
797.71	231.86
798.04	231.79
798.36	231.70
798.68	231.62
799.00	231.58
799.32	231.42
799.64	231.43
799.96	231.37
800.28	231.36
800.60	231.41
800.92	231.46
801.24	231.40
801.56	231.42
801.89	231.33
802.21	231.29
802.53	231.25
802.85	231.27
803.17	231.23
803.49	231.06
803.81	231.06
804.13	231.04
804.45	230.88
804.77	230.83
805.09	230.74
805.41	230.67
805.73	230.61
806.05	230.56
806.37	230.49
806.69	230.43
807.01	230.34
807.33	230.28
807.65	230.17
807.97	230.28
808.28	230.21
808.60	230.17
808.92	230.14
809.24	230.22
809.56	230.17
809.88	230.10
810.20	230.09
810.52	230.03
810.84	229.91
811.16	229.96
811.48	229.97
811.80	230.09
812.12	230.05
812.43	230.07
812.75	230.15
813.07	230.07
813.39	230.07
813.71	229.98
814.03	229.96
814.35	229.98
814.67	229.85
814.98	229.83
815.30	229.76
815.62	229.83
815.94	229.79
816.26	229.82
816.58	229.82
816.89	229.89
817.21	229.86
817.53	229.82
817.85	229.87
818.17	229.88
818.48	229.72
818.80	229.79
819.12	229.82
819.44	229.72
819.76	229.77
820.07	229.76
820.39	229.82
820.71	229.82
821.03	229.77
821.34	229.81
821.66	229.89
821.98	229.96
822.30	229.87
822.61	229.86
822.93	229.70
823.25	229.60
823.57	229.51
823.88	229.64
824.20	229.75
824.52	229.71
824.83	229.68
825.15	229.72
825.47	229.77
825.79	229.76
826.10	229.73
826.42	229.78
826.74	229.84
827.05	229.88
827.37	229.86
827.69	229.96
828.00	229.91
828.32	229.84
828.64	229.85
828.95	229.96
829.27	229.90
829.58	230.06
829.90	230.21
830.22	230.27
830.53	230.19
830.85	230.24
831.17	230.19
831.48	230.15
831.80	230.08
832.11	230.07
832.43	229.95
832.75	230.04
833.06	229.99
833.38	229.86
833.69	229.76
834.01	229.73
834.32	229.62
834.64	229.70
834.96	229.72
835.27	229.66
835.59	229.51
835.90	229.54
836.22	229.52
836.53	229.44
836.85	229.45
837.16	229.55
837.48	229.44
837.79	229.49
838.11	229.48
838.42	229.45
838.74	229.42
839.05	229.45
839.37	229.35
839.68	229.28
840.00	229.33
840.31	229.34
840.63	229.34
840.94	229.32
841.26	229.17
841.57	229.13
841.88	229.20
842.20	229.22
842.51	229.15
842.83	229.09
843.14	229.32
843.46	229.21
843.77	229.12
844.08	229.10
844.40	229.10
844.71	229.08
845.03	228.99
845.34	228.97
845.65	228.88
845.97	228.92
846.28	228.99
846.60	228.99
846.91	228.96
847.22	228.86
847.54	228.93
847.85	228.87
848.16	228.86
848.48	228.68
848.79	228.75
849.10	228.85
849.42	228.85
849.73	228.54
850.04	228.60
850.36	228.52
850.67	228.52
850.98	228.40
851.30	228.49
851.61	228.60
851.92	228.57
852.23	228.68
852.55	228.67
852.86	228.59
853.17	228.61
853.49	228.69
853.80	228.86
854.11	228.86
854.42	229.06
854.74	229.08
855.05	229.18
855.36	229.10
855.67	229.20
855.99	229.23
856.30	229.45
856.61	229.44
856.92	229.45
857.23	229.45
857.55	229.53
857.86	229.45
858.17	229.43
858.48	229.36
858.79	229.32
859.11	229.27
859.42	229.33
859.73	229.29
860.04	229.20
860.35	229.07
860.66	228.95
860.98	228.91
861.29	228.90
861.60	228.83
861.91	228.89
862.22	228.80
862.53	228.75
862.84	228.52
863.16	228.48
863.47	228.55
863.78	228.44
864.09	228.51
864.40	228.57
864.71	228.67
865.02	228.72
865.33	228.66
865.64	228.70
865.95	228.70
866.27	228.84
866.58	228.91
866.89	228.90
867.20	228.86
867.51	228.82
867.82	228.86
868.13	229.07
868.44	228.92
868.75	228.82
869.06	228.87
869.37	228.93
869.68	228.87
869.99	228.86
870.30	228.99
870.61	228.89
870.92	228.85
871.23	228.85
871.54	228.87
871.85	228.98
872.16	229.03
872.47	228.89
872.78	228.73
873.09	228.80
873.40	228.87
873.71	229.04
874.02	229.03
874.33	228.89
874.64	228.74
874.95	228.88
875.26	228.81
875.56	228.80
875.87	228.81
876.18	228.76
876.49	228.87
876.80	228.83
877.11	228.80
877.42	228.77
877.73	228.70
878.04	228.62
878.35	228.60
878.66	228.53
878.96	228.60
879.27	228.59
879.58	228.45
879.89	228.40
880.20	228.31
880.51	228.30
880.82	228.40
881.12	228.35
881.43	228.28
881.74	228.22
882.05	228.21
882.36	228.14
882.67	228.28
882.97	228.08
883.28	228.03
883.59	227.98
883.90	228.04
884.21	227.98
884.51	227.99
884.82	228.00
885.13	228.01
885.44	228.03
885.74	228.03
886.05	228.14
886.36	228.22
886.67	228.16
886.98	228.34
887.28	228.30
887.59	228.30
887.90	228.34
888.20	228.42
888.51	228.37
888.82	228.43
889.13	228.43
889.43	228.64
889.74	228.62
890.05	228.80
890.35	228.75
890.66	228.91
890.97	228.90
891.28	228.85
891.58	228.80
891.89	228.84
892.20	228.77
892.50	228.60
892.81	228.57
893.12	228.60
893.42	228.38
893.73	228.42
894.04	228.53
894.34	228.51
894.65	228.60
894.95	228.61
895.26	228.57
895.57	228.60
895.87	228.38
896.18	228.48
896.48	228.37
896.79	228.37
897.10	228.27
897.40	228.34
897.71	228.32
898.01	228.40
898.32	228.44
898.63	228.44
898.93	228.61
899.24	228.60
899.54	228.60
899.85	228.56
900.15	228.51
900.46	228.40
900.76	228.36
901.07	228.27
901.38	228.33
901.68	228.35
901.99	228.29
902.29	228.26
902.60	228.18
902.90	228.23
903.21	228.18
903.51	228.27
903.82	228.22
904.12	228.28
904.43	228.25
904.73	228.14
905.03	228.10
905.34	228.20
905.64	228.10
905.95	228.12
906.25	228.09
906.56	228.10
906.86	228.14
907.17	228.04
907.47	228.04
907.77	227.97
908.08	227.82
908.38	227.83
908.69	227.84
908.99	227.94
909.30	227.92
909.60	227.90
909.90	227.82
910.21	227.75
910.51	227.75
910.81	227.69
911.12	227.79
911.42	227.86
911.73	227.64
912.03	227.70
912.33	227.71
912.64	227.65
912.94	227.64
913.24	227.69
913.55	227.76
913.85	227.79
914.15	227.87
914.46	227.93
914.76	227.89
915.06	227.89
915.37	227.78
915.67	227.77
915.97	227.82
916.27	227.67
916.58	227.72
916.88	227.60
917.18	227.63
917.49	227.69
917.79	227.70
918.09	227.83
918.39	227.92
918.70	227.88
919.00	227.94
919.30	227.98
919.60	227.82
919.91	227.86
920.21	227.82
920.51	227.75
920.81	227.77
921.12	227.82
921.42	227.80
921.72	227.90
922.02	227.88
922.32	227.87
922.63	227.97
922.93	228.10
923.23	228.13
923.53	228.04
923.83	227.93
924.13	227.88
924.44	227.78
924.74	227.75
925.04	227.72
925.34	227.85
925.64	227.72
925.94	227.70
926.24	227.81
926.55	227.76
926.85	227.80
927.15	227.91
927.45	227.97
927.75	228.02
928.05	227.89
928.35	227.85
928.65	227.91
928.95	227.95
929.26	227.79
929.56	227.86
929.86	227.90
930.16	227.90
930.46	227.92
930.76	227.95
931.06	227.92
931.36	227.97
931.66	228.00
931.96	228.15
932.26	228.24
932.56	228.09
932.86	228.12
933.16	228.15
933.46	228.17
933.76	228.06
934.06	228.18
934.36	228.28
934.66	228.30
934.96	228.30
935.26	228.45
935.56	228.51
935.86	228.43
936.16	228.38
936.46	228.36
936.76	228.43
937.06	228.37
937.36	228.38
937.66	228.54
937.96	228.53
938.26	228.54
938.56	228.64
938.86	228.75
939.16	228.82
939.46	228.87
939.76	228.75
940.06	228.78
940.35	228.69
940.65	228.66
940.95	228.72
941.25	228.70
941.55	228.50
941.85	228.58
942.15	228.71
942.45	228.90
942.75	228.92
943.04	229.01
943.34	229.16
943.64	229.16
943.94	228.97
944.24	228.91
944.54	228.81
944.84	228.76
945.13	228.68
945.43	228.70
945.73	228.55
946.03	228.57
946.33	228.50
946.62	228.42
946.92	228.38
947.22	228.28
947.52	228.24
947.82	228.31
948.11	228.24
948.41	228.22
948.71	228.08
949.01	228.10
949.31	227.96
949.60	227.87
949.90	227.81
950.20	227.94
950.50	227.87
950.79	227.84
951.09	227.83
951.39	227.82
951.69	227.75
951.98	227.83
952.28	227.81
952.58	227.88
952.87	227.92
953.17	228.00
953.47	228.09
953.76	228.11
954.06	228.05
954.36	228.00
954.66	227.98
954.95	228.00
955.25	227.92
955.55	227.94
955.84	227.86
956.14	228.00
956.44	227.90
956.73	227.92
957.03	227.88
957.32	227.88
957.62	227.92
957.92	227.97
958.21	227.96
958.51	228.27
958.81	228.26
959.10	228.19
959.40	228.21
959.69	228.23
959.99	228.13
960.29	228.14
960.58	228.17
960.88	228.22
961.17	228.16
961.47	228.22
961.76	228.21
962.06	228.34
962.36	228.27
962.65	228.29
962.95	228.40
963.24	228.46
963.54	228.48
963.83	228.46
964.13	228.41
964.42	228.38
964.72	228.10
965.01	228.18
965.31	228.26
965.60	228.21
965.90	228.32
966.19	228.37
966.49	228.40
966.78	228.36
967.08	228.30
967.37	228.49
967.67	228.49
967.96	228.57
968.26	228.55
968.55	228.60
968.85	228.53
969.14	228.46
969.43	228.48
969.73	228.49
970.02	228.53
970.32	228.55
970.61	228.59
970.91	228.57
971.20	228.45
971.49	228.30
971.79	228.25
972.08	228.08
972.38	228.17
972.67	228.27
972.96	228.38
973.26	228.42
973.55	228.40
973.85	228.40
974.14	228.37
974.43	228.31
974.73	228.18
975.02	228.20
975.31	228.24
975.61	228.14
975.90	228.16
976.19	228.08
976.49	228.15
976.78	228.11
977.07	228.13
977.37	228.18
977.66	228.24
977.95	228.21
978.24	228.26
978.54	228.23
978.83	228.09
979.12	228.00
979.42	228.04
979.71	227.91
980.00	227.89
980.29	227.90
980.59	227.91
980.88	227.93
981.17	227.91
981.46	227.83
981.76	227.90
982.05	227.89
982.34	227.92
982.63	227.78
982.93	227.78
983.22	227.85
983.51	227.83
983.80	227.87
984.09	227.90
984.39	227.85
984.68	227.82
984.97	227.72
985.26	227.69
985.55	227.61
985.85	227.67
986.14	227.62
986.43	227.58
986.72	227.53
987.01	227.51
987.30	227.56
987.59	227.60
987.89	227.69
988.18	227.61
988.47	227.54
988.76	227.57
989.05	227.55
989.34	227.50
989.63	227.50
989.92	227.60
990.22	227.64
990.51	227.54
990.80	227.51
991.09	227.68
991.38	227.71
991.67	227.70
991.96	227.61
992.25	227.68
992.54	227.73
992.83	227.77
993.12	227.75
993.41	227.87
993.70	227.97
993.99	227.98
994.28	228.09
994.58	228.16
994.87	228.18
995.16	228.23
995.45	228.12
995.74	228.14
996.03	228.05
996.32	228.14
996.61	228.26
996.90	228.40
997.19	228.34
997.48	228.43
997.77	228.42
998.06	228.48
998.34	228.51
998.63	228.50
998.92	228.50
999.21	228.62
999.50	228.49
999.79	228.40
1000.08	228.37
1000.37	228.38
1000.66	228.30
1000.95	228.39
1001.24	228.42
1001.53	228.52
1001.82	228.50
1002.11	228.44
1002.40	228.49
1002.68	228.58
1002.97	228.64
1003.26	228.70
1003.55	228.62
1003.84	228.60
1004.13	228.69
1004.42	228.64
1004.71	228.59
1004.99	228.59
1005.28	228.62
1005.57	228.68
1005.86	228.69
1006.15	228.72
1006.44	228.63
1006.72	228.80
1007.01	228.77
1007.30	228.80
1007.59	228.80
1007.88	228.90
1008.17	228.97
1008.45	228.88
1008.74	228.71
1009.03	228.64
1009.32	228.65
1009.60	228.68
1009.89	228.70
1010.18	228.65
1010.47	228.69
1010.76	228.71
1011.04	228.83
1011.33	228.87
1011.62	228.88
1011.91	228.90
1012.19	228.88
1012.48	228.91
1012.77	228.91
1013.05	229.00
1013.34	228.86
1013.63	228.80
1013.92	228.75
1014.20	228.79
1014.49	228.75
1014.78	228.88
1015.06	228.78
1015.35	228.69
1015.64	228.65
1015.92	228.73
1016.21	228.70
1016.50	228.69
1016.78	228.71
1017.07	228.60
1017.36	228.53
1017.64	228.45
1017.93	228.44
1018.22	228.39
1018.50	228.39
1018.79	228.31
1019.08	228.17
1019.36	228.17
1019.65	228.22
1019.93	228.27
1020.22	228.26
1020.51	228.28
1020.79	228.22
1021.08	227.20
1021.36	228.50
1021.65	228.30
1021.94	227.70
1022.22	226.30
1022.51	228.60
1022.79	229.00
1023.08	228.70
1023.36	229.20
1023.65	227.80
>>>>>End Processed Spectral Data<<<<<
