SpectraSuite Data File
++++++++++++++++++++++++++++++++++++
Date: Fri Feb 01 14:36:35 EST 2013
User: group
Dark Spectrum Present: No
Reference Spectrum Present: No
Number of Sampled Component Spectra: 1
Spectrometers: USB2E7196
Integration Time (usec): 70000 (USB2E7196)
Spectra Averaged: 10 (USB2E7196)
Boxcar Smoothing: 10 (USB2E7196)
Correct for Electrical Dark: No (USB2E7196)
Strobe/Lamp Enabled: No (USB2E7196)
Correct for Detector Non-linearity: No (USB2E7196)
Correct for Stray Light: No (USB2E7196)
Number of Pixels in Processed Spectrum: 2048
>>>>>Begin Processed Spectral Data<<<<<
339.09	0.00
339.48	216.70
339.86	216.50
340.24	218.50
340.63	221.50
341.01	225.70
341.39	222.60
341.78	225.70
342.16	226.00
342.54	226.10
342.93	214.92
343.31	225.80
343.69	226.31
344.07	226.76
344.46	227.29
344.84	227.59
345.22	227.68
345.60	227.96
345.99	228.18
346.37	228.25
346.75	228.34
347.13	228.46
347.52	228.40
347.90	228.56
348.28	228.53
348.66	228.57
349.05	228.39
349.43	228.44
349.81	228.39
350.19	228.38
350.57	228.37
350.96	228.47
351.34	228.55
351.72	228.65
352.10	228.76
352.48	228.70
352.87	228.77
353.25	228.85
353.63	228.91
354.01	228.77
354.39	228.90
354.77	228.90
355.15	228.89
355.54	228.99
355.92	228.96
356.30	229.00
356.68	229.19
357.06	229.35
357.44	229.42
357.82	229.53
358.20	229.63
358.58	229.68
358.97	229.80
359.35	229.86
359.73	229.95
360.11	230.01
360.49	230.23
360.87	230.36
361.25	230.40
361.63	230.49
362.01	230.66
362.39	230.65
362.77	230.80
363.15	230.94
363.53	231.06
363.91	231.16
364.29	231.11
364.67	230.84
365.05	230.82
365.43	230.85
365.81	230.92
366.19	230.90
366.57	231.12
366.95	231.05
367.33	230.98
367.71	230.95
368.09	231.01
368.47	230.93
368.85	230.71
369.23	230.71
369.61	230.58
369.99	230.65
370.37	230.62
370.75	230.68
371.13	230.45
371.51	230.23
371.89	230.08
372.27	230.01
372.65	229.97
373.03	229.93
373.41	229.83
373.78	229.66
374.16	229.53
374.54	229.21
374.92	229.17
375.30	229.03
375.68	228.82
376.06	228.65
376.44	228.46
376.82	228.44
377.19	228.37
377.57	228.36
377.95	228.15
378.33	227.96
378.71	227.73
379.09	227.88
379.47	227.78
379.84	227.65
380.22	227.62
380.60	227.57
380.98	227.51
381.36	227.50
381.73	227.47
382.11	227.43
382.49	227.38
382.87	227.22
383.25	227.31
383.62	227.51
384.00	227.47
384.38	227.40
384.76	227.38
385.13	227.31
385.51	227.23
385.89	227.17
386.27	227.13
386.64	227.08
387.02	226.81
387.40	226.83
387.78	226.80
388.15	226.72
388.53	226.68
388.91	226.58
389.29	226.45
389.66	226.43
390.04	226.36
390.42	226.41
390.79	226.34
391.17	226.25
391.55	226.02
391.92	226.06
392.30	226.08
392.68	226.07
393.05	226.16
393.43	226.10
393.81	226.04
394.18	226.06
394.56	226.02
394.94	226.30
395.31	226.30
395.69	226.39
396.06	226.46
396.44	226.52
396.82	226.59
397.19	226.64
397.57	226.66
397.95	226.81
398.32	226.76
398.70	226.89
399.07	227.01
399.45	227.07
399.82	227.12
400.20	227.24
400.58	227.36
400.95	227.34
401.33	227.54
401.70	227.81
402.08	228.08
402.45	228.24
402.83	228.37
403.20	228.52
403.58	228.70
403.95	228.89
404.33	229.15
404.71	229.29
405.08	229.72
405.46	230.05
405.83	230.29
406.21	230.68
406.58	231.02
406.96	231.28
407.33	231.65
407.70	231.96
408.08	232.53
408.45	232.90
408.83	233.35
409.20	233.77
409.58	234.08
409.95	234.53
410.33	235.03
410.70	235.37
411.08	235.95
411.45	236.61
411.82	237.25
412.20	237.90
412.57	238.74
412.95	239.33
413.32	240.13
413.69	240.91
414.07	241.61
414.44	242.55
414.82	243.45
415.19	244.47
415.56	245.59
415.94	246.59
416.31	247.88
416.68	249.08
417.06	250.48
417.43	251.80
417.81	253.32
418.18	254.89
418.55	256.61
418.93	258.40
419.30	260.14
419.67	261.99
420.04	264.01
420.42	266.12
420.79	268.51
421.16	270.79
421.54	273.20
421.91	275.90
422.28	278.50
422.66	281.24
423.03	284.08
423.40	286.97
423.77	289.94
424.15	292.89
424.52	296.08
424.89	299.51
425.26	302.91
425.64	306.14
426.01	309.66
426.38	313.33
426.75	316.93
427.13	320.77
427.50	324.75
427.87	328.81
428.24	332.86
428.61	336.65
428.99	341.04
429.36	345.93
429.73	350.47
430.10	354.99
430.47	359.74
430.85	364.63
431.22	369.78
431.59	375.23
431.96	380.55
432.33	386.32
432.70	391.86
433.08	398.39
433.45	404.60
433.82	410.60
434.19	417.23
434.56	424.05
434.93	430.31
435.30	436.58
435.68	443.55
436.05	450.48
436.42	457.35
436.79	463.45
437.16	469.84
437.53	477.09
437.90	484.19
438.27	491.09
438.64	498.11
439.01	504.60
439.38	510.57
439.75	516.25
440.13	522.76
440.50	528.99
440.87	534.05
441.24	539.14
441.61	545.20
441.98	549.70
442.35	554.66
442.72	559.72
443.09	564.83
443.46	568.07
443.83	570.32
444.20	572.45
444.57	575.57
444.94	577.37
445.31	579.01
445.68	580.54
446.05	581.73
446.42	581.60
446.79	581.53
447.16	581.17
447.53	581.25
447.90	579.60
448.27	577.81
448.64	574.88
449.01	573.10
449.37	569.13
449.74	565.45
450.11	560.92
450.48	555.83
450.85	550.64
451.22	546.14
451.59	542.09
451.96	537.96
452.33	532.20
452.70	527.10
453.07	520.91
453.43	514.71
453.80	508.48
454.17	502.64
454.54	496.98
454.91	490.95
455.28	484.90
455.65	479.12
456.02	473.24
456.38	468.36
456.75	462.25
457.12	457.10
457.49	451.96
457.86	446.86
458.23	442.75
458.59	438.01
458.96	433.17
459.33	428.81
459.70	424.56
460.07	421.07
460.43	417.11
460.80	413.17
461.17	409.74
461.54	406.32
461.91	403.00
462.27	399.59
462.64	396.65
463.01	393.50
463.38	390.30
463.74	387.26
464.11	384.63
464.48	382.14
464.85	379.46
465.21	377.31
465.58	375.21
465.95	372.62
466.32	370.53
466.68	368.40
467.05	366.05
467.42	364.00
467.78	361.60
468.15	359.41
468.52	357.68
468.88	355.48
469.25	353.52
469.62	351.94
469.98	350.26
470.35	348.65
470.72	347.03
471.08	345.41
471.45	343.95
471.82	342.34
472.18	340.74
472.55	339.54
472.92	338.04
473.28	336.76
473.65	335.45
474.02	333.94
474.38	332.82
474.75	331.83
475.11	330.67
475.48	330.00
475.85	329.20
476.21	328.43
476.58	327.78
476.94	327.22
477.31	326.58
477.67	325.89
478.04	325.30
478.41	324.98
478.77	324.75
479.14	324.11
479.50	323.85
479.87	323.60
480.23	323.42
480.60	323.28
480.96	322.97
481.33	322.96
481.69	322.96
482.06	322.78
482.42	322.64
482.79	322.60
483.15	322.74
483.52	322.92
483.88	323.03
484.25	323.27
484.61	323.42
484.98	323.58
485.34	324.02
485.71	324.43
486.07	324.70
486.44	324.95
486.80	325.83
487.17	326.36
487.53	327.04
487.90	327.58
488.26	328.35
488.62	329.00
488.99	329.68
489.35	330.40
489.72	331.40
490.08	332.40
490.44	333.25
490.81	333.96
491.17	334.77
491.54	335.80
491.90	336.60
492.26	337.50
492.63	338.65
492.99	339.57
493.36	340.59
493.72	341.71
494.08	342.89
494.45	343.77
494.81	344.90
495.17	346.11
495.54	347.36
495.90	348.43
496.26	349.74
496.63	350.96
496.99	352.52
497.35	353.82
497.72	355.15
498.08	356.65
498.44	358.12
498.80	359.66
499.17	360.97
499.53	362.34
499.89	363.81
500.26	365.12
500.62	366.56
500.98	368.05
501.34	369.41
501.71	370.89
502.07	372.30
502.43	373.61
502.79	374.81
503.16	376.05
503.52	377.40
503.88	378.57
504.24	379.89
504.60	380.87
504.97	382.00
505.33	383.22
505.69	384.36
506.05	385.27
506.41	386.15
506.78	387.16
507.14	388.10
507.50	388.96
507.86	389.80
508.22	390.64
508.59	391.36
508.95	392.06
509.31	392.73
509.67	393.41
510.03	394.10
510.39	394.73
510.75	395.37
511.12	395.80
511.48	396.36
511.84	396.81
512.20	397.30
512.56	397.63
512.92	397.92
513.28	398.02
513.64	398.37
514.00	398.67
514.37	398.99
514.73	399.23
515.09	399.35
515.45	399.40
515.81	399.46
516.17	399.50
516.53	399.60
516.89	399.50
517.25	399.60
517.61	399.76
517.97	399.86
518.33	400.06
518.69	400.23
519.05	400.36
519.41	400.57
519.77	400.72
520.13	400.95
520.49	401.13
520.85	401.46
521.21	401.75
521.57	402.03
521.93	402.12
522.29	402.61
522.65	403.15
523.01	403.51
523.37	403.87
523.73	404.49
524.09	405.01
524.45	405.63
524.81	406.24
525.17	406.93
525.53	407.63
525.89	408.25
526.25	409.07
526.61	409.87
526.97	410.60
527.33	411.50
527.68	412.80
528.04	413.84
528.40	414.85
528.76	416.08
529.12	417.49
529.48	418.89
529.84	420.10
530.20	421.41
530.56	423.11
530.91	425.02
531.27	426.58
531.63	428.36
531.99	430.30
532.35	432.25
532.71	434.12
533.07	436.29
533.42	438.45
533.78	440.64
534.14	443.01
534.50	445.24
534.86	447.77
535.21	449.77
535.57	452.29
535.93	454.95
536.29	457.68
536.65	460.25
537.00	462.90
537.36	465.79
537.72	468.81
538.08	471.79
538.44	474.56
538.79	477.60
539.15	480.62
539.51	483.75
539.87	486.82
540.22	490.11
540.58	493.36
540.94	496.76
541.29	500.05
541.65	503.52
542.01	507.31
542.37	510.96
542.72	514.87
543.08	518.50
543.44	522.22
543.79	525.67
544.15	529.40
544.51	533.51
544.87	537.46
545.22	541.24
545.58	545.27
545.94	549.21
546.29	553.23
546.65	557.29
547.01	561.47
547.36	565.62
547.72	569.81
548.07	574.04
548.43	577.91
548.79	582.01
549.14	585.76
549.50	589.72
549.86	593.54
550.21	597.39
550.57	601.85
550.92	606.05
551.28	610.35
551.64	614.50
551.99	618.54
552.35	622.60
552.70	626.90
553.06	630.98
553.41	635.34
553.77	639.68
554.13	644.07
554.48	648.40
554.84	652.60
555.19	656.66
555.55	660.88
555.90	665.23
556.26	669.51
556.61	673.90
556.97	677.87
557.32	681.89
557.68	686.12
558.03	690.08
558.39	694.16
558.74	698.27
559.10	702.47
559.45	706.83
559.81	711.04
560.16	715.11
560.52	718.99
560.87	723.00
561.23	726.86
561.58	730.77
561.94	734.23
562.29	738.02
562.64	741.76
563.00	745.37
563.35	749.25
563.71	753.35
564.06	757.41
564.42	761.17
564.77	765.25
565.12	769.15
565.48	772.88
565.83	776.42
566.19	780.17
566.54	783.62
566.89	787.03
567.25	790.60
567.60	794.20
567.96	797.88
568.31	801.26
568.66	804.43
569.02	807.63
569.37	810.84
569.72	813.90
570.08	817.07
570.43	820.22
570.78	823.02
571.14	825.66
571.49	828.05
571.84	831.02
572.20	833.35
572.55	835.66
572.90	837.95
573.26	840.46
573.61	842.31
573.96	844.53
574.31	846.20
574.67	847.87
575.02	849.46
575.37	851.16
575.72	852.50
576.08	854.30
576.43	855.92
576.78	857.61
577.13	859.24
577.49	860.73
577.84	861.81
578.19	863.25
578.54	864.51
578.90	866.08
579.25	866.83
579.60	867.91
579.95	868.95
580.30	869.69
580.66	870.45
581.01	871.50
581.36	872.32
581.71	873.18
582.06	873.80
582.42	874.44
582.77	875.01
583.12	875.61
583.47	876.09
583.82	876.53
584.17	876.80
584.53	876.95
584.88	877.40
585.23	877.69
585.58	877.76
585.93	877.71
586.28	877.69
586.63	877.78
586.98	878.08
587.34	878.11
587.69	878.22
588.04	878.12
588.39	878.12
588.74	877.65
589.09	877.37
589.44	877.09
589.79	876.91
590.14	876.79
590.49	876.63
590.84	876.08
591.19	875.74
591.54	875.07
591.89	874.28
592.25	873.68
592.60	872.68
592.95	871.77
593.30	870.80
593.65	869.83
594.00	869.28
594.35	868.71
594.70	867.61
595.05	866.39
595.40	865.33
595.75	863.93
596.10	863.10
596.45	862.14
596.80	861.40
597.15	860.17
597.50	858.66
597.85	857.43
598.19	856.40
598.54	854.91
598.89	853.81
599.24	853.20
599.59	851.73
599.94	850.94
600.29	849.80
600.64	848.50
600.99	847.03
601.34	845.52
601.69	843.62
602.04	842.23
602.39	840.99
602.74	839.88
603.08	838.65
603.43	837.49
603.78	836.10
604.13	834.28
604.48	832.95
604.83	831.35
605.18	829.95
605.53	828.16
605.87	826.22
606.22	824.72
606.57	822.43
606.92	820.50
607.27	818.99
607.62	817.48
607.96	816.00
608.31	814.23
608.66	812.18
609.01	810.25
609.36	808.07
609.70	805.61
610.05	803.29
610.40	801.24
610.75	798.71
611.10	796.21
611.44	793.83
611.79	791.50
612.14	789.18
612.49	786.26
612.83	783.60
613.18	781.29
613.53	778.80
613.88	776.22
614.22	773.72
614.57	770.65
614.92	767.91
615.27	765.21
615.61	762.60
615.96	760.14
616.31	757.51
616.65	755.40
617.00	753.53
617.35	750.93
617.70	748.20
618.04	745.65
618.39	743.12
618.74	740.73
619.08	737.79
619.43	735.40
619.78	733.42
620.12	731.12
620.47	728.85
620.82	726.23
621.16	723.68
621.51	721.36
621.85	718.69
622.20	715.86
622.55	713.47
622.89	711.10
623.24	708.71
623.59	706.22
623.93	703.60
624.28	700.75
624.62	698.47
624.97	696.21
625.32	693.71
625.66	691.60
626.01	689.20
626.35	686.90
626.70	684.27
627.04	681.50
627.39	679.03
627.73	676.27
628.08	673.62
628.43	671.24
628.77	668.49
629.12	666.18
629.46	663.70
629.81	660.75
630.15	658.00
630.50	655.15
630.84	652.25
631.19	649.29
631.53	646.68
631.88	643.80
632.22	640.92
632.57	638.32
632.91	635.10
633.26	632.39
633.60	629.54
633.95	626.90
634.29	624.47
634.64	621.89
634.98	619.12
635.32	616.75
635.67	614.45
636.01	612.00
636.36	609.36
636.70	607.07
637.05	604.77
637.39	602.50
637.73	600.08
638.08	598.02
638.42	596.10
638.77	593.90
639.11	591.56
639.45	589.09
639.80	586.59
640.14	584.41
640.49	582.09
640.83	579.73
641.17	577.47
641.52	574.98
641.86	572.61
642.20	570.70
642.55	568.31
642.89	566.00
643.23	563.70
643.58	561.53
643.92	558.90
644.26	556.65
644.61	554.37
644.95	552.34
645.29	549.80
645.64	547.20
645.98	544.64
646.32	542.32
646.66	540.13
647.01	537.94
647.35	535.79
647.69	533.29
648.04	531.25
648.38	528.86
648.72	526.50
649.06	524.05
649.41	521.58
649.75	519.10
650.09	516.64
650.43	514.12
650.78	511.65
651.12	509.43
651.46	507.13
651.80	504.76
652.14	502.46
652.49	500.35
652.83	498.15
653.17	495.83
653.51	493.46
653.85	491.11
654.20	488.68
654.54	486.28
654.88	484.14
655.22	481.52
655.56	479.26
655.90	476.92
656.25	474.90
656.59	472.60
656.93	470.59
657.27	468.35
657.61	466.15
657.95	464.15
658.29	462.07
658.64	459.91
658.98	457.50
659.32	455.11
659.66	453.02
660.00	450.96
660.34	448.93
660.68	446.89
661.02	444.74
661.36	442.91
661.70	441.03
662.05	439.07
662.39	437.42
662.73	435.54
663.07	433.76
663.41	431.86
663.75	430.06
664.09	428.12
664.43	426.30
664.77	424.72
665.11	423.09
665.45	421.28
665.79	419.50
666.13	417.86
666.47	416.14
666.81	414.21
667.15	412.22
667.49	410.50
667.83	408.85
668.17	407.20
668.51	405.52
668.85	403.71
669.19	402.15
669.53	400.47
669.87	398.71
670.21	397.29
670.55	395.68
670.89	394.27
671.23	392.89
671.57	391.49
671.91	389.92
672.25	388.33
672.58	387.05
672.92	385.56
673.26	384.24
673.60	382.99
673.94	381.75
674.28	380.66
674.62	379.64
674.96	378.29
675.30	377.06
675.64	375.77
675.97	374.60
676.31	373.29
676.65	371.90
676.99	370.74
677.33	369.30
677.67	368.05
678.01	366.65
678.34	365.20
678.68	363.94
679.02	362.68
679.36	361.39
679.70	359.92
680.04	358.76
680.37	357.50
680.71	356.26
681.05	355.18
681.39	353.89
681.73	352.59
682.06	351.52
682.40	350.57
682.74	349.32
683.08	348.13
683.42	346.97
683.75	345.89
684.09	344.75
684.43	343.62
684.77	342.51
685.10	341.41
685.44	340.49
685.78	339.27
686.12	338.28
686.45	337.25
686.79	336.31
687.13	335.33
687.46	334.23
687.80	333.28
688.14	332.10
688.48	331.16
688.81	330.11
689.15	329.04
689.49	328.00
689.82	326.91
690.16	325.91
690.50	324.99
690.83	324.08
691.17	323.09
691.51	322.10
691.84	321.18
692.18	320.20
692.52	319.16
692.85	318.40
693.19	317.53
693.52	316.65
693.86	315.69
694.20	314.67
694.53	313.78
694.87	312.74
695.21	311.83
695.54	310.89
695.88	309.83
696.21	308.79
696.55	307.92
696.88	307.21
697.22	306.43
697.56	305.56
697.89	304.69
698.23	303.95
698.56	303.13
698.90	302.25
699.23	301.37
699.57	300.56
699.90	299.61
700.24	298.74
700.58	297.87
700.91	297.08
701.25	296.52
701.58	295.93
701.92	295.20
702.25	294.42
702.59	293.64
702.92	293.08
703.26	292.50
703.59	291.70
703.93	291.19
704.26	290.47
704.60	289.71
704.93	289.01
705.26	288.30
705.60	287.68
705.93	287.10
706.27	286.65
706.60	286.05
706.94	285.52
707.27	284.84
707.61	284.29
707.94	283.62
708.27	282.88
708.61	282.20
708.94	281.73
709.28	281.32
709.61	280.67
709.94	280.08
710.28	279.43
710.61	278.90
710.95	278.11
711.28	277.76
711.61	277.35
711.95	276.77
712.28	276.14
712.61	275.60
712.95	275.07
713.28	274.48
713.61	273.97
713.95	273.49
714.28	272.97
714.61	272.45
714.95	272.08
715.28	271.60
715.61	271.00
715.95	270.50
716.28	269.91
716.61	269.64
716.95	269.14
717.28	268.87
717.61	268.41
717.94	267.98
718.28	267.37
718.61	266.82
718.94	266.44
719.27	266.05
719.61	265.60
719.94	265.23
720.27	264.87
720.60	264.44
720.94	264.05
721.27	263.74
721.60	263.39
721.93	262.90
722.27	262.53
722.60	262.28
722.93	261.90
723.26	261.54
723.59	261.14
723.93	260.94
724.26	260.53
724.59	260.22
724.92	259.96
725.25	259.62
725.59	259.45
725.92	259.22
726.25	258.91
726.58	258.60
726.91	258.34
727.24	257.99
727.57	257.68
727.91	257.29
728.24	257.00
728.57	256.70
728.90	256.57
729.23	256.30
729.56	256.08
729.89	255.81
730.22	255.54
730.55	255.27
730.89	254.82
731.22	254.57
731.55	254.26
731.88	253.95
732.21	253.78
732.54	253.44
732.87	253.15
733.20	252.93
733.53	252.74
733.86	252.53
734.19	252.35
734.52	252.25
734.85	252.19
735.18	251.93
735.51	251.78
735.84	251.51
736.17	251.34
736.50	251.00
736.83	250.92
737.16	250.80
737.49	250.50
737.82	250.38
738.15	250.19
738.48	249.95
738.81	249.77
739.14	249.57
739.47	249.34
739.80	249.12
740.13	248.89
740.46	248.62
740.79	248.38
741.12	248.18
741.45	247.89
741.78	247.57
742.11	247.41
742.44	247.13
742.77	246.97
743.10	246.64
743.43	246.46
743.75	246.17
744.08	246.16
744.41	246.06
744.74	245.86
745.07	245.62
745.40	245.51
745.73	245.35
746.06	245.04
746.39	244.89
746.71	244.74
747.04	244.57
747.37	244.44
747.70	244.21
748.03	244.02
748.36	243.81
748.68	243.57
749.01	243.42
749.34	243.37
749.67	243.19
750.00	243.08
750.33	243.12
750.65	243.00
750.98	242.63
751.31	242.35
751.64	242.17
751.97	242.08
752.29	241.91
752.62	241.76
752.95	241.70
753.28	241.55
753.60	241.38
753.93	241.25
754.26	241.18
754.59	241.01
754.91	240.83
755.24	240.66
755.57	240.60
755.90	240.43
756.22	240.11
756.55	239.88
756.88	239.70
757.20	239.46
757.53	239.20
757.86	239.05
758.19	239.07
758.51	238.89
758.84	238.72
759.17	238.56
759.49	238.42
759.82	238.37
760.15	238.24
760.47	238.24
760.80	238.17
761.13	237.97
761.45	237.93
761.78	237.77
762.11	237.71
762.43	237.55
762.76	237.38
763.08	237.33
763.41	237.32
763.74	237.23
764.06	237.02
764.39	236.92
764.71	236.82
765.04	236.65
765.37	236.58
765.69	236.52
766.02	236.40
766.34	236.36
766.67	236.18
767.00	236.14
767.32	236.05
767.65	236.06
767.97	236.07
768.30	235.91
768.62	235.93
768.95	235.83
769.27	235.83
769.60	235.90
769.92	235.87
770.25	235.81
770.57	235.81
770.90	235.90
771.22	235.77
771.55	235.63
771.87	235.60
772.20	235.53
772.52	235.68
772.85	235.90
773.17	235.78
773.50	235.70
773.82	235.73
774.15	235.64
774.47	235.51
774.80	235.38
775.12	235.30
775.45	235.23
775.77	235.19
776.09	235.10
776.42	234.94
776.74	234.85
777.07	234.82
777.39	234.75
777.72	234.52
778.04	234.58
778.36	234.70
778.69	234.65
779.01	234.61
779.33	234.24
779.66	234.00
779.98	233.94
780.31	233.91
780.63	233.83
780.95	233.71
781.28	233.67
781.60	233.66
781.92	233.57
782.25	233.51
782.57	233.49
782.89	233.42
783.22	233.38
783.54	233.33
783.86	233.28
784.19	233.14
784.51	233.13
784.83	233.03
785.16	232.89
785.48	232.83
785.80	232.82
786.12	232.86
786.45	232.70
786.77	232.65
787.09	232.61
787.42	232.35
787.74	232.31
788.06	232.30
788.38	232.16
788.71	232.20
789.03	232.19
789.35	232.10
789.67	232.03
789.99	232.11
790.32	232.03
790.64	231.90
790.96	232.05
791.28	232.07
791.61	231.98
791.93	231.93
792.25	231.91
792.57	231.99
792.89	231.87
793.21	231.88
793.54	231.80
793.86	231.84
794.18	231.85
794.50	231.72
794.82	231.68
795.14	231.65
795.47	231.63
795.79	231.54
796.11	231.56
796.43	231.51
796.75	231.39
797.07	231.30
797.39	231.30
797.71	231.19
798.04	231.10
798.36	231.13
798.68	231.06
799.00	230.95
799.32	230.80
799.64	230.84
799.96	230.78
800.28	230.85
800.60	230.69
800.92	230.73
801.24	230.81
801.56	230.74
801.89	230.68
802.21	230.63
802.53	230.63
802.85	230.57
803.17	230.61
803.49	230.53
803.81	230.59
804.13	230.54
804.45	230.44
804.77	230.40
805.09	230.37
805.41	230.23
805.73	230.27
806.05	230.11
806.37	230.14
806.69	230.10
807.01	230.06
807.33	230.07
807.65	230.02
807.97	230.05
808.28	229.93
808.60	229.97
808.92	229.94
809.24	230.06
809.56	230.04
809.88	230.04
810.20	229.97
810.52	230.00
810.84	229.98
811.16	230.00
811.48	230.02
811.80	230.16
812.12	230.26
812.43	230.26
812.75	230.41
813.07	230.34
813.39	230.33
813.71	230.29
814.03	230.28
814.35	230.33
814.67	230.22
814.98	230.29
815.30	230.34
815.62	230.30
815.94	230.07
816.26	230.13
816.58	230.04
816.89	230.17
817.21	230.14
817.53	230.10
817.85	230.11
818.17	230.16
818.48	229.99
818.80	230.00
819.12	229.92
819.44	229.86
819.76	229.87
820.07	229.83
820.39	229.71
820.71	229.71
821.03	229.64
821.34	229.60
821.66	229.57
821.98	229.58
822.30	229.60
822.61	229.76
822.93	229.63
823.25	229.72
823.57	229.71
823.88	229.75
824.20	229.79
824.52	229.81
824.83	229.72
825.15	229.71
825.47	229.70
825.79	229.79
826.10	229.71
826.42	229.66
826.74	229.59
827.05	229.61
827.37	229.67
827.69	229.71
828.00	229.67
828.32	229.70
828.64	229.62
828.95	229.66
829.27	229.63
829.58	229.70
829.90	229.56
830.22	229.57
830.53	229.55
830.85	229.51
831.17	229.38
831.48	229.35
831.80	229.43
832.11	229.41
832.43	229.36
832.75	229.42
833.06	229.52
833.38	229.60
833.69	229.73
834.01	229.65
834.32	229.58
834.64	229.68
834.96	229.62
835.27	229.59
835.59	229.47
835.90	229.32
836.22	229.30
836.53	229.34
836.85	229.38
837.16	229.43
837.48	229.47
837.79	229.50
838.11	229.54
838.42	229.43
838.74	229.47
839.05	229.46
839.37	229.44
839.68	229.26
840.00	229.21
840.31	229.09
840.63	229.03
840.94	229.06
841.26	229.04
841.57	229.12
841.88	229.20
842.20	229.16
842.51	229.14
842.83	229.02
843.14	229.19
843.46	229.00
843.77	228.97
844.08	228.90
844.40	228.89
844.71	228.81
845.03	228.84
845.34	228.86
845.65	228.84
845.97	228.75
846.28	228.83
846.60	228.89
846.91	228.97
847.22	229.01
847.54	228.94
847.85	228.96
848.16	228.88
848.48	228.74
848.79	228.90
849.10	228.98
849.42	229.09
849.73	228.90
850.04	229.02
850.36	228.88
850.67	228.92
850.98	228.97
851.30	229.08
851.61	229.08
851.92	229.01
852.23	229.06
852.55	229.19
852.86	229.13
853.17	229.21
853.49	229.24
853.80	229.35
854.11	229.45
854.42	229.38
854.74	229.38
855.05	229.40
855.36	229.36
855.67	229.36
855.99	229.37
856.30	229.63
856.61	229.62
856.92	229.66
857.23	229.64
857.55	229.67
857.86	229.66
858.17	229.69
858.48	229.70
858.79	229.68
859.11	229.66
859.42	229.72
859.73	229.70
860.04	229.64
860.35	229.54
860.66	229.50
860.98	229.55
861.29	229.56
861.60	229.55
861.91	229.60
862.22	229.62
862.53	229.63
862.84	229.42
863.16	229.35
863.47	229.35
863.78	229.34
864.09	229.14
864.40	229.06
864.71	229.03
865.02	229.09
865.33	228.98
865.64	228.90
865.95	228.86
866.27	229.00
866.58	229.00
866.89	228.99
867.20	228.96
867.51	228.97
867.82	229.02
868.13	229.08
868.44	228.90
868.75	228.90
869.06	228.81
869.37	228.83
869.68	228.84
869.99	228.84
870.30	228.73
870.61	228.96
870.92	228.97
871.23	228.88
871.54	228.83
871.85	228.93
872.16	228.99
872.47	228.95
872.78	228.76
873.09	228.74
873.40	228.71
873.71	228.72
874.02	228.65
874.33	228.56
874.64	228.54
874.95	228.65
875.26	228.50
875.56	228.50
875.87	228.31
876.18	228.22
876.49	228.37
876.80	228.44
877.11	228.37
877.42	228.29
877.73	228.38
878.04	228.36
878.35	228.39
878.66	228.44
878.96	228.37
879.27	228.30
879.58	228.24
879.89	228.23
880.20	228.28
880.51	228.18
880.82	228.12
881.12	228.19
881.43	228.11
881.74	228.12
882.05	228.15
882.36	228.30
882.67	228.27
882.97	228.09
883.28	228.03
883.59	227.93
883.90	227.96
884.21	227.96
884.51	227.90
884.82	227.82
885.13	227.75
885.44	227.92
885.74	228.00
886.05	228.05
886.36	228.10
886.67	227.99
886.98	228.22
887.28	228.34
887.59	228.34
887.90	228.36
888.20	228.36
888.51	228.37
888.82	228.20
889.13	228.38
889.43	228.59
889.74	228.63
890.05	228.66
890.35	228.70
890.66	228.66
890.97	228.75
891.28	228.77
891.58	228.79
891.89	228.77
892.20	228.78
892.50	228.66
892.81	228.59
893.12	228.61
893.42	228.43
893.73	228.50
894.04	228.48
894.34	228.60
894.65	228.71
894.95	228.72
895.26	228.86
895.57	228.90
895.87	228.65
896.18	228.71
896.48	228.82
896.79	228.88
897.10	228.90
897.40	228.93
897.71	228.99
898.01	229.06
898.32	229.10
898.63	229.10
898.93	229.27
899.24	229.42
899.54	229.41
899.85	229.42
900.15	229.33
900.46	229.37
900.76	229.29
901.07	229.23
901.38	229.30
901.68	229.29
901.99	229.19
902.29	229.21
902.60	229.12
902.90	229.10
903.21	229.09
903.51	229.07
903.82	229.00
904.12	228.97
904.43	228.87
904.73	228.86
905.03	228.86
905.34	228.94
905.64	228.86
905.95	228.86
906.25	228.87
906.56	228.87
906.86	228.82
907.17	228.82
907.47	228.84
907.77	228.78
908.08	228.72
908.38	228.81
908.69	228.91
908.99	229.00
909.30	228.85
909.60	228.83
909.90	228.83
910.21	228.83
910.51	228.78
910.81	228.76
911.12	228.75
911.42	228.71
911.73	228.61
912.03	228.60
912.33	228.61
912.64	228.76
912.94	228.73
913.24	228.59
913.55	228.49
913.85	228.40
914.15	228.45
914.46	228.51
914.76	228.42
915.06	228.42
915.37	228.32
915.67	228.46
915.97	228.40
916.27	228.35
916.58	228.29
916.88	228.29
917.18	228.30
917.49	228.38
917.79	228.38
918.09	228.31
918.39	228.35
918.70	228.36
919.00	228.12
919.30	228.22
919.60	228.30
919.91	228.36
920.21	228.45
920.51	228.30
920.81	228.38
921.12	228.45
921.42	228.39
921.72	228.42
922.02	228.39
922.32	228.41
922.63	228.37
922.93	228.56
923.23	228.49
923.53	228.48
923.83	228.35
924.13	228.37
924.44	228.39
924.74	228.38
925.04	228.42
925.34	228.52
925.64	228.35
925.94	228.38
926.24	228.50
926.55	228.44
926.85	228.56
927.15	228.55
927.45	228.45
927.75	228.48
928.05	228.57
928.35	228.65
928.65	228.64
928.95	228.68
929.26	228.57
929.56	228.67
929.86	228.65
930.16	228.64
930.46	228.54
930.76	228.64
931.06	228.60
931.36	228.51
931.66	228.45
931.96	228.49
932.26	228.43
932.56	228.33
932.86	228.40
933.16	228.26
933.46	228.19
933.76	228.25
934.06	228.26
934.36	228.18
934.66	228.07
934.96	228.17
935.26	228.26
935.56	228.19
935.86	228.07
936.16	227.99
936.46	228.04
936.76	228.13
937.06	227.95
937.36	227.98
937.66	228.00
937.96	228.11
938.26	228.18
938.56	228.25
938.86	228.17
939.16	228.07
939.46	228.16
939.76	228.04
940.06	227.92
940.35	227.88
940.65	227.84
940.95	227.87
941.25	227.76
941.55	227.64
941.85	227.70
942.15	227.92
942.45	228.08
942.75	228.07
943.04	228.01
943.34	228.06
943.64	227.99
943.94	228.00
944.24	227.93
944.54	227.90
944.84	227.89
945.13	227.98
945.43	227.99
945.73	228.02
946.03	228.11
946.33	228.22
946.62	228.19
946.92	228.20
947.22	228.22
947.52	228.21
947.82	228.31
948.11	228.33
948.41	228.24
948.71	228.14
949.01	228.13
949.31	228.11
949.60	228.09
949.90	228.13
950.20	228.10
950.50	228.15
950.79	228.05
951.09	228.06
951.39	228.02
951.69	228.00
951.98	228.04
952.28	227.99
952.58	227.96
952.87	227.90
953.17	227.99
953.47	227.89
953.76	227.94
954.06	227.95
954.36	227.90
954.66	227.86
954.95	227.93
955.25	227.94
955.55	227.98
955.84	228.01
956.14	228.10
956.44	227.97
956.73	227.91
957.03	228.00
957.32	228.02
957.62	228.03
957.92	228.11
958.21	228.10
958.51	228.37
958.81	228.39
959.10	228.43
959.40	228.48
959.69	228.46
959.99	228.47
960.29	228.44
960.58	228.39
960.88	228.40
961.17	228.33
961.47	228.21
961.76	228.20
962.06	228.27
962.36	228.15
962.65	228.34
962.95	228.34
963.24	228.39
963.54	228.38
963.83	228.40
964.13	228.31
964.42	228.22
964.72	228.14
965.01	228.13
965.31	228.24
965.60	228.06
965.90	228.16
966.19	228.03
966.49	227.94
966.78	228.00
967.08	227.99
967.37	227.99
967.67	228.01
967.96	228.05
968.26	227.96
968.55	228.08
968.85	227.99
969.14	228.07
969.43	228.04
969.73	228.05
970.02	228.05
970.32	228.13
970.61	228.17
970.91	228.05
971.20	227.96
971.49	227.87
971.79	227.97
972.08	227.97
972.38	228.03
972.67	228.07
972.96	228.11
973.26	228.08
973.55	228.13
973.85	228.20
974.14	228.29
974.43	228.35
974.73	228.37
975.02	228.38
975.31	228.30
975.61	228.36
975.90	228.35
976.19	228.22
976.49	228.20
976.78	228.17
977.07	228.16
977.37	228.15
977.66	228.10
977.95	228.06
978.24	228.01
978.54	227.99
978.83	227.90
979.12	227.88
979.42	227.90
979.71	227.90
980.00	227.85
980.29	227.79
980.59	227.81
980.88	227.83
981.17	227.84
981.46	227.90
981.76	227.77
982.05	227.80
982.34	227.82
982.63	227.83
982.93	227.82
983.22	227.84
983.51	228.01
983.80	228.07
984.09	228.11
984.39	228.13
984.68	228.14
984.97	228.22
985.26	228.21
985.55	228.23
985.85	228.18
986.14	228.23
986.43	228.21
986.72	228.06
987.01	227.94
987.30	227.99
987.59	227.90
987.89	227.85
988.18	227.74
988.47	227.74
988.76	227.70
989.05	227.77
989.34	227.78
989.63	227.80
989.92	227.84
990.22	227.80
990.51	227.60
990.80	227.61
991.09	227.65
991.38	227.65
991.67	227.67
991.96	227.64
992.25	227.57
992.54	227.51
992.83	227.56
993.12	227.54
993.41	227.44
993.70	227.63
993.99	227.76
994.28	227.83
994.58	227.76
994.87	227.71
995.16	227.67
995.45	227.58
995.74	227.49
996.03	227.49
996.32	227.48
996.61	227.67
996.90	227.70
997.19	227.70
997.48	227.80
997.77	227.80
998.06	227.79
998.34	227.83
998.63	227.99
998.92	228.00
999.21	227.99
999.50	228.01
999.79	227.98
1000.08	227.93
1000.37	227.91
1000.66	228.00
1000.95	228.10
1001.24	228.06
1001.53	228.19
1001.82	228.14
1002.11	228.08
1002.40	227.99
1002.68	228.00
1002.97	228.18
1003.26	228.07
1003.55	227.90
1003.84	227.90
1004.13	227.96
1004.42	227.97
1004.71	227.76
1004.99	227.60
1005.28	227.64
1005.57	227.57
1005.86	227.40
1006.15	227.46
1006.44	227.38
1006.72	227.43
1007.01	227.36
1007.30	227.44
1007.59	227.39
1007.88	227.39
1008.17	227.40
1008.45	227.46
1008.74	227.45
1009.03	227.37
1009.32	227.40
1009.60	227.48
1009.89	227.49
1010.18	227.53
1010.47	227.42
1010.76	227.57
1011.04	227.64
1011.33	227.71
1011.62	227.86
1011.91	228.02
1012.19	228.10
1012.48	228.14
1012.77	228.14
1013.05	228.30
1013.34	228.23
1013.63	228.22
1013.92	228.26
1014.20	228.24
1014.49	228.25
1014.78	228.28
1015.06	228.11
1015.35	228.17
1015.64	228.13
1015.92	227.99
1016.21	227.94
1016.50	228.00
1016.78	227.97
1017.07	228.09
1017.36	228.06
1017.64	228.04
1017.93	227.97
1018.22	227.72
1018.50	227.73
1018.79	227.70
1019.08	227.56
1019.36	227.54
1019.65	227.47
1019.93	227.49
1020.22	227.48
1020.51	227.62
1020.79	227.59
1021.08	225.30
1021.36	227.20
1021.65	227.70
1021.94	227.60
1022.22	226.90
1022.51	226.30
1022.79	228.80
1023.08	227.30
1023.36	230.00
1023.65	227.80
>>>>>End Processed Spectral Data<<<<<
