SpectraSuite Data File
++++++++++++++++++++++++++++++++++++
Date: Fri Feb 01 14:33:47 EST 2013
User: group
Dark Spectrum Present: No
Reference Spectrum Present: No
Number of Sampled Component Spectra: 1
Spectrometers: USB2E7196
Integration Time (usec): 70000 (USB2E7196)
Spectra Averaged: 10 (USB2E7196)
Boxcar Smoothing: 10 (USB2E7196)
Correct for Electrical Dark: No (USB2E7196)
Strobe/Lamp Enabled: No (USB2E7196)
Correct for Detector Non-linearity: No (USB2E7196)
Correct for Stray Light: No (USB2E7196)
Number of Pixels in Processed Spectrum: 2048
>>>>>Begin Processed Spectral Data<<<<<
339.09	0.00
339.48	218.60
339.86	219.30
340.24	219.90
340.63	220.70
341.01	225.80
341.39	224.20
341.78	224.30
342.16	226.30
342.54	225.00
342.93	215.43
343.31	226.29
343.69	226.71
344.07	227.07
344.46	227.53
344.84	227.95
345.22	228.10
345.60	228.31
345.99	228.50
346.37	228.60
346.75	228.79
347.13	228.81
347.52	228.83
347.90	228.96
348.28	228.99
348.66	229.09
349.05	228.99
349.43	228.94
349.81	228.95
350.19	229.02
350.57	229.24
350.96	229.27
351.34	229.35
351.72	229.50
352.10	229.66
352.48	229.64
352.87	229.65
353.25	229.67
353.63	229.77
354.01	229.84
354.39	229.94
354.77	230.02
355.15	230.10
355.54	229.96
355.92	230.02
356.30	229.99
356.68	230.15
357.06	230.16
357.44	230.23
357.82	230.23
358.20	230.31
358.58	230.26
358.97	230.21
359.35	230.30
359.73	230.38
360.11	230.30
360.49	230.31
360.87	230.26
361.25	230.33
361.63	230.44
362.01	230.50
362.39	230.48
362.77	230.59
363.15	230.59
363.53	230.75
363.91	230.78
364.29	230.82
364.67	230.71
365.05	230.63
365.43	230.64
365.81	230.63
366.19	230.67
366.57	230.80
366.95	230.83
367.33	230.82
367.71	230.74
368.09	230.90
368.47	230.86
368.85	230.91
369.23	230.80
369.61	230.70
369.99	230.71
370.37	230.67
370.75	230.59
371.13	230.42
371.51	230.30
371.89	230.24
372.27	230.13
372.65	230.04
373.03	230.12
373.41	230.00
373.78	229.96
374.16	229.85
374.54	229.64
374.92	229.67
375.30	229.60
375.68	229.42
376.06	229.27
376.44	229.28
376.82	229.17
377.19	229.20
377.57	229.10
377.95	228.96
378.33	228.95
378.71	228.85
379.09	229.02
379.47	228.90
379.84	228.75
380.22	228.69
380.60	228.68
380.98	228.57
381.36	228.46
381.73	228.46
382.11	228.40
382.49	228.30
382.87	228.22
383.25	228.11
383.62	228.31
384.00	228.21
384.38	228.11
384.76	228.04
385.13	228.05
385.51	227.92
385.89	227.97
386.27	227.92
386.64	227.82
387.02	227.62
387.40	227.53
387.78	227.63
388.15	227.62
388.53	227.54
388.91	227.48
389.29	227.53
389.66	227.47
390.04	227.46
390.42	227.61
390.79	227.63
391.17	227.64
391.55	227.51
391.92	227.64
392.30	227.71
392.68	227.83
393.05	227.79
393.43	227.95
393.81	227.89
394.18	227.84
394.56	227.93
394.94	228.10
395.31	228.22
395.69	228.37
396.06	228.42
396.44	228.53
396.82	228.74
397.19	228.82
397.57	228.93
397.95	229.13
398.32	229.10
398.70	229.17
399.07	229.34
399.45	229.45
399.82	229.51
400.20	229.64
400.58	229.79
400.95	229.87
401.33	230.00
401.70	230.32
402.08	230.67
402.45	230.79
402.83	231.13
403.20	231.50
403.58	231.62
403.95	232.00
404.33	232.34
404.71	232.45
405.08	232.96
405.46	233.33
405.83	233.67
406.21	234.10
406.58	234.44
406.96	234.98
407.33	235.58
407.70	236.19
408.08	236.90
408.45	237.52
408.83	238.27
409.20	238.91
409.58	239.60
409.95	240.38
410.33	241.29
410.70	242.00
411.08	242.91
411.45	243.91
411.82	244.88
412.20	245.99
412.57	247.40
412.95	248.59
413.32	249.91
413.69	251.29
414.07	252.76
414.44	254.45
414.82	256.03
415.19	257.74
415.56	259.61
415.94	261.52
416.31	263.91
416.68	266.23
417.06	268.77
417.43	271.11
417.81	273.85
418.18	276.58
418.55	279.68
418.93	282.84
419.30	286.05
419.67	289.49
420.04	293.03
420.42	296.92
420.79	301.21
421.16	305.54
421.54	310.03
421.91	314.60
422.28	319.44
422.66	324.68
423.03	329.72
423.40	334.88
423.77	340.50
424.15	345.84
424.52	351.80
424.89	358.06
425.26	364.25
425.64	370.07
426.01	376.71
426.38	383.37
426.75	389.93
427.13	397.01
427.50	404.37
427.87	412.03
428.24	419.52
428.61	426.69
428.99	434.73
429.36	443.50
429.73	452.16
430.10	460.54
430.47	469.12
430.85	478.00
431.22	487.28
431.59	497.15
431.96	506.67
432.33	517.00
432.70	527.43
433.08	539.47
433.45	550.80
433.82	562.04
434.19	574.56
434.56	587.04
434.93	598.85
435.30	610.68
435.68	623.54
436.05	636.30
436.42	649.07
436.79	660.72
437.16	673.21
437.53	686.25
437.90	699.20
438.27	711.78
438.64	725.17
439.01	737.60
439.38	748.71
439.75	759.60
440.13	771.87
440.50	783.60
440.87	793.42
441.24	803.58
441.61	814.76
441.98	822.99
442.35	832.53
442.72	842.39
443.09	852.10
443.46	858.31
443.83	862.64
444.20	866.66
444.57	872.30
444.94	875.47
445.31	879.08
445.68	882.23
446.05	884.76
446.42	885.07
446.79	885.27
447.16	885.12
447.53	885.64
447.90	882.38
448.27	878.90
448.64	873.49
449.01	870.24
449.37	862.87
449.74	855.97
450.11	847.30
450.48	837.84
450.85	827.84
451.22	819.79
451.59	812.18
451.96	804.61
452.33	793.97
452.70	784.67
453.07	772.93
453.43	761.55
453.80	750.12
454.17	738.89
454.54	728.37
454.91	716.92
455.28	705.62
455.65	695.19
456.02	684.31
456.38	675.42
456.75	663.93
457.12	654.58
457.49	645.14
457.86	636.11
458.23	628.26
458.59	619.50
458.96	610.53
459.33	602.59
459.70	594.83
460.07	588.61
460.43	580.97
460.80	573.86
461.17	567.67
461.54	561.19
461.91	555.20
462.27	548.94
462.64	543.65
463.01	537.74
463.38	532.12
463.74	526.92
464.11	521.91
464.48	517.52
464.85	512.55
465.21	508.87
465.58	504.95
465.95	500.05
466.32	496.17
466.68	492.07
467.05	488.20
467.42	484.34
467.78	480.00
468.15	475.98
468.52	473.11
468.88	469.27
469.25	465.94
469.62	463.25
469.98	460.23
470.35	457.47
470.72	454.73
471.08	452.00
471.45	449.44
471.82	446.68
472.18	443.76
472.55	441.83
472.92	439.51
473.28	437.54
473.65	435.68
474.02	433.60
474.38	432.00
474.75	430.54
475.11	428.81
475.48	427.70
475.85	426.80
476.21	425.70
476.58	424.73
476.94	423.97
477.31	423.13
477.67	422.43
478.04	421.76
478.41	421.42
478.77	421.05
479.14	420.43
479.50	420.24
479.87	420.25
480.23	420.34
480.60	420.29
480.96	420.06
481.33	420.30
481.69	420.85
482.06	421.06
482.42	421.10
482.79	421.58
483.15	422.17
483.52	423.05
483.88	423.84
484.25	424.70
484.61	425.57
484.98	426.39
485.34	427.63
485.71	429.02
486.07	430.49
486.44	431.90
486.80	433.57
487.17	435.27
487.53	437.29
487.90	439.44
488.26	441.56
488.62	444.00
488.99	446.18
489.35	448.43
489.72	451.22
490.08	454.13
490.44	456.95
490.81	459.72
491.17	462.69
491.54	466.03
491.90	469.25
492.26	472.67
492.63	476.22
492.99	479.88
493.36	483.65
493.72	487.52
494.08	491.35
494.45	495.66
494.81	500.10
495.17	504.33
495.54	508.53
495.90	513.13
496.26	517.71
496.63	522.69
496.99	527.62
497.35	532.58
497.72	537.56
498.08	542.97
498.44	548.41
498.80	554.03
499.17	559.49
499.53	565.18
499.89	570.81
500.26	576.49
500.62	582.20
500.98	588.17
501.34	594.14
501.71	600.34
502.07	606.46
502.43	612.49
502.79	618.44
503.16	624.61
503.52	630.74
503.88	636.93
504.24	643.16
504.60	649.49
504.97	656.00
505.33	662.57
505.69	668.99
506.05	675.94
506.41	682.08
506.78	688.33
507.14	694.51
507.50	701.02
507.86	707.37
508.22	713.79
508.59	719.84
508.95	726.10
509.31	732.18
509.67	738.35
510.03	744.48
510.39	750.75
510.75	756.89
511.12	763.10
511.48	769.40
511.84	775.39
512.20	781.21
512.56	787.08
512.92	792.88
513.28	798.54
513.64	803.42
514.00	808.75
514.37	814.29
514.73	819.75
515.09	824.75
515.45	829.79
515.81	834.74
516.17	839.86
516.53	844.66
516.89	849.48
517.25	854.00
517.61	858.63
517.97	863.32
518.33	867.57
518.69	871.61
519.05	875.60
519.41	879.64
519.77	883.89
520.13	887.95
520.49	891.73
520.85	895.33
521.21	899.47
521.57	903.55
521.93	907.12
522.29	911.01
522.65	914.78
523.01	918.38
523.37	921.58
523.73	924.95
524.09	928.28
524.45	931.57
524.81	935.01
525.17	938.62
525.53	942.09
525.89	945.51
526.25	949.33
526.61	952.32
526.97	955.48
527.33	958.42
527.68	961.51
528.04	964.54
528.40	967.63
528.76	970.67
529.12	973.96
529.48	977.10
529.84	979.75
530.20	983.11
530.56	986.51
530.91	989.98
531.27	993.31
531.63	996.19
531.99	999.36
532.35	1002.26
532.71	1004.53
533.07	1007.42
533.42	1010.13
533.78	1012.40
534.14	1015.33
534.50	1017.65
534.86	1020.49
535.21	1022.63
535.57	1025.60
535.93	1028.32
536.29	1030.87
536.65	1033.27
537.00	1035.39
537.36	1038.11
537.72	1040.12
538.08	1042.34
538.44	1044.51
538.79	1046.61
539.15	1048.83
539.51	1050.87
539.87	1053.38
540.22	1055.91
540.58	1058.47
540.94	1061.07
541.29	1063.52
541.65	1065.95
542.01	1068.76
542.37	1071.08
542.72	1073.87
543.08	1075.76
543.44	1078.09
543.79	1080.05
544.15	1082.19
544.51	1085.24
544.87	1087.68
545.22	1089.94
545.58	1092.08
545.94	1094.32
546.29	1096.25
546.65	1098.37
547.01	1100.30
547.36	1101.91
547.72	1103.84
548.07	1105.42
548.43	1106.94
548.79	1108.75
549.14	1110.10
549.50	1111.54
549.86	1113.20
550.21	1114.55
550.57	1116.40
550.92	1117.97
551.28	1119.30
551.64	1120.93
551.99	1122.26
552.35	1123.39
552.70	1124.92
553.06	1126.71
553.41	1128.14
553.77	1129.75
554.13	1131.64
554.48	1133.38
554.84	1134.89
555.19	1136.50
555.55	1137.64
555.90	1138.91
556.26	1140.08
556.61	1141.59
556.97	1142.87
557.32	1144.33
557.68	1145.88
558.03	1147.11
558.39	1148.24
558.74	1150.12
559.10	1151.03
559.45	1151.81
559.81	1153.66
560.16	1154.68
560.52	1155.58
560.87	1156.63
561.23	1157.65
561.58	1158.49
561.94	1159.50
562.29	1160.49
562.64	1161.20
563.00	1162.25
563.35	1163.58
563.71	1165.09
564.06	1166.27
564.42	1167.68
564.77	1168.50
565.12	1169.60
565.48	1171.08
565.83	1171.57
566.19	1172.50
566.54	1173.49
566.89	1174.54
567.25	1174.83
567.60	1175.72
567.96	1176.41
568.31	1177.25
568.66	1177.93
569.02	1178.02
569.37	1178.63
569.72	1178.85
570.08	1178.96
570.43	1179.23
570.78	1179.26
571.14	1178.86
571.49	1178.87
571.84	1179.27
572.20	1179.17
572.55	1178.63
572.90	1177.34
573.26	1177.65
573.61	1176.80
573.96	1176.22
574.31	1175.13
574.67	1173.74
575.02	1172.58
575.37	1171.66
575.72	1169.66
576.08	1168.45
576.43	1167.57
576.78	1166.30
577.13	1165.51
577.49	1164.64
577.84	1163.61
578.19	1162.50
578.54	1161.18
578.90	1159.60
579.25	1157.21
579.60	1155.52
579.95	1153.65
580.30	1152.26
580.66	1150.10
581.01	1148.17
581.36	1146.22
581.71	1144.59
582.06	1143.17
582.42	1141.07
582.77	1138.96
583.12	1137.70
583.47	1135.84
583.82	1133.78
584.17	1131.13
584.53	1129.02
584.88	1126.62
585.23	1124.25
585.58	1121.73
585.93	1119.77
586.28	1117.79
586.63	1115.55
586.98	1113.32
587.34	1111.09
587.69	1108.74
588.04	1106.59
588.39	1104.46
588.74	1101.83
589.09	1098.92
589.44	1096.14
589.79	1094.20
590.14	1091.70
590.49	1089.07
590.84	1086.36
591.19	1083.85
591.54	1081.22
591.89	1077.61
592.25	1075.13
592.60	1071.80
592.95	1068.76
593.30	1065.26
593.65	1062.20
594.00	1059.20
594.35	1056.47
594.70	1053.30
595.05	1050.21
595.40	1046.79
595.75	1043.22
596.10	1040.21
596.45	1037.53
596.80	1034.84
597.15	1031.44
597.50	1028.11
597.85	1025.30
598.19	1022.27
598.54	1019.49
598.89	1016.89
599.24	1014.68
599.59	1011.50
599.94	1008.43
600.29	1005.51
600.64	1002.41
600.99	998.42
601.34	995.09
601.69	991.42
602.04	988.14
602.39	984.82
602.74	981.96
603.08	979.23
603.43	976.54
603.78	973.11
604.13	969.70
604.48	966.49
604.83	963.46
605.18	959.97
605.53	956.17
605.87	952.17
606.22	948.50
606.57	944.70
606.92	941.41
607.27	938.19
607.62	934.74
607.96	931.71
608.31	928.69
608.66	925.38
609.01	921.37
609.36	917.83
609.70	913.90
610.05	909.92
610.40	906.34
610.75	902.08
611.10	898.31
611.44	894.16
611.79	890.54
612.14	886.23
612.49	881.82
612.83	877.94
613.18	874.01
613.53	870.16
613.88	866.12
614.22	861.75
614.57	857.69
614.92	853.70
615.27	849.42
615.61	845.44
615.96	841.67
616.31	838.47
616.65	835.00
617.00	831.54
617.35	828.02
617.70	823.98
618.04	820.04
618.39	816.35
618.74	812.81
619.08	808.72
619.43	805.35
619.78	802.03
620.12	798.73
620.47	795.28
620.82	791.25
621.16	787.68
621.51	784.37
621.85	781.02
622.20	777.41
622.55	774.40
622.89	771.20
623.24	767.76
623.59	764.44
623.93	760.96
624.28	757.59
624.62	754.23
624.97	751.09
625.32	747.95
625.66	744.75
626.01	741.50
626.35	738.11
626.70	734.79
627.04	731.60
627.39	728.05
627.73	724.79
628.08	721.88
628.43	718.49
628.77	715.15
629.12	711.69
629.46	708.38
629.81	704.60
630.15	701.13
630.50	697.39
630.84	693.48
631.19	689.75
631.53	686.20
631.88	682.54
632.22	678.73
632.57	675.52
632.91	671.95
633.26	668.62
633.60	665.24
633.95	661.92
634.29	658.54
634.64	655.50
634.98	652.29
635.32	649.27
635.67	646.53
636.01	643.45
636.36	640.24
636.70	637.35
637.05	634.47
637.39	631.55
637.73	628.97
638.08	626.54
638.42	623.96
638.77	621.32
639.11	618.64
639.45	616.10
639.80	613.18
640.14	610.49
640.49	607.69
640.83	605.16
641.17	602.55
641.52	599.88
641.86	597.06
642.20	594.35
642.55	591.44
642.89	588.67
643.23	585.92
643.58	583.75
643.92	580.87
644.26	578.00
644.61	575.22
644.95	572.54
645.29	569.26
645.64	566.39
645.98	563.70
646.32	560.99
646.66	558.08
647.01	555.49
647.35	552.93
647.69	550.42
648.04	547.81
648.38	545.06
648.72	542.00
649.06	539.11
649.41	536.41
649.75	533.75
650.09	530.87
650.43	528.22
650.78	525.14
651.12	522.40
651.46	519.96
651.80	517.53
652.14	514.82
652.49	512.68
652.83	510.34
653.17	507.66
653.51	504.94
653.85	502.55
654.20	499.89
654.54	497.31
654.88	494.65
655.22	491.90
655.56	489.33
655.90	487.03
656.25	484.87
656.59	482.46
656.93	480.25
657.27	477.89
657.61	475.44
657.95	473.35
658.29	471.13
658.64	468.78
658.98	466.32
659.32	463.97
659.66	461.64
660.00	459.16
660.34	456.90
660.68	454.84
661.02	452.43
661.36	450.27
661.70	448.10
662.05	445.98
662.39	444.17
662.73	442.27
663.07	440.58
663.41	438.49
663.75	436.58
664.09	434.44
664.43	432.46
664.77	430.68
665.11	428.67
665.45	426.76
665.79	424.81
666.13	422.98
666.47	421.18
666.81	419.33
667.15	417.30
667.49	415.58
667.83	413.83
668.17	412.29
668.51	410.54
668.85	408.73
669.19	407.13
669.53	405.38
669.87	403.50
670.21	401.80
670.55	400.36
670.89	398.95
671.23	397.53
671.57	396.07
671.91	394.53
672.25	392.91
672.58	391.51
672.92	390.33
673.26	388.95
673.60	387.67
673.94	386.28
674.28	385.31
674.62	384.18
674.96	382.77
675.30	381.41
675.64	380.08
675.97	378.80
676.31	377.44
676.65	376.11
676.99	375.04
677.33	373.49
677.67	372.02
678.01	370.46
678.34	369.12
678.68	367.80
679.02	366.41
679.36	365.25
679.70	363.87
680.04	362.41
680.37	361.07
680.71	359.71
681.05	358.56
681.39	357.30
681.73	355.84
682.06	354.70
682.40	353.42
682.74	352.28
683.08	351.18
683.42	349.82
683.75	348.63
684.09	347.34
684.43	346.26
684.77	345.13
685.10	344.13
685.44	342.83
685.78	341.68
686.12	340.53
686.45	339.34
686.79	338.26
687.13	337.13
687.46	336.04
687.80	334.97
688.14	333.79
688.48	332.58
688.81	331.58
689.15	330.42
689.49	329.35
689.82	328.39
690.16	327.29
690.50	326.49
690.83	325.50
691.17	324.43
691.51	323.35
691.84	322.52
692.18	321.38
692.52	320.43
692.85	319.54
693.19	318.62
693.52	317.54
693.86	316.58
694.20	315.60
694.53	314.57
694.87	313.60
695.21	312.61
695.54	311.65
695.88	310.64
696.21	309.70
696.55	308.83
696.88	307.79
697.22	306.88
697.56	306.01
697.89	305.17
698.23	304.27
698.56	303.52
698.90	302.50
699.23	301.64
699.57	300.83
699.90	299.93
700.24	299.09
700.58	298.35
700.91	297.57
701.25	296.93
701.58	296.41
701.92	295.70
702.25	294.91
702.59	294.34
702.92	293.76
703.26	293.04
703.59	292.37
703.93	291.92
704.26	291.27
704.60	290.44
704.93	289.75
705.26	289.08
705.60	288.50
705.93	287.90
706.27	287.41
706.60	286.80
706.94	286.28
707.27	285.71
707.61	285.10
707.94	284.55
708.27	283.87
708.61	283.14
708.94	282.54
709.28	282.09
709.61	281.43
709.94	280.91
710.28	280.50
710.61	279.89
710.95	279.14
711.28	278.72
711.61	278.28
711.95	277.61
712.28	277.07
712.61	276.39
712.95	276.01
713.28	275.52
713.61	275.08
713.95	274.52
714.28	273.95
714.61	273.61
714.95	273.12
715.28	272.54
715.61	272.00
715.95	271.61
716.28	271.16
716.61	270.73
716.95	270.10
717.28	269.60
717.61	269.24
717.94	268.85
718.28	268.35
718.61	267.85
718.94	267.52
719.27	267.22
719.61	267.10
719.94	266.66
720.27	266.20
720.60	265.70
720.94	265.37
721.27	265.04
721.60	264.64
721.93	264.25
722.27	263.98
722.60	263.77
722.93	263.43
723.26	262.97
723.59	262.58
723.93	262.41
724.26	262.09
724.59	261.68
724.92	261.27
725.25	260.97
725.59	260.74
725.92	260.57
726.25	260.24
726.58	259.82
726.91	259.49
727.24	259.24
727.57	259.03
727.91	258.71
728.24	258.45
728.57	258.11
728.90	257.76
729.23	257.45
729.56	257.28
729.89	256.84
730.22	256.69
730.55	256.45
730.89	256.19
731.22	255.89
731.55	255.74
731.88	255.48
732.21	255.16
732.54	254.85
732.87	254.36
733.20	254.08
733.53	253.80
733.86	253.52
734.19	253.19
734.52	252.97
734.85	252.92
735.18	252.69
735.51	252.48
735.84	252.32
736.17	252.10
736.50	251.65
736.83	251.81
737.16	251.47
737.49	251.25
737.82	250.91
738.15	250.70
738.48	250.32
738.81	250.13
739.14	249.97
739.47	249.67
739.80	249.59
740.13	249.30
740.46	249.11
740.79	248.80
741.12	248.56
741.45	248.26
741.78	247.87
742.11	247.68
742.44	247.40
742.77	247.20
743.10	246.92
743.43	246.74
743.75	246.20
744.08	246.29
744.41	246.03
744.74	245.89
745.07	245.64
745.40	245.54
745.73	245.35
746.06	245.14
746.39	245.06
746.71	244.85
747.04	244.71
747.37	244.40
747.70	244.23
748.03	243.99
748.36	243.80
748.68	243.59
749.01	243.39
749.34	243.31
749.67	243.17
750.00	243.09
750.33	243.08
750.65	242.90
750.98	242.50
751.31	242.45
751.64	242.22
751.97	242.23
752.29	242.10
752.62	241.98
752.95	241.71
753.28	241.58
753.60	241.39
753.93	241.29
754.26	241.22
754.59	241.08
754.91	241.07
755.24	241.00
755.57	240.84
755.90	240.75
756.22	240.61
756.55	240.39
756.88	240.37
757.20	240.09
757.53	239.99
757.86	239.87
758.19	239.75
758.51	239.67
758.84	239.43
759.17	239.29
759.49	239.10
759.82	239.12
760.15	238.99
760.47	238.90
760.80	238.80
761.13	238.67
761.45	238.62
761.78	238.52
762.11	238.37
762.43	238.30
762.76	238.13
763.08	238.01
763.41	237.96
763.74	237.76
764.06	237.68
764.39	237.53
764.71	237.43
765.04	237.24
765.37	237.15
765.69	236.98
766.02	236.93
766.34	236.83
766.67	236.69
767.00	236.61
767.32	236.61
767.65	236.65
767.97	236.55
768.30	236.49
768.62	236.43
768.95	236.35
769.27	236.28
769.60	236.27
769.92	236.20
770.25	236.10
770.57	235.97
770.90	235.91
771.22	235.86
771.55	235.79
771.87	235.79
772.20	235.55
772.52	235.78
772.85	235.80
773.17	235.84
773.50	235.71
773.82	235.76
774.15	235.59
774.47	235.42
774.80	235.30
775.12	235.12
775.45	234.97
775.77	234.90
776.09	234.86
776.42	234.72
776.74	234.66
777.07	234.52
777.39	234.47
777.72	234.40
778.04	234.25
778.36	234.11
778.69	233.98
779.01	234.07
779.33	233.72
779.66	233.59
779.98	233.52
780.31	233.61
780.63	233.50
780.95	233.48
781.28	233.43
781.60	233.41
781.92	233.52
782.25	233.48
782.57	233.44
782.89	233.28
783.22	233.23
783.54	233.07
783.86	233.09
784.19	233.06
784.51	232.94
784.83	232.95
785.16	233.03
785.48	232.95
785.80	232.90
786.12	233.01
786.45	232.98
786.77	232.89
787.09	232.82
787.42	232.70
787.74	232.61
788.06	232.49
788.38	232.50
788.71	232.41
789.03	232.39
789.35	232.41
789.67	232.41
789.99	232.36
790.32	232.41
790.64	232.42
790.96	232.57
791.28	232.53
791.61	232.51
791.93	232.46
792.25	232.46
792.57	232.60
792.89	232.41
793.21	232.41
793.54	232.33
793.86	232.20
794.18	232.21
794.50	232.23
794.82	232.25
795.14	232.17
795.47	232.05
795.79	232.00
796.11	231.83
796.43	231.86
796.75	231.93
797.07	231.91
797.39	231.85
797.71	231.64
798.04	231.74
798.36	231.81
798.68	231.79
799.00	231.75
799.32	231.58
799.64	231.65
799.96	231.50
800.28	231.57
800.60	231.48
800.92	231.45
801.24	231.35
801.56	231.30
801.89	231.33
802.21	231.40
802.53	231.32
802.85	231.48
803.17	231.61
803.49	231.46
803.81	231.34
804.13	231.23
804.45	231.26
804.77	231.15
805.09	230.97
805.41	230.88
805.73	230.85
806.05	230.73
806.37	230.65
806.69	230.61
807.01	230.49
807.33	230.52
807.65	230.40
807.97	230.50
808.28	230.37
808.60	230.25
808.92	230.12
809.24	230.22
809.56	230.02
809.88	229.80
810.20	229.73
810.52	229.79
810.84	229.80
811.16	229.71
811.48	229.71
811.80	229.81
812.12	229.75
812.43	229.84
812.75	229.85
813.07	229.82
813.39	229.94
813.71	229.97
814.03	229.89
814.35	229.91
814.67	229.80
814.98	229.92
815.30	229.90
815.62	229.91
815.94	229.76
816.26	229.90
816.58	229.82
816.89	229.82
817.21	229.82
817.53	229.83
817.85	230.00
818.17	230.05
818.48	230.06
818.80	230.15
819.12	230.12
819.44	230.14
819.76	230.09
820.07	230.06
820.39	230.06
820.71	230.12
821.03	230.10
821.34	230.17
821.66	230.12
821.98	230.14
822.30	230.19
822.61	230.42
822.93	230.39
823.25	230.47
823.57	230.55
823.88	230.53
824.20	230.50
824.52	230.40
824.83	230.31
825.15	230.25
825.47	230.27
825.79	230.31
826.10	230.30
826.42	230.31
826.74	230.29
827.05	230.30
827.37	230.34
827.69	230.39
828.00	230.37
828.32	230.39
828.64	230.37
828.95	230.46
829.27	230.35
829.58	230.25
829.90	230.26
830.22	230.32
830.53	230.22
830.85	230.30
831.17	230.24
831.48	230.19
831.80	230.09
832.11	230.05
832.43	230.00
832.75	230.05
833.06	230.26
833.38	230.14
833.69	230.04
834.01	230.00
834.32	229.95
834.64	229.97
834.96	229.94
835.27	229.96
835.59	229.88
835.90	229.81
836.22	229.86
836.53	229.80
836.85	229.74
837.16	230.04
837.48	229.98
837.79	229.87
838.11	229.95
838.42	230.07
838.74	230.12
839.05	230.04
839.37	229.94
839.68	229.67
840.00	229.74
840.31	229.85
840.63	229.78
840.94	229.72
841.26	229.60
841.57	229.62
841.88	229.62
842.20	229.51
842.51	229.49
842.83	229.39
843.14	229.54
843.46	229.50
843.77	229.40
844.08	229.37
844.40	229.39
844.71	229.23
845.03	229.16
845.34	229.01
845.65	228.98
845.97	229.00
846.28	229.04
846.60	228.95
846.91	228.77
847.22	228.79
847.54	228.83
847.85	228.79
848.16	228.73
848.48	228.64
848.79	228.67
849.10	228.60
849.42	228.69
849.73	228.54
850.04	228.46
850.36	228.33
850.67	228.30
850.98	228.30
851.30	228.37
851.61	228.26
851.92	228.30
852.23	228.36
852.55	228.32
852.86	228.34
853.17	228.40
853.49	228.51
853.80	228.52
854.11	228.53
854.42	228.55
854.74	228.53
855.05	228.59
855.36	228.49
855.67	228.58
855.99	228.58
856.30	228.80
856.61	228.89
856.92	228.87
857.23	228.94
857.55	228.91
857.86	228.92
858.17	228.99
858.48	228.95
858.79	228.97
859.11	229.10
859.42	229.20
859.73	229.16
860.04	229.13
860.35	229.12
860.66	229.17
860.98	229.29
861.29	229.32
861.60	229.30
861.91	229.44
862.22	229.48
862.53	229.47
862.84	229.16
863.16	229.30
863.47	229.27
863.78	229.33
864.09	229.49
864.40	229.54
864.71	229.53
865.02	229.62
865.33	229.62
865.64	229.52
865.95	229.56
866.27	229.71
866.58	229.83
866.89	229.86
867.20	229.80
867.51	229.68
867.82	229.67
868.13	229.73
868.44	229.74
868.75	229.77
869.06	229.75
869.37	229.81
869.68	229.73
869.99	229.84
870.30	229.78
870.61	229.75
870.92	229.82
871.23	229.99
871.54	230.04
871.85	230.02
872.16	230.02
872.47	229.96
872.78	229.86
873.09	229.76
873.40	229.78
873.71	229.82
874.02	229.82
874.33	229.91
874.64	229.91
874.95	229.95
875.26	229.95
875.56	229.95
875.87	230.00
876.18	229.90
876.49	230.11
876.80	230.03
877.11	229.95
877.42	229.88
877.73	229.79
878.04	229.69
878.35	229.70
878.66	229.70
878.96	229.66
879.27	229.57
879.58	229.59
879.89	229.55
880.20	229.60
880.51	229.56
880.82	229.45
881.12	229.43
881.43	229.28
881.74	229.12
882.05	229.02
882.36	229.00
882.67	228.99
882.97	228.68
883.28	228.74
883.59	228.75
883.90	228.65
884.21	228.58
884.51	228.55
884.82	228.53
885.13	228.55
885.44	228.40
885.74	228.41
886.05	228.33
886.36	228.24
886.67	228.06
886.98	228.15
887.28	228.11
887.59	228.03
887.90	227.94
888.20	227.87
888.51	227.93
888.82	227.76
889.13	227.83
889.43	227.97
889.74	227.88
890.05	227.80
890.35	227.79
890.66	227.72
890.97	227.67
891.28	227.57
891.58	227.54
891.89	227.57
892.20	227.55
892.50	227.58
892.81	227.61
893.12	227.63
893.42	227.57
893.73	227.61
894.04	227.67
894.34	227.71
894.65	227.80
894.95	227.70
895.26	227.74
895.57	227.80
895.87	227.63
896.18	227.68
896.48	227.76
896.79	227.75
897.10	227.89
897.40	227.92
897.71	228.05
898.01	228.00
898.32	228.18
898.63	228.17
898.93	228.22
899.24	228.33
899.54	228.38
899.85	228.36
900.15	228.36
900.46	228.38
900.76	228.57
901.07	228.55
901.38	228.61
901.68	228.74
901.99	228.64
902.29	228.69
902.60	228.75
902.90	228.76
903.21	228.81
903.51	228.84
903.82	228.92
904.12	228.90
904.43	229.03
904.73	229.01
905.03	229.08
905.34	229.25
905.64	229.15
905.95	229.17
906.25	229.25
906.56	229.28
906.86	229.29
907.17	229.19
907.47	229.17
907.77	229.25
908.08	229.17
908.38	229.18
908.69	229.14
908.99	229.18
909.30	229.17
909.60	229.17
909.90	229.26
910.21	229.19
910.51	229.17
910.81	229.13
911.12	229.14
911.42	229.18
911.73	229.08
912.03	229.20
912.33	229.30
912.64	229.24
912.94	229.18
913.24	229.10
913.55	229.10
913.85	229.24
914.15	229.23
914.46	229.35
914.76	229.31
915.06	229.35
915.37	229.26
915.67	229.22
915.97	229.32
916.27	229.17
916.58	229.17
916.88	229.18
917.18	229.17
917.49	229.19
917.79	229.07
918.09	229.08
918.39	229.03
918.70	229.00
919.00	229.08
919.30	229.14
919.60	229.20
919.91	229.17
920.21	229.07
920.51	229.02
920.81	228.89
921.12	228.91
921.42	228.93
921.72	228.84
922.02	228.87
922.32	228.71
922.63	228.70
922.93	228.74
923.23	228.71
923.53	228.68
923.83	228.48
924.13	228.59
924.44	228.56
924.74	228.61
925.04	228.59
925.34	228.57
925.64	228.38
925.94	228.43
926.24	228.50
926.55	228.49
926.85	228.50
927.15	228.48
927.45	228.38
927.75	228.29
928.05	228.31
928.35	228.24
928.65	228.28
928.95	228.32
929.26	228.24
929.56	228.27
929.86	228.18
930.16	228.12
930.46	228.10
930.76	227.92
931.06	227.82
931.36	227.79
931.66	227.78
931.96	227.89
932.26	227.89
932.56	227.76
932.86	227.69
933.16	227.60
933.46	227.61
933.76	227.69
934.06	227.78
934.36	227.84
934.66	227.83
934.96	227.87
935.26	227.81
935.56	227.81
935.86	227.78
936.16	227.85
936.46	227.91
936.76	227.90
937.06	227.91
937.36	227.84
937.66	227.82
937.96	227.78
938.26	227.81
938.56	227.60
938.86	227.72
939.16	227.82
939.46	228.02
939.76	228.13
940.06	228.21
940.35	228.25
940.65	228.29
940.95	228.39
941.25	228.30
941.55	228.20
941.85	228.25
942.15	228.30
942.45	228.45
942.75	228.49
943.04	228.41
943.34	228.54
943.64	228.52
943.94	228.57
944.24	228.63
944.54	228.66
944.84	228.85
945.13	228.76
945.43	228.73
945.73	228.62
946.03	228.59
946.33	228.51
946.62	228.45
946.92	228.43
947.22	228.42
947.52	228.50
947.82	228.61
948.11	228.60
948.41	228.51
948.71	228.49
949.01	228.52
949.31	228.58
949.60	228.59
949.90	228.84
950.20	228.77
950.50	228.69
950.79	228.68
951.09	228.70
951.39	228.75
951.69	228.80
951.98	228.88
952.28	228.85
952.58	228.85
952.87	228.84
953.17	228.80
953.47	228.80
953.76	228.77
954.06	228.80
954.36	228.85
954.66	229.00
954.95	229.00
955.25	229.00
955.55	229.03
955.84	228.99
956.14	228.86
956.44	228.98
956.73	229.05
957.03	228.96
957.32	228.86
957.62	228.88
957.92	228.93
958.21	228.96
958.51	229.10
958.81	229.08
959.10	229.09
959.40	229.21
959.69	229.22
959.99	229.31
960.29	229.34
960.58	229.28
960.88	229.32
961.17	229.22
961.47	229.19
961.76	229.23
962.06	229.26
962.36	229.21
962.65	229.02
962.95	228.98
963.24	229.02
963.54	229.11
963.83	229.07
964.13	229.06
964.42	228.95
964.72	228.82
965.01	228.91
965.31	228.95
965.60	228.85
965.90	228.97
966.19	228.90
966.49	228.82
966.78	228.86
967.08	228.76
967.37	228.67
967.67	228.70
967.96	228.64
968.26	228.50
968.55	228.55
968.85	228.62
969.14	228.64
969.43	228.56
969.73	228.44
970.02	228.47
970.32	228.35
970.61	228.28
970.91	228.26
971.20	228.13
971.49	228.04
971.79	228.03
972.08	227.80
972.38	227.81
972.67	227.79
972.96	227.76
973.26	227.70
973.55	227.80
973.85	227.80
974.14	227.76
974.43	227.81
974.73	227.72
975.02	227.70
975.31	227.79
975.61	227.88
975.90	227.95
976.19	227.94
976.49	228.04
976.78	228.18
977.07	228.10
977.37	228.11
977.66	228.11
977.95	228.09
978.24	228.07
978.54	228.00
978.83	228.00
979.12	227.87
979.42	227.90
979.71	227.86
980.00	227.82
980.29	227.89
980.59	227.90
980.88	227.97
981.17	227.97
981.46	227.84
981.76	227.79
982.05	227.81
982.34	227.82
982.63	227.76
982.93	227.66
983.22	227.78
983.51	227.79
983.80	227.89
984.09	227.89
984.39	227.94
984.68	228.02
984.97	227.95
985.26	228.11
985.55	228.10
985.85	228.07
986.14	228.07
986.43	228.06
986.72	228.06
987.01	228.06
987.30	228.08
987.59	228.17
987.89	228.31
988.18	228.19
988.47	228.25
988.76	228.23
989.05	228.37
989.34	228.29
989.63	228.38
989.92	228.29
990.22	228.29
990.51	228.27
990.80	228.30
991.09	228.44
991.38	228.49
991.67	228.42
991.96	228.49
992.25	228.56
992.54	228.49
992.83	228.51
993.12	228.52
993.41	228.57
993.70	228.63
993.99	228.62
994.28	228.82
994.58	228.71
994.87	228.75
995.16	228.64
995.45	228.68
995.74	228.63
996.03	228.82
996.32	228.88
996.61	229.00
996.90	228.90
997.19	228.90
997.48	228.69
997.77	228.78
998.06	228.71
998.34	228.63
998.63	228.64
998.92	228.63
999.21	228.58
999.50	228.60
999.79	228.47
1000.08	228.39
1000.37	228.27
1000.66	228.31
1000.95	228.36
1001.24	228.31
1001.53	228.40
1001.82	228.39
1002.11	228.08
1002.40	228.09
1002.68	228.05
1002.97	228.16
1003.26	228.08
1003.55	228.17
1003.84	228.23
1004.13	228.21
1004.42	228.30
1004.71	228.36
1004.99	228.30
1005.28	228.36
1005.57	228.30
1005.86	228.25
1006.15	228.22
1006.44	228.20
1006.72	228.22
1007.01	228.13
1007.30	228.28
1007.59	228.18
1007.88	228.11
1008.17	228.18
1008.45	228.23
1008.74	228.21
1009.03	228.07
1009.32	228.07
1009.60	228.09
1009.89	227.89
1010.18	227.99
1010.47	227.88
1010.76	227.86
1011.04	227.89
1011.33	227.87
1011.62	227.85
1011.91	227.89
1012.19	227.86
1012.48	227.76
1012.77	227.70
1013.05	227.86
1013.34	227.77
1013.63	227.72
1013.92	227.79
1014.20	227.86
1014.49	227.82
1014.78	227.88
1015.06	227.90
1015.35	227.96
1015.64	227.97
1015.92	228.13
1016.21	228.04
1016.50	228.10
1016.78	228.08
1017.07	228.07
1017.36	228.09
1017.64	228.12
1017.93	228.18
1018.22	228.23
1018.50	228.35
1018.79	228.43
1019.08	228.41
1019.36	228.37
1019.65	228.44
1019.93	228.48
1020.22	228.53
1020.51	228.58
1020.79	228.52
1021.08	228.00
1021.36	228.00
1021.65	229.10
1021.94	230.60
1022.22	227.70
1022.51	228.60
1022.79	228.90
1023.08	229.10
1023.36	230.40
1023.65	228.30
>>>>>End Processed Spectral Data<<<<<
