SpectraSuite Data File
++++++++++++++++++++++++++++++++++++
Date: Fri Feb 01 14:40:17 EST 2013
User: group
Dark Spectrum Present: No
Reference Spectrum Present: No
Number of Sampled Component Spectra: 1
Spectrometers: USB2E7196
Integration Time (usec): 70000 (USB2E7196)
Spectra Averaged: 10 (USB2E7196)
Boxcar Smoothing: 10 (USB2E7196)
Correct for Electrical Dark: No (USB2E7196)
Strobe/Lamp Enabled: No (USB2E7196)
Correct for Detector Non-linearity: No (USB2E7196)
Correct for Stray Light: No (USB2E7196)
Number of Pixels in Processed Spectrum: 2048
>>>>>Begin Processed Spectral Data<<<<<
339.09	0.00
339.48	216.10
339.86	214.60
340.24	219.50
340.63	220.90
341.01	225.30
341.39	224.50
341.78	224.30
342.16	227.30
342.54	226.00
342.93	214.78
343.31	225.57
343.69	226.12
344.07	226.67
344.46	227.16
344.84	227.47
345.22	227.65
345.60	227.80
345.99	227.98
346.37	228.11
346.75	228.21
347.13	228.37
347.52	228.32
347.90	228.55
348.28	228.49
348.66	228.45
349.05	228.37
349.43	228.32
349.81	228.32
350.19	228.43
350.57	228.47
350.96	228.63
351.34	228.80
351.72	228.79
352.10	228.92
352.48	228.82
352.87	228.98
353.25	228.97
353.63	229.04
354.01	229.10
354.39	229.20
354.77	229.25
355.15	229.41
355.54	229.44
355.92	229.35
356.30	229.45
356.68	229.62
357.06	229.66
357.44	229.73
357.82	229.72
358.20	229.76
358.58	229.72
358.97	229.72
359.35	229.72
359.73	229.78
360.11	229.81
360.49	229.96
360.87	229.95
361.25	230.08
361.63	230.15
362.01	230.17
362.39	230.00
362.77	230.16
363.15	230.14
363.53	230.18
363.91	230.15
364.29	230.19
364.67	229.99
365.05	230.05
365.43	229.96
365.81	230.08
366.19	230.06
366.57	230.13
366.95	230.10
367.33	230.03
367.71	230.00
368.09	230.00
368.47	229.94
368.85	229.86
369.23	229.78
369.61	229.69
369.99	229.76
370.37	229.77
370.75	229.66
371.13	229.50
371.51	229.36
371.89	229.29
372.27	229.15
372.65	229.16
373.03	229.12
373.41	229.13
373.78	229.02
374.16	228.85
374.54	228.74
374.92	228.64
375.30	228.65
375.68	228.60
376.06	228.53
376.44	228.40
376.82	228.35
377.19	228.27
377.57	228.14
377.95	227.98
378.33	227.89
378.71	227.73
379.09	227.66
379.47	227.77
379.84	227.70
380.22	227.62
380.60	227.47
380.98	227.34
381.36	227.21
381.73	227.03
382.11	227.08
382.49	226.98
382.87	226.92
383.25	226.70
383.62	226.82
384.00	226.75
384.38	226.76
384.76	226.72
385.13	226.67
385.51	226.70
385.89	226.56
386.27	226.54
386.64	226.52
387.02	226.48
387.40	226.37
387.78	226.41
388.15	226.37
388.53	226.43
388.91	226.39
389.29	226.37
389.66	226.54
390.04	226.50
390.42	226.61
390.79	226.54
391.17	226.64
391.55	226.45
391.92	226.44
392.30	226.42
392.68	226.40
393.05	226.52
393.43	226.52
393.81	226.70
394.18	226.70
394.56	226.79
394.94	226.91
395.31	226.93
395.69	227.05
396.06	227.15
396.44	227.05
396.82	227.12
397.19	227.31
397.57	227.32
397.95	227.48
398.32	227.40
398.70	227.56
399.07	227.70
399.45	227.82
399.82	227.87
400.20	227.92
400.58	228.01
400.95	228.02
401.33	228.14
401.70	228.27
402.08	228.32
402.45	228.36
402.83	228.36
403.20	228.55
403.58	228.44
403.95	228.64
404.33	228.88
404.71	228.99
405.08	229.16
405.46	229.24
405.83	229.27
406.21	229.45
406.58	229.66
406.96	229.81
407.33	229.97
407.70	230.23
408.08	230.63
408.45	230.91
408.83	231.14
409.20	231.33
409.58	231.41
409.95	231.76
410.33	232.05
410.70	232.26
411.08	232.48
411.45	232.88
411.82	233.15
412.20	233.50
412.57	234.00
412.95	234.21
413.32	234.61
413.69	235.01
414.07	235.50
414.44	235.93
414.82	236.41
415.19	237.00
415.56	237.53
415.94	237.93
416.31	238.47
416.68	239.12
417.06	239.80
417.43	240.44
417.81	241.17
418.18	241.93
418.55	242.79
418.93	243.66
419.30	244.61
419.67	245.54
420.04	246.44
420.42	247.35
420.79	248.67
421.16	249.79
421.54	251.07
421.91	252.06
422.28	253.24
422.66	254.50
423.03	255.87
423.40	257.13
423.77	258.46
424.15	259.79
424.52	261.15
424.89	262.76
425.26	264.25
425.64	265.43
426.01	266.95
426.38	268.58
426.75	270.22
427.13	271.87
427.50	273.57
427.87	275.50
428.24	277.30
428.61	278.93
428.99	280.96
429.36	283.01
429.73	285.16
430.10	287.29
430.47	289.32
430.85	291.27
431.22	293.45
431.59	295.87
431.96	298.26
432.33	300.70
432.70	303.03
433.08	305.94
433.45	308.80
433.82	311.40
434.19	314.32
434.56	317.07
434.93	319.74
435.30	322.23
435.68	325.04
436.05	328.00
436.42	330.69
436.79	333.20
437.16	335.97
437.53	338.92
437.90	341.63
438.27	344.42
438.64	347.34
439.01	350.10
439.38	352.33
439.75	354.46
440.13	357.04
440.50	359.50
440.87	361.38
441.24	363.33
441.61	365.61
441.98	367.14
442.35	368.94
442.72	370.79
443.09	372.76
443.46	373.89
443.83	374.48
444.20	375.22
444.57	376.19
444.94	376.39
445.31	376.65
445.68	377.28
446.05	377.42
446.42	377.03
446.79	376.63
447.16	376.25
447.53	376.07
447.90	374.90
448.27	373.83
448.64	372.35
449.01	371.30
449.37	369.28
449.74	367.49
450.11	365.51
450.48	363.03
450.85	360.51
451.22	358.21
451.59	356.26
451.96	354.30
452.33	351.50
452.70	349.24
453.07	346.44
453.43	343.46
453.80	340.57
454.17	337.90
454.54	335.39
454.91	332.67
455.28	329.81
455.65	327.40
456.02	325.00
456.38	322.80
456.75	320.00
457.12	317.85
457.49	315.52
457.86	313.23
458.23	311.51
458.59	309.50
458.96	307.51
459.33	305.50
459.70	303.52
460.07	302.09
460.43	300.25
460.80	298.60
461.17	297.04
461.54	295.79
461.91	294.31
462.27	292.72
462.64	291.46
463.01	290.15
463.38	288.72
463.74	287.10
464.11	285.93
464.48	284.95
464.85	283.63
465.21	282.70
465.58	281.73
465.95	280.47
466.32	279.55
466.68	278.50
467.05	277.50
467.42	276.54
467.78	275.47
468.15	274.61
468.52	273.95
468.88	272.95
469.25	271.88
469.62	271.15
469.98	270.37
470.35	269.63
470.72	268.88
471.08	268.18
471.45	267.66
471.82	266.99
472.18	266.24
472.55	265.79
472.92	265.11
473.28	264.50
473.65	263.84
474.02	263.18
474.38	262.76
474.75	262.41
475.11	261.84
475.48	261.36
475.85	260.91
476.21	260.37
476.58	259.99
476.94	259.68
477.31	259.28
477.67	258.99
478.04	258.72
478.41	258.53
478.77	258.40
479.14	258.02
479.50	257.71
479.87	257.48
480.23	257.26
480.60	257.14
480.96	256.83
481.33	256.85
481.69	256.73
482.06	256.66
482.42	256.58
482.79	256.47
483.15	256.42
483.52	256.35
483.88	256.38
484.25	256.36
484.61	256.32
484.98	256.38
485.34	256.46
485.71	256.52
486.07	256.60
486.44	256.36
486.80	256.41
487.17	256.60
487.53	256.80
487.90	257.02
488.26	257.26
488.62	257.65
488.99	257.90
489.35	258.12
489.72	258.29
490.08	258.57
490.44	258.85
490.81	259.21
491.17	259.62
491.54	260.07
491.90	260.54
492.26	261.01
492.63	261.51
492.99	261.99
493.36	262.53
493.72	263.08
494.08	263.84
494.45	264.60
494.81	265.27
495.17	266.10
495.54	266.81
495.90	267.62
496.26	268.51
496.63	269.31
496.99	270.44
497.35	271.45
497.72	272.59
498.08	273.72
498.44	274.94
498.80	276.25
499.17	277.42
499.53	278.71
499.89	280.15
500.26	281.60
500.62	283.18
500.98	284.90
501.34	286.67
501.71	288.51
502.07	290.32
502.43	292.30
502.79	294.34
503.16	296.54
503.52	298.70
503.88	300.89
504.24	303.32
504.60	305.80
504.97	308.56
505.33	311.24
505.69	314.26
506.05	317.27
506.41	320.16
506.78	323.46
507.14	326.75
507.50	330.20
507.86	333.85
508.22	337.58
508.59	341.26
508.95	345.19
509.31	349.23
509.67	353.42
510.03	357.79
510.39	362.26
510.75	366.88
511.12	371.59
511.48	376.46
511.84	381.45
512.20	386.58
512.56	391.82
512.92	397.40
513.28	402.95
513.64	408.76
514.00	414.91
514.37	421.00
514.73	427.23
515.09	433.59
515.45	439.85
515.81	446.21
516.17	453.00
516.53	459.86
516.89	466.83
517.25	474.14
517.61	481.44
517.97	488.68
518.33	496.09
518.69	503.78
519.05	511.52
519.41	519.57
519.77	527.82
520.13	536.06
520.49	543.99
520.85	552.52
521.21	560.95
521.57	569.56
521.93	578.01
522.29	586.96
522.65	595.67
523.01	604.63
523.37	614.16
523.73	623.46
524.09	632.62
524.45	642.06
524.81	651.51
525.17	661.07
525.53	671.15
525.89	681.14
526.25	691.37
526.61	701.44
526.97	711.52
527.33	721.49
527.68	731.94
528.04	742.50
528.40	752.80
528.76	763.55
529.12	774.24
529.48	785.46
529.84	795.96
530.20	807.23
530.56	818.80
530.91	830.08
531.27	841.30
531.63	852.71
531.99	864.05
532.35	875.20
532.71	886.50
533.07	897.84
533.42	909.51
533.78	920.52
534.14	932.12
534.50	943.36
534.86	955.01
535.21	966.16
535.57	977.97
535.93	989.64
536.29	1001.25
536.65	1012.82
537.00	1023.91
537.36	1035.84
537.72	1047.02
538.08	1057.74
538.44	1068.73
538.79	1080.19
539.15	1091.40
539.51	1102.97
539.87	1114.92
540.22	1126.50
540.58	1137.77
540.94	1148.40
541.29	1159.51
541.65	1170.29
542.01	1181.98
542.37	1193.08
542.72	1203.73
543.08	1214.34
543.44	1224.88
543.79	1234.76
544.15	1245.00
544.51	1255.72
544.87	1266.11
545.22	1276.78
545.58	1287.41
545.94	1296.98
546.29	1306.34
546.65	1315.70
547.01	1324.45
547.36	1333.57
547.72	1342.40
548.07	1351.57
548.43	1360.58
548.79	1369.42
549.14	1378.24
549.50	1386.16
549.86	1394.15
550.21	1402.61
550.57	1410.78
550.92	1418.98
551.28	1427.35
551.64	1435.65
551.99	1443.61
552.35	1450.90
552.70	1458.34
553.06	1465.99
553.41	1473.93
553.77	1481.41
554.13	1488.92
554.48	1496.58
554.84	1503.62
555.19	1510.88
555.55	1517.71
555.90	1524.11
556.26	1530.82
556.61	1537.50
556.97	1544.15
557.32	1550.71
557.68	1557.00
558.03	1563.45
558.39	1569.87
558.74	1576.20
559.10	1581.70
559.45	1587.46
559.81	1593.99
560.16	1599.32
560.52	1604.50
560.87	1610.06
561.23	1615.61
561.58	1621.10
561.94	1626.64
562.29	1631.18
562.64	1635.75
563.00	1640.27
563.35	1645.73
563.71	1651.13
564.06	1656.06
564.42	1660.79
564.77	1665.21
565.12	1669.86
565.48	1674.36
565.83	1677.97
566.19	1682.00
566.54	1686.00
566.89	1689.68
567.25	1693.32
567.60	1697.60
567.96	1701.29
568.31	1704.44
568.66	1707.24
569.02	1710.46
569.37	1712.69
569.72	1715.84
570.08	1718.60
570.43	1721.27
570.78	1723.67
571.14	1725.01
571.49	1726.98
571.84	1729.04
572.20	1730.78
572.55	1732.16
572.90	1733.05
573.26	1734.26
573.61	1735.20
573.96	1736.20
574.31	1736.09
574.67	1735.66
575.02	1734.96
575.37	1735.21
575.72	1734.50
576.08	1734.67
576.43	1733.87
576.78	1733.89
577.13	1733.50
577.49	1733.19
577.84	1732.55
578.19	1731.30
578.54	1730.17
578.90	1728.49
579.25	1726.82
579.60	1725.52
579.95	1723.53
580.30	1721.70
580.66	1719.87
581.01	1717.77
581.36	1715.65
581.71	1714.49
582.06	1712.70
582.42	1710.95
582.77	1708.26
583.12	1706.40
583.47	1704.59
583.82	1702.57
584.17	1700.04
584.53	1697.80
584.88	1695.36
585.23	1692.74
585.58	1690.67
585.93	1688.51
586.28	1686.84
586.63	1684.79
586.98	1682.03
587.34	1679.93
587.69	1677.13
588.04	1674.60
588.39	1672.35
588.74	1668.80
589.09	1665.38
589.44	1662.02
589.79	1659.32
590.14	1656.91
590.49	1653.81
590.84	1649.99
591.19	1646.92
591.54	1642.66
591.89	1637.93
592.25	1633.86
592.60	1629.40
592.95	1624.75
593.30	1620.34
593.65	1615.41
594.00	1610.66
594.35	1606.67
594.70	1601.92
595.05	1597.90
595.40	1592.97
595.75	1588.00
596.10	1584.50
596.45	1580.54
596.80	1576.66
597.15	1572.33
597.50	1567.45
597.85	1563.25
598.19	1559.32
598.54	1555.02
598.89	1551.16
599.24	1547.57
599.59	1543.58
599.94	1540.10
600.29	1536.25
600.64	1532.06
600.99	1527.25
601.34	1522.83
601.69	1518.22
602.04	1514.27
602.39	1509.72
602.74	1505.92
603.08	1501.97
603.43	1497.75
603.78	1493.03
604.13	1488.22
604.48	1483.35
604.83	1478.87
605.18	1474.40
605.53	1468.61
605.87	1462.76
606.22	1457.90
606.57	1452.67
606.92	1447.60
607.27	1442.43
607.62	1437.85
607.96	1433.05
608.31	1428.60
608.66	1423.25
609.01	1417.42
609.36	1411.30
609.70	1404.97
610.05	1398.81
610.40	1392.88
610.75	1386.76
611.10	1380.94
611.44	1374.76
611.79	1369.09
612.14	1363.35
612.49	1356.78
612.83	1350.92
613.18	1345.14
613.53	1339.22
613.88	1333.10
614.22	1327.07
614.57	1320.60
614.92	1313.70
615.27	1307.72
615.61	1301.48
615.96	1295.15
616.31	1289.56
616.65	1284.68
617.00	1279.70
617.35	1274.27
617.70	1268.41
618.04	1262.29
618.39	1256.44
618.74	1250.72
619.08	1244.44
619.43	1238.47
619.78	1232.80
620.12	1227.13
620.47	1221.48
620.82	1215.46
621.16	1209.86
621.51	1203.94
621.85	1198.35
622.20	1192.43
622.55	1186.65
622.89	1181.17
623.24	1176.24
623.59	1170.71
623.93	1164.77
624.28	1159.00
624.62	1153.19
624.97	1147.31
625.32	1141.99
625.66	1136.70
626.01	1131.51
626.35	1125.86
626.70	1119.75
627.04	1114.45
627.39	1108.68
627.73	1102.85
628.08	1097.57
628.43	1091.88
628.77	1086.16
629.12	1080.22
629.46	1074.70
629.81	1068.41
630.15	1062.27
630.50	1056.30
630.84	1050.19
631.19	1044.05
631.53	1038.06
631.88	1031.86
632.22	1025.78
632.57	1020.10
632.91	1014.18
633.26	1007.93
633.60	1002.00
633.95	996.62
634.29	990.87
634.64	985.60
634.98	980.09
635.32	974.68
635.67	969.42
636.01	964.22
636.36	959.12
636.70	954.05
637.05	949.10
637.39	944.15
637.73	938.86
638.08	934.24
638.42	929.57
638.77	924.50
639.11	920.07
639.45	915.17
639.80	909.72
640.14	904.49
640.49	899.57
640.83	894.66
641.17	889.58
641.52	884.40
641.86	879.27
642.20	874.32
642.55	869.13
642.89	863.79
643.23	858.75
643.58	853.95
643.92	848.73
644.26	843.47
644.61	838.52
644.95	833.53
645.29	828.14
645.64	822.76
645.98	817.70
646.32	812.54
646.66	807.60
647.01	802.60
647.35	797.94
647.69	793.21
648.04	788.70
648.38	783.77
648.72	778.75
649.06	773.83
649.41	769.18
649.75	764.05
650.09	759.27
650.43	754.23
650.78	748.93
651.12	744.00
651.46	739.60
651.80	734.82
652.14	730.18
652.49	725.64
652.83	721.18
653.17	716.60
653.51	711.95
653.85	707.38
654.20	702.95
654.54	697.99
654.88	693.31
655.22	688.20
655.56	683.70
655.90	679.29
656.25	674.98
656.59	670.72
656.93	666.75
657.27	662.62
657.61	658.17
657.95	654.30
658.29	650.24
658.64	646.06
658.98	641.78
659.32	637.31
659.66	633.16
660.00	628.86
660.34	624.82
660.68	620.90
661.02	616.70
661.36	612.73
661.70	609.09
662.05	605.43
662.39	602.07
662.73	598.34
663.07	594.75
663.41	591.19
663.75	587.41
664.09	583.65
664.43	580.02
664.77	576.61
665.11	572.95
665.45	569.77
665.79	566.12
666.13	562.81
666.47	559.66
666.81	556.11
667.15	552.56
667.49	549.30
667.83	545.95
668.17	542.91
668.51	539.50
668.85	536.16
669.19	533.06
669.53	529.82
669.87	526.60
670.21	523.56
670.55	520.38
670.89	517.54
671.23	514.76
671.57	511.85
671.91	509.05
672.25	506.21
672.58	503.38
672.92	500.56
673.26	497.88
673.60	495.05
673.94	492.55
674.28	490.16
674.62	487.62
674.96	485.22
675.30	482.69
675.64	480.36
675.97	477.91
676.31	475.31
676.65	472.92
676.99	470.67
677.33	468.14
677.67	465.72
678.01	463.09
678.34	460.49
678.68	458.13
679.02	455.68
679.36	453.39
679.70	450.92
680.04	448.75
680.37	446.35
680.71	443.98
681.05	441.77
681.39	439.62
681.73	437.59
682.06	435.51
682.40	433.53
682.74	431.50
683.08	429.44
683.42	427.30
683.75	425.17
684.09	422.87
684.43	420.98
684.77	419.05
685.10	417.10
685.44	415.14
685.78	413.10
686.12	411.17
686.45	409.10
686.79	407.18
687.13	405.37
687.46	403.46
687.80	401.64
688.14	399.67
688.48	397.76
688.81	395.58
689.15	393.63
689.49	391.65
689.82	389.70
690.16	387.79
690.50	386.18
690.83	384.36
691.17	382.71
691.51	380.84
691.84	379.02
692.18	377.19
692.52	375.59
692.85	374.04
693.19	372.44
693.52	370.81
693.86	369.09
694.20	367.39
694.53	365.75
694.87	364.28
695.21	362.71
695.54	361.05
695.88	359.63
696.21	357.94
696.55	356.49
696.88	355.03
697.22	353.48
697.56	351.90
697.89	350.59
698.23	349.16
698.56	347.76
698.90	346.43
699.23	345.03
699.57	343.57
699.90	342.09
700.24	340.60
700.58	339.28
700.91	338.04
701.25	336.77
701.58	335.49
701.92	334.24
702.25	332.94
702.59	331.91
702.92	330.65
703.26	329.53
703.59	328.38
703.93	327.45
704.26	326.43
704.60	325.18
704.93	324.01
705.26	322.90
705.60	321.80
705.93	320.78
706.27	319.84
706.60	318.88
706.94	317.96
707.27	316.92
707.61	315.79
707.94	314.81
708.27	313.73
708.61	312.59
708.94	311.57
709.28	310.69
709.61	309.67
709.94	308.88
710.28	308.01
710.61	307.13
710.95	305.93
711.28	305.19
711.61	304.46
711.95	303.51
712.28	302.46
712.61	301.47
712.95	300.52
713.28	299.62
713.61	298.66
713.95	297.68
714.28	296.87
714.61	296.14
714.95	295.39
715.28	294.60
715.61	293.88
715.95	293.11
716.28	292.41
716.61	291.66
716.95	290.82
717.28	289.94
717.61	289.29
717.94	288.63
718.28	287.67
718.61	287.00
718.94	286.29
719.27	285.64
719.61	285.10
719.94	284.57
720.27	283.94
720.60	283.33
720.94	282.70
721.27	282.26
721.60	281.78
721.93	281.12
722.27	280.60
722.60	280.16
722.93	279.57
723.26	278.94
723.59	278.34
723.93	277.84
724.26	277.36
724.59	276.68
724.92	276.22
725.25	275.84
725.59	275.26
725.92	274.84
726.25	274.40
726.58	274.02
726.91	273.52
727.24	273.07
727.57	272.57
727.91	272.16
728.24	271.64
728.57	271.09
728.90	270.72
729.23	270.17
729.56	269.70
729.89	269.28
730.22	268.74
730.55	268.33
730.89	267.80
731.22	267.29
731.55	266.83
731.88	266.34
732.21	265.85
732.54	265.35
732.87	265.00
733.20	264.60
733.53	264.18
733.86	263.71
734.19	263.27
734.52	262.90
734.85	262.58
735.18	262.14
735.51	261.82
735.84	261.38
736.17	261.14
736.50	260.71
736.83	260.50
737.16	260.27
737.49	259.89
737.82	259.57
738.15	259.31
738.48	259.07
738.81	258.71
739.14	258.37
739.47	258.19
739.80	257.81
740.13	257.54
740.46	257.09
740.79	256.69
741.12	256.34
741.45	256.06
741.78	255.69
742.11	255.46
742.44	255.05
742.77	254.80
743.10	254.49
743.43	254.19
743.75	253.82
744.08	253.58
744.41	253.29
744.74	252.93
745.07	252.64
745.40	252.28
745.73	252.04
746.06	251.74
746.39	251.35
746.71	251.08
747.04	250.70
747.37	250.48
747.70	250.25
748.03	250.04
748.36	249.87
748.68	249.60
749.01	249.21
749.34	249.02
749.67	248.75
750.00	248.44
750.33	248.33
750.65	248.03
750.98	247.70
751.31	247.40
751.64	247.24
751.97	247.16
752.29	247.04
752.62	246.79
752.95	246.61
753.28	246.44
753.60	246.14
753.93	246.03
754.26	245.86
754.59	245.62
754.91	245.45
755.24	245.19
755.57	245.06
755.90	244.95
756.22	244.72
756.55	244.46
756.88	244.30
757.20	243.98
757.53	243.76
757.86	243.57
758.19	243.54
758.51	243.47
758.84	243.22
759.17	243.05
759.49	242.90
759.82	242.78
760.15	242.63
760.47	242.63
760.80	242.34
761.13	242.10
761.45	241.98
761.78	241.69
762.11	241.60
762.43	241.42
762.76	241.28
763.08	241.11
763.41	241.02
763.74	240.93
764.06	240.77
764.39	240.55
764.71	240.41
765.04	240.29
765.37	240.12
765.69	239.91
766.02	239.74
766.34	239.65
766.67	239.51
767.00	239.37
767.32	239.14
767.65	239.25
767.97	239.23
768.30	239.12
768.62	239.11
768.95	238.84
769.27	238.76
769.60	238.67
769.92	238.58
770.25	238.43
770.57	238.19
770.90	238.10
771.22	238.10
771.55	237.98
771.87	237.76
772.20	237.60
772.52	237.70
772.85	237.80
773.17	237.60
773.50	237.45
773.82	237.33
774.15	237.27
774.47	236.97
774.80	236.74
775.12	236.63
775.45	236.50
775.77	236.50
776.09	236.33
776.42	236.22
776.74	236.10
777.07	236.00
777.39	235.85
777.72	235.75
778.04	235.58
778.36	235.46
778.69	235.38
779.01	235.35
779.33	235.11
779.66	234.73
779.98	234.56
780.31	234.41
780.63	234.42
780.95	234.38
781.28	234.32
781.60	234.29
781.92	234.19
782.25	234.16
782.57	234.08
782.89	234.01
783.22	233.89
783.54	233.82
783.86	233.79
784.19	233.77
784.51	233.68
784.83	233.57
785.16	233.51
785.48	233.50
785.80	233.38
786.12	233.29
786.45	233.32
786.77	233.30
787.09	233.30
787.42	233.16
787.74	233.03
788.06	232.97
788.38	232.90
788.71	232.91
789.03	232.95
789.35	232.87
789.67	232.73
789.99	232.75
790.32	232.71
790.64	232.70
790.96	232.69
791.28	232.61
791.61	232.63
791.93	232.60
792.25	232.55
792.57	232.57
792.89	232.48
793.21	232.44
793.54	232.47
793.86	232.50
794.18	232.46
794.50	232.42
794.82	232.38
795.14	232.35
795.47	232.29
795.79	232.13
796.11	232.01
796.43	232.10
796.75	232.05
797.07	231.99
797.39	231.97
797.71	232.02
798.04	232.03
798.36	232.10
798.68	232.06
799.00	232.08
799.32	232.00
799.64	232.11
799.96	232.11
800.28	232.23
800.60	232.14
800.92	232.06
801.24	232.04
801.56	232.06
801.89	232.06
802.21	232.25
802.53	232.18
802.85	232.33
803.17	232.38
803.49	232.30
803.81	232.35
804.13	232.28
804.45	232.19
804.77	232.26
805.09	232.28
805.41	232.28
805.73	232.28
806.05	232.31
806.37	232.21
806.69	232.12
807.01	231.96
807.33	231.93
807.65	232.05
807.97	232.09
808.28	232.06
808.60	232.14
808.92	231.84
809.24	232.06
809.56	231.94
809.88	231.78
810.20	231.82
810.52	231.87
810.84	231.82
811.16	231.76
811.48	231.64
811.80	231.68
812.12	231.66
812.43	231.57
812.75	231.52
813.07	231.57
813.39	231.61
813.71	231.66
814.03	231.68
814.35	231.48
814.67	231.49
814.98	231.49
815.30	231.34
815.62	231.36
815.94	231.13
816.26	231.26
816.58	231.20
816.89	231.17
817.21	231.00
817.53	230.99
817.85	230.97
818.17	230.97
818.48	230.74
818.80	230.76
819.12	230.68
819.44	230.58
819.76	230.50
820.07	230.52
820.39	230.50
820.71	230.44
821.03	230.45
821.34	230.32
821.66	230.30
821.98	230.35
822.30	230.35
822.61	230.51
822.93	230.31
823.25	230.33
823.57	230.25
823.88	230.26
824.20	230.23
824.52	230.19
824.83	230.12
825.15	230.10
825.47	230.00
825.79	229.91
826.10	229.79
826.42	229.77
826.74	229.64
827.05	229.58
827.37	229.59
827.69	229.56
828.00	229.44
828.32	229.42
828.64	229.30
828.95	229.39
829.27	229.18
829.58	229.13
829.90	229.09
830.22	229.10
830.53	229.09
830.85	229.00
831.17	229.04
831.48	229.06
831.80	229.01
832.11	228.99
832.43	229.10
832.75	229.20
833.06	229.22
833.38	229.17
833.69	229.18
834.01	229.17
834.32	229.12
834.64	229.20
834.96	229.17
835.27	229.20
835.59	229.08
835.90	229.05
836.22	229.09
836.53	229.10
836.85	229.03
837.16	229.20
837.48	229.25
837.79	229.29
838.11	229.34
838.42	229.38
838.74	229.42
839.05	229.39
839.37	229.35
839.68	229.27
840.00	229.24
840.31	229.24
840.63	229.15
840.94	229.08
841.26	229.09
841.57	229.10
841.88	229.15
842.20	229.19
842.51	229.31
842.83	229.38
843.14	229.64
843.46	229.76
843.77	229.64
844.08	229.68
844.40	229.69
844.71	229.54
845.03	229.42
845.34	229.46
845.65	229.41
845.97	229.40
846.28	229.40
846.60	229.43
846.91	229.42
847.22	229.52
847.54	229.66
847.85	229.59
848.16	229.59
848.48	229.50
848.79	229.53
849.10	229.47
849.42	229.52
849.73	229.16
850.04	229.10
850.36	229.03
850.67	228.97
850.98	228.88
851.30	229.02
851.61	229.10
851.92	229.12
852.23	229.19
852.55	229.20
852.86	229.16
853.17	229.27
853.49	229.28
853.80	229.24
854.11	229.27
854.42	229.30
854.74	229.24
855.05	229.25
855.36	229.13
855.67	229.09
855.99	228.99
856.30	229.26
856.61	229.20
856.92	229.28
857.23	229.28
857.55	229.27
857.86	229.14
858.17	229.15
858.48	229.10
858.79	229.03
859.11	229.03
859.42	229.02
859.73	228.90
860.04	228.89
860.35	228.86
860.66	228.75
860.98	228.70
861.29	228.68
861.60	228.67
861.91	228.66
862.22	228.63
862.53	228.60
862.84	228.29
863.16	228.32
863.47	228.14
863.78	228.11
864.09	228.10
864.40	228.10
864.71	228.08
865.02	227.96
865.33	227.88
865.64	227.89
865.95	227.86
866.27	228.04
866.58	227.91
866.89	227.85
867.20	227.87
867.51	227.81
867.82	227.70
868.13	227.73
868.44	227.71
868.75	227.77
869.06	227.81
869.37	227.88
869.68	227.81
869.99	227.87
870.30	227.81
870.61	227.80
870.92	227.83
871.23	227.80
871.54	227.92
871.85	228.04
872.16	228.07
872.47	228.20
872.78	228.00
873.09	228.09
873.40	228.14
873.71	228.25
874.02	228.34
874.33	228.35
874.64	228.36
874.95	228.50
875.26	228.51
875.56	228.53
875.87	228.59
876.18	228.61
876.49	228.88
876.80	228.97
877.11	228.91
877.42	228.96
877.73	229.05
878.04	228.99
878.35	229.00
878.66	229.00
878.96	229.02
879.27	229.14
879.58	229.13
879.89	229.17
880.20	229.24
880.51	229.28
880.82	229.40
881.12	229.42
881.43	229.42
881.74	229.49
882.05	229.55
882.36	229.60
882.67	229.65
882.97	229.38
883.28	229.42
883.59	229.55
883.90	229.55
884.21	229.63
884.51	229.65
884.82	229.69
885.13	229.63
885.44	229.52
885.74	229.40
886.05	229.44
886.36	229.37
886.67	229.20
886.98	229.26
887.28	229.28
887.59	229.28
887.90	229.29
888.20	229.18
888.51	229.15
888.82	229.17
889.13	229.13
889.43	229.30
889.74	229.33
890.05	229.36
890.35	229.37
890.66	229.23
890.97	229.29
891.28	229.12
891.58	229.17
891.89	229.23
892.20	229.22
892.50	229.12
892.81	229.09
893.12	229.10
893.42	228.98
893.73	228.95
894.04	228.95
894.34	228.91
894.65	228.90
894.95	228.85
895.26	228.79
895.57	228.87
895.87	228.65
896.18	228.55
896.48	228.46
896.79	228.47
897.10	228.64
897.40	228.62
897.71	228.69
898.01	228.64
898.32	228.65
898.63	228.63
898.93	228.66
899.24	228.67
899.54	228.65
899.85	228.61
900.15	228.60
900.46	228.48
900.76	228.38
901.07	228.40
901.38	228.30
901.68	228.25
901.99	228.10
902.29	228.09
902.60	228.19
902.90	228.05
903.21	228.00
903.51	227.85
903.82	227.76
904.12	227.74
904.43	227.67
904.73	227.61
905.03	227.58
905.34	227.67
905.64	227.67
905.95	227.58
906.25	227.63
906.56	227.63
906.86	227.67
907.17	227.69
907.47	227.60
907.77	227.65
908.08	227.64
908.38	227.70
908.69	227.76
908.99	227.66
909.30	227.70
909.60	227.68
909.90	227.68
910.21	227.61
910.51	227.60
910.81	227.72
911.12	227.76
911.42	227.81
911.73	227.70
912.03	227.82
912.33	227.97
912.64	227.95
912.94	227.82
913.24	227.80
913.55	227.82
913.85	227.88
914.15	227.91
914.46	227.90
914.76	227.91
915.06	227.92
915.37	227.95
915.67	228.00
915.97	228.05
916.27	228.01
916.58	228.10
916.88	228.12
917.18	228.10
917.49	228.16
917.79	228.21
918.09	228.32
918.39	228.28
918.70	228.36
919.00	228.46
919.30	228.68
919.60	228.68
919.91	228.71
920.21	228.69
920.51	228.69
920.81	228.78
921.12	228.94
921.42	228.84
921.72	228.85
922.02	228.96
922.32	228.90
922.63	228.85
922.93	229.03
923.23	229.04
923.53	229.04
923.83	229.02
924.13	228.98
924.44	228.93
924.74	229.00
925.04	229.00
925.34	228.98
925.64	228.83
925.94	228.80
926.24	228.78
926.55	228.84
926.85	228.87
927.15	228.76
927.45	228.62
927.75	228.70
928.05	228.76
928.35	228.62
928.65	228.73
928.95	228.89
929.26	228.77
929.56	228.84
929.86	228.85
930.16	228.77
930.46	228.78
930.76	228.74
931.06	228.64
931.36	228.60
931.66	228.59
931.96	228.72
932.26	228.72
932.56	228.68
932.86	228.64
933.16	228.58
933.46	228.59
933.76	228.51
934.06	228.61
934.36	228.63
934.66	228.65
934.96	228.63
935.26	228.57
935.56	228.67
935.86	228.55
936.16	228.56
936.46	228.51
936.76	228.50
937.06	228.45
937.36	228.37
937.66	228.26
937.96	228.29
938.26	228.24
938.56	228.30
938.86	228.40
939.16	228.42
939.46	228.53
939.76	228.51
940.06	228.58
940.35	228.57
940.65	228.44
940.95	228.46
941.25	228.43
941.55	228.43
941.85	228.28
942.15	228.31
942.45	228.30
942.75	228.37
943.04	228.37
943.34	228.48
943.64	228.50
943.94	228.51
944.24	228.48
944.54	228.34
944.84	228.47
945.13	228.34
945.43	228.39
945.73	228.36
946.03	228.42
946.33	228.36
946.62	228.20
946.92	228.23
947.22	228.21
947.52	228.16
947.82	228.15
948.11	228.18
948.41	228.26
948.71	228.22
949.01	228.18
949.31	228.18
949.60	228.19
949.90	228.21
950.20	228.23
950.50	228.12
950.79	228.24
951.09	228.09
951.39	228.20
951.69	228.17
951.98	228.22
952.28	228.24
952.58	228.26
952.87	228.34
953.17	228.43
953.47	228.39
953.76	228.31
954.06	228.39
954.36	228.33
954.66	228.28
954.95	228.36
955.25	228.45
955.55	228.42
955.84	228.37
956.14	228.50
956.44	228.55
956.73	228.66
957.03	228.67
957.32	228.71
957.62	228.64
957.92	228.63
958.21	228.62
958.51	228.77
958.81	228.81
959.10	228.99
959.40	229.00
959.69	229.07
959.99	229.29
960.29	229.18
960.58	229.20
960.88	229.28
961.17	229.20
961.47	229.17
961.76	229.26
962.06	229.31
962.36	229.30
962.65	229.24
962.95	229.27
963.24	229.33
963.54	229.40
963.83	229.45
964.13	229.45
964.42	229.38
964.72	229.29
965.01	229.32
965.31	229.17
965.60	229.09
965.90	229.28
966.19	229.12
966.49	229.19
966.78	229.20
967.08	229.18
967.37	229.27
967.67	229.21
967.96	229.29
968.26	229.27
968.55	229.23
968.85	229.24
969.14	229.13
969.43	229.05
969.73	229.01
970.02	229.02
970.32	229.01
970.61	228.89
970.91	228.77
971.20	228.74
971.49	228.71
971.79	228.78
972.08	228.60
972.38	228.62
972.67	228.52
972.96	228.55
973.26	228.43
973.55	228.44
973.85	228.38
974.14	228.31
974.43	228.37
974.73	228.36
975.02	228.30
975.31	228.34
975.61	228.27
975.90	228.21
976.19	228.13
976.49	228.03
976.78	228.08
977.07	228.06
977.37	227.98
977.66	227.98
977.95	227.91
978.24	227.87
978.54	227.94
978.83	227.98
979.12	227.99
979.42	227.98
979.71	227.94
980.00	228.05
980.29	228.03
980.59	227.99
980.88	228.04
981.17	228.13
981.46	228.07
981.76	228.04
982.05	228.03
982.34	228.06
982.63	228.14
982.93	228.23
983.22	228.35
983.51	228.37
983.80	228.44
984.09	228.52
984.39	228.50
984.68	228.45
984.97	228.45
985.26	228.38
985.55	228.34
985.85	228.33
986.14	228.24
986.43	228.18
986.72	228.07
987.01	227.95
987.30	227.97
987.59	228.04
987.89	228.07
988.18	228.03
988.47	228.06
988.76	228.05
989.05	227.97
989.34	227.80
989.63	227.80
989.92	227.83
990.22	227.76
990.51	227.77
990.80	227.74
991.09	227.75
991.38	227.75
991.67	227.95
991.96	227.88
992.25	227.86
992.54	227.87
992.83	227.90
993.12	227.88
993.41	227.87
993.70	227.92
993.99	227.96
994.28	228.06
994.58	228.06
994.87	228.11
995.16	228.17
995.45	228.16
995.74	228.15
996.03	228.15
996.32	228.24
996.61	228.35
996.90	228.38
997.19	228.44
997.48	228.51
997.77	228.38
998.06	228.42
998.34	228.51
998.63	228.57
998.92	228.59
999.21	228.69
999.50	228.60
999.79	228.50
1000.08	228.42
1000.37	228.38
1000.66	228.40
1000.95	228.37
1001.24	228.35
1001.53	228.60
1001.82	228.57
1002.11	228.47
1002.40	228.34
1002.68	228.24
1002.97	228.39
1003.26	228.30
1003.55	228.24
1003.84	228.35
1004.13	228.40
1004.42	228.39
1004.71	228.34
1004.99	228.30
1005.28	228.30
1005.57	228.38
1005.86	228.41
1006.15	228.50
1006.44	228.50
1006.72	228.57
1007.01	228.55
1007.30	228.57
1007.59	228.51
1007.88	228.48
1008.17	228.54
1008.45	228.62
1008.74	228.60
1009.03	228.52
1009.32	228.50
1009.60	228.53
1009.89	228.45
1010.18	228.31
1010.47	228.29
1010.76	228.26
1011.04	228.29
1011.33	228.31
1011.62	228.29
1011.91	228.35
1012.19	228.30
1012.48	228.29
1012.77	228.21
1013.05	228.28
1013.34	228.22
1013.63	228.20
1013.92	228.26
1014.20	228.29
1014.49	228.23
1014.78	228.34
1015.06	228.25
1015.35	228.32
1015.64	228.31
1015.92	228.25
1016.21	228.34
1016.50	228.34
1016.78	228.47
1017.07	228.44
1017.36	228.39
1017.64	228.40
1017.93	228.46
1018.22	228.52
1018.50	228.51
1018.79	228.46
1019.08	228.39
1019.36	228.49
1019.65	228.40
1019.93	228.41
1020.22	228.35
1020.51	228.50
1020.79	228.48
1021.08	228.20
1021.36	227.80
1021.65	228.00
1021.94	228.30
1022.22	229.40
1022.51	227.70
1022.79	227.90
1023.08	228.00
1023.36	231.50
1023.65	228.60
>>>>>End Processed Spectral Data<<<<<
