SpectraSuite Data File
++++++++++++++++++++++++++++++++++++
Date: Fri Feb 01 14:36:14 EST 2013
User: group
Dark Spectrum Present: No
Reference Spectrum Present: No
Number of Sampled Component Spectra: 1
Spectrometers: USB2E7196
Integration Time (usec): 70000 (USB2E7196)
Spectra Averaged: 10 (USB2E7196)
Boxcar Smoothing: 10 (USB2E7196)
Correct for Electrical Dark: No (USB2E7196)
Strobe/Lamp Enabled: No (USB2E7196)
Correct for Detector Non-linearity: No (USB2E7196)
Correct for Stray Light: No (USB2E7196)
Number of Pixels in Processed Spectrum: 2048
>>>>>Begin Processed Spectral Data<<<<<
339.09	0.00
339.48	216.90
339.86	215.90
340.24	219.40
340.63	220.30
341.01	224.30
341.39	224.70
341.78	222.70
342.16	226.40
342.54	228.10
342.93	214.61
343.31	225.52
343.69	226.06
344.07	226.64
344.46	226.98
344.84	227.36
345.22	227.50
345.60	227.66
345.99	227.93
346.37	228.07
346.75	228.09
347.13	228.18
347.52	228.19
347.90	228.22
348.28	228.31
348.66	228.32
349.05	228.22
349.43	228.33
349.81	228.51
350.19	228.53
350.57	228.62
350.96	228.69
351.34	228.70
351.72	228.80
352.10	228.76
352.48	228.98
352.87	229.01
353.25	229.11
353.63	229.22
354.01	229.40
354.39	229.42
354.77	229.47
355.15	229.62
355.54	229.70
355.92	229.73
356.30	229.76
356.68	230.01
357.06	230.17
357.44	230.18
357.82	230.17
358.20	230.25
358.58	230.20
358.97	230.27
359.35	230.37
359.73	230.43
360.11	230.55
360.49	230.50
360.87	230.57
361.25	230.67
361.63	230.75
362.01	230.69
362.39	230.70
362.77	230.70
363.15	230.70
363.53	230.62
363.91	230.67
364.29	230.63
364.67	230.45
365.05	230.44
365.43	230.44
365.81	230.51
366.19	230.47
366.57	230.54
366.95	230.55
367.33	230.50
367.71	230.47
368.09	230.47
368.47	230.43
368.85	230.33
369.23	230.25
369.61	230.09
369.99	230.06
370.37	230.07
370.75	230.18
371.13	230.04
371.51	230.09
371.89	229.96
372.27	229.91
372.65	229.86
373.03	229.73
373.41	229.59
373.78	229.55
374.16	229.50
374.54	229.42
374.92	229.24
375.30	229.02
375.68	228.92
376.06	228.82
376.44	228.75
376.82	228.84
377.19	228.73
377.57	228.72
377.95	228.55
378.33	228.40
378.71	228.14
379.09	228.02
379.47	227.92
379.84	227.91
380.22	227.86
380.60	227.69
380.98	227.59
381.36	227.57
381.73	227.35
382.11	227.25
382.49	227.20
382.87	227.03
383.25	227.02
383.62	227.09
384.00	227.10
384.38	227.08
384.76	226.85
385.13	226.82
385.51	226.74
385.89	226.70
386.27	226.76
386.64	226.74
387.02	226.76
387.40	226.80
387.78	226.64
388.15	226.65
388.53	226.69
388.91	226.68
389.29	226.65
389.66	226.64
390.04	226.59
390.42	226.58
390.79	226.70
391.17	226.73
391.55	226.60
391.92	226.57
392.30	226.56
392.68	226.71
393.05	226.79
393.43	226.78
393.81	226.85
394.18	226.79
394.56	226.83
394.94	226.90
395.31	226.89
395.69	227.06
396.06	227.04
396.44	227.10
396.82	227.22
397.19	227.40
397.57	227.50
397.95	227.69
398.32	227.76
398.70	227.92
399.07	228.04
399.45	228.12
399.82	228.21
400.20	228.31
400.58	228.40
400.95	228.48
401.33	228.70
401.70	229.06
402.08	229.21
402.45	229.37
402.83	229.63
403.20	229.89
403.58	230.10
403.95	230.32
404.33	230.54
404.71	230.78
405.08	231.00
405.46	231.33
405.83	231.61
406.21	231.96
406.58	232.26
406.96	232.57
407.33	232.92
407.70	233.31
408.08	233.90
408.45	234.36
408.83	234.78
409.20	235.19
409.58	235.43
409.95	235.87
410.33	236.48
410.70	237.01
411.08	237.61
411.45	238.20
411.82	238.86
412.20	239.67
412.57	240.43
412.95	241.03
413.32	241.75
413.69	242.45
414.07	243.24
414.44	244.06
414.82	244.96
415.19	246.10
415.56	247.21
415.94	248.18
416.31	249.34
416.68	250.51
417.06	252.01
417.43	253.48
417.81	255.18
418.18	256.78
418.55	258.43
418.93	260.19
419.30	262.10
419.67	264.20
420.04	266.13
420.42	268.39
420.79	270.96
421.16	273.46
421.54	276.20
421.91	278.93
422.28	281.87
422.66	285.01
423.03	287.89
423.40	290.83
423.77	294.15
424.15	297.45
424.52	301.04
424.89	304.77
425.26	308.41
425.64	311.76
426.01	315.48
426.38	319.51
426.75	323.45
427.13	327.65
427.50	331.94
427.87	336.56
428.24	341.00
428.61	345.28
428.99	349.87
429.36	354.85
429.73	359.83
430.10	364.71
430.47	369.84
430.85	375.15
431.22	380.67
431.59	386.52
431.96	392.09
432.33	398.40
432.70	404.47
433.08	411.59
433.45	418.30
433.82	425.05
434.19	432.44
434.56	439.67
434.93	446.49
435.30	453.13
435.68	460.69
436.05	468.22
436.42	475.74
436.79	482.78
437.16	490.18
437.53	497.90
437.90	505.60
438.27	512.91
438.64	520.64
439.01	528.13
439.38	534.65
439.75	541.11
440.13	548.35
440.50	555.01
440.87	560.59
441.24	566.44
441.61	572.88
441.98	577.53
442.35	583.16
442.72	588.76
443.09	594.72
443.46	598.20
443.83	600.70
444.20	603.08
444.57	606.23
444.94	608.14
445.31	610.11
445.68	612.14
446.05	613.58
446.42	613.58
446.79	613.50
447.16	613.24
447.53	613.31
447.90	611.20
448.27	609.48
448.64	606.27
449.01	604.45
449.37	600.18
449.74	596.31
450.11	591.39
450.48	585.77
450.85	579.88
451.22	575.31
451.59	570.87
451.96	566.41
452.33	560.08
452.70	554.58
453.07	547.73
453.43	540.70
453.80	534.07
454.17	527.60
454.54	521.40
454.91	514.68
455.28	508.10
455.65	501.96
456.02	495.54
456.38	490.25
456.75	483.37
457.12	477.65
457.49	471.85
457.86	466.24
458.23	461.91
458.59	456.70
458.96	451.20
459.33	446.42
459.70	441.66
460.07	438.12
460.43	433.67
460.80	429.59
461.17	425.91
461.54	422.00
461.91	418.47
462.27	414.61
462.64	411.55
463.01	408.20
463.38	404.80
463.74	401.26
464.11	398.25
464.48	395.66
464.85	392.95
465.21	390.84
465.58	388.55
465.95	385.66
466.32	383.29
466.68	380.85
467.05	378.46
467.42	376.09
467.78	373.62
468.15	371.21
468.52	369.33
468.88	367.08
469.25	364.91
469.62	363.27
469.98	361.45
470.35	359.66
470.72	357.78
471.08	356.10
471.45	354.71
471.82	353.13
472.18	351.40
472.55	350.04
472.92	348.54
473.28	347.23
473.65	345.80
474.02	344.48
474.38	343.50
474.75	342.44
475.11	341.41
475.48	340.51
475.85	339.76
476.21	339.12
476.58	338.40
476.94	337.82
477.31	336.95
477.67	336.34
478.04	335.85
478.41	335.58
478.77	335.15
479.14	334.55
479.50	334.19
479.87	333.95
480.23	333.90
480.60	333.57
480.96	333.29
481.33	333.37
481.69	333.43
482.06	333.36
482.42	333.17
482.79	333.16
483.15	333.21
483.52	333.50
483.88	333.54
484.25	333.65
484.61	333.92
484.98	334.24
485.34	334.64
485.71	335.12
486.07	335.60
486.44	336.04
486.80	336.72
487.17	337.32
487.53	338.17
487.90	338.82
488.26	339.70
488.62	340.60
488.99	341.25
489.35	342.04
489.72	342.93
490.08	344.03
490.44	345.04
490.81	346.06
491.17	347.11
491.54	348.22
491.90	349.42
492.26	350.71
492.63	352.09
492.99	353.36
493.36	354.65
493.72	355.90
494.08	357.21
494.45	358.60
494.81	360.08
495.17	361.52
495.54	363.16
495.90	364.62
496.26	366.25
496.63	368.09
496.99	369.71
497.35	371.36
497.72	373.08
498.08	374.84
498.44	376.70
498.80	378.45
499.17	380.19
499.53	381.91
499.89	383.60
500.26	385.27
500.62	386.97
500.98	388.83
501.34	390.54
501.71	392.31
502.07	394.07
502.43	395.73
502.79	397.27
503.16	398.75
503.52	400.39
503.88	401.78
504.24	403.21
504.60	404.78
504.97	406.24
505.33	407.68
505.69	409.11
506.05	410.48
506.41	411.74
506.78	413.07
507.14	414.43
507.50	415.69
507.86	416.86
508.22	418.14
508.59	419.13
508.95	420.14
509.31	421.15
509.67	422.23
510.03	423.21
510.39	424.28
510.75	425.11
511.12	426.03
511.48	426.83
511.84	427.52
512.20	428.15
512.56	428.91
512.92	429.60
513.28	430.19
513.64	430.59
514.00	431.10
514.37	431.43
514.73	431.86
515.09	432.28
515.45	432.57
515.81	432.94
516.17	433.34
516.53	433.84
516.89	434.18
517.25	434.33
517.61	434.73
517.97	435.01
518.33	435.29
518.69	435.46
519.05	435.81
519.41	436.26
519.77	436.76
520.13	437.13
520.49	437.54
520.85	437.83
521.21	438.19
521.57	438.58
521.93	438.90
522.29	439.34
522.65	439.70
523.01	440.24
523.37	440.40
523.73	440.86
524.09	441.23
524.45	441.74
524.81	442.41
525.17	443.12
525.53	443.72
525.89	444.36
526.25	445.20
526.61	445.93
526.97	446.62
527.33	447.44
527.68	448.65
528.04	449.57
528.40	450.55
528.76	451.83
529.12	453.25
529.48	454.82
529.84	455.89
530.20	457.30
530.56	458.95
530.91	460.67
531.27	462.11
531.63	463.75
531.99	465.50
532.35	467.22
532.71	468.86
533.07	470.99
533.42	473.27
533.78	475.23
534.14	477.29
534.50	479.42
534.86	481.59
535.21	483.40
535.57	485.92
535.93	488.41
536.29	490.80
536.65	493.00
537.00	495.35
537.36	497.91
537.72	500.46
538.08	502.99
538.44	505.67
538.79	508.60
539.15	511.58
539.51	514.64
539.87	517.84
540.22	520.92
540.58	523.90
540.94	526.98
541.29	530.25
541.65	533.54
542.01	536.95
542.37	540.34
542.72	543.99
543.08	547.29
543.44	550.92
543.79	554.40
544.15	558.20
544.51	562.07
544.87	566.19
545.22	570.08
545.58	573.73
545.94	577.67
546.29	581.47
546.65	585.32
547.01	588.86
547.36	592.54
547.72	596.38
548.07	600.08
548.43	603.72
548.79	607.61
549.14	611.58
549.50	615.24
549.86	619.23
550.21	622.98
550.57	627.09
550.92	630.73
551.28	634.76
551.64	638.61
551.99	642.46
552.35	646.29
552.70	650.29
553.06	654.58
553.41	658.50
553.77	662.64
554.13	666.60
554.48	670.85
554.84	674.80
555.19	678.72
555.55	682.84
555.90	686.83
556.26	690.65
556.61	694.25
556.97	698.21
557.32	701.93
557.68	705.76
558.03	709.27
558.39	713.24
558.74	717.01
559.10	720.86
559.45	724.73
559.81	728.55
560.16	732.05
560.52	735.49
560.87	739.44
561.23	742.96
561.58	746.93
561.94	750.53
562.29	754.18
562.64	757.68
563.00	760.98
563.35	764.74
563.71	768.70
564.06	772.60
564.42	776.37
564.77	779.88
565.12	783.60
565.48	787.33
565.83	790.82
566.19	794.21
566.54	797.45
566.89	800.54
567.25	803.91
567.60	807.67
567.96	811.28
568.31	814.34
568.66	817.28
569.02	820.24
569.37	823.33
569.72	826.40
570.08	829.57
570.43	832.52
570.78	835.26
571.14	837.44
571.49	840.06
571.84	842.67
572.20	845.19
572.55	847.08
572.90	849.13
573.26	851.50
573.61	853.87
573.96	856.03
574.31	857.58
574.67	858.84
575.02	860.14
575.37	861.48
575.72	862.84
576.08	864.70
576.43	865.88
576.78	867.15
577.13	868.33
577.49	869.63
577.84	870.79
578.19	871.72
578.54	872.70
578.90	873.58
579.25	874.45
579.60	875.24
579.95	876.32
580.30	876.86
580.66	877.42
581.01	877.77
581.36	878.33
581.71	879.43
582.06	880.32
582.42	880.85
582.77	881.17
583.12	881.53
583.47	881.80
583.82	882.12
584.17	882.31
584.53	882.68
584.88	882.67
585.23	882.76
585.58	882.96
585.93	883.18
586.28	883.57
586.63	883.54
586.98	883.71
587.34	883.56
587.69	883.76
588.04	883.73
588.39	883.87
588.74	883.30
589.09	882.89
589.44	882.17
589.79	881.73
590.14	881.59
590.49	881.07
590.84	880.30
591.19	880.03
591.54	879.03
591.89	877.74
592.25	877.10
592.60	876.23
592.95	875.07
593.30	874.19
593.65	872.77
594.00	871.52
594.35	870.72
594.70	869.43
595.05	868.28
595.40	866.57
595.75	864.81
596.10	863.68
596.45	862.53
596.80	861.82
597.15	860.86
597.50	859.46
597.85	858.38
598.19	857.26
598.54	855.55
598.89	854.53
599.24	853.69
599.59	852.25
599.94	850.84
600.29	849.50
600.64	847.70
600.99	845.99
601.34	844.49
601.69	842.25
602.04	840.85
602.39	839.31
602.74	838.16
603.08	836.81
603.43	835.57
603.78	833.93
604.13	832.22
604.48	830.37
604.83	828.80
605.18	827.34
605.53	825.16
605.87	823.05
606.22	821.23
606.57	819.23
606.92	817.50
607.27	816.10
607.62	814.48
607.96	813.06
608.31	811.45
608.66	809.50
609.01	807.64
609.36	805.44
609.70	802.82
610.05	800.39
610.40	798.23
610.75	795.79
611.10	793.35
611.44	790.55
611.79	788.19
612.14	785.55
612.49	782.44
612.83	780.20
613.18	778.00
613.53	775.50
613.88	772.86
614.22	770.08
614.57	767.33
614.92	764.74
615.27	762.01
615.61	759.21
615.96	756.31
616.31	753.59
616.65	751.56
617.00	749.44
617.35	746.80
617.70	744.14
618.04	741.42
618.39	738.68
618.74	736.37
619.08	733.46
619.43	731.11
619.78	728.74
620.12	726.18
620.47	723.37
620.82	720.62
621.16	717.91
621.51	715.44
621.85	712.47
622.20	709.73
622.55	707.32
622.89	704.81
623.24	702.73
623.59	700.47
623.93	697.78
624.28	695.12
624.62	693.05
624.97	690.88
625.32	688.51
625.66	686.34
626.01	683.90
626.35	681.70
626.70	679.06
627.04	676.75
627.39	674.26
627.73	672.06
628.08	669.71
628.43	667.54
628.77	664.97
629.12	662.45
629.46	659.96
629.81	657.24
630.15	654.64
630.50	651.75
630.84	648.85
631.19	645.88
631.53	643.34
631.88	640.33
632.22	637.22
632.57	634.77
632.91	632.09
633.26	629.47
633.60	626.81
633.95	624.12
634.29	621.41
634.64	619.07
634.98	616.21
635.32	613.94
635.67	611.53
636.01	608.99
636.36	606.64
636.70	604.29
637.05	601.91
637.39	599.80
637.73	597.70
638.08	595.94
638.42	593.86
638.77	591.48
639.11	589.21
639.45	586.93
639.80	584.34
640.14	581.91
640.49	579.56
640.83	577.22
641.17	574.95
641.52	572.80
641.86	570.22
642.20	568.20
642.55	565.45
642.89	562.94
643.23	560.55
643.58	558.50
643.92	556.07
644.26	553.70
644.61	551.41
644.95	549.06
645.29	546.12
645.64	543.61
645.98	541.20
646.32	539.00
646.66	536.74
647.01	534.41
647.35	532.12
647.69	529.76
648.04	527.50
648.38	525.18
648.72	522.52
649.06	520.26
649.41	517.87
649.75	515.58
650.09	513.21
650.43	510.91
650.78	508.38
651.12	505.95
651.46	503.63
651.80	501.18
652.14	498.86
652.49	496.68
652.83	494.59
653.17	492.32
653.51	489.82
653.85	487.66
654.20	485.32
654.54	482.82
654.88	480.38
655.22	477.88
655.56	475.47
655.90	473.30
656.25	471.13
656.59	469.05
656.93	467.05
657.27	465.09
657.61	463.11
657.95	461.00
658.29	458.94
658.64	456.90
658.98	454.67
659.32	452.36
659.66	450.38
660.00	448.36
660.34	446.30
660.68	444.42
661.02	442.20
661.36	440.37
661.70	438.55
662.05	436.78
662.39	435.26
662.73	433.51
663.07	431.81
663.41	430.27
663.75	428.55
664.09	426.68
664.43	424.79
664.77	422.85
665.11	421.10
665.45	419.40
665.79	417.59
666.13	416.00
666.47	414.39
666.81	412.74
667.15	410.80
667.49	409.24
667.83	407.56
668.17	406.09
668.51	404.49
668.85	403.07
669.19	401.66
669.53	399.94
669.87	398.33
670.21	396.63
670.55	394.97
670.89	393.45
671.23	392.07
671.57	390.55
671.91	389.14
672.25	387.70
672.58	386.50
672.92	385.07
673.26	383.77
673.60	382.46
673.94	381.12
674.28	379.97
674.62	378.85
674.96	377.61
675.30	376.17
675.64	374.89
675.97	373.68
676.31	372.32
676.65	371.05
676.99	369.97
677.33	368.68
677.67	367.34
678.01	365.84
678.34	364.40
678.68	363.25
679.02	361.94
679.36	360.68
679.70	359.23
680.04	358.15
680.37	356.84
680.71	355.68
681.05	354.51
681.39	353.50
681.73	352.14
682.06	350.97
682.40	349.92
682.74	348.79
683.08	347.66
683.42	346.53
683.75	345.37
684.09	344.02
684.43	342.88
684.77	341.59
685.10	340.51
685.44	339.44
685.78	338.38
686.12	337.43
686.45	336.34
686.79	335.25
687.13	334.20
687.46	333.20
687.80	332.19
688.14	330.95
688.48	329.70
688.81	328.63
689.15	327.67
689.49	326.52
689.82	325.39
690.16	324.26
690.50	323.35
690.83	322.46
691.17	321.45
691.51	320.52
691.84	319.72
692.18	318.88
692.52	317.96
692.85	317.01
693.19	316.17
693.52	315.29
693.86	314.36
694.20	313.29
694.53	312.34
694.87	311.33
695.21	310.63
695.54	309.64
695.88	308.81
696.21	307.88
696.55	307.10
696.88	306.30
697.22	305.42
697.56	304.38
697.89	303.48
698.23	302.78
698.56	301.93
698.90	301.05
699.23	300.04
699.57	299.19
699.90	298.26
700.24	297.32
700.58	296.48
700.91	295.71
701.25	295.13
701.58	294.52
701.92	293.89
702.25	293.06
702.59	292.55
702.92	291.81
703.26	291.19
703.59	290.59
703.93	290.10
704.26	289.52
704.60	288.96
704.93	288.30
705.26	287.66
705.60	287.11
705.93	286.50
706.27	286.13
706.60	285.55
706.94	285.01
707.27	284.40
707.61	283.87
707.94	283.39
708.27	282.72
708.61	282.04
708.94	281.44
709.28	281.00
709.61	280.35
709.94	279.85
710.28	279.27
710.61	278.89
710.95	278.28
711.28	277.82
711.61	277.30
711.95	276.92
712.28	276.36
712.61	275.88
712.95	275.52
713.28	275.07
713.61	274.63
713.95	274.11
714.28	273.64
714.61	273.19
714.95	272.71
715.28	272.20
715.61	271.68
715.95	271.15
716.28	270.60
716.61	270.18
716.95	269.76
717.28	269.41
717.61	268.79
717.94	268.27
718.28	267.72
718.61	267.31
718.94	266.81
719.27	266.47
719.61	266.10
719.94	265.64
720.27	265.20
720.60	264.81
720.94	264.50
721.27	264.15
721.60	263.82
721.93	263.41
722.27	263.13
722.60	262.87
722.93	262.54
723.26	262.25
723.59	261.95
723.93	261.66
724.26	261.19
724.59	260.90
724.92	260.61
725.25	260.39
725.59	259.96
725.92	259.68
726.25	259.32
726.58	259.09
726.91	258.76
727.24	258.40
727.57	258.17
727.91	257.81
728.24	257.62
728.57	257.30
728.90	256.98
729.23	256.57
729.56	256.30
729.89	256.06
730.22	255.75
730.55	255.38
730.89	254.99
731.22	254.70
731.55	254.31
731.88	254.00
732.21	253.72
732.54	253.50
732.87	253.17
733.20	252.90
733.53	252.62
733.86	252.30
734.19	251.94
734.52	251.52
734.85	251.42
735.18	251.07
735.51	250.94
735.84	250.69
736.17	250.52
736.50	250.19
736.83	250.09
737.16	249.82
737.49	249.61
737.82	249.41
738.15	249.18
738.48	248.97
738.81	248.80
739.14	248.43
739.47	248.21
739.80	247.89
740.13	247.61
740.46	247.37
740.79	247.19
741.12	247.04
741.45	246.92
741.78	246.63
742.11	246.48
742.44	246.11
742.77	246.06
743.10	245.82
743.43	245.67
743.75	245.33
744.08	245.44
744.41	245.35
744.74	245.20
745.07	245.12
745.40	245.03
745.73	244.84
746.06	244.71
746.39	244.53
746.71	244.42
747.04	244.23
747.37	244.04
747.70	243.86
748.03	243.75
748.36	243.68
748.68	243.38
749.01	243.12
749.34	242.95
749.67	242.72
750.00	242.67
750.33	242.76
750.65	242.63
750.98	242.21
751.31	242.03
751.64	241.82
751.97	241.76
752.29	241.70
752.62	241.52
752.95	241.52
753.28	241.38
753.60	241.25
753.93	241.21
754.26	241.09
754.59	240.94
754.91	240.72
755.24	240.54
755.57	240.54
755.90	240.53
756.22	240.34
756.55	240.26
756.88	240.06
757.20	239.74
757.53	239.60
757.86	239.58
758.19	239.45
758.51	239.50
758.84	239.31
759.17	239.17
759.49	239.05
759.82	238.93
760.15	238.80
760.47	238.86
760.80	238.75
761.13	238.61
761.45	238.50
761.78	238.43
762.11	238.33
762.43	238.13
762.76	238.00
763.08	237.96
763.41	237.80
763.74	237.76
764.06	237.51
764.39	237.33
764.71	237.26
765.04	237.13
765.37	236.89
765.69	236.81
766.02	236.60
766.34	236.46
766.67	236.28
767.00	236.29
767.32	236.23
767.65	236.26
767.97	236.10
768.30	235.97
768.62	235.93
768.95	235.88
769.27	235.81
769.60	235.76
769.92	235.78
770.25	235.54
770.57	235.30
770.90	235.23
771.22	235.13
771.55	234.97
771.87	234.87
772.20	234.75
772.52	234.81
772.85	234.97
773.17	234.87
773.50	234.86
773.82	234.70
774.15	234.40
774.47	234.19
774.80	234.16
775.12	234.20
775.45	234.09
775.77	233.93
776.09	233.90
776.42	233.78
776.74	233.63
777.07	233.68
777.39	233.63
777.72	233.64
778.04	233.57
778.36	233.43
778.69	233.40
779.01	233.34
779.33	232.96
779.66	232.64
779.98	232.61
780.31	232.47
780.63	232.48
780.95	232.50
781.28	232.44
781.60	232.40
781.92	232.26
782.25	232.14
782.57	232.09
782.89	232.01
783.22	231.94
783.54	231.88
783.86	231.83
784.19	231.83
784.51	231.88
784.83	231.87
785.16	231.90
785.48	231.81
785.80	231.77
786.12	231.89
786.45	231.88
786.77	231.83
787.09	231.77
787.42	231.71
787.74	231.74
788.06	231.72
788.38	231.82
788.71	231.91
789.03	232.01
789.35	232.08
789.67	232.05
789.99	232.11
790.32	232.17
790.64	232.16
790.96	232.42
791.28	232.23
791.61	232.25
791.93	232.29
792.25	232.34
792.57	232.54
792.89	232.48
793.21	232.54
793.54	232.63
793.86	232.69
794.18	232.64
794.50	232.59
794.82	232.49
795.14	232.40
795.47	232.38
795.79	232.31
796.11	232.28
796.43	232.18
796.75	231.99
797.07	231.98
797.39	232.00
797.71	231.78
798.04	231.84
798.36	231.88
798.68	231.78
799.00	231.74
799.32	231.68
799.64	231.70
799.96	231.63
800.28	231.55
800.60	231.49
800.92	231.43
801.24	231.43
801.56	231.57
801.89	231.45
802.21	231.33
802.53	231.21
802.85	231.08
803.17	231.15
803.49	231.14
803.81	231.05
804.13	231.02
804.45	230.91
804.77	230.83
805.09	230.63
805.41	230.60
805.73	230.56
806.05	230.38
806.37	230.24
806.69	230.17
807.01	230.11
807.33	230.00
807.65	229.88
807.97	229.70
808.28	229.63
808.60	229.65
808.92	229.64
809.24	229.75
809.56	229.75
809.88	229.62
810.20	229.52
810.52	229.49
810.84	229.40
811.16	229.33
811.48	229.27
811.80	229.42
812.12	229.35
812.43	229.39
812.75	229.32
813.07	229.29
813.39	229.28
813.71	229.26
814.03	229.21
814.35	229.31
814.67	229.40
814.98	229.26
815.30	229.18
815.62	229.11
815.94	228.99
816.26	229.10
816.58	229.06
816.89	229.15
817.21	229.09
817.53	229.07
817.85	229.10
818.17	229.14
818.48	229.00
818.80	228.98
819.12	228.86
819.44	229.01
819.76	229.01
820.07	228.98
820.39	228.97
820.71	229.02
821.03	229.01
821.34	228.96
821.66	229.06
821.98	229.19
822.30	229.21
822.61	229.35
822.93	229.25
823.25	229.29
823.57	229.29
823.88	229.32
824.20	229.35
824.52	229.46
824.83	229.48
825.15	229.56
825.47	229.63
825.79	229.70
826.10	229.57
826.42	229.60
826.74	229.62
827.05	229.63
827.37	229.67
827.69	229.61
828.00	229.72
828.32	229.77
828.64	229.69
828.95	229.75
829.27	229.64
829.58	229.71
829.90	229.88
830.22	229.88
830.53	229.84
830.85	229.91
831.17	229.77
831.48	229.70
831.80	229.75
832.11	229.69
832.43	229.66
832.75	229.66
833.06	229.85
833.38	229.73
833.69	229.71
834.01	229.72
834.32	229.78
834.64	229.68
834.96	229.63
835.27	229.61
835.59	229.66
835.90	229.65
836.22	229.64
836.53	229.50
836.85	229.47
837.16	229.59
837.48	229.58
837.79	229.60
838.11	229.72
838.42	229.62
838.74	229.75
839.05	229.75
839.37	229.80
839.68	229.64
840.00	229.70
840.31	229.73
840.63	229.74
840.94	229.71
841.26	229.62
841.57	229.56
841.88	229.60
842.20	229.44
842.51	229.38
842.83	229.28
843.14	229.39
843.46	229.39
843.77	229.31
844.08	229.17
844.40	229.15
844.71	229.11
845.03	229.08
845.34	228.90
845.65	228.83
845.97	228.84
846.28	228.82
846.60	228.92
846.91	228.90
847.22	228.81
847.54	228.84
847.85	228.86
848.16	228.76
848.48	228.70
848.79	228.83
849.10	228.83
849.42	228.91
849.73	228.79
850.04	228.80
850.36	228.78
850.67	228.80
850.98	228.84
851.30	228.82
851.61	228.76
851.92	228.77
852.23	228.95
852.55	228.90
852.86	228.89
853.17	228.80
853.49	228.77
853.80	228.80
854.11	228.79
854.42	228.94
854.74	228.88
855.05	228.89
855.36	228.73
855.67	228.78
855.99	228.72
856.30	228.86
856.61	228.82
856.92	228.94
857.23	228.90
857.55	228.86
857.86	228.81
858.17	228.90
858.48	228.95
858.79	228.73
859.11	228.80
859.42	228.80
859.73	228.81
860.04	228.88
860.35	228.82
860.66	228.77
860.98	228.74
861.29	228.90
861.60	228.94
861.91	229.03
862.22	228.97
862.53	229.00
862.84	228.87
863.16	229.00
863.47	228.84
863.78	228.87
864.09	228.88
864.40	228.88
864.71	228.94
865.02	228.94
865.33	229.02
865.64	228.98
865.95	228.95
866.27	229.11
866.58	229.04
866.89	229.08
867.20	229.05
867.51	228.98
867.82	228.91
868.13	228.91
868.44	228.78
868.75	228.90
869.06	228.79
869.37	228.78
869.68	228.64
869.99	228.68
870.30	228.70
870.61	228.70
870.92	228.68
871.23	228.62
871.54	228.63
871.85	228.58
872.16	228.51
872.47	228.44
872.78	228.32
873.09	228.34
873.40	228.28
873.71	228.36
874.02	228.28
874.33	228.25
874.64	228.18
874.95	228.29
875.26	228.18
875.56	228.15
875.87	228.17
876.18	228.19
876.49	228.31
876.80	228.20
877.11	228.21
877.42	228.18
877.73	228.21
878.04	228.17
878.35	228.24
878.66	228.31
878.96	228.31
879.27	228.24
879.58	228.30
879.89	228.36
880.20	228.39
880.51	228.50
880.82	228.49
881.12	228.51
881.43	228.47
881.74	228.46
882.05	228.59
882.36	228.60
882.67	228.56
882.97	228.43
883.28	228.43
883.59	228.42
883.90	228.49
884.21	228.47
884.51	228.47
884.82	228.50
885.13	228.53
885.44	228.58
885.74	228.52
886.05	228.50
886.36	228.34
886.67	228.21
886.98	228.28
887.28	228.37
887.59	228.41
887.90	228.45
888.20	228.49
888.51	228.45
888.82	228.38
889.13	228.43
889.43	228.56
889.74	228.62
890.05	228.57
890.35	228.65
890.66	228.60
890.97	228.57
891.28	228.46
891.58	228.29
891.89	228.30
892.20	228.37
892.50	228.27
892.81	228.40
893.12	228.41
893.42	228.34
893.73	228.35
894.04	228.33
894.34	228.32
894.65	228.28
894.95	228.20
895.26	228.20
895.57	228.24
895.87	228.03
896.18	228.09
896.48	228.14
896.79	228.00
897.10	228.07
897.40	228.08
897.71	228.01
898.01	228.20
898.32	228.26
898.63	228.21
898.93	228.29
899.24	228.26
899.54	228.34
899.85	228.28
900.15	228.40
900.46	228.40
900.76	228.41
901.07	228.45
901.38	228.56
901.68	228.60
901.99	228.57
902.29	228.66
902.60	228.68
902.90	228.55
903.21	228.55
903.51	228.45
903.82	228.53
904.12	228.67
904.43	228.61
904.73	228.56
905.03	228.60
905.34	228.86
905.64	228.89
905.95	228.90
906.25	228.93
906.56	228.84
906.86	228.84
907.17	228.89
907.47	228.90
907.77	228.85
908.08	228.80
908.38	228.84
908.69	228.83
908.99	228.85
909.30	228.95
909.60	228.95
909.90	229.11
910.21	229.05
910.51	228.94
910.81	228.96
911.12	229.02
911.42	229.03
911.73	228.86
912.03	228.80
912.33	228.76
912.64	228.74
912.94	228.66
913.24	228.65
913.55	228.66
913.85	228.66
914.15	228.66
914.46	228.69
914.76	228.67
915.06	228.66
915.37	228.62
915.67	228.68
915.97	228.75
916.27	228.58
916.58	228.60
916.88	228.73
917.18	228.64
917.49	228.65
917.79	228.55
918.09	228.50
918.39	228.65
918.70	228.69
919.00	228.65
919.30	228.74
919.60	228.66
919.91	228.57
920.21	228.50
920.51	228.55
920.81	228.50
921.12	228.58
921.42	228.50
921.72	228.47
922.02	228.33
922.32	228.31
922.63	228.31
922.93	228.37
923.23	228.27
923.53	228.22
923.83	228.23
924.13	228.20
924.44	228.19
924.74	228.10
925.04	228.11
925.34	228.20
925.64	228.09
925.94	228.22
926.24	228.34
926.55	228.40
926.85	228.39
927.15	228.47
927.45	228.38
927.75	228.48
928.05	228.52
928.35	228.60
928.65	228.65
928.95	228.67
929.26	228.60
929.56	228.62
929.86	228.68
930.16	228.49
930.46	228.58
930.76	228.67
931.06	228.60
931.36	228.54
931.66	228.55
931.96	228.61
932.26	228.48
932.56	228.36
932.86	228.25
933.16	228.20
933.46	228.11
933.76	228.11
934.06	228.11
934.36	228.12
934.66	228.07
934.96	228.04
935.26	228.03
935.56	228.02
935.86	228.04
936.16	228.05
936.46	228.20
936.76	228.15
937.06	228.03
937.36	228.10
937.66	228.19
937.96	227.98
938.26	227.91
938.56	228.00
938.86	228.06
939.16	228.24
939.46	228.31
939.76	228.36
940.06	228.33
940.35	228.31
940.65	228.20
940.95	228.30
941.25	228.23
941.55	228.31
941.85	228.41
942.15	228.50
942.45	228.55
942.75	228.47
943.04	228.53
943.34	228.61
943.64	228.65
943.94	228.56
944.24	228.70
944.54	228.77
944.84	228.72
945.13	228.76
945.43	228.71
945.73	228.73
946.03	228.78
946.33	228.80
946.62	228.87
946.92	228.95
947.22	228.93
947.52	229.01
947.82	228.99
948.11	228.95
948.41	228.85
948.71	228.83
949.01	228.93
949.31	228.93
949.60	228.83
949.90	228.76
950.20	228.75
950.50	228.78
950.79	228.79
951.09	228.81
951.39	228.80
951.69	228.74
951.98	228.79
952.28	228.77
952.58	228.86
952.87	228.74
953.17	228.72
953.47	228.69
953.76	228.62
954.06	228.60
954.36	228.52
954.66	228.50
954.95	228.46
955.25	228.43
955.55	228.39
955.84	228.40
956.14	228.47
956.44	228.60
956.73	228.54
957.03	228.51
957.32	228.51
957.62	228.43
957.92	228.44
958.21	228.37
958.51	228.47
958.81	228.39
959.10	228.42
959.40	228.46
959.69	228.50
959.99	228.53
960.29	228.53
960.58	228.55
960.88	228.67
961.17	228.62
961.47	228.59
961.76	228.58
962.06	228.57
962.36	228.41
962.65	228.20
962.95	228.17
963.24	228.19
963.54	228.18
963.83	228.30
964.13	228.20
964.42	228.06
964.72	227.98
965.01	227.95
965.31	227.88
965.60	227.82
965.90	227.86
966.19	227.80
966.49	227.73
966.78	227.60
967.08	227.54
967.37	227.55
967.67	227.58
967.96	227.62
968.26	227.63
968.55	227.74
968.85	227.84
969.14	227.92
969.43	227.76
969.73	227.76
970.02	227.68
970.32	227.63
970.61	227.69
970.91	227.52
971.20	227.50
971.49	227.56
971.79	227.48
972.08	227.33
972.38	227.39
972.67	227.39
972.96	227.42
973.26	227.34
973.55	227.32
973.85	227.30
974.14	227.29
974.43	227.38
974.73	227.30
975.02	227.30
975.31	227.21
975.61	227.35
975.90	227.32
976.19	227.29
976.49	227.44
976.78	227.44
977.07	227.50
977.37	227.59
977.66	227.59
977.95	227.65
978.24	227.77
978.54	227.76
978.83	227.80
979.12	227.87
979.42	227.95
979.71	228.00
980.00	228.05
980.29	228.01
980.59	227.98
980.88	228.12
981.17	228.10
981.46	228.19
981.76	228.20
982.05	228.20
982.34	228.25
982.63	228.29
982.93	228.27
983.22	228.40
983.51	228.34
983.80	228.44
984.09	228.57
984.39	228.53
984.68	228.57
984.97	228.61
985.26	228.52
985.55	228.58
985.85	228.60
986.14	228.60
986.43	228.68
986.72	228.62
987.01	228.55
987.30	228.57
987.59	228.64
987.89	228.62
988.18	228.60
988.47	228.51
988.76	228.47
989.05	228.56
989.34	228.45
989.63	228.53
989.92	228.44
990.22	228.30
990.51	228.30
990.80	228.29
991.09	228.24
991.38	228.28
991.67	228.16
991.96	228.19
992.25	228.15
992.54	228.04
992.83	228.02
993.12	228.08
993.41	228.19
993.70	228.16
993.99	228.20
994.28	228.25
994.58	228.38
994.87	228.39
995.16	228.39
995.45	228.43
995.74	228.50
996.03	228.46
996.32	228.58
996.61	228.60
996.90	228.61
997.19	228.67
997.48	228.70
997.77	228.71
998.06	228.67
998.34	228.65
998.63	228.71
998.92	228.64
999.21	228.62
999.50	228.50
999.79	228.42
1000.08	228.30
1000.37	228.28
1000.66	228.20
1000.95	228.15
1001.24	228.10
1001.53	228.08
1001.82	227.93
1002.11	227.92
1002.40	227.80
1002.68	227.76
1002.97	227.75
1003.26	227.69
1003.55	227.68
1003.84	227.66
1004.13	227.73
1004.42	227.66
1004.71	227.60
1004.99	227.71
1005.28	227.66
1005.57	227.65
1005.86	227.52
1006.15	227.52
1006.44	227.57
1006.72	227.64
1007.01	227.57
1007.30	227.55
1007.59	227.57
1007.88	227.63
1008.17	227.70
1008.45	227.74
1008.74	227.73
1009.03	227.80
1009.32	227.75
1009.60	227.75
1009.89	227.81
1010.18	227.70
1010.47	227.78
1010.76	227.81
1011.04	227.80
1011.33	227.90
1011.62	227.89
1011.91	227.94
1012.19	228.01
1012.48	227.94
1012.77	227.90
1013.05	228.12
1013.34	228.20
1013.63	228.24
1013.92	228.33
1014.20	228.30
1014.49	228.32
1014.78	228.30
1015.06	228.22
1015.35	228.27
1015.64	228.33
1015.92	228.32
1016.21	228.30
1016.50	228.18
1016.78	228.18
1017.07	228.20
1017.36	228.04
1017.64	227.99
1017.93	228.19
1018.22	228.13
1018.50	228.15
1018.79	228.21
1019.08	228.11
1019.36	228.14
1019.65	228.09
1019.93	228.03
1020.22	228.07
1020.51	228.19
1020.79	228.22
1021.08	227.00
1021.36	227.20
1021.65	229.60
1021.94	228.90
1022.22	229.50
1022.51	228.10
1022.79	230.00
1023.08	228.70
1023.36	231.60
1023.65	228.00
>>>>>End Processed Spectral Data<<<<<
