SpectraSuite Data File
++++++++++++++++++++++++++++++++++++
Date: Fri Feb 01 14:33:53 EST 2013
User: group
Dark Spectrum Present: No
Reference Spectrum Present: No
Number of Sampled Component Spectra: 1
Spectrometers: USB2E7196
Integration Time (usec): 70000 (USB2E7196)
Spectra Averaged: 10 (USB2E7196)
Boxcar Smoothing: 10 (USB2E7196)
Correct for Electrical Dark: No (USB2E7196)
Strobe/Lamp Enabled: No (USB2E7196)
Correct for Detector Non-linearity: No (USB2E7196)
Correct for Stray Light: No (USB2E7196)
Number of Pixels in Processed Spectrum: 2048
>>>>>Begin Processed Spectral Data<<<<<
339.09	0.00
339.48	218.50
339.86	218.30
340.24	219.90
340.63	222.20
341.01	224.60
341.39	223.60
341.78	224.60
342.16	226.00
342.54	225.60
342.93	215.22
343.31	226.04
343.69	226.41
344.07	226.85
344.46	227.26
344.84	227.55
345.22	227.82
345.60	228.04
345.99	228.16
346.37	228.38
346.75	228.50
347.13	228.53
347.52	228.59
347.90	228.64
348.28	228.64
348.66	228.76
349.05	228.69
349.43	228.72
349.81	228.70
350.19	228.71
350.57	228.76
350.96	228.80
351.34	228.81
351.72	228.94
352.10	229.04
352.48	229.00
352.87	229.10
353.25	229.13
353.63	229.17
354.01	229.24
354.39	229.25
354.77	229.38
355.15	229.53
355.54	229.49
355.92	229.51
356.30	229.47
356.68	229.69
357.06	229.71
357.44	229.67
357.82	229.74
358.20	229.73
358.58	229.91
358.97	229.97
359.35	230.07
359.73	230.15
360.11	230.08
360.49	230.24
360.87	230.28
361.25	230.30
361.63	230.47
362.01	230.59
362.39	230.60
362.77	230.64
363.15	230.66
363.53	230.68
363.91	230.79
364.29	231.00
364.67	230.72
365.05	230.80
365.43	230.88
365.81	231.06
366.19	231.28
366.57	231.31
366.95	231.35
367.33	231.41
367.71	231.52
368.09	231.65
368.47	231.67
368.85	231.68
369.23	231.70
369.61	231.58
369.99	231.64
370.37	231.65
370.75	231.67
371.13	231.58
371.51	231.55
371.89	231.41
372.27	231.27
372.65	231.30
373.03	231.27
373.41	231.26
373.78	231.21
374.16	231.02
374.54	230.93
374.92	230.86
375.30	230.80
375.68	230.53
376.06	230.50
376.44	230.40
376.82	230.30
377.19	230.21
377.57	230.14
377.95	230.00
378.33	229.83
378.71	229.62
379.09	229.55
379.47	229.55
379.84	229.50
380.22	229.42
380.60	229.33
380.98	229.28
381.36	229.11
381.73	228.96
382.11	228.93
382.49	228.80
382.87	228.66
383.25	228.62
383.62	228.87
384.00	228.72
384.38	228.61
384.76	228.63
385.13	228.57
385.51	228.45
385.89	228.29
386.27	228.25
386.64	228.26
387.02	228.12
387.40	227.95
387.78	227.90
388.15	227.83
388.53	227.77
388.91	227.79
389.29	227.73
389.66	227.67
390.04	227.54
390.42	227.54
390.79	227.54
391.17	227.50
391.55	227.27
391.92	227.27
392.30	227.34
392.68	227.27
393.05	227.23
393.43	227.26
393.81	227.33
394.18	227.31
394.56	227.27
394.94	227.44
395.31	227.51
395.69	227.55
396.06	227.68
396.44	227.72
396.82	227.78
397.19	228.04
397.57	228.07
397.95	228.15
398.32	228.21
398.70	228.33
399.07	228.47
399.45	228.60
399.82	228.72
400.20	228.61
400.58	228.84
400.95	229.02
401.33	229.24
401.70	229.51
402.08	229.80
402.45	230.08
402.83	230.31
403.20	230.58
403.58	230.85
403.95	231.12
404.33	231.42
404.71	231.68
405.08	232.07
405.46	232.50
405.83	232.91
406.21	233.32
406.58	233.77
406.96	234.21
407.33	234.61
407.70	235.19
408.08	236.13
408.45	236.72
408.83	237.40
409.20	238.18
409.58	238.75
409.95	239.46
410.33	240.36
410.70	241.20
411.08	242.03
411.45	243.00
411.82	243.94
412.20	245.10
412.57	246.33
412.95	247.36
413.32	248.66
413.69	249.94
414.07	251.40
414.44	253.05
414.82	254.60
415.19	256.51
415.56	258.44
415.94	260.25
416.31	262.34
416.68	264.50
417.06	266.90
417.43	269.27
417.81	272.20
418.18	274.95
418.55	278.03
418.93	281.37
419.30	284.75
419.67	288.23
420.04	291.84
420.42	295.55
420.79	299.88
421.16	304.10
421.54	308.53
421.91	313.10
422.28	317.72
422.66	322.82
423.03	327.66
423.40	332.82
423.77	338.44
424.15	344.05
424.52	349.87
424.89	356.06
425.26	362.36
425.64	367.95
426.01	374.24
426.38	380.64
426.75	387.21
427.13	394.28
427.50	401.46
427.87	408.95
428.24	416.60
428.61	423.86
428.99	431.78
429.36	440.50
429.73	448.89
430.10	457.17
430.47	465.71
430.85	474.44
431.22	483.59
431.59	493.15
431.96	502.44
432.33	512.65
432.70	523.00
433.08	534.57
433.45	545.93
433.82	557.00
434.19	569.46
434.56	581.57
434.93	592.89
435.30	604.52
435.68	617.12
436.05	629.59
436.42	641.96
436.79	653.17
437.16	665.09
437.53	678.01
437.90	690.86
438.27	703.47
438.64	716.58
439.01	728.72
439.38	739.68
439.75	750.13
440.13	762.34
440.50	773.48
440.87	783.02
441.24	792.63
441.61	803.45
441.98	811.46
442.35	820.88
442.72	830.36
443.09	839.83
443.46	846.06
443.83	850.63
444.20	854.36
444.57	860.16
444.94	863.58
445.31	866.76
445.68	869.72
446.05	871.78
446.42	872.11
446.79	872.22
447.16	872.04
447.53	872.55
447.90	869.30
448.27	866.11
448.64	860.65
449.01	857.56
449.37	850.37
449.74	843.68
450.11	834.99
450.48	825.81
450.85	816.29
451.22	808.20
451.59	800.32
451.96	793.31
452.33	782.83
452.70	773.55
453.07	762.27
453.43	751.04
453.80	739.95
454.17	729.11
454.54	718.74
454.91	707.54
455.28	696.54
455.65	686.38
456.02	675.64
456.38	666.82
456.75	655.49
457.12	646.44
457.49	637.16
457.86	628.46
458.23	620.73
458.59	611.96
458.96	603.03
459.33	595.30
459.70	587.48
460.07	581.25
460.43	573.81
460.80	566.82
461.17	560.78
461.54	554.46
461.91	548.44
462.27	542.19
462.64	537.08
463.01	531.30
463.38	525.72
463.74	520.59
464.11	515.83
464.48	511.58
464.85	506.74
465.21	503.13
465.58	499.25
465.95	494.58
466.32	490.65
466.68	486.85
467.05	482.96
467.42	479.07
467.78	475.13
468.15	471.52
468.52	468.70
468.88	465.07
469.25	461.78
469.62	459.02
469.98	456.33
470.35	453.62
470.72	451.00
471.08	448.14
471.45	445.68
471.82	443.32
472.18	440.60
472.55	438.70
472.92	436.36
473.28	434.25
473.65	432.42
474.02	430.23
474.38	428.50
474.75	426.90
475.11	425.31
475.48	424.01
475.85	423.12
476.21	422.27
476.58	421.28
476.94	420.68
477.31	419.83
477.67	418.95
478.04	418.30
478.41	417.91
478.77	417.63
479.14	417.09
479.50	416.98
479.87	417.06
480.23	417.20
480.60	417.03
480.96	416.93
481.33	417.24
481.69	417.76
482.06	418.10
482.42	418.42
482.79	418.90
483.15	419.50
483.52	420.10
483.88	420.58
484.25	421.26
484.61	421.83
484.98	422.76
485.34	424.01
485.71	425.29
486.07	426.48
486.44	427.74
486.80	429.35
487.17	430.98
487.53	432.65
487.90	434.49
488.26	436.73
488.62	439.05
488.99	441.00
489.35	443.38
489.72	445.90
490.08	448.47
490.44	451.23
490.81	453.98
491.17	456.82
491.54	459.95
491.90	463.09
492.26	466.47
492.63	469.96
492.99	473.23
493.36	476.67
493.72	480.57
494.08	484.44
494.45	488.40
494.81	492.40
495.17	496.80
495.54	501.03
495.90	505.27
496.26	509.52
496.63	514.40
496.99	519.18
497.35	524.19
497.72	529.37
498.08	534.29
498.44	539.38
498.80	544.94
499.17	550.39
499.53	555.63
499.89	561.27
500.26	566.80
500.62	572.34
500.98	578.16
501.34	584.04
501.71	589.83
502.07	595.60
502.43	601.54
502.79	607.17
503.16	613.22
503.52	619.31
503.88	625.45
504.24	631.40
504.60	637.30
504.97	643.17
505.33	649.32
505.69	655.60
506.05	661.89
506.41	667.44
506.78	673.49
507.14	680.02
507.50	686.14
507.86	692.14
508.22	698.51
508.59	704.42
508.95	710.29
509.31	716.23
509.67	722.40
510.03	728.37
510.39	734.33
510.75	739.95
511.12	745.69
511.48	751.60
511.84	757.21
512.20	762.98
512.56	768.66
512.92	774.06
513.28	779.45
513.64	784.72
514.00	790.23
514.37	795.45
514.73	800.19
515.09	805.01
515.45	810.00
515.81	814.69
516.17	819.86
516.53	824.62
516.89	829.20
517.25	833.48
517.61	837.69
517.97	842.02
518.33	846.22
518.69	850.44
519.05	854.51
519.41	858.51
519.77	862.61
520.13	866.70
520.49	870.75
520.85	874.47
521.21	878.06
521.57	881.99
521.93	885.35
522.29	889.17
522.65	892.60
523.01	895.90
523.37	898.87
523.73	901.67
524.09	904.64
524.45	907.95
524.81	911.21
525.17	914.67
525.53	917.82
525.89	920.98
526.25	924.00
526.61	926.40
526.97	929.26
527.33	931.76
527.68	934.39
528.04	936.83
528.40	939.63
528.76	942.85
529.12	945.61
529.48	948.49
529.84	950.81
530.20	953.85
530.56	957.00
530.91	960.63
531.27	963.71
531.63	966.55
531.99	969.41
532.35	972.09
532.71	974.34
533.07	977.06
533.42	979.84
533.78	982.42
534.14	985.49
534.50	988.13
534.86	990.98
535.21	993.51
535.57	996.25
535.93	998.76
536.29	1000.98
536.65	1003.40
537.00	1005.49
537.36	1008.49
537.72	1010.58
538.08	1012.63
538.44	1014.43
538.79	1016.72
539.15	1018.63
539.51	1020.97
539.87	1023.73
540.22	1026.67
540.58	1029.20
540.94	1031.40
541.29	1033.52
541.65	1035.88
542.01	1038.41
542.37	1040.70
542.72	1043.04
543.08	1045.07
543.44	1047.68
543.79	1049.95
544.15	1052.19
544.51	1055.25
544.87	1057.24
545.22	1059.81
545.58	1062.02
545.94	1064.27
546.29	1066.10
546.65	1068.68
547.01	1070.70
547.36	1072.33
547.72	1073.94
548.07	1075.73
548.43	1077.58
548.79	1079.72
549.14	1081.50
549.50	1083.03
549.86	1084.65
550.21	1086.31
550.57	1088.34
550.92	1089.65
551.28	1091.18
551.64	1092.77
551.99	1094.25
552.35	1095.93
552.70	1097.53
553.06	1099.51
553.41	1101.07
553.77	1103.11
554.13	1104.74
554.48	1106.32
554.84	1108.12
555.19	1109.71
555.55	1111.34
555.90	1112.74
556.26	1114.43
556.61	1115.98
556.97	1117.39
557.32	1119.00
557.68	1120.59
558.03	1122.19
558.39	1123.42
558.74	1125.15
559.10	1126.82
559.45	1128.41
559.81	1130.34
560.16	1131.26
560.52	1132.49
560.87	1134.02
561.23	1135.41
561.58	1136.89
561.94	1138.15
562.29	1139.01
562.64	1139.88
563.00	1140.81
563.35	1142.69
563.71	1144.40
564.06	1145.79
564.42	1147.00
564.77	1148.53
565.12	1149.64
565.48	1150.77
565.83	1152.08
566.19	1153.25
566.54	1153.89
566.89	1154.51
567.25	1155.00
567.60	1156.46
567.96	1157.15
568.31	1157.99
568.66	1158.44
569.02	1158.76
569.37	1158.81
569.72	1159.56
570.08	1160.27
570.43	1160.76
570.78	1160.63
571.14	1159.90
571.49	1159.87
571.84	1160.53
572.20	1160.12
572.55	1160.23
572.90	1159.72
573.26	1159.44
573.61	1159.19
573.96	1158.72
574.31	1157.71
574.67	1156.62
575.02	1155.22
575.37	1154.47
575.72	1153.15
576.08	1152.30
576.43	1151.42
576.78	1150.80
577.13	1149.70
577.49	1148.52
577.84	1147.30
578.19	1146.00
578.54	1144.94
578.90	1143.40
579.25	1141.38
579.60	1139.53
579.95	1137.68
580.30	1135.97
580.66	1134.37
581.01	1132.08
581.36	1130.52
581.71	1129.22
582.06	1127.63
582.42	1126.15
582.77	1124.32
583.12	1122.59
583.47	1120.51
583.82	1118.84
584.17	1116.50
584.53	1114.63
584.88	1112.78
585.23	1110.62
585.58	1108.61
585.93	1106.36
586.28	1104.63
586.63	1102.78
586.98	1101.11
587.34	1099.07
587.69	1097.31
588.04	1095.22
588.39	1093.30
588.74	1090.42
589.09	1087.75
589.44	1085.25
589.79	1083.18
590.14	1080.78
590.49	1078.31
590.84	1075.93
591.19	1073.26
591.54	1070.67
591.89	1067.23
592.25	1064.80
592.60	1061.77
592.95	1058.67
593.30	1055.66
593.65	1052.62
594.00	1049.43
594.35	1046.77
594.70	1043.62
595.05	1040.40
595.40	1037.01
595.75	1033.51
596.10	1030.89
596.45	1028.21
596.80	1025.37
597.15	1022.19
597.50	1018.86
597.85	1016.34
598.19	1013.35
598.54	1010.34
598.89	1007.77
599.24	1005.50
599.59	1002.15
599.94	999.52
600.29	996.72
600.64	993.92
600.99	990.41
601.34	987.41
601.69	983.72
602.04	980.60
602.39	977.37
602.74	974.57
603.08	971.84
603.43	968.98
603.78	965.73
604.13	962.65
604.48	959.30
604.83	956.30
605.18	952.81
605.53	949.24
605.87	945.62
606.22	941.91
606.57	938.36
606.92	934.96
607.27	931.82
607.62	929.00
607.96	925.84
608.31	922.82
608.66	919.60
609.01	916.13
609.36	912.45
609.70	908.54
610.05	904.71
610.40	901.41
610.75	897.49
611.10	893.54
611.44	889.54
611.79	885.86
612.14	882.00
612.49	877.67
612.83	873.75
613.18	870.13
613.53	866.55
613.88	862.45
614.22	858.52
614.57	854.21
614.92	849.91
615.27	845.85
615.61	841.81
615.96	837.77
616.31	834.27
616.65	831.05
617.00	827.70
617.35	824.20
617.70	820.29
618.04	816.37
618.39	812.93
618.74	809.66
619.08	805.94
619.43	802.10
619.78	798.85
620.12	795.18
620.47	791.36
620.82	787.65
621.16	784.16
621.51	780.83
621.85	777.59
622.20	774.04
622.55	770.89
622.89	767.48
623.24	764.13
623.59	760.85
623.93	757.33
624.28	753.80
624.62	750.55
624.97	747.17
625.32	744.18
625.66	741.03
626.01	737.60
626.35	734.34
626.70	731.18
627.04	727.85
627.39	724.74
627.73	721.52
628.08	718.34
628.43	715.01
628.77	711.62
629.12	708.11
629.46	704.71
629.81	701.03
630.15	697.72
630.50	694.35
630.84	690.74
631.19	687.12
631.53	683.95
631.88	680.31
632.22	676.64
632.57	673.41
632.91	669.90
633.26	666.43
633.60	663.00
633.95	659.78
634.29	656.80
634.64	653.70
634.98	650.43
635.32	647.38
635.67	644.60
636.01	641.71
636.36	638.70
636.70	635.97
637.05	633.20
637.39	630.39
637.73	627.48
638.08	625.00
638.42	622.24
638.77	619.52
639.11	616.40
639.45	613.65
639.80	610.46
640.14	607.73
640.49	605.27
640.83	602.45
641.17	599.72
641.52	596.70
641.86	593.97
642.20	591.39
642.55	588.64
642.89	585.90
643.23	583.11
643.58	580.42
643.92	577.43
644.26	574.61
644.61	572.09
644.95	569.51
645.29	566.48
645.64	563.82
645.98	561.04
646.32	558.90
646.66	556.19
647.01	553.61
647.35	551.01
647.69	548.23
648.04	545.80
648.38	543.10
648.72	540.33
649.06	537.52
649.41	534.98
649.75	532.07
650.09	529.39
650.43	526.66
650.78	523.98
651.12	521.38
651.46	518.64
651.80	515.89
652.14	513.43
652.49	510.92
652.83	508.26
653.17	505.74
653.51	503.00
653.85	500.59
654.20	498.15
654.54	495.44
654.88	492.84
655.22	490.11
655.56	487.62
655.90	485.38
656.25	483.16
656.59	480.78
656.93	478.67
657.27	476.21
657.61	473.84
657.95	471.80
658.29	469.51
658.64	467.54
658.98	465.22
659.32	462.77
659.66	460.36
660.00	458.31
660.34	456.01
660.68	453.74
661.02	451.62
661.36	449.56
661.70	447.56
662.05	445.61
662.39	443.78
662.73	441.82
663.07	439.87
663.41	437.95
663.75	435.99
664.09	433.90
664.43	431.97
664.77	430.09
665.11	428.17
665.45	426.23
665.79	424.26
666.13	422.36
666.47	420.51
666.81	418.77
667.15	416.76
667.49	415.04
667.83	413.37
668.17	411.60
668.51	409.73
668.85	407.90
669.19	406.31
669.53	404.56
669.87	402.90
670.21	401.22
670.55	399.51
670.89	398.06
671.23	396.67
671.57	395.09
671.91	393.49
672.25	391.79
672.58	390.55
672.92	389.01
673.26	387.67
673.60	386.26
673.94	384.86
674.28	383.56
674.62	382.17
674.96	380.79
675.30	379.50
675.64	378.38
675.97	377.22
676.31	375.78
676.65	374.45
676.99	373.30
677.33	371.78
677.67	370.39
678.01	368.81
678.34	367.42
678.68	366.27
679.02	365.04
679.36	363.84
679.70	362.46
680.04	361.20
680.37	359.74
680.71	358.46
681.05	357.30
681.39	356.14
681.73	355.06
682.06	353.95
682.40	352.68
682.74	351.25
683.08	350.11
683.42	348.88
683.75	347.71
684.09	346.41
684.43	345.41
684.77	344.36
685.10	343.25
685.44	342.11
685.78	340.96
686.12	339.77
686.45	338.68
686.79	337.61
687.13	336.54
687.46	335.50
687.80	334.49
688.14	333.33
688.48	332.30
688.81	331.00
689.15	329.84
689.49	328.72
689.82	327.73
690.16	326.58
690.50	325.67
690.83	324.68
691.17	323.64
691.51	322.83
691.84	321.83
692.18	320.85
692.52	319.87
692.85	318.93
693.19	318.12
693.52	317.13
693.86	316.06
694.20	315.05
694.53	314.26
694.87	313.26
695.21	312.31
695.54	311.40
695.88	310.65
696.21	309.79
696.55	308.96
696.88	308.10
697.22	307.28
697.56	306.27
697.89	305.46
698.23	304.67
698.56	303.69
698.90	302.91
699.23	302.15
699.57	301.41
699.90	300.62
700.24	299.79
700.58	298.91
700.91	298.15
701.25	297.50
701.58	296.80
701.92	296.12
702.25	295.32
702.59	294.42
702.92	293.62
703.26	292.95
703.59	292.28
703.93	291.85
704.26	291.17
704.60	290.57
704.93	289.85
705.26	289.07
705.60	288.43
705.93	287.70
706.27	287.14
706.60	286.58
706.94	285.94
707.27	285.25
707.61	284.65
707.94	284.14
708.27	283.50
708.61	282.74
708.94	282.09
709.28	281.70
709.61	281.30
709.94	280.82
710.28	280.27
710.61	279.65
710.95	278.88
711.28	278.35
711.61	277.78
711.95	277.22
712.28	276.58
712.61	276.04
712.95	275.59
713.28	275.09
713.61	274.44
713.95	273.95
714.28	273.46
714.61	273.09
714.95	272.54
715.28	272.11
715.61	271.62
715.95	271.22
716.28	270.60
716.61	269.99
716.95	269.43
717.28	268.96
717.61	268.50
717.94	268.04
718.28	267.58
718.61	267.16
718.94	266.78
719.27	266.59
719.61	266.21
719.94	265.81
720.27	265.30
720.60	264.94
720.94	264.60
721.27	264.31
721.60	263.87
721.93	263.51
722.27	263.12
722.60	262.83
722.93	262.47
723.26	262.25
723.59	262.02
723.93	261.74
724.26	261.41
724.59	261.10
724.92	260.86
725.25	260.62
725.59	260.32
725.92	260.03
726.25	259.73
726.58	259.40
726.91	259.07
727.24	258.89
727.57	258.61
727.91	258.30
728.24	258.00
728.57	257.82
728.90	257.59
729.23	257.23
729.56	257.12
729.89	256.82
730.22	256.46
730.55	256.18
730.89	256.00
731.22	255.75
731.55	255.57
731.88	255.22
732.21	254.96
732.54	254.70
732.87	254.41
733.20	254.07
733.53	253.85
733.86	253.72
734.19	253.37
734.52	253.06
734.85	252.92
735.18	252.58
735.51	252.25
735.84	251.96
736.17	251.80
736.50	251.40
736.83	251.49
737.16	251.34
737.49	251.12
737.82	250.86
738.15	250.56
738.48	250.35
738.81	250.23
739.14	249.99
739.47	249.82
739.80	249.66
740.13	249.50
740.46	249.29
740.79	248.96
741.12	248.77
741.45	248.73
741.78	248.42
742.11	248.30
742.44	248.08
742.77	247.96
743.10	247.84
743.43	247.69
743.75	247.31
744.08	247.45
744.41	247.24
744.74	247.00
745.07	246.90
745.40	246.66
745.73	246.51
746.06	246.33
746.39	246.11
746.71	245.86
747.04	245.68
747.37	245.38
747.70	245.25
748.03	245.08
748.36	244.80
748.68	244.61
749.01	244.36
749.34	244.18
749.67	243.90
750.00	243.65
750.33	243.41
750.65	243.07
750.98	242.52
751.31	242.33
751.64	242.10
751.97	242.00
752.29	241.92
752.62	241.65
752.95	241.44
753.28	241.29
753.60	241.15
753.93	241.05
754.26	240.91
754.59	240.71
754.91	240.60
755.24	240.48
755.57	240.30
755.90	240.14
756.22	240.00
756.55	239.81
756.88	239.63
757.20	239.43
757.53	239.22
757.86	239.15
758.19	239.06
758.51	238.96
758.84	238.73
759.17	238.49
759.49	238.30
759.82	238.25
760.15	238.14
760.47	238.01
760.80	237.78
761.13	237.72
761.45	237.59
761.78	237.38
762.11	237.27
762.43	237.23
762.76	237.20
763.08	237.09
763.41	237.04
763.74	236.98
764.06	236.93
764.39	236.96
764.71	236.82
765.04	236.65
765.37	236.59
765.69	236.42
766.02	236.35
766.34	236.35
766.67	236.21
767.00	236.05
767.32	236.13
767.65	236.19
767.97	236.15
768.30	236.05
768.62	236.06
768.95	235.96
769.27	235.84
769.60	235.74
769.92	235.74
770.25	235.71
770.57	235.56
770.90	235.60
771.22	235.51
771.55	235.49
771.87	235.41
772.20	235.42
772.52	235.62
772.85	235.87
773.17	235.82
773.50	235.80
773.82	235.67
774.15	235.51
774.47	235.37
774.80	235.22
775.12	235.30
775.45	235.17
775.77	235.13
776.09	235.03
776.42	235.07
776.74	235.11
777.07	235.10
777.39	235.07
777.72	234.89
778.04	234.91
778.36	234.89
778.69	235.00
779.01	234.97
779.33	234.79
779.66	234.54
779.98	234.56
780.31	234.53
780.63	234.62
780.95	234.59
781.28	234.51
781.60	234.51
781.92	234.35
782.25	234.37
782.57	234.28
782.89	234.22
783.22	234.09
783.54	233.93
783.86	233.85
784.19	233.91
784.51	234.01
784.83	233.93
785.16	233.89
785.48	233.76
785.80	233.62
786.12	233.67
786.45	233.55
786.77	233.53
787.09	233.42
787.42	233.36
787.74	233.34
788.06	233.23
788.38	233.17
788.71	233.09
789.03	232.99
789.35	233.02
789.67	232.95
789.99	232.93
790.32	232.86
790.64	232.75
790.96	232.83
791.28	232.55
791.61	232.54
791.93	232.33
792.25	232.25
792.57	232.41
792.89	232.19
793.21	232.15
793.54	231.99
793.86	231.95
794.18	231.86
794.50	231.76
794.82	231.75
795.14	231.66
795.47	231.60
795.79	231.56
796.11	231.40
796.43	231.37
796.75	231.22
797.07	231.19
797.39	231.16
797.71	231.01
798.04	230.92
798.36	230.77
798.68	230.80
799.00	230.81
799.32	230.49
799.64	230.48
799.96	230.41
800.28	230.33
800.60	230.26
800.92	230.21
801.24	230.07
801.56	230.01
801.89	229.94
802.21	229.93
802.53	229.90
802.85	229.84
803.17	229.86
803.49	230.00
803.81	229.91
804.13	229.92
804.45	229.76
804.77	229.88
805.09	229.79
805.41	229.80
805.73	229.63
806.05	229.72
806.37	229.64
806.69	229.58
807.01	229.60
807.33	229.59
807.65	229.51
807.97	229.70
808.28	229.72
808.60	229.90
808.92	229.86
809.24	229.91
809.56	229.99
809.88	229.89
810.20	229.72
810.52	229.77
810.84	229.76
811.16	229.77
811.48	229.80
811.80	230.02
812.12	229.97
812.43	230.19
812.75	230.19
813.07	230.30
813.39	230.28
813.71	230.23
814.03	230.15
814.35	230.14
814.67	230.08
814.98	229.99
815.30	229.91
815.62	229.93
815.94	229.85
816.26	229.96
816.58	230.05
816.89	230.06
817.21	230.09
817.53	230.05
817.85	230.08
818.17	230.02
818.48	229.88
818.80	229.97
819.12	229.88
819.44	229.78
819.76	229.71
820.07	229.85
820.39	229.90
820.71	230.07
821.03	230.07
821.34	230.06
821.66	230.17
821.98	230.20
822.30	230.24
822.61	230.38
822.93	230.26
823.25	230.24
823.57	230.37
823.88	230.36
824.20	230.36
824.52	230.33
824.83	230.34
825.15	230.36
825.47	230.27
825.79	230.22
826.10	230.27
826.42	230.30
826.74	230.33
827.05	230.30
827.37	230.25
827.69	230.27
828.00	230.22
828.32	230.24
828.64	230.08
828.95	230.17
829.27	230.04
829.58	230.09
829.90	229.97
830.22	229.93
830.53	229.89
830.85	229.79
831.17	229.78
831.48	229.78
831.80	229.81
832.11	229.82
832.43	229.79
832.75	229.75
833.06	229.80
833.38	229.63
833.69	229.51
834.01	229.46
834.32	229.43
834.64	229.30
834.96	229.19
835.27	229.26
835.59	229.11
835.90	229.16
836.22	229.00
836.53	229.03
836.85	228.91
837.16	229.15
837.48	229.24
837.79	229.28
838.11	229.26
838.42	229.16
838.74	229.22
839.05	229.20
839.37	229.15
839.68	229.00
840.00	228.99
840.31	229.02
840.63	228.96
840.94	228.86
841.26	228.93
841.57	228.95
841.88	228.99
842.20	228.99
842.51	228.84
842.83	228.87
843.14	229.01
843.46	229.00
843.77	228.77
844.08	228.65
844.40	228.49
844.71	228.45
845.03	228.38
845.34	228.20
845.65	228.15
845.97	228.13
846.28	228.14
846.60	228.16
846.91	228.19
847.22	228.20
847.54	228.29
847.85	228.25
848.16	228.23
848.48	228.14
848.79	228.15
849.10	228.19
849.42	228.20
849.73	227.96
850.04	227.90
850.36	227.85
850.67	227.89
850.98	228.00
851.30	228.08
851.61	228.16
851.92	228.23
852.23	228.29
852.55	228.39
852.86	228.36
853.17	228.50
853.49	228.50
853.80	228.57
854.11	228.64
854.42	228.71
854.74	228.71
855.05	228.73
855.36	228.67
855.67	228.75
855.99	228.75
856.30	229.07
856.61	229.19
856.92	229.24
857.23	229.30
857.55	229.28
857.86	229.26
858.17	229.28
858.48	229.29
858.79	229.35
859.11	229.41
859.42	229.48
859.73	229.41
860.04	229.42
860.35	229.44
860.66	229.43
860.98	229.52
861.29	229.65
861.60	229.71
861.91	229.78
862.22	229.77
862.53	229.80
862.84	229.71
863.16	229.81
863.47	229.80
863.78	229.89
864.09	229.92
864.40	229.98
864.71	230.04
865.02	230.10
865.33	230.10
865.64	230.02
865.95	230.02
866.27	230.02
866.58	230.06
866.89	229.99
867.20	229.97
867.51	229.90
867.82	229.80
868.13	229.81
868.44	229.86
868.75	229.87
869.06	229.83
869.37	229.72
869.68	229.60
869.99	229.57
870.30	229.48
870.61	229.48
870.92	229.48
871.23	229.38
871.54	229.30
871.85	229.32
872.16	229.35
872.47	229.35
872.78	229.39
873.09	229.37
873.40	229.44
873.71	229.40
874.02	229.33
874.33	229.40
874.64	229.34
874.95	229.30
875.26	229.21
875.56	229.14
875.87	229.20
876.18	229.20
876.49	229.44
876.80	229.40
877.11	229.35
877.42	229.33
877.73	229.34
878.04	229.34
878.35	229.30
878.66	229.26
878.96	229.13
879.27	228.96
879.58	229.00
879.89	228.85
880.20	228.89
880.51	228.85
880.82	228.76
881.12	228.73
881.43	228.64
881.74	228.56
882.05	228.56
882.36	228.41
882.67	228.41
882.97	228.15
883.28	228.09
883.59	228.06
883.90	228.06
884.21	228.11
884.51	228.07
884.82	227.99
885.13	228.00
885.44	228.11
885.74	228.16
886.05	228.08
886.36	228.18
886.67	228.08
886.98	228.21
887.28	228.20
887.59	228.20
887.90	228.20
888.20	228.20
888.51	228.23
888.82	228.32
889.13	228.25
889.43	228.42
889.74	228.41
890.05	228.33
890.35	228.24
890.66	228.14
890.97	228.19
891.28	228.10
891.58	228.13
891.89	228.02
892.20	228.02
892.50	228.02
892.81	227.94
893.12	227.95
893.42	227.79
893.73	227.72
894.04	227.76
894.34	227.75
894.65	227.82
894.95	227.87
895.26	227.83
895.57	227.92
895.87	227.77
896.18	227.81
896.48	227.95
896.79	227.89
897.10	228.00
897.40	228.03
897.71	228.22
898.01	228.14
898.32	228.38
898.63	228.41
898.93	228.47
899.24	228.59
899.54	228.77
899.85	228.72
900.15	228.85
900.46	228.91
900.76	229.06
901.07	229.08
901.38	229.11
901.68	229.23
901.99	229.26
902.29	229.28
902.60	229.34
902.90	229.35
903.21	229.48
903.51	229.42
903.82	229.44
904.12	229.41
904.43	229.46
904.73	229.40
905.03	229.45
905.34	229.60
905.64	229.62
905.95	229.57
906.25	229.76
906.56	229.76
906.86	229.75
907.17	229.65
907.47	229.71
907.77	229.70
908.08	229.58
908.38	229.61
908.69	229.57
908.99	229.56
909.30	229.50
909.60	229.51
909.90	229.52
910.21	229.47
910.51	229.39
910.81	229.34
911.12	229.26
911.42	229.16
911.73	228.97
912.03	228.95
912.33	228.92
912.64	228.90
912.94	228.89
913.24	228.88
913.55	228.91
913.85	228.89
914.15	228.90
914.46	228.97
914.76	228.85
915.06	228.88
915.37	228.86
915.67	228.88
915.97	228.79
916.27	228.66
916.58	228.60
916.88	228.63
917.18	228.70
917.49	228.75
917.79	228.77
918.09	228.69
918.39	228.72
918.70	228.60
919.00	228.51
919.30	228.52
919.60	228.40
919.91	228.36
920.21	228.29
920.51	228.12
920.81	228.01
921.12	228.02
921.42	227.97
921.72	227.97
922.02	227.83
922.32	227.95
922.63	227.91
922.93	227.98
923.23	227.97
923.53	227.87
923.83	227.79
924.13	227.70
924.44	227.70
924.74	227.61
925.04	227.71
925.34	227.67
925.64	227.55
925.94	227.56
926.24	227.54
926.55	227.44
926.85	227.46
927.15	227.41
927.45	227.32
927.75	227.25
928.05	227.20
928.35	227.20
928.65	227.17
928.95	227.27
929.26	227.26
929.56	227.24
929.86	227.19
930.16	227.02
930.46	227.04
930.76	227.14
931.06	227.07
931.36	227.01
931.66	226.99
931.96	227.00
932.26	227.00
932.56	226.98
932.86	227.11
933.16	227.24
933.46	227.30
933.76	227.40
934.06	227.61
934.36	227.78
934.66	227.93
934.96	227.91
935.26	227.88
935.56	227.87
935.86	227.82
936.16	227.82
936.46	227.95
936.76	228.05
937.06	227.98
937.36	228.06
937.66	228.12
937.96	228.27
938.26	228.34
938.56	228.39
938.86	228.48
939.16	228.54
939.46	228.44
939.76	228.44
940.06	228.48
940.35	228.40
940.65	228.32
940.95	228.27
941.25	228.20
941.55	228.33
941.85	228.37
942.15	228.52
942.45	228.67
942.75	228.67
943.04	228.67
943.34	228.77
943.64	228.82
943.94	228.83
944.24	228.79
944.54	228.87
944.84	228.95
945.13	228.87
945.43	228.80
945.73	228.91
946.03	228.98
946.33	228.95
946.62	228.94
946.92	228.89
947.22	229.01
947.52	229.01
947.82	228.96
948.11	229.00
948.41	228.90
948.71	228.87
949.01	228.88
949.31	228.87
949.60	228.81
949.90	228.78
950.20	228.82
950.50	228.80
950.79	228.67
951.09	228.54
951.39	228.52
951.69	228.53
951.98	228.51
952.28	228.50
952.58	228.43
952.87	228.36
953.17	228.42
953.47	228.32
953.76	228.39
954.06	228.31
954.36	228.22
954.66	228.10
954.95	228.07
955.25	228.01
955.55	228.07
955.84	227.98
956.14	227.90
956.44	227.78
956.73	227.67
957.03	227.61
957.32	227.61
957.62	227.63
957.92	227.59
958.21	227.48
958.51	227.57
958.81	227.55
959.10	227.60
959.40	227.49
959.69	227.48
959.99	227.43
960.29	227.35
960.58	227.22
960.88	227.39
961.17	227.40
961.47	227.45
961.76	227.30
962.06	227.33
962.36	227.30
962.65	227.32
962.95	227.38
963.24	227.37
963.54	227.36
963.83	227.35
964.13	227.43
964.42	227.29
964.72	227.20
965.01	227.30
965.31	227.24
965.60	227.28
965.90	227.38
966.19	227.38
966.49	227.52
966.78	227.68
967.08	227.66
967.37	227.66
967.67	227.67
967.96	227.79
968.26	227.82
968.55	227.91
968.85	228.00
969.14	228.17
969.43	228.25
969.73	228.31
970.02	228.37
970.32	228.48
970.61	228.71
970.91	228.73
971.20	228.72
971.49	228.92
971.79	229.05
972.08	228.99
972.38	229.06
972.67	229.09
972.96	229.18
973.26	229.22
973.55	229.28
973.85	229.34
974.14	229.36
974.43	229.44
974.73	229.51
975.02	229.46
975.31	229.37
975.61	229.43
975.90	229.42
976.19	229.38
976.49	229.39
976.78	229.48
977.07	229.49
977.37	229.59
977.66	229.54
977.95	229.55
978.24	229.59
978.54	229.67
978.83	229.68
979.12	229.63
979.42	229.70
979.71	229.80
980.00	229.79
980.29	229.85
980.59	229.88
980.88	229.82
981.17	229.88
981.46	229.97
981.76	229.87
982.05	229.95
982.34	230.04
982.63	229.97
982.93	229.84
983.22	229.84
983.51	229.76
983.80	229.74
984.09	229.77
984.39	229.71
984.68	229.63
984.97	229.54
985.26	229.53
985.55	229.40
985.85	229.16
986.14	229.18
986.43	229.02
986.72	228.97
987.01	228.90
987.30	228.82
987.59	228.70
987.89	228.71
988.18	228.63
988.47	228.47
988.76	228.55
989.05	228.53
989.34	228.56
989.63	228.51
989.92	228.43
990.22	228.26
990.51	228.16
990.80	228.13
991.09	228.18
991.38	228.16
991.67	228.03
991.96	228.06
992.25	227.95
992.54	228.00
992.83	227.90
993.12	227.95
993.41	227.98
993.70	228.05
993.99	228.07
994.28	228.01
994.58	228.05
994.87	227.85
995.16	227.86
995.45	227.70
995.74	227.70
996.03	227.77
996.32	227.79
996.61	227.92
996.90	227.90
997.19	227.86
997.48	227.81
997.77	227.86
998.06	227.90
998.34	227.89
998.63	227.85
998.92	227.85
999.21	227.78
999.50	227.70
999.79	227.58
1000.08	227.53
1000.37	227.56
1000.66	227.55
1000.95	227.62
1001.24	227.64
1001.53	227.66
1001.82	227.70
1002.11	227.50
1002.40	227.47
1002.68	227.42
1002.97	227.57
1003.26	227.59
1003.55	227.65
1003.84	227.70
1004.13	227.74
1004.42	227.77
1004.71	227.87
1004.99	227.97
1005.28	228.06
1005.57	228.14
1005.86	228.19
1006.15	228.21
1006.44	228.18
1006.72	228.21
1007.01	228.31
1007.30	228.32
1007.59	228.39
1007.88	228.44
1008.17	228.68
1008.45	228.75
1008.74	228.65
1009.03	228.58
1009.32	228.54
1009.60	228.47
1009.89	228.55
1010.18	228.61
1010.47	228.64
1010.76	228.58
1011.04	228.60
1011.33	228.60
1011.62	228.59
1011.91	228.64
1012.19	228.66
1012.48	228.68
1012.77	228.74
1013.05	228.73
1013.34	228.73
1013.63	228.77
1013.92	228.77
1014.20	228.61
1014.49	228.65
1014.78	228.80
1015.06	228.75
1015.35	228.75
1015.64	228.85
1015.92	228.81
1016.21	228.78
1016.50	228.89
1016.78	228.88
1017.07	228.92
1017.36	229.02
1017.64	229.00
1017.93	229.02
1018.22	229.12
1018.50	229.17
1018.79	229.16
1019.08	229.10
1019.36	229.05
1019.65	229.04
1019.93	229.09
1020.22	229.20
1020.51	229.24
1020.79	229.20
1021.08	229.90
1021.36	228.60
1021.65	229.00
1021.94	228.60
1022.22	227.60
1022.51	229.20
1022.79	230.10
1023.08	229.40
1023.36	230.40
1023.65	228.80
>>>>>End Processed Spectral Data<<<<<
