SpectraSuite Data File
++++++++++++++++++++++++++++++++++++
Date: Fri Feb 01 14:40:44 EST 2013
User: group
Dark Spectrum Present: No
Reference Spectrum Present: No
Number of Sampled Component Spectra: 1
Spectrometers: USB2E7196
Integration Time (usec): 70000 (USB2E7196)
Spectra Averaged: 10 (USB2E7196)
Boxcar Smoothing: 10 (USB2E7196)
Correct for Electrical Dark: No (USB2E7196)
Strobe/Lamp Enabled: No (USB2E7196)
Correct for Detector Non-linearity: No (USB2E7196)
Correct for Stray Light: No (USB2E7196)
Number of Pixels in Processed Spectrum: 2048
>>>>>Begin Processed Spectral Data<<<<<
339.09	0.00
339.48	215.20
339.86	217.40
340.24	220.00
340.63	220.10
341.01	225.40
341.39	222.90
341.78	226.10
342.16	225.90
342.54	226.10
342.93	215.09
343.31	226.01
343.69	226.74
344.07	227.29
344.46	227.68
344.84	228.12
345.22	228.30
345.60	228.55
345.99	228.72
346.37	228.86
346.75	228.96
347.13	229.05
347.52	229.05
347.90	229.16
348.28	229.18
348.66	229.10
349.05	229.03
349.43	229.09
349.81	229.09
350.19	229.15
350.57	229.20
350.96	229.22
351.34	229.27
351.72	229.26
352.10	229.28
352.48	229.38
352.87	229.48
353.25	229.55
353.63	229.60
354.01	229.55
354.39	229.70
354.77	229.89
355.15	229.96
355.54	230.00
355.92	230.10
356.30	230.12
356.68	230.33
357.06	230.38
357.44	230.39
357.82	230.41
358.20	230.47
358.58	230.57
358.97	230.53
359.35	230.54
359.73	230.65
360.11	230.65
360.49	230.66
360.87	230.61
361.25	230.69
361.63	230.73
362.01	230.79
362.39	230.70
362.77	230.64
363.15	230.59
363.53	230.70
363.91	230.65
364.29	230.65
364.67	230.52
365.05	230.52
365.43	230.50
365.81	230.49
366.19	230.44
366.57	230.44
366.95	230.46
367.33	230.35
367.71	230.22
368.09	230.26
368.47	230.26
368.85	230.23
369.23	230.12
369.61	230.14
369.99	230.22
370.37	230.17
370.75	230.06
371.13	230.02
371.51	229.83
371.89	229.85
372.27	229.77
372.65	229.62
373.03	229.58
373.41	229.50
373.78	229.48
374.16	229.41
374.54	229.18
374.92	229.07
375.30	229.04
375.68	228.83
376.06	228.74
376.44	228.58
376.82	228.38
377.19	228.28
377.57	228.10
377.95	227.80
378.33	227.67
378.71	227.58
379.09	227.50
379.47	227.51
379.84	227.41
380.22	227.32
380.60	227.29
380.98	227.20
381.36	227.20
381.73	227.07
382.11	227.04
382.49	227.00
382.87	226.94
383.25	226.90
383.62	227.21
384.00	227.09
384.38	227.06
384.76	227.10
385.13	227.05
385.51	226.96
385.89	226.95
386.27	226.89
386.64	226.88
387.02	226.85
387.40	226.83
387.78	226.78
388.15	226.84
388.53	226.83
388.91	226.73
389.29	226.71
389.66	226.87
390.04	226.84
390.42	226.93
390.79	226.92
391.17	226.89
391.55	226.63
391.92	226.78
392.30	226.77
392.68	226.75
393.05	226.87
393.43	226.94
393.81	227.01
394.18	227.10
394.56	227.18
394.94	227.26
395.31	227.31
395.69	227.33
396.06	227.34
396.44	227.36
396.82	227.51
397.19	227.60
397.57	227.52
397.95	227.65
398.32	227.73
398.70	227.90
399.07	228.08
399.45	228.20
399.82	228.31
400.20	228.43
400.58	228.57
400.95	228.65
401.33	228.79
401.70	229.07
402.08	229.21
402.45	229.29
402.83	229.40
403.20	229.48
403.58	229.71
403.95	229.92
404.33	230.10
404.71	230.27
405.08	230.41
405.46	230.64
405.83	230.68
406.21	230.88
406.58	230.94
406.96	231.07
407.33	231.30
407.70	231.47
408.08	231.80
408.45	232.07
408.83	232.26
409.20	232.44
409.58	232.49
409.95	232.76
410.33	233.02
410.70	233.27
411.08	233.65
411.45	233.86
411.82	234.10
412.20	234.48
412.57	234.90
412.95	235.11
413.32	235.49
413.69	236.04
414.07	236.38
414.44	236.90
414.82	237.36
415.19	237.85
415.56	238.40
415.94	238.92
416.31	239.49
416.68	240.13
417.06	240.88
417.43	241.75
417.81	242.58
418.18	243.37
418.55	244.13
418.93	244.96
419.30	245.86
419.67	246.79
420.04	247.78
420.42	248.66
420.79	249.90
421.16	251.06
421.54	252.33
421.91	253.51
422.28	254.81
422.66	256.14
423.03	257.48
423.40	258.67
423.77	260.10
424.15	261.54
424.52	263.06
424.89	264.79
425.26	266.25
425.64	267.65
426.01	269.31
426.38	271.00
426.75	272.81
427.13	274.54
427.50	276.50
427.87	278.48
428.24	280.45
428.61	282.13
428.99	284.18
429.36	286.17
429.73	288.41
430.10	290.50
430.47	292.57
430.85	294.69
431.22	297.13
431.59	299.69
431.96	302.06
432.33	304.55
432.70	306.90
433.08	309.84
433.45	312.57
433.82	315.24
434.19	318.33
434.56	321.21
434.93	324.07
435.30	326.77
435.68	329.64
436.05	332.65
436.42	335.75
436.79	338.26
437.16	341.20
437.53	344.13
437.90	347.07
438.27	349.92
438.64	352.95
439.01	355.57
439.38	357.90
439.75	360.11
440.13	362.84
440.50	365.33
440.87	367.20
441.24	369.24
441.61	371.48
441.98	373.03
442.35	374.81
442.72	376.67
443.09	378.53
443.46	379.53
443.83	380.16
444.20	380.62
444.57	381.42
444.94	381.58
445.31	381.84
445.68	382.30
446.05	382.48
446.42	382.11
446.79	381.65
447.16	381.04
447.53	380.86
447.90	379.62
448.27	378.41
448.64	376.70
449.01	375.60
449.37	373.58
449.74	371.58
450.11	369.41
450.48	366.75
450.85	364.13
451.22	361.98
451.59	359.73
451.96	357.74
452.33	355.23
452.70	352.88
453.07	350.06
453.43	346.93
453.80	344.02
454.17	341.07
454.54	338.55
454.91	335.68
455.28	332.93
455.65	330.37
456.02	328.00
456.38	325.76
456.75	322.93
457.12	320.56
457.49	318.15
457.86	315.80
458.23	314.06
458.59	311.89
458.96	309.75
459.33	307.87
459.70	305.86
460.07	304.30
460.43	302.44
460.80	300.64
461.17	299.10
461.54	297.55
461.91	296.10
462.27	294.52
462.64	293.15
463.01	291.46
463.38	290.07
463.74	288.33
464.11	287.08
464.48	285.98
464.85	284.78
465.21	283.78
465.58	282.61
465.95	281.30
466.32	280.17
466.68	279.00
467.05	278.03
467.42	276.90
467.78	275.75
468.15	274.70
468.52	273.97
468.88	272.99
469.25	272.10
469.62	271.40
469.98	270.58
470.35	269.92
470.72	269.28
471.08	268.43
471.45	267.86
471.82	267.37
472.18	266.67
472.55	266.10
472.92	265.47
473.28	264.95
473.65	264.35
474.02	263.84
474.38	263.48
474.75	262.88
475.11	262.55
475.48	262.13
475.85	261.77
476.21	261.36
476.58	261.02
476.94	260.72
477.31	260.29
477.67	259.87
478.04	259.44
478.41	259.16
478.77	259.10
479.14	258.70
479.50	258.37
479.87	258.10
480.23	257.89
480.60	257.78
480.96	257.61
481.33	257.65
481.69	257.60
482.06	257.45
482.42	257.46
482.79	257.35
483.15	257.33
483.52	257.33
483.88	257.44
484.25	257.46
484.61	257.50
484.98	257.61
485.34	257.91
485.71	258.36
486.07	258.62
486.44	258.60
486.80	258.99
487.17	259.26
487.53	259.62
487.90	260.13
488.26	260.50
488.62	260.97
488.99	261.25
489.35	261.71
489.72	262.21
490.08	262.82
490.44	263.38
490.81	264.01
491.17	264.60
491.54	265.13
491.90	265.71
492.26	266.36
492.63	267.17
492.99	267.90
493.36	268.70
493.72	269.64
494.08	270.71
494.45	271.78
494.81	272.97
495.17	274.17
495.54	275.31
495.90	276.67
496.26	278.03
496.63	279.63
496.99	281.20
497.35	282.95
497.72	284.69
498.08	286.53
498.44	288.32
498.80	290.51
499.17	292.72
499.53	295.01
499.89	297.43
500.26	299.81
500.62	302.23
500.98	304.89
501.34	307.55
501.71	310.38
502.07	313.26
502.43	316.20
502.79	319.39
503.16	322.80
503.52	326.32
503.88	329.99
504.24	333.68
504.60	337.74
504.97	341.77
505.33	345.94
505.69	350.41
506.05	355.07
506.41	359.74
506.78	364.42
507.14	369.52
507.50	374.69
507.86	380.29
508.22	386.08
508.59	391.46
508.95	397.43
509.31	403.72
509.67	410.04
510.03	416.66
510.39	423.36
510.75	430.02
511.12	436.96
511.48	444.08
511.84	451.31
512.20	458.75
512.56	466.70
512.92	474.52
513.28	482.74
513.64	490.89
514.00	499.30
514.37	508.26
514.73	517.01
515.09	526.06
515.45	535.20
515.81	544.31
516.17	554.07
516.53	563.85
516.89	573.62
517.25	583.57
517.61	593.70
517.97	603.86
518.33	614.15
518.69	624.65
519.05	635.70
519.41	647.05
519.77	658.40
520.13	669.60
520.49	681.06
520.85	692.56
521.21	704.33
521.57	716.13
521.93	727.77
522.29	740.02
522.65	752.03
523.01	764.02
523.37	776.36
523.73	789.04
524.09	801.25
524.45	814.06
524.81	827.25
525.17	840.20
525.53	853.68
525.89	867.07
526.25	880.75
526.61	893.81
526.97	907.10
527.33	920.58
527.68	934.57
528.04	948.30
528.40	961.86
528.76	976.20
529.12	990.50
529.48	1004.95
529.84	1018.80
530.20	1033.40
530.56	1048.11
530.91	1063.20
531.27	1077.73
531.63	1092.73
531.99	1107.53
532.35	1121.86
532.71	1136.00
533.07	1150.45
533.42	1165.20
533.78	1179.69
534.14	1194.45
534.50	1208.50
534.86	1222.88
535.21	1236.70
535.57	1251.27
535.93	1266.03
536.29	1280.14
536.65	1294.40
537.00	1308.44
537.36	1322.83
537.72	1336.70
538.08	1350.76
538.44	1364.20
538.79	1377.78
539.15	1390.93
539.51	1404.48
539.87	1418.36
540.22	1432.07
540.58	1446.01
540.94	1459.39
541.29	1472.43
541.65	1485.34
542.01	1498.90
542.37	1511.93
542.72	1524.87
543.08	1537.48
543.44	1550.19
543.79	1561.76
544.15	1573.93
544.51	1586.40
544.87	1598.66
545.22	1610.44
545.58	1621.68
545.94	1632.60
546.29	1643.85
546.65	1655.30
547.01	1665.95
547.36	1676.23
547.72	1686.89
548.07	1696.94
548.43	1706.64
548.79	1716.53
549.14	1726.17
549.50	1735.50
549.86	1744.73
550.21	1753.68
550.57	1762.76
550.92	1771.71
551.28	1780.98
551.64	1789.37
551.99	1797.71
552.35	1805.76
552.70	1814.19
553.06	1822.55
553.41	1831.41
553.77	1839.38
554.13	1846.87
554.48	1854.65
554.84	1862.37
555.19	1869.85
555.55	1876.99
555.90	1884.07
556.26	1891.20
556.61	1898.27
556.97	1904.58
557.32	1911.53
557.68	1918.62
558.03	1925.48
558.39	1931.36
558.74	1938.27
559.10	1944.78
559.45	1950.74
559.81	1957.44
560.16	1963.04
560.52	1968.68
560.87	1974.37
561.23	1979.71
561.58	1985.49
561.94	1990.46
562.29	1995.54
562.64	2000.12
563.00	2004.74
563.35	2010.50
563.71	2015.76
564.06	2020.75
564.42	2025.91
564.77	2030.53
565.12	2035.09
565.48	2039.28
565.83	2043.16
566.19	2046.64
566.54	2050.21
566.89	2053.51
567.25	2056.72
567.60	2060.78
567.96	2063.42
568.31	2065.67
568.66	2068.45
569.02	2071.08
569.37	2072.96
569.72	2075.06
570.08	2077.21
570.43	2079.43
570.78	2080.34
571.14	2080.82
571.49	2081.60
571.84	2083.31
572.20	2083.43
572.55	2083.29
572.90	2083.49
573.26	2084.29
573.61	2084.93
573.96	2085.07
574.31	2084.62
574.67	2083.20
575.02	2081.42
575.37	2080.80
575.72	2079.21
576.08	2077.90
576.43	2076.40
576.78	2075.52
577.13	2074.34
577.49	2073.46
577.84	2071.28
578.19	2069.73
578.54	2067.99
578.90	2065.73
579.25	2062.04
579.60	2059.63
579.95	2057.00
580.30	2053.65
580.66	2050.59
581.01	2047.02
581.36	2043.67
581.71	2040.78
582.06	2037.64
582.42	2034.34
582.77	2030.93
583.12	2028.02
583.47	2025.14
583.82	2021.95
584.17	2018.32
584.53	2014.64
584.88	2010.50
585.23	2006.94
585.58	2003.15
585.93	1999.51
586.28	1996.18
586.63	1992.96
586.98	1989.52
587.34	1986.10
587.69	1982.37
588.04	1978.54
588.39	1974.46
588.74	1969.31
589.09	1964.94
589.44	1960.22
589.79	1956.04
590.14	1952.25
590.49	1947.53
590.84	1942.45
591.19	1937.56
591.54	1931.90
591.89	1925.73
592.25	1920.61
592.60	1914.54
592.95	1908.31
593.30	1902.52
593.65	1896.61
594.00	1890.77
594.35	1884.91
594.70	1878.29
595.05	1872.79
595.40	1866.67
595.75	1860.53
596.10	1855.43
596.45	1849.80
596.80	1845.16
597.15	1839.60
597.50	1833.41
597.85	1828.32
598.19	1822.93
598.54	1817.51
598.89	1812.74
599.24	1808.72
599.59	1803.36
599.94	1799.00
600.29	1793.78
600.64	1787.91
600.99	1781.55
601.34	1776.30
601.69	1770.55
602.04	1765.48
602.39	1759.67
602.74	1754.26
603.08	1749.15
603.43	1743.93
603.78	1738.10
604.13	1731.97
604.48	1726.05
604.83	1720.19
605.18	1714.16
605.53	1707.78
605.87	1700.69
606.22	1694.11
606.57	1687.26
606.92	1680.75
607.27	1674.16
607.62	1668.60
607.96	1662.68
608.31	1657.13
608.66	1650.05
609.01	1643.08
609.36	1635.68
609.70	1628.03
610.05	1620.80
610.40	1613.35
610.75	1605.77
611.10	1598.52
611.44	1590.79
611.79	1583.74
612.14	1576.36
612.49	1568.38
612.83	1560.80
613.18	1553.61
613.53	1546.50
613.88	1538.33
614.22	1530.60
614.57	1522.80
614.92	1514.76
615.27	1507.47
615.61	1499.73
615.96	1492.46
616.31	1485.50
616.65	1479.23
617.00	1472.88
617.35	1465.66
617.70	1458.32
618.04	1450.87
618.39	1443.60
618.74	1436.73
619.08	1429.18
619.43	1422.22
619.78	1415.58
620.12	1408.78
620.47	1402.24
620.82	1394.98
621.16	1388.31
621.51	1381.39
621.85	1374.12
622.20	1366.87
622.55	1359.93
622.89	1352.91
623.24	1346.54
623.59	1340.04
623.93	1333.09
624.28	1326.19
624.62	1319.31
624.97	1312.93
625.32	1306.60
625.66	1300.19
626.01	1293.46
626.35	1286.58
626.70	1279.75
627.04	1272.89
627.39	1265.63
627.73	1258.41
628.08	1251.94
628.43	1244.94
628.77	1238.31
629.12	1231.59
629.46	1224.73
629.81	1217.22
630.15	1210.28
630.50	1202.75
630.84	1194.88
631.19	1187.35
631.53	1180.01
631.88	1172.76
632.22	1165.07
632.57	1158.22
632.91	1151.00
633.26	1143.71
633.60	1136.67
633.95	1129.74
634.29	1123.03
634.64	1116.77
634.98	1109.80
635.32	1102.58
635.67	1096.54
636.01	1089.99
636.36	1083.55
636.70	1077.24
637.05	1071.50
637.39	1065.51
637.73	1059.63
638.08	1054.17
638.42	1048.52
638.77	1042.89
639.11	1036.88
639.45	1031.11
639.80	1024.88
640.14	1018.77
640.49	1012.89
640.83	1006.95
641.17	1000.95
641.52	994.79
641.86	988.33
642.20	982.76
642.55	977.30
642.89	970.96
643.23	964.86
643.58	959.22
643.92	953.22
644.26	947.01
644.61	941.27
644.95	935.30
645.29	928.86
645.64	922.28
645.98	916.25
646.32	910.44
646.66	904.37
647.01	898.35
647.35	892.63
647.69	886.77
648.04	881.57
648.38	875.66
648.72	869.48
649.06	863.70
649.41	857.79
649.75	851.53
650.09	845.75
650.43	839.91
650.78	833.70
651.12	827.93
651.46	822.38
651.80	816.50
652.14	810.92
652.49	805.52
652.83	800.49
653.17	794.63
653.51	788.78
653.85	783.57
654.20	777.96
654.54	772.18
654.88	766.61
655.22	760.42
655.56	755.05
655.90	750.25
656.25	745.26
656.59	740.26
656.93	735.46
657.27	730.70
657.61	725.61
657.95	720.79
658.29	715.70
658.64	710.50
658.98	705.53
659.32	700.39
659.66	695.50
660.00	690.42
660.34	685.70
660.68	681.06
661.02	676.03
661.36	671.70
661.70	667.49
662.05	663.28
662.39	659.21
662.73	654.70
663.07	650.30
663.41	646.07
663.75	641.63
664.09	637.14
664.43	632.64
664.77	628.58
665.11	624.58
665.45	621.04
665.79	617.06
666.13	612.96
666.47	608.97
666.81	604.77
667.15	600.67
667.49	596.76
667.83	593.21
668.17	589.61
668.51	585.60
668.85	581.66
669.19	577.94
669.53	574.29
669.87	570.59
670.21	567.00
670.55	563.25
670.89	560.10
671.23	557.05
671.57	553.67
671.91	550.24
672.25	546.76
672.58	543.10
672.92	539.79
673.26	536.78
673.60	533.67
673.94	530.72
674.28	528.01
674.62	525.23
674.96	522.32
675.30	519.30
675.64	516.69
675.97	513.90
676.31	511.10
676.65	508.27
676.99	505.57
677.33	502.41
677.67	499.52
678.01	496.33
678.34	493.24
678.68	490.64
679.02	487.81
679.36	485.03
679.70	482.34
680.04	479.65
680.37	476.75
680.71	474.23
681.05	471.70
681.39	469.15
681.73	466.54
682.06	463.99
682.40	461.72
682.74	458.90
683.08	456.45
683.42	453.77
683.75	451.35
684.09	448.93
684.43	446.68
684.77	444.31
685.10	442.15
685.44	439.81
685.78	437.38
686.12	435.17
686.45	433.04
686.79	430.82
687.13	428.77
687.46	426.66
687.80	424.37
688.14	422.12
688.48	419.72
688.81	417.37
689.15	415.11
689.49	412.80
689.82	410.76
690.16	408.58
690.50	406.60
690.83	404.55
691.17	402.52
691.51	400.62
691.84	398.76
692.18	396.56
692.52	394.50
692.85	392.53
693.19	390.61
693.52	388.65
693.86	386.64
694.20	384.74
694.53	382.92
694.87	381.03
695.21	379.12
695.54	377.42
695.88	375.48
696.21	373.53
696.55	371.81
696.88	370.18
697.22	368.44
697.56	366.77
697.89	365.02
698.23	363.50
698.56	361.87
698.90	360.26
699.23	358.61
699.57	357.12
699.90	355.55
700.24	353.99
700.58	352.47
700.91	351.15
701.25	349.62
701.58	348.10
701.92	346.71
702.25	345.36
702.59	343.88
702.92	342.87
703.26	341.55
703.59	340.32
703.93	339.01
704.26	337.78
704.60	336.43
704.93	335.18
705.26	333.67
705.60	332.46
705.93	331.18
706.27	330.18
706.60	329.12
706.94	328.06
707.27	326.85
707.61	325.68
707.94	324.41
708.27	323.36
708.61	322.14
708.94	320.99
709.28	319.84
709.61	318.84
709.94	317.75
710.28	316.75
710.61	315.54
710.95	314.30
711.28	313.35
711.61	312.36
711.95	311.39
712.28	310.50
712.61	309.37
712.95	308.66
713.28	307.78
713.61	306.75
713.95	305.75
714.28	304.94
714.61	303.94
714.95	303.21
715.28	302.34
715.61	301.54
715.95	300.63
716.28	299.79
716.61	299.08
716.95	298.20
717.28	297.55
717.61	296.78
717.94	296.24
718.28	295.42
718.61	294.65
718.94	293.92
719.27	293.12
719.61	292.55
719.94	291.65
720.27	290.81
720.60	290.13
720.94	289.51
721.27	288.74
721.60	288.15
721.93	287.53
722.27	286.93
722.60	286.30
722.93	285.82
723.26	285.36
723.59	284.57
723.93	283.93
724.26	283.24
724.59	282.61
724.92	281.97
725.25	281.41
725.59	280.81
725.92	280.15
726.25	279.62
726.58	278.94
726.91	278.49
727.24	277.90
727.57	277.38
727.91	276.70
728.24	276.22
728.57	275.71
728.90	275.04
729.23	274.36
729.56	273.84
729.89	273.17
730.22	272.53
730.55	272.18
730.89	271.79
731.22	271.30
731.55	270.86
731.88	270.40
732.21	269.85
732.54	269.35
732.87	268.88
733.20	268.41
733.53	267.92
733.86	267.49
734.19	267.02
734.52	266.50
734.85	266.18
735.18	265.65
735.51	265.21
735.84	264.86
736.17	264.59
736.50	264.03
736.83	263.85
737.16	263.48
737.49	262.87
737.82	262.40
738.15	262.06
738.48	261.62
738.81	261.24
739.14	260.89
739.47	260.58
739.80	260.32
740.13	259.98
740.46	259.73
740.79	259.28
741.12	258.85
741.45	258.56
741.78	258.23
742.11	257.94
742.44	257.55
742.77	257.22
743.10	256.80
743.43	256.50
743.75	255.97
744.08	255.92
744.41	255.72
744.74	255.46
745.07	255.12
745.40	254.99
745.73	254.68
746.06	254.42
746.39	254.19
746.71	253.84
747.04	253.62
747.37	253.33
747.70	252.95
748.03	252.88
748.36	252.69
748.68	252.33
749.01	252.10
749.34	251.85
749.67	251.61
750.00	251.42
750.33	251.38
750.65	251.23
750.98	250.75
751.31	250.60
751.64	250.34
751.97	250.17
752.29	249.85
752.62	249.58
752.95	249.33
753.28	249.03
753.60	248.78
753.93	248.56
754.26	248.29
754.59	248.15
754.91	247.88
755.24	247.66
755.57	247.47
755.90	247.24
756.22	247.09
756.55	246.85
756.88	246.64
757.20	246.24
757.53	246.04
757.86	245.91
758.19	245.64
758.51	245.42
758.84	245.13
759.17	245.00
759.49	244.80
759.82	244.67
760.15	244.57
760.47	244.43
760.80	244.17
761.13	244.10
761.45	243.93
761.78	243.76
762.11	243.50
762.43	243.33
762.76	243.23
763.08	243.02
763.41	242.94
763.74	242.69
764.06	242.55
764.39	242.33
764.71	242.01
765.04	241.85
765.37	241.67
765.69	241.50
766.02	241.25
766.34	241.14
766.67	240.85
767.00	240.63
767.32	240.65
767.65	240.67
767.97	240.50
768.30	240.39
768.62	240.23
768.95	240.10
769.27	239.93
769.60	239.73
769.92	239.61
770.25	239.44
770.57	239.28
770.90	239.17
771.22	238.99
771.55	238.85
771.87	238.85
772.20	238.69
772.52	238.80
772.85	238.92
773.17	238.73
773.50	238.62
773.82	238.48
774.15	238.12
774.47	237.80
774.80	237.64
775.12	237.50
775.45	237.36
775.77	237.21
776.09	237.17
776.42	237.06
776.74	236.96
777.07	236.80
777.39	236.66
777.72	236.56
778.04	236.62
778.36	236.61
778.69	236.38
779.01	236.30
779.33	235.96
779.66	235.60
779.98	235.52
780.31	235.41
780.63	235.41
780.95	235.36
781.28	235.34
781.60	235.20
781.92	235.05
782.25	234.96
782.57	234.88
782.89	234.76
783.22	234.74
783.54	234.66
783.86	234.64
784.19	234.68
784.51	234.64
784.83	234.44
785.16	234.36
785.48	234.31
785.80	234.17
786.12	234.15
786.45	234.12
786.77	234.11
787.09	234.12
787.42	234.00
787.74	233.91
788.06	233.81
788.38	233.88
788.71	233.86
789.03	233.80
789.35	233.70
789.67	233.69
789.99	233.68
790.32	233.55
790.64	233.54
790.96	233.58
791.28	233.49
791.61	233.40
791.93	233.36
792.25	233.37
792.57	233.63
792.89	233.60
793.21	233.60
793.54	233.51
793.86	233.42
794.18	233.42
794.50	233.38
794.82	233.32
795.14	233.20
795.47	233.25
795.79	233.32
796.11	233.32
796.43	233.38
796.75	233.27
797.07	233.34
797.39	233.28
797.71	233.09
798.04	233.20
798.36	233.21
798.68	233.20
799.00	233.15
799.32	232.96
799.64	232.89
799.96	232.94
800.28	232.85
800.60	232.82
800.92	232.84
801.24	232.93
801.56	233.00
801.89	232.96
802.21	232.93
802.53	232.80
802.85	232.83
803.17	232.71
803.49	232.60
803.81	232.52
804.13	232.45
804.45	232.49
804.77	232.31
805.09	232.28
805.41	232.30
805.73	232.29
806.05	232.21
806.37	232.18
806.69	232.11
807.01	232.18
807.33	232.19
807.65	232.01
807.97	232.00
808.28	231.88
808.60	231.87
808.92	231.74
809.24	231.87
809.56	231.83
809.88	231.83
810.20	231.90
810.52	231.93
810.84	231.80
811.16	231.84
811.48	231.91
811.80	231.91
812.12	231.81
812.43	231.71
812.75	231.63
813.07	231.52
813.39	231.45
813.71	231.40
814.03	231.32
814.35	231.30
814.67	231.21
814.98	231.19
815.30	231.17
815.62	231.17
815.94	231.02
816.26	231.08
816.58	230.88
816.89	230.80
817.21	230.68
817.53	230.74
817.85	230.51
818.17	230.40
818.48	230.33
818.80	230.29
819.12	230.29
819.44	230.25
819.76	230.36
820.07	230.30
820.39	230.21
820.71	230.14
821.03	230.12
821.34	230.12
821.66	230.07
821.98	229.99
822.30	229.97
822.61	230.02
822.93	229.90
823.25	229.98
823.57	230.00
823.88	230.04
824.20	230.04
824.52	230.08
824.83	230.15
825.15	230.15
825.47	230.17
825.79	230.19
826.10	230.20
826.42	230.14
826.74	230.14
827.05	230.12
827.37	230.14
827.69	230.12
828.00	230.06
828.32	230.13
828.64	230.09
828.95	230.06
829.27	230.05
829.58	230.03
829.90	229.99
830.22	229.93
830.53	229.88
830.85	229.86
831.17	229.92
831.48	229.80
831.80	229.83
832.11	229.90
832.43	229.87
832.75	229.87
833.06	229.98
833.38	229.97
833.69	229.98
834.01	230.00
834.32	230.00
834.64	230.00
834.96	230.02
835.27	230.00
835.59	229.98
835.90	229.92
836.22	229.94
836.53	229.98
836.85	230.01
837.16	230.15
837.48	230.10
837.79	230.15
838.11	230.18
838.42	230.11
838.74	230.06
839.05	229.97
839.37	230.03
839.68	229.92
840.00	229.97
840.31	230.02
840.63	230.06
840.94	230.00
841.26	229.90
841.57	229.88
841.88	230.00
842.20	230.03
842.51	230.01
842.83	230.06
843.14	230.17
843.46	230.13
843.77	230.07
844.08	230.10
844.40	229.95
844.71	229.88
845.03	229.88
845.34	229.84
845.65	229.99
845.97	229.90
846.28	229.95
846.60	229.87
846.91	229.86
847.22	229.77
847.54	229.89
847.85	230.02
848.16	229.97
848.48	229.80
848.79	229.80
849.10	229.74
849.42	229.67
849.73	229.52
850.04	229.53
850.36	229.43
850.67	229.41
850.98	229.43
851.30	229.49
851.61	229.52
851.92	229.40
852.23	229.30
852.55	229.32
852.86	229.22
853.17	229.24
853.49	229.26
853.80	229.44
854.11	229.37
854.42	229.31
854.74	229.25
855.05	229.31
855.36	229.28
855.67	229.33
855.99	229.33
856.30	229.52
856.61	229.49
856.92	229.50
857.23	229.59
857.55	229.58
857.86	229.54
858.17	229.59
858.48	229.54
858.79	229.45
859.11	229.50
859.42	229.48
859.73	229.48
860.04	229.39
860.35	229.26
860.66	229.26
860.98	229.24
861.29	229.27
861.60	229.31
861.91	229.34
862.22	229.27
862.53	229.19
862.84	229.00
863.16	229.12
863.47	229.13
863.78	229.02
864.09	229.05
864.40	229.06
864.71	228.96
865.02	229.10
865.33	229.10
865.64	229.04
865.95	229.06
866.27	229.16
866.58	229.11
866.89	229.13
867.20	229.11
867.51	229.11
867.82	229.13
868.13	229.13
868.44	229.12
868.75	229.23
869.06	229.29
869.37	229.28
869.68	229.15
869.99	229.17
870.30	229.15
870.61	229.13
870.92	229.08
871.23	229.08
871.54	229.09
871.85	229.18
872.16	229.20
872.47	229.25
872.78	229.17
873.09	229.20
873.40	229.19
873.71	229.20
874.02	229.15
874.33	229.13
874.64	229.19
874.95	229.20
875.26	229.14
875.56	229.25
875.87	229.28
876.18	229.27
876.49	229.49
876.80	229.50
877.11	229.51
877.42	229.62
877.73	229.62
878.04	229.61
878.35	229.60
878.66	229.58
878.96	229.60
879.27	229.52
879.58	229.52
879.89	229.44
880.20	229.56
880.51	229.55
880.82	229.50
881.12	229.45
881.43	229.35
881.74	229.33
882.05	229.18
882.36	229.09
882.67	229.07
882.97	228.74
883.28	228.69
883.59	228.68
883.90	228.64
884.21	228.78
884.51	228.64
884.82	228.67
885.13	228.66
885.44	228.52
885.74	228.47
886.05	228.47
886.36	228.50
886.67	228.41
886.98	228.50
887.28	228.45
887.59	228.48
887.90	228.44
888.20	228.36
888.51	228.38
888.82	228.43
889.13	228.49
889.43	228.72
889.74	228.77
890.05	228.67
890.35	228.50
890.66	228.40
890.97	228.47
891.28	228.53
891.58	228.50
891.89	228.56
892.20	228.62
892.50	228.60
892.81	228.54
893.12	228.45
893.42	228.31
893.73	228.44
894.04	228.38
894.34	228.49
894.65	228.56
894.95	228.56
895.26	228.53
895.57	228.65
895.87	228.40
896.18	228.42
896.48	228.49
896.79	228.61
897.10	228.65
897.40	228.67
897.71	228.51
898.01	228.51
898.32	228.47
898.63	228.45
898.93	228.48
899.24	228.60
899.54	228.60
899.85	228.66
900.15	228.63
900.46	228.69
900.76	228.56
901.07	228.58
901.38	228.56
901.68	228.60
901.99	228.49
902.29	228.46
902.60	228.35
902.90	228.31
903.21	228.26
903.51	228.22
903.82	228.25
904.12	228.24
904.43	228.29
904.73	228.36
905.03	228.35
905.34	228.50
905.64	228.48
905.95	228.54
906.25	228.64
906.56	228.63
906.86	228.61
907.17	228.67
907.47	228.61
907.77	228.61
908.08	228.56
908.38	228.53
908.69	228.69
908.99	228.78
909.30	228.84
909.60	228.87
909.90	228.84
910.21	228.87
910.51	228.90
910.81	228.89
911.12	228.93
911.42	228.84
911.73	228.58
912.03	228.63
912.33	228.66
912.64	228.58
912.94	228.60
913.24	228.55
913.55	228.52
913.85	228.54
914.15	228.63
914.46	228.72
914.76	228.80
915.06	228.68
915.37	228.65
915.67	228.69
915.97	228.75
916.27	228.70
916.58	228.60
916.88	228.60
917.18	228.56
917.49	228.70
917.79	228.75
918.09	228.83
918.39	228.82
918.70	228.75
919.00	228.80
919.30	228.88
919.60	228.81
919.91	228.85
920.21	228.88
920.51	228.79
920.81	228.72
921.12	228.76
921.42	228.89
921.72	228.92
922.02	228.82
922.32	228.81
922.63	228.87
922.93	228.94
923.23	228.99
923.53	229.07
923.83	228.96
924.13	229.10
924.44	229.20
924.74	229.21
925.04	229.24
925.34	229.22
925.64	229.04
925.94	229.09
926.24	229.19
926.55	229.14
926.85	229.17
927.15	229.15
927.45	229.06
927.75	228.88
928.05	228.87
928.35	228.94
928.65	229.05
928.95	229.02
929.26	228.96
929.56	228.95
929.86	228.88
930.16	228.89
930.46	228.70
930.76	228.70
931.06	228.63
931.36	228.60
931.66	228.59
931.96	228.63
932.26	228.65
932.56	228.56
932.86	228.54
933.16	228.51
933.46	228.47
933.76	228.44
934.06	228.53
934.36	228.58
934.66	228.57
934.96	228.51
935.26	228.51
935.56	228.58
935.86	228.46
936.16	228.42
936.46	228.30
936.76	228.44
937.06	228.42
937.36	228.39
937.66	228.46
937.96	228.46
938.26	228.50
938.56	228.46
938.86	228.42
939.16	228.50
939.46	228.49
939.76	228.59
940.06	228.53
940.35	228.53
940.65	228.40
940.95	228.30
941.25	228.23
941.55	228.17
941.85	228.12
942.15	228.23
942.45	228.35
942.75	228.29
943.04	228.32
943.34	228.33
943.64	228.38
943.94	228.30
944.24	228.28
944.54	228.24
944.84	228.20
945.13	228.19
945.43	228.11
945.73	228.17
946.03	228.03
946.33	228.07
946.62	228.05
946.92	228.02
947.22	228.06
947.52	228.12
947.82	228.26
948.11	228.30
948.41	228.29
948.71	228.21
949.01	228.24
949.31	228.13
949.60	228.08
949.90	228.08
950.20	228.07
950.50	228.05
950.79	228.01
951.09	228.21
951.39	228.25
951.69	228.29
951.98	228.33
952.28	228.41
952.58	228.39
952.87	228.41
953.17	228.51
953.47	228.50
953.76	228.48
954.06	228.40
954.36	228.37
954.66	228.29
954.95	228.34
955.25	228.49
955.55	228.43
955.84	228.34
956.14	228.33
956.44	228.27
956.73	228.33
957.03	228.43
957.32	228.30
957.62	228.43
957.92	228.39
958.21	228.37
958.51	228.62
958.81	228.66
959.10	228.65
959.40	228.68
959.69	228.70
959.99	228.67
960.29	228.66
960.58	228.64
960.88	228.72
961.17	228.72
961.47	228.58
961.76	228.68
962.06	228.75
962.36	228.67
962.65	228.75
962.95	228.73
963.24	228.66
963.54	228.59
963.83	228.45
964.13	228.57
964.42	228.56
964.72	228.34
965.01	228.40
965.31	228.38
965.60	228.25
965.90	228.40
966.19	228.39
966.49	228.42
966.78	228.44
967.08	228.48
967.37	228.37
967.67	228.34
967.96	228.42
968.26	228.41
968.55	228.50
968.85	228.47
969.14	228.48
969.43	228.47
969.73	228.46
970.02	228.41
970.32	228.37
970.61	228.38
970.91	228.35
971.20	228.30
971.49	228.30
971.79	228.37
972.08	228.21
972.38	228.21
972.67	228.22
972.96	228.30
973.26	228.27
973.55	228.49
973.85	228.52
974.14	228.43
974.43	228.49
974.73	228.53
975.02	228.50
975.31	228.57
975.61	228.68
975.90	228.73
976.19	228.75
976.49	228.66
976.78	228.70
977.07	228.72
977.37	228.62
977.66	228.60
977.95	228.70
978.24	228.68
978.54	228.71
978.83	228.75
979.12	228.66
979.42	228.67
979.71	228.52
980.00	228.61
980.29	228.67
980.59	228.57
980.88	228.56
981.17	228.55
981.46	228.40
981.76	228.35
982.05	228.48
982.34	228.53
982.63	228.60
982.93	228.51
983.22	228.48
983.51	228.50
983.80	228.59
984.09	228.47
984.39	228.53
984.68	228.53
984.97	228.58
985.26	228.66
985.55	228.66
985.85	228.62
986.14	228.52
986.43	228.47
986.72	228.50
987.01	228.42
987.30	228.44
987.59	228.50
987.89	228.49
988.18	228.38
988.47	228.43
988.76	228.41
989.05	228.38
989.34	228.49
989.63	228.58
989.92	228.50
990.22	228.57
990.51	228.51
990.80	228.53
991.09	228.45
991.38	228.36
991.67	228.25
991.96	228.29
992.25	228.32
992.54	228.29
992.83	228.23
993.12	228.22
993.41	228.29
993.70	228.37
993.99	228.36
994.28	228.38
994.58	228.27
994.87	228.28
995.16	228.27
995.45	228.13
995.74	228.01
996.03	228.05
996.32	228.00
996.61	228.04
996.90	227.92
997.19	227.94
997.48	227.92
997.77	227.92
998.06	227.91
998.34	227.81
998.63	227.88
998.92	227.84
999.21	227.84
999.50	227.75
999.79	227.64
1000.08	227.70
1000.37	227.74
1000.66	227.73
1000.95	227.80
1001.24	227.83
1001.53	227.91
1001.82	227.95
1002.11	227.98
1002.40	228.01
1002.68	228.03
1002.97	228.21
1003.26	228.12
1003.55	228.11
1003.84	228.12
1004.13	228.16
1004.42	228.26
1004.71	228.29
1004.99	228.32
1005.28	228.42
1005.57	228.53
1005.86	228.58
1006.15	228.61
1006.44	228.54
1006.72	228.61
1007.01	228.57
1007.30	228.61
1007.59	228.57
1007.88	228.60
1008.17	228.63
1008.45	228.59
1008.74	228.62
1009.03	228.60
1009.32	228.64
1009.60	228.71
1009.89	228.81
1010.18	228.77
1010.47	228.67
1010.76	228.67
1011.04	228.74
1011.33	228.66
1011.62	228.65
1011.91	228.67
1012.19	228.67
1012.48	228.71
1012.77	228.67
1013.05	228.68
1013.34	228.70
1013.63	228.72
1013.92	228.81
1014.20	228.68
1014.49	228.68
1014.78	228.61
1015.06	228.53
1015.35	228.54
1015.64	228.50
1015.92	228.47
1016.21	228.49
1016.50	228.60
1016.78	228.61
1017.07	228.63
1017.36	228.58
1017.64	228.47
1017.93	228.45
1018.22	228.34
1018.50	228.31
1018.79	228.19
1019.08	228.13
1019.36	228.03
1019.65	227.91
1019.93	227.90
1020.22	227.99
1020.51	228.10
1020.79	228.06
1021.08	227.60
1021.36	228.00
1021.65	225.70
1021.94	227.80
1022.22	227.40
1022.51	226.00
1022.79	228.50
1023.08	228.90
1023.36	230.50
1023.65	227.20
>>>>>End Processed Spectral Data<<<<<
