SpectraSuite Data File
++++++++++++++++++++++++++++++++++++
Date: Fri Feb 01 14:37:21 EST 2013
User: group
Dark Spectrum Present: No
Reference Spectrum Present: No
Number of Sampled Component Spectra: 1
Spectrometers: USB2E7196
Integration Time (usec): 70000 (USB2E7196)
Spectra Averaged: 10 (USB2E7196)
Boxcar Smoothing: 10 (USB2E7196)
Correct for Electrical Dark: No (USB2E7196)
Strobe/Lamp Enabled: No (USB2E7196)
Correct for Detector Non-linearity: No (USB2E7196)
Correct for Stray Light: No (USB2E7196)
Number of Pixels in Processed Spectrum: 2048
>>>>>Begin Processed Spectral Data<<<<<
339.09	0.00
339.48	213.90
339.86	218.40
340.24	219.50
340.63	220.90
341.01	225.30
341.39	220.70
341.78	225.40
342.16	226.60
342.54	226.80
342.93	214.76
343.31	225.60
343.69	226.32
344.07	226.78
344.46	227.17
344.84	227.48
345.22	227.51
345.60	227.85
345.99	227.96
346.37	228.04
346.75	228.14
347.13	228.19
347.52	228.16
347.90	228.25
348.28	228.27
348.66	228.30
349.05	228.14
349.43	228.03
349.81	228.07
350.19	228.00
350.57	227.95
350.96	227.98
351.34	228.03
351.72	228.03
352.10	228.07
352.48	228.10
352.87	228.19
353.25	228.32
353.63	228.38
354.01	228.51
354.39	228.56
354.77	228.57
355.15	228.70
355.54	228.80
355.92	228.87
356.30	228.90
356.68	229.03
357.06	229.13
357.44	229.29
357.82	229.30
358.20	229.40
358.58	229.50
358.97	229.54
359.35	229.67
359.73	229.71
360.11	229.81
360.49	229.85
360.87	229.76
361.25	229.81
361.63	229.90
362.01	229.90
362.39	229.98
362.77	229.99
363.15	229.98
363.53	229.97
363.91	230.01
364.29	230.04
364.67	229.95
365.05	230.07
365.43	230.09
365.81	230.13
366.19	230.23
366.57	230.20
366.95	230.11
367.33	230.02
367.71	230.03
368.09	229.94
368.47	230.03
368.85	230.09
369.23	230.10
369.61	229.97
369.99	229.93
370.37	229.88
370.75	229.97
371.13	229.94
371.51	229.89
371.89	229.77
372.27	229.71
372.65	229.67
373.03	229.50
373.41	229.41
373.78	229.41
374.16	229.18
374.54	229.09
374.92	229.03
375.30	229.03
375.68	228.92
376.06	228.92
376.44	228.79
376.82	228.69
377.19	228.64
377.57	228.62
377.95	228.53
378.33	228.46
378.71	228.30
379.09	228.30
379.47	228.29
379.84	228.20
380.22	228.07
380.60	228.00
380.98	227.80
381.36	227.75
381.73	227.56
382.11	227.67
382.49	227.63
382.87	227.67
383.25	227.52
383.62	227.67
384.00	227.55
384.38	227.49
384.76	227.56
385.13	227.49
385.51	227.33
385.89	227.19
386.27	226.97
386.64	226.90
387.02	226.65
387.40	226.55
387.78	226.50
388.15	226.60
388.53	226.53
388.91	226.61
389.29	226.59
389.66	226.61
390.04	226.42
390.42	226.45
390.79	226.35
391.17	226.28
391.55	226.08
391.92	225.99
392.30	225.96
392.68	225.88
393.05	225.79
393.43	225.81
393.81	225.88
394.18	225.99
394.56	226.03
394.94	226.07
395.31	226.15
395.69	226.28
396.06	226.33
396.44	226.33
396.82	226.30
397.19	226.44
397.57	226.40
397.95	226.56
398.32	226.58
398.70	226.69
399.07	226.86
399.45	226.93
399.82	227.13
400.20	227.16
400.58	227.28
400.95	227.40
401.33	227.56
401.70	227.75
402.08	227.90
402.45	227.95
402.83	228.14
403.20	228.22
403.58	228.34
403.95	228.44
404.33	228.66
404.71	228.89
405.08	229.10
405.46	229.43
405.83	229.56
406.21	229.77
406.58	230.10
406.96	230.40
407.33	230.56
407.70	230.77
408.08	231.24
408.45	231.50
408.83	231.83
409.20	232.31
409.58	232.63
409.95	233.10
410.33	233.50
410.70	233.93
411.08	234.33
411.45	234.78
411.82	235.25
412.20	235.86
412.57	236.52
412.95	237.00
413.32	237.55
413.69	238.31
414.07	239.08
414.44	239.77
414.82	240.43
415.19	241.42
415.56	242.40
415.94	243.22
416.31	244.30
416.68	245.34
417.06	246.37
417.43	247.53
417.81	248.72
418.18	250.19
418.55	251.50
418.93	253.07
419.30	254.59
419.67	256.31
420.04	257.93
420.42	259.71
420.79	261.95
421.16	264.00
421.54	266.04
421.91	268.16
422.28	270.36
422.66	272.77
423.03	274.99
423.40	277.38
423.77	279.97
424.15	282.57
424.52	285.29
424.89	288.30
425.26	291.11
425.64	293.67
426.01	296.47
426.38	299.57
426.75	302.70
427.13	306.03
427.50	309.21
427.87	312.70
428.24	316.03
428.61	319.13
428.99	322.83
429.36	326.75
429.73	330.61
430.10	334.44
430.47	338.38
430.85	342.48
431.22	346.68
431.59	351.23
431.96	355.57
432.33	360.37
432.70	364.85
433.08	370.16
433.45	375.43
433.82	380.50
434.19	386.25
434.56	391.72
434.93	396.79
435.30	402.03
435.68	407.71
436.05	413.53
436.42	419.19
436.79	424.37
437.16	429.96
437.53	435.61
437.90	441.34
438.27	446.97
438.64	452.83
439.01	458.30
439.38	462.99
439.75	467.64
440.13	472.96
440.50	478.00
440.87	482.25
441.24	486.50
441.61	491.34
441.98	494.77
442.35	499.06
442.72	503.37
443.09	507.61
443.46	510.27
443.83	512.05
444.20	513.53
444.57	515.82
444.94	516.92
445.31	518.49
445.68	519.96
446.05	520.89
446.42	520.75
446.79	520.67
447.16	520.69
447.53	520.70
447.90	519.03
448.27	517.50
448.64	514.95
449.01	513.35
449.37	510.13
449.74	506.93
450.11	503.04
450.48	498.65
450.85	494.16
451.22	490.39
451.59	486.77
451.96	483.51
452.33	478.70
452.70	474.53
453.07	469.17
453.43	463.77
453.80	458.61
454.17	453.63
454.54	448.99
454.91	443.74
455.28	438.81
455.65	434.17
456.02	429.52
456.38	425.54
456.75	420.42
457.12	416.04
457.49	411.81
457.86	407.55
458.23	404.05
458.59	400.18
458.96	396.29
459.33	392.74
459.70	389.04
460.07	386.17
460.43	382.83
460.80	379.66
461.17	376.86
461.54	373.90
461.91	371.21
462.27	368.27
462.64	365.88
463.01	363.24
463.38	360.60
463.74	357.93
464.11	355.72
464.48	353.96
464.85	351.73
465.21	349.90
465.58	348.03
465.95	345.85
466.32	344.05
466.68	342.15
467.05	340.41
467.42	338.85
467.78	336.85
468.15	335.05
468.52	333.66
468.88	331.80
469.25	330.25
469.62	328.99
469.98	327.54
470.35	326.15
470.72	324.82
471.08	323.56
471.45	322.38
471.82	321.07
472.18	319.53
472.55	318.59
472.92	317.55
473.28	316.51
473.65	315.54
474.02	314.40
474.38	313.40
474.75	312.53
475.11	311.50
475.48	310.77
475.85	310.15
476.21	309.63
476.58	309.07
476.94	308.46
477.31	307.78
477.67	307.18
478.04	306.58
478.41	306.06
478.77	305.64
479.14	305.06
479.50	304.76
479.87	304.50
480.23	304.27
480.60	303.93
480.96	303.63
481.33	303.57
481.69	303.43
482.06	303.40
482.42	303.23
482.79	303.11
483.15	303.10
483.52	303.19
483.88	303.01
484.25	303.00
484.61	303.10
484.98	303.20
485.34	303.31
485.71	303.54
486.07	303.83
486.44	304.00
486.80	304.34
487.17	304.60
487.53	305.10
487.90	305.37
488.26	305.84
488.62	306.31
488.99	306.68
489.35	307.07
489.72	307.57
490.08	308.29
490.44	308.71
490.81	309.31
491.17	309.61
491.54	310.40
491.90	311.15
492.26	311.72
492.63	312.41
492.99	313.06
493.36	313.80
493.72	314.50
494.08	315.22
494.45	316.01
494.81	316.70
495.17	317.35
495.54	318.20
495.90	318.97
496.26	319.77
496.63	320.44
496.99	321.42
497.35	322.20
497.72	322.89
498.08	323.87
498.44	324.72
498.80	325.85
499.17	326.57
499.53	327.27
499.89	328.07
500.26	328.75
500.62	329.59
500.98	330.39
501.34	331.05
501.71	331.82
502.07	332.58
502.43	333.31
502.79	334.19
503.16	334.80
503.52	335.42
503.88	335.97
504.24	336.70
504.60	337.25
504.97	337.88
505.33	338.38
505.69	338.93
506.05	339.38
506.41	339.63
506.78	340.02
507.14	340.42
507.50	340.83
507.86	341.25
508.22	341.45
508.59	341.59
508.95	341.80
509.31	342.06
509.67	342.18
510.03	342.53
510.39	342.45
510.75	342.67
511.12	342.78
511.48	342.94
511.84	343.01
512.20	343.01
512.56	342.99
512.92	343.10
513.28	343.10
513.64	342.98
514.00	343.17
514.37	343.20
514.73	343.26
515.09	343.25
515.45	343.29
515.81	343.52
516.17	343.71
516.53	343.95
516.89	344.05
517.25	344.13
517.61	344.00
517.97	344.26
518.33	344.34
518.69	344.51
519.05	344.59
519.41	344.75
519.77	345.21
520.13	345.52
520.49	345.75
520.85	346.20
521.21	346.83
521.57	347.30
521.93	347.77
522.29	348.32
522.65	348.90
523.01	349.49
523.37	350.11
523.73	350.94
524.09	351.68
524.45	352.55
524.81	353.53
525.17	354.64
525.53	355.62
525.89	356.77
526.25	358.04
526.61	359.40
526.97	360.68
527.33	361.96
527.68	363.68
528.04	365.39
528.40	367.00
528.76	368.81
529.12	370.52
529.48	372.45
529.84	374.47
530.20	376.59
530.56	378.84
530.91	381.17
531.27	383.51
531.63	385.80
531.99	388.22
532.35	390.77
532.71	393.41
533.07	396.11
533.42	398.90
533.78	401.80
534.14	404.68
534.50	407.70
534.86	410.76
535.21	413.57
535.57	416.71
535.93	420.07
536.29	423.31
536.65	426.74
537.00	430.21
537.36	433.84
537.72	437.39
538.08	440.95
538.44	444.50
538.79	448.19
539.15	451.93
539.51	455.85
539.87	459.89
540.22	463.91
540.58	468.07
540.94	472.12
541.29	476.16
541.65	480.31
542.01	484.70
542.37	489.00
542.72	493.42
543.08	497.70
543.44	501.97
543.79	506.16
544.15	510.79
544.51	515.34
544.87	519.86
545.22	524.54
545.58	529.19
545.94	533.84
546.29	538.44
546.65	543.11
547.01	547.72
547.36	552.30
547.72	556.87
548.07	561.37
548.43	566.01
548.79	570.59
549.14	575.31
549.50	580.08
549.86	584.68
550.21	589.38
550.57	594.17
550.92	598.80
551.28	603.55
551.64	608.14
551.99	612.87
552.35	617.40
552.70	622.06
553.06	626.70
553.41	631.39
553.77	636.22
554.13	640.94
554.48	645.68
554.84	650.34
555.19	654.95
555.55	660.03
555.90	664.68
556.26	669.25
556.61	673.92
556.97	678.38
557.32	682.92
557.68	687.34
558.03	691.98
558.39	696.49
558.74	701.03
559.10	705.44
559.45	709.75
559.81	714.49
560.16	718.85
560.52	723.22
560.87	727.61
561.23	731.82
561.58	736.35
561.94	740.55
562.29	744.80
562.64	748.88
563.00	752.59
563.35	757.02
563.71	761.57
564.06	765.55
564.42	769.55
564.77	773.59
565.12	777.82
565.48	781.69
565.83	785.48
566.19	789.34
566.54	793.20
566.89	797.01
567.25	800.40
567.60	804.19
567.96	807.99
568.31	811.55
568.66	815.02
569.02	818.16
569.37	821.49
569.72	824.77
570.08	828.07
570.43	831.29
570.78	834.05
571.14	836.85
571.49	839.80
571.84	842.96
572.20	845.56
572.55	848.21
572.90	850.89
573.26	853.51
573.61	856.12
573.96	858.24
574.31	860.39
574.67	862.46
575.02	864.18
575.37	865.74
575.72	867.48
576.08	869.32
576.43	871.01
576.78	872.77
577.13	874.46
577.49	876.25
577.84	877.77
578.19	879.10
578.54	880.40
578.90	881.64
579.25	882.36
579.60	883.63
579.95	884.42
580.30	885.29
580.66	886.19
581.01	886.92
581.36	887.80
581.71	888.58
582.06	889.25
582.42	890.12
582.77	890.87
583.12	891.49
583.47	892.35
583.82	893.05
584.17	893.28
584.53	893.59
584.88	893.95
585.23	894.15
585.58	894.44
585.93	894.77
586.28	895.18
586.63	895.66
586.98	896.04
587.34	896.57
587.69	896.74
588.04	896.94
588.39	896.85
588.74	896.70
589.09	896.79
589.44	896.73
589.79	896.58
590.14	896.75
590.49	896.39
590.84	895.52
591.19	895.49
591.54	894.95
591.89	894.16
592.25	893.68
592.60	892.85
592.95	892.07
593.30	891.04
593.65	890.00
594.00	889.01
594.35	888.29
594.70	886.87
595.05	885.98
595.40	884.78
595.75	883.68
596.10	882.77
596.45	881.60
596.80	881.03
597.15	880.06
597.50	878.56
597.85	877.71
598.19	876.76
598.54	875.61
598.89	874.77
599.24	873.90
599.59	872.65
599.94	871.96
600.29	871.15
600.64	870.12
600.99	868.74
601.34	867.45
601.69	865.73
602.04	864.53
602.39	863.05
602.74	861.82
603.08	860.88
603.43	859.57
603.78	858.18
604.13	856.43
604.48	854.76
604.83	853.49
605.18	851.80
605.53	849.85
605.87	847.75
606.22	846.18
606.57	844.39
606.92	842.60
607.27	840.90
607.62	839.19
607.96	837.52
608.31	835.82
608.66	834.04
609.01	831.92
609.36	829.75
609.70	827.16
610.05	824.92
610.40	822.63
610.75	820.28
611.10	818.04
611.44	815.46
611.79	812.92
612.14	810.52
612.49	807.65
612.83	805.32
613.18	802.96
613.53	800.18
613.88	797.39
614.22	794.70
614.57	791.65
614.92	788.85
615.27	786.14
615.61	783.42
615.96	780.57
616.31	778.15
616.65	775.98
617.00	773.90
617.35	771.41
617.70	768.75
618.04	766.19
618.39	763.43
618.74	761.03
619.08	758.55
619.43	755.72
619.78	753.50
620.12	750.94
620.47	748.32
620.82	745.62
621.16	743.22
621.51	740.82
621.85	738.42
622.20	735.68
622.55	732.95
622.89	730.53
623.24	728.34
623.59	725.78
623.93	723.36
624.28	720.57
624.62	718.12
624.97	715.80
625.32	713.30
625.66	711.00
626.01	708.46
626.35	705.90
626.70	703.43
627.04	700.93
627.39	698.30
627.73	695.75
628.08	693.33
628.43	690.83
628.77	687.99
629.12	685.12
629.46	682.64
629.81	679.70
630.15	676.91
630.50	674.21
630.84	671.38
631.19	668.33
631.53	665.84
631.88	662.79
632.22	659.68
632.57	657.07
632.91	654.09
633.26	651.30
633.60	648.47
633.95	645.78
634.29	643.19
634.64	640.67
634.98	638.01
635.32	635.46
635.67	632.93
636.01	630.70
636.36	628.07
636.70	625.67
637.05	623.50
637.39	621.07
637.73	618.33
638.08	616.06
638.42	613.90
638.77	611.35
639.11	608.98
639.45	606.53
639.80	603.91
640.14	601.52
640.49	599.07
640.83	596.70
641.17	594.25
641.52	591.86
641.86	589.42
642.20	587.05
642.55	584.53
642.89	582.08
643.23	579.31
643.58	577.30
643.92	574.78
644.26	572.36
644.61	570.05
644.95	567.72
645.29	564.98
645.64	562.12
645.98	559.73
646.32	557.41
646.66	554.93
647.01	552.46
647.35	550.09
647.69	547.62
648.04	545.43
648.38	542.95
648.72	540.25
649.06	537.67
649.41	535.12
649.75	532.39
650.09	529.92
650.43	527.57
650.78	524.76
651.12	522.16
651.46	519.95
651.80	517.42
652.14	515.01
652.49	512.91
652.83	510.92
653.17	508.24
653.51	505.73
653.85	503.58
654.20	501.14
654.54	498.57
654.88	496.20
655.22	493.37
655.56	490.82
655.90	488.58
656.25	486.24
656.59	483.94
656.93	481.88
657.27	479.61
657.61	477.22
657.95	475.29
658.29	473.11
658.64	470.49
658.98	468.19
659.32	465.95
659.66	463.70
660.00	461.25
660.34	459.29
660.68	457.04
661.02	454.71
661.36	452.75
661.70	450.82
662.05	448.72
662.39	447.11
662.73	445.14
663.07	443.25
663.41	441.46
663.75	439.48
664.09	437.53
664.43	435.58
664.77	433.82
665.11	431.89
665.45	429.87
665.79	428.17
666.13	426.40
666.47	424.51
666.81	422.57
667.15	420.58
667.49	418.82
667.83	417.38
668.17	415.60
668.51	413.70
668.85	411.93
669.19	410.37
669.53	408.54
669.87	406.91
670.21	405.26
670.55	403.60
670.89	402.14
671.23	400.62
671.57	398.96
671.91	397.34
672.25	395.69
672.58	394.27
672.92	392.72
673.26	391.34
673.60	389.89
673.94	388.44
674.28	387.13
674.62	385.86
674.96	384.47
675.30	383.13
675.64	381.79
675.97	380.44
676.31	378.96
676.65	377.68
676.99	376.50
677.33	375.10
677.67	373.72
678.01	372.17
678.34	370.76
678.68	369.63
679.02	368.29
679.36	367.10
679.70	365.79
680.04	364.37
680.37	362.95
680.71	361.64
681.05	360.65
681.39	359.59
681.73	358.30
682.06	357.07
682.40	355.98
682.74	354.89
683.08	353.66
683.42	352.58
683.75	351.46
684.09	350.17
684.43	348.99
684.77	347.78
685.10	346.64
685.44	345.41
685.78	344.22
686.12	342.98
686.45	341.80
686.79	340.61
687.13	339.76
687.46	338.66
687.80	337.67
688.14	336.40
688.48	335.23
688.81	334.09
689.15	333.00
689.49	331.83
689.82	330.80
690.16	329.71
690.50	328.72
690.83	327.61
691.17	326.64
691.51	325.71
691.84	324.95
692.18	323.97
692.52	323.17
692.85	322.27
693.19	321.50
693.52	320.42
693.86	319.47
694.20	318.42
694.53	317.54
694.87	316.42
695.21	315.49
695.54	314.46
695.88	313.54
696.21	312.44
696.55	311.51
696.88	310.53
697.22	309.64
697.56	308.75
697.89	307.82
698.23	306.93
698.56	305.99
698.90	304.95
699.23	304.10
699.57	303.13
699.90	302.18
700.24	301.20
700.58	300.45
700.91	299.61
701.25	298.81
701.58	298.09
701.92	297.34
702.25	296.56
702.59	295.90
702.92	295.06
703.26	294.37
703.59	293.59
703.93	293.11
704.26	292.45
704.60	291.74
704.93	291.11
705.26	290.37
705.60	289.69
705.93	289.05
706.27	288.45
706.60	287.91
706.94	287.26
707.27	286.60
707.61	285.95
707.94	285.42
708.27	284.69
708.61	284.00
708.94	283.42
709.28	282.82
709.61	282.09
709.94	281.52
710.28	280.99
710.61	280.48
710.95	279.62
711.28	279.21
711.61	278.53
711.95	277.84
712.28	277.22
712.61	276.50
712.95	275.98
713.28	275.43
713.61	274.83
713.95	274.25
714.28	273.82
714.61	273.41
714.95	272.95
715.28	272.57
715.61	272.02
715.95	271.55
716.28	270.97
716.61	270.58
716.95	270.21
717.28	269.73
717.61	269.30
717.94	268.97
718.28	268.41
718.61	268.05
718.94	267.66
719.27	267.41
719.61	267.23
719.94	266.82
720.27	266.46
720.60	266.10
720.94	265.70
721.27	265.30
721.60	264.94
721.93	264.62
722.27	264.33
722.60	264.15
722.93	263.85
723.26	263.67
723.59	263.29
723.93	262.88
724.26	262.57
724.59	262.21
724.92	261.84
725.25	261.52
725.59	261.11
725.92	260.96
726.25	260.61
726.58	260.16
726.91	259.89
727.24	259.63
727.57	259.33
727.91	259.10
728.24	258.75
728.57	258.31
728.90	257.90
729.23	257.50
729.56	257.20
729.89	256.89
730.22	256.52
730.55	256.26
730.89	256.04
731.22	255.75
731.55	255.57
731.88	255.35
732.21	255.13
732.54	254.84
732.87	254.46
733.20	254.22
733.53	254.12
733.86	253.78
734.19	253.45
734.52	253.16
734.85	253.01
735.18	252.79
735.51	252.69
735.84	252.41
736.17	252.15
736.50	251.87
736.83	251.87
737.16	251.66
737.49	251.49
737.82	251.15
738.15	250.93
738.48	250.60
738.81	250.28
739.14	249.92
739.47	249.83
739.80	249.59
740.13	249.32
740.46	249.04
740.79	248.85
741.12	248.75
741.45	248.55
741.78	248.20
742.11	247.99
742.44	247.75
742.77	247.59
743.10	247.31
743.43	247.01
743.75	246.56
744.08	246.49
744.41	246.24
744.74	246.11
745.07	245.91
745.40	245.65
745.73	245.55
746.06	245.37
746.39	245.03
746.71	244.86
747.04	244.59
747.37	244.38
747.70	244.16
748.03	243.89
748.36	243.70
748.68	243.49
749.01	243.27
749.34	242.97
749.67	242.80
750.00	242.67
750.33	242.53
750.65	242.39
750.98	241.98
751.31	241.72
751.64	241.57
751.97	241.50
752.29	241.37
752.62	241.06
752.95	240.87
753.28	240.74
753.60	240.50
753.93	240.47
754.26	240.26
754.59	240.10
754.91	239.91
755.24	239.69
755.57	239.62
755.90	239.53
756.22	239.45
756.55	239.31
756.88	239.14
757.20	238.94
757.53	238.77
757.86	238.81
758.19	238.74
758.51	238.49
758.84	238.27
759.17	238.08
759.49	238.04
759.82	238.01
760.15	237.99
760.47	237.97
760.80	237.82
761.13	237.70
761.45	237.59
761.78	237.40
762.11	237.40
762.43	237.15
762.76	237.03
763.08	236.93
763.41	236.87
763.74	236.89
764.06	236.83
764.39	236.70
764.71	236.57
765.04	236.52
765.37	236.54
765.69	236.41
766.02	236.44
766.34	236.35
766.67	236.30
767.00	236.24
767.32	236.33
767.65	236.37
767.97	236.36
768.30	236.30
768.62	236.30
768.95	236.26
769.27	236.26
769.60	236.14
769.92	236.01
770.25	235.83
770.57	235.74
770.90	235.71
771.22	235.71
771.55	235.62
771.87	235.52
772.20	235.49
772.52	235.63
772.85	235.76
773.17	235.68
773.50	235.62
773.82	235.49
774.15	235.20
774.47	234.98
774.80	234.90
775.12	234.85
775.45	234.78
775.77	234.62
776.09	234.61
776.42	234.60
776.74	234.55
777.07	234.49
777.39	234.38
777.72	234.30
778.04	234.29
778.36	234.15
778.69	234.20
779.01	234.08
779.33	233.84
779.66	233.63
779.98	233.47
780.31	233.40
780.63	233.36
780.95	233.43
781.28	233.46
781.60	233.40
781.92	233.31
782.25	233.18
782.57	233.22
782.89	233.12
783.22	233.03
783.54	233.01
783.86	232.95
784.19	232.91
784.51	232.90
784.83	232.72
785.16	232.69
785.48	232.49
785.80	232.50
786.12	232.44
786.45	232.38
786.77	232.40
787.09	232.19
787.42	232.13
787.74	232.08
788.06	232.02
788.38	231.96
788.71	231.87
789.03	231.86
789.35	231.78
789.67	231.76
789.99	231.70
790.32	231.58
790.64	231.60
790.96	231.65
791.28	231.46
791.61	231.42
791.93	231.46
792.25	231.51
792.57	231.54
792.89	231.44
793.21	231.31
793.54	231.38
793.86	231.43
794.18	231.49
794.50	231.48
794.82	231.46
795.14	231.46
795.47	231.45
795.79	231.47
796.11	231.40
796.43	231.30
796.75	231.35
797.07	231.38
797.39	231.40
797.71	231.37
798.04	231.36
798.36	231.27
798.68	231.21
799.00	231.19
799.32	231.07
799.64	231.05
799.96	231.04
800.28	231.04
800.60	231.00
800.92	230.94
801.24	230.83
801.56	230.81
801.89	230.80
802.21	230.82
802.53	230.73
802.85	230.70
803.17	230.85
803.49	230.77
803.81	230.74
804.13	230.69
804.45	230.53
804.77	230.64
805.09	230.57
805.41	230.49
805.73	230.43
806.05	230.34
806.37	230.22
806.69	230.18
807.01	230.16
807.33	230.16
807.65	230.13
807.97	230.21
808.28	230.17
808.60	230.14
808.92	230.17
809.24	230.27
809.56	230.22
809.88	230.10
810.20	230.13
810.52	230.14
810.84	230.05
811.16	230.07
811.48	229.91
811.80	230.16
812.12	230.19
812.43	230.13
812.75	230.14
813.07	230.30
813.39	230.33
813.71	230.21
814.03	230.11
814.35	230.19
814.67	230.07
814.98	229.93
815.30	229.92
815.62	229.82
815.94	229.78
816.26	229.93
816.58	229.92
816.89	229.87
817.21	229.84
817.53	229.84
817.85	229.79
818.17	229.82
818.48	229.71
818.80	229.72
819.12	229.76
819.44	229.77
819.76	229.67
820.07	229.73
820.39	229.76
820.71	229.81
821.03	229.66
821.34	229.67
821.66	229.76
821.98	229.66
822.30	229.68
822.61	229.67
822.93	229.49
823.25	229.47
823.57	229.47
823.88	229.42
824.20	229.38
824.52	229.34
824.83	229.26
825.15	229.18
825.47	229.17
825.79	229.16
826.10	229.10
826.42	229.06
826.74	228.95
827.05	228.96
827.37	228.87
827.69	228.94
828.00	228.85
828.32	228.71
828.64	228.69
828.95	228.79
829.27	228.79
829.58	228.77
829.90	228.66
830.22	228.60
830.53	228.58
830.85	228.58
831.17	228.57
831.48	228.70
831.80	228.72
832.11	228.74
832.43	228.74
832.75	228.77
833.06	228.94
833.38	228.93
833.69	228.89
834.01	229.03
834.32	228.90
834.64	228.97
834.96	229.03
835.27	229.06
835.59	228.93
835.90	228.90
836.22	228.96
836.53	229.10
836.85	229.12
837.16	229.34
837.48	229.33
837.79	229.39
838.11	229.40
838.42	229.45
838.74	229.48
839.05	229.50
839.37	229.46
839.68	229.38
840.00	229.35
840.31	229.46
840.63	229.39
840.94	229.47
841.26	229.52
841.57	229.62
841.88	229.64
842.20	229.62
842.51	229.63
842.83	229.64
843.14	229.78
843.46	229.70
843.77	229.70
844.08	229.70
844.40	229.68
844.71	229.69
845.03	229.62
845.34	229.61
845.65	229.56
845.97	229.59
846.28	229.50
846.60	229.52
846.91	229.41
847.22	229.47
847.54	229.49
847.85	229.46
848.16	229.41
848.48	229.41
848.79	229.50
849.10	229.47
849.42	229.49
849.73	229.35
850.04	229.54
850.36	229.34
850.67	229.47
850.98	229.40
851.30	229.35
851.61	229.35
851.92	229.22
852.23	229.21
852.55	229.21
852.86	229.20
853.17	229.32
853.49	229.30
853.80	229.24
854.11	229.14
854.42	229.10
854.74	229.07
855.05	229.12
855.36	229.00
855.67	228.99
855.99	228.92
856.30	228.97
856.61	228.81
856.92	228.84
857.23	228.69
857.55	228.77
857.86	228.70
858.17	228.65
858.48	228.55
858.79	228.53
859.11	228.57
859.42	228.52
859.73	228.41
860.04	228.44
860.35	228.34
860.66	228.38
860.98	228.35
861.29	228.34
861.60	228.23
861.91	228.28
862.22	228.27
862.53	228.21
862.84	228.00
863.16	227.92
863.47	227.91
863.78	227.92
864.09	227.85
864.40	227.89
864.71	227.86
865.02	227.94
865.33	227.90
865.64	227.80
865.95	227.91
866.27	227.96
866.58	227.90
866.89	227.87
867.20	227.82
867.51	227.84
867.82	227.81
868.13	227.82
868.44	227.78
868.75	227.79
869.06	227.80
869.37	227.83
869.68	227.82
869.99	227.85
870.30	227.89
870.61	227.94
870.92	227.92
871.23	227.99
871.54	228.07
871.85	228.19
872.16	228.23
872.47	228.14
872.78	228.10
873.09	228.10
873.40	228.25
873.71	228.22
874.02	228.17
874.33	228.16
874.64	228.12
874.95	228.10
875.26	228.02
875.56	228.00
875.87	228.04
876.18	228.11
876.49	228.36
876.80	228.33
877.11	228.29
877.42	228.28
877.73	228.29
878.04	228.23
878.35	228.16
878.66	228.20
878.96	228.26
879.27	228.22
879.58	228.30
879.89	228.24
880.20	228.45
880.51	228.56
880.82	228.58
881.12	228.66
881.43	228.66
881.74	228.77
882.05	228.89
882.36	228.98
882.67	229.05
882.97	228.82
883.28	228.77
883.59	228.83
883.90	228.91
884.21	228.95
884.51	229.02
884.82	229.06
885.13	229.06
885.44	229.10
885.74	229.09
886.05	229.10
886.36	229.15
886.67	228.97
886.98	229.07
887.28	229.14
887.59	229.20
887.90	229.30
888.20	229.19
888.51	229.22
888.82	229.14
889.13	229.17
889.43	229.24
889.74	229.23
890.05	229.19
890.35	229.18
890.66	229.17
890.97	229.20
891.28	229.17
891.58	229.12
891.89	229.06
892.20	229.03
892.50	228.91
892.81	228.87
893.12	228.88
893.42	228.75
893.73	228.70
894.04	228.65
894.34	228.55
894.65	228.61
894.95	228.62
895.26	228.65
895.57	228.67
895.87	228.54
896.18	228.56
896.48	228.58
896.79	228.47
897.10	228.46
897.40	228.33
897.71	228.34
898.01	228.35
898.32	228.47
898.63	228.48
898.93	228.53
899.24	228.47
899.54	228.40
899.85	228.30
900.15	228.19
900.46	228.17
900.76	228.24
901.07	228.17
901.38	228.02
901.68	228.02
901.99	227.85
902.29	227.86
902.60	227.85
902.90	227.74
903.21	227.80
903.51	227.79
903.82	227.91
904.12	227.94
904.43	227.93
904.73	227.77
905.03	227.73
905.34	227.91
905.64	227.90
905.95	227.87
906.25	227.90
906.56	227.95
906.86	227.90
907.17	227.82
907.47	227.87
907.77	227.83
908.08	227.71
908.38	227.72
908.69	227.66
908.99	227.78
909.30	227.85
909.60	227.80
909.90	227.78
910.21	227.61
910.51	227.50
910.81	227.48
911.12	227.51
911.42	227.59
911.73	227.40
912.03	227.40
912.33	227.46
912.64	227.50
912.94	227.50
913.24	227.42
913.55	227.43
913.85	227.34
914.15	227.40
914.46	227.44
914.76	227.47
915.06	227.54
915.37	227.45
915.67	227.44
915.97	227.52
916.27	227.37
916.58	227.42
916.88	227.50
917.18	227.48
917.49	227.60
917.79	227.53
918.09	227.54
918.39	227.68
918.70	227.73
919.00	227.72
919.30	227.81
919.60	227.90
919.91	227.86
920.21	227.91
920.51	227.98
920.81	227.98
921.12	228.05
921.42	227.98
921.72	227.98
922.02	228.02
922.32	228.00
922.63	228.14
922.93	228.29
923.23	228.22
923.53	228.29
923.83	228.23
924.13	228.36
924.44	228.39
924.74	228.39
925.04	228.44
925.34	228.47
925.64	228.44
925.94	228.50
926.24	228.71
926.55	228.71
926.85	228.79
927.15	228.93
927.45	228.91
927.75	229.02
928.05	229.03
928.35	229.11
928.65	229.14
928.95	229.18
929.26	229.15
929.56	229.29
929.86	229.30
930.16	229.33
930.46	229.22
930.76	229.21
931.06	229.28
931.36	229.29
931.66	229.14
931.96	229.15
932.26	229.09
932.56	228.97
932.86	229.01
933.16	228.91
933.46	228.90
933.76	228.94
934.06	228.97
934.36	229.07
934.66	228.99
934.96	228.97
935.26	228.92
935.56	228.92
935.86	228.81
936.16	228.81
936.46	228.80
936.76	228.78
937.06	228.77
937.36	228.69
937.66	228.71
937.96	228.91
938.26	228.86
938.56	228.90
938.86	228.92
939.16	228.98
939.46	229.02
939.76	228.85
940.06	228.85
940.35	228.73
940.65	228.70
940.95	228.70
941.25	228.65
941.55	228.71
941.85	228.70
942.15	228.72
942.45	228.71
942.75	228.69
943.04	228.82
943.34	228.82
943.64	228.73
943.94	228.64
944.24	228.58
944.54	228.63
944.84	228.53
945.13	228.42
945.43	228.39
945.73	228.39
946.03	228.44
946.33	228.36
946.62	228.33
946.92	228.25
947.22	228.19
947.52	228.17
947.82	228.05
948.11	227.96
948.41	227.97
948.71	228.00
949.01	227.90
949.31	227.87
949.60	227.84
949.90	227.88
950.20	227.86
950.50	227.82
950.79	227.73
951.09	227.74
951.39	227.70
951.69	227.70
951.98	227.67
952.28	227.71
952.58	227.80
952.87	227.83
953.17	227.90
953.47	227.90
953.76	227.99
954.06	228.02
954.36	228.03
954.66	227.97
954.95	227.86
955.25	227.99
955.55	227.98
955.84	227.95
956.14	227.91
956.44	227.92
956.73	227.89
957.03	227.89
957.32	227.91
957.62	227.98
957.92	228.01
958.21	228.02
958.51	228.16
958.81	228.13
959.10	228.10
959.40	228.12
959.69	228.22
959.99	228.18
960.29	228.19
960.58	228.12
960.88	228.25
961.17	228.27
961.47	228.23
961.76	228.28
962.06	228.37
962.36	228.46
962.65	228.42
962.95	228.49
963.24	228.53
963.54	228.60
963.83	228.63
964.13	228.62
964.42	228.60
964.72	228.49
965.01	228.50
965.31	228.57
965.60	228.53
965.90	228.65
966.19	228.60
966.49	228.73
966.78	228.85
967.08	228.80
967.37	228.85
967.67	228.84
967.96	228.92
968.26	228.95
968.55	228.96
968.85	229.05
969.14	229.07
969.43	229.14
969.73	229.11
970.02	229.10
970.32	229.19
970.61	229.19
970.91	229.21
971.20	229.25
971.49	229.19
971.79	229.25
972.08	229.11
972.38	229.23
972.67	229.10
972.96	229.14
973.26	229.13
973.55	229.11
973.85	229.16
974.14	229.02
974.43	229.02
974.73	229.01
975.02	228.96
975.31	228.96
975.61	228.94
975.90	228.92
976.19	228.95
976.49	228.89
976.78	228.92
977.07	228.87
977.37	228.75
977.66	228.80
977.95	228.80
978.24	228.73
978.54	228.65
978.83	228.60
979.12	228.55
979.42	228.51
979.71	228.57
980.00	228.44
980.29	228.45
980.59	228.35
980.88	228.39
981.17	228.42
981.46	228.40
981.76	228.29
982.05	228.34
982.34	228.30
982.63	228.24
982.93	228.13
983.22	228.14
983.51	228.23
983.80	228.23
984.09	228.20
984.39	228.10
984.68	228.06
984.97	228.06
985.26	227.95
985.55	227.93
985.85	227.82
986.14	227.90
986.43	227.94
986.72	227.90
987.01	227.84
987.30	227.84
987.59	227.73
987.89	227.71
988.18	227.58
988.47	227.49
988.76	227.40
989.05	227.37
989.34	227.38
989.63	227.30
989.92	227.14
990.22	227.14
990.51	227.12
990.80	227.06
991.09	227.20
991.38	227.33
991.67	227.27
991.96	227.31
992.25	227.35
992.54	227.27
992.83	227.33
993.12	227.26
993.41	227.20
993.70	227.38
993.99	227.50
994.28	227.60
994.58	227.73
994.87	227.77
995.16	227.82
995.45	227.78
995.74	227.77
996.03	227.96
996.32	227.92
996.61	227.98
996.90	228.06
997.19	228.02
997.48	228.00
997.77	228.14
998.06	228.15
998.34	228.20
998.63	228.36
998.92	228.27
999.21	228.24
999.50	228.34
999.79	228.30
1000.08	228.30
1000.37	228.30
1000.66	228.28
1000.95	228.40
1001.24	228.48
1001.53	228.54
1001.82	228.62
1002.11	228.62
1002.40	228.70
1002.68	228.82
1002.97	229.00
1003.26	228.93
1003.55	228.99
1003.84	228.98
1004.13	229.03
1004.42	228.96
1004.71	228.87
1004.99	228.99
1005.28	229.20
1005.57	229.15
1005.86	229.20
1006.15	229.15
1006.44	229.19
1006.72	229.20
1007.01	229.19
1007.30	229.21
1007.59	229.16
1007.88	229.12
1008.17	229.14
1008.45	229.05
1008.74	229.07
1009.03	228.90
1009.32	228.99
1009.60	228.84
1009.89	228.77
1010.18	228.71
1010.47	228.68
1010.76	228.66
1011.04	228.74
1011.33	228.58
1011.62	228.62
1011.91	228.49
1012.19	228.51
1012.48	228.53
1012.77	228.52
1013.05	228.60
1013.34	228.51
1013.63	228.43
1013.92	228.41
1014.20	228.34
1014.49	228.36
1014.78	228.36
1015.06	228.31
1015.35	228.33
1015.64	228.45
1015.92	228.51
1016.21	228.50
1016.50	228.48
1016.78	228.43
1017.07	228.33
1017.36	228.34
1017.64	228.24
1017.93	228.21
1018.22	228.13
1018.50	228.05
1018.79	228.12
1019.08	227.88
1019.36	227.81
1019.65	227.78
1019.93	227.84
1020.22	227.76
1020.51	227.82
1020.79	227.71
1021.08	227.00
1021.36	227.50
1021.65	229.40
1021.94	226.00
1022.22	225.90
1022.51	225.90
1022.79	229.30
1023.08	226.60
1023.36	229.70
1023.65	226.60
>>>>>End Processed Spectral Data<<<<<
