SpectraSuite Data File
++++++++++++++++++++++++++++++++++++
Date: Fri Feb 01 14:39:45 EST 2013
User: group
Dark Spectrum Present: No
Reference Spectrum Present: No
Number of Sampled Component Spectra: 1
Spectrometers: USB2E7196
Integration Time (usec): 70000 (USB2E7196)
Spectra Averaged: 10 (USB2E7196)
Boxcar Smoothing: 10 (USB2E7196)
Correct for Electrical Dark: No (USB2E7196)
Strobe/Lamp Enabled: No (USB2E7196)
Correct for Detector Non-linearity: No (USB2E7196)
Correct for Stray Light: No (USB2E7196)
Number of Pixels in Processed Spectrum: 2048
>>>>>Begin Processed Spectral Data<<<<<
339.09	0.00
339.48	217.20
339.86	216.60
340.24	220.20
340.63	223.60
341.01	224.90
341.39	222.40
341.78	226.10
342.16	227.00
342.54	225.10
342.93	214.90
343.31	225.80
343.69	226.31
344.07	226.78
344.46	227.18
344.84	227.40
345.22	227.48
345.60	227.74
345.99	227.80
346.37	227.80
346.75	227.82
347.13	227.90
347.52	228.01
347.90	228.10
348.28	228.11
348.66	228.04
349.05	227.96
349.43	227.93
349.81	227.84
350.19	227.84
350.57	227.91
350.96	228.00
351.34	227.95
351.72	227.96
352.10	228.04
352.48	228.04
352.87	228.10
353.25	228.18
353.63	228.20
354.01	228.24
354.39	228.30
354.77	228.52
355.15	228.62
355.54	228.58
355.92	228.58
356.30	228.70
356.68	228.95
357.06	229.02
357.44	229.10
357.82	229.18
358.20	229.30
358.58	229.36
358.97	229.43
359.35	229.54
359.73	229.70
360.11	229.83
360.49	229.89
360.87	229.94
361.25	229.99
361.63	230.05
362.01	230.23
362.39	230.34
362.77	230.36
363.15	230.30
363.53	230.48
363.91	230.49
364.29	230.50
364.67	230.35
365.05	230.36
365.43	230.45
365.81	230.47
366.19	230.59
366.57	230.61
366.95	230.59
367.33	230.60
367.71	230.50
368.09	230.54
368.47	230.52
368.85	230.47
369.23	230.47
369.61	230.49
369.99	230.46
370.37	230.45
370.75	230.44
371.13	230.42
371.51	230.35
371.89	230.33
372.27	230.37
372.65	230.37
373.03	230.23
373.41	230.05
373.78	230.14
374.16	229.92
374.54	229.81
374.92	229.63
375.30	229.51
375.68	229.42
376.06	229.30
376.44	229.20
376.82	229.16
377.19	229.17
377.57	229.04
377.95	228.90
378.33	228.79
378.71	228.67
379.09	228.61
379.47	228.46
379.84	228.41
380.22	228.21
380.60	228.13
380.98	228.10
381.36	227.96
381.73	227.72
382.11	227.72
382.49	227.68
382.87	227.62
383.25	227.53
383.62	227.71
384.00	227.52
384.38	227.45
384.76	227.39
385.13	227.35
385.51	227.27
385.89	227.20
386.27	227.08
386.64	227.09
387.02	227.10
387.40	227.16
387.78	227.00
388.15	227.02
388.53	226.97
388.91	226.95
389.29	227.04
389.66	227.13
390.04	226.98
390.42	226.91
390.79	226.96
391.17	226.91
391.55	226.75
391.92	226.81
392.30	226.81
392.68	226.84
393.05	226.85
393.43	226.92
393.81	226.93
394.18	226.99
394.56	227.10
394.94	227.13
395.31	227.01
395.69	227.20
396.06	227.30
396.44	227.34
396.82	227.30
397.19	227.43
397.57	227.36
397.95	227.51
398.32	227.59
398.70	227.62
399.07	227.81
399.45	227.78
399.82	227.83
400.20	227.87
400.58	227.80
400.95	227.82
401.33	227.98
401.70	228.18
402.08	228.27
402.45	228.15
402.83	228.24
403.20	228.49
403.58	228.55
403.95	228.60
404.33	228.75
404.71	229.01
405.08	229.20
405.46	229.37
405.83	229.47
406.21	229.59
406.58	229.67
406.96	229.80
407.33	230.00
407.70	230.25
408.08	230.61
408.45	230.89
408.83	231.14
409.20	231.21
409.58	231.38
409.95	231.71
410.33	232.03
410.70	232.13
411.08	232.32
411.45	232.63
411.82	232.88
412.20	233.18
412.57	233.59
412.95	233.69
413.32	234.13
413.69	234.50
414.07	234.97
414.44	235.54
414.82	236.01
415.19	236.58
415.56	237.05
415.94	237.51
416.31	238.15
416.68	238.63
417.06	239.41
417.43	240.06
417.81	240.74
418.18	241.41
418.55	242.39
418.93	243.27
419.30	244.11
419.67	245.11
420.04	245.99
420.42	246.90
420.79	248.30
421.16	249.41
421.54	250.70
421.91	251.91
422.28	253.18
422.66	254.44
423.03	255.79
423.40	257.28
423.77	258.67
424.15	260.21
424.52	261.80
424.89	263.38
425.26	264.93
425.64	266.43
426.01	268.20
426.38	269.86
426.75	271.62
427.13	273.36
427.50	275.17
427.87	277.21
428.24	279.01
428.61	280.63
428.99	282.73
429.36	284.86
429.73	286.96
430.10	289.12
430.47	291.30
430.85	293.46
431.22	295.76
431.59	298.40
431.96	300.59
432.33	303.20
432.70	305.77
433.08	308.72
433.45	311.57
433.82	314.15
434.19	317.27
434.56	320.30
434.93	323.10
435.30	325.88
435.68	328.90
436.05	332.10
436.42	335.12
436.79	337.71
437.16	340.64
437.53	343.76
437.90	346.70
438.27	349.71
438.64	352.76
439.01	355.50
439.38	357.87
439.75	360.39
440.13	363.10
440.50	365.70
440.87	367.87
441.24	369.98
441.61	372.63
441.98	374.31
442.35	376.38
442.72	378.52
443.09	380.51
443.46	381.65
443.83	382.35
444.20	382.99
444.57	384.17
444.94	384.70
445.31	385.14
445.68	385.73
446.05	385.91
446.42	385.59
446.79	385.36
447.16	385.04
447.53	384.64
447.90	383.53
448.27	382.50
448.64	380.94
449.01	379.99
449.37	377.89
449.74	376.08
450.11	373.97
450.48	371.49
450.85	369.00
451.22	366.87
451.59	364.94
451.96	363.09
452.33	360.23
452.70	357.79
453.07	354.95
453.43	351.88
453.80	349.03
454.17	346.45
454.54	343.71
454.91	340.87
455.28	338.10
455.65	335.43
456.02	332.98
456.38	330.54
456.75	327.56
457.12	325.21
457.49	322.76
457.86	320.29
458.23	318.33
458.59	316.11
458.96	313.77
459.33	311.70
459.70	309.66
460.07	308.07
460.43	306.12
460.80	304.28
461.17	302.64
461.54	301.10
461.91	299.38
462.27	297.77
462.64	296.28
463.01	294.84
463.38	293.60
463.74	291.84
464.11	290.62
464.48	289.45
464.85	288.09
465.21	287.08
465.58	285.95
465.95	284.70
466.32	283.72
466.68	282.76
467.05	281.62
467.42	280.56
467.78	279.47
468.15	278.50
468.52	277.73
468.88	276.89
469.25	275.93
469.62	275.18
469.98	274.39
470.35	273.76
470.72	273.10
471.08	272.19
471.45	271.51
471.82	270.81
472.18	270.08
472.55	269.58
472.92	268.87
473.28	268.25
473.65	267.60
474.02	267.00
474.38	266.49
474.75	266.08
475.11	265.52
475.48	265.08
475.85	264.62
476.21	264.20
476.58	263.62
476.94	263.22
477.31	262.89
477.67	262.50
478.04	262.11
478.41	261.80
478.77	261.61
479.14	261.24
479.50	260.98
479.87	260.85
480.23	260.57
480.60	260.43
480.96	260.24
481.33	260.26
481.69	260.05
482.06	259.80
482.42	259.62
482.79	259.48
483.15	259.36
483.52	259.39
483.88	259.17
484.25	259.13
484.61	259.14
484.98	259.07
485.34	259.17
485.71	259.22
486.07	259.12
486.44	259.12
486.80	259.21
487.17	259.21
487.53	259.32
487.90	259.55
488.26	259.62
488.62	259.82
488.99	259.76
489.35	259.88
489.72	260.09
490.08	260.24
490.44	260.45
490.81	260.67
491.17	260.86
491.54	261.24
491.90	261.49
492.26	261.66
492.63	261.86
492.99	262.00
493.36	262.30
493.72	262.78
494.08	262.98
494.45	263.42
494.81	263.89
495.17	264.25
495.54	264.68
495.90	265.08
496.26	265.49
496.63	266.10
496.99	266.65
497.35	267.33
497.72	268.00
498.08	268.57
498.44	269.30
498.80	269.96
499.17	270.59
499.53	271.38
499.89	272.29
500.26	273.14
500.62	274.17
500.98	275.05
501.34	275.93
501.71	277.02
502.07	277.95
502.43	279.00
502.79	280.15
503.16	281.28
503.52	282.65
503.88	283.84
504.24	285.13
504.60	286.53
504.97	287.90
505.33	289.30
505.69	290.99
506.05	292.61
506.41	294.20
506.78	296.01
507.14	297.87
507.50	299.80
507.86	301.87
508.22	303.82
508.59	305.98
508.95	308.20
509.31	310.60
509.67	313.04
510.03	315.60
510.39	318.27
510.75	320.90
511.12	323.46
511.48	326.35
511.84	329.22
512.20	332.29
512.56	335.42
512.92	338.76
513.28	342.07
513.64	345.43
514.00	349.09
514.37	352.75
514.73	356.49
515.09	360.09
515.45	364.06
515.81	368.18
516.17	372.30
516.53	376.60
516.89	380.84
517.25	385.31
517.61	389.91
517.97	394.48
518.33	399.10
518.69	404.12
519.05	409.17
519.41	414.44
519.77	419.76
520.13	425.11
520.49	430.47
520.85	435.97
521.21	441.83
521.57	447.67
521.93	453.29
522.29	459.45
522.65	465.52
523.01	471.57
523.37	477.74
523.73	484.05
524.09	490.62
524.45	497.12
524.81	503.80
525.17	510.56
525.53	517.54
525.89	524.62
526.25	531.75
526.61	538.84
526.97	545.85
527.33	553.01
527.68	560.80
528.04	568.35
528.40	576.00
528.76	583.51
529.12	591.26
529.48	599.55
529.84	607.22
530.20	615.52
530.56	623.61
530.91	631.98
531.27	640.30
531.63	648.40
531.99	656.86
532.35	665.18
532.71	673.49
533.07	682.08
533.42	690.82
533.78	699.42
534.14	708.00
534.50	716.71
534.86	725.64
535.21	734.00
535.57	742.83
535.93	751.68
536.29	760.84
536.65	769.85
537.00	778.22
537.36	787.28
537.72	795.80
538.08	804.69
538.44	813.42
538.79	822.50
539.15	831.23
539.51	840.40
539.87	849.51
540.22	858.74
540.58	867.63
540.94	876.66
541.29	885.31
541.65	894.01
542.01	903.09
542.37	911.91
542.72	920.79
543.08	929.46
543.44	938.14
543.79	946.34
544.15	954.88
544.51	963.95
544.87	972.51
545.22	981.41
545.58	989.82
545.94	997.83
546.29	1005.82
546.65	1014.04
547.01	1021.86
547.36	1029.75
547.72	1037.27
548.07	1045.03
548.43	1052.52
548.79	1060.38
549.14	1068.05
549.50	1075.33
549.86	1082.61
550.21	1089.75
550.57	1096.83
550.92	1104.07
551.28	1111.26
551.64	1117.96
551.99	1124.92
552.35	1131.77
552.70	1138.49
553.06	1145.56
553.41	1152.80
553.77	1159.81
554.13	1166.93
554.48	1174.03
554.84	1180.44
555.19	1187.09
555.55	1193.65
555.90	1199.38
556.26	1205.40
556.61	1211.60
556.97	1217.28
557.32	1223.22
557.68	1229.25
558.03	1235.74
558.39	1241.59
558.74	1247.82
559.10	1253.85
559.45	1259.39
559.81	1265.52
560.16	1270.81
560.52	1275.99
560.87	1281.52
561.23	1286.62
561.58	1291.88
561.94	1296.74
562.29	1301.44
562.64	1306.26
563.00	1310.78
563.35	1316.69
563.71	1321.98
564.06	1326.95
564.42	1332.08
564.77	1336.54
565.12	1341.54
565.48	1345.76
565.83	1349.89
566.19	1353.77
566.54	1357.69
566.89	1361.41
567.25	1364.87
567.60	1369.05
567.96	1372.84
568.31	1376.09
568.66	1379.51
569.02	1382.78
569.37	1385.50
569.72	1389.10
570.08	1392.04
570.43	1395.35
570.78	1397.40
571.14	1399.49
571.49	1401.90
571.84	1404.82
572.20	1407.09
572.55	1408.87
572.90	1410.54
573.26	1412.53
573.61	1414.15
573.96	1415.88
574.31	1416.75
574.67	1417.83
575.02	1418.42
575.37	1419.19
575.72	1419.49
576.08	1420.09
576.43	1420.27
576.78	1421.24
577.13	1421.67
577.49	1422.24
577.84	1422.31
578.19	1422.62
578.54	1422.36
578.90	1421.95
579.25	1420.95
579.60	1420.51
579.95	1419.97
580.30	1419.01
580.66	1418.21
581.01	1417.50
581.36	1416.67
581.71	1416.62
582.06	1415.78
582.42	1414.84
582.77	1413.71
583.12	1412.93
583.47	1412.03
583.82	1411.07
584.17	1409.29
584.53	1407.96
584.88	1406.51
585.23	1404.88
585.58	1403.68
585.93	1402.68
586.28	1401.70
586.63	1400.37
586.98	1399.25
587.34	1397.96
587.69	1396.62
588.04	1395.08
588.39	1393.68
588.74	1390.98
589.09	1388.76
589.44	1386.68
589.79	1384.73
590.14	1383.00
590.49	1380.79
590.84	1378.21
591.19	1376.16
591.54	1373.53
591.89	1370.60
592.25	1368.00
592.60	1364.95
592.95	1361.60
593.30	1358.29
593.65	1354.88
594.00	1351.63
594.35	1349.15
594.70	1345.37
595.05	1342.73
595.40	1339.51
595.75	1335.71
596.10	1333.57
596.45	1331.01
596.80	1327.99
597.15	1325.09
597.50	1321.87
597.85	1318.94
598.19	1316.16
598.54	1312.84
598.89	1310.04
599.24	1307.42
599.59	1304.60
599.94	1301.92
600.29	1298.75
600.64	1295.66
600.99	1292.16
601.34	1289.18
601.69	1284.97
602.04	1281.86
602.39	1278.27
602.74	1275.33
603.08	1272.71
603.43	1269.41
603.78	1265.71
604.13	1262.07
604.48	1258.53
604.83	1254.96
605.18	1251.49
605.53	1247.50
605.87	1243.19
606.22	1239.48
606.57	1235.50
606.92	1231.24
607.27	1227.56
607.62	1224.40
607.96	1221.01
608.31	1217.71
608.66	1213.58
609.01	1209.30
609.36	1204.88
609.70	1200.18
610.05	1195.17
610.40	1190.35
610.75	1185.27
611.10	1180.60
611.44	1175.88
611.79	1171.18
612.14	1166.70
612.49	1161.49
612.83	1156.69
613.18	1152.20
613.53	1147.70
613.88	1142.53
614.22	1137.79
614.57	1132.60
614.92	1127.33
615.27	1122.70
615.61	1117.76
615.96	1112.76
616.31	1108.61
616.65	1104.86
617.00	1100.61
617.35	1096.09
617.70	1091.15
618.04	1086.63
618.39	1082.05
618.74	1077.82
619.08	1072.99
619.43	1068.12
619.78	1063.98
620.12	1059.45
620.47	1054.96
620.82	1050.07
621.16	1045.97
621.51	1041.88
621.85	1037.45
622.20	1032.76
622.55	1028.00
622.89	1023.51
623.24	1019.37
623.59	1014.95
623.93	1010.14
624.28	1005.64
624.62	1001.39
624.97	997.30
625.32	993.18
625.66	989.09
626.01	984.41
626.35	980.13
626.70	975.70
627.04	971.24
627.39	966.87
627.73	962.14
628.08	957.78
628.43	952.92
628.77	947.88
629.12	943.27
629.46	938.93
629.81	934.20
630.15	929.23
630.50	924.50
630.84	919.37
631.19	914.13
631.53	909.11
631.88	904.16
632.22	898.91
632.57	893.98
632.91	889.00
633.26	883.95
633.60	879.04
633.95	874.33
634.29	869.60
634.64	865.13
634.98	860.84
635.32	856.72
635.67	852.61
636.01	848.18
636.36	843.63
636.70	839.33
637.05	834.89
637.39	831.00
637.73	826.73
638.08	822.83
638.42	819.19
638.77	815.56
639.11	811.05
639.45	807.39
639.80	803.20
640.14	798.95
640.49	795.36
640.83	791.51
641.17	787.60
641.52	783.50
641.86	779.29
642.20	775.45
642.55	770.72
642.89	766.52
643.23	762.36
643.58	758.70
643.92	754.27
644.26	750.16
644.61	746.14
644.95	742.14
645.29	737.49
645.64	733.09
645.98	728.73
646.32	725.19
646.66	720.90
647.01	716.83
647.35	712.79
647.69	708.53
648.04	704.50
648.38	700.33
648.72	696.11
649.06	691.76
649.41	687.34
649.75	683.36
650.09	679.39
650.43	675.34
650.78	670.83
651.12	666.85
651.46	662.87
651.80	658.92
652.14	655.13
652.49	651.56
652.83	647.95
653.17	643.97
653.51	639.96
653.85	636.21
654.20	632.55
654.54	628.72
654.88	624.90
655.22	620.93
655.56	617.16
655.90	613.63
656.25	610.53
656.59	606.95
656.93	603.55
657.27	599.85
657.61	596.47
657.95	593.19
658.29	589.89
658.64	586.41
658.98	582.59
659.32	578.79
659.66	575.33
660.00	571.61
660.34	568.20
660.68	564.90
661.02	561.36
661.36	558.04
661.70	554.96
662.05	552.02
662.39	549.08
662.73	546.03
663.07	543.14
663.41	539.85
663.75	536.90
664.09	533.89
664.43	531.08
664.77	528.30
665.11	525.50
665.45	522.67
665.79	519.98
666.13	517.24
666.47	514.29
666.81	511.64
667.15	508.78
667.49	506.10
667.83	503.47
668.17	500.83
668.51	498.05
668.85	495.28
669.19	492.40
669.53	489.83
669.87	487.07
670.21	484.50
670.55	481.97
670.89	479.59
671.23	477.16
671.57	474.65
671.91	472.15
672.25	469.68
672.58	467.13
672.92	464.68
673.26	462.48
673.60	460.44
673.94	458.22
674.28	456.25
674.62	454.21
674.96	451.99
675.30	450.02
675.64	447.99
675.97	445.79
676.31	443.75
676.65	441.53
676.99	439.53
677.33	437.27
677.67	435.14
678.01	432.90
678.34	430.62
678.68	428.53
679.02	426.34
679.36	424.28
679.70	422.27
680.04	420.31
680.37	418.25
680.71	416.16
681.05	414.22
681.39	412.17
681.73	410.31
682.06	408.51
682.40	406.65
682.74	404.83
683.08	403.11
683.42	401.25
683.75	399.61
684.09	397.86
684.43	396.10
684.77	394.26
685.10	392.55
685.44	390.97
685.78	389.39
686.12	387.78
686.45	386.02
686.79	384.35
687.13	382.84
687.46	381.03
687.80	379.54
688.14	377.77
688.48	376.29
688.81	374.48
689.15	372.85
689.49	371.32
689.82	369.77
690.16	368.23
690.50	366.81
690.83	365.19
691.17	363.67
691.51	362.27
691.84	360.87
692.18	359.34
692.52	357.90
692.85	356.33
693.19	354.88
693.52	353.48
693.86	352.07
694.20	350.46
694.53	349.17
694.87	347.82
695.21	346.28
695.54	344.86
695.88	343.58
696.21	342.08
696.55	340.81
696.88	339.46
697.22	338.05
697.56	336.80
697.89	335.43
698.23	334.25
698.56	333.01
698.90	331.83
699.23	330.58
699.57	329.24
699.90	328.10
700.24	326.80
700.58	325.63
700.91	324.46
701.25	323.33
701.58	322.29
701.92	321.18
702.25	320.19
702.59	319.15
702.92	318.13
703.26	317.24
703.59	316.14
703.93	315.16
704.26	314.25
704.60	313.12
704.93	312.21
705.26	311.20
705.60	310.18
705.93	309.36
706.27	308.77
706.60	308.10
706.94	307.23
707.27	306.38
707.61	305.60
707.94	304.90
708.27	304.01
708.61	303.08
708.94	302.28
709.28	301.41
709.61	300.58
709.94	299.83
710.28	299.03
710.61	298.30
710.95	297.55
711.28	296.84
711.61	296.16
711.95	295.48
712.28	294.67
712.61	294.02
712.95	293.21
713.28	292.44
713.61	291.67
713.95	290.93
714.28	290.24
714.61	289.50
714.95	288.80
715.28	288.22
715.61	287.42
715.95	286.69
716.28	286.10
716.61	285.49
716.95	284.81
717.28	284.17
717.61	283.52
717.94	282.91
718.28	282.13
718.61	281.40
718.94	280.76
719.27	280.16
719.61	279.58
719.94	279.15
720.27	278.42
720.60	277.82
720.94	277.26
721.27	276.81
721.60	276.27
721.93	275.76
722.27	275.23
722.60	274.93
722.93	274.46
723.26	274.02
723.59	273.47
723.93	272.96
724.26	272.55
724.59	272.01
724.92	271.46
725.25	271.16
725.59	270.89
725.92	270.43
726.25	270.05
726.58	269.64
726.91	269.13
727.24	268.83
727.57	268.54
727.91	268.04
728.24	267.60
728.57	267.30
728.90	266.82
729.23	266.37
729.56	266.06
729.89	265.53
730.22	265.14
730.55	264.94
730.89	264.56
731.22	264.09
731.55	263.66
731.88	263.28
732.21	262.81
732.54	262.35
732.87	261.95
733.20	261.55
733.53	261.10
733.86	260.63
734.19	260.17
734.52	259.71
734.85	259.47
735.18	259.07
735.51	258.74
735.84	258.44
736.17	258.31
736.50	257.80
736.83	257.76
737.16	257.46
737.49	256.95
737.82	256.62
738.15	256.31
738.48	256.06
738.81	255.71
739.14	255.31
739.47	254.96
739.80	254.66
740.13	254.30
740.46	254.02
740.79	253.83
741.12	253.51
741.45	253.27
741.78	252.94
742.11	252.78
742.44	252.38
742.77	252.15
743.10	251.69
743.43	251.40
743.75	251.02
744.08	250.98
744.41	250.80
744.74	250.51
745.07	250.30
745.40	250.01
745.73	249.89
746.06	249.74
746.39	249.56
746.71	249.24
747.04	248.95
747.37	248.59
747.70	248.36
748.03	248.25
748.36	248.00
748.68	247.74
749.01	247.52
749.34	247.34
749.67	247.01
750.00	246.90
750.33	246.91
750.65	246.58
750.98	246.05
751.31	245.77
751.64	245.67
751.97	245.51
752.29	245.30
752.62	245.01
752.95	244.84
753.28	244.60
753.60	244.45
753.93	244.49
754.26	244.32
754.59	243.93
754.91	243.69
755.24	243.37
755.57	243.26
755.90	243.04
756.22	242.87
756.55	242.85
756.88	242.74
757.20	242.43
757.53	242.26
757.86	242.12
758.19	242.03
758.51	241.89
758.84	241.64
759.17	241.49
759.49	241.39
759.82	241.31
760.15	241.22
760.47	241.22
760.80	240.98
761.13	241.01
761.45	241.04
761.78	240.91
762.11	240.92
762.43	240.75
762.76	240.58
763.08	240.46
763.41	240.26
763.74	239.98
764.06	239.79
764.39	239.70
764.71	239.64
765.04	239.48
765.37	239.27
765.69	239.12
766.02	239.00
766.34	238.83
766.67	238.68
767.00	238.60
767.32	238.49
767.65	238.53
767.97	238.42
768.30	238.27
768.62	238.07
768.95	237.90
769.27	237.76
769.60	237.77
769.92	237.65
770.25	237.46
770.57	237.43
770.90	237.37
771.22	237.28
771.55	237.15
771.87	237.09
772.20	237.02
772.52	237.09
772.85	237.35
773.17	237.20
773.50	237.12
773.82	237.03
774.15	236.89
774.47	236.62
774.80	236.52
775.12	236.41
775.45	236.44
775.77	236.47
776.09	236.43
776.42	236.26
776.74	236.24
777.07	236.23
777.39	236.04
777.72	236.05
778.04	235.99
778.36	235.84
778.69	235.74
779.01	235.65
779.33	235.41
779.66	235.07
779.98	235.03
780.31	234.98
780.63	234.91
780.95	234.84
781.28	234.78
781.60	234.63
781.92	234.50
782.25	234.35
782.57	234.21
782.89	234.11
783.22	234.13
783.54	233.96
783.86	233.83
784.19	233.76
784.51	233.75
784.83	233.64
785.16	233.61
785.48	233.51
785.80	233.52
786.12	233.50
786.45	233.33
786.77	233.19
787.09	233.02
787.42	232.89
787.74	232.76
788.06	232.79
788.38	232.69
788.71	232.72
789.03	232.68
789.35	232.63
789.67	232.68
789.99	232.54
790.32	232.46
790.64	232.51
790.96	232.69
791.28	232.55
791.61	232.47
791.93	232.45
792.25	232.39
792.57	232.32
792.89	232.22
793.21	232.33
793.54	232.49
793.86	232.54
794.18	232.60
794.50	232.59
794.82	232.48
795.14	232.52
795.47	232.55
795.79	232.50
796.11	232.51
796.43	232.53
796.75	232.57
797.07	232.67
797.39	232.55
797.71	232.30
798.04	232.24
798.36	232.34
798.68	232.29
799.00	232.36
799.32	232.42
799.64	232.51
799.96	232.42
800.28	232.34
800.60	232.25
800.92	232.21
801.24	232.29
801.56	232.35
801.89	232.28
802.21	232.24
802.53	232.20
802.85	232.21
803.17	232.19
803.49	232.06
803.81	231.96
804.13	232.03
804.45	232.10
804.77	232.16
805.09	232.19
805.41	232.18
805.73	232.10
806.05	232.03
806.37	231.93
806.69	231.89
807.01	231.82
807.33	231.72
807.65	231.63
807.97	231.61
808.28	231.53
808.60	231.56
808.92	231.45
809.24	231.53
809.56	231.52
809.88	231.42
810.20	231.46
810.52	231.52
810.84	231.38
811.16	231.32
811.48	231.24
811.80	231.20
812.12	231.19
812.43	231.13
812.75	231.04
813.07	231.04
813.39	230.90
813.71	230.98
814.03	231.06
814.35	231.07
814.67	231.03
814.98	230.95
815.30	230.87
815.62	230.83
815.94	230.69
816.26	230.63
816.58	230.52
816.89	230.52
817.21	230.43
817.53	230.39
817.85	230.23
818.17	230.20
818.48	230.11
818.80	230.07
819.12	230.15
819.44	230.09
819.76	230.04
820.07	230.15
820.39	229.93
820.71	229.85
821.03	229.87
821.34	229.69
821.66	229.84
821.98	229.85
822.30	229.88
822.61	230.05
822.93	229.91
823.25	229.88
823.57	229.79
823.88	229.75
824.20	229.74
824.52	229.78
824.83	229.70
825.15	229.66
825.47	229.60
825.79	229.46
826.10	229.42
826.42	229.36
826.74	229.37
827.05	229.43
827.37	229.46
827.69	229.46
828.00	229.52
828.32	229.48
828.64	229.43
828.95	229.48
829.27	229.36
829.58	229.46
829.90	229.47
830.22	229.49
830.53	229.50
830.85	229.46
831.17	229.61
831.48	229.62
831.80	229.56
832.11	229.59
832.43	229.63
832.75	229.63
833.06	229.85
833.38	229.72
833.69	229.77
834.01	229.79
834.32	229.77
834.64	229.75
834.96	229.64
835.27	229.65
835.59	229.62
835.90	229.57
836.22	229.57
836.53	229.60
836.85	229.63
837.16	229.86
837.48	229.92
837.79	229.90
838.11	229.95
838.42	229.95
838.74	230.07
839.05	230.09
839.37	230.16
839.68	229.95
840.00	230.00
840.31	230.01
840.63	229.95
840.94	229.87
841.26	229.82
841.57	229.82
841.88	229.90
842.20	229.91
842.51	229.97
842.83	229.87
843.14	230.06
843.46	230.00
843.77	229.84
844.08	229.89
844.40	229.73
844.71	229.71
845.03	229.75
845.34	229.68
845.65	229.60
845.97	229.61
846.28	229.75
846.60	229.73
846.91	229.60
847.22	229.65
847.54	229.63
847.85	229.64
848.16	229.58
848.48	229.44
848.79	229.52
849.10	229.52
849.42	229.47
849.73	229.17
850.04	229.15
850.36	228.99
850.67	228.97
850.98	229.04
851.30	228.97
851.61	228.85
851.92	228.88
852.23	228.97
852.55	228.95
852.86	228.79
853.17	228.80
853.49	228.86
853.80	228.77
854.11	228.75
854.42	228.73
854.74	228.69
855.05	228.72
855.36	228.48
855.67	228.39
855.99	228.40
856.30	228.59
856.61	228.63
856.92	228.56
857.23	228.51
857.55	228.41
857.86	228.47
858.17	228.53
858.48	228.41
858.79	228.26
859.11	228.18
859.42	228.16
859.73	228.14
860.04	228.09
860.35	228.03
860.66	227.95
860.98	227.85
861.29	227.94
861.60	227.97
861.91	228.03
862.22	228.03
862.53	228.04
862.84	227.86
863.16	227.76
863.47	227.82
863.78	227.74
864.09	227.81
864.40	227.71
864.71	227.70
865.02	227.80
865.33	227.90
865.64	227.90
865.95	227.94
866.27	228.08
866.58	228.13
866.89	228.27
867.20	228.42
867.51	228.44
867.82	228.42
868.13	228.43
868.44	228.41
868.75	228.41
869.06	228.40
869.37	228.45
869.68	228.50
869.99	228.45
870.30	228.54
870.61	228.55
870.92	228.54
871.23	228.53
871.54	228.50
871.85	228.42
872.16	228.45
872.47	228.43
872.78	228.30
873.09	228.30
873.40	228.23
873.71	228.20
874.02	228.38
874.33	228.32
874.64	228.21
874.95	228.24
875.26	228.28
875.56	228.35
875.87	228.41
876.18	228.37
876.49	228.72
876.80	228.78
877.11	228.74
877.42	228.76
877.73	228.76
878.04	228.80
878.35	229.00
878.66	229.03
878.96	229.10
879.27	229.20
879.58	229.18
879.89	229.21
880.20	229.32
880.51	229.30
880.82	229.43
881.12	229.55
881.43	229.59
881.74	229.51
882.05	229.52
882.36	229.51
882.67	229.57
882.97	229.39
883.28	229.28
883.59	229.29
883.90	229.47
884.21	229.54
884.51	229.41
884.82	229.22
885.13	229.17
885.44	229.09
885.74	228.97
886.05	228.88
886.36	228.83
886.67	228.72
886.98	228.70
887.28	228.68
887.59	228.61
887.90	228.60
888.20	228.59
888.51	228.52
888.82	228.41
889.13	228.41
889.43	228.43
889.74	228.38
890.05	228.32
890.35	228.16
890.66	228.17
890.97	228.22
891.28	228.18
891.58	228.13
891.89	228.16
892.20	228.20
892.50	228.24
892.81	228.19
893.12	228.14
893.42	228.05
893.73	227.98
894.04	227.86
894.34	227.80
894.65	227.77
894.95	227.73
895.26	227.78
895.57	227.85
895.87	227.66
896.18	227.70
896.48	227.69
896.79	227.70
897.10	227.67
897.40	227.64
897.71	227.72
898.01	227.76
898.32	227.68
898.63	227.71
898.93	227.76
899.24	227.80
899.54	227.73
899.85	227.66
900.15	227.64
900.46	227.76
900.76	227.78
901.07	227.81
901.38	227.82
901.68	227.80
901.99	227.65
902.29	227.74
902.60	227.74
902.90	227.76
903.21	227.71
903.51	227.75
903.82	227.83
904.12	227.80
904.43	227.79
904.73	227.82
905.03	227.81
905.34	228.00
905.64	227.94
905.95	227.90
906.25	228.01
906.56	228.18
906.86	228.13
907.17	228.12
907.47	228.15
907.77	228.21
908.08	228.30
908.38	228.40
908.69	228.38
908.99	228.50
909.30	228.58
909.60	228.60
909.90	228.56
910.21	228.57
910.51	228.60
910.81	228.63
911.12	228.74
911.42	228.74
911.73	228.52
912.03	228.66
912.33	228.85
912.64	228.80
912.94	228.77
913.24	228.85
913.55	228.89
913.85	228.88
914.15	228.91
914.46	228.83
914.76	228.78
915.06	228.79
915.37	228.69
915.67	228.61
915.97	228.68
916.27	228.64
916.58	228.64
916.88	228.61
917.18	228.60
917.49	228.71
917.79	228.72
918.09	228.80
918.39	228.78
918.70	228.74
919.00	228.84
919.30	228.90
919.60	228.82
919.91	228.75
920.21	228.74
920.51	228.63
920.81	228.62
921.12	228.63
921.42	228.61
921.72	228.62
922.02	228.70
922.32	228.66
922.63	228.66
922.93	228.79
923.23	228.78
923.53	228.83
923.83	228.69
924.13	228.70
924.44	228.71
924.74	228.77
925.04	228.81
925.34	228.73
925.64	228.62
925.94	228.68
926.24	228.84
926.55	228.86
926.85	228.94
927.15	228.94
927.45	228.92
927.75	228.98
928.05	229.02
928.35	229.07
928.65	229.11
928.95	229.18
929.26	228.99
929.56	228.99
929.86	228.93
930.16	228.86
930.46	228.70
930.76	228.63
931.06	228.49
931.36	228.34
931.66	228.38
931.96	228.40
932.26	228.37
932.56	228.21
932.86	228.10
933.16	228.05
933.46	228.11
933.76	227.98
934.06	227.98
934.36	227.96
934.66	227.85
934.96	227.75
935.26	227.68
935.56	227.74
935.86	227.75
936.16	227.73
936.46	227.80
936.76	227.88
937.06	227.84
937.36	227.98
937.66	228.05
937.96	228.03
938.26	227.96
938.56	227.93
938.86	227.99
939.16	228.11
939.46	228.14
939.76	228.10
940.06	228.22
940.35	228.17
940.65	228.15
940.95	228.16
941.25	228.23
941.55	228.29
941.85	228.25
942.15	228.32
942.45	228.32
942.75	228.26
943.04	228.27
943.34	228.30
943.64	228.21
943.94	228.24
944.24	228.22
944.54	228.29
944.84	228.27
945.13	228.20
945.43	228.16
945.73	228.10
946.03	228.16
946.33	228.07
946.62	228.01
946.92	227.94
947.22	227.99
947.52	228.00
947.82	227.94
948.11	227.95
948.41	227.96
948.71	227.98
949.01	227.99
949.31	228.00
949.60	227.99
949.90	228.02
950.20	228.02
950.50	228.15
950.79	228.13
951.09	228.23
951.39	228.24
951.69	228.20
951.98	228.35
952.28	228.22
952.58	228.34
952.87	228.45
953.17	228.57
953.47	228.53
953.76	228.52
954.06	228.53
954.36	228.48
954.66	228.37
954.95	228.49
955.25	228.51
955.55	228.52
955.84	228.57
956.14	228.61
956.44	228.63
956.73	228.55
957.03	228.54
957.32	228.53
957.62	228.52
957.92	228.65
958.21	228.57
958.51	228.89
958.81	228.83
959.10	228.84
959.40	228.76
959.69	228.72
959.99	228.77
960.29	228.69
960.58	228.73
960.88	228.78
961.17	228.70
961.47	228.68
961.76	228.72
962.06	228.78
962.36	228.72
962.65	228.73
962.95	228.68
963.24	228.69
963.54	228.62
963.83	228.70
964.13	228.72
964.42	228.68
964.72	228.47
965.01	228.49
965.31	228.47
965.60	228.55
965.90	228.68
966.19	228.68
966.49	228.76
966.78	228.74
967.08	228.75
967.37	228.67
967.67	228.62
967.96	228.54
968.26	228.42
968.55	228.30
968.85	228.26
969.14	228.25
969.43	228.13
969.73	228.23
970.02	228.15
970.32	228.16
970.61	228.20
970.91	228.21
971.20	228.14
971.49	228.05
971.79	227.99
972.08	227.80
972.38	227.74
972.67	227.70
972.96	227.70
973.26	227.60
973.55	227.70
973.85	227.76
974.14	227.74
974.43	227.73
974.73	227.84
975.02	227.75
975.31	227.78
975.61	227.83
975.90	227.71
976.19	227.71
976.49	227.57
976.78	227.50
977.07	227.44
977.37	227.49
977.66	227.49
977.95	227.49
978.24	227.59
978.54	227.56
978.83	227.57
979.12	227.58
979.42	227.59
979.71	227.55
980.00	227.49
980.29	227.56
980.59	227.55
980.88	227.58
981.17	227.59
981.46	227.59
981.76	227.59
982.05	227.59
982.34	227.62
982.63	227.74
982.93	227.84
983.22	227.93
983.51	227.90
983.80	228.02
984.09	228.09
984.39	228.06
984.68	228.19
984.97	228.20
985.26	228.16
985.55	228.27
985.85	228.22
986.14	228.31
986.43	228.36
986.72	228.36
987.01	228.23
987.30	228.28
987.59	228.29
987.89	228.32
988.18	228.39
988.47	228.33
988.76	228.25
989.05	228.18
989.34	228.06
989.63	228.11
989.92	228.04
990.22	228.02
990.51	228.09
990.80	228.00
991.09	228.04
991.38	228.03
991.67	228.04
991.96	228.15
992.25	228.19
992.54	228.12
992.83	228.20
993.12	228.22
993.41	228.30
993.70	228.39
993.99	228.43
994.28	228.50
994.58	228.51
994.87	228.60
995.16	228.65
995.45	228.67
995.74	228.60
996.03	228.66
996.32	228.62
996.61	228.54
996.90	228.57
997.19	228.51
997.48	228.60
997.77	228.51
998.06	228.43
998.34	228.33
998.63	228.39
998.92	228.38
999.21	228.47
999.50	228.41
999.79	228.33
1000.08	228.33
1000.37	228.22
1000.66	228.23
1000.95	228.22
1001.24	228.21
1001.53	228.35
1001.82	228.35
1002.11	228.24
1002.40	228.29
1002.68	228.40
1002.97	228.40
1003.26	228.41
1003.55	228.34
1003.84	228.40
1004.13	228.47
1004.42	228.50
1004.71	228.38
1004.99	228.35
1005.28	228.42
1005.57	228.39
1005.86	228.44
1006.15	228.37
1006.44	228.35
1006.72	228.40
1007.01	228.39
1007.30	228.51
1007.59	228.35
1007.88	228.40
1008.17	228.40
1008.45	228.29
1008.74	228.12
1009.03	228.08
1009.32	228.09
1009.60	228.04
1009.89	227.93
1010.18	227.85
1010.47	227.86
1010.76	227.88
1011.04	227.91
1011.33	227.86
1011.62	228.02
1011.91	227.91
1012.19	227.98
1012.48	227.95
1012.77	227.92
1013.05	228.04
1013.34	227.80
1013.63	227.84
1013.92	227.87
1014.20	227.91
1014.49	227.98
1014.78	228.07
1015.06	228.00
1015.35	227.91
1015.64	227.98
1015.92	228.05
1016.21	228.07
1016.50	227.93
1016.78	228.00
1017.07	227.95
1017.36	227.90
1017.64	227.76
1017.93	227.76
1018.22	227.71
1018.50	227.76
1018.79	227.80
1019.08	227.63
1019.36	227.64
1019.65	227.59
1019.93	227.64
1020.22	227.66
1020.51	227.72
1020.79	227.57
1021.08	227.50
1021.36	227.50
1021.65	229.10
1021.94	227.40
1022.22	226.50
1022.51	226.90
1022.79	229.00
1023.08	228.50
1023.36	229.10
1023.65	225.00
>>>>>End Processed Spectral Data<<<<<
