SpectraSuite Data File
++++++++++++++++++++++++++++++++++++
Date: Fri Feb 01 14:37:19 EST 2013
User: group
Dark Spectrum Present: No
Reference Spectrum Present: No
Number of Sampled Component Spectra: 1
Spectrometers: USB2E7196
Integration Time (usec): 70000 (USB2E7196)
Spectra Averaged: 10 (USB2E7196)
Boxcar Smoothing: 10 (USB2E7196)
Correct for Electrical Dark: No (USB2E7196)
Strobe/Lamp Enabled: No (USB2E7196)
Correct for Detector Non-linearity: No (USB2E7196)
Correct for Stray Light: No (USB2E7196)
Number of Pixels in Processed Spectrum: 2048
>>>>>Begin Processed Spectral Data<<<<<
339.09	0.00
339.48	215.70
339.86	217.60
340.24	220.80
340.63	220.80
341.01	225.00
341.39	224.60
341.78	224.90
342.16	225.60
342.54	226.10
342.93	214.91
343.31	225.80
343.69	226.42
344.07	226.90
344.46	227.33
344.84	227.56
345.22	227.69
345.60	227.79
345.99	227.90
346.37	228.00
346.75	228.13
347.13	228.26
347.52	228.29
347.90	228.41
348.28	228.43
348.66	228.48
349.05	228.37
349.43	228.40
349.81	228.33
350.19	228.38
350.57	228.46
350.96	228.56
351.34	228.57
351.72	228.64
352.10	228.76
352.48	228.76
352.87	228.90
353.25	228.90
353.63	229.02
354.01	229.19
354.39	229.26
354.77	229.31
355.15	229.43
355.54	229.41
355.92	229.40
356.30	229.35
356.68	229.55
357.06	229.65
357.44	229.66
357.82	229.73
358.20	229.92
358.58	229.96
358.97	230.00
359.35	230.04
359.73	230.10
360.11	230.10
360.49	230.14
360.87	230.18
361.25	230.32
361.63	230.49
362.01	230.51
362.39	230.59
362.77	230.61
363.15	230.60
363.53	230.68
363.91	230.67
364.29	230.78
364.67	230.54
365.05	230.52
365.43	230.58
365.81	230.56
366.19	230.59
366.57	230.56
366.95	230.52
367.33	230.54
367.71	230.53
368.09	230.57
368.47	230.52
368.85	230.60
369.23	230.56
369.61	230.49
369.99	230.42
370.37	230.44
370.75	230.48
371.13	230.47
371.51	230.44
371.89	230.43
372.27	230.33
372.65	230.21
373.03	230.25
373.41	230.06
373.78	230.06
374.16	229.88
374.54	229.87
374.92	229.66
375.30	229.55
375.68	229.36
376.06	229.19
376.44	229.13
376.82	228.98
377.19	228.89
377.57	228.76
377.95	228.65
378.33	228.46
378.71	228.33
379.09	228.17
379.47	228.06
379.84	227.88
380.22	227.76
380.60	227.71
380.98	227.60
381.36	227.56
381.73	227.49
382.11	227.43
382.49	227.31
382.87	227.33
383.25	227.31
383.62	227.59
384.00	227.57
384.38	227.39
384.76	227.36
385.13	227.40
385.51	227.30
385.89	227.22
386.27	227.18
386.64	227.16
387.02	227.05
387.40	226.93
387.78	226.98
388.15	226.95
388.53	226.89
388.91	226.74
389.29	226.76
389.66	226.71
390.04	226.70
390.42	226.66
390.79	226.68
391.17	226.63
391.55	226.29
391.92	226.29
392.30	226.42
392.68	226.46
393.05	226.41
393.43	226.48
393.81	226.51
394.18	226.49
394.56	226.43
394.94	226.58
395.31	226.70
395.69	226.79
396.06	226.90
396.44	227.03
396.82	227.11
397.19	227.20
397.57	227.34
397.95	227.42
398.32	227.47
398.70	227.57
399.07	227.62
399.45	227.74
399.82	227.76
400.20	227.85
400.58	227.89
400.95	228.00
401.33	228.14
401.70	228.40
402.08	228.57
402.45	228.71
402.83	228.83
403.20	228.92
403.58	229.01
403.95	229.12
404.33	229.26
404.71	229.54
405.08	229.95
405.46	230.06
405.83	230.23
406.21	230.53
406.58	230.85
406.96	231.18
407.33	231.52
407.70	231.98
408.08	232.41
408.45	232.79
408.83	233.18
409.20	233.47
409.58	233.80
409.95	234.16
410.33	234.60
410.70	234.92
411.08	235.54
411.45	235.91
411.82	236.42
412.20	237.04
412.57	237.80
412.95	238.11
413.32	238.77
413.69	239.53
414.07	240.23
414.44	240.87
414.82	241.62
415.19	242.43
415.56	243.24
415.94	244.02
416.31	244.96
416.68	245.93
417.06	247.06
417.43	248.20
417.81	249.47
418.18	250.70
418.55	252.19
418.93	253.59
419.30	255.27
419.67	256.91
420.04	258.52
420.42	260.12
420.79	262.20
421.16	264.22
421.54	266.12
421.91	268.18
422.28	270.32
422.66	272.75
423.03	275.09
423.40	277.46
423.77	279.91
424.15	282.42
424.52	285.00
424.89	287.81
425.26	290.51
425.64	293.23
426.01	296.28
426.38	299.33
426.75	302.50
427.13	305.63
427.50	308.89
427.87	312.47
428.24	315.90
428.61	319.12
428.99	322.78
429.36	326.84
429.73	330.80
430.10	334.77
430.47	338.67
430.85	342.70
431.22	346.97
431.59	351.60
431.96	356.05
432.33	361.04
432.70	365.76
433.08	371.23
433.45	376.40
433.82	381.40
434.19	387.16
434.56	392.68
434.93	398.08
435.30	403.45
435.68	409.32
436.05	415.18
436.42	420.92
436.79	425.92
437.16	431.50
437.53	437.38
437.90	443.21
438.27	448.93
438.64	454.91
439.01	460.40
439.38	465.29
439.75	470.09
440.13	475.40
440.50	480.61
440.87	484.97
441.24	489.49
441.61	494.30
441.98	497.71
442.35	501.96
442.72	506.25
443.09	510.60
443.46	513.17
443.83	515.03
444.20	516.78
444.57	519.40
444.94	520.75
445.31	521.98
445.68	523.44
446.05	524.48
446.42	524.33
446.79	524.26
447.16	524.29
447.53	524.47
447.90	523.04
448.27	521.46
448.64	518.80
449.01	517.04
449.37	513.86
449.74	510.77
450.11	506.91
450.48	502.50
450.85	497.97
451.22	494.31
451.59	490.72
451.96	487.35
452.33	482.62
452.70	478.32
453.07	473.27
453.43	467.84
453.80	462.60
454.17	457.71
454.54	453.10
454.91	447.87
455.28	442.62
455.65	437.80
456.02	433.17
456.38	429.24
456.75	424.19
457.12	419.76
457.49	415.53
457.86	411.27
458.23	407.82
458.59	403.87
458.96	399.62
459.33	396.00
459.70	392.40
460.07	389.47
460.43	386.14
460.80	382.81
461.17	379.89
461.54	376.90
461.91	374.07
462.27	371.13
462.64	368.50
463.01	365.86
463.38	363.25
463.74	360.49
464.11	358.10
464.48	356.02
464.85	353.89
465.21	352.05
465.58	350.09
465.95	347.75
466.32	345.75
466.68	344.01
467.05	342.20
467.42	340.20
467.78	338.20
468.15	336.30
468.52	334.88
468.88	333.15
469.25	331.45
469.62	330.13
469.98	328.72
470.35	327.44
470.72	326.16
471.08	324.75
471.45	323.54
471.82	322.18
472.18	320.77
472.55	319.69
472.92	318.55
473.28	317.42
473.65	316.36
474.02	315.22
474.38	314.20
474.75	313.26
475.11	312.30
475.48	311.52
475.85	310.86
476.21	310.24
476.58	309.58
476.94	309.00
477.31	308.31
477.67	307.68
478.04	307.10
478.41	306.52
478.77	306.14
479.14	305.53
479.50	305.32
479.87	305.14
480.23	304.98
480.60	304.67
480.96	304.41
481.33	304.26
481.69	304.22
482.06	304.10
482.42	303.91
482.79	303.91
483.15	303.89
483.52	303.93
483.88	303.80
484.25	303.86
484.61	303.93
484.98	303.96
485.34	304.15
485.71	304.43
486.07	304.76
486.44	304.91
486.80	305.30
487.17	305.57
487.53	305.82
487.90	306.19
488.26	306.71
488.62	307.24
488.99	307.70
489.35	308.08
489.72	308.50
490.08	309.11
490.44	309.73
490.81	310.39
491.17	310.99
491.54	311.76
491.90	312.38
492.26	313.11
492.63	313.87
492.99	314.60
493.36	315.19
493.72	315.89
494.08	316.62
494.45	317.50
494.81	318.33
495.17	319.13
495.54	320.00
495.90	320.96
496.26	321.84
496.63	322.81
496.99	323.82
497.35	324.80
497.72	325.77
498.08	326.65
498.44	327.42
498.80	328.39
499.17	329.09
499.53	329.97
499.89	330.81
500.26	331.52
500.62	332.33
500.98	333.22
501.34	334.01
501.71	334.89
502.07	335.35
502.43	336.12
502.79	336.91
503.16	337.55
503.52	338.06
503.88	338.69
504.24	339.16
504.60	339.76
504.97	340.38
505.33	340.82
505.69	341.35
506.05	341.98
506.41	342.36
506.78	342.91
507.14	343.33
507.50	343.52
507.86	343.91
508.22	344.14
508.59	344.40
508.95	344.57
509.31	344.75
509.67	345.31
510.03	345.47
510.39	345.55
510.75	345.63
511.12	345.68
511.48	345.70
511.84	345.81
512.20	345.68
512.56	345.67
512.92	345.76
513.28	345.82
513.64	345.67
514.00	345.61
514.37	345.52
514.73	345.53
515.09	345.71
515.45	345.82
515.81	345.83
516.17	345.94
516.53	346.08
516.89	346.09
517.25	346.02
517.61	346.11
517.97	346.30
518.33	346.49
518.69	346.69
519.05	346.89
519.41	347.10
519.77	347.57
520.13	347.90
520.49	348.20
520.85	348.40
521.21	348.95
521.57	349.50
521.93	350.08
522.29	350.68
522.65	351.31
523.01	351.87
523.37	352.63
523.73	353.38
524.09	354.22
524.45	355.10
524.81	355.91
525.17	356.89
525.53	358.13
525.89	359.10
526.25	360.27
526.61	361.48
526.97	362.86
527.33	364.14
527.68	365.60
528.04	367.09
528.40	368.67
528.76	370.31
529.12	371.99
529.48	373.84
529.84	375.73
530.20	377.60
530.56	379.72
530.91	381.91
531.27	384.11
531.63	386.33
531.99	388.75
532.35	391.29
532.71	393.79
533.07	396.36
533.42	399.40
533.78	402.21
534.14	405.05
534.50	407.88
534.86	410.81
535.21	413.77
535.57	417.08
535.93	420.27
536.29	423.69
536.65	427.20
537.00	430.49
537.36	434.02
537.72	437.58
538.08	441.35
538.44	444.96
538.79	448.64
539.15	452.48
539.51	456.35
539.87	460.25
540.22	464.21
540.58	468.05
540.94	471.86
541.29	475.91
541.65	480.11
542.01	484.62
542.37	488.97
542.72	493.16
543.08	497.32
543.44	501.86
543.79	505.80
544.15	510.28
544.51	514.82
544.87	519.21
545.22	523.64
545.58	527.93
545.94	532.39
546.29	536.96
546.65	541.44
547.01	545.93
547.36	550.59
547.72	555.16
548.07	560.02
548.43	564.50
548.79	569.23
549.14	573.68
549.50	577.87
549.86	582.49
550.21	587.10
550.57	591.89
550.92	596.44
551.28	601.48
551.64	605.90
551.99	610.66
552.35	615.49
552.70	620.13
553.06	624.95
553.41	629.71
553.77	634.40
554.13	639.12
554.48	643.88
554.84	648.39
555.19	652.87
555.55	657.43
555.90	662.02
556.26	666.36
556.61	671.07
556.97	675.71
557.32	680.42
557.68	684.97
558.03	689.53
558.39	693.99
558.74	698.41
559.10	702.80
559.45	707.23
559.81	711.45
560.16	715.94
560.52	720.39
560.87	724.82
561.23	728.84
561.58	733.20
561.94	737.47
562.29	741.74
562.64	745.88
563.00	749.88
563.35	754.22
563.71	758.75
564.06	762.93
564.42	767.08
564.77	770.75
565.12	775.10
565.48	779.12
565.83	782.93
566.19	786.64
566.54	790.30
566.89	793.91
567.25	797.79
567.60	801.61
567.96	805.11
568.31	808.52
568.66	812.32
569.02	815.57
569.37	818.50
569.72	821.68
570.08	824.97
570.43	828.18
570.78	831.07
571.14	833.91
571.49	836.73
571.84	839.71
572.20	842.40
572.55	844.53
572.90	846.78
573.26	849.50
573.61	852.13
573.96	854.65
574.31	856.72
574.67	858.52
575.02	860.23
575.37	862.33
575.72	864.14
576.08	865.86
576.43	867.93
576.78	869.96
577.13	871.87
577.49	873.92
577.84	875.12
578.19	876.67
578.54	877.94
578.90	879.20
579.25	879.77
579.60	881.22
579.95	882.60
580.30	883.70
580.66	884.41
581.01	885.18
581.36	886.09
581.71	887.14
582.06	888.47
582.42	889.23
582.77	889.86
583.12	890.50
583.47	891.16
583.82	891.71
584.17	892.28
584.53	892.62
584.88	892.73
585.23	893.42
585.58	893.59
585.93	893.97
586.28	894.33
586.63	895.23
586.98	895.34
587.34	895.90
587.69	896.00
588.04	896.51
588.39	896.48
588.74	896.47
589.09	896.37
589.44	895.50
589.79	895.55
590.14	895.46
590.49	895.13
590.84	894.89
591.19	894.61
591.54	893.61
591.89	892.96
592.25	892.49
592.60	891.63
592.95	890.72
593.30	889.78
593.65	888.88
594.00	887.88
594.35	887.35
594.70	885.74
595.05	884.99
595.40	883.80
595.75	882.59
596.10	881.50
596.45	880.66
596.80	880.31
597.15	879.47
597.50	878.04
597.85	876.99
598.19	875.94
598.54	874.70
598.89	874.10
599.24	873.29
599.59	872.19
599.94	871.21
600.29	870.40
600.64	869.20
600.99	867.67
601.34	866.40
601.69	864.68
602.04	863.50
602.39	862.02
602.74	860.63
603.08	859.86
603.43	858.59
603.78	857.04
604.13	855.40
604.48	853.49
604.83	851.93
605.18	850.50
605.53	848.59
605.87	846.37
606.22	844.55
606.57	842.25
606.92	840.11
607.27	838.31
607.62	836.59
607.96	834.72
608.31	833.30
608.66	831.03
609.01	829.04
609.36	826.72
609.70	824.14
610.05	821.69
610.40	819.29
610.75	816.84
611.10	814.19
611.44	811.33
611.79	809.07
612.14	806.57
612.49	803.63
612.83	801.21
613.18	799.00
613.53	796.48
613.88	793.95
614.22	791.45
614.57	788.66
614.92	785.94
615.27	783.56
615.61	780.78
615.96	778.40
616.31	775.95
616.65	774.00
617.00	771.66
617.35	769.28
617.70	766.23
618.04	763.55
618.39	761.10
618.74	758.90
619.08	756.20
619.43	753.78
619.78	751.64
620.12	748.92
620.47	746.21
620.82	743.40
621.16	741.15
621.51	738.64
621.85	736.02
622.20	733.30
622.55	730.42
622.89	727.90
623.24	725.47
623.59	722.90
623.93	720.47
624.28	718.00
624.62	715.43
624.97	713.39
625.32	711.06
625.66	708.73
626.01	706.11
626.35	703.53
626.70	701.01
627.04	698.49
627.39	695.98
627.73	693.60
628.08	691.15
628.43	688.50
628.77	686.07
629.12	683.40
629.46	680.90
629.81	678.40
630.15	675.42
630.50	672.66
630.84	669.65
631.19	666.42
631.53	663.80
631.88	660.94
632.22	657.80
632.57	655.13
632.91	652.30
633.26	649.58
633.60	646.89
633.95	644.24
634.29	641.30
634.64	638.85
634.98	636.09
635.32	633.85
635.67	631.34
636.01	628.73
636.36	626.35
636.70	623.88
637.05	621.41
637.39	619.21
637.73	616.83
638.08	614.91
638.42	612.98
638.77	610.63
639.11	608.24
639.45	605.97
639.80	603.53
640.14	601.05
640.49	598.68
640.83	596.23
641.17	593.74
641.52	591.39
641.86	588.81
642.20	586.60
642.55	583.83
642.89	581.42
643.23	578.90
643.58	576.65
643.92	573.99
644.26	571.47
644.61	569.35
644.95	566.87
645.29	563.90
645.64	560.96
645.98	558.57
646.32	556.39
646.66	553.92
647.01	551.19
647.35	548.84
647.69	546.37
648.04	544.28
648.38	541.79
648.72	539.38
649.06	536.86
649.41	534.32
649.75	531.83
650.09	529.21
650.43	526.70
650.78	524.03
651.12	521.59
651.46	519.17
651.80	516.41
652.14	514.10
652.49	511.93
652.83	509.77
653.17	507.18
653.51	504.59
653.85	502.17
654.20	500.14
654.54	497.74
654.88	495.08
655.22	492.29
655.56	489.88
655.90	487.68
656.25	485.42
656.59	483.07
656.93	480.82
657.27	478.76
657.61	476.40
657.95	474.25
658.29	472.12
658.64	469.97
658.98	467.63
659.32	465.11
659.66	462.92
660.00	460.60
660.34	458.42
660.68	456.16
661.02	453.91
661.36	451.72
661.70	449.51
662.05	447.71
662.39	446.03
662.73	444.13
663.07	442.24
663.41	440.21
663.75	438.31
664.09	436.55
664.43	434.63
664.77	432.87
665.11	430.99
665.45	429.17
665.79	427.34
666.13	425.55
666.47	423.97
666.81	422.02
667.15	420.15
667.49	418.43
667.83	416.98
668.17	415.37
668.51	413.61
668.85	411.93
669.19	410.41
669.53	408.70
669.87	406.86
670.21	405.08
670.55	403.56
670.89	402.11
671.23	400.48
671.57	398.72
671.91	397.13
672.25	395.46
672.58	393.96
672.92	392.48
673.26	391.18
673.60	389.55
673.94	388.35
674.28	387.09
674.62	385.81
674.96	384.26
675.30	382.86
675.64	381.37
675.97	380.23
676.31	378.90
676.65	377.46
676.99	376.32
677.33	374.93
677.67	373.70
678.01	372.07
678.34	370.66
678.68	369.44
679.02	368.11
679.36	366.86
679.70	365.51
680.04	364.15
680.37	362.82
680.71	361.65
681.05	360.44
681.39	359.26
681.73	357.91
682.06	356.80
682.40	355.75
682.74	354.78
683.08	353.45
683.42	352.09
683.75	350.90
684.09	349.67
684.43	348.63
684.77	347.41
685.10	346.43
685.44	345.40
685.78	344.28
686.12	343.25
686.45	342.12
686.79	340.96
687.13	339.97
687.46	338.73
687.80	337.68
688.14	336.43
688.48	335.32
688.81	334.23
689.15	333.12
689.49	331.98
689.82	330.77
690.16	329.78
690.50	328.90
690.83	327.99
691.17	326.86
691.51	325.70
691.84	324.69
692.18	323.64
692.52	322.48
692.85	321.35
693.19	320.33
693.52	319.50
693.86	318.53
694.20	317.56
694.53	316.61
694.87	315.53
695.21	314.55
695.54	313.55
695.88	312.47
696.21	311.46
696.55	310.60
696.88	309.63
697.22	308.60
697.56	307.48
697.89	306.47
698.23	305.63
698.56	304.79
698.90	303.90
699.23	302.93
699.57	302.13
699.90	301.24
700.24	300.28
700.58	299.30
700.91	298.60
701.25	297.84
701.58	297.26
701.92	296.52
702.25	295.79
702.59	295.07
702.92	294.52
703.26	293.80
703.59	292.91
703.93	292.39
704.26	291.66
704.60	291.10
704.93	290.39
705.26	289.71
705.60	289.05
705.93	288.42
706.27	287.95
706.60	287.45
706.94	286.94
707.27	286.28
707.61	285.72
707.94	285.13
708.27	284.33
708.61	283.57
708.94	283.01
709.28	282.45
709.61	281.92
709.94	281.35
710.28	280.80
710.61	280.34
710.95	279.66
711.28	279.42
711.61	278.78
711.95	278.25
712.28	277.80
712.61	277.24
712.95	276.84
713.28	276.42
713.61	275.88
713.95	275.46
714.28	275.13
714.61	274.73
714.95	274.21
715.28	273.75
715.61	273.26
715.95	272.89
716.28	272.44
716.61	272.02
716.95	271.63
717.28	271.32
717.61	270.92
717.94	270.48
718.28	269.85
718.61	269.55
718.94	269.10
719.27	268.69
719.61	268.25
719.94	267.70
720.27	267.22
720.60	266.81
720.94	266.46
721.27	266.13
721.60	265.79
721.93	265.47
722.27	265.27
722.60	265.04
722.93	264.66
723.26	264.26
723.59	263.84
723.93	263.40
724.26	262.95
724.59	262.63
724.92	262.27
725.25	261.97
725.59	261.72
725.92	261.48
726.25	261.09
726.58	260.83
726.91	260.61
727.24	260.26
727.57	259.91
727.91	259.53
728.24	259.14
728.57	258.80
728.90	258.51
729.23	258.20
729.56	257.82
729.89	257.49
730.22	257.23
730.55	256.87
730.89	256.65
731.22	256.35
731.55	255.97
731.88	255.68
732.21	255.39
732.54	254.93
732.87	254.61
733.20	254.47
733.53	254.08
733.86	253.78
734.19	253.44
734.52	253.24
734.85	253.04
735.18	252.72
735.51	252.44
735.84	252.09
736.17	251.78
736.50	251.53
736.83	251.46
737.16	251.18
737.49	250.95
737.82	250.66
738.15	250.44
738.48	250.17
738.81	249.95
739.14	249.65
739.47	249.42
739.80	249.16
740.13	248.83
740.46	248.81
740.79	248.51
741.12	248.21
741.45	247.86
741.78	247.51
742.11	247.36
742.44	247.10
742.77	246.93
743.10	246.69
743.43	246.44
743.75	246.05
744.08	245.99
744.41	245.73
744.74	245.49
745.07	245.23
745.40	245.05
745.73	244.82
746.06	244.60
746.39	244.44
746.71	244.30
747.04	244.18
747.37	243.88
747.70	243.80
748.03	243.58
748.36	243.60
748.68	243.51
749.01	243.26
749.34	243.12
749.67	242.96
750.00	242.80
750.33	242.77
750.65	242.60
750.98	242.29
751.31	242.16
751.64	242.00
751.97	242.01
752.29	241.89
752.62	241.87
752.95	241.70
753.28	241.56
753.60	241.35
753.93	241.27
754.26	241.18
754.59	241.00
754.91	240.94
755.24	240.67
755.57	240.56
755.90	240.46
756.22	240.35
756.55	240.23
756.88	240.06
757.20	239.82
757.53	239.71
757.86	239.64
758.19	239.61
758.51	239.54
758.84	239.29
759.17	239.19
759.49	239.07
759.82	239.14
760.15	239.10
760.47	238.96
760.80	238.83
761.13	238.70
761.45	238.67
761.78	238.64
762.11	238.57
762.43	238.41
762.76	238.30
763.08	238.26
763.41	238.14
763.74	238.00
764.06	237.95
764.39	237.81
764.71	237.74
765.04	237.65
765.37	237.61
765.69	237.54
766.02	237.49
766.34	237.30
766.67	237.20
767.00	237.10
767.32	237.18
767.65	237.11
767.97	237.15
768.30	236.96
768.62	236.87
768.95	236.77
769.27	236.72
769.60	236.71
769.92	236.53
770.25	236.39
770.57	236.36
770.90	236.19
771.22	236.05
771.55	235.97
771.87	235.83
772.20	235.70
772.52	235.77
772.85	235.91
773.17	235.87
773.50	235.66
773.82	235.51
774.15	235.44
774.47	235.24
774.80	234.99
775.12	234.86
775.45	234.74
775.77	234.66
776.09	234.52
776.42	234.49
776.74	234.49
777.07	234.44
777.39	234.30
777.72	234.21
778.04	234.22
778.36	234.05
778.69	233.97
779.01	233.86
779.33	233.57
779.66	233.28
779.98	233.18
780.31	233.12
780.63	233.06
780.95	232.90
781.28	232.78
781.60	232.74
781.92	232.67
782.25	232.59
782.57	232.47
782.89	232.47
783.22	232.38
783.54	232.16
783.86	232.12
784.19	232.02
784.51	232.01
784.83	231.90
785.16	231.80
785.48	231.71
785.80	231.73
786.12	231.80
786.45	231.72
786.77	231.71
787.09	231.56
787.42	231.47
787.74	231.46
788.06	231.47
788.38	231.37
788.71	231.30
789.03	231.29
789.35	231.31
789.67	231.21
789.99	231.20
790.32	231.20
790.64	231.08
790.96	231.29
791.28	231.15
791.61	231.05
791.93	231.10
792.25	231.10
792.57	231.20
792.89	231.10
793.21	231.12
793.54	231.10
793.86	231.16
794.18	231.28
794.50	231.28
794.82	231.22
795.14	231.29
795.47	231.43
795.79	231.38
796.11	231.25
796.43	231.26
796.75	231.21
797.07	231.16
797.39	231.28
797.71	231.23
798.04	231.36
798.36	231.48
798.68	231.40
799.00	231.43
799.32	231.26
799.64	231.28
799.96	231.29
800.28	231.22
800.60	231.22
800.92	231.23
801.24	231.20
801.56	231.33
801.89	231.38
802.21	231.40
802.53	231.50
802.85	231.68
803.17	231.78
803.49	231.83
803.81	231.92
804.13	232.02
804.45	231.94
804.77	231.95
805.09	231.89
805.41	231.87
805.73	231.76
806.05	231.72
806.37	231.66
806.69	231.55
807.01	231.50
807.33	231.52
807.65	231.36
807.97	231.32
808.28	231.28
808.60	231.25
808.92	231.18
809.24	231.16
809.56	231.04
809.88	230.93
810.20	230.85
810.52	230.83
810.84	230.66
811.16	230.63
811.48	230.60
811.80	230.74
812.12	230.77
812.43	230.82
812.75	230.88
813.07	230.89
813.39	230.93
813.71	230.95
814.03	230.90
814.35	230.83
814.67	230.77
814.98	230.57
815.30	230.46
815.62	230.33
815.94	230.19
816.26	230.21
816.58	230.07
816.89	229.88
817.21	229.93
817.53	229.90
817.85	229.78
818.17	229.61
818.48	229.41
818.80	229.40
819.12	229.23
819.44	229.08
819.76	229.01
820.07	228.97
820.39	228.89
820.71	228.83
821.03	228.83
821.34	228.71
821.66	228.75
821.98	228.76
822.30	228.78
822.61	228.73
822.93	228.63
823.25	228.61
823.57	228.63
823.88	228.50
824.20	228.34
824.52	228.33
824.83	228.41
825.15	228.32
825.47	228.30
825.79	228.32
826.10	228.30
826.42	228.26
826.74	228.25
827.05	228.28
827.37	228.30
827.69	228.24
828.00	228.26
828.32	228.37
828.64	228.27
828.95	228.30
829.27	228.31
829.58	228.29
829.90	228.31
830.22	228.34
830.53	228.34
830.85	228.45
831.17	228.39
831.48	228.38
831.80	228.48
832.11	228.39
832.43	228.40
832.75	228.38
833.06	228.60
833.38	228.51
833.69	228.52
834.01	228.52
834.32	228.54
834.64	228.57
834.96	228.45
835.27	228.53
835.59	228.53
835.90	228.60
836.22	228.53
836.53	228.62
836.85	228.77
837.16	228.89
837.48	228.88
837.79	229.07
838.11	229.05
838.42	229.08
838.74	229.14
839.05	229.18
839.37	229.40
839.68	229.22
840.00	229.21
840.31	229.30
840.63	229.29
840.94	229.37
841.26	229.44
841.57	229.56
841.88	229.70
842.20	229.64
842.51	229.66
842.83	229.92
843.14	230.08
843.46	230.01
843.77	229.99
844.08	230.15
844.40	230.10
844.71	230.18
845.03	230.14
845.34	230.24
845.65	230.34
845.97	230.25
846.28	230.17
846.60	230.22
846.91	230.16
847.22	230.16
847.54	230.22
847.85	230.27
848.16	230.23
848.48	230.13
848.79	230.31
849.10	230.30
849.42	230.21
849.73	229.91
850.04	229.96
850.36	229.83
850.67	229.73
850.98	229.70
851.30	229.75
851.61	229.75
851.92	229.74
852.23	229.76
852.55	229.65
852.86	229.77
853.17	229.78
853.49	229.78
853.80	229.81
854.11	229.80
854.42	229.76
854.74	229.74
855.05	229.75
855.36	229.60
855.67	229.59
855.99	229.49
856.30	229.78
856.61	229.63
856.92	229.59
857.23	229.49
857.55	229.42
857.86	229.34
858.17	229.34
858.48	229.06
858.79	229.00
859.11	229.05
859.42	228.91
859.73	228.88
860.04	228.73
860.35	228.74
860.66	228.59
860.98	228.44
861.29	228.34
861.60	228.17
861.91	228.05
862.22	227.91
862.53	227.90
862.84	227.56
863.16	227.55
863.47	227.43
863.78	227.40
864.09	227.36
864.40	227.32
864.71	227.12
865.02	227.23
865.33	227.09
865.64	227.07
865.95	226.99
866.27	227.10
866.58	227.16
866.89	227.01
867.20	226.93
867.51	226.87
867.82	226.83
868.13	226.92
868.44	226.88
868.75	226.85
869.06	226.79
869.37	226.89
869.68	226.83
869.99	226.95
870.30	226.97
870.61	226.96
870.92	226.90
871.23	226.96
871.54	226.96
871.85	227.02
872.16	227.12
872.47	227.16
872.78	227.10
873.09	227.19
873.40	227.21
873.71	227.33
874.02	227.37
874.33	227.40
874.64	227.40
874.95	227.50
875.26	227.55
875.56	227.62
875.87	227.55
876.18	227.56
876.49	227.73
876.80	227.76
877.11	227.76
877.42	227.77
877.73	227.90
878.04	227.98
878.35	227.98
878.66	227.92
878.96	227.94
879.27	227.88
879.58	227.90
879.89	227.97
880.20	228.11
880.51	228.27
880.82	228.38
881.12	228.45
881.43	228.51
881.74	228.61
882.05	228.60
882.36	228.77
882.67	228.86
882.97	228.80
883.28	228.80
883.59	229.00
883.90	229.15
884.21	229.17
884.51	229.23
884.82	229.30
885.13	229.30
885.44	229.37
885.74	229.49
886.05	229.48
886.36	229.50
886.67	229.40
886.98	229.44
887.28	229.45
887.59	229.31
887.90	229.31
888.20	229.31
888.51	229.46
888.82	229.35
889.13	229.37
889.43	229.42
889.74	229.46
890.05	229.30
890.35	229.27
890.66	229.24
890.97	229.29
891.28	229.30
891.58	229.41
891.89	229.44
892.20	229.37
892.50	229.28
892.81	229.19
893.12	229.15
893.42	229.17
893.73	229.15
894.04	229.28
894.34	229.25
894.65	229.21
894.95	229.10
895.26	229.16
895.57	229.25
895.87	229.10
896.18	229.12
896.48	229.22
896.79	229.13
897.10	229.14
897.40	228.98
897.71	228.92
898.01	228.74
898.32	228.74
898.63	228.60
898.93	228.65
899.24	228.65
899.54	228.71
899.85	228.57
900.15	228.41
900.46	228.37
900.76	228.33
901.07	228.29
901.38	228.17
901.68	228.04
901.99	227.84
902.29	227.70
902.60	227.59
902.90	227.36
903.21	227.35
903.51	227.23
903.82	227.26
904.12	227.16
904.43	227.13
904.73	227.02
905.03	227.12
905.34	227.20
905.64	227.21
905.95	227.05
906.25	227.05
906.56	227.10
906.86	227.14
907.17	227.17
907.47	227.16
907.77	227.16
908.08	227.25
908.38	227.21
908.69	227.34
908.99	227.40
909.30	227.55
909.60	227.54
909.90	227.69
910.21	227.55
910.51	227.60
910.81	227.66
911.12	227.73
911.42	227.72
911.73	227.55
912.03	227.65
912.33	227.70
912.64	227.73
912.94	227.80
913.24	227.70
913.55	227.70
913.85	227.70
914.15	227.80
914.46	227.74
914.76	227.81
915.06	227.81
915.37	227.81
915.67	227.79
915.97	227.85
916.27	227.79
916.58	227.93
916.88	227.90
917.18	227.88
917.49	228.04
917.79	228.08
918.09	228.20
918.39	228.25
918.70	228.31
919.00	228.34
919.30	228.44
919.60	228.47
919.91	228.56
920.21	228.60
920.51	228.66
920.81	228.76
921.12	228.87
921.42	228.94
921.72	229.08
922.02	229.21
922.32	229.28
922.63	229.32
922.93	229.48
923.23	229.66
923.53	229.82
923.83	229.78
924.13	229.84
924.44	229.92
924.74	229.90
925.04	229.94
925.34	229.96
925.64	229.78
925.94	229.77
926.24	229.91
926.55	229.88
926.85	229.87
927.15	229.86
927.45	229.79
927.75	229.73
928.05	229.60
928.35	229.59
928.65	229.58
928.95	229.61
929.26	229.53
929.56	229.51
929.86	229.40
930.16	229.46
930.46	229.39
930.76	229.34
931.06	229.28
931.36	229.22
931.66	229.22
931.96	229.35
932.26	229.41
932.56	229.21
932.86	229.19
933.16	229.21
933.46	229.10
933.76	229.05
934.06	229.13
934.36	229.19
934.66	229.18
934.96	229.11
935.26	229.12
935.56	229.07
935.86	228.95
936.16	228.94
936.46	228.81
936.76	228.65
937.06	228.58
937.36	228.46
937.66	228.48
937.96	228.43
938.26	228.34
938.56	228.25
938.86	228.09
939.16	228.13
939.46	228.15
939.76	228.20
940.06	228.09
940.35	228.06
940.65	227.88
940.95	227.71
941.25	227.59
941.55	227.47
941.85	227.39
942.15	227.36
942.45	227.33
942.75	227.30
943.04	227.45
943.34	227.45
943.64	227.47
943.94	227.40
944.24	227.31
944.54	227.31
944.84	227.28
945.13	227.29
945.43	227.21
945.73	227.00
946.03	226.90
946.33	226.94
946.62	226.89
946.92	226.86
947.22	226.91
947.52	227.00
947.82	226.98
948.11	227.05
948.41	227.18
948.71	227.04
949.01	227.03
949.31	226.97
949.60	226.89
949.90	226.90
950.20	226.94
950.50	227.01
950.79	226.98
951.09	227.01
951.39	227.08
951.69	227.06
951.98	227.10
952.28	227.19
952.58	227.27
952.87	227.31
953.17	227.35
953.47	227.30
953.76	227.26
954.06	227.37
954.36	227.30
954.66	227.34
954.95	227.49
955.25	227.51
955.55	227.64
955.84	227.72
956.14	227.79
956.44	227.83
956.73	227.72
957.03	227.84
957.32	227.93
957.62	227.95
957.92	228.07
958.21	228.26
958.51	228.58
958.81	228.65
959.10	228.73
959.40	228.90
959.69	229.03
959.99	229.15
960.29	229.16
960.58	229.26
960.88	229.33
961.17	229.31
961.47	229.26
961.76	229.24
962.06	229.28
962.36	229.30
962.65	229.33
962.95	229.48
963.24	229.48
963.54	229.52
963.83	229.54
964.13	229.64
964.42	229.53
964.72	229.25
965.01	229.22
965.31	229.11
965.60	229.12
965.90	229.19
966.19	229.11
966.49	229.06
966.78	228.95
967.08	228.83
967.37	228.90
967.67	229.02
967.96	228.95
968.26	228.92
968.55	228.95
968.85	228.88
969.14	228.86
969.43	228.80
969.73	228.69
970.02	228.66
970.32	228.55
970.61	228.61
970.91	228.55
971.20	228.58
971.49	228.53
971.79	228.51
972.08	228.26
972.38	228.28
972.67	228.20
972.96	228.23
973.26	228.22
973.55	228.15
973.85	228.07
974.14	228.11
974.43	228.11
974.73	228.01
975.02	227.98
975.31	227.90
975.61	227.78
975.90	227.75
976.19	227.72
976.49	227.63
976.78	227.56
977.07	227.50
977.37	227.45
977.66	227.48
977.95	227.36
978.24	227.40
978.54	227.38
978.83	227.35
979.12	227.32
979.42	227.26
979.71	227.31
980.00	227.22
980.29	227.15
980.59	226.99
980.88	226.93
981.17	226.92
981.46	226.87
981.76	226.87
982.05	226.91
982.34	226.90
982.63	226.89
982.93	226.79
983.22	226.76
983.51	226.68
983.80	226.73
984.09	226.74
984.39	226.62
984.68	226.62
984.97	226.74
985.26	226.76
985.55	226.80
985.85	226.62
986.14	226.77
986.43	226.77
986.72	226.86
987.01	226.90
987.30	226.86
987.59	226.87
987.89	226.94
988.18	226.85
988.47	226.90
988.76	226.92
989.05	226.94
989.34	227.02
989.63	227.20
989.92	227.09
990.22	227.09
990.51	227.18
990.80	227.14
991.09	227.06
991.38	227.03
991.67	226.97
991.96	227.09
992.25	226.95
992.54	227.08
992.83	227.06
993.12	227.06
993.41	227.19
993.70	227.29
993.99	227.34
994.28	227.45
994.58	227.52
994.87	227.50
995.16	227.62
995.45	227.74
995.74	227.74
996.03	227.90
996.32	227.92
996.61	228.03
996.90	228.09
997.19	228.12
997.48	228.20
997.77	228.26
998.06	228.27
998.34	228.34
998.63	228.35
998.92	228.42
999.21	228.56
999.50	228.57
999.79	228.58
1000.08	228.60
1000.37	228.59
1000.66	228.67
1000.95	228.76
1001.24	228.83
1001.53	228.85
1001.82	228.71
1002.11	228.60
1002.40	228.73
1002.68	228.82
1002.97	228.96
1003.26	228.95
1003.55	228.92
1003.84	228.99
1004.13	229.07
1004.42	229.11
1004.71	229.00
1004.99	228.89
1005.28	228.91
1005.57	228.98
1005.86	229.02
1006.15	229.03
1006.44	228.99
1006.72	228.83
1007.01	228.86
1007.30	228.69
1007.59	228.54
1007.88	228.57
1008.17	228.51
1008.45	228.41
1008.74	228.34
1009.03	228.29
1009.32	228.26
1009.60	228.21
1009.89	228.20
1010.18	228.10
1010.47	227.99
1010.76	228.06
1011.04	228.07
1011.33	228.06
1011.62	228.00
1011.91	227.88
1012.19	227.90
1012.48	227.91
1012.77	228.05
1013.05	228.08
1013.34	228.12
1013.63	228.22
1013.92	228.20
1014.20	228.23
1014.49	228.22
1014.78	228.22
1015.06	228.10
1015.35	228.04
1015.64	228.10
1015.92	228.03
1016.21	227.99
1016.50	227.94
1016.78	227.97
1017.07	228.03
1017.36	227.86
1017.64	227.76
1017.93	227.79
1018.22	227.67
1018.50	227.63
1018.79	227.58
1019.08	227.52
1019.36	227.49
1019.65	227.40
1019.93	227.48
1020.22	227.50
1020.51	227.55
1020.79	227.60
1021.08	226.90
1021.36	226.30
1021.65	229.10
1021.94	228.80
1022.22	226.90
1022.51	226.70
1022.79	228.90
1023.08	227.20
1023.36	229.60
1023.65	229.30
>>>>>End Processed Spectral Data<<<<<
