SpectraSuite Data File
++++++++++++++++++++++++++++++++++++
Date: Fri Feb 01 14:34:22 EST 2013
User: group
Dark Spectrum Present: No
Reference Spectrum Present: No
Number of Sampled Component Spectra: 1
Spectrometers: USB2E7196
Integration Time (usec): 70000 (USB2E7196)
Spectra Averaged: 10 (USB2E7196)
Boxcar Smoothing: 10 (USB2E7196)
Correct for Electrical Dark: No (USB2E7196)
Strobe/Lamp Enabled: No (USB2E7196)
Correct for Detector Non-linearity: No (USB2E7196)
Correct for Stray Light: No (USB2E7196)
Number of Pixels in Processed Spectrum: 2048
>>>>>Begin Processed Spectral Data<<<<<
339.09	0.00
339.48	216.20
339.86	217.70
340.24	217.60
340.63	219.30
341.01	222.60
341.39	221.30
341.78	224.80
342.16	227.00
342.54	226.10
342.93	214.10
343.31	224.93
343.69	225.51
344.07	226.00
344.46	226.50
344.84	226.91
345.22	227.15
345.60	227.56
345.99	227.74
346.37	227.75
346.75	227.85
347.13	228.00
347.52	228.12
347.90	228.24
348.28	228.23
348.66	228.25
349.05	228.24
349.43	228.30
349.81	228.26
350.19	228.34
350.57	228.46
350.96	228.56
351.34	228.66
351.72	228.73
352.10	228.72
352.48	228.82
352.87	228.90
353.25	228.94
353.63	228.91
354.01	228.99
354.39	229.09
354.77	229.16
355.15	229.28
355.54	229.43
355.92	229.52
356.30	229.68
356.68	229.93
357.06	229.98
357.44	229.95
357.82	230.10
358.20	230.11
358.58	230.07
358.97	230.12
359.35	230.23
359.73	230.25
360.11	230.35
360.49	230.33
360.87	230.38
361.25	230.50
361.63	230.53
362.01	230.53
362.39	230.63
362.77	230.68
363.15	230.69
363.53	230.61
363.91	230.64
364.29	230.57
364.67	230.47
365.05	230.36
365.43	230.48
365.81	230.53
366.19	230.66
366.57	230.71
366.95	230.62
367.33	230.53
367.71	230.62
368.09	230.60
368.47	230.59
368.85	230.60
369.23	230.65
369.61	230.68
369.99	230.64
370.37	230.57
370.75	230.65
371.13	230.51
371.51	230.49
371.89	230.36
372.27	230.26
372.65	230.14
373.03	230.24
373.41	230.15
373.78	230.03
374.16	229.86
374.54	229.77
374.92	229.71
375.30	229.70
375.68	229.49
376.06	229.52
376.44	229.43
376.82	229.33
377.19	229.15
377.57	229.05
377.95	228.97
378.33	228.84
378.71	228.59
379.09	228.53
379.47	228.45
379.84	228.28
380.22	228.25
380.60	228.14
380.98	227.97
381.36	227.93
381.73	227.84
382.11	227.79
382.49	227.70
382.87	227.67
383.25	227.62
383.62	227.73
384.00	227.55
384.38	227.50
384.76	227.38
385.13	227.38
385.51	227.22
385.89	227.19
386.27	227.18
386.64	227.08
387.02	227.05
387.40	226.94
387.78	227.04
388.15	226.97
388.53	226.90
388.91	226.87
389.29	226.81
389.66	226.89
390.04	226.86
390.42	226.96
390.79	227.01
391.17	226.90
391.55	226.79
391.92	226.80
392.30	226.88
392.68	226.92
393.05	226.90
393.43	227.05
393.81	227.09
394.18	227.13
394.56	227.24
394.94	227.30
395.31	227.38
395.69	227.50
396.06	227.68
396.44	227.77
396.82	227.94
397.19	228.14
397.57	228.20
397.95	228.34
398.32	228.35
398.70	228.42
399.07	228.55
399.45	228.62
399.82	228.78
400.20	228.97
400.58	229.12
400.95	229.35
401.33	229.53
401.70	229.86
402.08	230.04
402.45	230.30
402.83	230.59
403.20	230.77
403.58	230.97
403.95	231.33
404.33	231.65
404.71	231.99
405.08	232.42
405.46	232.77
405.83	233.11
406.21	233.39
406.58	233.74
406.96	234.25
407.33	234.70
407.70	235.21
408.08	235.73
408.45	236.31
408.83	236.89
409.20	237.56
409.58	238.10
409.95	238.90
410.33	239.70
410.70	240.44
411.08	241.33
411.45	242.23
411.82	243.05
412.20	244.15
412.57	245.28
412.95	246.12
413.32	247.37
413.69	248.65
414.07	250.15
414.44	251.63
414.82	253.10
415.19	254.78
415.56	256.50
415.94	258.36
416.31	260.45
416.68	262.37
417.06	264.55
417.43	266.70
417.81	269.15
418.18	271.57
418.55	274.12
418.93	277.04
419.30	279.94
419.67	283.06
420.04	286.17
420.42	289.50
420.79	293.53
421.16	297.34
421.54	301.22
421.91	305.30
422.28	309.68
422.66	314.24
423.03	318.64
423.40	323.21
423.77	328.07
424.15	332.94
424.52	338.20
424.89	343.94
425.26	349.52
425.64	354.65
426.01	360.54
426.38	366.50
426.75	372.61
427.13	378.93
427.50	385.51
427.87	392.51
428.24	399.53
428.61	405.99
428.99	413.11
429.36	421.16
429.73	428.80
430.10	436.40
430.47	444.22
430.85	452.52
431.22	461.13
431.59	470.00
431.96	478.64
432.33	488.15
432.70	497.27
433.08	508.03
433.45	518.26
433.82	528.12
434.19	539.46
434.56	550.41
434.93	561.05
435.30	571.44
435.68	583.03
436.05	594.34
436.42	605.53
436.79	616.01
437.16	626.79
437.53	638.51
437.90	650.08
438.27	661.41
438.64	673.03
439.01	684.11
439.38	694.12
439.75	703.76
440.13	714.54
440.50	724.90
440.87	733.56
441.24	742.50
441.61	752.42
441.98	759.86
442.35	768.22
442.72	777.03
443.09	785.77
443.46	791.32
443.83	795.10
444.20	798.93
444.57	803.76
444.94	806.92
445.31	810.00
445.68	812.74
446.05	814.83
446.42	815.28
446.79	815.14
447.16	815.10
447.53	815.40
447.90	812.77
448.27	809.72
448.64	804.82
449.01	802.03
449.37	795.48
449.74	789.38
450.11	781.71
450.48	773.00
450.85	764.31
451.22	757.12
451.59	750.61
451.96	743.97
452.33	734.71
452.70	726.20
453.07	715.81
453.43	705.54
453.80	695.25
454.17	685.23
454.54	676.16
454.91	665.75
455.28	655.87
455.65	646.41
456.02	636.96
456.38	629.00
456.75	618.59
457.12	610.43
457.49	601.85
457.86	593.89
458.23	587.01
458.59	578.98
458.96	570.47
459.33	563.13
459.70	555.98
460.07	550.42
460.43	543.78
460.80	537.52
461.17	531.97
461.54	526.45
461.91	520.96
462.27	515.03
462.64	510.50
463.01	505.13
463.38	499.99
463.74	495.10
464.11	490.69
464.48	486.90
464.85	482.45
465.21	479.21
465.58	475.64
465.95	471.34
466.32	467.93
466.68	464.66
467.05	461.01
467.42	457.41
467.78	453.43
468.15	449.91
468.52	447.29
468.88	443.99
469.25	440.84
469.62	438.30
469.98	435.62
470.35	432.97
470.72	430.59
471.08	428.00
471.45	425.71
471.82	423.38
472.18	420.75
472.55	419.03
472.92	416.99
473.28	415.13
473.65	413.30
474.02	411.47
474.38	409.87
474.75	408.63
475.11	407.25
475.48	406.36
475.85	405.40
476.21	404.44
476.58	403.54
476.94	402.79
477.31	401.98
477.67	401.26
478.04	400.57
478.41	400.09
478.77	399.82
479.14	399.11
479.50	398.72
479.87	398.68
480.23	398.56
480.60	398.24
480.96	398.04
481.33	398.16
481.69	398.25
482.06	398.39
482.42	398.25
482.79	398.44
483.15	398.63
483.52	399.35
483.88	399.74
484.25	400.37
484.61	401.12
484.98	401.75
485.34	402.86
485.71	404.05
486.07	405.39
486.44	406.46
486.80	407.94
487.17	409.38
487.53	411.00
487.90	412.76
488.26	414.68
488.62	416.63
488.99	418.55
489.35	420.38
489.72	422.41
490.08	424.98
490.44	427.37
490.81	430.00
491.17	432.27
491.54	434.98
491.90	437.49
492.26	440.31
492.63	443.26
492.99	445.90
493.36	448.89
493.72	451.84
494.08	455.22
494.45	458.57
494.81	461.95
495.17	465.61
495.54	469.25
495.90	473.05
496.26	476.90
496.63	480.74
496.99	484.97
497.35	489.14
497.72	493.20
498.08	497.44
498.44	501.78
498.80	506.50
499.17	510.87
499.53	515.32
499.89	519.74
500.26	524.54
500.62	529.23
500.98	534.00
501.34	538.66
501.71	543.40
502.07	548.17
502.43	553.11
502.79	557.78
503.16	562.57
503.52	567.31
503.88	572.14
504.24	577.15
504.60	582.16
504.97	587.24
505.33	592.40
505.69	597.47
506.05	602.29
506.41	606.93
506.78	611.88
507.14	616.72
507.50	621.63
507.86	626.42
508.22	631.50
508.59	635.81
508.95	640.53
509.31	645.24
509.67	649.88
510.03	654.50
510.39	658.89
510.75	663.55
511.12	668.00
511.48	672.36
511.84	676.66
512.20	680.80
512.56	685.05
512.92	688.90
513.28	692.91
513.64	696.79
514.00	700.59
514.37	704.52
514.73	708.54
515.09	711.79
515.45	715.10
515.81	718.37
516.17	722.17
516.53	725.72
516.89	728.91
517.25	732.09
517.61	735.11
517.97	738.23
518.33	740.78
518.69	743.62
519.05	746.60
519.41	749.31
519.77	752.27
520.13	754.84
520.49	757.48
520.85	759.93
521.21	762.36
521.57	765.06
521.93	767.20
522.29	769.71
522.65	772.34
523.01	774.75
523.37	776.73
523.73	779.04
524.09	781.24
524.45	783.40
524.81	785.73
525.17	788.39
525.53	790.84
525.89	793.14
526.25	795.50
526.61	797.45
526.97	799.70
527.33	801.79
527.68	804.20
528.04	806.18
528.40	808.36
528.76	810.86
529.12	813.05
529.48	815.53
529.84	817.47
530.20	819.96
530.56	822.76
530.91	825.85
531.27	828.06
531.63	830.32
531.99	832.68
532.35	834.79
532.71	836.81
533.07	839.21
533.42	841.81
533.78	844.03
534.14	846.42
534.50	848.58
534.86	850.85
535.21	852.90
535.57	855.69
535.93	858.19
536.29	860.51
536.65	862.98
537.00	865.17
537.36	867.91
537.72	870.05
538.08	872.10
538.44	874.02
538.79	876.54
539.15	878.75
539.51	881.38
539.87	884.06
540.22	886.59
540.58	889.01
540.94	891.38
541.29	893.69
541.65	896.17
542.01	898.82
542.37	901.37
542.72	903.91
543.08	906.38
543.44	909.03
543.79	911.15
544.15	913.80
544.51	916.75
544.87	919.26
545.22	921.98
545.58	924.20
545.94	926.62
546.29	929.02
546.65	931.69
547.01	933.84
547.36	935.91
547.72	938.28
548.07	940.55
548.43	942.73
548.79	945.27
549.14	947.37
549.50	949.72
549.86	951.89
550.21	954.23
550.57	956.24
550.92	958.18
551.28	960.72
551.64	962.67
551.99	964.62
552.35	966.72
552.70	969.11
553.06	971.69
553.41	974.07
553.77	976.19
554.13	978.20
554.48	980.80
554.84	983.50
555.19	985.40
555.55	987.66
555.90	989.61
556.26	991.75
556.61	993.96
556.97	995.99
557.32	998.23
557.68	1000.27
558.03	1002.62
558.39	1004.78
558.74	1007.32
559.10	1009.75
559.45	1011.84
559.81	1014.42
560.16	1016.18
560.52	1018.40
560.87	1020.68
561.23	1022.64
561.58	1025.06
561.94	1026.87
562.29	1028.69
562.64	1030.51
563.00	1032.33
563.35	1034.90
563.71	1037.00
564.06	1039.27
564.42	1041.32
564.77	1043.20
565.12	1045.36
565.48	1047.16
565.83	1049.10
566.19	1050.52
566.54	1051.83
566.89	1053.58
567.25	1054.96
567.60	1056.70
567.96	1058.21
568.31	1059.42
568.66	1060.70
569.02	1061.61
569.37	1062.69
569.72	1063.79
570.08	1065.28
570.43	1066.40
570.78	1067.03
571.14	1067.60
571.49	1068.43
571.84	1069.50
572.20	1070.26
572.55	1070.70
572.90	1071.01
573.26	1071.44
573.61	1071.67
573.96	1071.98
574.31	1071.92
574.67	1071.53
575.02	1071.40
575.37	1071.07
575.72	1070.53
576.08	1070.66
576.43	1070.41
576.78	1070.05
577.13	1069.98
577.49	1069.63
577.84	1068.88
578.19	1068.45
578.54	1068.14
578.90	1067.25
579.25	1065.91
579.60	1064.78
579.95	1063.73
580.30	1062.73
580.66	1061.61
581.01	1060.53
581.36	1059.61
581.71	1058.59
582.06	1057.27
582.42	1055.88
582.77	1054.48
583.12	1053.56
583.47	1052.40
583.82	1051.38
584.17	1050.18
584.53	1048.58
584.88	1047.07
585.23	1045.86
585.58	1044.54
585.93	1042.74
586.28	1041.53
586.63	1040.60
586.98	1039.22
587.34	1037.76
587.69	1036.37
588.04	1034.70
588.39	1033.08
588.74	1030.76
589.09	1028.85
589.44	1027.11
589.79	1025.63
590.14	1024.00
590.49	1021.87
590.84	1019.59
591.19	1017.58
591.54	1014.94
591.89	1012.57
592.25	1010.31
592.60	1007.78
592.95	1005.00
593.30	1002.39
593.65	999.49
594.00	996.77
594.35	994.59
594.70	991.92
595.05	989.50
595.40	986.98
595.75	984.19
596.10	982.00
596.45	979.66
596.80	977.49
597.15	974.83
597.50	972.18
597.85	969.94
598.19	967.69
598.54	965.10
598.89	962.81
599.24	960.70
599.59	958.34
599.94	955.87
600.29	953.36
600.64	950.84
600.99	948.21
601.34	945.50
601.69	942.44
602.04	939.85
602.39	936.89
602.74	934.25
603.08	931.85
603.43	929.47
603.78	926.77
604.13	923.69
604.48	920.73
604.83	917.95
605.18	915.11
605.53	911.96
605.87	908.59
606.22	905.89
606.57	902.59
606.92	899.55
607.27	896.66
607.62	893.98
607.96	891.50
608.31	888.84
608.66	885.81
609.01	882.74
609.36	879.32
609.70	875.85
610.05	872.29
610.40	869.04
610.75	865.41
611.10	861.72
611.44	858.20
611.79	855.05
612.14	851.49
612.49	847.70
612.83	844.13
613.18	840.93
613.53	837.51
613.88	833.88
614.22	830.24
614.57	826.50
614.92	822.86
615.27	819.31
615.61	815.48
615.96	811.81
616.31	808.69
616.65	806.03
617.00	803.12
617.35	800.04
617.70	796.51
618.04	792.94
618.39	789.62
618.74	786.54
619.08	783.06
619.43	779.96
619.78	776.92
620.12	773.79
620.47	770.56
620.82	767.00
621.16	763.71
621.51	760.60
621.85	757.63
622.20	754.29
622.55	750.88
622.89	747.95
623.24	745.06
623.59	741.73
623.93	738.17
624.28	734.76
624.62	731.71
624.97	728.85
625.32	725.96
625.66	723.28
626.01	720.42
626.35	717.34
626.70	714.31
627.04	711.34
627.39	708.24
627.73	705.18
628.08	702.29
628.43	699.22
628.77	696.10
629.12	692.95
629.46	689.86
629.81	686.53
630.15	683.18
630.50	679.83
630.84	676.23
631.19	672.85
631.53	669.87
631.88	666.44
632.22	662.91
632.57	659.93
632.91	656.34
633.26	652.67
633.60	649.52
633.95	646.32
634.29	643.26
634.64	640.37
634.98	637.21
635.32	634.43
635.67	631.58
636.01	628.80
636.36	625.83
636.70	623.36
637.05	620.87
637.39	618.17
637.73	615.40
638.08	613.34
638.42	611.04
638.77	608.40
639.11	605.81
639.45	603.28
639.80	600.60
640.14	598.10
640.49	595.72
640.83	593.00
641.17	590.33
641.52	587.70
641.86	584.98
642.20	582.49
642.55	579.70
642.89	577.11
643.23	574.36
643.58	571.88
643.92	569.10
644.26	566.56
644.61	564.11
644.95	561.59
645.29	558.70
645.64	555.92
645.98	553.18
646.32	550.54
646.66	548.02
647.01	545.34
647.35	542.84
647.69	540.28
648.04	538.15
648.38	535.68
648.72	532.92
649.06	530.23
649.41	527.62
649.75	524.88
650.09	522.46
650.43	519.90
650.78	517.16
651.12	514.45
651.46	511.75
651.80	509.24
652.14	506.63
652.49	504.23
652.83	501.75
653.17	499.31
653.51	496.71
653.85	494.14
654.20	491.60
654.54	489.04
654.88	486.47
655.22	483.64
655.56	481.00
655.90	478.72
656.25	476.53
656.59	474.16
656.93	472.23
657.27	469.94
657.61	467.63
657.95	465.71
658.29	463.65
658.64	461.59
658.98	459.33
659.32	457.23
659.66	455.03
660.00	452.94
660.34	450.89
660.68	448.95
661.02	447.00
661.36	445.08
661.70	443.14
662.05	441.33
662.39	439.44
662.73	437.52
663.07	435.70
663.41	433.67
663.75	431.86
664.09	430.04
664.43	428.16
664.77	426.46
665.11	424.59
665.45	422.78
665.79	420.84
666.13	418.99
666.47	417.14
666.81	415.24
667.15	413.24
667.49	411.49
667.83	409.98
668.17	408.25
668.51	406.52
668.85	404.84
669.19	403.23
669.53	401.54
669.87	400.02
670.21	398.30
670.55	396.83
670.89	395.34
671.23	393.66
671.57	392.21
671.91	390.50
672.25	388.96
672.58	387.41
672.92	385.91
673.26	384.59
673.60	383.23
673.94	381.82
674.28	380.68
674.62	379.31
674.96	377.73
675.30	376.35
675.64	375.00
675.97	373.74
676.31	372.49
676.65	371.40
676.99	370.22
677.33	368.88
677.67	367.61
678.01	366.30
678.34	364.98
678.68	363.67
679.02	362.52
679.36	361.30
679.70	360.03
680.04	359.00
680.37	357.77
680.71	356.48
681.05	355.30
681.39	354.09
681.73	353.02
682.06	352.07
682.40	351.11
682.74	349.91
683.08	348.75
683.42	347.63
683.75	346.48
684.09	345.14
684.43	344.04
684.77	342.90
685.10	341.60
685.44	340.51
685.78	339.41
686.12	338.25
686.45	337.13
686.79	336.13
687.13	334.95
687.46	333.87
687.80	332.87
688.14	331.89
688.48	330.87
688.81	329.72
689.15	328.67
689.49	327.56
689.82	326.70
690.16	325.57
690.50	324.63
690.83	323.45
691.17	322.50
691.51	321.55
691.84	320.58
692.18	319.68
692.52	318.61
692.85	317.68
693.19	316.86
693.52	315.93
693.86	314.90
694.20	313.98
694.53	313.06
694.87	312.15
695.21	311.22
695.54	310.28
695.88	309.38
696.21	308.34
696.55	307.37
696.88	306.44
697.22	305.70
697.56	304.68
697.89	303.98
698.23	303.16
698.56	302.28
698.90	301.53
699.23	300.75
699.57	300.04
699.90	299.18
700.24	298.36
700.58	297.54
700.91	296.90
701.25	296.21
701.58	295.67
701.92	295.00
702.25	294.28
702.59	293.53
702.92	292.81
703.26	292.29
703.59	291.75
703.93	291.22
704.26	290.65
704.60	290.03
704.93	289.40
705.26	288.86
705.60	288.34
705.93	287.62
706.27	287.06
706.60	286.55
706.94	285.97
707.27	285.24
707.61	284.71
707.94	284.17
708.27	283.53
708.61	282.81
708.94	282.25
709.28	281.77
709.61	281.33
709.94	280.95
710.28	280.36
710.61	279.75
710.95	279.09
711.28	278.56
711.61	277.96
711.95	277.48
712.28	276.89
712.61	276.33
712.95	275.85
713.28	275.36
713.61	274.80
713.95	274.31
714.28	273.99
714.61	273.46
714.95	272.90
715.28	272.44
715.61	271.99
715.95	271.58
716.28	271.08
716.61	270.66
716.95	270.14
717.28	269.70
717.61	269.32
717.94	268.87
718.28	268.51
718.61	268.10
718.94	267.52
719.27	267.14
719.61	266.72
719.94	266.32
720.27	265.90
720.60	265.50
720.94	265.26
721.27	264.86
721.60	264.51
721.93	264.02
722.27	263.72
722.60	263.32
722.93	262.81
723.26	262.35
723.59	261.96
723.93	261.57
724.26	261.17
724.59	260.74
724.92	260.39
725.25	260.06
725.59	259.76
725.92	259.60
726.25	259.25
726.58	259.02
726.91	258.78
727.24	258.52
727.57	258.21
727.91	257.77
728.24	257.55
728.57	257.16
728.90	256.98
729.23	256.50
729.56	256.29
729.89	256.06
730.22	255.87
730.55	255.60
730.89	255.30
731.22	254.91
731.55	254.65
731.88	254.41
732.21	254.00
732.54	253.87
732.87	253.62
733.20	253.36
733.53	253.05
733.86	252.86
734.19	252.49
734.52	252.16
734.85	252.04
735.18	251.70
735.51	251.54
735.84	251.35
736.17	251.21
736.50	250.97
736.83	250.94
737.16	250.60
737.49	250.31
737.82	250.13
738.15	250.10
738.48	249.88
738.81	249.67
739.14	249.45
739.47	249.05
739.80	248.72
740.13	248.64
740.46	248.40
740.79	248.13
741.12	247.97
741.45	247.78
741.78	247.50
742.11	247.47
742.44	247.24
742.77	247.10
743.10	246.95
743.43	246.61
743.75	246.22
744.08	246.37
744.41	246.14
744.74	245.99
745.07	245.71
745.40	245.50
745.73	245.41
746.06	245.38
746.39	245.35
746.71	245.24
747.04	244.97
747.37	244.80
747.70	244.56
748.03	244.41
748.36	244.35
748.68	244.18
749.01	243.83
749.34	243.77
749.67	243.60
750.00	243.35
750.33	243.50
750.65	243.27
750.98	242.98
751.31	242.82
751.64	242.62
751.97	242.54
752.29	242.50
752.62	242.26
752.95	242.06
753.28	241.88
753.60	241.73
753.93	241.64
754.26	241.60
754.59	241.49
754.91	241.28
755.24	241.19
755.57	241.00
755.90	240.87
756.22	240.65
756.55	240.51
756.88	240.40
757.20	240.10
757.53	240.09
757.86	239.93
758.19	239.88
758.51	239.87
758.84	239.78
759.17	239.62
759.49	239.55
759.82	239.43
760.15	239.33
760.47	239.19
760.80	238.98
761.13	238.79
761.45	238.73
761.78	238.62
762.11	238.44
762.43	238.43
762.76	238.32
763.08	238.25
763.41	238.14
763.74	238.07
764.06	237.90
764.39	237.83
764.71	237.69
765.04	237.57
765.37	237.37
765.69	237.19
766.02	237.10
766.34	236.97
766.67	236.86
767.00	236.77
767.32	236.74
767.65	236.86
767.97	236.79
768.30	236.66
768.62	236.58
768.95	236.50
769.27	236.39
769.60	236.29
769.92	236.19
770.25	235.96
770.57	235.82
770.90	235.79
771.22	235.64
771.55	235.63
771.87	235.59
772.20	235.53
772.52	235.76
772.85	235.88
773.17	235.80
773.50	235.78
773.82	235.68
774.15	235.54
774.47	235.40
774.80	235.33
775.12	235.23
775.45	235.25
775.77	235.28
776.09	235.19
776.42	235.23
776.74	235.22
777.07	235.20
777.39	235.13
777.72	235.06
778.04	235.07
778.36	234.87
778.69	234.78
779.01	234.77
779.33	234.51
779.66	234.25
779.98	234.21
780.31	234.05
780.63	234.14
780.95	234.24
781.28	234.13
781.60	234.11
781.92	234.10
782.25	234.04
782.57	233.89
782.89	233.93
783.22	233.74
783.54	233.75
783.86	233.70
784.19	233.65
784.51	233.66
784.83	233.51
785.16	233.53
785.48	233.50
785.80	233.43
786.12	233.29
786.45	233.12
786.77	233.09
787.09	232.99
787.42	232.84
787.74	232.71
788.06	232.70
788.38	232.60
788.71	232.55
789.03	232.48
789.35	232.40
789.67	232.28
789.99	232.27
790.32	232.10
790.64	232.27
790.96	232.50
791.28	232.39
791.61	232.33
791.93	232.23
792.25	232.31
792.57	232.34
792.89	232.34
793.21	232.35
793.54	232.40
793.86	232.43
794.18	232.32
794.50	232.29
794.82	232.27
795.14	232.18
795.47	232.17
795.79	232.10
796.11	232.03
796.43	232.04
796.75	232.00
797.07	232.02
797.39	231.81
797.71	231.67
798.04	231.60
798.36	231.61
798.68	231.74
799.00	231.60
799.32	231.60
799.64	231.58
799.96	231.66
800.28	231.56
800.60	231.50
800.92	231.57
801.24	231.53
801.56	231.50
801.89	231.58
802.21	231.58
802.53	231.61
802.85	231.62
803.17	231.54
803.49	231.57
803.81	231.52
804.13	231.45
804.45	231.38
804.77	231.39
805.09	231.42
805.41	231.35
805.73	231.29
806.05	231.10
806.37	230.94
806.69	230.83
807.01	230.74
807.33	230.75
807.65	230.60
807.97	230.68
808.28	230.60
808.60	230.49
808.92	230.47
809.24	230.51
809.56	230.49
809.88	230.53
810.20	230.48
810.52	230.49
810.84	230.56
811.16	230.40
811.48	230.37
811.80	230.44
812.12	230.35
812.43	230.38
812.75	230.44
813.07	230.47
813.39	230.42
813.71	230.44
814.03	230.39
814.35	230.38
814.67	230.25
814.98	230.16
815.30	230.19
815.62	230.08
815.94	229.91
816.26	229.93
816.58	229.88
816.89	229.88
817.21	229.77
817.53	229.70
817.85	229.66
818.17	229.65
818.48	229.40
818.80	229.37
819.12	229.32
819.44	229.26
819.76	229.27
820.07	229.28
820.39	229.25
820.71	229.28
821.03	229.27
821.34	229.22
821.66	229.28
821.98	229.33
822.30	229.27
822.61	229.35
822.93	229.18
823.25	229.18
823.57	229.18
823.88	229.23
824.20	229.21
824.52	229.29
824.83	229.26
825.15	229.29
825.47	229.30
825.79	229.30
826.10	229.34
826.42	229.36
826.74	229.43
827.05	229.40
827.37	229.37
827.69	229.40
828.00	229.40
828.32	229.36
828.64	229.30
828.95	229.48
829.27	229.51
829.58	229.65
829.90	229.58
830.22	229.59
830.53	229.59
830.85	229.60
831.17	229.59
831.48	229.60
831.80	229.64
832.11	229.55
832.43	229.50
832.75	229.45
833.06	229.57
833.38	229.51
833.69	229.49
834.01	229.55
834.32	229.50
834.64	229.43
834.96	229.45
835.27	229.40
835.59	229.30
835.90	229.26
836.22	229.25
836.53	229.29
836.85	229.26
837.16	229.48
837.48	229.51
837.79	229.56
838.11	229.49
838.42	229.42
838.74	229.50
839.05	229.45
839.37	229.44
839.68	229.33
840.00	229.39
840.31	229.46
840.63	229.49
840.94	229.49
841.26	229.49
841.57	229.49
841.88	229.59
842.20	229.65
842.51	229.63
842.83	229.68
843.14	229.79
843.46	229.83
843.77	229.63
844.08	229.58
844.40	229.50
844.71	229.62
845.03	229.65
845.34	229.67
845.65	229.77
845.97	229.77
846.28	229.71
846.60	229.60
846.91	229.66
847.22	229.56
847.54	229.63
847.85	229.67
848.16	229.63
848.48	229.64
848.79	229.61
849.10	229.70
849.42	229.63
849.73	229.45
850.04	229.33
850.36	229.20
850.67	229.21
850.98	229.24
851.30	229.19
851.61	229.20
851.92	229.13
852.23	229.11
852.55	229.11
852.86	229.14
853.17	229.14
853.49	229.03
853.80	229.01
854.11	228.97
854.42	228.96
854.74	228.85
855.05	228.74
855.36	228.63
855.67	228.52
855.99	228.50
856.30	228.68
856.61	228.69
856.92	228.79
857.23	228.73
857.55	228.81
857.86	228.70
858.17	228.76
858.48	228.77
858.79	228.70
859.11	228.69
859.42	228.65
859.73	228.64
860.04	228.59
860.35	228.56
860.66	228.46
860.98	228.37
861.29	228.43
861.60	228.32
861.91	228.42
862.22	228.30
862.53	228.32
862.84	228.06
863.16	228.07
863.47	228.00
863.78	227.96
864.09	227.79
864.40	227.82
864.71	227.75
865.02	227.75
865.33	227.69
865.64	227.69
865.95	227.78
866.27	227.87
866.58	227.90
866.89	227.85
867.20	227.90
867.51	227.95
867.82	227.97
868.13	228.02
868.44	227.90
868.75	227.99
869.06	227.99
869.37	228.03
869.68	228.05
869.99	228.08
870.30	228.12
870.61	228.13
870.92	228.10
871.23	228.05
871.54	228.11
871.85	228.26
872.16	228.17
872.47	228.10
872.78	228.00
873.09	228.00
873.40	228.05
873.71	228.07
874.02	228.10
874.33	228.09
874.64	228.05
874.95	228.06
875.26	228.05
875.56	228.11
875.87	228.16
876.18	228.15
876.49	228.19
876.80	228.27
877.11	228.30
877.42	228.36
877.73	228.44
878.04	228.41
878.35	228.34
878.66	228.44
878.96	228.49
879.27	228.50
879.58	228.53
879.89	228.58
880.20	228.63
880.51	228.63
880.82	228.72
881.12	228.80
881.43	228.92
881.74	228.92
882.05	228.79
882.36	228.74
882.67	228.75
882.97	228.79
883.28	228.71
883.59	228.68
883.90	228.78
884.21	228.72
884.51	228.75
884.82	228.81
885.13	228.86
885.44	228.80
885.74	228.81
886.05	228.85
886.36	228.90
886.67	228.90
886.98	228.92
887.28	228.81
887.59	228.83
887.90	228.85
888.20	228.88
888.51	229.04
888.82	229.04
889.13	229.04
889.43	229.18
889.74	229.18
890.05	229.14
890.35	229.08
890.66	229.16
890.97	229.04
891.28	228.99
891.58	228.91
891.89	228.87
892.20	228.80
892.50	228.67
892.81	228.64
893.12	228.55
893.42	228.50
893.73	228.58
894.04	228.62
894.34	228.57
894.65	228.59
894.95	228.50
895.26	228.58
895.57	228.60
895.87	228.42
896.18	228.44
896.48	228.49
896.79	228.47
897.10	228.45
897.40	228.52
897.71	228.58
898.01	228.56
898.32	228.61
898.63	228.63
898.93	228.78
899.24	228.66
899.54	228.67
899.85	228.70
900.15	228.54
900.46	228.48
900.76	228.44
901.07	228.37
901.38	228.42
901.68	228.41
901.99	228.38
902.29	228.34
902.60	228.37
902.90	228.46
903.21	228.44
903.51	228.46
903.82	228.44
904.12	228.42
904.43	228.45
904.73	228.41
905.03	228.36
905.34	228.45
905.64	228.42
905.95	228.45
906.25	228.39
906.56	228.56
906.86	228.58
907.17	228.58
907.47	228.61
907.77	228.60
908.08	228.53
908.38	228.56
908.69	228.56
908.99	228.48
909.30	228.41
909.60	228.48
909.90	228.43
910.21	228.42
910.51	228.43
910.81	228.29
911.12	228.33
911.42	228.39
911.73	228.20
912.03	228.25
912.33	228.22
912.64	228.22
912.94	228.16
913.24	228.16
913.55	228.15
913.85	228.06
914.15	228.07
914.46	228.11
914.76	227.98
915.06	228.02
915.37	228.09
915.67	228.07
915.97	228.04
916.27	228.10
916.58	228.10
916.88	228.01
917.18	228.10
917.49	228.24
917.79	228.33
918.09	228.43
918.39	228.57
918.70	228.57
919.00	228.62
919.30	228.68
919.60	228.67
919.91	228.63
920.21	228.73
920.51	228.64
920.81	228.64
921.12	228.74
921.42	228.70
921.72	228.75
922.02	228.71
922.32	228.68
922.63	228.62
922.93	228.67
923.23	228.70
923.53	228.67
923.83	228.60
924.13	228.50
924.44	228.51
924.74	228.56
925.04	228.65
925.34	228.69
925.64	228.61
925.94	228.61
926.24	228.75
926.55	228.63
926.85	228.68
927.15	228.65
927.45	228.67
927.75	228.61
928.05	228.54
928.35	228.64
928.65	228.74
928.95	228.70
929.26	228.69
929.56	228.74
929.86	228.80
930.16	228.80
930.46	228.78
930.76	228.66
931.06	228.54
931.36	228.48
931.66	228.40
931.96	228.51
932.26	228.52
932.56	228.44
932.86	228.55
933.16	228.58
933.46	228.63
933.76	228.57
934.06	228.67
934.36	228.79
934.66	228.80
934.96	228.74
935.26	228.78
935.56	228.88
935.86	228.87
936.16	228.91
936.46	228.82
936.76	228.81
937.06	228.91
937.36	228.92
937.66	228.92
937.96	228.97
938.26	228.99
938.56	229.00
938.86	229.07
939.16	229.15
939.46	229.10
939.76	229.09
940.06	229.11
940.35	229.04
940.65	228.93
940.95	228.89
941.25	228.80
941.55	228.90
941.85	228.77
942.15	228.84
942.45	228.83
942.75	228.93
943.04	229.07
943.34	229.13
943.64	228.99
943.94	229.09
944.24	229.13
944.54	229.05
944.84	228.90
945.13	228.83
945.43	228.76
945.73	228.88
946.03	228.85
946.33	228.81
946.62	228.84
946.92	228.87
947.22	228.88
947.52	228.98
947.82	228.85
948.11	228.90
948.41	228.77
948.71	228.71
949.01	228.61
949.31	228.54
949.60	228.37
949.90	228.51
950.20	228.36
950.50	228.33
950.79	228.23
951.09	228.33
951.39	228.36
951.69	228.33
951.98	228.22
952.28	228.28
952.58	228.39
952.87	228.30
953.17	228.28
953.47	228.30
953.76	228.34
954.06	228.31
954.36	228.22
954.66	228.17
954.95	228.19
955.25	228.18
955.55	228.13
955.84	228.21
956.14	228.17
956.44	228.22
956.73	228.20
957.03	228.31
957.32	228.29
957.62	228.24
957.92	228.23
958.21	228.30
958.51	228.44
958.81	228.45
959.10	228.54
959.40	228.58
959.69	228.56
959.99	228.48
960.29	228.47
960.58	228.52
960.88	228.67
961.17	228.69
961.47	228.72
961.76	228.76
962.06	228.72
962.36	228.66
962.65	228.76
962.95	228.70
963.24	228.63
963.54	228.63
963.83	228.54
964.13	228.56
964.42	228.49
964.72	228.37
965.01	228.32
965.31	228.29
965.60	228.20
965.90	228.32
966.19	228.25
966.49	228.35
966.78	228.25
967.08	228.21
967.37	228.17
967.67	228.11
967.96	228.10
968.26	228.15
968.55	228.25
968.85	228.16
969.14	228.15
969.43	228.10
969.73	228.08
970.02	228.10
970.32	228.06
970.61	228.09
970.91	228.06
971.20	228.09
971.49	227.97
971.79	228.04
972.08	227.94
972.38	228.01
972.67	227.93
972.96	228.00
973.26	228.00
973.55	228.05
973.85	228.15
974.14	228.12
974.43	228.10
974.73	228.03
975.02	228.00
975.31	228.14
975.61	228.21
975.90	228.17
976.19	228.32
976.49	228.25
976.78	228.28
977.07	228.36
977.37	228.22
977.66	228.33
977.95	228.25
978.24	228.24
978.54	228.22
978.83	228.24
979.12	228.27
979.42	228.15
979.71	228.20
980.00	228.15
980.29	228.21
980.59	228.21
980.88	228.32
981.17	228.38
981.46	228.24
981.76	228.16
982.05	228.25
982.34	228.25
982.63	228.40
982.93	228.33
983.22	228.21
983.51	228.32
983.80	228.35
984.09	228.36
984.39	228.34
984.68	228.39
984.97	228.36
985.26	228.34
985.55	228.45
985.85	228.36
986.14	228.38
986.43	228.35
986.72	228.33
987.01	228.30
987.30	228.27
987.59	228.31
987.89	228.37
988.18	228.40
988.47	228.38
988.76	228.34
989.05	228.35
989.34	228.40
989.63	228.46
989.92	228.41
990.22	228.54
990.51	228.54
990.80	228.50
991.09	228.54
991.38	228.60
991.67	228.60
991.96	228.64
992.25	228.68
992.54	228.67
992.83	228.65
993.12	228.60
993.41	228.67
993.70	228.78
993.99	228.85
994.28	228.86
994.58	228.83
994.87	228.86
995.16	228.90
995.45	228.94
995.74	228.95
996.03	228.98
996.32	228.96
996.61	229.00
996.90	229.03
997.19	229.00
997.48	229.05
997.77	229.03
998.06	228.92
998.34	228.90
998.63	228.84
998.92	228.94
999.21	229.00
999.50	228.95
999.79	228.89
1000.08	228.89
1000.37	228.81
1000.66	228.82
1000.95	228.81
1001.24	228.78
1001.53	228.65
1001.82	228.55
1002.11	228.58
1002.40	228.54
1002.68	228.54
1002.97	228.78
1003.26	228.84
1003.55	228.70
1003.84	228.63
1004.13	228.85
1004.42	228.79
1004.71	228.81
1004.99	228.70
1005.28	228.68
1005.57	228.60
1005.86	228.55
1006.15	228.44
1006.44	228.38
1006.72	228.29
1007.01	228.27
1007.30	228.29
1007.59	228.41
1007.88	228.40
1008.17	228.32
1008.45	228.23
1008.74	228.15
1009.03	227.99
1009.32	228.01
1009.60	228.01
1009.89	228.06
1010.18	227.92
1010.47	227.90
1010.76	227.91
1011.04	228.00
1011.33	227.97
1011.62	227.91
1011.91	227.86
1012.19	227.89
1012.48	227.90
1012.77	228.01
1013.05	228.09
1013.34	228.00
1013.63	227.90
1013.92	227.92
1014.20	227.92
1014.49	227.97
1014.78	228.03
1015.06	227.94
1015.35	227.94
1015.64	227.98
1015.92	228.02
1016.21	227.97
1016.50	228.04
1016.78	228.05
1017.07	227.95
1017.36	227.93
1017.64	228.07
1017.93	228.23
1018.22	228.18
1018.50	228.22
1018.79	228.17
1019.08	228.03
1019.36	228.05
1019.65	228.01
1019.93	228.05
1020.22	228.08
1020.51	228.18
1020.79	228.16
1021.08	227.10
1021.36	227.20
1021.65	228.70
1021.94	227.00
1022.22	226.70
1022.51	227.40
1022.79	228.80
1023.08	227.70
1023.36	230.30
1023.65	228.30
>>>>>End Processed Spectral Data<<<<<
