SpectraSuite Data File
++++++++++++++++++++++++++++++++++++
Date: Fri Feb 01 14:34:56 EST 2013
User: group
Dark Spectrum Present: No
Reference Spectrum Present: No
Number of Sampled Component Spectra: 1
Spectrometers: USB2E7196
Integration Time (usec): 70000 (USB2E7196)
Spectra Averaged: 10 (USB2E7196)
Boxcar Smoothing: 10 (USB2E7196)
Correct for Electrical Dark: No (USB2E7196)
Strobe/Lamp Enabled: No (USB2E7196)
Correct for Detector Non-linearity: No (USB2E7196)
Correct for Stray Light: No (USB2E7196)
Number of Pixels in Processed Spectrum: 2048
>>>>>Begin Processed Spectral Data<<<<<
339.09	0.00
339.48	217.30
339.86	219.00
340.24	219.50
340.63	221.00
341.01	223.40
341.39	224.80
341.78	225.80
342.16	226.20
342.54	228.40
342.93	215.04
343.31	225.80
343.69	226.24
344.07	226.67
344.46	227.12
344.84	227.44
345.22	227.72
345.60	227.92
345.99	228.03
346.37	228.13
346.75	228.18
347.13	228.25
347.52	228.27
347.90	228.35
348.28	228.30
348.66	228.42
349.05	228.54
349.43	228.49
349.81	228.58
350.19	228.63
350.57	228.75
350.96	228.78
351.34	228.86
351.72	228.96
352.10	228.99
352.48	229.00
352.87	229.05
353.25	229.09
353.63	229.01
354.01	229.02
354.39	229.10
354.77	229.12
355.15	229.18
355.54	229.21
355.92	229.18
356.30	229.24
356.68	229.37
357.06	229.37
357.44	229.42
357.82	229.39
358.20	229.44
358.58	229.42
358.97	229.49
359.35	229.68
359.73	229.78
360.11	229.87
360.49	229.85
360.87	229.93
361.25	230.00
361.63	230.19
362.01	230.33
362.39	230.27
362.77	230.30
363.15	230.30
363.53	230.26
363.91	230.29
364.29	230.24
364.67	229.92
365.05	229.90
365.43	229.89
365.81	229.96
366.19	230.02
366.57	230.16
366.95	230.16
367.33	230.04
367.71	230.01
368.09	230.01
368.47	230.10
368.85	230.11
369.23	230.10
369.61	230.01
369.99	229.91
370.37	229.92
370.75	229.93
371.13	229.83
371.51	229.78
371.89	229.76
372.27	229.81
372.65	229.86
373.03	229.90
373.41	229.86
373.78	229.85
374.16	229.67
374.54	229.56
374.92	229.47
375.30	229.43
375.68	229.27
376.06	229.16
376.44	228.99
376.82	228.81
377.19	228.69
377.57	228.69
377.95	228.60
378.33	228.54
378.71	228.37
379.09	228.29
379.47	228.28
379.84	228.10
380.22	227.90
380.60	227.92
380.98	227.79
381.36	227.77
381.73	227.60
382.11	227.60
382.49	227.60
382.87	227.56
383.25	227.58
383.62	227.71
384.00	227.69
384.38	227.67
384.76	227.67
385.13	227.71
385.51	227.60
385.89	227.59
386.27	227.58
386.64	227.60
387.02	227.61
387.40	227.62
387.78	227.61
388.15	227.69
388.53	227.59
388.91	227.57
389.29	227.55
389.66	227.60
390.04	227.62
390.42	227.59
390.79	227.65
391.17	227.50
391.55	227.32
391.92	227.39
392.30	227.41
392.68	227.42
393.05	227.42
393.43	227.41
393.81	227.41
394.18	227.36
394.56	227.41
394.94	227.49
395.31	227.51
395.69	227.63
396.06	227.68
396.44	227.74
396.82	227.82
397.19	227.94
397.57	227.98
397.95	228.12
398.32	228.19
398.70	228.25
399.07	228.53
399.45	228.76
399.82	228.78
400.20	228.91
400.58	229.05
400.95	229.17
401.33	229.43
401.70	229.76
402.08	230.07
402.45	230.32
402.83	230.53
403.20	230.79
403.58	230.96
403.95	231.18
404.33	231.50
404.71	231.83
405.08	232.20
405.46	232.54
405.83	232.82
406.21	233.16
406.58	233.58
406.96	233.93
407.33	234.27
407.70	234.73
408.08	235.36
408.45	235.94
408.83	236.46
409.20	236.91
409.58	237.32
409.95	237.93
410.33	238.53
410.70	239.20
411.08	239.90
411.45	240.80
411.82	241.67
412.20	242.50
412.57	243.58
412.95	244.41
413.32	245.51
413.69	246.62
414.07	247.86
414.44	249.04
414.82	250.38
415.19	252.01
415.56	253.55
415.94	255.05
416.31	256.83
416.68	258.60
417.06	260.68
417.43	262.73
417.81	264.99
418.18	267.37
418.55	269.83
418.93	272.45
419.30	275.17
419.67	278.01
420.04	280.92
420.42	283.94
420.79	287.50
421.16	290.94
421.54	294.51
421.91	298.18
422.28	302.00
422.66	306.09
423.03	309.98
423.40	314.09
423.77	318.50
424.15	323.00
424.52	327.60
424.89	332.75
425.26	337.61
425.64	342.24
426.01	347.21
426.38	352.47
426.75	357.82
427.13	363.47
427.50	369.20
427.87	375.35
428.24	381.36
428.61	387.20
428.99	393.60
429.36	400.49
429.73	407.33
430.10	414.19
430.47	421.06
430.85	428.30
431.22	435.90
431.59	443.98
431.96	451.68
432.33	460.37
432.70	468.63
433.08	478.29
433.45	487.41
433.82	496.41
434.19	506.59
434.56	516.42
434.93	525.69
435.30	534.90
435.68	545.04
436.05	555.26
436.42	565.37
436.79	574.60
437.16	584.58
437.53	595.11
437.90	605.57
438.27	615.77
438.64	626.41
439.01	636.36
439.38	644.89
439.75	653.21
440.13	662.57
440.50	671.91
440.87	679.70
441.24	687.64
441.61	696.56
441.98	703.03
442.35	710.99
442.72	718.87
443.09	726.62
443.46	731.87
443.83	735.51
444.20	738.74
444.57	743.30
444.94	745.79
445.31	748.44
445.68	751.15
446.05	753.09
446.42	753.24
446.79	753.20
447.16	753.37
447.53	753.92
447.90	751.47
448.27	748.71
448.64	744.37
449.01	741.69
449.37	735.85
449.74	730.46
450.11	723.36
450.48	715.93
450.85	708.35
451.22	701.74
451.59	695.40
451.96	689.52
452.33	681.02
452.70	673.69
453.07	664.35
453.43	654.85
453.80	645.84
454.17	636.91
454.54	628.59
454.91	619.50
455.28	610.49
455.65	602.34
456.02	593.75
456.38	586.59
456.75	577.42
457.12	569.91
457.49	562.11
457.86	554.94
458.23	548.44
458.59	541.37
458.96	534.26
459.33	527.99
459.70	521.55
460.07	516.64
460.43	510.76
460.80	505.14
461.17	500.20
461.54	494.82
461.91	489.93
462.27	484.88
462.64	480.43
463.01	475.79
463.38	471.20
463.74	466.66
464.11	462.65
464.48	459.13
464.85	455.35
465.21	452.46
465.58	449.06
465.95	445.15
466.32	441.98
466.68	438.70
467.05	435.45
467.42	432.15
467.78	428.70
468.15	425.45
468.52	423.15
468.88	420.04
469.25	417.32
469.62	415.10
469.98	412.72
470.35	410.50
470.72	408.43
471.08	406.15
471.45	404.22
471.82	402.16
472.18	399.96
472.55	398.38
472.92	396.44
473.28	394.76
473.65	393.13
474.02	391.32
474.38	389.80
474.75	388.60
475.11	387.43
475.48	386.37
475.85	385.39
476.21	384.39
476.58	383.51
476.94	382.82
477.31	382.01
477.67	381.12
478.04	380.60
478.41	379.92
478.77	379.52
479.14	378.94
479.50	378.52
479.87	378.35
480.23	378.03
480.60	377.89
480.96	377.83
481.33	378.03
481.69	378.42
482.06	378.55
482.42	378.56
482.79	378.50
483.15	378.89
483.52	379.54
483.88	380.01
484.25	380.48
484.61	381.06
484.98	381.70
485.34	382.63
485.71	383.42
486.07	384.42
486.44	385.26
486.80	386.43
487.17	387.60
487.53	388.95
487.90	390.40
488.26	391.81
488.62	393.31
488.99	394.80
489.35	396.32
489.72	398.17
490.08	400.07
490.44	402.06
490.81	404.08
491.17	405.90
491.54	408.07
491.90	410.48
492.26	412.79
492.63	415.05
492.99	417.41
493.36	420.08
493.72	422.61
494.08	425.31
494.45	428.08
494.81	430.81
495.17	433.73
495.54	436.68
495.90	439.98
496.26	443.04
496.63	446.25
496.99	449.51
497.35	452.79
497.72	456.20
498.08	459.69
498.44	463.02
498.80	466.70
499.17	470.29
499.53	473.64
499.89	477.08
500.26	480.63
500.62	484.09
500.98	487.76
501.34	491.56
501.71	495.24
502.07	498.86
502.43	502.70
502.79	506.36
503.16	509.96
503.52	513.38
503.88	516.79
504.24	520.43
504.60	524.04
504.97	527.75
505.33	531.26
505.69	535.19
506.05	538.83
506.41	542.21
506.78	545.67
507.14	549.27
507.50	553.10
507.86	556.85
508.22	560.44
508.59	563.70
508.95	567.13
509.31	570.52
509.67	573.93
510.03	577.15
510.39	580.51
510.75	583.80
511.12	586.98
511.48	590.19
511.84	593.11
512.20	596.10
512.56	599.04
512.92	602.01
513.28	604.65
513.64	607.33
514.00	610.04
514.37	612.78
514.73	615.30
515.09	617.34
515.45	619.61
515.81	622.08
516.17	624.66
516.53	626.69
516.89	628.77
517.25	630.84
517.61	633.03
517.97	634.83
518.33	636.69
518.69	638.37
519.05	640.38
519.41	642.36
519.77	644.16
520.13	645.78
520.49	647.36
520.85	648.84
521.21	650.57
521.57	652.37
521.93	653.66
522.29	655.30
522.65	657.08
523.01	658.66
523.37	659.88
523.73	661.08
524.09	662.55
524.45	663.97
524.81	665.48
525.17	667.02
525.53	668.52
525.89	669.90
526.25	671.73
526.61	672.91
526.97	674.34
527.33	675.96
527.68	677.85
528.04	679.35
528.40	681.03
528.76	682.70
529.12	684.41
529.48	686.47
529.84	688.03
530.20	689.71
530.56	691.73
530.91	693.92
531.27	695.72
531.63	697.64
531.99	699.64
532.35	701.49
532.71	703.09
533.07	705.13
533.42	707.39
533.78	709.33
534.14	711.65
534.50	713.63
534.86	715.61
535.21	717.33
535.57	719.85
535.93	722.22
536.29	724.81
536.65	726.92
537.00	728.84
537.36	731.21
537.72	733.71
538.08	735.90
538.44	738.14
538.79	740.61
539.15	743.06
539.51	745.58
539.87	748.52
540.22	751.57
540.58	754.52
540.94	757.04
541.29	759.60
541.65	762.30
542.01	765.06
542.37	767.91
542.72	770.71
543.08	773.04
543.44	775.75
543.79	777.87
544.15	780.69
544.51	784.04
544.87	787.01
545.22	789.81
545.58	792.57
545.94	795.44
546.29	798.28
546.65	801.05
547.01	803.98
547.36	806.25
547.72	808.70
548.07	811.11
548.43	813.94
548.79	816.67
549.14	819.26
549.50	821.98
549.86	824.34
550.21	827.06
550.57	830.20
550.92	832.87
551.28	835.90
551.64	838.58
551.99	841.43
552.35	844.26
552.70	847.22
553.06	850.15
553.41	853.00
553.77	855.61
554.13	858.62
554.48	861.65
554.84	864.72
555.19	867.82
555.55	870.92
555.90	873.48
556.26	876.63
556.61	879.78
556.97	882.77
557.32	885.86
557.68	888.86
558.03	891.65
558.39	894.73
558.74	897.45
559.10	900.34
559.45	902.92
559.81	905.75
560.16	908.39
560.52	911.10
560.87	913.81
561.23	916.82
561.58	919.49
561.94	921.83
562.29	924.27
562.64	926.53
563.00	929.04
563.35	932.06
563.71	934.96
564.06	937.42
564.42	939.89
564.77	942.63
565.12	945.15
565.48	947.55
565.83	949.41
566.19	951.98
566.54	954.21
566.89	956.34
567.25	958.57
567.60	960.75
567.96	962.91
568.31	965.00
568.66	966.89
569.02	968.75
569.37	970.54
569.72	972.26
570.08	974.28
570.43	975.94
570.78	977.16
571.14	978.30
571.49	979.75
571.84	981.29
572.20	982.45
572.55	983.53
572.90	984.48
573.26	985.97
573.61	986.95
573.96	987.90
574.31	988.40
574.67	988.85
575.02	989.23
575.37	989.59
575.72	989.40
576.08	989.99
576.43	990.01
576.78	990.36
577.13	991.22
577.49	991.25
577.84	991.30
578.19	991.70
578.54	991.71
578.90	991.52
579.25	991.03
579.60	990.63
579.95	990.27
580.30	989.79
580.66	989.31
581.01	988.78
581.36	988.34
581.71	988.18
582.06	987.74
582.42	987.00
582.77	986.35
583.12	985.91
583.47	985.28
583.82	984.68
584.17	983.88
584.53	982.64
584.88	982.00
585.23	981.20
585.58	980.23
585.93	979.21
586.28	978.45
586.63	977.83
586.98	977.01
587.34	976.10
587.69	975.13
588.04	974.00
588.39	972.72
588.74	971.19
589.09	969.64
589.44	968.33
589.79	967.26
590.14	966.10
590.49	964.94
590.84	963.41
591.19	962.57
591.54	960.83
591.89	958.81
592.25	957.20
592.60	955.04
592.95	953.13
593.30	950.87
593.65	948.86
594.00	946.76
594.35	945.30
594.70	943.23
595.05	941.54
595.40	939.33
595.75	937.10
596.10	935.20
596.45	933.37
596.80	931.49
597.15	929.27
597.50	926.99
597.85	924.91
598.19	922.95
598.54	920.58
598.89	918.80
599.24	917.27
599.59	914.99
599.94	913.07
600.29	910.95
600.64	908.92
600.99	906.32
601.34	904.09
601.69	901.06
602.04	898.80
602.39	896.16
602.74	894.04
603.08	892.31
603.43	890.11
603.78	887.80
604.13	885.34
604.48	883.31
604.83	881.00
605.18	878.72
605.53	876.05
605.87	873.04
606.22	870.43
606.57	867.50
606.92	864.95
607.27	862.50
607.62	859.99
607.96	857.91
608.31	855.75
608.66	853.08
609.01	850.56
609.36	847.59
609.70	844.62
610.05	841.44
610.40	838.37
610.75	835.44
611.10	832.48
611.44	829.23
611.79	826.16
612.14	823.00
612.49	819.64
612.83	816.17
613.18	813.32
613.53	810.34
613.88	806.95
614.22	803.70
614.57	800.25
614.92	796.96
615.27	793.48
615.61	790.11
615.96	786.85
616.31	783.84
616.65	781.03
617.00	778.32
617.35	775.52
617.70	772.06
618.04	768.94
618.39	765.81
618.74	762.65
619.08	759.22
619.43	756.27
619.78	753.48
620.12	750.72
620.47	747.93
620.82	744.67
621.16	742.08
621.51	739.15
621.85	736.27
622.20	733.03
622.55	730.08
622.89	727.40
623.24	724.73
623.59	721.84
623.93	719.10
624.28	715.92
624.62	712.84
624.97	710.34
625.32	707.69
625.66	705.02
626.01	702.37
626.35	699.65
626.70	696.83
627.04	694.10
627.39	691.10
627.73	688.23
628.08	685.57
628.43	682.70
628.77	679.78
629.12	676.90
629.46	674.27
629.81	671.33
630.15	668.05
630.50	664.97
630.84	661.82
631.19	658.45
631.53	655.63
631.88	652.78
632.22	649.51
632.57	646.54
632.91	643.42
633.26	640.55
633.60	637.73
633.95	634.84
634.29	631.94
634.64	629.51
634.98	626.41
635.32	623.63
635.67	621.04
636.01	618.58
636.36	615.82
636.70	613.22
637.05	610.63
637.39	608.08
637.73	605.47
638.08	603.30
638.42	601.08
638.77	598.73
639.11	596.00
639.45	593.64
639.80	590.95
640.14	588.49
640.49	585.96
640.83	583.38
641.17	580.90
641.52	578.32
641.86	575.56
642.20	573.31
642.55	570.74
642.89	568.08
643.23	565.42
643.58	563.15
643.92	560.51
644.26	557.99
644.61	555.69
644.95	553.30
645.29	550.43
645.64	547.75
645.98	545.18
646.32	542.96
646.66	540.45
647.01	537.86
647.35	535.40
647.69	533.00
648.04	530.73
648.38	528.10
648.72	525.50
649.06	522.88
649.41	520.22
649.75	517.63
650.09	515.04
650.43	512.59
650.78	510.10
651.12	507.64
651.46	505.29
651.80	502.90
652.14	500.57
652.49	498.36
652.83	496.20
653.17	493.87
653.51	491.51
653.85	489.20
654.20	486.93
654.54	484.45
654.88	481.81
655.22	479.21
655.56	476.87
655.90	474.73
656.25	472.64
656.59	470.49
656.93	468.36
657.27	466.26
657.61	463.75
657.95	461.83
658.29	459.77
658.64	457.57
658.98	455.31
659.32	452.97
659.66	450.69
660.00	448.46
660.34	446.36
660.68	444.19
661.02	442.21
661.36	440.30
661.70	438.36
662.05	436.65
662.39	434.87
662.73	433.10
663.07	431.26
663.41	429.61
663.75	427.63
664.09	425.75
664.43	423.92
664.77	422.36
665.11	420.49
665.45	418.78
665.79	417.08
666.13	415.41
666.47	413.73
666.81	412.14
667.15	410.33
667.49	408.56
667.83	407.05
668.17	405.23
668.51	403.43
668.85	401.80
669.19	400.27
669.53	398.69
669.87	397.06
670.21	395.44
670.55	393.73
670.89	392.37
671.23	390.86
671.57	389.39
671.91	387.96
672.25	386.29
672.58	384.88
672.92	383.34
673.26	382.09
673.60	380.74
673.94	379.23
674.28	378.11
674.62	376.92
674.96	375.51
675.30	374.41
675.64	373.39
675.97	372.08
676.31	370.80
676.65	369.60
676.99	368.49
677.33	367.10
677.67	365.69
678.01	364.36
678.34	363.13
678.68	361.90
679.02	360.48
679.36	359.32
679.70	358.00
680.04	356.87
680.37	355.51
680.71	354.34
681.05	353.26
681.39	351.90
681.73	350.73
682.06	349.62
682.40	348.36
682.74	347.14
683.08	346.06
683.42	344.91
683.75	343.82
684.09	342.70
684.43	341.73
684.77	340.69
685.10	339.43
685.44	338.31
685.78	337.23
686.12	336.25
686.45	335.15
686.79	334.06
687.13	333.09
687.46	332.05
687.80	331.06
688.14	329.99
688.48	329.13
688.81	328.03
689.15	327.10
689.49	326.12
689.82	325.05
690.16	324.13
690.50	323.09
690.83	321.97
691.17	320.81
691.51	319.83
691.84	319.03
692.18	318.18
692.52	317.18
692.85	316.22
693.19	315.43
693.52	314.46
693.86	313.57
694.20	312.51
694.53	311.58
694.87	310.64
695.21	309.72
695.54	308.71
695.88	307.83
696.21	306.73
696.55	305.90
696.88	305.03
697.22	303.98
697.56	303.15
697.89	302.35
698.23	301.55
698.56	300.78
698.90	299.95
699.23	299.15
699.57	298.43
699.90	297.57
700.24	296.71
700.58	295.99
700.91	295.20
701.25	294.58
701.58	294.00
701.92	293.25
702.25	292.66
702.59	291.94
702.92	291.09
703.26	290.50
703.59	289.73
703.93	289.24
704.26	288.80
704.60	288.20
704.93	287.46
705.26	286.86
705.60	286.23
705.93	285.52
706.27	284.99
706.60	284.43
706.94	283.99
707.27	283.32
707.61	282.77
707.94	282.23
708.27	281.55
708.61	280.88
708.94	280.28
709.28	279.66
709.61	279.15
709.94	278.81
710.28	278.27
710.61	277.89
710.95	277.16
711.28	276.71
711.61	276.08
711.95	275.81
712.28	275.39
712.61	274.84
712.95	274.41
713.28	273.96
713.61	273.45
713.95	273.02
714.28	272.68
714.61	272.17
714.95	271.71
715.28	271.29
715.61	270.79
715.95	270.35
716.28	269.88
716.61	269.53
716.95	269.05
717.28	268.68
717.61	268.19
717.94	267.84
718.28	267.15
718.61	266.96
718.94	266.52
719.27	266.06
719.61	265.71
719.94	265.29
720.27	264.80
720.60	264.48
720.94	264.07
721.27	263.75
721.60	263.51
721.93	263.23
722.27	262.97
722.60	262.67
722.93	262.42
723.26	262.15
723.59	261.78
723.93	261.44
724.26	261.20
724.59	260.93
724.92	260.56
725.25	260.47
725.59	260.03
725.92	259.69
726.25	259.40
726.58	259.14
726.91	258.89
727.24	258.70
727.57	258.46
727.91	258.16
728.24	257.78
728.57	257.44
728.90	257.20
729.23	256.89
729.56	256.80
729.89	256.45
730.22	256.16
730.55	255.89
730.89	255.77
731.22	255.45
731.55	255.15
731.88	254.95
732.21	254.58
732.54	254.31
732.87	253.96
733.20	253.73
733.53	253.42
733.86	253.23
734.19	253.00
734.52	252.67
734.85	252.50
735.18	252.32
735.51	252.15
735.84	251.90
736.17	251.66
736.50	251.28
736.83	251.22
737.16	251.08
737.49	250.82
737.82	250.42
738.15	250.12
738.48	249.84
738.81	249.64
739.14	249.44
739.47	249.22
739.80	248.98
740.13	248.73
740.46	248.52
740.79	248.28
741.12	247.99
741.45	247.85
741.78	247.52
742.11	247.33
742.44	246.97
742.77	246.75
743.10	246.42
743.43	246.15
743.75	245.79
744.08	245.69
744.41	245.40
744.74	245.23
745.07	245.15
745.40	245.05
745.73	244.89
746.06	244.68
746.39	244.60
746.71	244.40
747.04	244.22
747.37	244.05
747.70	243.92
748.03	243.79
748.36	243.61
748.68	243.44
749.01	243.20
749.34	243.10
749.67	242.93
750.00	242.82
750.33	242.84
750.65	242.71
750.98	242.44
751.31	242.44
751.64	242.30
751.97	242.12
752.29	241.94
752.62	241.80
752.95	241.70
753.28	241.53
753.60	241.39
753.93	241.29
754.26	241.08
754.59	240.84
754.91	240.70
755.24	240.52
755.57	240.48
755.90	240.37
756.22	240.22
756.55	240.14
756.88	240.04
757.20	239.76
757.53	239.57
757.86	239.37
758.19	239.23
758.51	239.20
758.84	239.04
759.17	238.95
759.49	238.82
759.82	238.77
760.15	238.57
760.47	238.58
760.80	238.54
761.13	238.50
761.45	238.52
761.78	238.30
762.11	238.32
762.43	238.04
762.76	238.00
763.08	237.89
763.41	237.71
763.74	237.71
764.06	237.66
764.39	237.67
764.71	237.60
765.04	237.53
765.37	237.41
765.69	237.35
766.02	237.23
766.34	237.06
766.67	236.89
767.00	237.01
767.32	237.07
767.65	236.97
767.97	236.96
768.30	236.76
768.62	236.66
768.95	236.50
769.27	236.50
769.60	236.41
769.92	236.37
770.25	236.36
770.57	236.21
770.90	236.20
771.22	236.03
771.55	235.91
771.87	235.87
772.20	235.82
772.52	235.93
772.85	236.11
773.17	236.09
773.50	236.06
773.82	235.79
774.15	235.65
774.47	235.43
774.80	235.33
775.12	235.27
775.45	235.30
775.77	235.35
776.09	235.23
776.42	235.18
776.74	235.23
777.07	235.12
777.39	235.10
777.72	234.99
778.04	234.95
778.36	234.86
778.69	234.72
779.01	234.69
779.33	234.35
779.66	233.99
779.98	233.91
780.31	233.78
780.63	233.90
780.95	233.83
781.28	233.80
781.60	233.80
781.92	233.72
782.25	233.67
782.57	233.54
782.89	233.61
783.22	233.47
783.54	233.23
783.86	233.10
784.19	233.03
784.51	232.99
784.83	232.94
785.16	232.86
785.48	232.79
785.80	232.75
786.12	232.79
786.45	232.73
786.77	232.66
787.09	232.54
787.42	232.37
787.74	232.23
788.06	232.19
788.38	231.99
788.71	231.90
789.03	231.92
789.35	231.75
789.67	231.68
789.99	231.59
790.32	231.62
790.64	231.68
790.96	231.76
791.28	231.63
791.61	231.46
791.93	231.47
792.25	231.46
792.57	231.52
792.89	231.53
793.21	231.56
793.54	231.60
793.86	231.78
794.18	231.80
794.50	231.78
794.82	231.73
795.14	231.80
795.47	231.81
795.79	231.71
796.11	231.78
796.43	231.64
796.75	231.66
797.07	231.60
797.39	231.58
797.71	231.43
798.04	231.39
798.36	231.42
798.68	231.49
799.00	231.47
799.32	231.30
799.64	231.28
799.96	231.25
800.28	231.20
800.60	231.05
800.92	231.06
801.24	230.95
801.56	231.02
801.89	230.93
802.21	230.95
802.53	230.91
802.85	230.86
803.17	230.90
803.49	230.86
803.81	230.91
804.13	230.86
804.45	230.90
804.77	230.98
805.09	231.00
805.41	230.92
805.73	230.90
806.05	230.86
806.37	230.77
806.69	230.68
807.01	230.70
807.33	230.63
807.65	230.54
807.97	230.71
808.28	230.63
808.60	230.57
808.92	230.57
809.24	230.66
809.56	230.60
809.88	230.60
810.20	230.66
810.52	230.54
810.84	230.41
811.16	230.34
811.48	230.31
811.80	230.36
812.12	230.30
812.43	230.33
812.75	230.33
813.07	230.31
813.39	230.35
813.71	230.25
814.03	230.28
814.35	230.27
814.67	230.28
814.98	230.12
815.30	230.09
815.62	229.98
815.94	229.81
816.26	229.90
816.58	229.89
816.89	229.93
817.21	229.90
817.53	229.96
817.85	229.89
818.17	229.88
818.48	229.80
818.80	229.86
819.12	229.66
819.44	229.53
819.76	229.47
820.07	229.50
820.39	229.55
820.71	229.52
821.03	229.50
821.34	229.37
821.66	229.54
821.98	229.51
822.30	229.49
822.61	229.60
822.93	229.52
823.25	229.48
823.57	229.34
823.88	229.38
824.20	229.34
824.52	229.32
824.83	229.18
825.15	229.16
825.47	229.06
825.79	229.16
826.10	229.19
826.42	229.24
826.74	229.07
827.05	228.97
827.37	229.09
827.69	229.00
828.00	228.95
828.32	228.87
828.64	228.96
828.95	229.04
829.27	228.99
829.58	228.87
829.90	228.83
830.22	228.80
830.53	228.87
830.85	228.88
831.17	228.86
831.48	228.86
831.80	228.83
832.11	228.82
832.43	228.82
832.75	228.80
833.06	228.79
833.38	228.86
833.69	228.92
834.01	228.78
834.32	228.74
834.64	228.65
834.96	228.66
835.27	228.59
835.59	228.52
835.90	228.47
836.22	228.47
836.53	228.43
836.85	228.54
837.16	228.58
837.48	228.56
837.79	228.54
838.11	228.63
838.42	228.54
838.74	228.60
839.05	228.58
839.37	228.58
839.68	228.47
840.00	228.46
840.31	228.45
840.63	228.42
840.94	228.48
841.26	228.54
841.57	228.53
841.88	228.61
842.20	228.62
842.51	228.58
842.83	228.70
843.14	228.92
843.46	228.97
843.77	228.95
844.08	228.97
844.40	228.92
844.71	228.92
845.03	229.08
845.34	228.99
845.65	229.03
845.97	229.02
846.28	229.07
846.60	229.17
846.91	229.16
847.22	229.26
847.54	229.38
847.85	229.34
848.16	229.31
848.48	229.28
848.79	229.29
849.10	229.33
849.42	229.18
849.73	229.00
850.04	228.89
850.36	228.79
850.67	228.81
850.98	228.94
851.30	228.87
851.61	228.77
851.92	228.75
852.23	228.82
852.55	228.83
852.86	228.90
853.17	228.84
853.49	228.83
853.80	228.72
854.11	228.70
854.42	228.68
854.74	228.65
855.05	228.52
855.36	228.50
855.67	228.52
855.99	228.66
856.30	228.82
856.61	228.83
856.92	228.85
857.23	228.78
857.55	228.73
857.86	228.76
858.17	228.70
858.48	228.79
858.79	228.57
859.11	228.61
859.42	228.57
859.73	228.53
860.04	228.61
860.35	228.67
860.66	228.49
860.98	228.55
861.29	228.61
861.60	228.62
861.91	228.65
862.22	228.58
862.53	228.43
862.84	228.18
863.16	228.12
863.47	228.01
863.78	228.00
864.09	227.92
864.40	227.90
864.71	227.93
865.02	227.92
865.33	227.99
865.64	227.92
865.95	227.91
866.27	228.03
866.58	227.91
866.89	227.91
867.20	227.95
867.51	227.89
867.82	227.87
868.13	227.94
868.44	227.92
868.75	228.00
869.06	228.10
869.37	228.13
869.68	228.18
869.99	228.25
870.30	228.27
870.61	228.41
870.92	228.41
871.23	228.42
871.54	228.45
871.85	228.43
872.16	228.48
872.47	228.47
872.78	228.37
873.09	228.42
873.40	228.38
873.71	228.38
874.02	228.36
874.33	228.38
874.64	228.41
874.95	228.37
875.26	228.28
875.56	228.26
875.87	228.31
876.18	228.23
876.49	228.48
876.80	228.47
877.11	228.34
877.42	228.36
877.73	228.44
878.04	228.47
878.35	228.49
878.66	228.47
878.96	228.40
879.27	228.36
879.58	228.37
879.89	228.36
880.20	228.45
880.51	228.51
880.82	228.54
881.12	228.50
881.43	228.45
881.74	228.41
882.05	228.47
882.36	228.51
882.67	228.60
882.97	228.32
883.28	228.42
883.59	228.41
883.90	228.46
884.21	228.44
884.51	228.37
884.82	228.39
885.13	228.34
885.44	228.40
885.74	228.46
886.05	228.40
886.36	228.39
886.67	228.34
886.98	228.43
887.28	228.39
887.59	228.41
887.90	228.56
888.20	228.61
888.51	228.59
888.82	228.48
889.13	228.42
889.43	228.57
889.74	228.44
890.05	228.53
890.35	228.50
890.66	228.48
890.97	228.46
891.28	228.47
891.58	228.45
891.89	228.38
892.20	228.33
892.50	228.35
892.81	228.25
893.12	228.18
893.42	228.04
893.73	228.00
894.04	227.99
894.34	227.92
894.65	227.95
894.95	227.99
895.26	228.00
895.57	228.03
895.87	227.93
896.18	227.91
896.48	227.86
896.79	227.83
897.10	227.81
897.40	227.80
897.71	227.86
898.01	227.86
898.32	227.91
898.63	227.83
898.93	227.83
899.24	227.95
899.54	227.97
899.85	228.00
900.15	228.03
900.46	227.98
900.76	227.91
901.07	227.89
901.38	227.82
901.68	227.90
901.99	227.90
902.29	227.84
902.60	227.92
902.90	227.95
903.21	228.00
903.51	228.03
903.82	228.10
904.12	228.09
904.43	228.05
904.73	228.20
905.03	228.24
905.34	228.40
905.64	228.49
905.95	228.60
906.25	228.62
906.56	228.70
906.86	228.76
907.17	228.77
907.47	228.67
907.77	228.64
908.08	228.64
908.38	228.62
908.69	228.70
908.99	228.73
909.30	228.74
909.60	228.73
909.90	228.67
910.21	228.65
910.51	228.54
910.81	228.64
911.12	228.53
911.42	228.53
911.73	228.31
912.03	228.23
912.33	228.23
912.64	228.22
912.94	228.19
913.24	228.20
913.55	228.30
913.85	228.36
914.15	228.54
914.46	228.47
914.76	228.46
915.06	228.40
915.37	228.39
915.67	228.40
915.97	228.25
916.27	228.30
916.58	228.26
916.88	228.39
917.18	228.35
917.49	228.48
917.79	228.52
918.09	228.60
918.39	228.69
918.70	228.61
919.00	228.57
919.30	228.58
919.60	228.45
919.91	228.40
920.21	228.40
920.51	228.30
920.81	228.31
921.12	228.40
921.42	228.43
921.72	228.44
922.02	228.35
922.32	228.55
922.63	228.54
922.93	228.62
923.23	228.57
923.53	228.58
923.83	228.44
924.13	228.46
924.44	228.42
924.74	228.47
925.04	228.58
925.34	228.67
925.64	228.63
925.94	228.65
926.24	228.76
926.55	228.86
926.85	228.79
927.15	228.84
927.45	228.83
927.75	228.82
928.05	228.80
928.35	228.80
928.65	228.84
928.95	228.85
929.26	228.83
929.56	228.89
929.86	228.92
930.16	229.01
930.46	229.03
930.76	229.02
931.06	228.80
931.36	228.75
931.66	228.71
931.96	228.72
932.26	228.77
932.56	228.61
932.86	228.51
933.16	228.62
933.46	228.56
933.76	228.54
934.06	228.58
934.36	228.63
934.66	228.55
934.96	228.49
935.26	228.48
935.56	228.41
935.86	228.20
936.16	228.16
936.46	228.04
936.76	228.06
937.06	227.99
937.36	228.14
937.66	228.13
937.96	228.07
938.26	227.97
938.56	228.02
938.86	228.17
939.16	228.26
939.46	228.20
939.76	228.25
940.06	228.17
940.35	228.10
940.65	227.97
940.95	228.08
941.25	228.06
941.55	227.91
941.85	228.00
942.15	228.11
942.45	228.18
942.75	228.14
943.04	228.09
943.34	228.20
943.64	228.12
943.94	228.05
944.24	228.06
944.54	228.10
944.84	228.04
945.13	227.92
945.43	227.81
945.73	227.80
946.03	227.84
946.33	227.90
946.62	227.91
946.92	227.96
947.22	228.02
947.52	227.93
947.82	228.05
948.11	227.92
948.41	227.92
948.71	227.78
949.01	227.81
949.31	227.76
949.60	227.73
949.90	227.73
950.20	227.77
950.50	227.83
950.79	227.83
951.09	227.81
951.39	227.83
951.69	227.88
951.98	227.83
952.28	227.73
952.58	227.69
952.87	227.65
953.17	227.61
953.47	227.53
953.76	227.51
954.06	227.58
954.36	227.61
954.66	227.68
954.95	227.73
955.25	227.85
955.55	227.90
955.84	227.83
956.14	227.77
956.44	227.70
956.73	227.67
957.03	227.65
957.32	227.58
957.62	227.54
957.92	227.60
958.21	227.60
958.51	227.83
958.81	227.76
959.10	227.91
959.40	227.94
959.69	228.00
959.99	228.10
960.29	228.09
960.58	228.10
960.88	228.19
961.17	228.24
961.47	228.15
961.76	228.10
962.06	228.27
962.36	228.33
962.65	228.43
962.95	228.34
963.24	228.37
963.54	228.43
963.83	228.50
964.13	228.39
964.42	228.32
964.72	228.14
965.01	228.15
965.31	227.93
965.60	227.90
965.90	227.91
966.19	227.82
966.49	227.83
966.78	227.80
967.08	227.70
967.37	227.64
967.67	227.59
967.96	227.73
968.26	227.66
968.55	227.72
968.85	227.61
969.14	227.69
969.43	227.64
969.73	227.63
970.02	227.53
970.32	227.58
970.61	227.69
970.91	227.69
971.20	227.74
971.49	227.80
971.79	227.85
972.08	227.83
972.38	227.86
972.67	227.87
972.96	227.88
973.26	227.83
973.55	227.90
973.85	227.90
974.14	227.86
974.43	227.91
974.73	227.87
975.02	227.96
975.31	227.93
975.61	227.98
975.90	227.93
976.19	227.96
976.49	227.95
976.78	227.85
977.07	227.84
977.37	227.89
977.66	227.97
977.95	227.88
978.24	227.80
978.54	227.79
978.83	227.69
979.12	227.68
979.42	227.75
979.71	227.63
980.00	227.71
980.29	227.62
980.59	227.62
980.88	227.64
981.17	227.67
981.46	227.71
981.76	227.71
982.05	227.73
982.34	227.67
982.63	227.76
982.93	227.80
983.22	227.86
983.51	227.85
983.80	227.78
984.09	227.87
984.39	227.85
984.68	227.80
984.97	227.96
985.26	227.92
985.55	227.83
985.85	227.92
986.14	227.85
986.43	227.91
986.72	227.78
987.01	227.70
987.30	227.58
987.59	227.40
987.89	227.36
988.18	227.39
988.47	227.41
988.76	227.30
989.05	227.20
989.34	227.09
989.63	227.07
989.92	227.10
990.22	227.05
990.51	227.07
990.80	227.16
991.09	227.09
991.38	227.13
991.67	227.19
991.96	227.15
992.25	227.16
992.54	227.07
992.83	227.10
993.12	227.11
993.41	227.20
993.70	227.40
993.99	227.47
994.28	227.44
994.58	227.51
994.87	227.54
995.16	227.67
995.45	227.69
995.74	227.70
996.03	227.72
996.32	227.80
996.61	227.92
996.90	227.93
997.19	227.88
997.48	227.91
997.77	227.87
998.06	227.94
998.34	227.93
998.63	227.91
998.92	227.97
999.21	228.04
999.50	228.13
999.79	228.13
1000.08	228.18
1000.37	228.20
1000.66	228.18
1000.95	228.17
1001.24	228.20
1001.53	228.25
1001.82	228.24
1002.11	228.17
1002.40	228.22
1002.68	228.20
1002.97	228.26
1003.26	228.22
1003.55	228.22
1003.84	228.24
1004.13	228.26
1004.42	228.30
1004.71	228.48
1004.99	228.45
1005.28	228.46
1005.57	228.36
1005.86	228.40
1006.15	228.34
1006.44	228.38
1006.72	228.45
1007.01	228.46
1007.30	228.39
1007.59	228.38
1007.88	228.34
1008.17	228.39
1008.45	228.26
1008.74	228.20
1009.03	228.19
1009.32	228.23
1009.60	228.15
1009.89	228.23
1010.18	228.21
1010.47	228.26
1010.76	228.06
1011.04	228.00
1011.33	228.07
1011.62	228.11
1011.91	228.05
1012.19	228.11
1012.48	228.06
1012.77	227.97
1013.05	228.02
1013.34	228.09
1013.63	228.07
1013.92	228.09
1014.20	228.14
1014.49	228.18
1014.78	228.23
1015.06	228.17
1015.35	228.17
1015.64	228.25
1015.92	228.10
1016.21	228.12
1016.50	228.05
1016.78	228.18
1017.07	228.28
1017.36	228.21
1017.64	228.12
1017.93	228.10
1018.22	227.98
1018.50	227.94
1018.79	227.98
1019.08	227.99
1019.36	227.96
1019.65	228.00
1019.93	228.12
1020.22	228.06
1020.51	228.16
1020.79	228.23
1021.08	226.50
1021.36	226.20
1021.65	228.00
1021.94	228.70
1022.22	227.80
1022.51	228.60
1022.79	230.10
1023.08	228.00
1023.36	230.00
1023.65	230.00
>>>>>End Processed Spectral Data<<<<<
