SpectraSuite Data File
++++++++++++++++++++++++++++++++++++
Date: Fri Feb 01 14:35:29 EST 2013
User: group
Dark Spectrum Present: No
Reference Spectrum Present: No
Number of Sampled Component Spectra: 1
Spectrometers: USB2E7196
Integration Time (usec): 70000 (USB2E7196)
Spectra Averaged: 10 (USB2E7196)
Boxcar Smoothing: 10 (USB2E7196)
Correct for Electrical Dark: No (USB2E7196)
Strobe/Lamp Enabled: No (USB2E7196)
Correct for Detector Non-linearity: No (USB2E7196)
Correct for Stray Light: No (USB2E7196)
Number of Pixels in Processed Spectrum: 2048
>>>>>Begin Processed Spectral Data<<<<<
339.09	0.00
339.48	217.20
339.86	218.50
340.24	220.30
340.63	220.10
341.01	223.80
341.39	223.90
341.78	222.50
342.16	227.50
342.54	227.90
342.93	214.80
343.31	225.61
343.69	226.07
344.07	226.51
344.46	226.91
344.84	227.27
345.22	227.48
345.60	227.68
345.99	227.99
346.37	228.05
346.75	228.01
347.13	227.95
347.52	227.96
347.90	228.11
348.28	228.20
348.66	228.22
349.05	228.12
349.43	228.17
349.81	228.27
350.19	228.34
350.57	228.36
350.96	228.40
351.34	228.52
351.72	228.61
352.10	228.68
352.48	228.62
352.87	228.66
353.25	228.70
353.63	228.80
354.01	228.77
354.39	228.73
354.77	228.86
355.15	228.97
355.54	228.89
355.92	228.82
356.30	228.87
356.68	229.06
357.06	229.18
357.44	229.25
357.82	229.16
358.20	229.16
358.58	229.18
358.97	229.24
359.35	229.27
359.73	229.43
360.11	229.45
360.49	229.47
360.87	229.54
361.25	229.57
361.63	229.63
362.01	229.67
362.39	229.79
362.77	229.83
363.15	229.80
363.53	229.95
363.91	230.00
364.29	230.03
364.67	229.84
365.05	229.89
365.43	229.91
365.81	229.94
366.19	230.04
366.57	230.16
366.95	230.15
367.33	230.08
367.71	230.04
368.09	230.04
368.47	230.13
368.85	230.11
369.23	230.08
369.61	229.90
369.99	229.98
370.37	229.90
370.75	229.90
371.13	229.92
371.51	229.92
371.89	229.91
372.27	229.90
372.65	229.86
373.03	229.74
373.41	229.65
373.78	229.57
374.16	229.44
374.54	229.28
374.92	229.24
375.30	229.23
375.68	229.00
376.06	228.95
376.44	228.83
376.82	228.68
377.19	228.62
377.57	228.55
377.95	228.46
378.33	228.39
378.71	228.24
379.09	228.10
379.47	228.01
379.84	227.80
380.22	227.69
380.60	227.59
380.98	227.50
381.36	227.39
381.73	227.30
382.11	227.20
382.49	227.10
382.87	226.88
383.25	226.76
383.62	226.88
384.00	226.82
384.38	226.80
384.76	226.84
385.13	226.87
385.51	226.84
385.89	226.70
386.27	226.61
386.64	226.56
387.02	226.56
387.40	226.47
387.78	226.56
388.15	226.48
388.53	226.36
388.91	226.41
389.29	226.42
389.66	226.54
390.04	226.63
390.42	226.69
390.79	226.78
391.17	226.87
391.55	226.77
391.92	226.74
392.30	226.81
392.68	226.80
393.05	226.84
393.43	226.86
393.81	226.90
394.18	226.89
394.56	226.92
394.94	227.06
395.31	227.10
395.69	227.21
396.06	227.38
396.44	227.54
396.82	227.64
397.19	227.85
397.57	227.80
397.95	227.82
398.32	227.88
398.70	228.02
399.07	228.16
399.45	228.26
399.82	228.36
400.20	228.42
400.58	228.56
400.95	228.69
401.33	228.87
401.70	229.21
402.08	229.43
402.45	229.67
402.83	229.93
403.20	230.10
403.58	230.28
403.95	230.54
404.33	230.80
404.71	230.96
405.08	231.40
405.46	231.61
405.83	231.94
406.21	232.23
406.58	232.52
406.96	232.80
407.33	233.16
407.70	233.57
408.08	234.04
408.45	234.48
408.83	234.96
409.20	235.45
409.58	235.76
409.95	236.42
410.33	237.03
410.70	237.51
411.08	238.19
411.45	238.88
411.82	239.58
412.20	240.39
412.57	241.37
412.95	242.03
413.32	243.00
413.69	243.91
414.07	245.03
414.44	246.16
414.82	247.33
415.19	248.61
415.56	250.01
415.94	251.42
416.31	253.05
416.68	254.52
417.06	256.37
417.43	258.19
417.81	260.07
418.18	261.97
418.55	264.14
418.93	266.39
419.30	268.66
419.67	271.02
420.04	273.45
420.42	276.02
420.79	279.02
421.16	282.15
421.54	285.33
421.91	288.52
422.28	291.90
422.66	295.56
423.03	299.07
423.40	302.70
423.77	306.63
424.15	310.57
424.52	314.66
424.89	319.03
425.26	323.30
425.64	327.40
426.01	331.91
426.38	336.72
426.75	341.47
427.13	346.46
427.50	351.71
427.87	357.14
428.24	362.53
428.61	367.63
428.99	373.22
429.36	379.39
429.73	385.58
430.10	391.69
430.47	397.73
430.85	404.23
431.22	410.92
431.59	418.00
431.96	424.75
432.33	432.34
432.70	439.70
433.08	448.09
433.45	456.07
433.82	464.24
434.19	473.00
434.56	481.65
434.93	489.91
435.30	498.14
435.68	507.31
436.05	516.33
436.42	525.20
436.79	533.37
437.16	542.24
437.53	551.25
437.90	560.38
438.27	569.71
438.64	578.85
439.01	587.38
439.38	595.18
439.75	602.74
440.13	611.47
440.50	619.52
440.87	626.49
441.24	633.61
441.61	641.31
441.98	647.07
442.35	653.99
442.72	660.91
443.09	667.80
443.46	672.22
443.83	675.25
444.20	678.10
444.57	682.20
444.94	684.46
445.31	686.97
445.68	689.19
446.05	690.51
446.42	690.67
446.79	690.67
447.16	690.56
447.53	690.76
447.90	688.19
448.27	686.07
448.64	682.30
449.01	680.02
449.37	674.92
449.74	670.14
450.11	664.02
450.48	657.42
450.85	650.29
451.22	644.39
451.59	638.89
451.96	633.84
452.33	626.25
452.70	619.47
453.07	611.18
453.43	602.84
453.80	594.77
454.17	587.20
454.54	579.91
454.91	571.70
455.28	563.92
455.65	556.77
456.02	549.05
456.38	542.71
456.75	534.50
457.12	527.78
457.49	521.09
457.86	514.62
458.23	509.20
458.59	503.16
458.96	496.95
459.33	491.53
459.70	485.88
460.07	481.40
460.43	476.19
460.80	471.25
461.17	466.90
461.54	462.42
461.91	458.00
462.27	453.48
462.64	449.84
463.01	445.51
463.38	441.33
463.74	437.37
464.11	433.79
464.48	430.68
464.85	427.32
465.21	424.55
465.58	421.64
465.95	418.02
466.32	415.11
466.68	412.24
467.05	409.33
467.42	406.46
467.78	403.54
468.15	400.64
468.52	398.64
468.88	395.91
469.25	393.33
469.62	391.39
469.98	389.31
470.35	387.03
470.72	385.08
471.08	383.14
471.45	381.28
471.82	379.40
472.18	377.26
472.55	375.68
472.92	373.99
473.28	372.43
473.65	371.00
474.02	369.47
474.38	368.11
474.75	367.02
475.11	365.67
475.48	364.68
475.85	364.02
476.21	363.20
476.58	362.33
476.94	361.65
477.31	360.76
477.67	359.94
478.04	359.50
478.41	359.09
478.77	358.59
479.14	358.02
479.50	357.74
479.87	357.70
480.23	357.58
480.60	357.30
480.96	357.12
481.33	357.18
481.69	357.29
482.06	357.30
482.42	357.22
482.79	357.37
483.15	357.69
483.52	358.05
483.88	358.30
484.25	358.79
484.61	359.17
484.98	359.57
485.34	360.37
485.71	361.10
486.07	361.79
486.44	362.42
486.80	363.36
487.17	364.15
487.53	365.30
487.90	366.37
488.26	367.54
488.62	368.88
488.99	369.92
489.35	371.24
489.72	372.75
490.08	374.25
490.44	375.76
490.81	377.31
491.17	378.81
491.54	380.42
491.90	382.07
492.26	383.95
492.63	385.79
492.99	387.73
493.36	389.68
493.72	391.69
494.08	393.80
494.45	396.07
494.81	398.41
495.17	400.60
495.54	402.93
495.90	405.28
496.26	407.73
496.63	410.30
496.99	412.83
497.35	415.39
497.72	418.07
498.08	420.77
498.44	423.39
498.80	426.10
499.17	428.93
499.53	431.58
499.89	434.52
500.26	437.34
500.62	440.07
500.98	443.04
501.34	445.92
501.71	448.78
502.07	451.42
502.43	454.08
502.79	456.62
503.16	459.19
503.52	462.00
503.88	464.39
504.24	466.90
504.60	469.49
504.97	471.89
505.33	474.29
505.69	476.94
506.05	479.53
506.41	481.88
506.78	484.18
507.14	486.89
507.50	489.15
507.86	491.49
508.22	493.73
508.59	495.61
508.95	497.73
509.31	499.89
509.67	502.10
510.03	504.25
510.39	506.58
510.75	508.71
511.12	510.64
511.48	512.56
511.84	514.51
512.20	516.18
512.56	518.05
512.92	520.01
513.28	521.80
513.64	523.29
514.00	524.84
514.37	526.36
514.73	527.63
515.09	528.86
515.45	530.12
515.81	531.34
516.17	532.65
516.53	533.93
516.89	535.14
517.25	536.20
517.61	537.20
517.97	538.07
518.33	538.98
518.69	539.90
519.05	541.06
519.41	542.02
519.77	543.27
520.13	544.27
520.49	545.01
520.85	545.58
521.21	546.38
521.57	547.54
521.93	548.28
522.29	549.26
522.65	550.11
523.01	550.86
523.37	551.45
523.73	552.37
524.09	553.00
524.45	553.82
524.81	554.65
525.17	555.78
525.53	556.83
525.89	557.79
526.25	558.81
526.61	559.54
526.97	560.60
527.33	561.41
527.68	562.60
528.04	563.91
528.40	565.04
528.76	566.47
529.12	567.78
529.48	569.46
529.84	570.64
530.20	572.22
530.56	574.05
530.91	576.12
531.27	577.73
531.63	579.52
531.99	581.15
532.35	583.08
532.71	584.83
533.07	586.84
533.42	588.97
533.78	590.96
534.14	593.10
534.50	595.05
534.86	597.38
535.21	599.40
535.57	601.69
535.93	604.23
536.29	606.48
536.65	608.52
537.00	610.61
537.36	613.31
537.72	615.73
538.08	618.08
538.44	620.39
538.79	623.00
539.15	625.52
539.51	628.28
539.87	630.73
540.22	633.37
540.58	636.20
540.94	639.05
541.29	641.83
541.65	644.74
542.01	648.04
542.37	650.81
542.72	653.58
543.08	656.33
543.44	659.21
543.79	662.12
544.15	665.47
544.51	668.72
544.87	671.80
545.22	675.17
545.58	678.21
545.94	681.25
546.29	684.52
546.65	687.76
547.01	690.84
547.36	694.37
547.72	697.68
548.07	700.76
548.43	703.79
548.79	707.01
549.14	710.07
549.50	713.12
549.86	716.34
550.21	719.73
550.57	722.94
550.92	726.17
551.28	729.54
551.64	732.82
551.99	736.12
552.35	739.34
552.70	742.47
553.06	745.99
553.41	749.70
553.77	753.14
554.13	756.77
554.48	760.53
554.84	763.86
555.19	767.12
555.55	770.60
555.90	773.86
556.26	777.49
556.61	781.03
556.97	784.16
557.32	787.62
557.68	791.03
558.03	794.58
558.39	797.90
558.74	801.41
559.10	804.46
559.45	807.83
559.81	811.41
560.16	814.75
560.52	818.16
560.87	821.42
561.23	824.57
561.58	827.85
561.94	830.89
562.29	833.96
562.64	836.91
563.00	839.90
563.35	843.15
563.71	846.29
564.06	849.54
564.42	852.62
564.77	855.58
565.12	858.65
565.48	861.85
565.83	864.79
566.19	867.61
566.54	870.69
566.89	873.35
567.25	875.87
567.60	878.74
567.96	881.43
568.31	883.91
568.66	886.51
569.02	888.68
569.37	891.05
569.72	893.43
570.08	895.74
570.43	897.98
570.78	900.12
571.14	901.73
571.49	903.53
571.84	905.74
572.20	907.75
572.55	909.41
572.90	910.73
573.26	912.61
573.61	914.07
573.96	915.48
574.31	916.62
574.67	917.55
575.02	918.52
575.37	919.24
575.72	919.86
576.08	920.55
576.43	921.50
576.78	922.54
577.13	923.61
577.49	924.55
577.84	925.24
578.19	925.85
578.54	926.40
578.90	926.95
579.25	927.20
579.60	927.31
579.95	927.55
580.30	927.81
580.66	927.89
581.01	928.00
581.36	927.91
581.71	928.21
582.06	928.28
582.42	928.05
582.77	928.18
583.12	928.41
583.47	928.40
583.82	928.42
584.17	927.91
584.53	927.22
584.88	926.74
585.23	926.37
585.58	925.91
585.93	925.71
586.28	925.44
586.63	924.99
586.98	924.51
587.34	923.88
587.69	923.43
588.04	922.75
588.39	922.32
588.74	921.18
589.09	920.25
589.44	919.60
589.79	918.83
590.14	918.05
590.49	916.77
590.84	915.71
591.19	914.63
591.54	913.10
591.89	912.03
592.25	911.14
592.60	909.65
592.95	908.11
593.30	906.70
593.65	905.21
594.00	903.72
594.35	902.90
594.70	901.29
595.05	899.64
595.40	897.94
595.75	895.78
596.10	894.47
596.45	893.16
596.80	891.97
597.15	890.65
597.50	888.90
597.85	887.73
598.19	886.18
598.54	884.73
598.89	883.46
599.24	881.60
599.59	879.64
599.94	878.10
600.29	876.47
600.64	874.63
600.99	872.45
601.34	870.85
601.69	868.32
602.04	866.47
602.39	864.50
602.74	862.73
603.08	861.24
603.43	859.86
603.78	857.93
604.13	855.52
604.48	853.28
604.83	851.36
605.18	849.13
605.53	846.82
605.87	844.18
606.22	841.99
606.57	839.95
606.92	838.10
607.27	836.11
607.62	834.25
607.96	832.26
608.31	830.19
608.66	827.76
609.01	825.35
609.36	822.88
609.70	820.18
610.05	817.35
610.40	814.67
610.75	811.65
611.10	808.92
611.44	806.01
611.79	803.60
612.14	800.90
612.49	797.83
612.83	795.05
613.18	792.32
613.53	789.44
613.88	786.51
614.22	783.31
614.57	780.07
614.92	777.04
615.27	774.03
615.61	771.20
615.96	768.30
616.31	765.71
616.65	763.28
617.00	760.75
617.35	758.26
617.70	755.45
618.04	752.30
618.39	749.26
618.74	746.55
619.08	743.26
619.43	740.25
619.78	737.98
620.12	735.41
620.47	732.66
620.82	730.01
621.16	727.44
621.51	724.91
621.85	722.42
622.20	719.54
622.55	716.82
622.89	714.32
623.24	711.69
623.59	709.02
623.93	706.50
624.28	703.58
624.62	700.84
624.97	698.26
625.32	696.01
625.66	693.59
626.01	691.26
626.35	688.73
626.70	685.88
627.04	682.91
627.39	680.01
627.73	677.35
628.08	674.68
628.43	671.80
628.77	668.76
629.12	665.73
629.46	663.10
629.81	660.30
630.15	657.00
630.50	654.10
630.84	650.97
631.19	647.71
631.53	645.17
631.88	642.30
632.22	639.25
632.57	636.52
632.91	633.69
633.26	630.82
633.60	627.90
633.95	625.35
634.29	622.88
634.64	620.41
634.98	617.84
635.32	615.27
635.67	612.66
636.01	610.07
636.36	607.46
636.70	605.03
637.05	602.49
637.39	600.42
637.73	598.19
638.08	596.08
638.42	593.91
638.77	591.46
639.11	588.77
639.45	586.38
639.80	583.85
640.14	581.46
640.49	578.91
640.83	576.56
641.17	574.17
641.52	571.56
641.86	568.91
642.20	566.43
642.55	563.88
642.89	561.49
643.23	559.32
643.58	557.22
643.92	554.59
644.26	552.29
644.61	549.98
644.95	547.39
645.29	544.77
645.64	542.08
645.98	539.51
646.32	537.47
646.66	535.10
647.01	532.60
647.35	530.16
647.69	527.88
648.04	525.80
648.38	523.37
648.72	520.88
649.06	518.63
649.41	516.23
649.75	513.72
650.09	511.28
650.43	508.90
650.78	506.39
651.12	503.82
651.46	501.57
651.80	499.25
652.14	496.92
652.49	494.69
652.83	492.60
653.17	490.41
653.51	488.09
653.85	485.92
654.20	483.67
654.54	481.19
654.88	478.86
655.22	476.32
655.56	473.92
655.90	471.80
656.25	469.63
656.59	467.48
656.93	465.47
657.27	463.53
657.61	461.15
657.95	459.13
658.29	457.20
658.64	454.90
658.98	452.42
659.32	450.11
659.66	448.06
660.00	445.96
660.34	444.07
660.68	442.00
661.02	439.89
661.36	437.98
661.70	436.14
662.05	434.40
662.39	432.82
662.73	431.37
663.07	429.62
663.41	427.83
663.75	425.99
664.09	424.27
664.43	422.40
664.77	420.80
665.11	419.13
665.45	417.57
665.79	415.86
666.13	414.40
666.47	412.97
666.81	411.21
667.15	409.25
667.49	407.50
667.83	406.02
668.17	404.47
668.51	402.86
668.85	401.38
669.19	399.75
669.53	398.04
669.87	396.29
670.21	394.74
670.55	393.27
670.89	391.89
671.23	390.55
671.57	389.18
671.91	387.74
672.25	386.19
672.58	384.75
672.92	383.27
673.26	381.86
673.60	380.37
673.94	379.11
674.28	378.18
674.62	376.95
674.96	375.60
675.30	374.47
675.64	373.25
675.97	372.02
676.31	370.68
676.65	369.36
676.99	368.21
677.33	366.88
677.67	365.60
678.01	364.26
678.34	362.83
678.68	361.61
679.02	360.37
679.36	359.18
679.70	357.90
680.04	356.70
680.37	355.55
680.71	354.40
681.05	353.22
681.39	351.95
681.73	350.66
682.06	349.44
682.40	348.24
682.74	347.01
683.08	345.93
683.42	344.81
683.75	343.75
684.09	342.52
684.43	341.39
684.77	340.17
685.10	339.04
685.44	337.87
685.78	336.62
686.12	335.55
686.45	334.42
686.79	333.37
687.13	332.45
687.46	331.34
687.80	330.33
688.14	329.12
688.48	328.12
688.81	327.05
689.15	326.03
689.49	324.89
689.82	323.88
690.16	322.76
690.50	321.83
690.83	320.79
691.17	319.77
691.51	318.85
691.84	317.89
692.18	317.00
692.52	316.17
692.85	315.34
693.19	314.47
693.52	313.60
693.86	312.51
694.20	311.58
694.53	310.74
694.87	309.78
695.21	308.96
695.54	308.03
695.88	307.22
696.21	306.32
696.55	305.51
696.88	304.76
697.22	303.88
697.56	303.05
697.89	302.25
698.23	301.47
698.56	300.71
698.90	299.95
699.23	299.11
699.57	298.25
699.90	297.45
700.24	296.69
700.58	295.96
700.91	295.49
701.25	294.84
701.58	294.12
701.92	293.36
702.25	292.70
702.59	291.99
702.92	291.37
703.26	290.74
703.59	290.11
703.93	289.74
704.26	289.20
704.60	288.63
704.93	287.90
705.26	287.40
705.60	286.90
705.93	286.42
706.27	285.99
706.60	285.59
706.94	285.05
707.27	284.47
707.61	283.92
707.94	283.39
708.27	282.76
708.61	282.17
708.94	281.80
709.28	281.29
709.61	280.82
709.94	280.28
710.28	279.75
710.61	279.24
710.95	278.47
711.28	278.09
711.61	277.58
711.95	277.13
712.28	276.54
712.61	275.85
712.95	275.37
713.28	274.88
713.61	274.31
713.95	273.76
714.28	273.16
714.61	272.64
714.95	272.06
715.28	271.56
715.61	271.04
715.95	270.60
716.28	270.10
716.61	269.70
716.95	269.18
717.28	268.84
717.61	268.40
717.94	267.92
718.28	267.26
718.61	266.80
718.94	266.45
719.27	266.02
719.61	265.71
719.94	265.23
720.27	264.72
720.60	264.37
720.94	264.09
721.27	263.83
721.60	263.46
721.93	263.12
722.27	262.87
722.60	262.54
722.93	262.10
723.26	261.94
723.59	261.54
723.93	261.20
724.26	260.83
724.59	260.50
724.92	260.14
725.25	260.08
725.59	259.83
725.92	259.64
726.25	259.31
726.58	258.98
726.91	258.71
727.24	258.50
727.57	258.19
727.91	257.75
728.24	257.48
728.57	257.25
728.90	256.99
729.23	256.58
729.56	256.29
729.89	256.03
730.22	255.56
730.55	255.30
730.89	255.04
731.22	254.75
731.55	254.44
731.88	254.20
732.21	253.87
732.54	253.40
732.87	252.96
733.20	252.76
733.53	252.48
733.86	252.18
734.19	251.87
734.52	251.61
734.85	251.61
735.18	251.41
735.51	251.20
735.84	250.99
736.17	250.87
736.50	250.68
736.83	250.66
737.16	250.46
737.49	250.20
737.82	249.97
738.15	249.65
738.48	249.43
738.81	249.21
739.14	248.94
739.47	248.76
739.80	248.60
740.13	248.44
740.46	248.16
740.79	247.97
741.12	247.81
741.45	247.50
741.78	247.22
742.11	247.01
742.44	246.65
742.77	246.48
743.10	246.15
743.43	245.80
743.75	245.38
744.08	245.50
744.41	245.34
744.74	245.23
745.07	245.05
745.40	244.81
745.73	244.76
746.06	244.60
746.39	244.45
746.71	244.22
747.04	243.98
747.37	243.91
747.70	243.68
748.03	243.48
748.36	243.38
748.68	243.25
749.01	243.01
749.34	242.93
749.67	242.72
750.00	242.69
750.33	242.87
750.65	242.82
750.98	242.36
751.31	242.22
751.64	242.08
751.97	242.14
752.29	242.10
752.62	241.91
752.95	241.70
753.28	241.54
753.60	241.54
753.93	241.48
754.26	241.35
754.59	241.24
754.91	241.11
755.24	240.94
755.57	240.75
755.90	240.62
756.22	240.48
756.55	240.30
756.88	240.13
757.20	239.79
757.53	239.63
757.86	239.43
758.19	239.34
758.51	239.25
758.84	239.07
759.17	238.93
759.49	238.89
759.82	238.90
760.15	238.93
760.47	238.76
760.80	238.70
761.13	238.64
761.45	238.52
761.78	238.38
762.11	238.35
762.43	238.17
762.76	238.10
763.08	238.03
763.41	237.97
763.74	237.80
764.06	237.70
764.39	237.52
764.71	237.51
765.04	237.33
765.37	237.11
765.69	236.91
766.02	236.81
766.34	236.53
766.67	236.35
767.00	236.17
767.32	236.16
767.65	236.15
767.97	236.04
768.30	235.98
768.62	235.84
768.95	235.69
769.27	235.61
769.60	235.54
769.92	235.42
770.25	235.30
770.57	235.24
770.90	235.19
771.22	235.06
771.55	234.96
771.87	234.89
772.20	234.89
772.52	234.94
772.85	235.03
773.17	234.94
773.50	234.78
773.82	234.71
774.15	234.54
774.47	234.24
774.80	234.13
775.12	234.03
775.45	234.10
775.77	234.04
776.09	234.00
776.42	233.89
776.74	233.88
777.07	233.83
777.39	233.67
777.72	233.58
778.04	233.58
778.36	233.56
778.69	233.52
779.01	233.42
779.33	233.25
779.66	233.06
779.98	233.12
780.31	233.20
780.63	233.16
780.95	233.11
781.28	233.14
781.60	233.07
781.92	233.07
782.25	232.96
782.57	232.85
782.89	232.85
783.22	232.80
783.54	232.79
783.86	232.82
784.19	232.85
784.51	232.96
784.83	232.89
785.16	232.88
785.48	232.89
785.80	232.92
786.12	232.99
786.45	233.00
786.77	232.89
787.09	232.72
787.42	232.67
787.74	232.68
788.06	232.68
788.38	232.63
788.71	232.63
789.03	232.61
789.35	232.70
789.67	232.68
789.99	232.77
790.32	232.71
790.64	232.67
790.96	232.77
791.28	232.64
791.61	232.59
791.93	232.60
792.25	232.54
792.57	232.65
792.89	232.58
793.21	232.52
793.54	232.53
793.86	232.62
794.18	232.52
794.50	232.59
794.82	232.55
795.14	232.66
795.47	232.59
795.79	232.61
796.11	232.61
796.43	232.50
796.75	232.38
797.07	232.42
797.39	232.31
797.71	232.21
798.04	232.20
798.36	232.25
798.68	232.20
799.00	232.16
799.32	232.01
799.64	232.04
799.96	231.92
800.28	231.80
800.60	231.75
800.92	231.86
801.24	231.65
801.56	231.54
801.89	231.48
802.21	231.51
802.53	231.36
802.85	231.30
803.17	231.37
803.49	231.30
803.81	231.17
804.13	231.21
804.45	231.08
804.77	231.06
805.09	230.93
805.41	230.75
805.73	230.72
806.05	230.57
806.37	230.41
806.69	230.36
807.01	230.35
807.33	230.22
807.65	230.09
807.97	230.12
808.28	230.05
808.60	230.03
808.92	229.90
809.24	229.97
809.56	229.88
809.88	229.70
810.20	229.68
810.52	229.71
810.84	229.63
811.16	229.59
811.48	229.46
811.80	229.56
812.12	229.63
812.43	229.56
812.75	229.63
813.07	229.63
813.39	229.61
813.71	229.67
814.03	229.69
814.35	229.60
814.67	229.61
814.98	229.55
815.30	229.51
815.62	229.40
815.94	229.29
816.26	229.40
816.58	229.50
816.89	229.50
817.21	229.35
817.53	229.33
817.85	229.32
818.17	229.42
818.48	229.34
818.80	229.34
819.12	229.38
819.44	229.32
819.76	229.34
820.07	229.37
820.39	229.26
820.71	229.34
821.03	229.33
821.34	229.25
821.66	229.44
821.98	229.36
822.30	229.50
822.61	229.69
822.93	229.65
823.25	229.63
823.57	229.63
823.88	229.83
824.20	229.74
824.52	229.90
824.83	229.80
825.15	229.72
825.47	229.71
825.79	229.73
826.10	229.79
826.42	229.70
826.74	229.78
827.05	229.92
827.37	229.93
827.69	230.05
828.00	230.10
828.32	230.10
828.64	230.20
828.95	230.31
829.27	230.14
829.58	230.06
829.90	230.09
830.22	230.10
830.53	229.99
830.85	230.10
831.17	229.97
831.48	230.00
831.80	230.09
832.11	230.13
832.43	230.07
832.75	230.08
833.06	230.25
833.38	230.12
833.69	230.14
834.01	230.00
834.32	229.99
834.64	230.06
834.96	229.97
835.27	229.93
835.59	229.84
835.90	229.84
836.22	229.87
836.53	229.74
836.85	229.71
837.16	229.79
837.48	229.63
837.79	229.70
838.11	229.66
838.42	229.69
838.74	229.70
839.05	229.70
839.37	229.58
839.68	229.49
840.00	229.54
840.31	229.44
840.63	229.42
840.94	229.37
841.26	229.30
841.57	229.33
841.88	229.34
842.20	229.24
842.51	229.23
842.83	229.15
843.14	229.40
843.46	229.33
843.77	229.18
844.08	229.30
844.40	229.19
844.71	229.20
845.03	229.05
845.34	228.97
845.65	228.99
845.97	229.00
846.28	228.90
846.60	228.77
846.91	228.74
847.22	228.82
847.54	228.81
847.85	228.75
848.16	228.57
848.48	228.50
848.79	228.49
849.10	228.45
849.42	228.45
849.73	228.28
850.04	228.31
850.36	228.30
850.67	228.35
850.98	228.34
851.30	228.29
851.61	228.30
851.92	228.20
852.23	228.17
852.55	228.07
852.86	228.18
853.17	228.28
853.49	228.28
853.80	228.25
854.11	228.22
854.42	228.30
854.74	228.32
855.05	228.30
855.36	228.25
855.67	228.18
855.99	228.22
856.30	228.39
856.61	228.39
856.92	228.41
857.23	228.37
857.55	228.38
857.86	228.44
858.17	228.49
858.48	228.56
858.79	228.48
859.11	228.63
859.42	228.59
859.73	228.57
860.04	228.54
860.35	228.52
860.66	228.50
860.98	228.48
861.29	228.50
861.60	228.52
861.91	228.64
862.22	228.71
862.53	228.69
862.84	228.41
863.16	228.44
863.47	228.45
863.78	228.47
864.09	228.47
864.40	228.51
864.71	228.53
865.02	228.60
865.33	228.75
865.64	228.64
865.95	228.68
866.27	228.91
866.58	228.98
866.89	229.08
867.20	229.11
867.51	229.10
867.82	229.14
868.13	229.22
868.44	229.21
868.75	229.27
869.06	229.30
869.37	229.38
869.68	229.34
869.99	229.38
870.30	229.34
870.61	229.45
870.92	229.46
871.23	229.54
871.54	229.47
871.85	229.46
872.16	229.62
872.47	229.56
872.78	229.32
873.09	229.26
873.40	229.21
873.71	229.20
874.02	229.28
874.33	229.28
874.64	229.19
874.95	229.15
875.26	229.10
875.56	229.01
875.87	229.02
876.18	229.01
876.49	229.13
876.80	229.16
877.11	229.01
877.42	228.92
877.73	228.87
878.04	228.89
878.35	228.82
878.66	228.73
878.96	228.77
879.27	228.72
879.58	228.71
879.89	228.74
880.20	228.86
880.51	228.73
880.82	228.77
881.12	228.73
881.43	228.69
881.74	228.62
882.05	228.59
882.36	228.53
882.67	228.50
882.97	228.36
883.28	228.24
883.59	228.23
883.90	228.29
884.21	228.23
884.51	228.13
884.82	228.09
885.13	227.98
885.44	227.81
885.74	227.75
886.05	227.73
886.36	227.59
886.67	227.41
886.98	227.54
887.28	227.48
887.59	227.40
887.90	227.40
888.20	227.36
888.51	227.34
888.82	227.29
889.13	227.32
889.43	227.33
889.74	227.28
890.05	227.26
890.35	227.20
890.66	227.19
890.97	227.16
891.28	227.18
891.58	227.32
891.89	227.42
892.20	227.43
892.50	227.39
892.81	227.47
893.12	227.48
893.42	227.29
893.73	227.38
894.04	227.48
894.34	227.46
894.65	227.52
894.95	227.57
895.26	227.59
895.57	227.74
895.87	227.68
896.18	227.83
896.48	227.77
896.79	227.77
897.10	227.80
897.40	227.89
897.71	227.89
898.01	227.89
898.32	227.94
898.63	228.01
898.93	228.03
899.24	227.99
899.54	227.96
899.85	228.02
900.15	228.00
900.46	228.00
900.76	228.12
901.07	228.12
901.38	228.18
901.68	228.19
901.99	228.19
902.29	228.21
902.60	228.19
902.90	228.27
903.21	228.31
903.51	228.33
903.82	228.30
904.12	228.40
904.43	228.42
904.73	228.35
905.03	228.37
905.34	228.64
905.64	228.67
905.95	228.76
906.25	228.74
906.56	228.75
906.86	228.83
907.17	228.73
907.47	228.76
907.77	228.80
908.08	228.78
908.38	228.69
908.69	228.67
908.99	228.77
909.30	228.88
909.60	228.98
909.90	228.98
910.21	229.01
910.51	228.91
910.81	228.90
911.12	228.95
911.42	228.96
911.73	228.76
912.03	228.79
912.33	228.79
912.64	228.70
912.94	228.69
913.24	228.63
913.55	228.70
913.85	228.71
914.15	228.65
914.46	228.77
914.76	228.75
915.06	228.78
915.37	228.71
915.67	228.60
915.97	228.47
916.27	228.38
916.58	228.41
916.88	228.39
917.18	228.28
917.49	228.44
917.79	228.35
918.09	228.43
918.39	228.40
918.70	228.44
919.00	228.50
919.30	228.44
919.60	228.37
919.91	228.35
920.21	228.36
920.51	228.33
920.81	228.23
921.12	228.17
921.42	228.16
921.72	228.10
922.02	228.07
922.32	228.17
922.63	228.20
922.93	228.23
923.23	228.29
923.53	228.32
923.83	228.17
924.13	228.20
924.44	228.13
924.74	228.21
925.04	228.14
925.34	228.17
925.64	228.14
925.94	228.11
926.24	228.17
926.55	228.10
926.85	228.13
927.15	228.17
927.45	228.20
927.75	228.10
928.05	228.12
928.35	228.10
928.65	228.06
928.95	228.00
929.26	227.96
929.56	227.95
929.86	227.95
930.16	227.95
930.46	227.98
930.76	228.00
931.06	227.86
931.36	227.89
931.66	227.92
931.96	227.96
932.26	228.02
932.56	227.93
932.86	227.95
933.16	227.92
933.46	227.93
933.76	227.97
934.06	228.05
934.36	228.12
934.66	228.08
934.96	227.98
935.26	228.03
935.56	228.03
935.86	227.95
936.16	227.88
936.46	227.89
936.76	227.84
937.06	227.82
937.36	227.89
937.66	227.83
937.96	227.85
938.26	227.76
938.56	227.80
938.86	227.79
939.16	227.83
939.46	227.92
939.76	227.93
940.06	227.86
940.35	227.78
940.65	227.72
940.95	227.92
941.25	227.93
941.55	227.88
941.85	227.86
942.15	227.97
942.45	228.15
942.75	228.15
943.04	228.17
943.34	228.18
943.64	228.11
943.94	228.10
944.24	228.13
944.54	228.20
944.84	228.12
945.13	228.20
945.43	228.14
945.73	228.09
946.03	228.06
946.33	228.10
946.62	228.14
946.92	228.06
947.22	228.00
947.52	228.03
947.82	228.11
948.11	228.07
948.41	228.04
948.71	227.89
949.01	227.84
949.31	227.89
949.60	227.80
949.90	227.89
950.20	228.06
950.50	227.99
950.79	227.97
951.09	228.05
951.39	228.00
951.69	227.97
951.98	227.99
952.28	227.93
952.58	228.01
952.87	227.97
953.17	228.04
953.47	227.97
953.76	228.01
954.06	228.02
954.36	228.08
954.66	228.00
954.95	228.11
955.25	228.15
955.55	228.07
955.84	228.16
956.14	228.08
956.44	228.04
956.73	227.95
957.03	227.94
957.32	227.89
957.62	227.87
957.92	227.85
958.21	227.84
958.51	228.06
958.81	227.99
959.10	228.04
959.40	228.08
959.69	228.09
959.99	228.02
960.29	228.00
960.58	227.93
960.88	228.10
961.17	228.04
961.47	228.13
961.76	228.15
962.06	228.14
962.36	228.22
962.65	228.12
962.95	228.24
963.24	228.20
963.54	228.16
963.83	228.20
964.13	228.24
964.42	228.19
964.72	228.03
965.01	228.11
965.31	228.09
965.60	227.99
965.90	228.15
966.19	228.21
966.49	228.20
966.78	228.15
967.08	228.19
967.37	228.22
967.67	228.12
967.96	228.20
968.26	228.15
968.55	228.15
968.85	228.19
969.14	228.20
969.43	228.26
969.73	228.36
970.02	228.36
970.32	228.40
970.61	228.39
970.91	228.44
971.20	228.32
971.49	228.27
971.79	228.33
972.08	228.22
972.38	228.13
972.67	228.14
972.96	228.25
973.26	228.04
973.55	228.08
973.85	228.11
974.14	228.06
974.43	228.08
974.73	228.06
975.02	227.96
975.31	227.98
975.61	228.00
975.90	227.98
976.19	227.96
976.49	227.86
976.78	228.00
977.07	227.96
977.37	227.95
977.66	228.01
977.95	228.00
978.24	228.01
978.54	228.04
978.83	228.01
979.12	228.00
979.42	228.10
979.71	228.08
980.00	228.02
980.29	228.01
980.59	227.96
980.88	227.97
981.17	227.94
981.46	227.89
981.76	227.91
982.05	227.94
982.34	227.88
982.63	227.97
982.93	227.92
983.22	227.91
983.51	227.96
983.80	228.00
984.09	227.93
984.39	227.97
984.68	227.98
984.97	227.88
985.26	227.84
985.55	227.90
985.85	227.79
986.14	227.79
986.43	227.88
986.72	227.92
987.01	227.90
987.30	227.97
987.59	227.96
987.89	227.94
988.18	227.88
988.47	227.86
988.76	227.88
989.05	227.71
989.34	227.78
989.63	227.84
989.92	227.80
990.22	227.80
990.51	227.68
990.80	227.70
991.09	227.86
991.38	227.95
991.67	227.93
991.96	227.93
992.25	228.02
992.54	227.95
992.83	227.93
993.12	227.90
993.41	228.01
993.70	228.04
993.99	228.03
994.28	228.07
994.58	228.19
994.87	228.19
995.16	228.25
995.45	228.14
995.74	228.11
996.03	228.17
996.32	228.23
996.61	228.31
996.90	228.27
997.19	228.23
997.48	228.22
997.77	228.20
998.06	228.15
998.34	228.09
998.63	228.10
998.92	228.16
999.21	228.15
999.50	228.05
999.79	227.98
1000.08	228.04
1000.37	228.14
1000.66	228.13
1000.95	228.11
1001.24	228.15
1001.53	228.28
1001.82	228.24
1002.11	228.15
1002.40	228.15
1002.68	228.24
1002.97	228.35
1003.26	228.31
1003.55	228.27
1003.84	228.30
1004.13	228.42
1004.42	228.48
1004.71	228.50
1004.99	228.43
1005.28	228.48
1005.57	228.43
1005.86	228.40
1006.15	228.42
1006.44	228.30
1006.72	228.27
1007.01	228.16
1007.30	228.17
1007.59	228.23
1007.88	228.20
1008.17	228.22
1008.45	228.27
1008.74	228.08
1009.03	228.02
1009.32	228.05
1009.60	228.03
1009.89	227.99
1010.18	227.85
1010.47	227.82
1010.76	227.80
1011.04	227.85
1011.33	227.82
1011.62	227.92
1011.91	228.04
1012.19	227.93
1012.48	227.87
1012.77	227.91
1013.05	228.12
1013.34	228.19
1013.63	228.08
1013.92	228.11
1014.20	228.15
1014.49	228.16
1014.78	228.25
1015.06	228.15
1015.35	228.19
1015.64	228.20
1015.92	228.23
1016.21	228.34
1016.50	228.24
1016.78	228.21
1017.07	228.23
1017.36	228.30
1017.64	228.31
1017.93	228.26
1018.22	228.28
1018.50	228.31
1018.79	228.20
1019.08	228.10
1019.36	228.07
1019.65	228.00
1019.93	228.12
1020.22	228.22
1020.51	228.19
1020.79	228.24
1021.08	227.70
1021.36	227.30
1021.65	227.00
1021.94	228.90
1022.22	227.90
1022.51	227.50
1022.79	231.00
1023.08	229.80
1023.36	228.30
1023.65	229.20
>>>>>End Processed Spectral Data<<<<<
