SpectraSuite Data File
++++++++++++++++++++++++++++++++++++
Date: Fri Feb 01 14:40:46 EST 2013
User: group
Dark Spectrum Present: No
Reference Spectrum Present: No
Number of Sampled Component Spectra: 1
Spectrometers: USB2E7196
Integration Time (usec): 70000 (USB2E7196)
Spectra Averaged: 10 (USB2E7196)
Boxcar Smoothing: 10 (USB2E7196)
Correct for Electrical Dark: No (USB2E7196)
Strobe/Lamp Enabled: No (USB2E7196)
Correct for Detector Non-linearity: No (USB2E7196)
Correct for Stray Light: No (USB2E7196)
Number of Pixels in Processed Spectrum: 2048
>>>>>Begin Processed Spectral Data<<<<<
339.09	0.00
339.48	216.20
339.86	218.80
340.24	220.50
340.63	222.00
341.01	224.90
341.39	222.50
341.78	222.90
342.16	225.50
342.54	227.10
342.93	214.74
343.31	225.61
343.69	226.20
344.07	226.51
344.46	226.93
344.84	227.30
345.22	227.40
345.60	227.61
345.99	227.85
346.37	228.00
346.75	228.02
347.13	228.00
347.52	227.98
347.90	228.13
348.28	228.24
348.66	228.32
349.05	228.35
349.43	228.40
349.81	228.36
350.19	228.38
350.57	228.49
350.96	228.55
351.34	228.57
351.72	228.61
352.10	228.90
352.48	228.87
352.87	228.98
353.25	229.06
353.63	229.29
354.01	229.30
354.39	229.42
354.77	229.52
355.15	229.73
355.54	229.73
355.92	229.70
356.30	229.77
356.68	230.00
357.06	230.11
357.44	230.08
357.82	230.20
358.20	230.32
358.58	230.23
358.97	230.24
359.35	230.30
359.73	230.46
360.11	230.42
360.49	230.47
360.87	230.33
361.25	230.36
361.63	230.36
362.01	230.44
362.39	230.38
362.77	230.40
363.15	230.46
363.53	230.59
363.91	230.60
364.29	230.65
364.67	230.40
365.05	230.32
365.43	230.33
365.81	230.35
366.19	230.37
366.57	230.45
366.95	230.50
367.33	230.48
367.71	230.40
368.09	230.40
368.47	230.43
368.85	230.50
369.23	230.56
369.61	230.42
369.99	230.46
370.37	230.43
370.75	230.46
371.13	230.28
371.51	230.16
371.89	230.10
372.27	230.04
372.65	230.03
373.03	230.07
373.41	230.03
373.78	229.96
374.16	229.82
374.54	229.75
374.92	229.60
375.30	229.54
375.68	229.34
376.06	229.34
376.44	229.24
376.82	229.06
377.19	229.04
377.57	229.06
377.95	228.90
378.33	228.80
378.71	228.65
379.09	228.57
379.47	228.50
379.84	228.46
380.22	228.27
380.60	228.15
380.98	228.10
381.36	228.04
381.73	227.86
382.11	227.72
382.49	227.67
382.87	227.63
383.25	227.47
383.62	227.64
384.00	227.42
384.38	227.27
384.76	227.35
385.13	227.26
385.51	227.18
385.89	227.18
386.27	227.20
386.64	227.16
387.02	227.27
387.40	227.27
387.78	227.27
388.15	227.36
388.53	227.32
388.91	227.26
389.29	227.28
389.66	227.40
390.04	227.49
390.42	227.48
390.79	227.56
391.17	227.70
391.55	227.50
391.92	227.58
392.30	227.70
392.68	227.72
393.05	227.81
393.43	227.91
393.81	227.92
394.18	227.92
394.56	228.00
394.94	227.98
395.31	227.97
395.69	228.09
396.06	228.18
396.44	228.29
396.82	228.40
397.19	228.58
397.57	228.66
397.95	228.69
398.32	228.71
398.70	228.82
399.07	228.91
399.45	228.97
399.82	229.17
400.20	229.22
400.58	229.26
400.95	229.19
401.33	229.32
401.70	229.70
402.08	229.78
402.45	229.88
402.83	230.15
403.20	230.33
403.58	230.38
403.95	230.42
404.33	230.54
404.71	230.66
405.08	230.80
405.46	230.94
405.83	231.03
406.21	231.31
406.58	231.38
406.96	231.58
407.33	231.89
407.70	231.96
408.08	232.37
408.45	232.54
408.83	232.86
409.20	233.04
409.58	232.97
409.95	233.35
410.33	233.63
410.70	233.72
411.08	234.03
411.45	234.28
411.82	234.58
412.20	234.88
412.57	235.29
412.95	235.55
413.32	235.99
413.69	236.46
414.07	236.74
414.44	237.21
414.82	237.69
415.19	238.19
415.56	238.84
415.94	239.29
416.31	239.96
416.68	240.54
417.06	241.13
417.43	241.87
417.81	242.50
418.18	243.29
418.55	244.12
418.93	244.84
419.30	245.74
419.67	246.63
420.04	247.63
420.42	248.48
420.79	249.66
421.16	250.75
421.54	251.97
421.91	253.27
422.28	254.52
422.66	255.76
423.03	257.10
423.40	258.34
423.77	259.70
424.15	261.08
424.52	262.72
424.89	264.35
425.26	265.91
425.64	267.33
426.01	268.92
426.38	270.59
426.75	272.42
427.13	274.11
427.50	276.06
427.87	277.99
428.24	279.97
428.61	281.80
428.99	283.79
429.36	285.87
429.73	288.00
430.10	290.11
430.47	292.37
430.85	294.47
431.22	296.81
431.59	299.32
431.96	301.62
432.33	304.07
432.70	306.60
433.08	309.55
433.45	312.31
433.82	314.99
434.19	318.08
434.56	321.02
434.93	323.78
435.30	326.39
435.68	329.41
436.05	332.30
436.42	335.10
436.79	337.87
437.16	340.80
437.53	343.75
437.90	346.64
438.27	349.51
438.64	352.57
439.01	355.43
439.38	357.71
439.75	360.26
440.13	362.92
440.50	365.44
440.87	367.35
441.24	369.40
441.61	371.69
441.98	373.10
442.35	374.98
442.72	376.95
443.09	379.03
443.46	380.04
443.83	380.66
444.20	381.23
444.57	381.86
444.94	382.14
445.31	382.55
445.68	383.09
446.05	383.27
446.42	382.78
446.79	382.23
447.16	381.81
447.53	381.29
447.90	380.01
448.27	378.76
448.64	377.25
449.01	376.20
449.37	374.17
449.74	372.33
450.11	370.12
450.48	367.62
450.85	364.92
451.22	362.72
451.59	360.80
451.96	358.85
452.33	356.21
452.70	353.80
453.07	350.75
453.43	347.56
453.80	344.35
454.17	341.46
454.54	338.80
454.91	335.90
455.28	333.17
455.65	330.60
456.02	328.24
456.38	325.78
456.75	322.86
457.12	320.45
457.49	318.12
457.86	315.79
458.23	313.88
458.59	311.65
458.96	309.44
459.33	307.44
459.70	305.38
460.07	303.83
460.43	302.04
460.80	300.25
461.17	298.80
461.54	297.31
461.91	295.90
462.27	294.26
462.64	292.97
463.01	291.36
463.38	289.93
463.74	288.22
464.11	287.00
464.48	285.95
464.85	284.81
465.21	283.79
465.58	282.67
465.95	281.43
466.32	280.46
466.68	279.52
467.05	278.39
467.42	277.34
467.78	276.23
468.15	275.15
468.52	274.43
468.88	273.40
469.25	272.51
469.62	271.69
469.98	270.96
470.35	270.20
470.72	269.56
471.08	268.78
471.45	268.20
471.82	267.59
472.18	266.86
472.55	266.23
472.92	265.48
473.28	264.82
473.65	264.23
474.02	263.71
474.38	263.19
474.75	262.78
475.11	262.31
475.48	261.85
475.85	261.47
476.21	261.10
476.58	260.79
476.94	260.46
477.31	260.25
477.67	259.98
478.04	259.70
478.41	259.45
478.77	259.38
479.14	259.05
479.50	258.81
479.87	258.59
480.23	258.42
480.60	258.33
480.96	258.30
481.33	258.18
481.69	257.96
482.06	257.86
482.42	257.85
482.79	257.86
483.15	257.95
483.52	257.93
483.88	257.92
484.25	257.94
484.61	258.05
484.98	258.10
485.34	258.21
485.71	258.36
486.07	258.60
486.44	258.67
486.80	258.94
487.17	259.19
487.53	259.59
487.90	259.98
488.26	260.47
488.62	260.86
488.99	261.38
489.35	261.90
489.72	262.43
490.08	262.90
490.44	263.42
490.81	264.01
491.17	264.66
491.54	265.41
491.90	266.22
492.26	266.99
492.63	267.69
492.99	268.63
493.36	269.60
493.72	270.65
494.08	271.60
494.45	272.70
494.81	273.95
495.17	275.20
495.54	276.52
495.90	277.79
496.26	279.23
496.63	280.69
496.99	282.23
497.35	283.85
497.72	285.62
498.08	287.54
498.44	289.55
498.80	291.57
499.17	293.80
499.53	296.00
499.89	298.39
500.26	301.02
500.62	303.53
500.98	306.21
501.34	308.90
501.71	312.00
502.07	315.08
502.43	318.21
502.79	321.50
503.16	325.01
503.52	328.42
503.88	332.10
504.24	335.96
504.60	340.10
504.97	344.26
505.33	348.50
505.69	353.05
506.05	357.80
506.41	362.67
506.78	367.58
507.14	372.70
507.50	378.04
507.86	383.70
508.22	389.38
508.59	395.12
508.95	401.17
509.31	407.35
509.67	414.04
510.03	420.59
510.39	427.55
510.75	434.44
511.12	441.83
511.48	449.13
511.84	456.76
512.20	464.61
512.56	472.62
512.92	480.70
513.28	489.15
513.64	497.47
514.00	506.34
514.37	515.38
514.73	524.54
515.09	533.63
515.45	542.86
515.81	552.43
516.17	562.59
516.53	572.50
516.89	582.70
517.25	592.85
517.61	603.37
517.97	613.57
518.33	624.42
518.69	635.44
519.05	646.84
519.41	658.13
519.77	669.53
520.13	681.31
520.49	693.17
520.85	704.65
521.21	716.57
521.57	728.81
521.93	740.69
522.29	753.38
522.65	765.88
523.01	778.61
523.37	791.09
523.73	803.71
524.09	816.75
524.45	829.82
524.81	842.81
525.17	855.91
525.53	869.62
525.89	882.98
526.25	896.57
526.61	910.00
526.97	923.70
527.33	937.39
527.68	951.54
528.04	965.61
528.40	979.64
528.76	994.08
529.12	1008.31
529.48	1023.13
529.84	1037.16
530.20	1052.10
530.56	1067.03
530.91	1082.17
531.27	1097.06
531.63	1111.69
531.99	1126.26
532.35	1140.84
532.71	1155.39
533.07	1170.45
533.42	1185.31
533.78	1199.80
534.14	1214.49
534.50	1229.06
534.86	1243.78
535.21	1257.55
535.57	1272.21
535.93	1287.16
536.29	1301.67
536.65	1316.04
537.00	1329.70
537.36	1344.22
537.72	1357.92
538.08	1371.72
538.44	1385.30
538.79	1399.10
539.15	1412.99
539.51	1426.82
539.87	1441.08
540.22	1455.08
540.58	1468.48
540.94	1482.01
541.29	1495.68
541.65	1508.82
542.01	1522.15
542.37	1535.38
542.72	1548.44
543.08	1561.02
543.44	1573.67
543.79	1585.64
544.15	1597.56
544.51	1610.67
544.87	1622.83
545.22	1634.98
545.58	1646.70
545.94	1657.55
546.29	1668.81
546.65	1679.80
547.01	1690.47
547.36	1700.58
547.72	1711.03
548.07	1721.54
548.43	1731.73
548.79	1741.52
549.14	1751.26
549.50	1760.57
549.86	1769.73
550.21	1778.89
550.57	1788.40
550.92	1797.39
551.28	1806.28
551.64	1815.17
551.99	1823.38
552.35	1831.34
552.70	1839.47
553.06	1847.91
553.41	1857.03
553.77	1864.98
554.13	1873.26
554.48	1881.33
554.84	1888.83
555.19	1896.30
555.55	1903.29
555.90	1910.32
556.26	1917.34
556.61	1924.56
556.97	1931.24
557.32	1938.03
557.68	1945.18
558.03	1951.42
558.39	1957.49
558.74	1964.49
559.10	1971.10
559.45	1977.36
559.81	1984.46
560.16	1990.05
560.52	1995.62
560.87	2001.63
561.23	2006.85
561.58	2012.17
561.94	2017.57
562.29	2022.50
562.64	2026.94
563.00	2031.27
563.35	2036.81
563.71	2042.17
564.06	2047.07
564.42	2051.99
564.77	2056.22
565.12	2060.66
565.48	2065.29
565.83	2069.06
566.19	2072.41
566.54	2075.51
566.89	2078.73
567.25	2081.23
567.60	2085.42
567.96	2088.32
568.31	2090.30
568.66	2093.18
569.02	2095.63
569.37	2097.45
569.72	2099.91
570.08	2102.01
570.43	2104.30
570.78	2104.96
571.14	2105.45
571.49	2106.48
571.84	2108.21
572.20	2108.81
572.55	2109.10
572.90	2108.82
573.26	2109.66
573.61	2109.99
573.96	2109.93
574.31	2109.06
574.67	2107.56
575.02	2105.93
575.37	2104.32
575.72	2102.95
576.08	2102.01
576.43	2100.27
576.78	2098.82
577.13	2097.55
577.49	2096.17
577.84	2094.58
578.19	2092.81
578.54	2090.84
578.90	2088.30
579.25	2084.65
579.60	2081.85
579.95	2078.76
580.30	2076.00
580.66	2072.90
581.01	2069.70
581.36	2066.68
581.71	2064.40
582.06	2061.85
582.42	2058.34
582.77	2055.13
583.12	2051.51
583.47	2048.11
583.82	2044.98
584.17	2041.29
584.53	2037.79
584.88	2034.00
585.23	2029.77
585.58	2025.98
585.93	2022.00
586.28	2018.90
586.63	2015.73
586.98	2012.62
587.34	2009.06
587.69	2005.06
588.04	2000.83
588.39	1996.96
588.74	1991.92
589.09	1986.56
589.44	1981.90
589.79	1977.76
590.14	1973.82
590.49	1969.59
590.84	1964.28
591.19	1959.33
591.54	1953.98
591.89	1947.55
592.25	1942.29
592.60	1936.54
592.95	1930.68
593.30	1924.80
593.65	1918.00
594.00	1912.01
594.35	1906.32
594.70	1900.03
595.05	1894.54
595.40	1888.50
595.75	1881.71
596.10	1876.58
596.45	1871.54
596.80	1866.46
597.15	1860.69
597.50	1854.96
597.85	1849.36
598.19	1844.12
598.54	1838.38
598.89	1833.23
599.24	1828.91
599.59	1823.53
599.94	1818.29
600.29	1812.84
600.64	1807.76
600.99	1801.64
601.34	1795.93
601.69	1789.68
602.04	1784.45
602.39	1778.27
602.74	1773.18
603.08	1768.63
603.43	1763.23
603.78	1757.09
604.13	1750.66
604.48	1744.62
604.83	1738.29
605.18	1732.40
605.53	1725.41
605.87	1718.40
606.22	1711.99
606.57	1705.25
606.92	1698.80
607.27	1692.86
607.62	1686.63
607.96	1680.30
608.31	1674.72
608.66	1667.89
609.01	1660.83
609.36	1653.02
609.70	1645.37
610.05	1637.42
610.40	1629.67
610.75	1621.91
611.10	1614.38
611.44	1606.28
611.79	1599.33
612.14	1591.86
612.49	1583.48
612.83	1575.85
613.18	1569.03
613.53	1561.65
613.88	1553.52
614.22	1545.89
614.57	1537.83
614.92	1530.20
615.27	1522.61
615.61	1514.73
615.96	1507.17
616.31	1499.94
616.65	1493.54
617.00	1486.97
617.35	1480.21
617.70	1472.68
618.04	1465.02
618.39	1458.26
618.74	1451.58
619.08	1443.85
619.43	1436.81
619.78	1430.30
620.12	1423.70
620.47	1415.99
620.82	1408.40
621.16	1401.57
621.51	1394.59
621.85	1387.40
622.20	1379.97
622.55	1372.82
622.89	1366.12
623.24	1359.49
623.59	1352.82
623.93	1345.86
624.28	1338.78
624.62	1331.83
624.97	1324.98
625.32	1318.49
625.66	1311.76
626.01	1304.94
626.35	1297.98
626.70	1290.95
627.04	1284.17
627.39	1276.98
627.73	1270.67
628.08	1264.19
628.43	1257.16
628.77	1250.21
629.12	1243.21
629.46	1236.08
629.81	1228.43
630.15	1220.90
630.50	1213.60
630.84	1206.05
631.19	1198.28
631.53	1190.99
631.88	1183.35
632.22	1175.83
632.57	1168.94
632.91	1161.34
633.26	1154.19
633.60	1146.72
633.95	1139.57
634.29	1132.71
634.64	1126.18
634.98	1118.87
635.32	1112.11
635.67	1105.98
636.01	1099.49
636.36	1092.94
636.70	1086.77
637.05	1080.72
637.39	1074.71
637.73	1068.21
638.08	1062.56
638.42	1056.61
638.77	1050.71
639.11	1044.83
639.45	1039.05
639.80	1032.64
640.14	1026.64
640.49	1020.66
640.83	1014.93
641.17	1008.91
641.52	1002.82
641.86	996.49
642.20	990.40
642.55	984.41
642.89	978.29
643.23	971.82
643.58	966.23
643.92	960.28
644.26	954.38
644.61	948.37
644.95	942.62
645.29	936.03
645.64	930.10
645.98	924.15
646.32	918.42
646.66	912.55
647.01	906.73
647.35	901.07
647.69	895.16
648.04	889.77
648.38	883.85
648.72	877.60
649.06	871.70
649.41	866.23
649.75	860.15
650.09	853.97
650.43	848.20
650.78	841.82
651.12	835.93
651.46	830.10
651.80	824.58
652.14	819.04
652.49	813.51
652.83	807.98
653.17	802.10
653.51	796.13
653.85	790.48
654.20	784.87
654.54	778.82
654.88	773.22
655.22	767.36
655.56	761.90
655.90	756.72
656.25	751.30
656.59	745.81
656.93	740.73
657.27	735.85
657.61	730.78
657.95	725.98
658.29	720.93
658.64	716.01
658.98	710.62
659.32	705.28
659.66	700.42
660.00	695.38
660.34	690.47
660.68	685.47
661.02	680.54
661.36	675.88
661.70	671.63
662.05	667.26
662.39	663.00
662.73	658.66
663.07	654.20
663.41	650.18
663.75	645.92
664.09	641.52
664.43	637.25
664.77	633.30
665.11	629.06
665.45	625.10
665.79	620.95
666.13	617.05
666.47	613.01
666.81	608.79
667.15	604.75
667.49	601.00
667.83	597.53
668.17	593.75
668.51	589.89
668.85	585.82
669.19	582.20
669.53	578.27
669.87	574.59
670.21	571.10
670.55	567.54
670.89	564.20
671.23	560.85
671.57	557.23
671.91	553.50
672.25	550.17
672.58	546.61
672.92	543.27
673.26	540.07
673.60	537.09
673.94	534.21
674.28	531.17
674.62	528.22
674.96	525.05
675.30	522.17
675.64	519.42
675.97	516.93
676.31	513.89
676.65	511.05
676.99	508.35
677.33	505.42
677.67	502.43
678.01	499.50
678.34	496.63
678.68	493.93
679.02	491.24
679.36	488.56
679.70	485.85
680.04	483.21
680.37	480.35
680.71	477.60
681.05	475.00
681.39	472.69
681.73	470.15
682.06	467.57
682.40	465.00
682.74	462.16
683.08	459.41
683.42	456.81
683.75	454.35
684.09	451.76
684.43	449.37
684.77	447.13
685.10	444.64
685.44	442.17
685.78	439.92
686.12	437.66
686.45	435.26
686.79	433.05
687.13	430.77
687.46	428.57
687.80	426.38
688.14	423.98
688.48	421.50
688.81	419.07
689.15	417.04
689.49	414.81
689.82	412.80
690.16	410.61
690.50	408.63
690.83	406.57
691.17	404.35
691.51	402.18
691.84	400.11
692.18	398.20
692.52	396.10
692.85	394.12
693.19	392.12
693.52	390.14
693.86	388.21
694.20	386.40
694.53	384.53
694.87	382.74
695.21	380.98
695.54	379.20
695.88	377.45
696.21	375.49
696.55	373.86
696.88	372.12
697.22	370.41
697.56	368.65
697.89	366.99
698.23	365.51
698.56	363.89
698.90	362.17
699.23	360.39
699.57	359.08
699.90	357.46
700.24	355.78
700.58	354.27
700.91	352.45
701.25	350.89
701.58	349.44
701.92	347.80
702.25	346.39
702.59	344.94
702.92	343.56
703.26	342.36
703.59	340.94
703.93	339.77
704.26	338.50
704.60	337.16
704.93	335.89
705.26	334.57
705.60	333.38
705.93	332.27
706.27	331.14
706.60	329.81
706.94	328.69
707.27	327.52
707.61	326.41
707.94	325.56
708.27	324.43
708.61	323.25
708.94	322.34
709.28	321.32
709.61	320.27
709.94	319.30
710.28	318.17
710.61	317.26
710.95	316.01
711.28	315.08
711.61	314.07
711.95	312.99
712.28	311.98
712.61	311.02
712.95	310.06
713.28	309.21
713.61	308.30
713.95	307.20
714.28	306.38
714.61	305.41
714.95	304.53
715.28	303.55
715.61	302.67
715.95	301.68
716.28	300.81
716.61	299.90
716.95	299.04
717.28	298.20
717.61	297.33
717.94	296.57
718.28	295.67
718.61	294.89
718.94	294.07
719.27	293.21
719.61	292.40
719.94	291.65
720.27	290.88
720.60	290.13
720.94	289.53
721.27	288.95
721.60	288.30
721.93	287.69
722.27	287.11
722.60	286.54
722.93	285.86
723.26	285.15
723.59	284.66
723.93	284.07
724.26	283.40
724.59	282.78
724.92	282.09
725.25	281.46
725.59	280.89
725.92	280.32
726.25	279.87
726.58	279.31
726.91	278.68
727.24	278.13
727.57	277.63
727.91	276.97
728.24	276.32
728.57	275.76
728.90	275.08
729.23	274.41
729.56	273.97
729.89	273.46
730.22	272.93
730.55	272.42
730.89	271.93
731.22	271.48
731.55	270.90
731.88	270.41
732.21	269.97
732.54	269.47
732.87	269.07
733.20	268.56
733.53	268.10
733.86	267.70
734.19	267.13
734.52	266.63
734.85	266.34
735.18	265.91
735.51	265.52
735.84	265.22
736.17	264.82
736.50	264.20
736.83	264.06
737.16	263.63
737.49	263.04
737.82	262.53
738.15	262.17
738.48	261.85
738.81	261.52
739.14	261.09
739.47	260.67
739.80	260.20
740.13	259.86
740.46	259.60
740.79	259.08
741.12	258.82
741.45	258.52
741.78	258.12
742.11	257.76
742.44	257.38
742.77	257.04
743.10	256.78
743.43	256.55
743.75	256.02
744.08	256.07
744.41	255.94
744.74	255.78
745.07	255.31
745.40	255.02
745.73	254.82
746.06	254.58
746.39	254.36
746.71	254.08
747.04	253.75
747.37	253.46
747.70	253.36
748.03	253.05
748.36	252.87
748.68	252.60
749.01	252.27
749.34	252.03
749.67	251.75
750.00	251.55
750.33	251.38
750.65	251.23
750.98	250.70
751.31	250.39
751.64	250.04
751.97	250.00
752.29	249.81
752.62	249.54
752.95	249.35
753.28	249.05
753.60	248.83
753.93	248.68
754.26	248.49
754.59	248.15
754.91	247.90
755.24	247.67
755.57	247.43
755.90	247.36
756.22	247.04
756.55	246.72
756.88	246.40
757.20	246.21
757.53	245.86
757.86	245.68
758.19	245.57
758.51	245.44
758.84	245.20
759.17	244.89
759.49	244.88
759.82	244.79
760.15	244.72
760.47	244.64
760.80	244.33
761.13	244.08
761.45	244.00
761.78	243.83
762.11	243.73
762.43	243.50
762.76	243.20
763.08	243.20
763.41	243.07
763.74	242.95
764.06	242.70
764.39	242.59
764.71	242.28
765.04	242.02
765.37	241.83
765.69	241.62
766.02	241.46
766.34	241.05
766.67	240.77
767.00	240.62
767.32	240.55
767.65	240.54
767.97	240.39
768.30	240.23
768.62	240.09
768.95	239.78
769.27	239.63
769.60	239.57
769.92	239.34
770.25	239.23
770.57	239.12
770.90	239.11
771.22	238.92
771.55	238.87
771.87	238.81
772.20	238.69
772.52	238.72
772.85	238.83
773.17	238.74
773.50	238.57
773.82	238.36
774.15	238.05
774.47	237.79
774.80	237.63
775.12	237.50
775.45	237.42
775.77	237.22
776.09	237.14
776.42	237.05
776.74	237.02
777.07	236.89
777.39	236.68
777.72	236.40
778.04	236.33
778.36	236.30
778.69	236.20
779.01	236.10
779.33	235.84
779.66	235.63
779.98	235.60
780.31	235.60
780.63	235.59
780.95	235.54
781.28	235.56
781.60	235.59
781.92	235.42
782.25	235.35
782.57	235.42
782.89	235.38
783.22	235.23
783.54	235.27
783.86	235.27
784.19	235.33
784.51	235.32
784.83	235.32
785.16	235.20
785.48	235.23
785.80	235.10
786.12	235.13
786.45	235.04
786.77	234.90
787.09	234.72
787.42	234.60
787.74	234.61
788.06	234.53
788.38	234.43
788.71	234.46
789.03	234.39
789.35	234.37
789.67	234.25
789.99	234.16
790.32	234.03
790.64	233.98
790.96	234.12
791.28	234.05
791.61	233.93
791.93	233.93
792.25	233.79
792.57	234.04
792.89	233.94
793.21	233.90
793.54	234.02
793.86	234.03
794.18	234.06
794.50	234.00
794.82	233.99
795.14	233.91
795.47	233.85
795.79	233.91
796.11	233.84
796.43	233.72
796.75	233.80
797.07	233.76
797.39	233.68
797.71	233.40
798.04	233.40
798.36	233.38
798.68	233.31
799.00	233.26
799.32	233.10
799.64	233.13
799.96	233.11
800.28	232.90
800.60	232.82
800.92	232.74
801.24	232.63
801.56	232.64
801.89	232.63
802.21	232.63
802.53	232.45
802.85	232.34
803.17	232.48
803.49	232.42
803.81	232.30
804.13	232.26
804.45	232.25
804.77	232.17
805.09	232.20
805.41	232.13
805.73	232.02
806.05	231.85
806.37	231.84
806.69	231.74
807.01	231.80
807.33	231.83
807.65	231.72
807.97	231.73
808.28	231.60
808.60	231.50
808.92	231.41
809.24	231.38
809.56	231.24
809.88	231.03
810.20	230.99
810.52	230.93
810.84	230.90
811.16	230.80
811.48	230.80
811.80	230.63
812.12	230.59
812.43	230.66
812.75	230.62
813.07	230.42
813.39	230.39
813.71	230.28
814.03	230.20
814.35	230.19
814.67	230.09
814.98	229.98
815.30	229.85
815.62	229.77
815.94	229.70
816.26	229.88
816.58	229.93
816.89	229.88
817.21	229.93
817.53	229.86
817.85	229.85
818.17	229.64
818.48	229.69
818.80	229.60
819.12	229.39
819.44	229.35
819.76	229.29
820.07	229.30
820.39	229.25
820.71	229.21
821.03	229.19
821.34	229.12
821.66	229.18
821.98	229.25
822.30	229.25
822.61	229.42
822.93	229.38
823.25	229.38
823.57	229.27
823.88	229.25
824.20	229.26
824.52	229.21
824.83	229.40
825.15	229.28
825.47	229.38
825.79	229.51
826.10	229.50
826.42	229.51
826.74	229.51
827.05	229.54
827.37	229.56
827.69	229.62
828.00	229.65
828.32	229.65
828.64	229.72
828.95	229.87
829.27	229.81
829.58	229.73
829.90	229.81
830.22	229.97
830.53	230.03
830.85	229.99
831.17	229.98
831.48	229.96
831.80	230.02
832.11	230.03
832.43	230.01
832.75	230.03
833.06	230.21
833.38	230.15
833.69	230.18
834.01	230.27
834.32	230.33
834.64	230.39
834.96	230.39
835.27	230.41
835.59	230.26
835.90	230.13
836.22	230.10
836.53	230.02
836.85	229.91
837.16	230.00
837.48	230.03
837.79	230.13
838.11	230.13
838.42	230.16
838.74	230.17
839.05	230.11
839.37	230.11
839.68	229.91
840.00	229.89
840.31	229.96
840.63	230.02
840.94	229.94
841.26	229.93
841.57	229.96
841.88	229.84
842.20	229.80
842.51	229.77
842.83	229.77
843.14	229.98
843.46	229.93
843.77	229.88
844.08	229.82
844.40	229.70
844.71	229.66
845.03	229.61
845.34	229.47
845.65	229.48
845.97	229.45
846.28	229.51
846.60	229.47
846.91	229.32
847.22	229.22
847.54	229.10
847.85	229.02
848.16	228.96
848.48	229.03
848.79	229.09
849.10	229.17
849.42	229.23
849.73	228.93
850.04	228.99
850.36	228.83
850.67	228.85
850.98	228.87
851.30	228.81
851.61	228.81
851.92	228.85
852.23	228.88
852.55	228.87
852.86	228.88
853.17	228.92
853.49	229.03
853.80	228.95
854.11	228.97
854.42	229.09
854.74	229.01
855.05	228.90
855.36	228.83
855.67	228.89
855.99	228.85
856.30	229.06
856.61	229.01
856.92	229.06
857.23	229.00
857.55	229.01
857.86	229.02
858.17	229.05
858.48	229.00
858.79	228.92
859.11	228.90
859.42	228.93
859.73	228.90
860.04	228.82
860.35	228.87
860.66	228.92
860.98	228.81
861.29	228.81
861.60	228.86
861.91	228.89
862.22	228.78
862.53	228.80
862.84	228.60
863.16	228.70
863.47	228.64
863.78	228.77
864.09	228.83
864.40	228.90
864.71	228.90
865.02	228.98
865.33	228.95
865.64	229.02
865.95	228.94
866.27	229.09
866.58	229.09
866.89	229.12
867.20	229.06
867.51	229.04
867.82	229.16
868.13	229.17
868.44	229.18
868.75	229.22
869.06	229.11
869.37	229.16
869.68	229.11
869.99	229.17
870.30	229.09
870.61	228.99
870.92	228.88
871.23	228.80
871.54	228.84
871.85	228.93
872.16	228.95
872.47	228.92
872.78	228.90
873.09	228.99
873.40	228.90
873.71	228.91
874.02	229.00
874.33	228.86
874.64	228.81
874.95	228.81
875.26	228.80
875.56	228.83
875.87	228.85
876.18	228.85
876.49	228.96
876.80	228.96
877.11	228.98
877.42	229.03
877.73	229.14
878.04	229.02
878.35	229.05
878.66	229.00
878.96	229.06
879.27	228.91
879.58	228.88
879.89	228.97
880.20	228.96
880.51	228.91
880.82	229.02
881.12	228.99
881.43	229.00
881.74	228.96
882.05	229.00
882.36	228.99
882.67	228.98
882.97	228.75
883.28	228.80
883.59	228.85
883.90	228.90
884.21	228.78
884.51	228.73
884.82	228.69
885.13	228.67
885.44	228.60
885.74	228.64
886.05	228.59
886.36	228.48
886.67	228.46
886.98	228.49
887.28	228.43
887.59	228.50
887.90	228.42
888.20	228.41
888.51	228.39
888.82	228.31
889.13	228.29
889.43	228.43
889.74	228.26
890.05	228.17
890.35	228.08
890.66	228.10
890.97	228.18
891.28	228.20
891.58	228.21
891.89	228.24
892.20	228.20
892.50	228.18
892.81	228.11
893.12	228.08
893.42	228.08
893.73	228.04
894.04	228.02
894.34	228.07
894.65	228.09
894.95	228.14
895.26	228.20
895.57	228.27
895.87	228.11
896.18	228.22
896.48	228.24
896.79	228.32
897.10	228.33
897.40	228.34
897.71	228.31
898.01	228.26
898.32	228.23
898.63	228.25
898.93	228.30
899.24	228.39
899.54	228.41
899.85	228.39
900.15	228.40
900.46	228.45
900.76	228.53
901.07	228.57
901.38	228.59
901.68	228.60
901.99	228.53
902.29	228.63
902.60	228.64
902.90	228.71
903.21	228.74
903.51	228.77
903.82	228.90
904.12	228.91
904.43	228.92
904.73	228.97
905.03	228.98
905.34	229.14
905.64	229.12
905.95	229.17
906.25	229.23
906.56	229.27
906.86	229.29
907.17	229.19
907.47	229.21
907.77	229.20
908.08	229.15
908.38	229.23
908.69	229.20
908.99	229.39
909.30	229.37
909.60	229.36
909.90	229.38
910.21	229.27
910.51	229.20
910.81	229.36
911.12	229.40
911.42	229.53
911.73	229.33
912.03	229.45
912.33	229.42
912.64	229.48
912.94	229.46
913.24	229.41
913.55	229.43
913.85	229.37
914.15	229.40
914.46	229.46
914.76	229.37
915.06	229.36
915.37	229.19
915.67	229.20
915.97	229.10
916.27	229.00
916.58	229.09
916.88	229.17
917.18	229.00
917.49	229.19
917.79	229.04
918.09	229.05
918.39	228.97
918.70	229.03
919.00	228.92
919.30	229.11
919.60	229.13
919.91	229.20
920.21	229.22
920.51	229.21
920.81	229.20
921.12	229.18
921.42	229.20
921.72	229.21
922.02	229.22
922.32	229.28
922.63	229.35
922.93	229.36
923.23	229.27
923.53	229.30
923.83	229.02
924.13	229.12
924.44	229.15
924.74	229.24
925.04	229.23
925.34	229.24
925.64	229.06
925.94	229.08
926.24	229.19
926.55	229.06
926.85	228.98
927.15	228.97
927.45	228.99
927.75	228.97
928.05	228.92
928.35	228.87
928.65	228.91
928.95	228.91
929.26	228.80
929.56	228.88
929.86	228.92
930.16	229.03
930.46	228.98
930.76	228.99
931.06	228.80
931.36	228.76
931.66	228.76
931.96	228.72
932.26	228.67
932.56	228.44
932.86	228.63
933.16	228.64
933.46	228.64
933.76	228.60
934.06	228.67
934.36	228.66
934.66	228.73
934.96	228.63
935.26	228.63
935.56	228.61
935.86	228.65
936.16	228.63
936.46	228.54
936.76	228.46
937.06	228.40
937.36	228.48
937.66	228.51
937.96	228.47
938.26	228.45
938.56	228.49
938.86	228.58
939.16	228.55
939.46	228.59
939.76	228.56
940.06	228.63
940.35	228.61
940.65	228.61
940.95	228.53
941.25	228.58
941.55	228.62
941.85	228.64
942.15	228.60
942.45	228.69
942.75	228.70
943.04	228.76
943.34	228.84
943.64	228.86
943.94	228.89
944.24	228.97
944.54	229.08
944.84	229.06
945.13	229.00
945.43	228.93
945.73	228.95
946.03	228.99
946.33	228.96
946.62	228.95
946.92	229.04
947.22	229.06
947.52	229.04
947.82	229.00
948.11	229.06
948.41	228.99
948.71	228.87
949.01	228.84
949.31	228.86
949.60	228.79
949.90	228.86
950.20	228.80
950.50	228.74
950.79	228.68
951.09	228.67
951.39	228.70
951.69	228.74
951.98	228.73
952.28	228.70
952.58	228.82
952.87	228.77
953.17	228.71
953.47	228.65
953.76	228.69
954.06	228.54
954.36	228.52
954.66	228.60
954.95	228.63
955.25	228.78
955.55	228.70
955.84	228.60
956.14	228.55
956.44	228.53
956.73	228.44
957.03	228.41
957.32	228.43
957.62	228.32
957.92	228.30
958.21	228.38
958.51	228.52
958.81	228.42
959.10	228.48
959.40	228.50
959.69	228.60
959.99	228.58
960.29	228.71
960.58	228.75
960.88	228.77
961.17	228.74
961.47	228.71
961.76	228.74
962.06	228.83
962.36	228.76
962.65	228.77
962.95	228.79
963.24	228.74
963.54	228.80
963.83	228.95
964.13	228.89
964.42	228.65
964.72	228.52
965.01	228.55
965.31	228.48
965.60	228.43
965.90	228.55
966.19	228.46
966.49	228.47
966.78	228.45
967.08	228.54
967.37	228.62
967.67	228.63
967.96	228.66
968.26	228.69
968.55	228.78
968.85	228.75
969.14	228.80
969.43	228.85
969.73	228.76
970.02	228.66
970.32	228.71
970.61	228.83
970.91	228.75
971.20	228.71
971.49	228.69
971.79	228.71
972.08	228.52
972.38	228.56
972.67	228.56
972.96	228.48
973.26	228.37
973.55	228.40
973.85	228.26
974.14	228.25
974.43	228.35
974.73	228.29
975.02	228.33
975.31	228.30
975.61	228.27
975.90	228.27
976.19	228.21
976.49	228.21
976.78	228.22
977.07	228.27
977.37	228.30
977.66	228.35
977.95	228.42
978.24	228.43
978.54	228.43
978.83	228.40
979.12	228.39
979.42	228.33
979.71	228.15
980.00	228.17
980.29	228.16
980.59	227.98
980.88	228.10
981.17	228.07
981.46	228.06
981.76	228.08
982.05	228.14
982.34	228.14
982.63	228.11
982.93	228.05
983.22	228.09
983.51	228.04
983.80	228.11
984.09	228.06
984.39	228.07
984.68	228.05
984.97	228.00
985.26	228.09
985.55	228.10
985.85	228.13
986.14	228.16
986.43	228.11
986.72	228.18
987.01	228.03
987.30	228.09
987.59	228.05
987.89	228.11
988.18	228.07
988.47	228.13
988.76	228.12
989.05	228.16
989.34	228.21
989.63	228.26
989.92	228.21
990.22	228.17
990.51	228.15
990.80	228.14
991.09	228.13
991.38	228.06
991.67	228.05
991.96	228.12
992.25	228.10
992.54	228.14
992.83	228.13
993.12	228.15
993.41	228.06
993.70	228.18
993.99	228.17
994.28	228.22
994.58	228.26
994.87	228.30
995.16	228.41
995.45	228.30
995.74	228.17
996.03	228.13
996.32	228.23
996.61	228.29
996.90	228.23
997.19	228.29
997.48	228.30
997.77	228.31
998.06	228.30
998.34	228.34
998.63	228.35
998.92	228.27
999.21	228.27
999.50	228.38
999.79	228.39
1000.08	228.35
1000.37	228.34
1000.66	228.20
1000.95	228.20
1001.24	228.06
1001.53	228.12
1001.82	228.13
1002.11	228.20
1002.40	228.10
1002.68	228.13
1002.97	228.36
1003.26	228.29
1003.55	228.31
1003.84	228.34
1004.13	228.32
1004.42	228.29
1004.71	228.29
1004.99	228.28
1005.28	228.29
1005.57	228.20
1005.86	228.16
1006.15	228.11
1006.44	228.06
1006.72	228.13
1007.01	228.07
1007.30	228.06
1007.59	227.99
1007.88	228.00
1008.17	227.90
1008.45	227.84
1008.74	227.80
1009.03	227.68
1009.32	227.68
1009.60	227.62
1009.89	227.56
1010.18	227.53
1010.47	227.60
1010.76	227.56
1011.04	227.68
1011.33	227.74
1011.62	227.77
1011.91	227.80
1012.19	227.86
1012.48	227.90
1012.77	227.85
1013.05	228.06
1013.34	228.04
1013.63	228.06
1013.92	228.13
1014.20	228.09
1014.49	228.18
1014.78	228.15
1015.06	228.04
1015.35	228.18
1015.64	228.19
1015.92	228.26
1016.21	228.27
1016.50	228.21
1016.78	228.30
1017.07	228.25
1017.36	228.22
1017.64	228.19
1017.93	228.08
1018.22	228.01
1018.50	227.98
1018.79	228.06
1019.08	227.85
1019.36	227.91
1019.65	227.92
1019.93	227.90
1020.22	228.00
1020.51	228.18
1020.79	228.19
1021.08	226.60
1021.36	227.20
1021.65	228.70
1021.94	227.00
1022.22	228.60
1022.51	227.80
1022.79	228.50
1023.08	228.30
1023.36	232.30
1023.65	228.10
>>>>>End Processed Spectral Data<<<<<
