SpectraSuite Data File
++++++++++++++++++++++++++++++++++++
Date: Fri Feb 01 14:36:49 EST 2013
User: group
Dark Spectrum Present: No
Reference Spectrum Present: No
Number of Sampled Component Spectra: 1
Spectrometers: USB2E7196
Integration Time (usec): 70000 (USB2E7196)
Spectra Averaged: 10 (USB2E7196)
Boxcar Smoothing: 10 (USB2E7196)
Correct for Electrical Dark: No (USB2E7196)
Strobe/Lamp Enabled: No (USB2E7196)
Correct for Detector Non-linearity: No (USB2E7196)
Correct for Stray Light: No (USB2E7196)
Number of Pixels in Processed Spectrum: 2048
>>>>>Begin Processed Spectral Data<<<<<
339.09	0.00
339.48	215.40
339.86	217.10
340.24	217.20
340.63	219.80
341.01	224.40
341.39	223.40
341.78	224.20
342.16	227.60
342.54	225.90
342.93	214.25
343.31	225.12
343.69	225.66
344.07	226.18
344.46	226.70
344.84	227.14
345.22	227.28
345.60	227.52
345.99	227.69
346.37	227.76
346.75	227.80
347.13	227.85
347.52	227.98
347.90	228.12
348.28	228.09
348.66	228.15
349.05	228.22
349.43	228.32
349.81	228.44
350.19	228.52
350.57	228.61
350.96	228.69
351.34	228.69
351.72	228.86
352.10	228.90
352.48	229.01
352.87	228.96
353.25	229.04
353.63	229.06
354.01	229.12
354.39	229.12
354.77	229.26
355.15	229.41
355.54	229.52
355.92	229.42
356.30	229.54
356.68	229.68
357.06	229.62
357.44	229.57
357.82	229.68
358.20	229.71
358.58	229.70
358.97	229.74
359.35	229.82
359.73	229.80
360.11	229.84
360.49	229.87
360.87	229.99
361.25	230.09
361.63	230.17
362.01	230.20
362.39	230.28
362.77	230.34
363.15	230.28
363.53	230.19
363.91	230.34
364.29	230.34
364.67	230.22
365.05	230.31
365.43	230.40
365.81	230.41
366.19	230.52
366.57	230.62
366.95	230.60
367.33	230.62
367.71	230.63
368.09	230.69
368.47	230.70
368.85	230.75
369.23	230.73
369.61	230.65
369.99	230.70
370.37	230.67
370.75	230.79
371.13	230.74
371.51	230.84
371.89	230.79
372.27	230.67
372.65	230.63
373.03	230.51
373.41	230.50
373.78	230.43
374.16	230.23
374.54	230.02
374.92	229.99
375.30	229.99
375.68	229.92
376.06	229.83
376.44	229.78
376.82	229.57
377.19	229.47
377.57	229.45
377.95	229.26
378.33	229.26
378.71	228.91
379.09	228.91
379.47	228.72
379.84	228.58
380.22	228.48
380.60	228.27
380.98	228.21
381.36	228.06
381.73	227.93
382.11	227.84
382.49	227.89
382.87	227.72
383.25	227.55
383.62	227.68
384.00	227.59
384.38	227.39
384.76	227.45
385.13	227.38
385.51	227.18
385.89	227.10
386.27	226.88
386.64	226.88
387.02	226.79
387.40	226.70
387.78	226.72
388.15	226.79
388.53	226.76
388.91	226.66
389.29	226.59
389.66	226.58
390.04	226.52
390.42	226.51
390.79	226.50
391.17	226.41
391.55	226.34
391.92	226.26
392.30	226.22
392.68	226.22
393.05	226.35
393.43	226.52
393.81	226.57
394.18	226.63
394.56	226.70
394.94	226.77
395.31	226.79
395.69	226.82
396.06	226.83
396.44	226.95
396.82	227.14
397.19	227.30
397.57	227.36
397.95	227.55
398.32	227.57
398.70	227.71
399.07	227.92
399.45	227.82
399.82	227.97
400.20	228.20
400.58	228.22
400.95	228.24
401.33	228.35
401.70	228.55
402.08	228.72
402.45	228.94
402.83	229.12
403.20	229.32
403.58	229.53
403.95	229.77
404.33	229.94
404.71	230.10
405.08	230.47
405.46	230.69
405.83	230.92
406.21	231.25
406.58	231.57
406.96	231.80
407.33	232.11
407.70	232.38
408.08	232.86
408.45	233.29
408.83	233.70
409.20	234.09
409.58	234.50
409.95	234.90
410.33	235.36
410.70	235.70
411.08	236.19
411.45	236.71
411.82	237.27
412.20	237.96
412.57	238.65
412.95	239.06
413.32	239.81
413.69	240.49
414.07	241.14
414.44	241.91
414.82	242.84
415.19	243.87
415.56	244.94
415.94	245.80
416.31	246.94
416.68	248.07
417.06	249.33
417.43	250.60
417.81	252.06
418.18	253.49
418.55	255.12
418.93	256.89
419.30	258.53
419.67	260.30
420.04	262.05
420.42	263.93
420.79	266.23
421.16	268.48
421.54	270.75
421.91	273.11
422.28	275.53
422.66	278.12
423.03	280.73
423.40	283.30
423.77	286.15
424.15	288.97
424.52	291.98
424.89	295.26
425.26	298.35
425.64	301.33
426.01	304.53
426.38	308.01
426.75	311.38
427.13	314.97
427.50	318.78
427.87	322.70
428.24	326.70
428.61	330.45
428.99	334.46
429.36	339.01
429.73	343.60
430.10	347.79
430.47	352.22
430.85	356.81
431.22	361.65
431.59	366.70
431.96	371.57
432.33	377.04
432.70	382.19
433.08	388.33
433.45	394.05
433.82	399.86
434.19	406.05
434.56	412.36
434.93	418.46
435.30	424.44
435.68	430.81
436.05	437.23
436.42	443.49
436.79	449.30
437.16	455.56
437.53	462.14
437.90	468.81
438.27	475.28
438.64	481.98
439.01	488.40
439.38	494.02
439.75	499.31
440.13	505.22
440.50	511.29
440.87	516.18
441.24	521.34
441.61	527.04
441.98	531.24
442.35	536.02
442.72	540.90
443.09	545.72
443.46	549.07
443.83	551.23
444.20	553.33
444.57	556.20
444.94	557.97
445.31	559.51
445.68	561.25
446.05	562.13
446.42	562.19
446.79	561.95
447.16	561.90
447.53	562.23
447.90	560.65
448.27	558.60
448.64	555.72
449.01	554.07
449.37	550.32
449.74	546.85
450.11	542.50
450.48	537.58
450.85	532.59
451.22	528.23
451.59	524.36
451.96	520.66
452.33	515.28
452.70	510.28
453.07	504.50
453.43	498.48
453.80	492.98
454.17	487.26
454.54	481.90
454.91	476.06
455.28	470.32
455.65	465.15
456.02	460.01
456.38	455.52
456.75	449.60
457.12	444.74
457.49	440.11
457.86	435.42
458.23	431.39
458.59	426.78
458.96	422.25
459.33	418.28
459.70	414.27
460.07	411.13
460.43	407.40
460.80	403.66
461.17	400.52
461.54	397.07
461.91	393.91
462.27	390.80
462.64	388.06
463.01	385.06
463.38	381.95
463.74	378.89
464.11	376.31
464.48	373.98
464.85	371.40
465.21	369.36
465.58	367.25
465.95	364.80
466.32	362.71
466.68	360.63
467.05	358.48
467.42	356.34
467.78	353.99
468.15	351.82
468.52	350.37
468.88	348.31
469.25	346.58
469.62	345.10
469.98	343.58
470.35	342.02
470.72	340.47
471.08	338.89
471.45	337.59
471.82	336.12
472.18	334.68
472.55	333.49
472.92	331.99
473.28	330.83
473.65	329.75
474.02	328.66
474.38	327.71
474.75	326.73
475.11	325.68
475.48	324.92
475.85	324.34
476.21	323.51
476.58	322.93
476.94	322.35
477.31	321.75
477.67	320.98
478.04	320.44
478.41	320.03
478.77	319.84
479.14	319.34
479.50	318.95
479.87	318.60
480.23	318.37
480.60	318.25
480.96	317.98
481.33	317.88
481.69	317.64
482.06	317.58
482.42	317.42
482.79	317.24
483.15	317.13
483.52	317.10
483.88	317.11
484.25	317.02
484.61	317.02
484.98	317.12
485.34	317.44
485.71	317.61
486.07	317.83
486.44	317.97
486.80	318.38
487.17	318.86
487.53	319.42
487.90	319.95
488.26	320.48
488.62	320.94
488.99	321.44
489.35	322.12
489.72	322.76
490.08	323.53
490.44	324.35
490.81	325.11
491.17	325.92
491.54	326.88
491.90	327.78
492.26	328.70
492.63	329.66
492.99	330.41
493.36	331.44
493.72	332.54
494.08	333.52
494.45	334.58
494.81	335.61
495.17	336.61
495.54	337.64
495.90	338.74
496.26	339.89
496.63	340.99
496.99	342.22
497.35	343.46
497.72	344.65
498.08	345.75
498.44	347.09
498.80	348.42
499.17	349.50
499.53	350.77
499.89	351.95
500.26	353.05
500.62	354.26
500.98	355.40
501.34	356.54
501.71	357.76
502.07	358.88
502.43	359.95
502.79	361.11
503.16	362.17
503.52	363.21
503.88	364.38
504.24	365.31
504.60	366.26
504.97	367.15
505.33	368.07
505.69	369.23
506.05	370.05
506.41	370.71
506.78	371.63
507.14	372.29
507.50	373.02
507.86	373.63
508.22	374.35
508.59	374.94
508.95	375.46
509.31	376.05
509.67	376.49
510.03	376.90
510.39	377.32
510.75	377.66
511.12	377.99
511.48	378.10
511.84	378.40
512.20	378.75
512.56	378.95
512.92	379.26
513.28	379.33
513.64	379.41
514.00	379.63
514.37	379.55
514.73	379.70
515.09	379.69
515.45	379.93
515.81	380.09
516.17	380.20
516.53	380.34
516.89	380.29
517.25	380.33
517.61	380.50
517.97	380.30
518.33	380.34
518.69	380.36
519.05	380.65
519.41	380.90
519.77	381.06
520.13	381.26
520.49	381.29
520.85	381.44
521.21	381.71
521.57	381.96
521.93	382.36
522.29	382.79
522.65	383.04
523.01	383.34
523.37	383.62
523.73	384.16
524.09	384.65
524.45	385.24
524.81	385.92
525.17	386.71
525.53	387.80
525.89	388.72
526.25	389.65
526.61	390.48
526.97	391.33
527.33	392.23
527.68	393.46
528.04	394.56
528.40	395.83
528.76	397.37
529.12	398.80
529.48	400.29
529.84	401.69
530.20	403.43
530.56	405.27
530.91	407.17
531.27	409.03
531.63	410.92
531.99	413.00
532.35	415.01
532.71	416.94
533.07	418.99
533.42	421.37
533.78	423.71
534.14	426.17
534.50	428.75
534.86	431.41
535.21	433.80
535.57	436.56
535.93	439.30
536.29	442.10
536.65	444.91
537.00	447.77
537.36	450.96
537.72	454.14
538.08	457.20
538.44	460.29
538.79	463.43
539.15	466.59
539.51	469.72
539.87	473.23
540.22	476.90
540.58	480.68
540.94	484.17
541.29	487.67
541.65	491.35
542.01	495.09
542.37	498.88
542.72	502.69
543.08	506.50
543.44	510.43
543.79	514.16
544.15	518.17
544.51	522.43
544.87	526.42
545.22	530.50
545.58	534.70
545.94	538.66
546.29	542.91
546.65	547.15
547.01	551.33
547.36	555.53
547.72	559.82
548.07	563.91
548.43	568.19
548.79	572.44
549.14	576.46
549.50	580.62
549.86	584.89
550.21	589.36
550.57	593.77
550.92	598.28
551.28	602.61
551.64	606.97
551.99	611.35
552.35	615.59
552.70	619.90
553.06	624.06
553.41	628.56
553.77	632.93
554.13	637.68
554.48	642.40
554.84	646.82
555.19	650.96
555.55	655.44
555.90	659.58
556.26	663.93
556.61	668.44
556.97	672.63
557.32	676.98
557.68	681.11
558.03	685.20
558.39	689.22
558.74	693.54
559.10	697.73
559.45	701.75
559.81	706.24
560.16	710.46
560.52	714.79
560.87	719.15
561.23	723.15
561.58	727.00
561.94	730.89
562.29	734.72
562.64	738.61
563.00	742.41
563.35	746.74
563.71	751.00
564.06	755.01
564.42	759.06
564.77	762.92
565.12	766.76
565.48	770.93
565.83	774.71
566.19	778.45
566.54	781.96
566.89	785.55
567.25	789.12
567.60	792.60
567.96	796.06
568.31	799.69
568.66	803.16
569.02	806.42
569.37	809.40
569.72	812.72
570.08	815.92
570.43	818.71
570.78	821.25
571.14	823.83
571.49	826.40
571.84	829.32
572.20	831.86
572.55	834.54
572.90	836.97
573.26	839.43
573.61	841.60
573.96	843.94
574.31	846.00
574.67	847.52
575.02	849.31
575.37	851.14
575.72	852.18
576.08	853.60
576.43	855.25
576.78	856.83
577.13	858.60
577.49	860.23
577.84	861.86
578.19	863.44
578.54	864.69
578.90	866.02
579.25	866.72
579.60	867.79
579.95	868.77
580.30	869.44
580.66	870.13
581.01	870.65
581.36	871.58
581.71	872.28
582.06	873.21
582.42	874.14
582.77	874.71
583.12	875.62
583.47	876.18
583.82	876.87
584.17	877.32
584.53	877.40
584.88	877.68
585.23	878.10
585.58	878.24
585.93	878.35
586.28	878.70
586.63	879.10
586.98	879.20
587.34	879.38
587.69	879.46
588.04	879.50
588.39	880.02
588.74	879.58
589.09	879.31
589.44	879.14
589.79	878.86
590.14	878.88
590.49	878.46
590.84	878.17
591.19	877.62
591.54	877.08
591.89	876.50
592.25	875.80
592.60	874.62
592.95	873.52
593.30	872.75
593.65	871.61
594.00	870.57
594.35	870.20
594.70	868.84
595.05	867.74
595.40	866.93
595.75	865.44
596.10	864.42
596.45	863.62
596.80	862.70
597.15	861.64
597.50	860.14
597.85	859.31
598.19	858.37
598.54	857.16
598.89	856.09
599.24	854.96
599.59	853.74
599.94	852.90
600.29	851.86
600.64	850.64
600.99	849.27
601.34	848.02
601.69	846.14
602.04	844.68
602.39	843.52
602.74	842.34
603.08	841.39
603.43	840.47
603.78	839.14
604.13	837.43
604.48	835.94
604.83	834.60
605.18	832.88
605.53	831.19
605.87	829.33
606.22	827.80
606.57	826.07
606.92	824.42
607.27	822.90
607.62	821.57
607.96	820.20
608.31	818.70
608.66	816.80
609.01	814.49
609.36	812.47
609.70	810.22
610.05	807.57
610.40	805.01
610.75	802.43
611.10	800.02
611.44	797.37
611.79	794.83
612.14	792.65
612.49	790.00
612.83	787.43
613.18	784.80
613.53	782.22
613.88	779.42
614.22	776.92
614.57	774.12
614.92	771.28
615.27	768.42
615.61	765.65
615.96	763.13
616.31	760.98
616.65	759.19
617.00	756.69
617.35	754.37
617.70	752.03
618.04	749.42
618.39	746.83
618.74	744.50
619.08	741.82
619.43	738.80
619.78	736.53
620.12	733.84
620.47	731.54
620.82	728.81
621.16	726.14
621.51	723.66
621.85	721.11
622.20	718.40
622.55	715.76
622.89	713.33
623.24	710.78
623.59	708.38
623.93	705.72
624.28	703.22
624.62	700.91
624.97	698.65
625.32	696.35
625.66	694.05
626.01	691.71
626.35	689.25
626.70	686.77
627.04	684.27
627.39	681.63
627.73	678.92
628.08	676.52
628.43	674.23
628.77	671.72
629.12	669.21
629.46	666.65
629.81	663.87
630.15	661.07
630.50	658.36
630.84	655.39
631.19	652.47
631.53	649.76
631.88	646.43
632.22	643.30
632.57	640.69
632.91	637.79
633.26	635.08
633.60	632.46
633.95	629.94
634.29	627.42
634.64	625.22
634.98	622.86
635.32	620.43
635.67	618.14
636.01	615.66
636.36	613.21
636.70	610.96
637.05	608.79
637.39	606.76
637.73	604.56
638.08	602.61
638.42	600.44
638.77	598.41
639.11	596.42
639.45	594.25
639.80	591.72
640.14	589.46
640.49	587.18
640.83	585.10
641.17	582.84
641.52	580.33
641.86	577.97
642.20	575.64
642.55	573.36
642.89	571.10
643.23	568.71
643.58	566.42
643.92	563.91
644.26	561.62
644.61	559.36
644.95	557.01
645.29	554.27
645.64	551.72
645.98	549.07
646.32	546.77
646.66	544.39
647.01	542.00
647.35	539.51
647.69	537.29
648.04	534.91
648.38	532.68
648.72	530.26
649.06	527.92
649.41	525.61
649.75	523.12
650.09	520.67
650.43	518.32
650.78	515.74
651.12	513.41
651.46	510.99
651.80	508.51
652.14	506.12
652.49	503.92
652.83	501.80
653.17	499.44
653.51	497.07
653.85	494.82
654.20	492.45
654.54	490.14
654.88	487.45
655.22	485.00
655.56	482.47
655.90	480.19
656.25	477.81
656.59	475.63
656.93	473.51
657.27	471.33
657.61	468.93
657.95	466.82
658.29	464.90
658.64	462.68
658.98	460.41
659.32	457.99
659.66	455.89
660.00	453.58
660.34	451.69
660.68	449.62
661.02	447.53
661.36	445.60
661.70	443.69
662.05	441.97
662.39	440.15
662.73	438.30
663.07	436.54
663.41	434.61
663.75	432.65
664.09	430.71
664.43	428.67
664.77	426.85
665.11	425.08
665.45	423.40
665.79	421.70
666.13	419.87
666.47	418.34
666.81	416.49
667.15	414.61
667.49	412.81
667.83	411.22
668.17	409.37
668.51	407.62
668.85	405.98
669.19	404.42
669.53	402.66
669.87	401.01
670.21	399.26
670.55	397.77
670.89	396.28
671.23	394.70
671.57	393.42
671.91	391.83
672.25	390.30
672.58	388.60
672.92	387.10
673.26	385.80
673.60	384.49
673.94	383.23
674.28	382.02
674.62	380.70
674.96	379.35
675.30	378.22
675.64	377.03
675.97	375.75
676.31	374.40
676.65	373.18
676.99	372.01
677.33	370.69
677.67	369.45
678.01	368.06
678.34	366.81
678.68	365.19
679.02	364.09
679.36	362.87
679.70	361.72
680.04	360.51
680.37	359.19
680.71	357.84
681.05	356.65
681.39	355.62
681.73	354.50
682.06	353.34
682.40	352.26
682.74	351.09
683.08	349.85
683.42	348.61
683.75	347.38
684.09	346.09
684.43	345.12
684.77	343.86
685.10	342.72
685.44	341.75
685.78	340.85
686.12	339.66
686.45	338.53
686.79	337.43
687.13	336.36
687.46	335.24
687.80	334.34
688.14	333.18
688.48	332.02
688.81	330.96
689.15	330.00
689.49	328.98
689.82	327.85
690.16	326.81
690.50	325.90
690.83	324.93
691.17	323.91
691.51	322.83
691.84	322.01
692.18	321.15
692.52	320.07
692.85	319.12
693.19	318.22
693.52	317.37
693.86	316.27
694.20	315.38
694.53	314.49
694.87	313.51
695.21	312.66
695.54	311.76
695.88	310.67
696.21	309.55
696.55	308.63
696.88	307.86
697.22	307.07
697.56	306.18
697.89	305.38
698.23	304.65
698.56	303.83
698.90	302.95
699.23	302.07
699.57	301.20
699.90	300.38
700.24	299.66
700.58	298.78
700.91	298.10
701.25	297.43
701.58	296.77
701.92	296.02
702.25	295.23
702.59	294.40
702.92	293.72
703.26	293.18
703.59	292.37
703.93	291.84
704.26	291.10
704.60	290.46
704.93	289.75
705.26	289.00
705.60	288.35
705.93	287.83
706.27	287.24
706.60	286.76
706.94	286.18
707.27	285.51
707.61	284.91
707.94	284.28
708.27	283.63
708.61	282.84
708.94	282.29
709.28	281.75
709.61	281.25
709.94	280.79
710.28	280.12
710.61	279.66
710.95	278.94
711.28	278.63
711.61	278.00
711.95	277.52
712.28	277.07
712.61	276.56
712.95	276.00
713.28	275.45
713.61	274.90
713.95	274.40
714.28	273.80
714.61	273.37
714.95	272.87
715.28	272.22
715.61	271.78
715.95	271.33
716.28	270.91
716.61	270.36
716.95	269.80
717.28	269.34
717.61	268.85
717.94	268.42
718.28	267.83
718.61	267.44
718.94	266.91
719.27	266.49
719.61	266.09
719.94	265.60
720.27	265.23
720.60	264.76
720.94	264.20
721.27	263.97
721.60	263.55
721.93	263.18
722.27	262.93
722.60	262.70
722.93	262.34
723.26	261.82
723.59	261.57
723.93	261.37
724.26	261.12
724.59	260.82
724.92	260.34
725.25	260.11
725.59	259.81
725.92	259.51
726.25	259.24
726.58	258.96
726.91	258.64
727.24	258.28
727.57	258.04
727.91	257.97
728.24	257.70
728.57	257.45
728.90	257.20
729.23	256.87
729.56	256.64
729.89	256.24
730.22	256.08
730.55	255.84
730.89	255.53
731.22	255.26
731.55	255.02
731.88	254.86
732.21	254.54
732.54	254.27
732.87	254.14
733.20	253.91
733.53	253.64
733.86	253.50
734.19	253.25
734.52	253.03
734.85	252.85
735.18	252.58
735.51	252.44
735.84	252.19
736.17	252.04
736.50	251.60
736.83	251.69
737.16	251.55
737.49	251.29
737.82	250.95
738.15	250.80
738.48	250.51
738.81	250.37
739.14	250.14
739.47	250.00
739.80	249.73
740.13	249.59
740.46	249.35
740.79	249.07
741.12	248.92
741.45	248.66
741.78	248.31
742.11	248.09
742.44	247.80
742.77	247.60
743.10	247.34
743.43	247.21
743.75	246.80
744.08	246.76
744.41	246.53
744.74	246.37
745.07	246.01
745.40	245.88
745.73	245.56
746.06	245.42
746.39	245.13
746.71	244.90
747.04	244.54
747.37	244.32
747.70	244.15
748.03	243.92
748.36	243.71
748.68	243.59
749.01	243.37
749.34	243.10
749.67	243.05
750.00	242.95
750.33	242.90
750.65	242.72
750.98	242.24
751.31	242.09
751.64	241.87
751.97	241.79
752.29	241.50
752.62	241.35
752.95	241.12
753.28	240.99
753.60	240.98
753.93	240.76
754.26	240.60
754.59	240.41
754.91	240.24
755.24	240.18
755.57	239.92
755.90	239.83
756.22	239.63
756.55	239.38
756.88	239.21
757.20	239.02
757.53	238.89
757.86	238.85
758.19	238.75
758.51	238.67
758.84	238.47
759.17	238.47
759.49	238.46
759.82	238.40
760.15	238.35
760.47	238.04
760.80	237.97
761.13	238.00
761.45	237.84
761.78	237.76
762.11	237.64
762.43	237.49
762.76	237.42
763.08	237.37
763.41	237.32
763.74	237.16
764.06	237.02
764.39	236.84
764.71	236.73
765.04	236.58
765.37	236.44
765.69	236.46
766.02	236.34
766.34	236.19
766.67	236.09
767.00	235.97
767.32	236.09
767.65	236.19
767.97	236.11
768.30	236.09
768.62	235.98
768.95	235.98
769.27	236.00
769.60	235.82
769.92	235.75
770.25	235.57
770.57	235.52
770.90	235.40
771.22	235.36
771.55	235.30
771.87	235.24
772.20	235.25
772.52	235.24
772.85	235.42
773.17	235.37
773.50	235.21
773.82	235.15
774.15	234.95
774.47	234.78
774.80	234.69
775.12	234.58
775.45	234.57
775.77	234.45
776.09	234.44
776.42	234.39
776.74	234.49
777.07	234.40
777.39	234.39
777.72	234.43
778.04	234.41
778.36	234.28
778.69	234.29
779.01	234.25
779.33	234.01
779.66	233.70
779.98	233.64
780.31	233.73
780.63	233.73
780.95	233.69
781.28	233.58
781.60	233.43
781.92	233.43
782.25	233.48
782.57	233.43
782.89	233.30
783.22	233.30
783.54	233.10
783.86	233.02
784.19	232.92
784.51	232.90
784.83	232.80
785.16	232.79
785.48	232.70
785.80	232.59
786.12	232.61
786.45	232.57
786.77	232.50
787.09	232.35
787.42	232.24
787.74	232.26
788.06	232.22
788.38	232.25
788.71	232.10
789.03	231.89
789.35	231.82
789.67	231.72
789.99	231.65
790.32	231.60
790.64	231.73
790.96	231.80
791.28	231.69
791.61	231.69
791.93	231.69
792.25	231.67
792.57	231.87
792.89	231.80
793.21	231.74
793.54	231.72
793.86	231.71
794.18	231.76
794.50	231.67
794.82	231.70
795.14	231.73
795.47	231.80
795.79	231.75
796.11	231.66
796.43	231.60
796.75	231.59
797.07	231.55
797.39	231.49
797.71	231.32
798.04	231.21
798.36	231.07
798.68	230.97
799.00	230.92
799.32	230.67
799.64	230.71
799.96	230.66
800.28	230.59
800.60	230.53
800.92	230.43
801.24	230.46
801.56	230.42
801.89	230.28
802.21	230.28
802.53	230.29
802.85	230.44
803.17	230.55
803.49	230.50
803.81	230.62
804.13	230.54
804.45	230.59
804.77	230.66
805.09	230.76
805.41	230.76
805.73	230.69
806.05	230.74
806.37	230.66
806.69	230.66
807.01	230.73
807.33	230.82
807.65	230.80
807.97	230.79
808.28	230.72
808.60	230.78
808.92	230.77
809.24	230.91
809.56	230.88
809.88	230.79
810.20	230.86
810.52	230.84
810.84	230.85
811.16	230.80
811.48	230.84
811.80	230.82
812.12	230.81
812.43	230.90
812.75	230.85
813.07	230.90
813.39	230.90
813.71	230.80
814.03	230.64
814.35	230.59
814.67	230.51
814.98	230.49
815.30	230.48
815.62	230.39
815.94	230.21
816.26	230.21
816.58	230.22
816.89	230.10
817.21	230.03
817.53	230.06
817.85	230.04
818.17	229.90
818.48	229.82
818.80	229.81
819.12	229.70
819.44	229.62
819.76	229.61
820.07	229.60
820.39	229.51
820.71	229.54
821.03	229.54
821.34	229.46
821.66	229.44
821.98	229.35
822.30	229.37
822.61	229.38
822.93	229.22
823.25	229.18
823.57	229.13
823.88	229.14
824.20	229.02
824.52	228.99
824.83	229.03
825.15	229.03
825.47	229.07
825.79	228.93
826.10	229.00
826.42	228.89
826.74	228.87
827.05	228.91
827.37	228.91
827.69	228.82
828.00	228.87
828.32	228.87
828.64	228.84
828.95	228.84
829.27	228.84
829.58	228.89
829.90	228.93
830.22	228.91
830.53	228.77
830.85	228.82
831.17	228.72
831.48	228.62
831.80	228.54
832.11	228.44
832.43	228.53
832.75	228.53
833.06	228.61
833.38	228.54
833.69	228.56
834.01	228.52
834.32	228.55
834.64	228.32
834.96	228.33
835.27	228.36
835.59	228.30
835.90	228.28
836.22	228.20
836.53	228.16
836.85	228.17
837.16	228.39
837.48	228.41
837.79	228.49
838.11	228.49
838.42	228.59
838.74	228.69
839.05	228.74
839.37	228.65
839.68	228.53
840.00	228.52
840.31	228.41
840.63	228.43
840.94	228.46
841.26	228.66
841.57	228.63
841.88	228.62
842.20	228.60
842.51	228.56
842.83	228.60
843.14	228.75
843.46	228.80
843.77	228.68
844.08	228.64
844.40	228.60
844.71	228.56
845.03	228.57
845.34	228.53
845.65	228.59
845.97	228.64
846.28	228.65
846.60	228.68
846.91	228.82
847.22	228.85
847.54	228.89
847.85	228.97
848.16	228.95
848.48	229.00
848.79	229.13
849.10	229.10
849.42	229.10
849.73	229.00
850.04	228.92
850.36	228.88
850.67	228.94
850.98	228.97
851.30	229.04
851.61	229.12
851.92	229.08
852.23	229.10
852.55	229.14
852.86	229.22
853.17	229.28
853.49	229.22
853.80	229.16
854.11	229.11
854.42	229.09
854.74	229.11
855.05	229.12
855.36	229.05
855.67	229.13
855.99	229.22
856.30	229.40
856.61	229.39
856.92	229.33
857.23	229.29
857.55	229.19
857.86	229.19
858.17	229.15
858.48	229.13
858.79	229.07
859.11	229.10
859.42	229.01
859.73	228.95
860.04	228.88
860.35	228.96
860.66	228.94
860.98	228.92
861.29	228.90
861.60	228.87
861.91	228.86
862.22	228.79
862.53	228.64
862.84	228.34
863.16	228.42
863.47	228.42
863.78	228.36
864.09	228.39
864.40	228.40
864.71	228.41
865.02	228.40
865.33	228.28
865.64	228.19
865.95	228.13
866.27	228.12
866.58	228.20
866.89	228.12
867.20	228.03
867.51	227.99
867.82	227.91
868.13	227.95
868.44	227.92
868.75	227.94
869.06	227.93
869.37	227.95
869.68	227.89
869.99	227.95
870.30	227.92
870.61	227.99
870.92	227.83
871.23	227.74
871.54	227.86
871.85	227.97
872.16	227.92
872.47	228.04
872.78	228.05
873.09	227.93
873.40	227.85
873.71	227.92
874.02	227.88
874.33	227.92
874.64	227.78
874.95	227.78
875.26	227.80
875.56	227.83
875.87	227.81
876.18	227.82
876.49	227.98
876.80	227.93
877.11	228.00
877.42	228.21
877.73	228.13
878.04	227.99
878.35	228.14
878.66	228.31
878.96	228.27
879.27	228.30
879.58	228.49
879.89	228.62
880.20	228.63
880.51	228.64
880.82	228.65
881.12	228.72
881.43	228.74
881.74	228.70
882.05	228.74
882.36	228.73
882.67	228.82
882.97	228.66
883.28	228.73
883.59	228.64
883.90	228.61
884.21	228.79
884.51	228.91
884.82	228.80
885.13	228.56
885.44	228.59
885.74	228.49
886.05	228.33
886.36	228.32
886.67	228.34
886.98	228.37
887.28	228.44
887.59	228.39
887.90	228.34
888.20	228.40
888.51	228.31
888.82	228.32
889.13	228.28
889.43	228.44
889.74	228.47
890.05	228.46
890.35	228.43
890.66	228.28
890.97	228.28
891.28	228.21
891.58	228.29
891.89	228.36
892.20	228.36
892.50	228.42
892.81	228.31
893.12	228.32
893.42	228.38
893.73	228.30
894.04	228.42
894.34	228.44
894.65	228.41
894.95	228.45
895.26	228.57
895.57	228.55
895.87	228.36
896.18	228.30
896.48	228.32
896.79	228.34
897.10	228.45
897.40	228.34
897.71	228.40
898.01	228.43
898.32	228.41
898.63	228.42
898.93	228.40
899.24	228.39
899.54	228.28
899.85	228.09
900.15	228.06
900.46	227.96
900.76	227.96
901.07	227.95
901.38	227.99
901.68	227.97
901.99	227.90
902.29	227.93
902.60	227.96
902.90	228.00
903.21	228.00
903.51	227.96
903.82	227.90
904.12	227.84
904.43	227.87
904.73	227.73
905.03	227.77
905.34	227.87
905.64	227.85
905.95	227.91
906.25	227.90
906.56	227.95
906.86	228.02
907.17	228.01
907.47	228.02
907.77	228.02
908.08	227.95
908.38	227.98
908.69	227.92
908.99	228.03
909.30	227.87
909.60	227.82
909.90	227.87
910.21	227.91
910.51	227.88
910.81	227.84
911.12	227.96
911.42	227.97
911.73	228.01
912.03	228.00
912.33	228.07
912.64	228.24
912.94	228.26
913.24	228.30
913.55	228.31
913.85	228.34
914.15	228.38
914.46	228.40
914.76	228.44
915.06	228.43
915.37	228.33
915.67	228.49
915.97	228.52
916.27	228.46
916.58	228.47
916.88	228.44
917.18	228.47
917.49	228.55
917.79	228.45
918.09	228.48
918.39	228.71
918.70	228.62
919.00	228.64
919.30	228.75
919.60	228.64
919.91	228.57
920.21	228.52
920.51	228.43
920.81	228.48
921.12	228.54
921.42	228.64
921.72	228.73
922.02	228.66
922.32	228.69
922.63	228.70
922.93	228.82
923.23	228.89
923.53	228.91
923.83	228.70
924.13	228.74
924.44	228.62
924.74	228.56
925.04	228.63
925.34	228.56
925.64	228.52
925.94	228.59
926.24	228.76
926.55	228.73
926.85	228.77
927.15	228.72
927.45	228.66
927.75	228.60
928.05	228.60
928.35	228.70
928.65	228.70
928.95	228.74
929.26	228.59
929.56	228.68
929.86	228.67
930.16	228.71
930.46	228.82
930.76	228.82
931.06	228.68
931.36	228.70
931.66	228.69
931.96	228.70
932.26	228.62
932.56	228.45
932.86	228.50
933.16	228.59
933.46	228.59
933.76	228.56
934.06	228.63
934.36	228.62
934.66	228.48
934.96	228.44
935.26	228.39
935.56	228.51
935.86	228.40
936.16	228.41
936.46	228.45
936.76	228.36
937.06	228.28
937.36	228.31
937.66	228.40
937.96	228.48
938.26	228.40
938.56	228.36
938.86	228.39
939.16	228.43
939.46	228.44
939.76	228.50
940.06	228.60
940.35	228.53
940.65	228.47
940.95	228.60
941.25	228.60
941.55	228.60
941.85	228.50
942.15	228.53
942.45	228.58
942.75	228.59
943.04	228.61
943.34	228.72
943.64	228.74
943.94	228.59
944.24	228.51
944.54	228.51
944.84	228.50
945.13	228.54
945.43	228.48
945.73	228.44
946.03	228.35
946.33	228.22
946.62	228.29
946.92	228.21
947.22	228.22
947.52	228.13
947.82	228.13
948.11	228.17
948.41	228.20
948.71	228.14
949.01	228.09
949.31	228.06
949.60	228.00
949.90	228.07
950.20	228.13
950.50	228.12
950.79	228.09
951.09	228.17
951.39	228.12
951.69	228.13
951.98	228.13
952.28	228.14
952.58	228.14
952.87	228.10
953.17	228.13
953.47	228.06
953.76	228.17
954.06	228.16
954.36	228.10
954.66	228.07
954.95	228.12
955.25	228.17
955.55	228.24
955.84	228.25
956.14	228.34
956.44	228.30
956.73	228.31
957.03	228.45
957.32	228.44
957.62	228.49
957.92	228.56
958.21	228.49
958.51	228.77
958.81	228.79
959.10	228.77
959.40	228.85
959.69	228.87
959.99	228.87
960.29	228.83
960.58	228.86
960.88	228.87
961.17	228.90
961.47	228.91
961.76	228.88
962.06	228.92
962.36	228.90
962.65	228.93
962.95	228.92
963.24	228.85
963.54	228.80
963.83	228.75
964.13	228.74
964.42	228.77
964.72	228.60
965.01	228.51
965.31	228.53
965.60	228.44
965.90	228.53
966.19	228.58
966.49	228.69
966.78	228.67
967.08	228.72
967.37	228.60
967.67	228.57
967.96	228.62
968.26	228.57
968.55	228.44
968.85	228.38
969.14	228.44
969.43	228.40
969.73	228.42
970.02	228.43
970.32	228.34
970.61	228.21
970.91	228.03
971.20	228.10
971.49	228.03
971.79	228.03
972.08	227.83
972.38	227.80
972.67	227.68
972.96	227.64
973.26	227.52
973.55	227.58
973.85	227.60
974.14	227.52
974.43	227.56
974.73	227.48
975.02	227.48
975.31	227.38
975.61	227.36
975.90	227.33
976.19	227.33
976.49	227.33
976.78	227.51
977.07	227.47
977.37	227.57
977.66	227.69
977.95	227.70
978.24	227.80
978.54	227.77
978.83	227.73
979.12	227.88
979.42	227.90
979.71	227.89
980.00	227.85
980.29	227.78
980.59	227.70
980.88	227.76
981.17	227.78
981.46	227.78
981.76	227.80
982.05	227.94
982.34	227.91
982.63	227.91
982.93	227.83
983.22	227.97
983.51	227.94
983.80	227.93
984.09	227.92
984.39	227.85
984.68	227.82
984.97	227.90
985.26	227.70
985.55	227.73
985.85	227.64
986.14	227.66
986.43	227.74
986.72	227.83
987.01	227.90
987.30	227.92
987.59	228.02
987.89	228.09
988.18	227.94
988.47	227.92
988.76	227.96
989.05	227.90
989.34	227.96
989.63	228.04
989.92	227.96
990.22	227.91
990.51	227.99
990.80	227.98
991.09	228.01
991.38	228.16
991.67	228.05
991.96	228.10
992.25	228.14
992.54	228.16
992.83	228.13
993.12	228.14
993.41	228.12
993.70	228.09
993.99	228.04
994.28	228.12
994.58	228.06
994.87	228.01
995.16	228.01
995.45	227.96
995.74	227.90
996.03	228.01
996.32	228.22
996.61	228.26
996.90	228.35
997.19	228.30
997.48	228.28
997.77	228.35
998.06	228.33
998.34	228.36
998.63	228.36
998.92	228.38
999.21	228.40
999.50	228.43
999.79	228.40
1000.08	228.37
1000.37	228.35
1000.66	228.49
1000.95	228.60
1001.24	228.64
1001.53	228.68
1001.82	228.60
1002.11	228.57
1002.40	228.49
1002.68	228.52
1002.97	228.66
1003.26	228.71
1003.55	228.65
1003.84	228.68
1004.13	228.75
1004.42	228.74
1004.71	228.68
1004.99	228.70
1005.28	228.71
1005.57	228.71
1005.86	228.72
1006.15	228.78
1006.44	228.69
1006.72	228.68
1007.01	228.58
1007.30	228.62
1007.59	228.54
1007.88	228.52
1008.17	228.47
1008.45	228.45
1008.74	228.33
1009.03	228.09
1009.32	228.10
1009.60	228.12
1009.89	228.09
1010.18	228.05
1010.47	227.98
1010.76	228.01
1011.04	227.91
1011.33	227.85
1011.62	227.88
1011.91	227.90
1012.19	227.84
1012.48	228.02
1012.77	228.02
1013.05	228.09
1013.34	228.15
1013.63	228.21
1013.92	228.21
1014.20	228.10
1014.49	228.07
1014.78	228.10
1015.06	228.06
1015.35	228.05
1015.64	228.04
1015.92	228.05
1016.21	227.99
1016.50	228.03
1016.78	228.05
1017.07	228.08
1017.36	228.01
1017.64	227.97
1017.93	228.00
1018.22	228.07
1018.50	227.93
1018.79	227.84
1019.08	227.80
1019.36	227.81
1019.65	227.76
1019.93	227.84
1020.22	227.85
1020.51	227.92
1020.79	227.90
1021.08	228.50
1021.36	227.00
1021.65	226.50
1021.94	228.60
1022.22	229.40
1022.51	227.90
1022.79	228.70
1023.08	225.90
1023.36	230.10
1023.65	227.40
>>>>>End Processed Spectral Data<<<<<
