SpectraSuite Data File
++++++++++++++++++++++++++++++++++++
Date: Fri Feb 01 14:38:37 EST 2013
User: group
Dark Spectrum Present: No
Reference Spectrum Present: No
Number of Sampled Component Spectra: 1
Spectrometers: USB2E7196
Integration Time (usec): 70000 (USB2E7196)
Spectra Averaged: 10 (USB2E7196)
Boxcar Smoothing: 10 (USB2E7196)
Correct for Electrical Dark: No (USB2E7196)
Strobe/Lamp Enabled: No (USB2E7196)
Correct for Detector Non-linearity: No (USB2E7196)
Correct for Stray Light: No (USB2E7196)
Number of Pixels in Processed Spectrum: 2048
>>>>>Begin Processed Spectral Data<<<<<
339.09	0.00
339.48	217.30
339.86	217.30
340.24	218.80
340.63	219.40
341.01	224.40
341.39	222.90
341.78	224.30
342.16	225.40
342.54	225.60
342.93	214.65
343.31	225.45
343.69	226.03
344.07	226.44
344.46	226.83
344.84	227.29
345.22	227.47
345.60	227.64
345.99	227.87
346.37	227.96
346.75	228.03
347.13	228.15
347.52	228.16
347.90	228.26
348.28	228.21
348.66	228.27
349.05	228.21
349.43	228.26
349.81	228.26
350.19	228.34
350.57	228.24
350.96	228.32
351.34	228.41
351.72	228.37
352.10	228.50
352.48	228.62
352.87	228.58
353.25	228.65
353.63	228.77
354.01	228.73
354.39	228.79
354.77	228.89
355.15	228.88
355.54	228.96
355.92	229.00
356.30	229.00
356.68	229.20
357.06	229.30
357.44	229.40
357.82	229.35
358.20	229.40
358.58	229.47
358.97	229.48
359.35	229.59
359.73	229.70
360.11	229.70
360.49	229.70
360.87	229.84
361.25	229.88
361.63	229.94
362.01	229.96
362.39	229.99
362.77	230.07
363.15	230.05
363.53	230.02
363.91	229.99
364.29	229.98
364.67	229.68
365.05	229.63
365.43	229.52
365.81	229.62
366.19	229.66
366.57	229.69
366.95	229.75
367.33	229.74
367.71	229.66
368.09	229.69
368.47	229.71
368.85	229.60
369.23	229.47
369.61	229.31
369.99	229.29
370.37	229.29
370.75	229.27
371.13	229.19
371.51	229.11
371.89	228.97
372.27	228.99
372.65	229.04
373.03	228.96
373.41	228.90
373.78	228.73
374.16	228.53
374.54	228.39
374.92	228.20
375.30	227.97
375.68	227.86
376.06	227.81
376.44	227.72
376.82	227.55
377.19	227.54
377.57	227.54
377.95	227.50
378.33	227.47
378.71	227.18
379.09	227.12
379.47	227.00
379.84	226.89
380.22	226.72
380.60	226.49
380.98	226.33
381.36	226.20
381.73	226.23
382.11	226.14
382.49	226.11
382.87	226.00
383.25	225.95
383.62	226.09
384.00	225.98
384.38	225.89
384.76	225.94
385.13	226.03
385.51	226.01
385.89	225.96
386.27	225.86
386.64	226.00
387.02	225.97
387.40	225.94
387.78	225.97
388.15	225.95
388.53	226.02
388.91	226.04
389.29	226.00
389.66	226.09
390.04	226.19
390.42	226.27
390.79	226.36
391.17	226.48
391.55	226.29
391.92	226.31
392.30	226.38
392.68	226.31
393.05	226.20
393.43	226.25
393.81	226.28
394.18	226.30
394.56	226.26
394.94	226.33
395.31	226.40
395.69	226.52
396.06	226.73
396.44	226.75
396.82	226.89
397.19	227.21
397.57	227.18
397.95	227.27
398.32	227.27
398.70	227.38
399.07	227.38
399.45	227.42
399.82	227.49
400.20	227.61
400.58	227.86
400.95	227.99
401.33	227.97
401.70	228.23
402.08	228.38
402.45	228.55
402.83	228.75
403.20	228.96
403.58	229.10
403.95	229.25
404.33	229.39
404.71	229.49
405.08	229.76
405.46	230.00
405.83	230.12
406.21	230.33
406.58	230.43
406.96	230.75
407.33	230.95
407.70	231.25
408.08	231.55
408.45	231.74
408.83	231.95
409.20	232.27
409.58	232.43
409.95	232.69
410.33	233.03
410.70	233.24
411.08	233.52
411.45	233.82
411.82	234.05
412.20	234.49
412.57	235.04
412.95	235.16
413.32	235.50
413.69	235.94
414.07	236.42
414.44	237.03
414.82	237.48
415.19	238.16
415.56	238.66
415.94	239.19
416.31	239.95
416.68	240.72
417.06	241.48
417.43	242.17
417.81	242.95
418.18	243.76
418.55	244.77
418.93	245.76
419.30	246.88
419.67	248.11
420.04	249.30
420.42	250.34
420.79	251.90
421.16	253.31
421.54	254.81
421.91	256.26
422.28	257.79
422.66	259.39
423.03	261.03
423.40	262.78
423.77	264.58
424.15	266.34
424.52	268.20
424.89	270.31
425.26	272.37
425.64	274.24
426.01	276.36
426.38	278.54
426.75	280.77
427.13	282.91
427.50	285.20
427.87	287.61
428.24	290.20
428.61	292.40
428.99	295.08
429.36	297.78
429.73	300.50
430.10	303.13
430.47	305.94
430.85	308.62
431.22	311.57
431.59	314.95
431.96	318.01
432.33	321.26
432.70	324.43
433.08	328.24
433.45	331.75
433.82	335.29
434.19	339.14
434.56	342.96
434.93	346.62
435.30	350.25
435.68	354.33
436.05	358.12
436.42	362.02
436.79	365.56
437.16	369.35
437.53	373.40
437.90	377.49
438.27	381.50
438.64	385.56
439.01	389.40
439.38	392.39
439.75	395.52
440.13	399.26
440.50	402.74
440.87	405.43
441.24	408.48
441.61	411.55
441.98	414.11
442.35	416.90
442.72	419.99
443.09	422.88
443.46	424.49
443.83	425.79
444.20	426.86
444.57	428.30
444.94	429.09
445.31	429.95
445.68	430.88
446.05	431.30
446.42	431.20
446.79	431.07
447.16	431.00
447.53	431.02
447.90	430.03
448.27	428.84
448.64	427.15
449.01	426.07
449.37	424.00
449.74	421.59
450.11	418.90
450.48	415.70
450.85	412.44
451.22	409.87
451.59	407.31
451.96	404.94
452.33	401.65
452.70	398.72
453.07	395.11
453.43	391.20
453.80	387.54
454.17	384.15
454.54	380.78
454.91	377.07
455.28	373.56
455.65	369.97
456.02	366.89
456.38	364.05
456.75	360.44
457.12	357.43
457.49	354.36
457.86	351.38
458.23	348.67
458.59	345.83
458.96	342.94
459.33	340.34
459.70	337.70
460.07	335.55
460.43	333.05
460.80	330.80
461.17	328.90
461.54	326.84
461.91	324.87
462.27	322.75
462.64	320.99
463.01	318.89
463.38	317.25
463.74	315.06
464.11	313.33
464.48	311.82
464.85	309.97
465.21	308.69
465.58	307.23
465.95	305.75
466.32	304.46
466.68	303.14
467.05	301.83
467.42	300.49
467.78	299.06
468.15	297.80
468.52	296.70
468.88	295.36
469.25	294.01
469.62	293.00
469.98	292.01
470.35	291.02
470.72	290.19
471.08	289.04
471.45	288.20
471.82	287.22
472.18	286.30
472.55	285.57
472.92	284.80
473.28	284.08
473.65	283.42
474.02	282.72
474.38	281.98
474.75	281.32
475.11	280.71
475.48	280.17
475.85	279.68
476.21	279.12
476.58	278.57
476.94	278.29
477.31	277.70
477.67	277.22
478.04	276.73
478.41	276.40
478.77	276.16
479.14	275.68
479.50	275.50
479.87	275.25
480.23	275.13
480.60	274.69
480.96	274.37
481.33	274.13
481.69	273.82
482.06	273.72
482.42	273.70
482.79	273.51
483.15	273.34
483.52	273.34
483.88	273.32
484.25	273.17
484.61	273.06
484.98	273.11
485.34	273.17
485.71	273.30
486.07	273.31
486.44	273.30
486.80	273.39
487.17	273.36
487.53	273.43
487.90	273.46
488.26	273.85
488.62	274.16
488.99	274.26
489.35	274.44
489.72	274.59
490.08	274.60
490.44	274.90
490.81	275.25
491.17	275.37
491.54	275.58
491.90	275.98
492.26	276.22
492.63	276.60
492.99	276.84
493.36	277.15
493.72	277.40
494.08	277.68
494.45	278.16
494.81	278.60
495.17	278.83
495.54	279.32
495.90	279.62
496.26	279.94
496.63	280.32
496.99	280.69
497.35	281.09
497.72	281.57
498.08	281.92
498.44	282.25
498.80	282.60
499.17	283.00
499.53	283.33
499.89	283.78
500.26	284.14
500.62	284.48
500.98	284.84
501.34	285.16
501.71	285.47
502.07	285.74
502.43	286.11
502.79	286.56
503.16	286.75
503.52	287.09
503.88	287.33
504.24	287.85
504.60	288.25
504.97	288.59
505.33	288.91
505.69	289.37
506.05	289.69
506.41	290.06
506.78	290.50
507.14	290.97
507.50	291.49
507.86	291.75
508.22	292.25
508.59	292.72
508.95	293.33
509.31	293.95
509.67	294.47
510.03	295.03
510.39	295.62
510.75	296.30
511.12	296.85
511.48	297.63
511.84	298.24
512.20	299.07
512.56	299.95
512.92	300.72
513.28	301.53
513.64	302.51
514.00	303.58
514.37	304.50
514.73	305.54
515.09	306.52
515.45	307.72
515.81	308.81
516.17	310.16
516.53	311.44
516.89	312.71
517.25	314.15
517.61	315.62
517.97	317.16
518.33	318.75
518.69	320.65
519.05	322.35
519.41	324.15
519.77	326.23
520.13	328.17
520.49	330.33
520.85	332.46
521.21	334.78
521.57	337.10
521.93	339.47
522.29	341.91
522.65	344.40
523.01	347.04
523.37	349.60
523.73	352.11
524.09	354.89
524.45	357.85
524.81	360.90
525.17	364.19
525.53	367.42
525.89	370.74
526.25	374.16
526.61	377.61
526.97	381.14
527.33	384.69
527.68	388.71
528.04	392.38
528.40	396.34
528.76	400.25
529.12	404.28
529.48	408.57
529.84	412.73
530.20	416.98
530.56	421.60
530.91	426.28
531.27	431.08
531.63	435.86
531.99	440.68
532.35	445.57
532.71	450.24
533.07	455.32
533.42	460.51
533.78	465.49
534.14	470.71
534.50	476.00
534.86	481.20
535.21	486.33
535.57	491.99
535.93	497.50
536.29	503.25
536.65	509.02
537.00	514.63
537.36	520.43
537.72	526.27
538.08	531.89
538.44	537.72
538.79	543.58
539.15	549.37
539.51	555.23
539.87	561.26
540.22	567.35
540.58	573.38
540.94	579.22
541.29	585.40
541.65	591.43
542.01	597.57
542.37	603.76
542.72	609.94
543.08	615.96
543.44	622.14
543.79	628.10
544.15	634.22
544.51	640.42
544.87	646.62
545.22	652.89
545.58	659.00
545.94	665.02
546.29	671.14
546.65	677.16
547.01	683.16
547.36	689.00
547.72	694.72
548.07	700.64
548.43	706.84
548.79	712.73
549.14	718.60
549.50	724.41
549.86	730.20
550.21	736.01
550.57	741.99
550.92	747.69
551.28	753.17
551.64	758.91
551.99	764.71
552.35	770.48
552.70	776.03
553.06	782.00
553.41	787.90
553.77	793.60
554.13	799.39
554.48	805.23
554.84	810.83
555.19	816.53
555.55	822.02
555.90	827.29
556.26	832.59
556.61	838.26
556.97	843.56
557.32	849.25
557.68	854.34
558.03	859.39
558.39	864.68
558.74	870.45
559.10	875.61
559.45	880.64
559.81	885.80
560.16	890.89
560.52	895.62
560.87	900.45
561.23	905.11
561.58	909.99
561.94	914.70
562.29	919.40
562.64	924.08
563.00	928.79
563.35	933.68
563.71	938.70
564.06	943.24
564.42	947.88
564.77	952.18
565.12	956.75
565.48	961.47
565.83	965.60
566.19	969.75
566.54	973.58
566.89	977.57
567.25	981.50
567.60	985.85
567.96	989.89
568.31	993.74
568.66	997.48
569.02	1000.93
569.37	1004.31
569.72	1007.65
570.08	1010.92
570.43	1014.36
570.78	1017.29
571.14	1019.96
571.49	1022.79
571.84	1026.11
572.20	1028.68
572.55	1031.36
572.90	1033.61
573.26	1036.24
573.61	1038.27
573.96	1040.70
574.31	1042.43
574.67	1044.10
575.02	1045.40
575.37	1047.04
575.72	1048.38
576.08	1050.00
576.43	1051.35
576.78	1052.93
577.13	1054.65
577.49	1056.02
577.84	1056.80
578.19	1058.11
578.54	1058.94
578.90	1059.51
579.25	1059.60
579.60	1060.26
579.95	1060.72
580.30	1061.29
580.66	1061.46
581.01	1062.00
581.36	1062.15
581.71	1062.97
582.06	1063.28
582.42	1063.60
582.77	1063.77
583.12	1064.00
583.47	1063.80
583.82	1064.25
584.17	1064.01
584.53	1063.90
584.88	1063.53
585.23	1063.61
585.58	1063.57
585.93	1063.50
586.28	1063.70
586.63	1063.83
586.98	1063.82
587.34	1063.51
587.69	1063.48
588.04	1063.50
588.39	1063.34
588.74	1062.66
589.09	1061.92
589.44	1061.01
589.79	1060.44
590.14	1059.85
590.49	1059.10
590.84	1058.29
591.19	1057.45
591.54	1056.40
591.89	1054.96
592.25	1054.38
592.60	1053.03
592.95	1051.35
593.30	1049.68
593.65	1048.18
594.00	1046.57
594.35	1045.40
594.70	1043.74
595.05	1042.01
595.40	1040.11
595.75	1038.05
596.10	1036.68
596.45	1035.31
596.80	1034.23
597.15	1032.69
597.50	1030.85
597.85	1029.48
598.19	1028.04
598.54	1026.34
598.89	1024.80
599.24	1023.62
599.59	1021.80
599.94	1020.36
600.29	1018.81
600.64	1017.13
600.99	1014.93
601.34	1013.00
601.69	1010.62
602.04	1008.77
602.39	1006.68
602.74	1004.70
603.08	1003.00
603.43	1001.52
603.78	999.47
604.13	997.32
604.48	995.13
604.83	993.10
605.18	991.00
605.53	988.60
605.87	985.89
606.22	983.68
606.57	980.80
606.92	978.19
607.27	975.62
607.62	973.37
607.96	971.19
608.31	969.11
608.66	966.27
609.01	963.37
609.36	960.20
609.70	957.05
610.05	954.08
610.40	951.05
610.75	947.62
611.10	944.38
611.44	940.83
611.79	937.80
612.14	934.48
612.49	930.96
612.83	927.84
613.18	924.54
613.53	921.36
613.88	918.10
614.22	914.77
614.57	911.23
614.92	907.41
615.27	904.42
615.61	900.99
615.96	898.06
616.31	895.10
616.65	892.53
617.00	889.84
617.35	886.92
617.70	883.75
618.04	880.45
618.39	877.08
618.74	874.21
619.08	870.72
619.43	867.56
619.78	864.39
620.12	860.88
620.47	857.84
620.82	854.24
621.16	851.16
621.51	848.14
621.85	845.10
622.20	841.87
622.55	838.18
622.89	834.92
623.24	831.71
623.59	828.40
623.93	824.94
624.28	821.59
624.62	818.24
624.97	815.23
625.32	812.20
625.66	809.34
626.01	806.23
626.35	803.10
626.70	800.22
627.04	796.96
627.39	793.95
627.73	790.88
628.08	787.87
628.43	784.70
628.77	781.56
629.12	778.17
629.46	774.70
629.81	771.38
630.15	767.88
630.50	764.26
630.84	760.78
631.19	757.50
631.53	753.92
631.88	750.17
632.22	746.36
632.57	742.78
632.91	739.20
633.26	735.72
633.60	731.98
633.95	728.32
634.29	725.16
634.64	721.77
634.98	718.12
635.32	714.78
635.67	711.55
636.01	708.20
636.36	704.94
636.70	702.25
637.05	699.13
637.39	696.21
637.73	693.43
638.08	690.52
638.42	687.57
638.77	684.59
639.11	681.53
639.45	678.57
639.80	675.42
640.14	672.42
640.49	669.33
640.83	666.65
641.17	663.37
641.52	660.41
641.86	657.52
642.20	654.85
642.55	651.90
642.89	648.90
643.23	645.93
643.58	643.19
643.92	639.79
644.26	636.82
644.61	633.92
644.95	630.78
645.29	627.55
645.64	624.42
645.98	621.51
646.32	618.92
646.66	615.92
647.01	613.14
647.35	610.25
647.69	607.37
648.04	604.62
648.38	601.86
648.72	598.68
649.06	595.54
649.41	592.57
649.75	589.45
650.09	586.08
650.43	582.94
650.78	579.51
651.12	576.50
651.46	573.51
651.80	570.49
652.14	567.53
652.49	564.70
652.83	561.91
653.17	558.89
653.51	555.87
653.85	552.94
654.20	550.10
654.54	547.04
654.88	544.04
655.22	540.78
655.56	537.73
655.90	534.95
656.25	532.27
656.59	529.35
656.93	526.78
657.27	524.21
657.61	521.25
657.95	518.93
658.29	516.47
658.64	513.92
658.98	511.23
659.32	508.60
659.66	505.79
660.00	503.09
660.34	500.40
660.68	497.83
661.02	495.20
661.36	492.57
661.70	490.02
662.05	487.61
662.39	485.42
662.73	483.17
663.07	480.71
663.41	478.50
663.75	476.06
664.09	473.47
664.43	471.17
664.77	469.08
665.11	466.83
665.45	464.41
665.79	462.11
666.13	459.81
666.47	457.53
666.81	455.33
667.15	453.00
667.49	450.88
667.83	448.79
668.17	446.63
668.51	444.41
668.85	442.33
669.19	440.35
669.53	438.16
669.87	436.09
670.21	434.11
670.55	431.87
670.89	430.21
671.23	428.48
671.57	426.55
671.91	424.66
672.25	422.62
672.58	420.77
672.92	418.90
673.26	417.02
673.60	415.30
673.94	413.61
674.28	412.03
674.62	410.42
674.96	408.70
675.30	407.04
675.64	405.55
675.97	403.88
676.31	402.15
676.65	400.53
676.99	398.99
677.33	397.40
677.67	395.85
678.01	394.10
678.34	392.54
678.68	391.22
679.02	389.58
679.36	387.96
679.70	386.57
680.04	385.05
680.37	383.59
680.71	382.07
681.05	380.68
681.39	379.20
681.73	377.82
682.06	376.49
682.40	375.17
682.74	373.66
683.08	372.33
683.42	370.99
683.75	369.64
684.09	368.11
684.43	366.70
684.77	365.43
685.10	363.96
685.44	362.44
685.78	360.92
686.12	359.68
686.45	358.42
686.79	357.00
687.13	355.85
687.46	354.58
687.80	353.28
688.14	351.97
688.48	350.64
688.81	349.21
689.15	347.95
689.49	346.65
689.82	345.56
690.16	344.32
690.50	343.13
690.83	341.98
691.17	340.82
691.51	339.63
691.84	338.45
692.18	337.58
692.52	336.44
692.85	335.46
693.19	334.42
693.52	333.30
693.86	332.29
694.20	330.99
694.53	329.98
694.87	328.79
695.21	327.69
695.54	326.71
695.88	325.63
696.21	324.33
696.55	323.34
696.88	322.27
697.22	321.33
697.56	320.36
697.89	319.40
698.23	318.35
698.56	317.35
698.90	316.38
699.23	315.10
699.57	314.21
699.90	313.07
700.24	311.91
700.58	310.93
700.91	310.00
701.25	309.16
701.58	308.36
701.92	307.61
702.25	306.77
702.59	305.72
702.92	304.88
703.26	304.20
703.59	303.36
703.93	302.69
704.26	301.85
704.60	301.00
704.93	300.07
705.26	299.31
705.60	298.57
705.93	297.92
706.27	297.31
706.60	296.65
706.94	295.93
707.27	295.23
707.61	294.57
707.94	293.90
708.27	293.11
708.61	292.21
708.94	291.54
709.28	290.87
709.61	290.43
709.94	289.88
710.28	289.20
710.61	288.58
710.95	287.64
711.28	287.10
711.61	286.35
711.95	285.73
712.28	285.06
712.61	284.46
712.95	283.73
713.28	283.10
713.61	282.38
713.95	281.70
714.28	281.23
714.61	280.61
714.95	279.96
715.28	279.40
715.61	278.76
715.95	278.24
716.28	277.63
716.61	277.03
716.95	276.47
717.28	275.92
717.61	275.38
717.94	274.85
718.28	274.15
718.61	273.65
718.94	273.20
719.27	272.79
719.61	272.32
719.94	271.87
720.27	271.36
720.60	270.89
720.94	270.55
721.27	270.08
721.60	269.63
721.93	269.17
722.27	268.81
722.60	268.59
722.93	268.07
723.26	267.73
723.59	267.30
723.93	266.82
724.26	266.45
724.59	266.04
724.92	265.72
725.25	265.41
725.59	265.08
725.92	264.56
726.25	264.17
726.58	263.76
726.91	263.36
727.24	263.00
727.57	262.62
727.91	262.25
728.24	261.95
728.57	261.63
728.90	261.30
729.23	260.85
729.56	260.53
729.89	260.27
730.22	259.87
730.55	259.51
730.89	259.20
731.22	258.88
731.55	258.55
731.88	258.25
732.21	257.88
732.54	257.53
732.87	257.35
733.20	257.09
733.53	256.81
733.86	256.54
734.19	256.25
734.52	255.93
734.85	255.70
735.18	255.27
735.51	254.99
735.84	254.74
736.17	254.43
736.50	253.99
736.83	253.84
737.16	253.56
737.49	253.21
737.82	252.92
738.15	252.69
738.48	252.41
738.81	252.09
739.14	251.85
739.47	251.65
739.80	251.35
740.13	251.11
740.46	250.77
740.79	250.54
741.12	250.21
741.45	250.00
741.78	249.73
742.11	249.54
742.44	249.24
742.77	248.98
743.10	248.85
743.43	248.63
743.75	248.24
744.08	248.29
744.41	248.07
744.74	247.76
745.07	247.50
745.40	247.24
745.73	247.18
746.06	247.04
746.39	246.78
746.71	246.65
747.04	246.40
747.37	246.23
747.70	246.00
748.03	245.86
748.36	245.61
748.68	245.38
749.01	245.15
749.34	244.95
749.67	244.88
750.00	244.66
750.33	244.64
750.65	244.37
750.98	243.98
751.31	243.83
751.64	243.76
751.97	243.66
752.29	243.59
752.62	243.32
752.95	243.10
753.28	243.00
753.60	242.73
753.93	242.56
754.26	242.44
754.59	242.22
754.91	242.02
755.24	241.90
755.57	241.74
755.90	241.67
756.22	241.60
756.55	241.32
756.88	241.19
757.20	240.91
757.53	240.88
757.86	240.68
758.19	240.52
758.51	240.50
758.84	240.30
759.17	240.04
759.49	239.88
759.82	239.85
760.15	239.78
760.47	239.68
760.80	239.57
761.13	239.50
761.45	239.43
761.78	239.29
762.11	239.16
762.43	238.93
762.76	238.71
763.08	238.58
763.41	238.54
763.74	238.44
764.06	238.28
764.39	238.10
764.71	238.02
765.04	237.97
765.37	237.73
765.69	237.64
766.02	237.55
766.34	237.49
766.67	237.32
767.00	237.11
767.32	237.17
767.65	237.08
767.97	236.87
768.30	236.71
768.62	236.74
768.95	236.73
769.27	236.76
769.60	236.73
769.92	236.66
770.25	236.57
770.57	236.31
770.90	236.20
771.22	236.08
771.55	235.94
771.87	235.96
772.20	235.89
772.52	235.94
772.85	236.16
773.17	236.00
773.50	235.90
773.82	235.87
774.15	235.65
774.47	235.50
774.80	235.56
775.12	235.46
775.45	235.32
775.77	235.20
776.09	235.21
776.42	235.10
776.74	235.07
777.07	234.90
777.39	234.86
777.72	234.88
778.04	234.85
778.36	234.78
778.69	234.56
779.01	234.52
779.33	234.27
779.66	233.98
779.98	233.92
780.31	233.90
780.63	233.91
780.95	233.82
781.28	233.79
781.60	233.61
781.92	233.70
782.25	233.63
782.57	233.50
782.89	233.47
783.22	233.53
783.54	233.40
783.86	233.43
784.19	233.44
784.51	233.35
784.83	233.23
785.16	233.23
785.48	233.26
785.80	233.25
786.12	233.29
786.45	233.22
786.77	233.31
787.09	233.20
787.42	232.98
787.74	232.99
788.06	232.94
788.38	232.92
788.71	232.84
789.03	232.73
789.35	232.85
789.67	232.65
789.99	232.62
790.32	232.53
790.64	232.47
790.96	232.63
791.28	232.58
791.61	232.67
791.93	232.57
792.25	232.51
792.57	232.60
792.89	232.53
793.21	232.52
793.54	232.38
793.86	232.29
794.18	232.35
794.50	232.30
794.82	232.28
795.14	232.25
795.47	232.20
795.79	232.30
796.11	232.16
796.43	232.14
796.75	232.07
797.07	232.18
797.39	232.14
797.71	231.94
798.04	231.91
798.36	231.68
798.68	231.69
799.00	231.59
799.32	231.47
799.64	231.44
799.96	231.35
800.28	231.44
800.60	231.39
800.92	231.32
801.24	231.31
801.56	231.38
801.89	231.30
802.21	231.20
802.53	231.01
802.85	231.15
803.17	231.28
803.49	231.18
803.81	231.06
804.13	231.01
804.45	230.86
804.77	230.88
805.09	231.02
805.41	230.97
805.73	230.92
806.05	230.76
806.37	230.62
806.69	230.55
807.01	230.40
807.33	230.42
807.65	230.42
807.97	230.46
808.28	230.26
808.60	230.22
808.92	230.23
809.24	230.35
809.56	230.17
809.88	230.02
810.20	229.95
810.52	229.96
810.84	229.85
811.16	229.88
811.48	229.91
811.80	229.92
812.12	229.98
812.43	230.07
812.75	230.04
813.07	230.08
813.39	230.08
813.71	230.02
814.03	230.04
814.35	229.92
814.67	229.79
814.98	229.90
815.30	229.94
815.62	229.80
815.94	229.65
816.26	229.73
816.58	229.62
816.89	229.69
817.21	229.58
817.53	229.64
817.85	229.65
818.17	229.58
818.48	229.49
818.80	229.43
819.12	229.39
819.44	229.43
819.76	229.48
820.07	229.56
820.39	229.61
820.71	229.51
821.03	229.66
821.34	229.65
821.66	229.54
821.98	229.49
822.30	229.50
822.61	229.59
822.93	229.39
823.25	229.46
823.57	229.41
823.88	229.54
824.20	229.52
824.52	229.60
824.83	229.73
825.15	229.70
825.47	229.72
825.79	229.72
826.10	229.63
826.42	229.57
826.74	229.60
827.05	229.63
827.37	229.79
827.69	229.70
828.00	229.69
828.32	229.63
828.64	229.72
828.95	229.86
829.27	229.92
829.58	229.99
829.90	229.98
830.22	230.05
830.53	229.95
830.85	229.90
831.17	229.76
831.48	229.70
831.80	229.68
832.11	229.65
832.43	229.57
832.75	229.71
833.06	229.86
833.38	229.75
833.69	229.68
834.01	229.61
834.32	229.57
834.64	229.54
834.96	229.72
835.27	229.65
835.59	229.59
835.90	229.48
836.22	229.50
836.53	229.58
836.85	229.60
837.16	229.90
837.48	229.95
837.79	230.08
838.11	230.05
838.42	230.01
838.74	230.00
839.05	230.04
839.37	229.91
839.68	229.60
840.00	229.58
840.31	229.60
840.63	229.55
840.94	229.60
841.26	229.58
841.57	229.43
841.88	229.49
842.20	229.50
842.51	229.47
842.83	229.46
843.14	229.50
843.46	229.39
843.77	229.22
844.08	229.23
844.40	229.09
844.71	229.10
845.03	229.18
845.34	229.15
845.65	229.07
845.97	229.11
846.28	229.19
846.60	229.19
846.91	229.07
847.22	229.08
847.54	229.00
847.85	229.00
848.16	228.96
848.48	228.86
848.79	228.78
849.10	228.78
849.42	228.78
849.73	228.57
850.04	228.49
850.36	228.36
850.67	228.36
850.98	228.41
851.30	228.38
851.61	228.34
851.92	228.40
852.23	228.51
852.55	228.56
852.86	228.54
853.17	228.57
853.49	228.72
853.80	228.73
854.11	228.78
854.42	228.78
854.74	228.76
855.05	228.78
855.36	228.72
855.67	228.71
855.99	228.71
856.30	229.05
856.61	229.13
856.92	229.07
857.23	229.04
857.55	229.02
857.86	228.98
858.17	228.99
858.48	228.89
858.79	228.80
859.11	228.72
859.42	228.70
859.73	228.60
860.04	228.58
860.35	228.45
860.66	228.40
860.98	228.50
861.29	228.53
861.60	228.50
861.91	228.65
862.22	228.70
862.53	228.77
862.84	228.55
863.16	228.58
863.47	228.62
863.78	228.63
864.09	228.57
864.40	228.55
864.71	228.57
865.02	228.67
865.33	228.62
865.64	228.60
865.95	228.65
866.27	228.80
866.58	228.70
866.89	228.91
867.20	228.97
867.51	228.86
867.82	228.86
868.13	228.89
868.44	228.83
868.75	228.79
869.06	228.71
869.37	228.71
869.68	228.69
869.99	228.83
870.30	228.82
870.61	228.93
870.92	228.91
871.23	228.87
871.54	228.86
871.85	228.98
872.16	229.02
872.47	229.05
872.78	228.96
873.09	228.99
873.40	228.87
873.71	228.98
874.02	229.06
874.33	229.03
874.64	229.04
874.95	229.08
875.26	229.06
875.56	229.05
875.87	229.09
876.18	229.07
876.49	229.12
876.80	229.09
877.11	229.08
877.42	229.08
877.73	229.07
878.04	228.98
878.35	228.90
878.66	228.87
878.96	228.80
879.27	228.87
879.58	228.91
879.89	228.90
880.20	228.75
880.51	228.63
880.82	228.66
881.12	228.64
881.43	228.53
881.74	228.41
882.05	228.41
882.36	228.29
882.67	228.26
882.97	228.06
883.28	227.96
883.59	227.93
883.90	227.91
884.21	228.01
884.51	227.99
884.82	227.94
885.13	227.99
885.44	228.02
885.74	227.88
886.05	227.82
886.36	227.76
886.67	227.82
886.98	227.91
887.28	227.93
887.59	227.87
887.90	227.99
888.20	228.02
888.51	228.07
888.82	228.04
889.13	228.04
889.43	228.11
889.74	228.11
890.05	228.07
890.35	228.02
890.66	227.93
890.97	227.94
891.28	227.93
891.58	227.86
891.89	227.88
892.20	227.95
892.50	227.96
892.81	227.90
893.12	227.84
893.42	227.84
893.73	227.90
894.04	227.97
894.34	227.94
894.65	228.09
894.95	228.02
895.26	228.02
895.57	228.18
895.87	228.06
896.18	228.21
896.48	228.18
896.79	228.30
897.10	228.39
897.40	228.32
897.71	228.30
898.01	228.25
898.32	228.24
898.63	228.19
898.93	228.36
899.24	228.39
899.54	228.41
899.85	228.39
900.15	228.40
900.46	228.43
900.76	228.41
901.07	228.31
901.38	228.30
901.68	228.40
901.99	228.30
902.29	228.37
902.60	228.32
902.90	228.40
903.21	228.30
903.51	228.17
903.82	228.35
904.12	228.39
904.43	228.57
904.73	228.59
905.03	228.64
905.34	228.62
905.64	228.63
905.95	228.61
906.25	228.62
906.56	228.59
906.86	228.47
907.17	228.54
907.47	228.63
907.77	228.63
908.08	228.59
908.38	228.62
908.69	228.61
908.99	228.67
909.30	228.71
909.60	228.84
909.90	229.05
910.21	228.92
910.51	228.97
910.81	228.96
911.12	228.98
911.42	228.98
911.73	228.80
912.03	228.91
912.33	228.96
912.64	229.02
912.94	229.02
913.24	228.99
913.55	228.99
913.85	228.89
914.15	229.00
914.46	229.00
914.76	228.97
915.06	228.99
915.37	228.98
915.67	228.87
915.97	228.80
916.27	228.61
916.58	228.73
916.88	228.66
917.18	228.60
917.49	228.78
917.79	228.69
918.09	228.79
918.39	228.74
918.70	228.76
919.00	228.69
919.30	228.69
919.60	228.74
919.91	228.72
920.21	228.75
920.51	228.54
920.81	228.53
921.12	228.60
921.42	228.53
921.72	228.46
922.02	228.48
922.32	228.56
922.63	228.53
922.93	228.52
923.23	228.44
923.53	228.40
923.83	228.19
924.13	228.23
924.44	228.19
924.74	228.19
925.04	228.14
925.34	228.10
925.64	228.10
925.94	228.09
926.24	228.18
926.55	228.17
926.85	228.28
927.15	228.20
927.45	228.01
927.75	228.02
928.05	227.98
928.35	228.00
928.65	227.98
928.95	227.95
929.26	227.86
929.56	227.98
929.86	227.99
930.16	228.03
930.46	227.98
930.76	228.03
931.06	228.08
931.36	228.04
931.66	228.14
931.96	228.13
932.26	228.09
932.56	228.03
932.86	228.03
933.16	227.98
933.46	228.05
933.76	228.10
934.06	228.17
934.36	228.27
934.66	228.32
934.96	228.26
935.26	228.37
935.56	228.40
935.86	228.47
936.16	228.48
936.46	228.49
936.76	228.50
937.06	228.35
937.36	228.30
937.66	228.40
937.96	228.30
938.26	228.30
938.56	228.34
938.86	228.28
939.16	228.32
939.46	228.43
939.76	228.45
940.06	228.50
940.35	228.44
940.65	228.34
940.95	228.28
941.25	228.34
941.55	228.35
941.85	228.33
942.15	228.15
942.45	228.17
942.75	228.10
943.04	228.14
943.34	228.30
943.64	228.37
943.94	228.27
944.24	228.31
944.54	228.28
944.84	228.36
945.13	228.33
945.43	228.31
945.73	228.37
946.03	228.24
946.33	228.23
946.62	228.27
946.92	228.32
947.22	228.37
947.52	228.21
947.82	228.19
948.11	228.21
948.41	228.27
948.71	228.20
949.01	228.28
949.31	228.27
949.60	228.25
949.90	228.27
950.20	228.20
950.50	228.22
950.79	228.26
951.09	228.15
951.39	228.16
951.69	228.07
951.98	228.09
952.28	228.27
952.58	228.36
952.87	228.28
953.17	228.22
953.47	228.17
953.76	228.28
954.06	228.32
954.36	228.32
954.66	228.40
954.95	228.54
955.25	228.45
955.55	228.46
955.84	228.40
956.14	228.37
956.44	228.48
956.73	228.41
957.03	228.39
957.32	228.50
957.62	228.49
957.92	228.60
958.21	228.52
958.51	228.69
958.81	228.63
959.10	228.69
959.40	228.82
959.69	228.89
959.99	228.78
960.29	228.65
960.58	228.59
960.88	228.47
961.17	228.38
961.47	228.43
961.76	228.46
962.06	228.59
962.36	228.55
962.65	228.55
962.95	228.66
963.24	228.52
963.54	228.49
963.83	228.57
964.13	228.51
964.42	228.48
964.72	228.29
965.01	228.26
965.31	228.23
965.60	228.20
965.90	228.23
966.19	228.27
966.49	228.23
966.78	228.29
967.08	228.30
967.37	228.27
967.67	228.27
967.96	228.29
968.26	228.14
968.55	228.22
968.85	228.14
969.14	228.11
969.43	228.18
969.73	228.20
970.02	228.05
970.32	228.08
970.61	228.02
970.91	227.86
971.20	227.80
971.49	227.76
971.79	227.74
972.08	227.54
972.38	227.56
972.67	227.67
972.96	227.69
973.26	227.65
973.55	227.70
973.85	227.70
974.14	227.70
974.43	227.79
974.73	227.66
975.02	227.67
975.31	227.62
975.61	227.61
975.90	227.51
976.19	227.60
976.49	227.54
976.78	227.55
977.07	227.69
977.37	227.74
977.66	227.73
977.95	227.75
978.24	227.89
978.54	227.90
978.83	227.85
979.12	227.80
979.42	227.80
979.71	227.79
980.00	227.83
980.29	227.83
980.59	227.72
980.88	227.83
981.17	227.85
981.46	227.91
981.76	228.01
982.05	228.13
982.34	228.17
982.63	228.27
982.93	228.32
983.22	228.35
983.51	228.48
983.80	228.67
984.09	228.61
984.39	228.61
984.68	228.68
984.97	228.73
985.26	228.71
985.55	228.83
985.85	228.86
986.14	228.86
986.43	228.86
986.72	228.96
987.01	228.89
987.30	228.91
987.59	228.92
987.89	228.90
988.18	228.78
988.47	228.75
988.76	228.81
989.05	228.80
989.34	228.83
989.63	228.84
989.92	228.69
990.22	228.70
990.51	228.66
990.80	228.67
991.09	228.66
991.38	228.74
991.67	228.68
991.96	228.66
992.25	228.66
992.54	228.70
992.83	228.69
993.12	228.74
993.41	228.73
993.70	228.89
993.99	228.94
994.28	229.06
994.58	229.01
994.87	228.96
995.16	229.03
995.45	228.92
995.74	228.83
996.03	229.00
996.32	229.00
996.61	229.09
996.90	229.07
997.19	229.07
997.48	229.02
997.77	229.08
998.06	229.03
998.34	229.01
998.63	229.01
998.92	229.00
999.21	228.86
999.50	228.86
999.79	228.63
1000.08	228.55
1000.37	228.50
1000.66	228.56
1000.95	228.58
1001.24	228.51
1001.53	228.57
1001.82	228.48
1002.11	228.31
1002.40	228.31
1002.68	228.21
1002.97	228.30
1003.26	228.20
1003.55	228.15
1003.84	228.12
1004.13	228.18
1004.42	228.12
1004.71	228.03
1004.99	227.97
1005.28	228.14
1005.57	228.10
1005.86	228.11
1006.15	228.17
1006.44	228.13
1006.72	228.08
1007.01	228.02
1007.30	228.00
1007.59	227.96
1007.88	228.01
1008.17	228.01
1008.45	227.92
1008.74	227.90
1009.03	227.80
1009.32	227.89
1009.60	227.95
1009.89	227.87
1010.18	227.74
1010.47	227.77
1010.76	227.75
1011.04	227.66
1011.33	227.59
1011.62	227.60
1011.91	227.60
1012.19	227.50
1012.48	227.50
1012.77	227.51
1013.05	227.68
1013.34	227.68
1013.63	227.66
1013.92	227.68
1014.20	227.73
1014.49	227.82
1014.78	227.86
1015.06	227.84
1015.35	227.86
1015.64	227.87
1015.92	228.01
1016.21	228.14
1016.50	228.14
1016.78	228.15
1017.07	228.21
1017.36	228.20
1017.64	228.21
1017.93	228.26
1018.22	228.17
1018.50	228.21
1018.79	228.26
1019.08	228.02
1019.36	228.00
1019.65	227.99
1019.93	228.07
1020.22	228.13
1020.51	228.19
1020.79	228.14
1021.08	225.40
1021.36	228.20
1021.65	229.20
1021.94	226.80
1022.22	227.70
1022.51	227.60
1022.79	230.00
1023.08	230.00
1023.36	229.50
1023.65	226.50
>>>>>End Processed Spectral Data<<<<<
