SpectraSuite Data File
++++++++++++++++++++++++++++++++++++
Date: Fri Feb 01 14:34:41 EST 2013
User: group
Dark Spectrum Present: No
Reference Spectrum Present: No
Number of Sampled Component Spectra: 1
Spectrometers: USB2E7196
Integration Time (usec): 70000 (USB2E7196)
Spectra Averaged: 10 (USB2E7196)
Boxcar Smoothing: 10 (USB2E7196)
Correct for Electrical Dark: No (USB2E7196)
Strobe/Lamp Enabled: No (USB2E7196)
Correct for Detector Non-linearity: No (USB2E7196)
Correct for Stray Light: No (USB2E7196)
Number of Pixels in Processed Spectrum: 2048
>>>>>Begin Processed Spectral Data<<<<<
339.09	0.00
339.48	216.50
339.86	218.90
340.24	220.00
340.63	219.30
341.01	226.70
341.39	225.40
341.78	225.40
342.16	228.10
342.54	226.10
342.93	215.12
343.31	225.94
343.69	226.52
344.07	226.93
344.46	227.32
344.84	227.76
345.22	227.90
345.60	228.09
345.99	228.25
346.37	228.31
346.75	228.40
347.13	228.45
347.52	228.54
347.90	228.60
348.28	228.72
348.66	228.83
349.05	228.84
349.43	228.90
349.81	228.86
350.19	228.89
350.57	229.03
350.96	229.03
351.34	229.17
351.72	229.23
352.10	229.29
352.48	229.34
352.87	229.41
353.25	229.47
353.63	229.50
354.01	229.65
354.39	229.64
354.77	229.71
355.15	229.87
355.54	229.81
355.92	229.85
356.30	229.84
356.68	230.03
357.06	230.08
357.44	230.13
357.82	230.29
358.20	230.37
358.58	230.42
358.97	230.61
359.35	230.77
359.73	230.78
360.11	230.82
360.49	230.87
360.87	230.90
361.25	230.91
361.63	230.99
362.01	230.93
362.39	230.94
362.77	231.01
363.15	231.07
363.53	231.18
363.91	231.12
364.29	231.11
364.67	230.91
365.05	230.90
365.43	230.92
365.81	230.83
366.19	230.85
366.57	230.81
366.95	230.68
367.33	230.48
367.71	230.48
368.09	230.62
368.47	230.57
368.85	230.51
369.23	230.42
369.61	230.35
369.99	230.37
370.37	230.50
370.75	230.56
371.13	230.32
371.51	230.12
371.89	230.11
372.27	230.12
372.65	230.06
373.03	230.02
373.41	229.88
373.78	229.84
374.16	229.66
374.54	229.63
374.92	229.62
375.30	229.69
375.68	229.49
376.06	229.35
376.44	229.40
376.82	229.35
377.19	229.33
377.57	229.22
377.95	229.12
378.33	228.95
378.71	228.70
379.09	228.63
379.47	228.56
379.84	228.37
380.22	228.26
380.60	228.21
380.98	228.09
381.36	227.99
381.73	227.91
382.11	227.90
382.49	227.75
382.87	227.66
383.25	227.48
383.62	227.75
384.00	227.57
384.38	227.33
384.76	227.33
385.13	227.31
385.51	227.23
385.89	227.09
386.27	227.01
386.64	227.02
387.02	226.93
387.40	226.92
387.78	226.97
388.15	227.02
388.53	226.89
388.91	226.88
389.29	226.88
389.66	226.91
390.04	226.84
390.42	226.90
390.79	226.93
391.17	226.94
391.55	226.72
391.92	226.72
392.30	226.91
392.68	226.75
393.05	226.77
393.43	226.82
393.81	226.91
394.18	226.94
394.56	226.89
394.94	227.15
395.31	227.16
395.69	227.33
396.06	227.17
396.44	227.37
396.82	227.48
397.19	227.75
397.57	227.81
397.95	227.93
398.32	227.93
398.70	227.97
399.07	228.07
399.45	228.21
399.82	228.36
400.20	228.38
400.58	228.58
400.95	228.63
401.33	228.79
401.70	229.08
402.08	229.25
402.45	229.55
402.83	229.74
403.20	230.12
403.58	230.40
403.95	230.83
404.33	231.11
404.71	231.43
405.08	231.73
405.46	231.99
405.83	232.37
406.21	232.85
406.58	233.29
406.96	233.75
407.33	234.19
407.70	234.71
408.08	235.38
408.45	236.02
408.83	236.74
409.20	237.39
409.58	237.88
409.95	238.58
410.33	239.26
410.70	239.91
411.08	240.62
411.45	241.32
411.82	242.26
412.20	243.18
412.57	244.20
412.95	245.09
413.32	246.31
413.69	247.54
414.07	248.74
414.44	250.10
414.82	251.46
415.19	253.16
415.56	254.70
415.94	256.42
416.31	258.28
416.68	260.05
417.06	262.17
417.43	264.25
417.81	266.52
418.18	268.91
418.55	271.59
418.93	274.33
419.30	277.20
419.67	280.07
420.04	283.20
420.42	286.40
420.79	290.01
421.16	293.71
421.54	297.26
421.91	301.21
422.28	305.30
422.66	309.61
423.03	313.66
423.40	318.11
423.77	322.51
424.15	327.28
424.52	332.22
424.89	337.42
425.26	342.61
425.64	347.68
426.01	353.11
426.38	358.57
426.75	364.14
427.13	370.08
427.50	376.32
427.87	382.70
428.24	388.92
428.61	395.04
428.99	401.69
429.36	409.22
429.73	416.32
430.10	423.39
430.47	430.80
430.85	438.33
431.22	446.19
431.59	454.71
431.96	462.66
432.33	471.64
432.70	480.30
433.08	490.35
433.45	499.88
433.82	509.26
434.19	519.74
434.56	530.10
434.93	539.73
435.30	549.34
435.68	560.15
436.05	571.08
436.42	581.66
436.79	591.47
437.16	601.84
437.53	612.62
437.90	623.36
438.27	633.98
438.64	644.97
439.01	655.36
439.38	664.61
439.75	673.52
440.13	683.62
440.50	693.31
440.87	701.44
441.24	709.79
441.61	719.08
441.98	726.05
442.35	734.13
442.72	742.55
443.09	750.51
443.46	755.78
443.83	759.26
444.20	762.52
444.57	766.99
444.94	769.70
445.31	772.70
445.68	775.63
446.05	777.45
446.42	777.73
446.79	777.76
447.16	777.88
447.53	778.44
447.90	775.94
448.27	773.18
448.64	768.50
449.01	765.67
449.37	759.58
449.74	753.78
450.11	746.57
450.48	738.39
450.85	730.46
451.22	723.59
451.59	717.48
451.96	711.55
452.33	702.79
452.70	694.97
453.07	685.30
453.43	675.54
453.80	666.14
454.17	657.02
454.54	648.15
454.91	638.29
455.28	628.82
455.65	620.08
456.02	611.22
456.38	603.86
456.75	594.20
457.12	586.38
457.49	578.41
457.86	570.91
458.23	564.55
458.59	557.07
458.96	549.52
459.33	542.55
459.70	535.84
460.07	530.68
460.43	524.59
460.80	518.82
461.17	513.58
461.54	508.04
461.91	502.90
462.27	497.81
462.64	493.43
463.01	488.38
463.38	483.35
463.74	478.67
464.11	474.50
464.48	470.80
464.85	466.71
465.21	463.80
465.58	460.46
465.95	456.37
466.32	453.10
466.68	449.95
467.05	446.80
467.42	443.52
467.78	439.86
468.15	436.50
468.52	434.03
468.88	430.77
469.25	428.04
469.62	425.61
469.98	423.06
470.35	420.64
470.72	418.41
471.08	416.01
471.45	413.86
471.82	411.65
472.18	409.21
472.55	407.50
472.92	405.40
473.28	403.56
473.65	401.80
474.02	400.03
474.38	398.34
474.75	396.91
475.11	395.67
475.48	394.68
475.85	393.58
476.21	392.58
476.58	391.71
476.94	390.96
477.31	390.30
477.67	389.39
478.04	388.73
478.41	388.31
478.77	388.02
479.14	387.65
479.50	387.42
479.87	387.54
480.23	387.40
480.60	387.07
480.96	386.80
481.33	387.13
481.69	387.48
482.06	387.53
482.42	387.58
482.79	387.44
483.15	387.78
483.52	388.42
483.88	388.83
484.25	389.33
484.61	389.79
484.98	390.44
485.34	391.43
485.71	392.51
486.07	393.35
486.44	394.39
486.80	395.45
487.17	396.57
487.53	398.00
487.90	399.57
488.26	401.22
488.62	402.93
488.99	404.33
489.35	405.79
489.72	407.71
490.08	409.76
490.44	411.85
490.81	413.89
491.17	415.89
491.54	418.25
491.90	420.65
492.26	423.18
492.63	425.61
492.99	428.24
493.36	430.90
493.72	433.81
494.08	436.58
494.45	439.58
494.81	442.91
495.17	445.92
495.54	449.11
495.90	452.45
496.26	455.84
496.63	459.36
496.99	463.36
497.35	466.99
497.72	470.75
498.08	474.54
498.44	478.56
498.80	482.68
499.17	486.50
499.53	490.53
499.89	494.62
500.26	498.47
500.62	502.39
500.98	506.45
501.34	510.52
501.71	514.83
502.07	519.18
502.43	523.16
502.79	527.31
503.16	531.42
503.52	535.69
503.88	539.86
504.24	544.21
504.60	548.26
504.97	552.59
505.33	556.86
505.69	561.53
506.05	565.60
506.41	569.57
506.78	573.86
507.14	577.88
507.50	582.00
507.86	586.43
508.22	590.65
508.59	594.62
508.95	598.81
509.31	602.52
509.67	606.56
510.03	610.24
510.39	614.18
510.75	617.97
511.12	621.50
511.48	625.37
511.84	628.80
512.20	632.17
512.56	635.55
512.92	638.72
513.28	641.88
513.64	645.10
514.00	648.03
514.37	650.94
514.73	653.94
515.09	656.68
515.45	659.28
515.81	661.89
516.17	664.72
516.53	667.16
516.89	669.89
517.25	672.16
517.61	674.89
517.97	677.20
518.33	679.46
518.69	681.80
519.05	683.84
519.41	686.20
519.77	688.65
520.13	691.03
520.49	693.26
520.85	695.09
521.21	697.00
521.57	699.36
521.93	701.46
522.29	703.56
522.65	705.48
523.01	707.39
523.37	709.08
523.73	711.00
524.09	712.74
524.45	714.52
524.81	716.29
525.17	718.24
525.53	720.01
525.89	721.81
526.25	723.55
526.61	724.94
526.97	726.58
527.33	728.07
527.68	729.89
528.04	731.59
528.40	733.45
528.76	735.65
529.12	737.63
529.48	739.36
529.84	741.09
530.20	743.19
530.56	745.44
530.91	747.92
531.27	749.94
531.63	752.04
531.99	753.94
532.35	756.03
532.71	757.89
533.07	759.96
533.42	762.09
533.78	764.27
534.14	766.73
534.50	768.70
534.86	770.94
535.21	772.68
535.57	775.01
535.93	777.20
536.29	779.25
536.65	781.19
537.00	783.32
537.36	785.60
537.72	787.82
538.08	789.96
538.44	792.10
538.79	794.33
539.15	796.63
539.51	799.02
539.87	801.46
540.22	804.00
540.58	807.02
540.94	809.55
541.29	811.94
541.65	814.54
542.01	817.70
542.37	820.16
542.72	822.68
543.08	825.39
543.44	828.09
543.79	830.37
544.15	833.31
544.51	836.60
544.87	839.58
545.22	842.55
545.58	845.34
545.94	847.81
546.29	850.49
546.65	853.35
547.01	856.22
547.36	858.74
547.72	861.26
548.07	863.41
548.43	866.24
548.79	869.12
549.14	871.87
549.50	874.22
549.86	877.02
550.21	879.86
550.57	882.30
550.92	884.90
551.28	887.66
551.64	890.30
551.99	892.92
552.35	895.28
552.70	897.75
553.06	900.33
553.41	903.06
553.77	905.77
554.13	908.30
554.48	911.14
554.84	914.21
555.19	916.78
555.55	919.60
555.90	921.92
556.26	924.47
556.61	926.76
556.97	929.19
557.32	931.79
557.68	934.39
558.03	937.20
558.39	939.64
558.74	942.51
559.10	944.94
559.45	947.30
559.81	950.26
560.16	952.68
560.52	954.94
560.87	957.56
561.23	959.66
561.58	962.38
561.94	964.57
562.29	966.50
562.64	968.82
563.00	970.94
563.35	973.49
563.71	976.08
564.06	978.74
564.42	981.18
564.77	983.80
565.12	985.94
565.48	988.33
565.83	990.35
566.19	992.29
566.54	994.11
566.89	996.06
567.25	997.84
567.60	999.81
567.96	1001.98
568.31	1003.50
568.66	1005.37
569.02	1006.69
569.37	1008.24
569.72	1009.90
570.08	1011.35
570.43	1013.07
570.78	1014.33
571.14	1015.27
571.49	1016.54
571.84	1017.80
572.20	1018.64
572.55	1019.58
572.90	1019.89
573.26	1021.06
573.61	1021.93
573.96	1022.64
574.31	1022.76
574.67	1022.82
575.02	1023.04
575.37	1023.29
575.72	1023.46
576.08	1023.88
576.43	1023.89
576.78	1023.97
577.13	1024.06
577.49	1024.24
577.84	1023.85
578.19	1023.49
578.54	1023.32
578.90	1022.63
579.25	1021.68
579.60	1020.79
579.95	1020.25
580.30	1019.70
580.66	1018.82
581.01	1017.76
581.36	1016.97
581.71	1016.15
582.06	1015.44
582.42	1014.60
582.77	1013.48
583.12	1012.78
583.47	1011.83
583.82	1010.90
584.17	1009.78
584.53	1008.86
584.88	1007.55
585.23	1006.63
585.58	1005.70
585.93	1004.89
586.28	1004.12
586.63	1003.22
586.98	1002.18
587.34	1000.97
587.69	999.77
588.04	998.54
588.39	997.49
588.74	996.08
589.09	994.74
589.44	992.97
589.79	991.37
590.14	990.07
590.49	988.41
590.84	986.69
591.19	985.33
591.54	983.32
591.89	981.01
592.25	979.18
592.60	976.92
592.95	974.66
593.30	972.28
593.65	969.65
594.00	967.24
594.35	965.45
594.70	962.95
595.05	960.81
595.40	958.40
595.75	956.11
596.10	954.08
596.45	952.25
596.80	950.62
597.15	948.48
597.50	946.09
597.85	943.83
598.19	941.74
598.54	939.37
598.89	937.24
599.24	935.45
599.59	933.00
599.94	930.71
600.29	928.50
600.64	926.16
600.99	923.68
601.34	921.67
601.69	918.98
602.04	917.06
602.39	914.49
602.74	912.50
603.08	910.00
603.43	907.81
603.78	905.15
604.13	902.50
604.48	899.83
604.83	897.45
605.18	894.95
605.53	892.20
605.87	889.29
606.22	886.93
606.57	883.72
606.92	881.33
607.27	878.76
607.62	876.28
607.96	873.66
608.31	871.42
608.66	868.44
609.01	865.50
609.36	862.25
609.70	859.09
610.05	855.68
610.40	852.50
610.75	849.11
611.10	846.03
611.44	842.42
611.79	839.64
612.14	836.17
612.49	832.61
612.83	829.03
613.18	825.97
613.53	822.79
613.88	819.51
614.22	816.05
614.57	812.55
614.92	808.83
615.27	805.56
615.61	801.84
615.96	798.63
616.31	795.24
616.65	792.47
617.00	789.54
617.35	786.38
617.70	783.20
618.04	779.86
618.39	776.42
618.74	773.59
619.08	770.08
619.43	767.27
619.78	764.23
620.12	761.17
620.47	757.93
620.82	754.35
621.16	751.31
621.51	748.30
621.85	745.42
622.20	742.18
622.55	739.03
622.89	736.00
623.24	732.88
623.59	730.01
623.93	726.79
624.28	723.70
624.62	720.83
624.97	718.02
625.32	715.14
625.66	712.46
626.01	709.63
626.35	706.68
626.70	703.52
627.04	700.85
627.39	697.84
627.73	694.83
628.08	692.14
628.43	689.16
628.77	686.30
629.12	683.21
629.46	680.45
629.81	676.98
630.15	674.16
630.50	671.06
630.84	667.73
631.19	664.48
631.53	661.54
631.88	658.31
632.22	655.02
632.57	652.11
632.91	648.86
633.26	645.43
633.60	642.41
633.95	639.46
634.29	636.42
634.64	633.67
634.98	630.70
635.32	627.78
635.67	625.15
636.01	622.43
636.36	619.40
636.70	616.78
637.05	614.52
637.39	611.80
637.73	609.20
638.08	606.89
638.42	604.53
638.77	602.03
639.11	599.32
639.45	596.86
639.80	594.30
640.14	591.69
640.49	589.33
640.83	586.74
641.17	584.21
641.52	581.51
641.86	578.80
642.20	576.33
642.55	573.84
642.89	571.28
643.23	568.56
643.58	566.55
643.92	563.91
644.26	561.28
644.61	558.89
644.95	556.49
645.29	553.79
645.64	551.00
645.98	548.36
646.32	546.00
646.66	543.30
647.01	540.72
647.35	538.57
647.69	535.98
648.04	533.90
648.38	531.26
648.72	528.79
649.06	526.45
649.41	523.99
649.75	521.31
650.09	518.77
650.43	516.19
650.78	513.48
651.12	510.94
651.46	508.47
651.80	506.10
652.14	503.81
652.49	501.59
652.83	499.41
653.17	496.94
653.51	494.45
653.85	492.40
654.20	489.93
654.54	487.15
654.88	484.72
655.22	481.84
655.56	479.48
655.90	477.25
656.25	475.01
656.59	472.72
656.93	470.60
657.27	468.28
657.61	466.06
657.95	463.92
658.29	461.84
658.64	459.72
658.98	457.22
659.32	454.76
659.66	452.47
660.00	450.20
660.34	448.07
660.68	446.04
661.02	443.89
661.36	441.92
661.70	440.20
662.05	438.48
662.39	436.85
662.73	434.92
663.07	433.14
663.41	431.19
663.75	429.40
664.09	427.66
664.43	425.85
664.77	424.20
665.11	422.46
665.45	420.73
665.79	418.88
666.13	417.21
666.47	415.61
666.81	413.97
667.15	412.22
667.49	410.57
667.83	408.86
668.17	407.10
668.51	405.27
668.85	403.54
669.19	401.95
669.53	400.12
669.87	398.52
670.21	396.81
670.55	395.26
670.89	393.80
671.23	392.23
671.57	390.81
671.91	389.28
672.25	387.65
672.58	386.25
672.92	384.86
673.26	383.60
673.60	382.09
673.94	380.61
674.28	379.32
674.62	378.04
674.96	376.83
675.30	375.54
675.64	374.31
675.97	373.03
676.31	371.64
676.65	370.53
676.99	369.23
677.33	367.99
677.67	366.77
678.01	365.38
678.34	363.97
678.68	362.58
679.02	361.21
679.36	359.92
679.70	358.64
680.04	357.41
680.37	355.97
680.71	354.69
681.05	353.73
681.39	352.58
681.73	351.42
682.06	350.25
682.40	349.26
682.74	348.16
683.08	346.98
683.42	345.83
683.75	344.66
684.09	343.60
684.43	342.41
684.77	341.14
685.10	340.05
685.44	339.09
685.78	338.19
686.12	337.20
686.45	336.10
686.79	334.98
687.13	333.93
687.46	332.89
687.80	331.90
688.14	330.64
688.48	329.68
688.81	328.64
689.15	327.62
689.49	326.47
689.82	325.52
690.16	324.50
690.50	323.59
690.83	322.70
691.17	321.66
691.51	320.78
691.84	320.04
692.18	319.07
692.52	318.10
692.85	317.11
693.19	316.23
693.52	315.41
693.86	314.44
694.20	313.50
694.53	312.75
694.87	311.97
695.21	310.97
695.54	310.06
695.88	309.05
696.21	308.08
696.55	307.23
696.88	306.29
697.22	305.46
697.56	304.72
697.89	303.73
698.23	303.01
698.56	302.20
698.90	301.29
699.23	300.49
699.57	299.74
699.90	298.91
700.24	298.12
700.58	297.37
700.91	296.78
701.25	296.22
701.58	295.55
701.92	294.75
702.25	294.27
702.59	293.53
702.92	292.93
703.26	292.32
703.59	291.67
703.93	291.20
704.26	290.60
704.60	289.97
704.93	289.36
705.26	288.66
705.60	288.08
705.93	287.57
706.27	287.11
706.60	286.56
706.94	286.07
707.27	285.57
707.61	284.94
707.94	284.34
708.27	283.60
708.61	282.85
708.94	282.31
709.28	281.72
709.61	281.12
709.94	280.65
710.28	280.16
710.61	279.57
710.95	278.86
711.28	278.39
711.61	277.69
711.95	277.20
712.28	276.70
712.61	276.02
712.95	275.54
713.28	275.09
713.61	274.49
713.95	273.96
714.28	273.38
714.61	273.00
714.95	272.58
715.28	271.98
715.61	271.52
715.95	271.09
716.28	270.57
716.61	270.18
716.95	269.55
717.28	269.13
717.61	268.62
717.94	268.14
718.28	267.59
718.61	267.18
718.94	266.75
719.27	266.22
719.61	265.98
719.94	265.47
720.27	264.92
720.60	264.44
720.94	264.04
721.27	263.60
721.60	263.29
721.93	262.92
722.27	262.69
722.60	262.52
722.93	262.23
723.26	261.95
723.59	261.55
723.93	261.42
724.26	261.06
724.59	260.79
724.92	260.52
725.25	260.29
725.59	259.99
725.92	259.71
726.25	259.46
726.58	259.09
726.91	258.80
727.24	258.49
727.57	258.35
727.91	257.98
728.24	257.75
728.57	257.30
728.90	257.02
729.23	256.60
729.56	256.32
729.89	255.91
730.22	255.69
730.55	255.43
730.89	255.08
731.22	254.82
731.55	254.52
731.88	254.25
732.21	253.86
732.54	253.58
732.87	253.38
733.20	253.11
733.53	252.87
733.86	252.68
734.19	252.47
734.52	252.19
734.85	252.06
735.18	251.82
735.51	251.76
735.84	251.54
736.17	251.42
736.50	251.02
736.83	251.13
737.16	250.79
737.49	250.56
737.82	250.35
738.15	250.07
738.48	249.93
738.81	249.80
739.14	249.60
739.47	249.38
739.80	249.09
740.13	248.98
740.46	248.83
740.79	248.52
741.12	248.34
741.45	248.12
741.78	247.77
742.11	247.60
742.44	247.30
742.77	247.09
743.10	246.89
743.43	246.80
743.75	246.31
744.08	246.39
744.41	246.20
744.74	245.94
745.07	245.82
745.40	245.72
745.73	245.50
746.06	245.37
746.39	245.22
746.71	245.12
747.04	244.90
747.37	244.58
747.70	244.54
748.03	244.40
748.36	244.16
748.68	244.10
749.01	243.90
749.34	243.68
749.67	243.53
750.00	243.33
750.33	243.31
750.65	243.20
750.98	242.83
751.31	242.63
751.64	242.57
751.97	242.51
752.29	242.23
752.62	242.02
752.95	241.80
753.28	241.61
753.60	241.46
753.93	241.34
754.26	241.32
754.59	241.08
754.91	240.88
755.24	240.80
755.57	240.64
755.90	240.42
756.22	240.26
756.55	240.00
756.88	239.87
757.20	239.46
757.53	239.23
757.86	239.04
758.19	238.96
758.51	238.75
758.84	238.49
759.17	238.42
759.49	238.35
759.82	238.39
760.15	238.28
760.47	238.06
760.80	237.87
761.13	237.67
761.45	237.52
761.78	237.33
762.11	237.34
762.43	237.20
762.76	237.12
763.08	237.16
763.41	237.10
763.74	236.99
764.06	236.85
764.39	236.74
764.71	236.69
765.04	236.64
765.37	236.62
765.69	236.50
766.02	236.28
766.34	236.20
766.67	236.06
767.00	236.01
767.32	236.04
767.65	236.12
767.97	236.11
768.30	236.12
768.62	236.18
768.95	236.00
769.27	235.89
769.60	235.88
769.92	235.67
770.25	235.68
770.57	235.57
770.90	235.57
771.22	235.54
771.55	235.44
771.87	235.32
772.20	235.35
772.52	235.40
772.85	235.67
773.17	235.64
773.50	235.55
773.82	235.45
774.15	235.27
774.47	235.14
774.80	235.12
775.12	235.09
775.45	235.00
775.77	235.01
776.09	234.92
776.42	234.87
776.74	234.90
777.07	234.81
777.39	234.85
777.72	234.77
778.04	234.86
778.36	234.85
778.69	234.84
779.01	234.63
779.33	234.55
779.66	234.21
779.98	234.03
780.31	234.00
780.63	234.15
780.95	234.23
781.28	234.19
781.60	234.02
781.92	233.97
782.25	233.86
782.57	233.71
782.89	233.67
783.22	233.61
783.54	233.47
783.86	233.40
784.19	233.35
784.51	233.45
784.83	233.29
785.16	233.22
785.48	233.20
785.80	233.21
786.12	233.05
786.45	232.95
786.77	232.92
787.09	232.88
787.42	232.70
787.74	232.69
788.06	232.55
788.38	232.53
788.71	232.45
789.03	232.31
789.35	232.27
789.67	232.26
789.99	232.24
790.32	232.21
790.64	232.19
790.96	232.31
791.28	232.16
791.61	232.07
791.93	231.98
792.25	231.88
792.57	231.91
792.89	231.92
793.21	231.95
793.54	231.90
793.86	231.81
794.18	231.70
794.50	231.59
794.82	231.61
795.14	231.53
795.47	231.43
795.79	231.45
796.11	231.45
796.43	231.31
796.75	231.22
797.07	231.16
797.39	231.10
797.71	230.84
798.04	230.80
798.36	230.73
798.68	230.71
799.00	230.61
799.32	230.51
799.64	230.53
799.96	230.46
800.28	230.48
800.60	230.37
800.92	230.44
801.24	230.37
801.56	230.28
801.89	230.28
802.21	230.29
802.53	230.26
802.85	230.15
803.17	230.33
803.49	230.32
803.81	230.44
804.13	230.36
804.45	230.33
804.77	230.38
805.09	230.35
805.41	230.31
805.73	230.26
806.05	230.22
806.37	230.09
806.69	230.21
807.01	230.16
807.33	230.22
807.65	230.12
807.97	230.21
808.28	230.20
808.60	230.22
808.92	230.20
809.24	230.27
809.56	230.34
809.88	230.29
810.20	230.31
810.52	230.31
810.84	230.39
811.16	230.35
811.48	230.29
811.80	230.33
812.12	230.42
812.43	230.58
812.75	230.59
813.07	230.67
813.39	230.59
813.71	230.66
814.03	230.65
814.35	230.61
814.67	230.62
814.98	230.61
815.30	230.61
815.62	230.55
815.94	230.64
816.26	230.65
816.58	230.57
816.89	230.55
817.21	230.44
817.53	230.47
817.85	230.51
818.17	230.53
818.48	230.55
818.80	230.60
819.12	230.44
819.44	230.41
819.76	230.36
820.07	230.34
820.39	230.32
820.71	230.37
821.03	230.40
821.34	230.36
821.66	230.39
821.98	230.35
822.30	230.30
822.61	230.28
822.93	230.26
823.25	230.26
823.57	230.16
823.88	230.26
824.20	230.22
824.52	230.25
824.83	230.20
825.15	230.17
825.47	230.13
825.79	230.17
826.10	230.20
826.42	230.27
826.74	230.32
827.05	230.29
827.37	230.29
827.69	230.23
828.00	230.23
828.32	230.23
828.64	230.29
828.95	230.48
829.27	230.41
829.58	230.32
829.90	230.38
830.22	230.41
830.53	230.29
830.85	230.23
831.17	230.10
831.48	230.10
831.80	230.09
832.11	230.04
832.43	230.10
832.75	230.06
833.06	230.10
833.38	229.93
833.69	229.84
834.01	229.64
834.32	229.62
834.64	229.58
834.96	229.55
835.27	229.47
835.59	229.27
835.90	229.23
836.22	229.33
836.53	229.25
836.85	229.26
837.16	229.44
837.48	229.36
837.79	229.42
838.11	229.42
838.42	229.38
838.74	229.34
839.05	229.25
839.37	229.20
839.68	229.10
840.00	229.17
840.31	229.17
840.63	229.25
840.94	229.22
841.26	229.12
841.57	229.19
841.88	229.18
842.20	229.10
842.51	229.09
842.83	228.96
843.14	229.12
843.46	229.12
843.77	229.00
844.08	229.11
844.40	229.06
844.71	228.97
845.03	229.00
845.34	229.00
845.65	229.05
845.97	229.11
846.28	229.15
846.60	229.13
846.91	229.17
847.22	229.16
847.54	229.22
847.85	229.21
848.16	229.12
848.48	229.08
848.79	229.25
849.10	229.22
849.42	229.24
849.73	229.11
850.04	229.05
850.36	229.01
850.67	228.99
850.98	229.04
851.30	229.12
851.61	229.10
851.92	229.02
852.23	229.03
852.55	229.00
852.86	228.85
853.17	228.90
853.49	228.95
853.80	229.02
854.11	229.08
854.42	229.12
854.74	229.13
855.05	229.14
855.36	229.12
855.67	229.15
855.99	229.32
856.30	229.48
856.61	229.43
856.92	229.41
857.23	229.42
857.55	229.31
857.86	229.24
858.17	229.31
858.48	229.31
858.79	229.25
859.11	229.26
859.42	229.29
859.73	229.19
860.04	229.12
860.35	229.05
860.66	228.93
860.98	228.99
861.29	229.04
861.60	229.11
861.91	229.08
862.22	229.00
862.53	228.85
862.84	228.70
863.16	228.80
863.47	228.64
863.78	228.57
864.09	228.62
864.40	228.69
864.71	228.60
865.02	228.68
865.33	228.65
865.64	228.65
865.95	228.60
866.27	228.76
866.58	228.78
866.89	228.84
867.20	228.89
867.51	228.82
867.82	228.79
868.13	228.80
868.44	228.85
868.75	229.05
869.06	229.08
869.37	229.07
869.68	229.04
869.99	229.24
870.30	229.36
870.61	229.40
870.92	229.47
871.23	229.44
871.54	229.41
871.85	229.55
872.16	229.51
872.47	229.58
872.78	229.46
873.09	229.52
873.40	229.47
873.71	229.50
874.02	229.50
874.33	229.52
874.64	229.47
874.95	229.40
875.26	229.17
875.56	229.15
875.87	229.01
876.18	229.02
876.49	229.19
876.80	229.16
877.11	229.11
877.42	228.98
877.73	229.04
878.04	229.04
878.35	228.98
878.66	228.98
878.96	228.88
879.27	228.80
879.58	228.71
879.89	228.62
880.20	228.59
880.51	228.53
880.82	228.50
881.12	228.58
881.43	228.47
881.74	228.55
882.05	228.48
882.36	228.55
882.67	228.58
882.97	228.28
883.28	228.19
883.59	228.20
883.90	228.27
884.21	228.30
884.51	228.30
884.82	228.20
885.13	228.27
885.44	228.34
885.74	228.42
886.05	228.48
886.36	228.52
886.67	228.46
886.98	228.60
887.28	228.46
887.59	228.32
887.90	228.30
888.20	228.22
888.51	228.28
888.82	228.40
889.13	228.33
889.43	228.52
889.74	228.50
890.05	228.48
890.35	228.44
890.66	228.40
890.97	228.40
891.28	228.33
891.58	228.25
891.89	228.21
892.20	228.20
892.50	228.15
892.81	228.15
893.12	228.14
893.42	227.94
893.73	228.01
894.04	228.04
894.34	228.14
894.65	228.15
894.95	228.16
895.26	228.06
895.57	228.12
895.87	228.03
896.18	228.06
896.48	228.10
896.79	228.13
897.10	228.12
897.40	228.13
897.71	228.27
898.01	228.25
898.32	228.25
898.63	228.17
898.93	228.10
899.24	228.13
899.54	228.09
899.85	228.16
900.15	228.21
900.46	228.19
900.76	228.26
901.07	228.31
901.38	228.30
901.68	228.32
901.99	228.22
902.29	228.05
902.60	228.11
902.90	228.09
903.21	228.01
903.51	228.00
903.82	227.99
904.12	227.95
904.43	227.97
904.73	228.04
905.03	228.09
905.34	228.30
905.64	228.31
905.95	228.40
906.25	228.42
906.56	228.39
906.86	228.42
907.17	228.38
907.47	228.24
907.77	228.22
908.08	228.17
908.38	228.18
908.69	228.23
908.99	228.20
909.30	228.19
909.60	228.13
909.90	228.11
910.21	228.02
910.51	227.93
910.81	227.94
911.12	227.88
911.42	227.90
911.73	227.76
912.03	227.76
912.33	227.78
912.64	227.83
912.94	227.81
913.24	227.80
913.55	227.79
913.85	227.90
914.15	227.91
914.46	227.84
914.76	227.84
915.06	227.90
915.37	227.81
915.67	227.90
915.97	227.93
916.27	227.97
916.58	228.02
916.88	228.13
917.18	228.16
917.49	228.30
917.79	228.25
918.09	228.31
918.39	228.39
918.70	228.40
919.00	228.33
919.30	228.35
919.60	228.41
919.91	228.31
920.21	228.38
920.51	228.35
920.81	228.35
921.12	228.40
921.42	228.51
921.72	228.56
922.02	228.46
922.32	228.54
922.63	228.50
922.93	228.67
923.23	228.57
923.53	228.57
923.83	228.45
924.13	228.56
924.44	228.47
924.74	228.32
925.04	228.33
925.34	228.35
925.64	228.26
925.94	228.20
926.24	228.39
926.55	228.30
926.85	228.40
927.15	228.46
927.45	228.48
927.75	228.37
928.05	228.43
928.35	228.55
928.65	228.59
928.95	228.63
929.26	228.47
929.56	228.59
929.86	228.58
930.16	228.51
930.46	228.43
930.76	228.41
931.06	228.50
931.36	228.43
931.66	228.41
931.96	228.48
932.26	228.48
932.56	228.36
932.86	228.41
933.16	228.29
933.46	228.25
933.76	228.21
934.06	228.27
934.36	228.38
934.66	228.25
934.96	228.27
935.26	228.39
935.56	228.44
935.86	228.40
936.16	228.42
936.46	228.46
936.76	228.46
937.06	228.48
937.36	228.40
937.66	228.46
937.96	228.48
938.26	228.49
938.56	228.41
938.86	228.51
939.16	228.54
939.46	228.62
939.76	228.77
940.06	228.80
940.35	228.80
940.65	228.62
940.95	228.59
941.25	228.50
941.55	228.34
941.85	228.32
942.15	228.33
942.45	228.30
942.75	228.33
943.04	228.35
943.34	228.36
943.64	228.38
943.94	228.36
944.24	228.37
944.54	228.34
944.84	228.39
945.13	228.29
945.43	228.19
945.73	228.20
946.03	228.10
946.33	228.04
946.62	227.97
946.92	228.03
947.22	228.12
947.52	228.20
947.82	228.26
948.11	228.16
948.41	228.15
948.71	228.05
949.01	228.13
949.31	228.03
949.60	228.14
949.90	228.14
950.20	228.00
950.50	227.95
950.79	227.93
951.09	227.99
951.39	228.01
951.69	228.04
951.98	228.04
952.28	228.08
952.58	228.05
952.87	228.06
953.17	228.04
953.47	227.93
953.76	227.90
954.06	227.86
954.36	227.91
954.66	227.98
954.95	228.12
955.25	228.06
955.55	228.20
955.84	228.14
956.14	228.18
956.44	228.32
956.73	228.32
957.03	228.37
957.32	228.40
957.62	228.37
957.92	228.40
958.21	228.46
958.51	228.70
958.81	228.82
959.10	228.85
959.40	228.90
959.69	229.02
959.99	229.07
960.29	229.18
960.58	229.17
960.88	229.18
961.17	229.15
961.47	229.19
961.76	229.11
962.06	229.20
962.36	229.14
962.65	229.13
962.95	229.23
963.24	229.20
963.54	229.16
963.83	229.21
964.13	229.18
964.42	229.03
964.72	228.76
965.01	228.68
965.31	228.70
965.60	228.59
965.90	228.72
966.19	228.56
966.49	228.42
966.78	228.37
967.08	228.36
967.37	228.39
967.67	228.30
967.96	228.36
968.26	228.22
968.55	228.16
968.85	228.08
969.14	228.06
969.43	228.01
969.73	227.98
970.02	227.89
970.32	227.84
970.61	227.82
970.91	227.77
971.20	227.74
971.49	227.74
971.79	227.85
972.08	227.66
972.38	227.71
972.67	227.77
972.96	227.86
973.26	227.70
973.55	227.68
973.85	227.63
974.14	227.56
974.43	227.60
974.73	227.69
975.02	227.66
975.31	227.65
975.61	227.67
975.90	227.66
976.19	227.70
976.49	227.81
976.78	227.90
977.07	227.97
977.37	228.02
977.66	227.98
977.95	227.97
978.24	227.98
978.54	228.02
978.83	227.98
979.12	227.94
979.42	228.07
979.71	228.05
980.00	228.06
980.29	228.08
980.59	227.98
980.88	227.98
981.17	228.09
981.46	228.10
981.76	228.14
982.05	228.24
982.34	228.25
982.63	228.18
982.93	228.12
983.22	228.12
983.51	228.12
983.80	228.14
984.09	228.12
984.39	228.15
984.68	228.11
984.97	228.18
985.26	228.20
985.55	228.11
985.85	228.06
986.14	228.19
986.43	228.26
986.72	228.34
987.01	228.24
987.30	228.21
987.59	228.18
987.89	228.17
988.18	228.10
988.47	228.05
988.76	228.05
989.05	228.13
989.34	228.10
989.63	228.20
989.92	228.22
990.22	228.22
990.51	228.20
990.80	228.25
991.09	228.19
991.38	228.19
991.67	228.30
991.96	228.33
992.25	228.29
992.54	228.26
992.83	228.19
993.12	228.27
993.41	228.21
993.70	228.32
993.99	228.35
994.28	228.30
994.58	228.34
994.87	228.33
995.16	228.27
995.45	228.32
995.74	228.20
996.03	228.14
996.32	228.10
996.61	228.12
996.90	228.07
997.19	228.14
997.48	228.17
997.77	227.97
998.06	227.99
998.34	227.99
998.63	227.98
998.92	228.08
999.21	228.04
999.50	228.00
999.79	227.90
1000.08	227.95
1000.37	228.05
1000.66	228.10
1000.95	228.17
1001.24	228.24
1001.53	228.20
1001.82	228.29
1002.11	228.26
1002.40	228.35
1002.68	228.38
1002.97	228.57
1003.26	228.65
1003.55	228.60
1003.84	228.73
1004.13	228.76
1004.42	228.79
1004.71	228.79
1004.99	228.76
1005.28	228.78
1005.57	228.84
1005.86	228.81
1006.15	228.66
1006.44	228.61
1006.72	228.56
1007.01	228.47
1007.30	228.27
1007.59	228.28
1007.88	228.18
1008.17	228.20
1008.45	228.10
1008.74	228.08
1009.03	227.86
1009.32	227.71
1009.60	227.67
1009.89	227.72
1010.18	227.61
1010.47	227.55
1010.76	227.50
1011.04	227.42
1011.33	227.45
1011.62	227.42
1011.91	227.42
1012.19	227.54
1012.48	227.59
1012.77	227.53
1013.05	227.59
1013.34	227.66
1013.63	227.60
1013.92	227.58
1014.20	227.63
1014.49	227.60
1014.78	227.57
1015.06	227.62
1015.35	227.58
1015.64	227.64
1015.92	227.55
1016.21	227.48
1016.50	227.50
1016.78	227.50
1017.07	227.44
1017.36	227.44
1017.64	227.43
1017.93	227.46
1018.22	227.33
1018.50	227.21
1018.79	227.34
1019.08	227.32
1019.36	227.38
1019.65	227.46
1019.93	227.51
1020.22	227.42
1020.51	227.57
1020.79	227.53
1021.08	226.00
1021.36	227.00
1021.65	229.10
1021.94	227.80
1022.22	228.00
1022.51	228.80
1022.79	227.70
1023.08	227.20
1023.36	230.00
1023.65	227.40
>>>>>End Processed Spectral Data<<<<<
