SpectraSuite Data File
++++++++++++++++++++++++++++++++++++
Date: Fri Feb 01 14:40:02 EST 2013
User: group
Dark Spectrum Present: No
Reference Spectrum Present: No
Number of Sampled Component Spectra: 1
Spectrometers: USB2E7196
Integration Time (usec): 70000 (USB2E7196)
Spectra Averaged: 10 (USB2E7196)
Boxcar Smoothing: 10 (USB2E7196)
Correct for Electrical Dark: No (USB2E7196)
Strobe/Lamp Enabled: No (USB2E7196)
Correct for Detector Non-linearity: No (USB2E7196)
Correct for Stray Light: No (USB2E7196)
Number of Pixels in Processed Spectrum: 2048
>>>>>Begin Processed Spectral Data<<<<<
339.09	0.00
339.48	214.90
339.86	216.40
340.24	218.80
340.63	220.40
341.01	223.20
341.39	224.60
341.78	225.30
342.16	224.80
342.54	224.20
342.93	214.20
343.31	224.97
343.69	225.52
344.07	226.03
344.46	226.50
344.84	226.87
345.22	227.06
345.60	227.22
345.99	227.31
346.37	227.50
346.75	227.67
347.13	227.70
347.52	227.68
347.90	227.79
348.28	227.81
348.66	227.88
349.05	227.82
349.43	227.74
349.81	227.73
350.19	227.79
350.57	227.88
350.96	227.96
351.34	228.03
351.72	228.08
352.10	228.11
352.48	228.23
352.87	228.17
353.25	228.30
353.63	228.24
354.01	228.31
354.39	228.31
354.77	228.48
355.15	228.54
355.54	228.60
355.92	228.54
356.30	228.56
356.68	228.68
357.06	228.71
357.44	228.84
357.82	228.82
358.20	228.89
358.58	228.90
358.97	228.97
359.35	229.11
359.73	229.22
360.11	229.30
360.49	229.28
360.87	229.38
361.25	229.34
361.63	229.56
362.01	229.58
362.39	229.62
362.77	229.59
363.15	229.67
363.53	229.70
363.91	229.70
364.29	229.80
364.67	229.65
365.05	229.77
365.43	229.72
365.81	229.90
366.19	229.94
366.57	230.06
366.95	230.09
367.33	229.98
367.71	229.90
368.09	229.86
368.47	229.85
368.85	229.86
369.23	229.86
369.61	229.78
369.99	229.87
370.37	229.84
370.75	229.87
371.13	229.78
371.51	229.77
371.89	229.81
372.27	229.82
372.65	229.80
373.03	229.67
373.41	229.65
373.78	229.45
374.16	229.33
374.54	229.18
374.92	229.09
375.30	229.08
375.68	229.02
376.06	228.99
376.44	228.83
376.82	228.70
377.19	228.63
377.57	228.58
377.95	228.43
378.33	228.33
378.71	228.07
379.09	228.02
379.47	227.96
379.84	227.79
380.22	227.54
380.60	227.40
380.98	227.31
381.36	227.30
381.73	227.26
382.11	227.20
382.49	227.12
382.87	227.02
383.25	226.97
383.62	227.12
384.00	227.05
384.38	226.96
384.76	227.04
385.13	227.11
385.51	226.95
385.89	226.86
386.27	226.82
386.64	226.79
387.02	226.78
387.40	226.65
387.78	226.77
388.15	226.81
388.53	226.77
388.91	226.73
389.29	226.61
389.66	226.57
390.04	226.55
390.42	226.53
390.79	226.49
391.17	226.50
391.55	226.31
391.92	226.31
392.30	226.37
392.68	226.31
393.05	226.29
393.43	226.38
393.81	226.39
394.18	226.35
394.56	226.44
394.94	226.43
395.31	226.59
395.69	226.63
396.06	226.68
396.44	226.84
396.82	226.93
397.19	227.07
397.57	227.20
397.95	227.25
398.32	227.40
398.70	227.54
399.07	227.61
399.45	227.69
399.82	227.82
400.20	227.90
400.58	228.03
400.95	228.15
401.33	228.26
401.70	228.51
402.08	228.59
402.45	228.67
402.83	228.80
403.20	228.78
403.58	228.90
403.95	229.01
404.33	229.19
404.71	229.35
405.08	229.57
405.46	229.75
405.83	229.97
406.21	230.03
406.58	230.24
406.96	230.44
407.33	230.74
407.70	230.88
408.08	231.25
408.45	231.45
408.83	231.69
409.20	231.84
409.58	231.92
409.95	232.31
410.33	232.61
410.70	232.85
411.08	233.28
411.45	233.56
411.82	233.94
412.20	234.24
412.57	234.73
412.95	234.91
413.32	235.33
413.69	235.70
414.07	236.15
414.44	236.65
414.82	237.12
415.19	237.58
415.56	238.18
415.94	238.69
416.31	239.33
416.68	239.84
417.06	240.69
417.43	241.50
417.81	242.23
418.18	243.03
418.55	243.83
418.93	244.59
419.30	245.46
419.67	246.28
420.04	247.18
420.42	248.08
420.79	249.40
421.16	250.41
421.54	251.69
421.91	252.77
422.28	253.86
422.66	255.18
423.03	256.48
423.40	257.77
423.77	259.15
424.15	260.47
424.52	261.91
424.89	263.41
425.26	264.75
425.64	266.18
426.01	267.73
426.38	269.48
426.75	271.22
427.13	273.02
427.50	274.81
427.87	276.69
428.24	278.40
428.61	280.09
428.99	282.10
429.36	284.10
429.73	286.21
430.10	288.25
430.47	290.37
430.85	292.41
431.22	294.70
431.59	297.15
431.96	299.42
432.33	302.00
432.70	304.37
433.08	307.22
433.45	309.92
433.82	312.54
434.19	315.35
434.56	318.21
434.93	320.71
435.30	323.45
435.68	326.39
436.05	329.34
436.42	332.14
436.79	334.84
437.16	337.63
437.53	340.48
437.90	343.40
438.27	346.33
438.64	349.28
439.01	351.93
439.38	354.11
439.75	356.40
440.13	358.85
440.50	361.34
440.87	363.38
441.24	365.39
441.61	367.63
441.98	369.13
442.35	371.04
442.72	373.10
443.09	375.07
443.46	376.17
443.83	376.76
444.20	377.37
444.57	378.20
444.94	378.56
445.31	379.07
445.68	379.67
446.05	379.62
446.42	379.29
446.79	378.95
447.16	378.57
447.53	378.39
447.90	377.40
448.27	376.34
448.64	374.78
449.01	373.71
449.37	371.89
449.74	370.13
450.11	367.98
450.48	365.49
450.85	362.92
451.22	360.69
451.59	358.80
451.96	356.88
452.33	354.27
452.70	351.79
453.07	348.97
453.43	345.93
453.80	343.04
454.17	340.37
454.54	337.76
454.91	335.03
455.28	332.25
455.65	329.67
456.02	327.22
456.38	324.95
456.75	322.25
457.12	319.85
457.49	317.59
457.86	315.23
458.23	313.39
458.59	311.29
458.96	309.16
459.33	307.24
459.70	305.42
460.07	303.81
460.43	302.10
460.80	300.48
461.17	298.95
461.54	297.51
461.91	296.00
462.27	294.39
462.64	293.12
463.01	291.73
463.38	290.36
463.74	288.79
464.11	287.61
464.48	286.44
464.85	285.27
465.21	284.35
465.58	283.33
465.95	282.13
466.32	281.26
466.68	280.33
467.05	279.29
467.42	278.18
467.78	277.14
468.15	276.23
468.52	275.43
468.88	274.54
469.25	273.65
469.62	272.93
469.98	272.20
470.35	271.50
470.72	270.79
471.08	270.07
471.45	269.40
471.82	268.81
472.18	268.09
472.55	267.46
472.92	266.79
473.28	266.29
473.65	265.66
474.02	265.03
474.38	264.50
474.75	264.08
475.11	263.62
475.48	263.15
475.85	262.73
476.21	262.24
476.58	261.89
476.94	261.52
477.31	261.17
477.67	260.90
478.04	260.54
478.41	260.23
478.77	260.10
479.14	259.77
479.50	259.41
479.87	259.26
480.23	259.20
480.60	258.95
480.96	258.71
481.33	258.67
481.69	258.45
482.06	258.26
482.42	258.15
482.79	258.02
483.15	257.92
483.52	257.87
483.88	257.76
484.25	257.65
484.61	257.65
484.98	257.53
485.34	257.53
485.71	257.54
486.07	257.57
486.44	257.50
486.80	257.54
487.17	257.65
487.53	257.79
487.90	257.79
488.26	258.13
488.62	258.20
488.99	258.21
489.35	258.27
489.72	258.51
490.08	258.62
490.44	258.84
490.81	259.13
491.17	259.38
491.54	259.71
491.90	260.05
492.26	260.33
492.63	260.84
492.99	261.30
493.36	261.65
493.72	262.11
494.08	262.49
494.45	263.01
494.81	263.59
495.17	263.97
495.54	264.67
495.90	265.05
496.26	265.84
496.63	266.57
496.99	267.43
497.35	268.24
497.72	269.05
498.08	269.80
498.44	270.68
498.80	271.66
499.17	272.65
499.53	273.55
499.89	274.59
500.26	275.61
500.62	276.73
500.98	278.00
501.34	279.30
501.71	280.69
502.07	282.10
502.43	283.54
502.79	285.20
503.16	286.69
503.52	288.31
503.88	290.11
504.24	291.90
504.60	293.74
504.97	295.70
505.33	297.76
505.69	300.07
506.05	302.19
506.41	304.42
506.78	306.68
507.14	309.28
507.50	311.82
507.86	314.47
508.22	317.29
508.59	320.09
508.95	323.00
509.31	326.07
509.67	329.25
510.03	332.54
510.39	335.96
510.75	339.50
511.12	343.29
511.48	346.74
511.84	350.52
512.20	354.54
512.56	358.71
512.92	362.98
513.28	367.27
513.64	371.81
514.00	376.34
514.37	381.29
514.73	386.03
515.09	391.02
515.45	396.19
515.81	401.27
516.17	406.73
516.53	412.23
516.89	417.75
517.25	423.49
517.61	429.30
517.97	434.98
518.33	440.90
518.69	446.94
519.05	453.50
519.41	459.92
519.77	466.38
520.13	473.19
520.49	479.87
520.85	486.63
521.21	493.49
521.57	500.67
521.93	507.57
522.29	514.91
522.65	522.26
523.01	529.73
523.37	536.83
523.73	544.38
524.09	552.10
524.45	560.05
524.81	568.02
525.17	575.96
525.53	584.36
525.89	592.72
526.25	601.09
526.61	609.30
526.97	617.85
527.33	626.40
527.68	635.12
528.04	643.91
528.40	653.00
528.76	662.51
529.12	671.71
529.48	681.20
529.84	690.23
530.20	699.64
530.56	709.10
530.91	719.41
531.27	729.00
531.63	738.49
531.99	748.11
532.35	757.86
532.71	767.55
533.07	777.30
533.42	787.33
533.78	797.39
534.14	807.63
534.50	817.40
534.86	827.42
535.21	836.95
535.57	847.30
535.93	857.18
536.29	867.06
536.65	877.10
537.00	886.90
537.36	897.11
537.72	906.99
538.08	917.20
538.44	926.54
538.79	937.01
539.15	947.00
539.51	956.79
539.87	966.94
540.22	977.36
540.58	987.41
540.94	997.15
541.29	1007.09
541.65	1016.86
542.01	1027.01
542.37	1036.83
542.72	1046.70
543.08	1056.21
543.44	1065.96
543.79	1074.86
544.15	1084.37
544.51	1094.50
544.87	1104.29
545.22	1113.67
545.58	1122.78
545.94	1131.99
546.29	1140.55
546.65	1149.77
547.01	1158.99
547.36	1167.34
547.72	1175.58
548.07	1184.24
548.43	1192.48
548.79	1200.40
549.14	1208.02
549.50	1215.97
549.86	1223.80
550.21	1231.60
550.57	1239.49
550.92	1247.13
551.28	1255.07
551.64	1262.49
551.99	1269.26
552.35	1275.98
552.70	1283.42
553.06	1290.62
553.41	1297.94
553.77	1305.19
554.13	1311.89
554.48	1318.47
554.84	1325.52
555.19	1332.42
555.55	1339.05
555.90	1345.41
556.26	1352.14
556.61	1358.84
556.97	1364.85
557.32	1371.21
557.68	1377.47
558.03	1383.16
558.39	1388.95
558.74	1395.23
559.10	1401.18
559.45	1407.33
559.81	1414.08
560.16	1419.37
560.52	1424.81
560.87	1430.53
561.23	1435.30
561.58	1440.81
561.94	1446.35
562.29	1450.95
562.64	1455.51
563.00	1460.38
563.35	1465.99
563.71	1471.07
564.06	1476.07
564.42	1481.16
564.77	1485.91
565.12	1490.49
565.48	1495.10
565.83	1499.22
566.19	1503.29
566.54	1506.83
566.89	1510.03
567.25	1512.93
567.60	1517.30
567.96	1520.71
568.31	1524.12
568.66	1527.59
569.02	1530.89
569.37	1533.30
569.72	1536.45
570.08	1539.32
570.43	1541.93
570.78	1544.00
571.14	1545.48
571.49	1547.34
571.84	1549.73
572.20	1550.94
572.55	1552.74
572.90	1554.15
573.26	1556.09
573.61	1557.36
573.96	1558.82
574.31	1559.95
574.67	1560.44
575.02	1560.20
575.37	1560.80
575.72	1560.44
576.08	1560.68
576.43	1560.39
576.78	1560.89
577.13	1561.24
577.49	1561.48
577.84	1560.63
578.19	1560.04
578.54	1559.93
578.90	1559.21
579.25	1557.53
579.60	1556.72
579.95	1555.34
580.30	1554.03
580.66	1552.48
581.01	1550.85
581.36	1549.55
581.71	1548.50
582.06	1547.40
582.42	1546.07
582.77	1544.46
583.12	1542.78
583.47	1541.47
583.82	1540.21
584.17	1538.08
584.53	1536.25
584.88	1534.25
585.23	1532.54
585.58	1530.78
585.93	1528.76
586.28	1527.15
586.63	1525.84
586.98	1524.27
587.34	1522.59
587.69	1520.93
588.04	1518.99
588.39	1517.32
588.74	1514.22
589.09	1511.63
589.44	1508.69
589.79	1506.49
590.14	1504.15
590.49	1501.91
590.84	1499.30
591.19	1496.48
591.54	1493.23
591.89	1489.31
592.25	1486.23
592.60	1482.80
592.95	1479.18
593.30	1475.68
593.65	1471.74
594.00	1467.81
594.35	1464.47
594.70	1460.59
595.05	1457.00
595.40	1452.87
595.75	1448.49
596.10	1445.06
596.45	1441.83
596.80	1438.92
597.15	1435.70
597.50	1431.97
597.85	1428.59
598.19	1424.99
598.54	1421.70
598.89	1418.52
599.24	1415.72
599.59	1412.10
599.94	1409.25
600.29	1405.74
600.64	1401.90
600.99	1397.99
601.34	1394.40
601.69	1390.11
602.04	1386.18
602.39	1382.12
602.74	1378.76
603.08	1375.60
603.43	1372.52
603.78	1368.49
604.13	1364.24
604.48	1359.78
604.83	1355.83
605.18	1351.63
605.53	1346.71
605.87	1341.40
606.22	1337.25
606.57	1332.76
606.92	1328.10
607.27	1323.76
607.62	1319.71
607.96	1315.93
608.31	1311.76
608.66	1307.29
609.01	1302.55
609.36	1297.60
609.70	1292.40
610.05	1287.15
610.40	1281.84
610.75	1276.24
611.10	1270.76
611.44	1265.23
611.79	1260.29
612.14	1254.97
612.49	1249.29
612.83	1244.08
613.18	1239.21
613.53	1233.53
613.88	1227.49
614.22	1222.13
614.57	1216.05
614.92	1210.39
615.27	1204.82
615.61	1199.49
615.96	1194.10
616.31	1189.31
616.65	1184.95
617.00	1180.19
617.35	1175.42
617.70	1170.45
618.04	1165.13
618.39	1160.18
618.74	1155.43
619.08	1149.81
619.43	1144.71
619.78	1139.99
620.12	1135.09
620.47	1129.91
620.82	1124.84
621.16	1120.40
621.51	1115.62
621.85	1110.56
622.20	1105.30
622.55	1100.08
622.89	1095.14
623.24	1090.19
623.59	1084.88
623.93	1079.60
624.28	1074.43
624.62	1069.07
624.97	1063.77
625.32	1059.12
625.66	1054.28
626.01	1049.09
626.35	1044.30
626.70	1039.14
627.04	1034.17
627.39	1028.81
627.73	1023.48
628.08	1018.54
628.43	1013.31
628.77	1008.15
629.12	1003.05
629.46	998.10
629.81	992.64
630.15	987.19
630.50	981.74
630.84	976.47
631.19	970.62
631.53	965.30
631.88	959.97
632.22	954.36
632.57	949.11
632.91	943.62
633.26	938.27
633.60	932.48
633.95	927.21
634.29	922.12
634.64	917.46
634.98	912.66
635.32	908.05
635.67	903.41
636.01	898.34
636.36	893.60
636.70	888.80
637.05	884.70
637.39	880.29
637.73	875.66
638.08	871.57
638.42	867.70
638.77	863.30
639.11	858.93
639.45	854.86
639.80	850.38
640.14	846.02
640.49	841.64
640.83	837.60
641.17	833.26
641.52	828.74
641.86	824.25
642.20	819.89
642.55	815.18
642.89	810.61
643.23	806.09
643.58	802.00
643.92	797.58
644.26	792.83
644.61	788.63
644.95	784.14
645.29	778.96
645.64	774.12
645.98	769.54
646.32	765.13
646.66	760.32
647.01	755.77
647.35	751.10
647.69	746.95
648.04	742.77
648.38	738.17
648.72	733.56
649.06	728.94
649.41	724.53
649.75	720.01
650.09	715.28
650.43	711.08
650.78	706.37
651.12	701.79
651.46	697.56
651.80	693.20
652.14	689.11
652.49	685.13
652.83	681.16
653.17	676.84
653.51	672.50
653.85	668.56
654.20	664.47
654.54	660.31
654.88	655.92
655.22	651.33
655.56	647.13
655.90	643.36
656.25	639.55
656.59	635.53
656.93	631.80
657.27	628.24
657.61	624.18
657.95	620.55
658.29	616.87
658.64	612.93
658.98	608.79
659.32	604.85
659.66	601.13
660.00	597.25
660.34	593.67
660.68	590.04
661.02	586.39
661.36	582.77
661.70	579.37
662.05	576.06
662.39	573.00
662.73	569.91
663.07	566.60
663.41	563.37
663.75	560.30
664.09	556.75
664.43	553.36
664.77	550.43
665.11	547.20
665.45	544.05
665.79	541.07
666.13	538.01
666.47	534.79
666.81	531.70
667.15	528.35
667.49	525.35
667.83	522.57
668.17	519.56
668.51	516.60
668.85	513.65
669.19	510.57
669.53	507.65
669.87	504.47
670.21	501.50
670.55	498.49
670.89	495.69
671.23	493.38
671.57	490.81
671.91	487.96
672.25	485.30
672.58	482.94
672.92	480.13
673.26	477.75
673.60	475.48
673.94	473.22
674.28	471.11
674.62	468.95
674.96	466.46
675.30	464.20
675.64	461.87
675.97	459.55
676.31	457.59
676.65	455.28
676.99	453.32
677.33	451.00
677.67	448.92
678.01	446.47
678.34	444.06
678.68	441.80
679.02	439.79
679.36	437.57
679.70	435.44
680.04	433.51
680.37	431.30
680.71	429.20
681.05	427.18
681.39	425.20
681.73	423.06
682.06	421.16
682.40	419.28
682.74	417.50
683.08	415.64
683.42	413.53
683.75	411.62
684.09	409.71
684.43	407.88
684.77	405.96
685.10	404.30
685.44	402.43
685.78	400.67
686.12	398.91
686.45	397.15
686.79	395.22
687.13	393.50
687.46	391.66
687.80	389.94
688.14	388.01
688.48	386.26
688.81	384.49
689.15	382.73
689.49	380.91
689.82	379.19
690.16	377.36
690.50	375.71
690.83	374.18
691.17	372.44
691.51	371.00
691.84	369.50
692.18	367.81
692.52	366.29
692.85	364.69
693.19	363.06
693.52	361.69
693.86	360.21
694.20	358.64
694.53	357.27
694.87	355.75
695.21	354.28
695.54	352.64
695.88	351.15
696.21	349.67
696.55	348.39
696.88	346.96
697.22	345.72
697.56	344.48
697.89	343.00
698.23	341.81
698.56	340.30
698.90	338.93
699.23	337.59
699.57	336.28
699.90	335.02
700.24	333.71
700.58	332.30
700.91	331.11
701.25	330.05
701.58	328.89
701.92	327.76
702.25	326.64
702.59	325.63
702.92	324.58
703.26	323.49
703.59	322.29
703.93	321.40
704.26	320.29
704.60	319.04
704.93	317.94
705.26	316.83
705.60	315.81
705.93	314.89
706.27	314.06
706.60	313.06
706.94	312.08
707.27	311.03
707.61	310.08
707.94	309.12
708.27	308.02
708.61	307.07
708.94	306.00
709.28	305.10
709.61	304.19
709.94	303.40
710.28	302.50
710.61	301.78
710.95	300.71
711.28	300.02
711.61	299.30
711.95	298.53
712.28	297.59
712.61	296.76
712.95	295.88
713.28	295.04
713.61	294.21
713.95	293.44
714.28	292.79
714.61	292.11
714.95	291.32
715.28	290.55
715.61	289.75
715.95	289.09
716.28	288.37
716.61	287.64
716.95	286.86
717.28	286.35
717.61	285.61
717.94	285.02
718.28	284.20
718.61	283.59
718.94	283.03
719.27	282.45
719.61	281.92
719.94	281.34
720.27	280.70
720.60	280.17
720.94	279.57
721.27	279.06
721.60	278.53
721.93	278.10
722.27	277.74
722.60	277.33
722.93	276.81
723.26	276.29
723.59	275.78
723.93	275.32
724.26	274.73
724.59	274.21
724.92	273.77
725.25	273.35
725.59	272.92
725.92	272.46
726.25	271.94
726.58	271.42
726.91	270.92
727.24	270.40
727.57	270.02
727.91	269.57
728.24	269.10
728.57	268.59
728.90	268.11
729.23	267.58
729.56	267.30
729.89	266.99
730.22	266.58
730.55	266.18
730.89	265.73
731.22	265.35
731.55	264.94
731.88	264.47
732.21	264.04
732.54	263.54
732.87	263.18
733.20	262.85
733.53	262.50
733.86	262.22
734.19	261.98
734.52	261.56
734.85	261.36
735.18	261.05
735.51	260.82
735.84	260.50
736.17	260.25
736.50	259.73
736.83	259.58
737.16	259.26
737.49	258.96
737.82	258.60
738.15	258.22
738.48	258.01
738.81	257.61
739.14	257.30
739.47	257.01
739.80	256.61
740.13	256.40
740.46	256.09
740.79	255.76
741.12	255.41
741.45	255.11
741.78	254.78
742.11	254.40
742.44	254.00
742.77	253.71
743.10	253.37
743.43	253.05
743.75	252.60
744.08	252.51
744.41	252.16
744.74	251.96
745.07	251.66
745.40	251.39
745.73	251.18
746.06	250.91
746.39	250.65
746.71	250.41
747.04	250.00
747.37	249.76
747.70	249.53
748.03	249.27
748.36	249.07
748.68	248.69
749.01	248.41
749.34	248.22
749.67	247.90
750.00	247.63
750.33	247.63
750.65	247.27
750.98	246.78
751.31	246.60
751.64	246.25
751.97	246.16
752.29	245.86
752.62	245.62
752.95	245.48
753.28	245.28
753.60	245.05
753.93	244.86
754.26	244.72
754.59	244.40
754.91	244.12
755.24	243.92
755.57	243.72
755.90	243.48
756.22	243.29
756.55	243.09
756.88	242.88
757.20	242.49
757.53	242.30
757.86	242.23
758.19	242.16
758.51	242.07
758.84	241.80
759.17	241.75
759.49	241.50
759.82	241.32
760.15	241.12
760.47	241.01
760.80	240.97
761.13	240.85
761.45	240.77
761.78	240.68
762.11	240.57
762.43	240.47
762.76	240.43
763.08	240.36
763.41	240.33
763.74	240.22
764.06	240.19
764.39	240.18
764.71	240.00
765.04	239.89
765.37	239.78
765.69	239.67
766.02	239.46
766.34	239.48
766.67	239.36
767.00	239.35
767.32	239.34
767.65	239.36
767.97	239.19
768.30	238.99
768.62	238.88
768.95	238.73
769.27	238.74
769.60	238.68
769.92	238.47
770.25	238.36
770.57	238.33
770.90	238.20
771.22	237.95
771.55	237.88
771.87	237.69
772.20	237.54
772.52	237.69
772.85	237.82
773.17	237.64
773.50	237.57
773.82	237.46
774.15	237.26
774.47	237.03
774.80	236.95
775.12	236.91
775.45	236.93
775.77	236.83
776.09	236.65
776.42	236.59
776.74	236.50
777.07	236.44
777.39	236.30
777.72	236.15
778.04	236.30
778.36	236.15
778.69	236.08
779.01	236.08
779.33	235.80
779.66	235.49
779.98	235.47
780.31	235.41
780.63	235.34
780.95	235.27
781.28	235.24
781.60	235.13
781.92	235.00
782.25	234.81
782.57	234.82
782.89	234.84
783.22	234.69
783.54	234.64
783.86	234.45
784.19	234.31
784.51	234.40
784.83	234.13
785.16	234.13
785.48	234.10
785.80	234.04
786.12	233.93
786.45	233.80
786.77	233.66
787.09	233.50
787.42	233.43
787.74	233.38
788.06	233.28
788.38	233.19
788.71	233.21
789.03	233.10
789.35	232.96
789.67	232.71
789.99	232.71
790.32	232.66
790.64	232.64
790.96	232.73
791.28	232.53
791.61	232.54
791.93	232.40
792.25	232.35
792.57	232.28
792.89	232.18
793.21	232.24
793.54	232.26
793.86	232.19
794.18	232.12
794.50	232.06
794.82	231.92
795.14	231.81
795.47	231.74
795.79	231.66
796.11	231.54
796.43	231.57
796.75	231.40
797.07	231.24
797.39	231.20
797.71	230.96
798.04	230.95
798.36	230.85
798.68	230.89
799.00	230.83
799.32	230.80
799.64	230.90
799.96	230.82
800.28	230.73
800.60	230.62
800.92	230.63
801.24	230.58
801.56	230.58
801.89	230.58
802.21	230.58
802.53	230.64
802.85	230.77
803.17	230.87
803.49	230.95
803.81	230.95
804.13	230.93
804.45	230.98
804.77	230.91
805.09	230.89
805.41	230.88
805.73	230.84
806.05	230.81
806.37	230.72
806.69	230.70
807.01	230.73
807.33	230.93
807.65	230.84
807.97	231.00
808.28	231.01
808.60	231.03
808.92	231.09
809.24	231.19
809.56	231.06
809.88	230.97
810.20	230.90
810.52	231.05
810.84	231.08
811.16	231.03
811.48	231.10
811.80	231.22
812.12	231.17
812.43	231.18
812.75	231.21
813.07	231.17
813.39	231.20
813.71	231.10
814.03	231.02
814.35	231.05
814.67	230.81
814.98	230.80
815.30	230.73
815.62	230.60
815.94	230.40
816.26	230.51
816.58	230.45
816.89	230.45
817.21	230.30
817.53	230.32
817.85	230.34
818.17	230.20
818.48	230.13
818.80	230.20
819.12	230.14
819.44	230.01
819.76	230.11
820.07	229.99
820.39	230.01
820.71	229.92
821.03	229.88
821.34	229.90
821.66	229.80
821.98	229.86
822.30	229.87
822.61	229.96
822.93	229.83
823.25	229.84
823.57	229.91
823.88	230.04
824.20	229.99
824.52	229.97
824.83	230.02
825.15	229.91
825.47	229.84
825.79	229.88
826.10	229.88
826.42	229.71
826.74	229.80
827.05	229.76
827.37	229.86
827.69	229.80
828.00	229.85
828.32	229.90
828.64	229.87
828.95	229.96
829.27	229.92
829.58	229.86
829.90	229.93
830.22	229.85
830.53	229.70
830.85	229.57
831.17	229.60
831.48	229.55
831.80	229.50
832.11	229.43
832.43	229.37
832.75	229.39
833.06	229.46
833.38	229.42
833.69	229.49
834.01	229.31
834.32	229.34
834.64	229.23
834.96	229.24
835.27	229.21
835.59	229.11
835.90	229.07
836.22	229.02
836.53	228.83
836.85	228.75
837.16	229.04
837.48	229.08
837.79	229.05
838.11	229.11
838.42	229.17
838.74	229.21
839.05	229.22
839.37	229.21
839.68	229.17
840.00	229.06
840.31	229.01
840.63	229.11
840.94	229.09
841.26	229.09
841.57	229.09
841.88	229.11
842.20	229.13
842.51	229.17
842.83	229.20
843.14	229.40
843.46	229.40
843.77	229.11
844.08	229.14
844.40	229.05
844.71	229.00
845.03	228.86
845.34	228.89
845.65	228.82
845.97	228.74
846.28	228.65
846.60	228.70
846.91	228.71
847.22	228.74
847.54	228.81
847.85	228.85
848.16	228.89
848.48	228.87
848.79	229.00
849.10	228.90
849.42	228.93
849.73	228.73
850.04	228.70
850.36	228.65
850.67	228.65
850.98	228.64
851.30	228.70
851.61	228.80
851.92	228.84
852.23	228.93
852.55	229.01
852.86	229.11
853.17	229.20
853.49	229.23
853.80	229.20
854.11	229.19
854.42	229.15
854.74	229.06
855.05	229.03
855.36	228.95
855.67	229.06
855.99	229.18
856.30	229.40
856.61	229.50
856.92	229.60
857.23	229.54
857.55	229.62
857.86	229.42
858.17	229.50
858.48	229.38
858.79	229.26
859.11	229.34
859.42	229.28
859.73	229.31
860.04	229.27
860.35	229.21
860.66	229.08
860.98	229.12
861.29	229.17
861.60	229.19
861.91	229.17
862.22	229.12
862.53	229.07
862.84	228.86
863.16	228.92
863.47	228.84
863.78	228.84
864.09	228.79
864.40	228.86
864.71	228.90
865.02	228.92
865.33	228.96
865.64	228.90
865.95	228.95
866.27	229.03
866.58	229.06
866.89	229.09
867.20	229.22
867.51	229.29
867.82	229.26
868.13	229.33
868.44	229.37
868.75	229.37
869.06	229.29
869.37	229.35
869.68	229.17
869.99	229.10
870.30	229.20
870.61	229.16
870.92	229.26
871.23	229.15
871.54	229.18
871.85	229.21
872.16	229.20
872.47	229.22
872.78	229.00
873.09	228.99
873.40	228.96
873.71	228.87
874.02	228.77
874.33	228.82
874.64	228.73
874.95	228.70
875.26	228.56
875.56	228.68
875.87	228.62
876.18	228.64
876.49	228.91
876.80	228.83
877.11	228.90
877.42	228.85
877.73	228.94
878.04	228.89
878.35	228.80
878.66	228.75
878.96	228.76
879.27	228.72
879.58	228.65
879.89	228.67
880.20	228.73
880.51	228.70
880.82	228.57
881.12	228.48
881.43	228.31
881.74	228.34
882.05	228.25
882.36	228.30
882.67	228.38
882.97	228.19
883.28	228.14
883.59	228.12
883.90	228.18
884.21	228.09
884.51	228.16
884.82	228.12
885.13	228.17
885.44	228.07
885.74	228.12
886.05	228.12
886.36	228.09
886.67	228.10
886.98	228.15
887.28	228.20
887.59	228.34
887.90	228.46
888.20	228.48
888.51	228.41
888.82	228.36
889.13	228.41
889.43	228.52
889.74	228.52
890.05	228.46
890.35	228.41
890.66	228.45
890.97	228.44
891.28	228.55
891.58	228.51
891.89	228.52
892.20	228.52
892.50	228.52
892.81	228.58
893.12	228.60
893.42	228.58
893.73	228.59
894.04	228.54
894.34	228.50
894.65	228.48
894.95	228.43
895.26	228.51
895.57	228.58
895.87	228.44
896.18	228.52
896.48	228.68
896.79	228.64
897.10	228.72
897.40	228.65
897.71	228.79
898.01	228.84
898.32	228.95
898.63	228.93
898.93	228.97
899.24	229.00
899.54	228.91
899.85	228.90
900.15	228.95
900.46	228.98
900.76	229.06
901.07	229.08
901.38	229.19
901.68	229.18
901.99	229.10
902.29	229.04
902.60	229.00
902.90	228.90
903.21	228.98
903.51	228.85
903.82	228.90
904.12	228.75
904.43	228.78
904.73	228.71
905.03	228.78
905.34	228.97
905.64	228.89
905.95	228.86
906.25	228.83
906.56	228.75
906.86	228.71
907.17	228.62
907.47	228.71
907.77	228.66
908.08	228.54
908.38	228.49
908.69	228.55
908.99	228.56
909.30	228.50
909.60	228.40
909.90	228.44
910.21	228.40
910.51	228.39
910.81	228.32
911.12	228.20
911.42	228.16
911.73	227.84
912.03	227.89
912.33	227.97
912.64	227.97
912.94	227.98
913.24	227.96
913.55	228.01
913.85	227.88
914.15	227.88
914.46	228.06
914.76	228.08
915.06	228.14
915.37	228.08
915.67	228.08
915.97	228.17
916.27	228.15
916.58	228.23
916.88	228.21
917.18	228.18
917.49	228.37
917.79	228.34
918.09	228.51
918.39	228.60
918.70	228.50
919.00	228.48
919.30	228.53
919.60	228.49
919.91	228.52
920.21	228.73
920.51	228.78
920.81	228.75
921.12	228.79
921.42	228.82
921.72	228.92
922.02	229.01
922.32	228.97
922.63	228.90
922.93	228.99
923.23	228.96
923.53	228.93
923.83	228.71
924.13	228.76
924.44	228.66
924.74	228.65
925.04	228.77
925.34	228.78
925.64	228.72
925.94	228.78
926.24	228.85
926.55	228.56
926.85	228.56
927.15	228.46
927.45	228.44
927.75	228.35
928.05	228.44
928.35	228.34
928.65	228.45
928.95	228.56
929.26	228.44
929.56	228.50
929.86	228.50
930.16	228.67
930.46	228.58
930.76	228.69
931.06	228.61
931.36	228.55
931.66	228.71
931.96	228.80
932.26	228.79
932.56	228.69
932.86	228.83
933.16	228.84
933.46	228.88
933.76	228.89
934.06	228.93
934.36	228.89
934.66	228.96
934.96	228.83
935.26	228.79
935.56	228.87
935.86	228.87
936.16	228.83
936.46	228.72
936.76	228.83
937.06	228.81
937.36	228.71
937.66	228.79
937.96	228.69
938.26	228.66
938.56	228.59
938.86	228.64
939.16	228.64
939.46	228.58
939.76	228.59
940.06	228.45
940.35	228.35
940.65	228.20
940.95	228.15
941.25	228.10
941.55	228.10
941.85	228.09
942.15	228.12
942.45	228.19
942.75	228.20
943.04	228.12
943.34	228.03
943.64	228.12
943.94	228.07
944.24	228.09
944.54	228.09
944.84	228.16
945.13	228.02
945.43	228.01
945.73	228.00
946.03	227.92
946.33	227.91
946.62	227.96
946.92	227.93
947.22	228.02
947.52	228.09
947.82	228.09
948.11	227.99
948.41	227.82
948.71	227.66
949.01	227.62
949.31	227.58
949.60	227.63
949.90	227.54
950.20	227.43
950.50	227.36
950.79	227.28
951.09	227.25
951.39	227.26
951.69	227.21
951.98	227.20
952.28	227.23
952.58	227.21
952.87	227.25
953.17	227.19
953.47	227.05
953.76	226.96
954.06	226.90
954.36	226.90
954.66	226.93
954.95	227.05
955.25	227.12
955.55	227.10
955.84	226.97
956.14	226.99
956.44	226.99
956.73	226.98
957.03	227.03
957.32	227.10
957.62	227.18
957.92	227.29
958.21	227.39
958.51	227.64
958.81	227.71
959.10	227.72
959.40	227.92
959.69	228.01
959.99	228.08
960.29	228.10
960.58	228.09
960.88	228.23
961.17	228.28
961.47	228.25
961.76	228.25
962.06	228.41
962.36	228.55
962.65	228.58
962.95	228.58
963.24	228.59
963.54	228.54
963.83	228.48
964.13	228.44
964.42	228.30
964.72	228.10
965.01	228.17
965.31	228.18
965.60	228.16
965.90	228.23
966.19	228.20
966.49	228.29
966.78	228.36
967.08	228.31
967.37	228.40
967.67	228.50
967.96	228.60
968.26	228.57
968.55	228.55
968.85	228.61
969.14	228.63
969.43	228.64
969.73	228.69
970.02	228.70
970.32	228.74
970.61	228.83
970.91	228.86
971.20	228.79
971.49	228.81
971.79	228.87
972.08	228.80
972.38	228.93
972.67	228.88
972.96	228.97
973.26	228.98
973.55	229.03
973.85	229.07
974.14	229.14
974.43	229.23
974.73	229.19
975.02	229.20
975.31	229.20
975.61	229.20
975.90	229.15
976.19	229.18
976.49	229.12
976.78	229.15
977.07	229.13
977.37	229.17
977.66	229.21
977.95	229.17
978.24	229.33
978.54	229.31
978.83	229.31
979.12	229.26
979.42	229.23
979.71	229.12
980.00	229.02
980.29	228.98
980.59	228.92
980.88	228.85
981.17	228.80
981.46	228.85
981.76	228.84
982.05	228.90
982.34	228.91
982.63	228.91
982.93	228.93
983.22	228.88
983.51	228.83
983.80	228.76
984.09	228.73
984.39	228.55
984.68	228.50
984.97	228.45
985.26	228.41
985.55	228.43
985.85	228.43
986.14	228.54
986.43	228.50
986.72	228.56
987.01	228.59
987.30	228.50
987.59	228.45
987.89	228.49
988.18	228.36
988.47	228.39
988.76	228.39
989.05	228.33
989.34	228.27
989.63	228.35
989.92	228.30
990.22	228.22
990.51	228.25
990.80	228.28
991.09	228.30
991.38	228.15
991.67	228.07
991.96	227.99
992.25	227.92
992.54	227.88
992.83	227.70
993.12	227.68
993.41	227.81
993.70	227.80
993.99	227.80
994.28	227.82
994.58	227.73
994.87	227.65
995.16	227.52
995.45	227.57
995.74	227.49
996.03	227.43
996.32	227.53
996.61	227.46
996.90	227.45
997.19	227.49
997.48	227.56
997.77	227.49
998.06	227.61
998.34	227.49
998.63	227.50
998.92	227.54
999.21	227.63
999.50	227.60
999.79	227.65
1000.08	227.63
1000.37	227.74
1000.66	227.82
1000.95	228.01
1001.24	228.15
1001.53	228.20
1001.82	228.18
1002.11	228.20
1002.40	228.27
1002.68	228.40
1002.97	228.56
1003.26	228.52
1003.55	228.50
1003.84	228.60
1004.13	228.55
1004.42	228.65
1004.71	228.60
1004.99	228.64
1005.28	228.63
1005.57	228.63
1005.86	228.68
1006.15	228.74
1006.44	228.70
1006.72	228.67
1007.01	228.60
1007.30	228.65
1007.59	228.61
1007.88	228.76
1008.17	228.93
1008.45	228.88
1008.74	228.75
1009.03	228.61
1009.32	228.58
1009.60	228.64
1009.89	228.67
1010.18	228.57
1010.47	228.55
1010.76	228.63
1011.04	228.61
1011.33	228.64
1011.62	228.73
1011.91	228.70
1012.19	228.56
1012.48	228.56
1012.77	228.53
1013.05	228.65
1013.34	228.61
1013.63	228.70
1013.92	228.64
1014.20	228.57
1014.49	228.54
1014.78	228.56
1015.06	228.51
1015.35	228.57
1015.64	228.57
1015.92	228.65
1016.21	228.73
1016.50	228.72
1016.78	228.77
1017.07	228.80
1017.36	228.80
1017.64	228.78
1017.93	228.74
1018.22	228.75
1018.50	228.81
1018.79	228.80
1019.08	228.68
1019.36	228.58
1019.65	228.49
1019.93	228.57
1020.22	228.57
1020.51	228.58
1020.79	228.56
1021.08	227.30
1021.36	229.50
1021.65	227.80
1021.94	228.80
1022.22	226.50
1022.51	228.00
1022.79	230.40
1023.08	228.70
1023.36	229.10
1023.65	227.40
>>>>>End Processed Spectral Data<<<<<
