SpectraSuite Data File
++++++++++++++++++++++++++++++++++++
Date: Fri Feb 01 14:33:47 EST 2013
User: group
Dark Spectrum Present: No
Reference Spectrum Present: No
Number of Sampled Component Spectra: 1
Spectrometers: USB2E7196
Integration Time (usec): 70000 (USB2E7196)
Spectra Averaged: 10 (USB2E7196)
Boxcar Smoothing: 10 (USB2E7196)
Correct for Electrical Dark: No (USB2E7196)
Strobe/Lamp Enabled: No (USB2E7196)
Correct for Detector Non-linearity: No (USB2E7196)
Correct for Stray Light: No (USB2E7196)
Number of Pixels in Processed Spectrum: 2048
>>>>>Begin Processed Spectral Data<<<<<
339.09	0.00
339.48	215.70
339.86	219.00
340.24	220.50
340.63	220.50
341.01	224.40
341.39	224.00
341.78	225.90
342.16	227.30
342.54	227.20
342.93	215.00
343.31	225.90
343.69	226.41
344.07	226.74
344.46	227.16
344.84	227.50
345.22	227.63
345.60	227.77
345.99	227.87
346.37	227.94
346.75	227.96
347.13	228.02
347.52	228.11
347.90	228.20
348.28	228.15
348.66	228.14
349.05	228.13
349.43	228.15
349.81	228.20
350.19	228.20
350.57	228.33
350.96	228.57
351.34	228.51
351.72	228.66
352.10	228.83
352.48	228.78
352.87	228.83
353.25	228.95
353.63	229.10
354.01	229.18
354.39	229.18
354.77	229.31
355.15	229.40
355.54	229.32
355.92	229.27
356.30	229.30
356.68	229.49
357.06	229.47
357.44	229.53
357.82	229.62
358.20	229.69
358.58	229.66
358.97	229.61
359.35	229.68
359.73	229.80
360.11	229.79
360.49	229.91
360.87	229.91
361.25	229.93
361.63	229.99
362.01	230.06
362.39	230.14
362.77	230.12
363.15	230.13
363.53	230.17
363.91	230.24
364.29	230.24
364.67	230.10
365.05	230.12
365.43	230.11
365.81	230.08
366.19	230.28
366.57	230.47
366.95	230.38
367.33	230.44
367.71	230.40
368.09	230.50
368.47	230.40
368.85	230.44
369.23	230.53
369.61	230.40
369.99	230.46
370.37	230.42
370.75	230.48
371.13	230.47
371.51	230.40
371.89	230.39
372.27	230.41
372.65	230.40
373.03	230.36
373.41	230.30
373.78	230.24
374.16	230.00
374.54	229.82
374.92	229.79
375.30	229.74
375.68	229.62
376.06	229.54
376.44	229.59
376.82	229.54
377.19	229.39
377.57	229.32
377.95	229.13
378.33	229.12
378.71	229.05
379.09	228.97
379.47	229.00
379.84	228.82
380.22	228.69
380.60	228.67
380.98	228.64
381.36	228.62
381.73	228.66
382.11	228.60
382.49	228.62
382.87	228.67
383.25	228.57
383.62	228.86
384.00	228.75
384.38	228.60
384.76	228.63
385.13	228.69
385.51	228.77
385.89	228.70
386.27	228.59
386.64	228.57
387.02	228.55
387.40	228.51
387.78	228.56
388.15	228.61
388.53	228.58
388.91	228.64
389.29	228.67
389.66	228.65
390.04	228.65
390.42	228.62
390.79	228.48
391.17	228.53
391.55	228.19
391.92	228.25
392.30	228.38
392.68	228.26
393.05	228.25
393.43	228.18
393.81	228.27
394.18	228.31
394.56	228.31
394.94	228.46
395.31	228.44
395.69	228.51
396.06	228.60
396.44	228.58
396.82	228.60
397.19	228.76
397.57	228.74
397.95	228.92
398.32	228.94
398.70	229.17
399.07	229.22
399.45	229.44
399.82	229.54
400.20	229.54
400.58	229.77
400.95	229.90
401.33	230.18
401.70	230.48
402.08	230.64
402.45	230.82
402.83	231.05
403.20	231.33
403.58	231.61
403.95	231.91
404.33	232.28
404.71	232.54
405.08	232.92
405.46	233.29
405.83	233.66
406.21	234.09
406.58	234.50
406.96	235.00
407.33	235.45
407.70	235.97
408.08	236.78
408.45	237.33
408.83	237.96
409.20	238.48
409.58	239.06
409.95	239.88
410.33	240.67
410.70	241.37
411.08	242.32
411.45	243.31
411.82	244.30
412.20	245.46
412.57	246.75
412.95	247.80
413.32	249.08
413.69	250.45
414.07	251.91
414.44	253.52
414.82	255.17
415.19	257.07
415.56	258.98
415.94	260.88
416.31	263.13
416.68	265.41
417.06	268.09
417.43	270.50
417.81	273.33
418.18	276.10
418.55	279.26
418.93	282.42
419.30	285.76
419.67	289.20
420.04	292.71
420.42	296.53
420.79	300.83
421.16	305.32
421.54	309.72
421.91	314.28
422.28	319.11
422.66	324.30
423.03	329.16
423.40	334.40
423.77	340.06
424.15	345.73
424.52	351.69
424.89	358.02
425.26	364.25
425.64	370.14
426.01	376.78
426.38	383.39
426.75	390.30
427.13	397.39
427.50	404.91
427.87	412.61
428.24	420.26
428.61	427.73
428.99	435.77
429.36	444.67
429.73	453.51
430.10	462.07
430.47	470.66
430.85	479.66
431.22	489.05
431.59	498.98
431.96	508.61
432.33	519.14
432.70	529.61
433.08	541.82
433.45	553.05
433.82	564.25
434.19	576.94
434.56	589.10
434.93	600.87
435.30	612.56
435.68	625.58
436.05	638.45
436.42	651.04
436.79	662.62
437.16	675.15
437.53	688.02
437.90	700.80
438.27	713.65
438.64	727.00
439.01	739.49
439.38	750.40
439.75	760.89
440.13	773.28
440.50	784.71
440.87	794.17
441.24	804.50
441.61	815.82
441.98	824.10
442.35	833.76
442.72	843.62
443.09	853.27
443.46	859.54
443.83	863.83
444.20	868.14
444.57	873.65
444.94	876.72
445.31	880.49
445.68	883.81
446.05	886.16
446.42	886.31
446.79	886.44
447.16	886.66
447.53	887.26
447.90	883.93
448.27	880.30
448.64	874.99
449.01	871.78
449.37	864.51
449.74	857.52
450.11	848.95
450.48	839.52
450.85	829.64
451.22	821.47
451.59	813.69
451.96	806.04
452.33	795.33
452.70	785.98
453.07	774.25
453.43	762.59
453.80	751.03
454.17	740.05
454.54	729.50
454.91	717.98
455.28	706.86
455.65	696.39
456.02	685.83
456.38	676.95
456.75	665.20
457.12	655.76
457.49	646.22
457.86	637.19
458.23	629.18
458.59	620.42
458.96	611.25
459.33	603.50
459.70	595.50
460.07	589.50
460.43	581.95
460.80	574.87
461.17	568.69
461.54	562.41
461.91	556.29
462.27	550.04
462.64	544.78
463.01	538.81
463.38	533.06
463.74	527.72
464.11	522.54
464.48	518.18
464.85	513.34
465.21	509.82
465.58	505.81
465.95	501.12
466.32	497.20
466.68	493.33
467.05	489.33
467.42	485.54
467.78	481.30
468.15	477.44
468.52	474.48
468.88	470.69
469.25	467.33
469.62	464.54
469.98	461.58
470.35	458.72
470.72	456.00
471.08	453.24
471.45	450.76
471.82	448.31
472.18	445.45
472.55	443.43
472.92	441.03
473.28	438.98
473.65	437.03
474.02	434.97
474.38	433.29
474.75	431.76
475.11	430.02
475.48	428.92
475.85	428.02
476.21	426.96
476.58	426.20
476.94	425.32
477.31	424.59
477.67	423.72
478.04	422.97
478.41	422.55
478.77	422.34
479.14	421.83
479.50	421.55
479.87	421.79
480.23	421.65
480.60	421.70
480.96	421.72
481.33	421.81
481.69	422.34
482.06	422.65
482.42	422.89
482.79	423.38
483.15	423.86
483.52	424.53
483.88	425.26
484.25	426.02
484.61	426.87
484.98	427.93
485.34	429.24
485.71	430.51
486.07	431.93
486.44	433.12
486.80	434.88
487.17	436.70
487.53	438.46
487.90	440.61
488.26	442.71
488.62	444.90
488.99	447.22
489.35	449.27
489.72	451.73
490.08	454.59
490.44	457.40
490.81	460.39
491.17	463.41
491.54	466.72
491.90	469.90
492.26	473.61
492.63	477.04
492.99	480.41
493.36	484.29
493.72	488.35
494.08	492.26
494.45	496.38
494.81	500.62
495.17	504.87
495.54	509.05
495.90	513.54
496.26	518.23
496.63	523.03
496.99	528.26
497.35	533.63
497.72	538.67
498.08	543.89
498.44	549.35
498.80	554.81
499.17	560.10
499.53	565.67
499.89	571.05
500.26	576.64
500.62	582.46
500.98	588.38
501.34	594.22
501.71	600.51
502.07	606.39
502.43	612.50
502.79	618.77
503.16	625.23
503.52	631.68
503.88	637.62
504.24	643.89
504.60	650.15
504.97	656.44
505.33	662.94
505.69	669.48
506.05	675.86
506.41	682.03
506.78	688.24
507.14	694.59
507.50	701.07
507.86	707.63
508.22	714.09
508.59	720.36
508.95	726.70
509.31	732.89
509.67	739.23
510.03	745.50
510.39	751.85
510.75	757.83
511.12	763.79
511.48	770.26
511.84	776.37
512.20	782.44
512.56	788.52
512.92	794.43
513.28	800.20
513.64	805.65
514.00	811.32
514.37	816.98
514.73	822.71
515.09	828.14
515.45	833.49
515.81	838.55
516.17	843.91
516.53	849.03
516.89	853.94
517.25	858.75
517.61	863.44
517.97	867.80
518.33	872.16
518.69	876.53
519.05	881.04
519.41	885.32
519.77	889.81
520.13	893.90
520.49	897.96
520.85	901.90
521.21	905.88
521.57	909.71
521.93	913.37
522.29	917.20
522.65	920.74
523.01	924.18
523.37	927.56
523.73	930.95
524.09	934.34
524.45	937.90
524.81	941.33
525.17	944.85
525.53	948.33
525.89	951.75
526.25	955.16
526.61	957.65
526.97	961.01
527.33	963.81
527.68	966.82
528.04	969.94
528.40	972.92
528.76	976.29
529.12	979.80
529.48	983.30
529.84	985.68
530.20	988.56
530.56	991.78
530.91	995.25
531.27	998.31
531.63	1000.93
531.99	1003.58
532.35	1006.35
532.71	1008.69
533.07	1011.48
533.42	1014.42
533.78	1017.24
534.14	1020.44
534.50	1022.73
534.86	1025.58
535.21	1027.99
535.57	1030.57
535.93	1033.29
536.29	1035.76
536.65	1037.85
537.00	1040.13
537.36	1043.10
537.72	1045.58
538.08	1048.04
538.44	1050.40
538.79	1052.57
539.15	1055.00
539.51	1057.36
539.87	1060.11
540.22	1062.89
540.58	1065.70
540.94	1067.90
541.29	1069.95
541.65	1072.04
542.01	1074.62
542.37	1076.67
542.72	1078.80
543.08	1080.86
543.44	1082.92
543.79	1084.65
544.15	1087.14
544.51	1089.64
544.87	1091.78
545.22	1094.16
545.58	1095.95
545.94	1097.68
546.29	1099.54
546.65	1101.36
547.01	1103.41
547.36	1105.23
547.72	1107.33
548.07	1108.73
548.43	1110.60
548.79	1112.43
549.14	1114.08
549.50	1115.54
549.86	1116.89
550.21	1118.76
550.57	1120.14
550.92	1121.95
551.28	1123.79
551.64	1125.16
551.99	1126.54
552.35	1128.27
552.70	1129.64
553.06	1131.63
553.41	1133.37
553.77	1134.98
554.13	1136.68
554.48	1138.27
554.84	1139.45
555.19	1140.54
555.55	1142.08
555.90	1143.40
556.26	1144.56
556.61	1146.07
556.97	1147.63
557.32	1149.21
557.68	1150.49
558.03	1152.06
558.39	1153.29
558.74	1154.53
559.10	1155.81
559.45	1156.96
559.81	1158.55
560.16	1159.65
560.52	1160.28
560.87	1161.62
561.23	1162.59
561.58	1163.60
561.94	1164.70
562.29	1165.93
562.64	1166.55
563.00	1167.32
563.35	1168.67
563.71	1170.34
564.06	1171.45
564.42	1172.31
564.77	1173.55
565.12	1174.73
565.48	1175.77
565.83	1176.13
566.19	1177.14
566.54	1177.83
566.89	1178.33
567.25	1178.75
567.60	1179.90
567.96	1180.98
568.31	1181.17
568.66	1181.75
569.02	1182.06
569.37	1181.97
569.72	1182.17
570.08	1182.75
570.43	1182.99
570.78	1182.78
571.14	1182.14
571.49	1182.33
571.84	1182.60
572.20	1182.15
572.55	1181.69
572.90	1181.21
573.26	1181.26
573.61	1180.57
573.96	1180.09
574.31	1179.19
574.67	1177.50
575.02	1175.83
575.37	1174.47
575.72	1173.19
576.08	1172.14
576.43	1171.11
576.78	1170.13
577.13	1168.93
577.49	1167.73
577.84	1166.43
578.19	1165.13
578.54	1163.93
578.90	1162.21
579.25	1159.92
579.60	1158.23
579.95	1156.29
580.30	1154.18
580.66	1151.94
581.01	1149.97
581.36	1147.84
581.71	1146.20
582.06	1144.60
582.42	1142.63
582.77	1140.90
583.12	1139.09
583.47	1137.27
583.82	1135.17
584.17	1132.82
584.53	1130.30
584.88	1127.95
585.23	1125.84
585.58	1123.68
585.93	1121.28
586.28	1119.23
586.63	1117.41
586.98	1114.95
587.34	1112.61
587.69	1110.37
588.04	1108.49
588.39	1106.26
588.74	1103.44
589.09	1100.77
589.44	1097.86
589.79	1095.60
590.14	1092.93
590.49	1090.10
590.84	1087.18
591.19	1084.90
591.54	1082.09
591.89	1078.93
592.25	1076.05
592.60	1072.52
592.95	1068.83
593.30	1065.49
593.65	1062.17
594.00	1058.71
594.35	1056.20
594.70	1052.80
595.05	1049.76
595.40	1046.06
595.75	1042.59
596.10	1039.98
596.45	1037.00
596.80	1034.49
597.15	1031.24
597.50	1027.95
597.85	1025.10
598.19	1022.20
598.54	1018.76
598.89	1015.86
599.24	1013.53
599.59	1010.53
599.94	1007.78
600.29	1005.07
600.64	1002.05
600.99	998.50
601.34	995.40
601.69	991.68
602.04	988.59
602.39	985.14
602.74	982.59
603.08	979.51
603.43	976.44
603.78	973.18
604.13	969.73
604.48	966.59
604.83	963.24
605.18	960.23
605.53	956.65
605.87	953.03
606.22	949.62
606.57	945.86
606.92	942.52
607.27	939.01
607.62	935.83
607.96	932.87
608.31	929.83
608.66	926.26
609.01	922.61
609.36	919.08
609.70	915.32
610.05	911.11
610.40	907.85
610.75	903.97
611.10	900.08
611.44	895.98
611.79	892.02
612.14	888.34
612.49	883.85
612.83	879.85
613.18	876.01
613.53	872.18
613.88	868.07
614.22	863.89
614.57	859.91
614.92	855.73
615.27	851.80
615.61	848.04
615.96	844.36
616.31	840.78
616.65	837.43
617.00	833.99
617.35	830.26
617.70	825.76
618.04	821.84
618.39	818.09
618.74	814.74
619.08	810.97
619.43	807.22
619.78	803.83
620.12	800.18
620.47	796.51
620.82	792.76
621.16	789.34
621.51	786.13
621.85	782.90
622.20	779.43
622.55	775.64
622.89	771.87
623.24	768.32
623.59	764.89
623.93	761.57
624.28	758.24
624.62	754.92
624.97	752.04
625.32	748.90
625.66	745.78
626.01	742.33
626.35	739.01
626.70	735.60
627.04	732.40
627.39	729.16
627.73	726.08
628.08	722.93
628.43	719.57
628.77	716.19
629.12	712.64
629.46	709.33
629.81	706.00
630.15	702.43
630.50	698.98
630.84	695.33
631.19	691.37
631.53	687.85
631.88	684.35
632.22	680.50
632.57	677.10
632.91	673.62
633.26	670.21
633.60	667.00
633.95	663.71
634.29	660.47
634.64	657.44
634.98	654.16
635.32	651.02
635.67	648.21
636.01	645.08
636.36	641.88
636.70	638.85
637.05	635.95
637.39	633.40
637.73	630.54
638.08	628.12
638.42	625.74
638.77	623.01
639.11	620.02
639.45	617.25
639.80	614.30
640.14	611.40
640.49	608.76
640.83	605.86
641.17	603.01
641.52	599.98
641.86	596.82
642.20	594.06
642.55	591.14
642.89	588.25
643.23	585.33
643.58	582.71
643.92	579.90
644.26	577.05
644.61	574.23
644.95	571.51
645.29	568.33
645.64	565.20
645.98	562.44
646.32	559.94
646.66	557.40
647.01	554.63
647.35	552.04
647.69	549.34
648.04	546.93
648.38	544.18
648.72	541.26
649.06	538.62
649.41	535.93
649.75	533.17
650.09	530.35
650.43	527.70
650.78	524.83
651.12	522.04
651.46	519.59
651.80	517.08
652.14	514.60
652.49	512.20
652.83	509.79
653.17	507.20
653.51	504.72
653.85	502.22
654.20	499.82
654.54	497.17
654.88	494.56
655.22	491.78
655.56	489.26
655.90	487.21
656.25	484.95
656.59	482.39
656.93	480.08
657.27	477.94
657.61	475.56
657.95	473.54
658.29	471.44
658.64	469.13
658.98	466.61
659.32	464.20
659.66	461.81
660.00	459.54
660.34	457.28
660.68	454.97
661.02	452.80
661.36	450.62
661.70	448.64
662.05	446.63
662.39	444.85
662.73	443.02
663.07	441.09
663.41	439.14
663.75	437.23
664.09	435.34
664.43	433.29
664.77	431.47
665.11	429.46
665.45	427.42
665.79	425.41
666.13	423.56
666.47	421.74
666.81	419.88
667.15	417.95
667.49	416.20
667.83	414.57
668.17	412.75
668.51	410.85
668.85	409.22
669.19	407.66
669.53	405.86
669.87	404.07
670.21	402.27
670.55	400.60
670.89	399.14
671.23	397.60
671.57	395.99
671.91	394.43
672.25	392.95
672.58	391.63
672.92	390.27
673.26	388.85
673.60	387.35
673.94	386.06
674.28	384.78
674.62	383.57
674.96	382.01
675.30	380.76
675.64	379.45
675.97	377.97
676.31	376.40
676.65	375.10
676.99	373.90
677.33	372.55
677.67	371.20
678.01	369.88
678.34	368.60
678.68	367.35
679.02	365.92
679.36	364.61
679.70	363.06
680.04	361.70
680.37	360.39
680.71	359.15
681.05	358.01
681.39	356.87
681.73	355.50
682.06	354.32
682.40	353.05
682.74	351.95
683.08	350.87
683.42	349.66
683.75	348.49
684.09	347.16
684.43	345.96
684.77	344.71
685.10	343.47
685.44	342.27
685.78	341.11
686.12	339.99
686.45	338.84
686.79	337.89
687.13	336.71
687.46	335.54
687.80	334.42
688.14	333.17
688.48	331.87
688.81	330.69
689.15	329.60
689.49	328.53
689.82	327.32
690.16	326.07
690.50	325.08
690.83	323.90
691.17	322.83
691.51	321.77
691.84	320.85
692.18	319.86
692.52	318.67
692.85	317.66
693.19	316.75
693.52	315.73
693.86	314.82
694.20	313.95
694.53	313.02
694.87	312.11
695.21	311.15
695.54	310.30
695.88	309.32
696.21	308.49
696.55	307.58
696.88	306.89
697.22	306.09
697.56	305.27
697.89	304.43
698.23	303.75
698.56	302.98
698.90	302.03
699.23	301.15
699.57	300.43
699.90	299.53
700.24	298.78
700.58	297.97
700.91	297.16
701.25	296.50
701.58	295.85
701.92	295.07
702.25	294.42
702.59	293.74
702.92	293.24
703.26	292.50
703.59	291.93
703.93	291.30
704.26	290.72
704.60	290.04
704.93	289.48
705.26	288.70
705.60	288.16
705.93	287.64
706.27	287.14
706.60	286.76
706.94	286.30
707.27	285.63
707.61	285.20
707.94	284.66
708.27	284.01
708.61	283.35
708.94	282.89
709.28	282.31
709.61	281.88
709.94	281.29
710.28	280.90
710.61	280.31
710.95	279.78
711.28	279.35
711.61	278.89
711.95	278.42
712.28	277.99
712.61	277.43
712.95	277.04
713.28	276.64
713.61	275.95
713.95	275.50
714.28	275.12
714.61	274.61
714.95	274.03
715.28	273.59
715.61	273.25
715.95	272.84
716.28	272.45
716.61	271.94
716.95	271.46
717.28	270.95
717.61	270.55
717.94	270.00
718.28	269.48
718.61	269.10
718.94	268.67
719.27	268.34
719.61	267.99
719.94	267.55
720.27	267.10
720.60	266.77
720.94	266.45
721.27	266.01
721.60	265.60
721.93	265.25
722.27	264.88
722.60	264.50
722.93	264.07
723.26	263.62
723.59	263.24
723.93	262.91
724.26	262.62
724.59	262.26
724.92	261.94
725.25	261.64
725.59	261.29
725.92	261.00
726.25	260.63
726.58	260.27
726.91	259.90
727.24	259.55
727.57	259.27
727.91	258.77
728.24	258.46
728.57	258.05
728.90	257.75
729.23	257.32
729.56	256.95
729.89	256.55
730.22	256.20
730.55	255.80
730.89	255.47
731.22	255.10
731.55	254.71
731.88	254.40
732.21	254.01
732.54	253.59
732.87	253.14
733.20	252.81
733.53	252.60
733.86	252.34
734.19	252.01
734.52	251.70
734.85	251.54
735.18	251.27
735.51	251.20
735.84	250.98
736.17	250.83
736.50	250.57
736.83	250.52
737.16	250.35
737.49	250.15
737.82	249.87
738.15	249.57
738.48	249.35
738.81	249.15
739.14	248.97
739.47	248.75
739.80	248.61
740.13	248.33
740.46	248.02
740.79	247.80
741.12	247.64
741.45	247.41
741.78	247.14
742.11	246.92
742.44	246.52
742.77	246.38
743.10	246.15
743.43	245.97
743.75	245.66
744.08	245.78
744.41	245.60
744.74	245.39
745.07	245.27
745.40	245.16
745.73	245.04
746.06	244.82
746.39	244.71
746.71	244.43
747.04	244.27
747.37	244.05
747.70	243.80
748.03	243.55
748.36	243.41
748.68	243.30
749.01	243.16
749.34	243.12
749.67	242.93
750.00	242.80
750.33	242.74
750.65	242.66
750.98	242.31
751.31	242.19
751.64	242.15
751.97	242.12
752.29	242.00
752.62	241.77
752.95	241.64
753.28	241.57
753.60	241.57
753.93	241.55
754.26	241.50
754.59	241.43
754.91	241.34
755.24	241.23
755.57	241.17
755.90	241.01
756.22	240.96
756.55	240.83
756.88	240.74
757.20	240.61
757.53	240.47
757.86	240.23
758.19	240.21
758.51	240.11
758.84	240.03
759.17	239.95
759.49	239.98
759.82	239.99
760.15	239.91
760.47	239.77
760.80	239.62
761.13	239.62
761.45	239.60
761.78	239.55
762.11	239.52
762.43	239.34
762.76	239.35
763.08	239.19
763.41	239.17
763.74	239.02
764.06	238.94
764.39	238.82
764.71	238.83
765.04	238.63
765.37	238.47
765.69	238.28
766.02	238.10
766.34	237.88
766.67	237.77
767.00	237.70
767.32	237.71
767.65	237.68
767.97	237.48
768.30	237.37
768.62	237.20
768.95	237.09
769.27	237.03
769.60	236.87
769.92	236.71
770.25	236.53
770.57	236.44
770.90	236.24
771.22	236.06
771.55	235.95
771.87	235.87
772.20	235.81
772.52	235.86
772.85	236.04
773.17	236.07
773.50	235.87
773.82	235.67
774.15	235.52
774.47	235.34
774.80	235.30
775.12	235.12
775.45	234.98
775.77	234.92
776.09	234.84
776.42	234.76
776.74	234.77
777.07	234.59
777.39	234.42
777.72	234.25
778.04	234.27
778.36	234.08
778.69	234.00
779.01	233.95
779.33	233.70
779.66	233.38
779.98	233.19
780.31	233.12
780.63	233.19
780.95	233.18
781.28	233.09
781.60	232.95
781.92	232.92
782.25	232.90
782.57	232.74
782.89	232.61
783.22	232.51
783.54	232.52
783.86	232.46
784.19	232.49
784.51	232.62
784.83	232.52
785.16	232.51
785.48	232.54
785.80	232.50
786.12	232.45
786.45	232.40
786.77	232.49
787.09	232.57
787.42	232.44
787.74	232.37
788.06	232.32
788.38	232.31
788.71	232.28
789.03	232.24
789.35	232.40
789.67	232.48
789.99	232.55
790.32	232.43
790.64	232.59
790.96	232.72
791.28	232.64
791.61	232.71
791.93	232.83
792.25	232.79
792.57	233.01
792.89	233.00
793.21	233.07
793.54	232.89
793.86	232.88
794.18	232.91
794.50	232.81
794.82	232.89
795.14	232.99
795.47	232.96
795.79	233.18
796.11	233.06
796.43	232.99
796.75	233.00
797.07	233.06
797.39	233.05
797.71	232.92
798.04	232.96
798.36	232.95
798.68	232.88
799.00	232.80
799.32	232.58
799.64	232.59
799.96	232.52
800.28	232.60
800.60	232.48
800.92	232.45
801.24	232.51
801.56	232.54
801.89	232.45
802.21	232.48
802.53	232.42
802.85	232.38
803.17	232.37
803.49	232.29
803.81	232.15
804.13	232.02
804.45	231.89
804.77	231.85
805.09	231.70
805.41	231.65
805.73	231.71
806.05	231.59
806.37	231.63
806.69	231.66
807.01	231.52
807.33	231.49
807.65	231.39
807.97	231.30
808.28	231.13
808.60	231.13
808.92	231.09
809.24	231.05
809.56	230.93
809.88	230.90
810.20	230.78
810.52	230.78
810.84	230.70
811.16	230.62
811.48	230.49
811.80	230.59
812.12	230.47
812.43	230.37
812.75	230.45
813.07	230.26
813.39	230.09
813.71	230.02
814.03	229.96
814.35	229.89
814.67	229.83
814.98	229.81
815.30	229.65
815.62	229.52
815.94	229.25
816.26	229.29
816.58	229.10
816.89	229.10
817.21	228.97
817.53	229.01
817.85	228.99
818.17	229.04
818.48	228.90
818.80	228.88
819.12	228.81
819.44	228.70
819.76	228.72
820.07	228.80
820.39	228.89
820.71	228.85
821.03	228.83
821.34	228.77
821.66	228.81
821.98	228.84
822.30	228.81
822.61	229.04
822.93	229.03
823.25	229.08
823.57	229.04
823.88	229.12
824.20	229.10
824.52	229.17
824.83	229.11
825.15	229.10
825.47	229.18
825.79	229.30
826.10	229.22
826.42	229.17
826.74	229.19
827.05	229.06
827.37	229.07
827.69	229.10
828.00	229.23
828.32	229.31
828.64	229.35
828.95	229.57
829.27	229.55
829.58	229.52
829.90	229.64
830.22	229.79
830.53	229.70
830.85	229.71
831.17	229.75
831.48	229.80
831.80	229.91
832.11	229.90
832.43	229.86
832.75	229.93
833.06	230.19
833.38	230.17
833.69	230.32
834.01	230.42
834.32	230.42
834.64	230.40
834.96	230.39
835.27	230.42
835.59	230.36
835.90	230.29
836.22	230.32
836.53	230.33
836.85	230.35
837.16	230.69
837.48	230.68
837.79	230.74
838.11	230.68
838.42	230.67
838.74	230.69
839.05	230.61
839.37	230.61
839.68	230.47
840.00	230.46
840.31	230.52
840.63	230.55
840.94	230.55
841.26	230.51
841.57	230.47
841.88	230.58
842.20	230.53
842.51	230.49
842.83	230.47
843.14	230.53
843.46	230.42
843.77	230.18
844.08	230.13
844.40	230.04
844.71	230.00
845.03	229.94
845.34	229.98
845.65	229.95
845.97	229.94
846.28	229.91
846.60	229.87
846.91	229.74
847.22	229.58
847.54	229.65
847.85	229.64
848.16	229.58
848.48	229.33
848.79	229.30
849.10	229.32
849.42	229.26
849.73	229.00
850.04	228.98
850.36	228.92
850.67	228.93
850.98	228.93
851.30	228.93
851.61	228.94
851.92	228.79
852.23	228.90
852.55	228.89
852.86	228.70
853.17	228.67
853.49	228.69
853.80	228.67
854.11	228.62
854.42	228.52
854.74	228.49
855.05	228.56
855.36	228.49
855.67	228.39
855.99	228.40
856.30	228.70
856.61	228.62
856.92	228.58
857.23	228.54
857.55	228.48
857.86	228.51
858.17	228.48
858.48	228.48
858.79	228.45
859.11	228.40
859.42	228.52
859.73	228.57
860.04	228.50
860.35	228.60
860.66	228.53
860.98	228.62
861.29	228.60
861.60	228.62
861.91	228.66
862.22	228.73
862.53	228.76
862.84	228.52
863.16	228.61
863.47	228.73
863.78	228.79
864.09	228.90
864.40	228.85
864.71	228.92
865.02	228.98
865.33	228.90
865.64	228.94
865.95	229.00
866.27	229.13
866.58	229.20
866.89	229.15
867.20	229.15
867.51	229.15
867.82	229.24
868.13	229.24
868.44	229.36
868.75	229.35
869.06	229.36
869.37	229.47
869.68	229.42
869.99	229.44
870.30	229.51
870.61	229.47
870.92	229.50
871.23	229.49
871.54	229.50
871.85	229.62
872.16	229.71
872.47	229.67
872.78	229.55
873.09	229.54
873.40	229.62
873.71	229.73
874.02	229.75
874.33	229.79
874.64	229.80
874.95	229.77
875.26	229.89
875.56	229.92
875.87	229.90
876.18	229.98
876.49	230.17
876.80	230.12
877.11	230.19
877.42	230.19
877.73	230.20
878.04	230.31
878.35	230.30
878.66	230.34
878.96	230.34
879.27	230.38
879.58	230.43
879.89	230.40
880.20	230.40
880.51	230.46
880.82	230.45
881.12	230.57
881.43	230.45
881.74	230.35
882.05	230.33
882.36	230.28
882.67	230.27
882.97	230.01
883.28	230.05
883.59	230.05
883.90	229.99
884.21	229.96
884.51	229.81
884.82	229.76
885.13	229.70
885.44	229.74
885.74	229.70
886.05	229.60
886.36	229.54
886.67	229.40
886.98	229.48
887.28	229.41
887.59	229.27
887.90	229.30
888.20	229.27
888.51	229.17
888.82	229.31
889.13	229.30
889.43	229.45
889.74	229.29
890.05	229.22
890.35	229.30
890.66	229.22
890.97	229.13
891.28	229.11
891.58	228.95
891.89	228.87
892.20	228.79
892.50	228.75
892.81	228.71
893.12	228.72
893.42	228.56
893.73	228.47
894.04	228.45
894.34	228.38
894.65	228.25
894.95	228.30
895.26	228.11
895.57	228.14
895.87	227.90
896.18	227.90
896.48	227.86
896.79	227.83
897.10	227.80
897.40	227.79
897.71	227.74
898.01	227.73
898.32	227.64
898.63	227.66
898.93	227.66
899.24	227.65
899.54	227.59
899.85	227.64
900.15	227.65
900.46	227.62
900.76	227.65
901.07	227.73
901.38	227.67
901.68	227.67
901.99	227.48
902.29	227.54
902.60	227.63
902.90	227.63
903.21	227.65
903.51	227.67
903.82	227.86
904.12	227.88
904.43	227.97
904.73	228.02
905.03	227.95
905.34	228.17
905.64	228.28
905.95	228.35
906.25	228.26
906.56	228.43
906.86	228.43
907.17	228.49
907.47	228.58
907.77	228.69
908.08	228.66
908.38	228.80
908.69	228.89
908.99	228.97
909.30	229.00
909.60	228.92
909.90	229.00
910.21	229.01
910.51	229.06
910.81	229.09
911.12	229.20
911.42	229.31
911.73	229.20
912.03	229.19
912.33	229.29
912.64	229.28
912.94	229.20
913.24	229.25
913.55	229.26
913.85	229.23
914.15	229.22
914.46	229.22
914.76	229.15
915.06	229.13
915.37	229.00
915.67	229.01
915.97	228.93
916.27	228.85
916.58	228.74
916.88	228.70
917.18	228.72
917.49	228.85
917.79	228.82
918.09	228.83
918.39	228.85
918.70	228.74
919.00	228.78
919.30	228.87
919.60	228.84
919.91	228.71
920.21	228.64
920.51	228.59
920.81	228.67
921.12	228.76
921.42	228.73
921.72	228.71
922.02	228.69
922.32	228.81
922.63	228.95
922.93	229.08
923.23	228.98
923.53	228.96
923.83	228.87
924.13	228.74
924.44	228.71
924.74	228.73
925.04	228.88
925.34	228.80
925.64	228.59
925.94	228.50
926.24	228.65
926.55	228.59
926.85	228.56
927.15	228.42
927.45	228.39
927.75	228.36
928.05	228.30
928.35	228.28
928.65	228.31
928.95	228.14
929.26	227.99
929.56	228.10
929.86	228.04
930.16	227.84
930.46	227.91
930.76	227.86
931.06	227.67
931.36	227.50
931.66	227.52
931.96	227.58
932.26	227.55
932.56	227.45
932.86	227.38
933.16	227.40
933.46	227.42
933.76	227.46
934.06	227.50
934.36	227.60
934.66	227.52
934.96	227.50
935.26	227.57
935.56	227.60
935.86	227.55
936.16	227.48
936.46	227.39
936.76	227.28
937.06	227.33
937.36	227.33
937.66	227.32
937.96	227.25
938.26	227.22
938.56	227.22
938.86	227.15
939.16	227.33
939.46	227.25
939.76	227.20
940.06	227.10
940.35	227.03
940.65	226.98
940.95	227.01
941.25	226.95
941.55	226.90
941.85	226.88
942.15	226.90
942.45	226.94
942.75	227.10
943.04	227.15
943.34	227.15
943.64	227.16
943.94	227.13
944.24	227.12
944.54	227.19
944.84	227.20
945.13	227.30
945.43	227.34
945.73	227.53
946.03	227.59
946.33	227.62
946.62	227.69
946.92	227.75
947.22	227.87
947.52	227.93
947.82	228.00
948.11	228.11
948.41	228.11
948.71	228.14
949.01	228.18
949.31	228.26
949.60	228.36
949.90	228.43
950.20	228.50
950.50	228.70
950.79	228.68
951.09	228.80
951.39	228.82
951.69	228.80
951.98	228.75
952.28	228.80
952.58	228.88
952.87	228.80
953.17	228.93
953.47	228.90
953.76	228.88
954.06	228.88
954.36	228.86
954.66	228.92
954.95	229.06
955.25	229.14
955.55	229.12
955.84	229.03
956.14	229.10
956.44	229.11
956.73	229.02
957.03	229.02
957.32	228.98
957.62	229.03
957.92	228.99
958.21	228.92
958.51	229.18
958.81	229.13
959.10	229.18
959.40	229.11
959.69	229.19
959.99	229.27
960.29	229.22
960.58	229.09
960.88	229.12
961.17	228.98
961.47	228.97
961.76	229.00
962.06	228.97
962.36	228.92
962.65	228.93
962.95	228.91
963.24	228.93
963.54	228.96
963.83	228.85
964.13	228.82
964.42	228.82
964.72	228.62
965.01	228.60
965.31	228.47
965.60	228.37
965.90	228.33
966.19	228.20
966.49	228.15
966.78	228.21
967.08	228.20
967.37	228.19
967.67	228.10
967.96	228.11
968.26	228.08
968.55	228.05
968.85	228.00
969.14	227.98
969.43	227.93
969.73	227.89
970.02	227.95
970.32	227.90
970.61	227.85
970.91	227.80
971.20	227.73
971.49	227.79
971.79	227.81
972.08	227.78
972.38	227.80
972.67	227.87
972.96	227.80
973.26	227.76
973.55	227.84
973.85	227.77
974.14	227.78
974.43	227.80
974.73	227.86
975.02	227.86
975.31	227.83
975.61	227.86
975.90	227.85
976.19	227.80
976.49	227.88
976.78	227.96
977.07	227.92
977.37	227.97
977.66	228.00
977.95	228.00
978.24	227.97
978.54	228.00
978.83	227.93
979.12	227.93
979.42	227.89
979.71	227.84
980.00	227.90
980.29	227.86
980.59	227.87
980.88	227.89
981.17	227.93
981.46	227.95
981.76	227.92
982.05	227.99
982.34	227.93
982.63	227.97
982.93	227.92
983.22	227.99
983.51	228.00
983.80	228.03
984.09	228.00
984.39	227.96
984.68	228.01
984.97	228.10
985.26	228.15
985.55	228.17
985.85	228.19
986.14	228.24
986.43	228.28
986.72	228.27
987.01	228.09
987.30	228.02
987.59	228.03
987.89	228.09
988.18	228.06
988.47	228.17
988.76	228.20
989.05	228.22
989.34	228.22
989.63	228.25
989.92	228.34
990.22	228.39
990.51	228.49
990.80	228.48
991.09	228.48
991.38	228.55
991.67	228.62
991.96	228.68
992.25	228.72
992.54	228.76
992.83	228.82
993.12	228.94
993.41	228.98
993.70	229.15
993.99	229.16
994.28	229.20
994.58	229.14
994.87	229.07
995.16	229.04
995.45	229.06
995.74	229.17
996.03	229.17
996.32	229.18
996.61	229.14
996.90	229.10
997.19	229.08
997.48	229.08
997.77	229.00
998.06	228.99
998.34	228.91
998.63	228.89
998.92	228.82
999.21	228.85
999.50	228.94
999.79	228.87
1000.08	228.82
1000.37	228.82
1000.66	228.87
1000.95	228.90
1001.24	228.96
1001.53	229.00
1001.82	228.85
1002.11	228.76
1002.40	228.80
1002.68	228.83
1002.97	229.06
1003.26	229.07
1003.55	229.03
1003.84	229.00
1004.13	229.01
1004.42	229.04
1004.71	229.03
1004.99	229.05
1005.28	229.07
1005.57	228.94
1005.86	228.90
1006.15	228.93
1006.44	228.87
1006.72	228.91
1007.01	228.95
1007.30	228.99
1007.59	228.90
1007.88	228.87
1008.17	228.95
1008.45	228.92
1008.74	228.82
1009.03	228.64
1009.32	228.65
1009.60	228.63
1009.89	228.60
1010.18	228.47
1010.47	228.40
1010.76	228.41
1011.04	228.41
1011.33	228.38
1011.62	228.48
1011.91	228.44
1012.19	228.52
1012.48	228.49
1012.77	228.49
1013.05	228.54
1013.34	228.46
1013.63	228.43
1013.92	228.59
1014.20	228.53
1014.49	228.56
1014.78	228.64
1015.06	228.59
1015.35	228.58
1015.64	228.57
1015.92	228.65
1016.21	228.60
1016.50	228.66
1016.78	228.79
1017.07	228.83
1017.36	228.88
1017.64	228.92
1017.93	228.90
1018.22	228.87
1018.50	228.94
1018.79	228.85
1019.08	228.78
1019.36	228.86
1019.65	228.94
1019.93	228.89
1020.22	228.91
1020.51	229.03
1020.79	229.07
1021.08	230.10
1021.36	228.60
1021.65	227.40
1021.94	229.40
1022.22	229.50
1022.51	229.50
1022.79	229.50
1023.08	228.90
1023.36	231.70
1023.65	229.40
>>>>>End Processed Spectral Data<<<<<
