SpectraSuite Data File
++++++++++++++++++++++++++++++++++++
Date: Fri Feb 01 14:40:27 EST 2013
User: group
Dark Spectrum Present: No
Reference Spectrum Present: No
Number of Sampled Component Spectra: 1
Spectrometers: USB2E7196
Integration Time (usec): 70000 (USB2E7196)
Spectra Averaged: 10 (USB2E7196)
Boxcar Smoothing: 10 (USB2E7196)
Correct for Electrical Dark: No (USB2E7196)
Strobe/Lamp Enabled: No (USB2E7196)
Correct for Detector Non-linearity: No (USB2E7196)
Correct for Stray Light: No (USB2E7196)
Number of Pixels in Processed Spectrum: 2048
>>>>>Begin Processed Spectral Data<<<<<
339.09	0.00
339.48	215.80
339.86	216.70
340.24	218.40
340.63	220.70
341.01	225.20
341.39	222.20
341.78	224.90
342.16	224.40
342.54	225.10
342.93	214.56
343.31	225.46
343.69	226.05
344.07	226.57
344.46	227.02
344.84	227.38
345.22	227.52
345.60	227.79
345.99	228.00
346.37	228.23
346.75	228.36
347.13	228.38
347.52	228.33
347.90	228.44
348.28	228.45
348.66	228.51
349.05	228.66
349.43	228.64
349.81	228.70
350.19	228.82
350.57	228.87
350.96	228.95
351.34	229.06
351.72	229.15
352.10	229.20
352.48	229.22
352.87	229.27
353.25	229.32
353.63	229.44
354.01	229.48
354.39	229.53
354.77	229.67
355.15	229.70
355.54	229.72
355.92	229.69
356.30	229.81
356.68	229.97
357.06	230.03
357.44	230.07
357.82	230.13
358.20	230.18
358.58	230.20
358.97	230.28
359.35	230.26
359.73	230.28
360.11	230.37
360.49	230.50
360.87	230.62
361.25	230.72
361.63	230.88
362.01	230.95
362.39	231.06
362.77	231.08
363.15	231.17
363.53	231.23
363.91	231.36
364.29	231.24
364.67	231.12
365.05	231.03
365.43	230.96
365.81	230.95
366.19	230.93
366.57	231.03
366.95	230.97
367.33	230.90
367.71	230.91
368.09	230.81
368.47	230.74
368.85	230.64
369.23	230.62
369.61	230.40
369.99	230.44
370.37	230.44
370.75	230.40
371.13	230.34
371.51	230.24
371.89	230.10
372.27	230.13
372.65	230.09
373.03	230.16
373.41	230.15
373.78	230.11
374.16	229.92
374.54	229.77
374.92	229.66
375.30	229.65
375.68	229.48
376.06	229.49
376.44	229.44
376.82	229.38
377.19	229.33
377.57	229.28
377.95	229.10
378.33	228.80
378.71	228.70
379.09	228.54
379.47	228.52
379.84	228.46
380.22	228.41
380.60	228.31
380.98	228.10
381.36	228.06
381.73	227.87
382.11	227.91
382.49	227.86
382.87	227.81
383.25	227.65
383.62	227.89
384.00	227.82
384.38	227.69
384.76	227.73
385.13	227.62
385.51	227.48
385.89	227.29
386.27	227.38
386.64	227.34
387.02	227.25
387.40	227.22
387.78	227.12
388.15	227.02
388.53	227.02
388.91	227.04
389.29	226.99
389.66	226.99
390.04	226.93
390.42	227.00
390.79	226.90
391.17	226.97
391.55	226.73
391.92	226.78
392.30	226.93
392.68	226.93
393.05	227.05
393.43	227.21
393.81	227.39
394.18	227.42
394.56	227.46
394.94	227.66
395.31	227.73
395.69	227.83
396.06	228.04
396.44	228.15
396.82	228.17
397.19	228.31
397.57	228.43
397.95	228.55
398.32	228.55
398.70	228.76
399.07	228.93
399.45	229.10
399.82	229.10
400.20	229.13
400.58	229.16
400.95	229.13
401.33	229.20
401.70	229.41
402.08	229.48
402.45	229.56
402.83	229.66
403.20	229.74
403.58	229.87
403.95	229.95
404.33	230.05
404.71	230.24
405.08	230.39
405.46	230.54
405.83	230.68
406.21	230.78
406.58	230.92
406.96	231.03
407.33	231.10
407.70	231.30
408.08	231.59
408.45	231.72
408.83	231.97
409.20	232.17
409.58	232.31
409.95	232.50
410.33	232.78
410.70	232.88
411.08	233.10
411.45	233.34
411.82	233.60
412.20	233.93
412.57	234.27
412.95	234.52
413.32	234.89
413.69	235.19
414.07	235.64
414.44	236.01
414.82	236.44
415.19	237.00
415.56	237.56
415.94	237.97
416.31	238.60
416.68	239.13
417.06	239.71
417.43	240.33
417.81	241.03
418.18	241.82
418.55	242.70
418.93	243.50
419.30	244.39
419.67	245.26
420.04	246.18
420.42	247.16
420.79	248.40
421.16	249.49
421.54	250.78
421.91	251.96
422.28	253.25
422.66	254.48
423.03	255.68
423.40	257.01
423.77	258.39
424.15	259.88
424.52	261.36
424.89	263.00
425.26	264.60
425.64	266.01
426.01	267.52
426.38	269.17
426.75	270.85
427.13	272.52
427.50	274.36
427.87	276.23
428.24	278.03
428.61	279.65
428.99	281.54
429.36	283.57
429.73	285.63
430.10	287.71
430.47	289.79
430.85	291.98
431.22	294.20
431.59	296.66
431.96	298.76
432.33	301.33
432.70	303.72
433.08	306.49
433.45	309.18
433.82	311.75
434.19	314.64
434.56	317.46
434.93	320.10
435.30	322.73
435.68	325.62
436.05	328.49
436.42	331.30
436.79	333.90
437.16	336.52
437.53	339.32
437.90	342.09
438.27	344.86
438.64	347.74
439.01	350.37
439.38	352.55
439.75	354.80
440.13	357.32
440.50	359.69
440.87	361.58
441.24	363.66
441.61	365.92
441.98	367.45
442.35	369.31
442.72	371.36
443.09	373.23
443.46	374.24
443.83	374.86
444.20	375.39
444.57	376.26
444.94	376.60
445.31	377.00
445.68	377.63
446.05	377.73
446.42	377.39
446.79	377.00
447.16	376.67
447.53	376.53
447.90	375.39
448.27	374.29
448.64	372.65
449.01	371.54
449.37	369.55
449.74	367.63
450.11	365.57
450.48	363.10
450.85	360.71
451.22	358.59
451.59	356.66
451.96	354.78
452.33	352.30
452.70	350.10
453.07	347.27
453.43	344.09
453.80	341.39
454.17	338.64
454.54	336.13
454.91	333.31
455.28	330.47
455.65	327.94
456.02	325.57
456.38	323.40
456.75	320.62
457.12	318.32
457.49	316.10
457.86	313.65
458.23	311.75
458.59	309.52
458.96	307.52
459.33	305.57
459.70	303.61
460.07	302.01
460.43	300.17
460.80	298.54
461.17	297.22
461.54	295.68
461.91	294.25
462.27	292.66
462.64	291.37
463.01	290.01
463.38	288.75
463.74	287.17
464.11	285.94
464.48	284.91
464.85	283.77
465.21	282.88
465.58	281.99
465.95	280.74
466.32	279.78
466.68	278.70
467.05	277.72
467.42	276.81
467.78	275.80
468.15	274.87
468.52	274.08
468.88	273.07
469.25	272.11
469.62	271.44
469.98	270.72
470.35	270.04
470.72	269.29
471.08	268.46
471.45	267.89
471.82	267.38
472.18	266.48
472.55	265.95
472.92	265.20
473.28	264.60
473.65	264.06
474.02	263.48
474.38	262.90
474.75	262.50
475.11	261.97
475.48	261.58
475.85	261.19
476.21	260.78
476.58	260.44
476.94	260.17
477.31	259.68
477.67	259.27
478.04	258.92
478.41	258.68
478.77	258.55
479.14	258.14
479.50	257.85
479.87	257.75
480.23	257.58
480.60	257.43
480.96	257.20
481.33	257.08
481.69	256.96
482.06	256.88
482.42	256.76
482.79	256.72
483.15	256.65
483.52	256.61
483.88	256.74
484.25	256.66
484.61	256.65
484.98	256.65
485.34	256.97
485.71	257.20
486.07	257.30
486.44	257.29
486.80	257.52
487.17	257.69
487.53	257.99
487.90	258.19
488.26	258.62
488.62	259.00
488.99	259.18
489.35	259.51
489.72	259.85
490.08	260.15
490.44	260.53
490.81	260.91
491.17	261.32
491.54	261.77
491.90	262.37
492.26	262.86
492.63	263.43
492.99	263.89
493.36	264.40
493.72	265.18
494.08	265.93
494.45	266.74
494.81	267.58
495.17	268.42
495.54	269.34
495.90	270.06
496.26	271.06
496.63	272.30
496.99	273.40
497.35	274.65
497.72	275.92
498.08	277.31
498.44	278.70
498.80	280.22
499.17	281.71
499.53	283.24
499.89	285.04
500.26	286.84
500.62	288.67
500.98	290.72
501.34	292.83
501.71	294.99
502.07	297.24
502.43	299.49
502.79	302.00
503.16	304.59
503.52	307.37
503.88	310.11
504.24	312.93
504.60	315.94
504.97	319.02
505.33	322.27
505.69	325.60
506.05	329.12
506.41	332.70
506.78	336.41
507.14	340.30
507.50	344.30
507.86	348.53
508.22	352.80
508.59	357.07
508.95	361.64
509.31	366.40
509.67	371.34
510.03	376.42
510.39	381.44
510.75	386.81
511.12	392.17
511.48	397.77
511.84	403.50
512.20	409.28
512.56	415.44
512.92	421.50
513.28	427.87
513.64	434.28
514.00	441.06
514.37	447.96
514.73	454.93
515.09	462.14
515.45	469.45
515.81	476.91
516.17	484.57
516.53	492.17
516.89	499.96
517.25	507.90
517.61	516.21
517.97	524.53
518.33	532.70
518.69	541.59
519.05	550.36
519.41	559.20
519.77	568.51
520.13	577.64
520.49	587.05
520.85	596.34
521.21	606.05
521.57	615.82
521.93	625.40
522.29	635.54
522.65	645.40
523.01	655.33
523.37	665.17
523.73	675.61
524.09	685.92
524.45	696.52
524.81	707.19
525.17	717.84
525.53	729.02
525.89	740.10
526.25	751.15
526.61	762.25
526.97	773.90
527.33	785.19
527.68	796.81
528.04	808.54
528.40	820.43
528.76	832.50
529.12	844.35
529.48	856.47
529.84	868.16
530.20	880.52
530.56	893.00
530.91	905.93
531.27	918.51
531.63	931.09
531.99	943.65
532.35	955.78
532.71	967.97
533.07	980.46
533.42	993.16
533.78	1005.50
534.14	1018.24
534.50	1029.95
534.86	1042.55
535.21	1054.83
535.57	1067.48
535.93	1079.67
536.29	1091.99
536.65	1104.58
537.00	1116.77
537.36	1129.43
537.72	1141.75
538.08	1154.33
538.44	1166.28
538.79	1178.14
539.15	1190.09
539.51	1201.80
539.87	1214.11
540.22	1226.44
540.58	1238.50
540.94	1250.19
541.29	1261.93
541.65	1273.26
542.01	1285.60
542.37	1297.13
542.72	1308.47
543.08	1319.73
543.44	1331.37
543.79	1342.04
544.15	1353.06
544.51	1364.68
544.87	1375.71
545.22	1386.22
545.58	1396.43
545.94	1406.61
546.29	1416.79
546.65	1426.69
547.01	1436.86
547.36	1447.00
547.72	1456.16
548.07	1465.82
548.43	1474.92
548.79	1484.04
549.14	1493.39
549.50	1502.21
549.86	1510.62
550.21	1519.45
550.57	1528.22
550.92	1536.50
551.28	1544.80
551.64	1552.53
551.99	1560.22
552.35	1567.56
552.70	1575.47
553.06	1583.76
553.41	1591.60
553.77	1599.30
554.13	1607.25
554.48	1614.90
554.84	1621.85
555.19	1629.27
555.55	1636.00
555.90	1642.45
556.26	1649.12
556.61	1655.52
556.97	1661.81
557.32	1668.41
557.68	1674.95
558.03	1680.85
558.39	1686.92
558.74	1693.60
559.10	1699.80
559.45	1705.50
559.81	1712.24
560.16	1717.97
560.52	1723.10
560.87	1728.69
561.23	1733.68
561.58	1739.02
561.94	1744.18
562.29	1748.76
562.64	1753.67
563.00	1758.49
563.35	1764.72
563.71	1770.20
564.06	1775.35
564.42	1780.07
564.77	1784.78
565.12	1789.16
565.48	1793.60
565.83	1797.66
566.19	1801.47
566.54	1805.02
566.89	1808.64
567.25	1811.85
567.60	1815.43
567.96	1818.62
568.31	1822.00
568.66	1825.53
569.02	1828.32
569.37	1830.43
569.72	1833.13
570.08	1835.18
570.43	1836.95
570.78	1838.16
571.14	1839.48
571.49	1840.90
571.84	1843.29
572.20	1844.69
572.55	1845.90
572.90	1846.82
573.26	1848.05
573.61	1848.64
573.96	1849.44
574.31	1849.10
574.67	1848.64
575.02	1848.22
575.37	1848.48
575.72	1847.30
576.08	1846.67
576.43	1846.10
576.78	1845.59
577.13	1845.42
577.49	1845.05
577.84	1844.42
578.19	1843.47
578.54	1842.01
578.90	1840.54
579.25	1837.57
579.60	1835.25
579.95	1832.83
580.30	1830.87
580.66	1828.47
581.01	1825.94
581.36	1823.64
581.71	1822.37
582.06	1820.60
582.42	1817.70
582.77	1814.49
583.12	1812.48
583.47	1810.17
583.82	1807.52
584.17	1804.73
584.53	1801.96
584.88	1799.13
585.23	1796.28
585.58	1793.45
585.93	1790.90
586.28	1788.17
586.63	1786.20
586.98	1783.69
587.34	1781.24
587.69	1777.94
588.04	1774.88
588.39	1772.17
588.74	1767.65
589.09	1763.70
589.44	1759.31
589.79	1756.56
590.14	1753.42
590.49	1749.31
590.84	1744.93
591.19	1740.70
591.54	1736.45
591.89	1731.09
592.25	1726.92
592.60	1721.97
592.95	1716.86
593.30	1711.87
593.65	1706.89
594.00	1701.35
594.35	1697.12
594.70	1691.62
595.05	1687.11
595.40	1682.05
595.75	1676.83
596.10	1673.20
596.45	1668.85
596.80	1665.11
597.15	1660.38
597.50	1655.41
597.85	1651.32
598.19	1647.13
598.54	1642.61
598.89	1638.20
599.24	1634.63
599.59	1629.75
599.94	1625.54
600.29	1620.64
600.64	1615.96
600.99	1610.63
601.34	1606.29
601.69	1600.80
602.04	1596.20
602.39	1591.07
602.74	1586.51
603.08	1581.80
603.43	1577.07
603.78	1572.17
604.13	1566.80
604.48	1561.74
604.83	1556.66
605.18	1551.32
605.53	1545.37
605.87	1539.53
606.22	1534.04
606.57	1528.20
606.92	1522.84
607.27	1517.41
607.62	1512.76
607.96	1507.43
608.31	1502.29
608.66	1496.35
609.01	1490.08
609.36	1483.96
609.70	1477.58
610.05	1470.89
610.40	1464.84
610.75	1458.27
611.10	1451.63
611.44	1444.97
611.79	1438.86
612.14	1432.54
612.49	1425.19
612.83	1418.62
613.18	1412.38
613.53	1406.21
613.88	1399.59
614.22	1392.97
614.57	1386.07
614.92	1379.51
615.27	1373.30
615.61	1366.83
615.96	1360.51
616.31	1354.80
616.65	1349.04
617.00	1343.29
617.35	1337.30
617.70	1330.85
618.04	1324.56
618.39	1318.46
618.74	1312.09
619.08	1305.24
619.43	1298.94
619.78	1293.38
620.12	1287.45
620.47	1281.34
620.82	1274.61
621.16	1268.23
621.51	1261.99
621.85	1256.14
622.20	1249.60
622.55	1242.95
622.89	1236.88
623.24	1231.06
623.59	1225.21
623.93	1219.34
624.28	1213.02
624.62	1207.08
624.97	1201.34
625.32	1195.51
625.66	1189.48
626.01	1183.69
626.35	1177.83
626.70	1171.49
627.04	1165.39
627.39	1159.24
627.73	1153.12
628.08	1147.53
628.43	1142.05
628.77	1136.24
629.12	1130.00
629.46	1124.10
629.81	1117.68
630.15	1111.20
630.50	1104.63
630.84	1097.87
631.19	1090.99
631.53	1084.81
631.88	1078.53
632.22	1071.50
632.57	1065.30
632.91	1058.99
633.26	1052.65
633.60	1046.30
633.95	1040.37
634.29	1034.53
634.64	1028.86
634.98	1022.61
635.32	1016.62
635.67	1010.92
636.01	1005.15
636.36	999.35
636.70	993.87
637.05	988.60
637.39	983.56
637.73	978.19
638.08	973.29
638.42	968.43
638.77	963.14
639.11	957.50
639.45	952.50
639.80	947.16
640.14	941.74
640.49	936.56
640.83	931.27
641.17	926.05
641.52	920.45
641.86	914.72
642.20	909.99
642.55	904.60
642.89	899.08
643.23	893.54
643.58	888.68
643.92	882.86
644.26	877.53
644.61	872.12
644.95	866.77
645.29	860.78
645.64	855.07
645.98	849.81
646.32	844.94
646.66	839.54
647.01	834.23
647.35	829.30
647.69	823.99
648.04	818.95
648.38	813.58
648.72	808.29
649.06	803.39
649.41	797.94
649.75	792.54
650.09	787.25
650.43	782.00
650.78	776.39
651.12	771.27
651.46	766.41
651.80	761.40
652.14	756.51
652.49	751.84
652.83	746.90
653.17	741.73
653.51	736.56
653.85	731.74
654.20	726.75
654.54	721.53
654.88	716.67
655.22	711.72
655.56	706.94
655.90	702.57
656.25	697.84
656.59	693.31
656.93	688.94
657.27	684.39
657.61	679.88
657.95	675.48
658.29	671.25
658.64	666.72
658.98	662.31
659.32	657.70
659.66	653.36
660.00	648.94
660.34	644.43
660.68	640.08
661.02	635.90
661.36	631.82
661.70	627.87
662.05	624.08
662.39	620.39
662.73	616.60
663.07	612.60
663.41	608.86
663.75	604.97
664.09	601.04
664.43	597.24
664.77	593.68
665.11	590.30
665.45	586.74
665.79	583.19
666.13	579.46
666.47	575.95
666.81	572.29
667.15	568.62
667.49	565.38
667.83	562.11
668.17	558.63
668.51	555.10
668.85	551.69
669.19	548.29
669.53	544.74
669.87	541.38
670.21	538.29
670.55	534.91
670.89	531.96
671.23	529.12
671.57	526.10
671.91	523.02
672.25	519.55
672.58	516.60
672.92	513.51
673.26	510.75
673.60	507.91
673.94	505.14
674.28	502.75
674.62	500.17
674.96	497.38
675.30	494.86
675.64	492.27
675.97	489.69
676.31	487.12
676.65	484.55
676.99	482.10
677.33	479.42
677.67	476.84
678.01	474.10
678.34	471.45
678.68	468.84
679.02	466.31
679.36	464.10
679.70	461.68
680.04	459.19
680.37	456.59
680.71	454.30
681.05	451.92
681.39	449.48
681.73	447.25
682.06	445.06
682.40	442.76
682.74	440.63
683.08	438.50
683.42	436.15
683.75	433.92
684.09	431.43
684.43	429.22
684.77	427.07
685.10	424.79
685.44	422.70
685.78	420.64
686.12	418.55
686.45	416.43
686.79	414.24
687.13	412.37
687.46	410.52
687.80	408.41
688.14	406.26
688.48	404.29
688.81	402.08
689.15	400.30
689.49	398.29
689.82	396.34
690.16	394.41
690.50	392.57
690.83	390.75
691.17	389.00
691.51	387.10
691.84	385.41
692.18	383.79
692.52	381.91
692.85	380.12
693.19	378.23
693.52	376.48
693.86	374.79
694.20	373.16
694.53	371.35
694.87	369.72
695.21	368.14
695.54	366.58
695.88	364.82
696.21	363.01
696.55	361.51
696.88	359.95
697.22	358.33
697.56	356.81
697.89	355.18
698.23	353.80
698.56	352.34
698.90	350.93
699.23	349.40
699.57	347.95
699.90	346.52
700.24	345.29
700.58	343.89
700.91	342.50
701.25	341.05
701.58	339.97
701.92	338.68
702.25	337.36
702.59	335.97
702.92	334.99
703.26	333.64
703.59	332.29
703.93	331.18
704.26	330.04
704.60	328.73
704.93	327.52
705.26	326.23
705.60	325.19
705.93	324.00
706.27	323.02
706.60	322.08
706.94	321.15
707.27	320.05
707.61	318.92
707.94	317.94
708.27	316.88
708.61	315.62
708.94	314.56
709.28	313.70
709.61	312.74
709.94	311.74
710.28	310.84
710.61	310.05
710.95	308.95
711.28	308.20
711.61	307.39
711.95	306.60
712.28	305.70
712.61	304.59
712.95	303.73
713.28	302.82
713.61	301.91
713.95	300.86
714.28	299.99
714.61	299.20
714.95	298.38
715.28	297.46
715.61	296.72
715.95	296.00
716.28	295.20
716.61	294.40
716.95	293.62
717.28	292.97
717.61	292.15
717.94	291.40
718.28	290.38
718.61	289.53
718.94	288.83
719.27	288.06
719.61	287.51
719.94	286.83
720.27	286.21
720.60	285.53
720.94	285.01
721.27	284.45
721.60	283.86
721.93	283.20
722.27	282.73
722.60	282.14
722.93	281.50
723.26	280.88
723.59	280.26
723.93	279.57
724.26	279.00
724.59	278.36
724.92	277.85
725.25	277.41
725.59	277.00
725.92	276.42
726.25	275.97
726.58	275.52
726.91	274.97
727.24	274.45
727.57	273.85
727.91	273.20
728.24	272.55
728.57	272.08
728.90	271.73
729.23	271.21
729.56	270.81
729.89	270.32
730.22	269.80
730.55	269.48
730.89	269.09
731.22	268.54
731.55	267.99
731.88	267.47
732.21	266.99
732.54	266.48
732.87	266.09
733.20	265.57
733.53	265.12
733.86	264.81
734.19	264.36
734.52	264.00
734.85	263.84
735.18	263.45
735.51	263.05
735.84	262.57
736.17	262.15
736.50	261.65
736.83	261.53
737.16	261.27
737.49	260.73
737.82	260.37
738.15	260.12
738.48	259.87
738.81	259.55
739.14	259.17
739.47	258.81
739.80	258.38
740.13	258.14
740.46	257.73
740.79	257.36
741.12	257.01
741.45	256.61
741.78	256.20
742.11	256.03
742.44	255.73
742.77	255.38
743.10	255.12
743.43	254.76
743.75	254.16
744.08	254.04
744.41	253.80
744.74	253.49
745.07	253.25
745.40	253.07
745.73	252.85
746.06	252.67
746.39	252.42
746.71	252.15
747.04	251.84
747.37	251.51
747.70	251.11
748.03	250.93
748.36	250.79
748.68	250.49
749.01	250.12
749.34	249.84
749.67	249.60
750.00	249.26
750.33	249.19
750.65	249.14
750.98	248.58
751.31	248.34
751.64	248.17
751.97	247.91
752.29	247.73
752.62	247.49
752.95	247.21
753.28	246.99
753.60	246.86
753.93	246.65
754.26	246.54
754.59	246.40
754.91	246.10
755.24	245.95
755.57	245.87
755.90	245.74
756.22	245.50
756.55	245.29
756.88	245.15
757.20	244.86
757.53	244.52
757.86	244.49
758.19	244.37
758.51	244.15
758.84	243.81
759.17	243.52
759.49	243.40
759.82	243.27
760.15	243.22
760.47	243.08
760.80	242.81
761.13	242.68
761.45	242.51
761.78	242.37
762.11	242.18
762.43	241.89
762.76	241.67
763.08	241.60
763.41	241.56
763.74	241.51
764.06	241.45
764.39	241.40
764.71	241.21
765.04	241.00
765.37	240.87
765.69	240.89
766.02	240.80
766.34	240.60
766.67	240.40
767.00	240.21
767.32	240.15
767.65	240.17
767.97	239.95
768.30	239.83
768.62	239.72
768.95	239.59
769.27	239.47
769.60	239.30
769.92	239.13
770.25	238.86
770.57	238.57
770.90	238.33
771.22	238.08
771.55	238.07
771.87	237.97
772.20	237.84
772.52	237.80
772.85	237.92
773.17	237.73
773.50	237.62
773.82	237.56
774.15	237.34
774.47	237.14
774.80	237.11
775.12	237.00
775.45	236.87
775.77	236.75
776.09	236.65
776.42	236.67
776.74	236.57
777.07	236.49
777.39	236.41
777.72	236.31
778.04	236.27
778.36	236.08
778.69	235.97
779.01	236.01
779.33	235.80
779.66	235.38
779.98	235.34
780.31	235.39
780.63	235.36
780.95	235.30
781.28	235.26
781.60	235.10
781.92	234.95
782.25	234.87
782.57	234.73
782.89	234.70
783.22	234.57
783.54	234.47
783.86	234.48
784.19	234.48
784.51	234.48
784.83	234.42
785.16	234.34
785.48	234.32
785.80	234.24
786.12	234.24
786.45	234.29
786.77	234.22
787.09	233.96
787.42	233.80
787.74	233.79
788.06	233.79
788.38	233.81
788.71	233.79
789.03	233.77
789.35	233.78
789.67	233.70
789.99	233.65
790.32	233.67
790.64	233.70
790.96	233.84
791.28	233.73
791.61	233.69
791.93	233.66
792.25	233.59
792.57	233.57
792.89	233.46
793.21	233.39
793.54	233.32
793.86	233.38
794.18	233.33
794.50	233.22
794.82	233.13
795.14	233.03
795.47	233.02
795.79	233.02
796.11	232.95
796.43	232.88
796.75	232.81
797.07	232.71
797.39	232.69
797.71	232.48
798.04	232.38
798.36	232.42
798.68	232.43
799.00	232.47
799.32	232.30
799.64	232.36
799.96	232.27
800.28	232.32
800.60	232.22
800.92	232.24
801.24	232.11
801.56	232.20
801.89	232.26
802.21	232.20
802.53	232.09
802.85	232.18
803.17	232.20
803.49	232.21
803.81	232.12
804.13	231.93
804.45	231.88
804.77	231.92
805.09	231.75
805.41	231.64
805.73	231.45
806.05	231.44
806.37	231.38
806.69	231.35
807.01	231.25
807.33	231.26
807.65	231.11
807.97	231.20
808.28	230.99
808.60	230.94
808.92	230.91
809.24	231.03
809.56	230.89
809.88	230.87
810.20	230.79
810.52	230.83
810.84	230.78
811.16	230.71
811.48	230.71
811.80	230.79
812.12	230.77
812.43	230.82
812.75	230.75
813.07	230.69
813.39	230.84
813.71	230.85
814.03	230.86
814.35	230.94
814.67	230.84
814.98	230.91
815.30	230.92
815.62	230.90
815.94	230.72
816.26	230.78
816.58	230.80
816.89	230.84
817.21	230.79
817.53	230.90
817.85	230.84
818.17	230.81
818.48	230.76
818.80	230.85
819.12	230.81
819.44	230.89
819.76	230.91
820.07	230.85
820.39	230.81
820.71	230.84
821.03	230.83
821.34	230.84
821.66	230.93
821.98	230.84
822.30	230.80
822.61	230.89
822.93	230.86
823.25	230.90
823.57	230.89
823.88	230.94
824.20	230.89
824.52	231.07
824.83	230.98
825.15	231.02
825.47	230.97
825.79	230.99
826.10	230.87
826.42	230.83
826.74	230.82
827.05	230.89
827.37	230.78
827.69	230.72
828.00	230.76
828.32	230.72
828.64	230.80
828.95	231.00
829.27	230.96
829.58	231.00
829.90	230.94
830.22	230.95
830.53	230.91
830.85	230.82
831.17	230.65
831.48	230.70
831.80	230.80
832.11	230.71
832.43	230.70
832.75	230.68
833.06	230.72
833.38	230.59
833.69	230.44
834.01	230.40
834.32	230.33
834.64	230.25
834.96	230.17
835.27	230.10
835.59	230.01
835.90	229.99
836.22	229.81
836.53	229.71
836.85	229.64
837.16	229.80
837.48	229.85
837.79	229.94
838.11	230.00
838.42	229.79
838.74	229.87
839.05	229.76
839.37	229.80
839.68	229.71
840.00	229.72
840.31	229.75
840.63	229.70
840.94	229.70
841.26	229.68
841.57	229.69
841.88	229.61
842.20	229.56
842.51	229.53
842.83	229.57
843.14	229.70
843.46	229.67
843.77	229.45
844.08	229.46
844.40	229.29
844.71	229.19
845.03	229.18
845.34	229.06
845.65	229.09
845.97	229.11
846.28	229.08
846.60	229.12
846.91	229.09
847.22	229.23
847.54	229.30
847.85	229.32
848.16	229.28
848.48	229.34
848.79	229.41
849.10	229.40
849.42	229.36
849.73	229.19
850.04	229.21
850.36	229.25
850.67	229.26
850.98	229.33
851.30	229.32
851.61	229.34
851.92	229.39
852.23	229.52
852.55	229.48
852.86	229.46
853.17	229.48
853.49	229.56
853.80	229.53
854.11	229.51
854.42	229.54
854.74	229.60
855.05	229.53
855.36	229.40
855.67	229.43
855.99	229.51
856.30	229.75
856.61	229.75
856.92	229.78
857.23	229.73
857.55	229.65
857.86	229.67
858.17	229.64
858.48	229.70
858.79	229.56
859.11	229.66
859.42	229.72
859.73	229.70
860.04	229.72
860.35	229.61
860.66	229.55
860.98	229.54
861.29	229.52
861.60	229.65
861.91	229.60
862.22	229.60
862.53	229.61
862.84	229.40
863.16	229.45
863.47	229.36
863.78	229.43
864.09	229.53
864.40	229.51
864.71	229.54
865.02	229.46
865.33	229.49
865.64	229.32
865.95	229.25
866.27	229.30
866.58	229.23
866.89	229.26
867.20	229.24
867.51	229.18
867.82	229.15
868.13	229.09
868.44	229.11
868.75	229.04
869.06	228.99
869.37	229.00
869.68	228.88
869.99	228.90
870.30	228.79
870.61	228.71
870.92	228.63
871.23	228.53
871.54	228.62
871.85	228.71
872.16	228.77
872.47	228.82
872.78	228.65
873.09	228.62
873.40	228.58
873.71	228.58
874.02	228.60
874.33	228.52
874.64	228.47
874.95	228.46
875.26	228.42
875.56	228.38
875.87	228.34
876.18	228.35
876.49	228.50
876.80	228.56
877.11	228.58
877.42	228.60
877.73	228.70
878.04	228.57
878.35	228.48
878.66	228.43
878.96	228.38
879.27	228.43
879.58	228.51
879.89	228.53
880.20	228.58
880.51	228.51
880.82	228.45
881.12	228.50
881.43	228.60
881.74	228.56
882.05	228.54
882.36	228.52
882.67	228.60
882.97	228.41
883.28	228.30
883.59	228.30
883.90	228.35
884.21	228.32
884.51	228.35
884.82	228.40
885.13	228.50
885.44	228.48
885.74	228.50
886.05	228.44
886.36	228.48
886.67	228.37
886.98	228.51
887.28	228.59
887.59	228.59
887.90	228.49
888.20	228.49
888.51	228.54
888.82	228.50
889.13	228.49
889.43	228.67
889.74	228.71
890.05	228.71
890.35	228.73
890.66	228.71
890.97	228.71
891.28	228.74
891.58	228.71
891.89	228.72
892.20	228.73
892.50	228.74
892.81	228.75
893.12	228.81
893.42	228.80
893.73	228.90
894.04	228.89
894.34	229.04
894.65	229.06
894.95	229.09
895.26	229.22
895.57	229.32
895.87	229.13
896.18	229.25
896.48	229.39
896.79	229.32
897.10	229.32
897.40	229.34
897.71	229.32
898.01	229.30
898.32	229.37
898.63	229.35
898.93	229.32
899.24	229.36
899.54	229.37
899.85	229.22
900.15	229.16
900.46	229.29
900.76	229.20
901.07	229.25
901.38	229.24
901.68	229.19
901.99	229.08
902.29	229.11
902.60	229.03
902.90	228.89
903.21	229.00
903.51	229.00
903.82	228.99
904.12	229.05
904.43	229.02
904.73	228.92
905.03	228.88
905.34	229.10
905.64	229.02
905.95	228.96
906.25	229.05
906.56	229.02
906.86	229.00
907.17	228.94
907.47	228.99
907.77	228.99
908.08	228.92
908.38	228.91
908.69	229.00
908.99	229.00
909.30	229.05
909.60	229.00
909.90	229.11
910.21	229.10
910.51	228.96
910.81	228.98
911.12	229.10
911.42	229.10
911.73	228.89
912.03	228.89
912.33	228.98
912.64	228.91
912.94	228.98
913.24	228.80
913.55	228.76
913.85	228.69
914.15	228.61
914.46	228.62
914.76	228.63
915.06	228.56
915.37	228.48
915.67	228.41
915.97	228.27
916.27	228.12
916.58	228.07
916.88	228.04
917.18	228.00
917.49	228.05
917.79	228.07
918.09	228.08
918.39	228.18
918.70	228.17
919.00	228.23
919.30	228.21
919.60	228.22
919.91	228.21
920.21	228.22
920.51	228.17
920.81	228.20
921.12	228.13
921.42	228.00
921.72	228.08
922.02	228.14
922.32	228.25
922.63	228.23
922.93	228.24
923.23	228.32
923.53	228.30
923.83	228.15
924.13	228.10
924.44	228.05
924.74	227.99
925.04	228.01
925.34	227.97
925.64	227.89
925.94	227.87
926.24	228.03
926.55	227.89
926.85	227.90
927.15	227.88
927.45	228.00
927.75	228.08
928.05	228.01
928.35	227.86
928.65	227.87
928.95	227.89
929.26	227.91
929.56	227.93
929.86	227.98
930.16	228.06
930.46	228.07
930.76	228.15
931.06	228.12
931.36	228.10
931.66	228.10
931.96	228.17
932.26	228.27
932.56	228.25
932.86	228.46
933.16	228.54
933.46	228.62
933.76	228.57
934.06	228.56
934.36	228.73
934.66	228.84
934.96	228.90
935.26	228.97
935.56	229.00
935.86	228.93
936.16	228.95
936.46	228.91
936.76	229.01
937.06	228.95
937.36	228.97
937.66	229.00
937.96	228.96
938.26	228.94
938.56	228.84
938.86	228.79
939.16	228.74
939.46	228.75
939.76	228.66
940.06	228.68
940.35	228.67
940.65	228.44
940.95	228.46
941.25	228.44
941.55	228.48
941.85	228.50
942.15	228.55
942.45	228.60
942.75	228.57
943.04	228.61
943.34	228.70
943.64	228.66
943.94	228.62
944.24	228.70
944.54	228.66
944.84	228.68
945.13	228.61
945.43	228.61
945.73	228.56
946.03	228.56
946.33	228.52
946.62	228.57
946.92	228.61
947.22	228.61
947.52	228.63
947.82	228.49
948.11	228.40
948.41	228.31
948.71	228.22
949.01	228.26
949.31	228.15
949.60	228.13
949.90	228.21
950.20	228.20
950.50	228.14
950.79	228.11
951.09	228.09
951.39	228.13
951.69	228.10
951.98	228.24
952.28	228.26
952.58	228.19
952.87	228.16
953.17	228.18
953.47	228.11
953.76	228.02
954.06	228.07
954.36	228.15
954.66	228.22
954.95	228.26
955.25	228.23
955.55	228.21
955.84	228.13
956.14	228.09
956.44	228.12
956.73	228.10
957.03	228.08
957.32	228.10
957.62	228.07
957.92	228.09
958.21	228.02
958.51	228.22
958.81	228.28
959.10	228.28
959.40	228.33
959.69	228.39
959.99	228.48
960.29	228.43
960.58	228.47
960.88	228.46
961.17	228.37
961.47	228.36
961.76	228.39
962.06	228.37
962.36	228.29
962.65	228.24
962.95	228.23
963.24	228.40
963.54	228.43
963.83	228.39
964.13	228.44
964.42	228.31
964.72	228.17
965.01	228.21
965.31	228.24
965.60	228.18
965.90	228.29
966.19	228.16
966.49	228.19
966.78	228.11
967.08	228.12
967.37	228.20
967.67	228.15
967.96	228.20
968.26	228.19
968.55	228.30
968.85	228.34
969.14	228.47
969.43	228.40
969.73	228.41
970.02	228.52
970.32	228.47
970.61	228.54
970.91	228.43
971.20	228.39
971.49	228.35
971.79	228.47
972.08	228.30
972.38	228.37
972.67	228.45
972.96	228.47
973.26	228.48
973.55	228.64
973.85	228.68
974.14	228.57
974.43	228.61
974.73	228.57
975.02	228.43
975.31	228.32
975.61	228.35
975.90	228.43
976.19	228.29
976.49	228.36
976.78	228.43
977.07	228.49
977.37	228.40
977.66	228.49
977.95	228.36
978.24	228.41
978.54	228.50
978.83	228.40
979.12	228.38
979.42	228.34
979.71	228.20
980.00	228.27
980.29	228.28
980.59	228.25
980.88	228.40
981.17	228.43
981.46	228.42
981.76	228.40
982.05	228.45
982.34	228.46
982.63	228.48
982.93	228.48
983.22	228.57
983.51	228.70
983.80	228.64
984.09	228.63
984.39	228.67
984.68	228.58
984.97	228.62
985.26	228.67
985.55	228.70
985.85	228.66
986.14	228.77
986.43	228.88
986.72	228.97
987.01	228.80
987.30	228.97
987.59	229.01
987.89	228.92
988.18	228.71
988.47	228.79
988.76	228.72
989.05	228.58
989.34	228.46
989.63	228.49
989.92	228.51
990.22	228.59
990.51	228.50
990.80	228.51
991.09	228.56
991.38	228.61
991.67	228.61
991.96	228.61
992.25	228.48
992.54	228.39
992.83	228.38
993.12	228.40
993.41	228.38
993.70	228.44
993.99	228.54
994.28	228.65
994.58	228.70
994.87	228.68
995.16	228.70
995.45	228.72
995.74	228.63
996.03	228.57
996.32	228.54
996.61	228.54
996.90	228.45
997.19	228.37
997.48	228.29
997.77	228.24
998.06	228.22
998.34	228.20
998.63	228.19
998.92	228.08
999.21	228.05
999.50	228.01
999.79	227.84
1000.08	227.80
1000.37	227.83
1000.66	227.71
1000.95	227.72
1001.24	227.74
1001.53	227.76
1001.82	227.77
1002.11	227.81
1002.40	227.79
1002.68	227.88
1002.97	228.13
1003.26	228.09
1003.55	227.98
1003.84	228.02
1004.13	228.04
1004.42	228.02
1004.71	228.07
1004.99	228.13
1005.28	228.14
1005.57	228.14
1005.86	228.19
1006.15	228.02
1006.44	227.96
1006.72	228.06
1007.01	228.12
1007.30	228.10
1007.59	228.17
1007.88	228.18
1008.17	228.17
1008.45	228.21
1008.74	228.26
1009.03	228.14
1009.32	228.22
1009.60	228.33
1009.89	228.30
1010.18	228.30
1010.47	228.24
1010.76	228.27
1011.04	228.24
1011.33	228.28
1011.62	228.29
1011.91	228.30
1012.19	228.48
1012.48	228.46
1012.77	228.47
1013.05	228.42
1013.34	228.41
1013.63	228.28
1013.92	228.31
1014.20	228.25
1014.49	228.30
1014.78	228.23
1015.06	228.03
1015.35	228.00
1015.64	227.95
1015.92	227.98
1016.21	227.90
1016.50	228.06
1016.78	228.03
1017.07	228.04
1017.36	228.03
1017.64	227.96
1017.93	228.04
1018.22	228.00
1018.50	228.04
1018.79	227.96
1019.08	227.95
1019.36	227.99
1019.65	228.08
1019.93	228.16
1020.22	228.23
1020.51	228.24
1020.79	228.28
1021.08	228.20
1021.36	228.30
1021.65	228.00
1021.94	228.20
1022.22	227.30
1022.51	229.10
1022.79	230.80
1023.08	228.60
1023.36	230.00
1023.65	229.50
>>>>>End Processed Spectral Data<<<<<
