SpectraSuite Data File
++++++++++++++++++++++++++++++++++++
Date: Fri Feb 01 14:42:11 EST 2013
User: group
Dark Spectrum Present: No
Reference Spectrum Present: No
Number of Sampled Component Spectra: 1
Spectrometers: USB2E7196
Integration Time (usec): 70000 (USB2E7196)
Spectra Averaged: 10 (USB2E7196)
Boxcar Smoothing: 10 (USB2E7196)
Correct for Electrical Dark: No (USB2E7196)
Strobe/Lamp Enabled: No (USB2E7196)
Correct for Detector Non-linearity: No (USB2E7196)
Correct for Stray Light: No (USB2E7196)
Number of Pixels in Processed Spectrum: 2048
>>>>>Begin Processed Spectral Data<<<<<
339.09	0.00
339.48	218.00
339.86	217.10
340.24	220.80
340.63	221.50
341.01	224.90
341.39	222.80
341.78	227.00
342.16	225.90
342.54	226.20
342.93	214.79
343.31	225.67
343.69	226.17
344.07	226.68
344.46	227.09
344.84	227.50
345.22	227.65
345.60	227.91
345.99	228.04
346.37	228.11
346.75	228.24
347.13	228.31
347.52	228.41
347.90	228.62
348.28	228.72
348.66	228.80
349.05	228.68
349.43	228.82
349.81	228.87
350.19	228.92
350.57	229.00
350.96	229.16
351.34	229.27
351.72	229.37
352.10	229.34
352.48	229.38
352.87	229.32
353.25	229.51
353.63	229.61
354.01	229.68
354.39	229.80
354.77	229.92
355.15	230.16
355.54	230.09
355.92	230.01
356.30	230.01
356.68	230.30
357.06	230.38
357.44	230.31
357.82	230.38
358.20	230.43
358.58	230.45
358.97	230.49
359.35	230.59
359.73	230.65
360.11	230.72
360.49	230.79
360.87	230.95
361.25	230.90
361.63	230.94
362.01	230.94
362.39	230.99
362.77	230.99
363.15	230.89
363.53	231.11
363.91	231.06
364.29	231.02
364.67	230.77
365.05	230.81
365.43	230.92
365.81	230.98
366.19	231.04
366.57	231.12
366.95	231.11
367.33	231.00
367.71	231.06
368.09	231.19
368.47	231.16
368.85	231.11
369.23	231.21
369.61	231.17
369.99	231.18
370.37	231.11
370.75	231.08
371.13	231.00
371.51	230.87
371.89	230.94
372.27	231.05
372.65	231.08
373.03	231.08
373.41	230.90
373.78	230.81
374.16	230.71
374.54	230.67
374.92	230.62
375.30	230.53
375.68	230.39
376.06	230.32
376.44	230.30
376.82	230.23
377.19	230.10
377.57	229.96
377.95	229.79
378.33	229.73
378.71	229.69
379.09	229.74
379.47	229.66
379.84	229.58
380.22	229.43
380.60	229.30
380.98	229.27
381.36	229.24
381.73	229.14
382.11	229.06
382.49	228.94
382.87	228.81
383.25	228.80
383.62	228.97
384.00	228.95
384.38	228.78
384.76	228.69
385.13	228.68
385.51	228.70
385.89	228.67
386.27	228.68
386.64	228.62
387.02	228.48
387.40	228.45
387.78	228.32
388.15	228.30
388.53	228.30
388.91	228.20
389.29	228.12
389.66	228.18
390.04	228.23
390.42	228.20
390.79	228.19
391.17	228.16
391.55	227.90
391.92	227.79
392.30	227.88
392.68	227.87
393.05	227.85
393.43	227.83
393.81	227.93
394.18	227.82
394.56	227.78
394.94	227.80
395.31	227.79
395.69	228.01
396.06	228.15
396.44	228.08
396.82	228.10
397.19	228.20
397.57	228.22
397.95	228.35
398.32	228.37
398.70	228.56
399.07	228.73
399.45	228.88
399.82	228.92
400.20	228.97
400.58	229.13
400.95	229.14
401.33	229.37
401.70	229.68
402.08	229.90
402.45	230.13
402.83	230.36
403.20	230.64
403.58	230.63
403.95	230.80
404.33	231.08
404.71	231.33
405.08	231.77
405.46	232.03
405.83	232.16
406.21	232.51
406.58	232.72
406.96	232.96
407.33	233.21
407.70	233.70
408.08	234.09
408.45	234.41
408.83	234.90
409.20	235.14
409.58	235.26
409.95	235.78
410.33	236.23
410.70	236.67
411.08	236.99
411.45	237.50
411.82	237.98
412.20	238.51
412.57	239.23
412.95	239.67
413.32	240.28
413.69	241.00
414.07	241.68
414.44	242.46
414.82	243.25
415.19	244.06
415.56	244.86
415.94	245.67
416.31	246.80
416.68	247.70
417.06	248.88
417.43	250.03
417.81	251.24
418.18	252.50
418.55	253.92
418.93	255.32
419.30	256.88
419.67	258.46
420.04	260.07
420.42	261.70
420.79	263.60
421.16	265.50
421.54	267.36
421.91	269.26
422.28	271.25
422.66	273.40
423.03	275.71
423.40	277.92
423.77	280.29
424.15	282.61
424.52	285.08
424.89	287.62
425.26	290.26
425.64	292.52
426.01	295.07
426.38	297.69
426.75	300.60
427.13	303.41
427.50	306.27
427.87	309.26
428.24	312.22
428.61	314.88
428.99	317.95
429.36	321.31
429.73	324.73
430.10	327.96
430.47	331.17
430.85	334.34
431.22	337.95
431.59	341.86
431.96	345.45
432.33	349.50
432.70	353.44
433.08	357.83
433.45	362.15
433.82	366.39
434.19	371.23
434.56	375.62
434.93	379.80
435.30	384.14
435.68	388.81
436.05	393.48
436.42	398.13
436.79	402.20
437.16	406.79
437.53	411.33
437.90	415.91
438.27	420.50
438.64	425.22
439.01	429.32
439.38	432.87
439.75	436.31
440.13	440.30
440.50	443.94
440.87	447.04
441.24	450.14
441.61	453.61
441.98	455.80
442.35	458.72
442.72	461.77
443.09	464.56
443.46	466.24
443.83	467.00
444.20	468.00
444.57	469.32
444.94	469.66
445.31	470.09
445.68	470.76
446.05	470.77
446.42	470.04
446.79	469.53
447.16	468.80
447.53	468.26
447.90	466.36
448.27	464.50
448.64	461.69
449.01	459.79
449.37	456.44
449.74	453.29
450.11	449.75
450.48	445.64
450.85	441.47
451.22	437.82
451.59	434.55
451.96	431.20
452.33	426.94
452.70	422.96
453.07	418.43
453.43	413.63
453.80	409.12
454.17	404.77
454.54	400.41
454.91	396.01
455.28	391.62
455.65	387.57
456.02	383.75
456.38	380.39
456.75	376.11
457.12	372.45
457.49	369.00
457.86	365.39
458.23	362.52
458.59	359.21
458.96	355.96
459.33	352.90
459.70	349.84
460.07	347.37
460.43	344.73
460.80	342.10
461.17	339.71
461.54	337.25
461.91	335.10
462.27	332.80
462.64	330.72
463.01	328.54
463.38	326.44
463.74	324.04
464.11	322.15
464.48	320.57
464.85	318.85
465.21	317.35
465.58	315.81
465.95	313.92
466.32	312.52
466.68	310.91
467.05	309.49
467.42	308.08
467.78	306.61
468.15	305.18
468.52	304.10
468.88	302.74
469.25	301.49
469.62	300.27
469.98	299.17
470.35	298.05
470.72	296.96
471.08	295.78
471.45	294.94
471.82	294.05
472.18	293.03
472.55	292.34
472.92	291.42
473.28	290.67
473.65	289.97
474.02	289.12
474.38	288.53
474.75	287.96
475.11	287.32
475.48	286.90
475.85	286.44
476.21	285.97
476.58	285.58
476.94	285.33
477.31	285.02
477.67	284.70
478.04	284.54
478.41	284.38
478.77	284.49
479.14	284.25
479.50	284.17
479.87	284.06
480.23	283.98
480.60	284.05
480.96	284.03
481.33	284.20
481.69	284.36
482.06	284.47
482.42	284.65
482.79	284.84
483.15	285.10
483.52	285.53
483.88	285.92
484.25	286.32
484.61	286.69
484.98	287.28
485.34	287.94
485.71	288.66
486.07	289.47
486.44	290.17
486.80	291.09
487.17	292.09
487.53	293.20
487.90	294.32
488.26	295.54
488.62	296.78
488.99	298.08
489.35	299.59
489.72	301.19
490.08	302.78
490.44	304.53
490.81	306.56
491.17	308.38
491.54	310.61
491.90	312.75
492.26	315.29
492.63	317.74
492.99	320.36
493.36	323.19
493.72	326.19
494.08	329.21
494.45	332.50
494.81	335.87
495.17	339.39
495.54	343.32
495.90	347.16
496.26	351.40
496.63	355.70
496.99	360.31
497.35	365.16
497.72	370.18
498.08	375.37
498.44	380.60
498.80	386.46
499.17	392.24
499.53	398.50
499.89	404.88
500.26	411.52
500.62	418.38
500.98	425.71
501.34	433.24
501.71	441.11
502.07	449.10
502.43	457.40
502.79	466.12
503.16	475.08
503.52	484.58
503.88	494.08
504.24	504.20
504.60	514.34
504.97	525.16
505.33	536.49
505.69	548.24
506.05	560.21
506.41	572.22
506.78	584.88
507.14	597.73
507.50	610.97
507.86	625.16
508.22	639.21
508.59	653.55
508.95	668.30
509.31	683.78
509.67	699.74
510.03	715.88
510.39	732.44
510.75	749.44
511.12	766.62
511.48	784.34
511.84	802.47
512.20	820.70
512.56	839.40
512.92	858.45
513.28	877.93
513.64	897.62
514.00	917.74
514.37	938.14
514.73	959.18
515.09	979.95
515.45	1000.71
515.81	1022.33
516.17	1044.36
516.53	1067.02
516.89	1089.16
517.25	1111.76
517.61	1134.67
517.97	1157.47
518.33	1180.03
518.69	1203.70
519.05	1227.68
519.41	1251.76
519.77	1276.71
520.13	1301.42
520.49	1326.00
520.85	1350.29
521.21	1375.14
521.57	1400.87
521.93	1425.70
522.29	1451.14
522.65	1476.61
523.01	1502.00
523.37	1527.18
523.73	1552.82
524.09	1578.15
524.45	1604.34
524.81	1630.60
525.17	1657.14
525.53	1683.67
525.89	1710.91
526.25	1737.22
526.61	1763.19
526.97	1789.65
527.33	1815.80
527.68	1842.22
528.04	1868.80
528.40	1895.86
528.76	1923.59
529.12	1950.39
529.48	1977.58
529.84	2003.44
530.20	2030.64
530.56	2058.29
530.91	2086.69
531.27	2113.86
531.63	2140.49
531.99	2167.14
532.35	2192.89
532.71	2217.99
533.07	2244.52
533.42	2269.67
533.78	2295.50
534.14	2321.41
534.50	2345.88
534.86	2370.64
535.21	2394.48
535.57	2419.90
535.93	2444.59
536.29	2468.22
536.65	2491.70
537.00	2515.16
537.36	2539.85
537.72	2563.24
538.08	2585.81
538.44	2607.22
538.79	2629.29
539.15	2651.19
539.51	2673.51
539.87	2696.22
540.22	2719.00
540.58	2740.83
540.94	2762.54
541.29	2783.22
541.65	2803.27
542.01	2825.33
542.37	2845.94
542.72	2866.39
543.08	2885.07
543.44	2904.69
543.79	2923.05
544.15	2941.49
544.51	2961.45
544.87	2979.17
545.22	2996.88
545.58	3014.21
545.94	3030.60
546.29	3047.37
546.65	3063.54
547.01	3078.48
547.36	3092.90
547.72	3107.40
548.07	3121.40
548.43	3134.93
548.79	3148.90
549.14	3162.33
549.50	3173.78
549.86	3185.90
550.21	3198.00
550.57	3210.50
550.92	3221.69
551.28	3232.50
551.64	3243.69
551.99	3253.74
552.35	3264.39
552.70	3274.55
553.06	3284.90
553.41	3295.69
553.77	3305.48
554.13	3315.35
554.48	3324.97
554.84	3334.30
555.19	3343.16
555.55	3351.50
555.90	3359.74
556.26	3367.59
556.61	3375.87
556.97	3383.36
557.32	3391.40
557.68	3399.34
558.03	3406.03
558.39	3412.69
558.74	3420.96
559.10	3427.47
559.45	3433.62
559.81	3441.09
560.16	3446.44
560.52	3451.60
560.87	3457.57
561.23	3461.33
561.58	3466.20
561.94	3470.91
562.29	3474.69
562.64	3478.40
563.00	3482.45
563.35	3487.63
563.71	3492.69
564.06	3497.24
564.42	3501.40
564.77	3504.95
565.12	3509.01
565.48	3512.66
565.83	3515.01
566.19	3516.60
566.54	3518.76
566.89	3520.32
567.25	3520.88
567.60	3523.68
567.96	3525.20
568.31	3525.80
568.66	3527.49
569.02	3527.73
569.37	3527.20
569.72	3528.20
570.08	3528.08
570.43	3527.68
570.78	3525.61
571.14	3522.70
571.49	3520.43
571.84	3519.73
572.20	3516.72
572.55	3512.97
572.90	3509.20
573.26	3506.72
573.61	3503.31
573.96	3499.66
574.31	3494.84
574.67	3489.20
575.02	3483.82
575.37	3478.83
575.72	3472.29
576.08	3467.18
576.43	3461.74
576.78	3457.03
577.13	3451.78
577.49	3446.52
577.84	3440.41
578.19	3434.38
578.54	3428.04
578.90	3421.16
579.25	3412.51
579.60	3405.27
579.95	3397.80
580.30	3390.47
580.66	3382.10
581.01	3373.73
581.36	3366.09
581.71	3359.47
582.06	3352.31
582.42	3344.06
582.77	3335.27
583.12	3327.20
583.47	3319.11
583.82	3311.69
584.17	3302.79
584.53	3293.38
584.88	3284.49
585.23	3275.30
585.58	3267.21
585.93	3259.08
586.28	3251.20
586.63	3243.42
586.98	3235.51
587.34	3227.58
587.69	3218.42
588.04	3210.03
588.39	3202.13
588.74	3191.39
589.09	3181.19
589.44	3170.79
589.79	3161.50
590.14	3153.27
590.49	3144.40
590.84	3134.39
591.19	3124.23
591.54	3112.84
591.89	3100.62
592.25	3089.56
592.60	3078.68
592.95	3066.96
593.30	3055.43
593.65	3043.02
594.00	3031.54
594.35	3020.65
594.70	3008.23
595.05	2997.44
595.40	2985.76
595.75	2973.92
596.10	2963.91
596.45	2953.71
596.80	2944.32
597.15	2933.69
597.50	2921.92
597.85	2910.97
598.19	2900.23
598.54	2889.47
598.89	2880.18
599.24	2872.38
599.59	2862.41
599.94	2852.18
600.29	2841.64
600.64	2830.93
600.99	2820.00
601.34	2809.50
601.69	2798.33
602.04	2787.95
602.39	2777.17
602.74	2767.27
603.08	2757.08
603.43	2746.94
603.78	2735.72
604.13	2724.28
604.48	2712.38
604.83	2701.77
605.18	2691.33
605.53	2679.59
605.87	2667.00
606.22	2654.59
606.57	2641.60
606.92	2629.60
607.27	2618.64
607.62	2608.20
607.96	2597.51
608.31	2586.69
608.66	2574.22
609.01	2561.44
609.36	2548.13
609.70	2535.14
610.05	2521.45
610.40	2509.21
610.75	2496.15
611.10	2483.02
611.44	2469.08
611.79	2457.10
612.14	2443.98
612.49	2429.80
612.83	2416.21
613.18	2403.72
613.53	2391.82
613.88	2378.44
614.22	2365.47
614.57	2351.50
614.92	2338.01
615.27	2324.49
615.61	2311.31
615.96	2298.68
616.31	2287.08
616.65	2276.81
617.00	2264.84
617.35	2253.03
617.70	2239.67
618.04	2226.61
618.39	2214.42
618.74	2202.73
619.08	2189.99
619.43	2178.09
619.78	2166.56
620.12	2155.20
620.47	2143.04
620.82	2130.53
621.16	2118.85
621.51	2107.21
621.85	2095.42
622.20	2082.91
622.55	2071.41
622.89	2059.75
623.24	2048.30
623.59	2036.42
623.93	2023.83
624.28	2012.25
624.62	2000.65
624.97	1989.66
625.32	1979.01
625.66	1968.40
626.01	1957.51
626.35	1946.27
626.70	1934.30
627.04	1923.37
627.39	1911.77
627.73	1900.20
628.08	1888.97
628.43	1877.48
628.77	1866.08
629.12	1854.52
629.46	1843.30
629.81	1831.02
630.15	1819.14
630.50	1807.02
630.84	1794.62
631.19	1782.40
631.53	1770.50
631.88	1758.76
632.22	1746.26
632.57	1734.76
632.91	1722.51
633.26	1710.22
633.60	1697.95
633.95	1686.53
634.29	1674.80
634.64	1663.70
634.98	1652.46
635.32	1641.72
635.67	1631.46
636.01	1620.42
636.36	1609.70
636.70	1599.27
637.05	1589.15
637.39	1579.21
637.73	1569.76
638.08	1560.54
638.42	1551.16
638.77	1541.52
639.11	1531.43
639.45	1521.60
639.80	1511.21
640.14	1501.23
640.49	1491.56
640.83	1481.63
641.17	1471.60
641.52	1461.51
641.86	1451.22
642.20	1442.12
642.55	1431.72
642.89	1421.79
643.23	1411.71
643.58	1402.27
643.92	1392.21
644.26	1382.14
644.61	1372.66
644.95	1362.78
645.29	1351.97
645.64	1341.45
645.98	1331.37
646.32	1321.39
646.66	1311.94
647.01	1302.18
647.35	1292.53
647.69	1282.88
648.04	1273.97
648.38	1264.38
648.72	1254.56
649.06	1244.84
649.41	1234.82
649.75	1224.83
650.09	1214.94
650.43	1205.42
650.78	1195.39
651.12	1185.70
651.46	1176.65
651.80	1167.20
652.14	1157.68
652.49	1148.43
652.83	1139.79
653.17	1130.29
653.51	1121.04
653.85	1111.71
654.20	1102.41
654.54	1092.87
654.88	1083.74
655.22	1073.99
655.56	1064.68
655.90	1056.22
656.25	1047.65
656.59	1039.07
656.93	1030.94
657.27	1022.61
657.61	1014.03
657.95	1005.85
658.29	997.65
658.64	989.09
658.98	980.29
659.32	971.72
659.66	963.67
660.00	955.35
660.34	947.49
660.68	939.77
661.02	932.03
661.36	924.71
661.70	917.51
662.05	910.27
662.39	903.46
662.73	896.56
663.07	889.30
663.41	882.32
663.75	875.36
664.09	868.48
664.43	861.47
664.77	854.94
665.11	848.45
665.45	841.94
665.79	835.32
666.13	828.97
666.47	822.66
666.81	816.20
667.15	809.42
667.49	803.25
667.83	797.11
668.17	790.75
668.51	784.22
668.85	777.91
669.19	771.88
669.53	765.77
669.87	759.71
670.21	754.08
670.55	748.53
670.89	742.94
671.23	737.45
671.57	731.83
671.91	726.45
672.25	720.86
672.58	715.31
672.92	709.87
673.26	704.67
673.60	699.62
673.94	694.92
674.28	690.51
674.62	685.80
674.96	680.75
675.30	676.10
675.64	671.65
675.97	667.00
676.31	662.45
676.65	657.84
676.99	653.58
677.33	648.51
677.67	643.56
678.01	638.75
678.34	634.04
678.68	629.60
679.02	624.87
679.36	620.46
679.70	616.17
680.04	612.04
680.37	607.55
680.71	603.42
681.05	599.10
681.39	594.87
681.73	590.63
682.06	587.26
682.40	583.48
682.74	579.50
683.08	575.50
683.42	571.39
683.75	567.38
684.09	563.25
684.43	559.66
684.77	555.96
685.10	552.27
685.44	548.53
685.78	544.96
686.12	541.61
686.45	538.05
686.79	534.44
687.13	530.95
687.46	527.66
687.80	524.02
688.14	520.51
688.48	517.11
688.81	513.60
689.15	509.97
689.49	506.46
689.82	502.94
690.16	499.77
690.50	496.71
690.83	493.57
691.17	490.44
691.51	487.31
691.84	484.50
692.18	481.48
692.52	478.28
692.85	475.43
693.19	472.25
693.52	469.27
693.86	466.33
694.20	463.51
694.53	460.49
694.87	457.52
695.21	454.82
695.54	451.84
695.88	449.08
696.21	446.07
696.55	443.44
696.88	440.81
697.22	438.04
697.56	435.23
697.89	432.50
698.23	429.86
698.56	427.27
698.90	424.64
699.23	421.81
699.57	419.39
699.90	416.73
700.24	414.37
700.58	411.90
700.91	409.57
701.25	407.15
701.58	404.98
701.92	402.74
702.25	400.38
702.59	398.23
702.92	396.00
703.26	394.00
703.59	391.80
703.93	389.91
704.26	387.97
704.60	385.98
704.93	384.24
705.26	382.25
705.60	380.38
705.93	378.47
706.27	376.83
706.60	375.20
706.94	373.38
707.27	371.54
707.61	369.73
707.94	367.98
708.27	366.23
708.61	364.55
708.94	362.96
709.28	361.39
709.61	359.87
709.94	358.35
710.28	356.82
710.61	355.35
710.95	353.61
711.28	352.13
711.61	350.60
711.95	349.00
712.28	347.42
712.61	345.95
712.95	344.54
713.28	343.22
713.61	341.77
713.95	340.45
714.28	339.12
714.61	337.80
714.95	336.54
715.28	335.19
715.61	333.81
715.95	332.51
716.28	331.20
716.61	329.96
716.95	328.78
717.28	327.58
717.61	326.36
717.94	325.16
718.28	323.86
718.61	322.65
718.94	321.65
719.27	320.66
719.61	319.73
719.94	318.77
720.27	317.68
720.60	316.60
720.94	315.64
721.27	314.61
721.60	313.75
721.93	312.79
722.27	311.99
722.60	311.13
722.93	310.28
723.26	309.48
723.59	308.64
723.93	307.77
724.26	306.88
724.59	306.09
724.92	305.31
725.25	304.56
725.59	303.85
725.92	302.93
726.25	302.16
726.58	301.25
726.91	300.33
727.24	299.50
727.57	298.78
727.91	297.85
728.24	297.20
728.57	296.37
728.90	295.66
729.23	294.81
729.56	294.20
729.89	293.35
730.22	292.60
730.55	291.85
730.89	291.17
731.22	290.40
731.55	289.62
731.88	288.89
732.21	288.24
732.54	287.53
732.87	286.90
733.20	286.14
733.53	285.55
733.86	284.91
734.19	284.25
734.52	283.61
734.85	283.27
735.18	282.52
735.51	281.95
735.84	281.27
736.17	280.67
736.50	279.88
736.83	279.53
737.16	278.89
737.49	278.17
737.82	277.48
738.15	276.87
738.48	276.28
738.81	275.79
739.14	275.06
739.47	274.51
739.80	273.80
740.13	273.28
740.46	272.68
740.79	272.05
741.12	271.54
741.45	271.03
741.78	270.33
742.11	269.81
742.44	269.24
742.77	268.70
743.10	268.19
743.43	267.72
743.75	266.98
744.08	266.75
744.41	266.33
744.74	265.89
745.07	265.45
745.40	265.04
745.73	264.61
746.06	264.14
746.39	263.77
746.71	263.40
747.04	262.97
747.37	262.51
747.70	262.14
748.03	261.63
748.36	261.12
748.68	260.69
749.01	260.17
749.34	259.84
749.67	259.50
750.00	259.06
750.33	258.71
750.65	258.25
750.98	257.62
751.31	257.33
751.64	257.01
751.97	256.82
752.29	256.46
752.62	256.02
752.95	255.73
753.28	255.36
753.60	255.13
753.93	254.81
754.26	254.45
754.59	254.10
754.91	253.78
755.24	253.51
755.57	253.17
755.90	253.07
756.22	252.60
756.55	252.28
756.88	251.91
757.20	251.58
757.53	251.27
757.86	250.99
758.19	250.67
758.51	250.37
758.84	250.00
759.17	249.77
759.49	249.62
759.82	249.55
760.15	249.12
760.47	248.77
760.80	248.57
761.13	248.43
761.45	248.27
761.78	248.18
762.11	247.95
762.43	247.80
762.76	247.54
763.08	247.46
763.41	247.31
763.74	247.21
764.06	246.87
764.39	246.80
764.71	246.60
765.04	246.40
765.37	246.21
765.69	245.89
766.02	245.59
766.34	245.40
766.67	245.04
767.00	245.03
767.32	245.09
767.65	245.05
767.97	244.80
768.30	244.68
768.62	244.47
768.95	244.36
769.27	244.20
769.60	244.02
769.92	243.88
770.25	243.58
770.57	243.40
770.90	243.40
771.22	243.20
771.55	243.08
771.87	242.97
772.20	242.90
772.52	242.95
772.85	243.12
773.17	242.91
773.50	242.68
773.82	242.53
774.15	242.21
774.47	241.89
774.80	241.74
775.12	241.54
775.45	241.24
775.77	241.15
776.09	241.03
776.42	240.92
776.74	240.74
777.07	240.68
777.39	240.52
777.72	240.31
778.04	240.11
778.36	239.90
778.69	239.77
779.01	239.58
779.33	239.33
779.66	238.96
779.98	238.80
780.31	238.75
780.63	238.68
780.95	238.64
781.28	238.53
781.60	238.40
781.92	238.29
782.25	238.27
782.57	238.05
782.89	237.85
783.22	237.63
783.54	237.49
783.86	237.40
784.19	237.24
784.51	237.17
784.83	237.12
785.16	237.09
785.48	236.90
785.80	236.80
786.12	236.65
786.45	236.58
786.77	236.57
787.09	236.48
787.42	236.32
787.74	236.12
788.06	236.03
788.38	236.00
788.71	235.87
789.03	235.80
789.35	235.70
789.67	235.59
789.99	235.64
790.32	235.59
790.64	235.59
790.96	235.71
791.28	235.70
791.61	235.59
791.93	235.47
792.25	235.50
792.57	235.60
792.89	235.53
793.21	235.45
793.54	235.30
793.86	235.22
794.18	235.18
794.50	235.09
794.82	235.05
795.14	235.01
795.47	234.97
795.79	234.93
796.11	234.81
796.43	234.74
796.75	234.67
797.07	234.54
797.39	234.39
797.71	234.26
798.04	234.16
798.36	234.19
798.68	234.09
799.00	234.01
799.32	233.79
799.64	233.75
799.96	233.70
800.28	233.67
800.60	233.67
800.92	233.61
801.24	233.71
801.56	233.76
801.89	233.75
802.21	233.75
802.53	233.67
802.85	233.81
803.17	233.99
803.49	233.90
803.81	233.91
804.13	233.92
804.45	233.78
804.77	233.73
805.09	233.63
805.41	233.61
805.73	233.53
806.05	233.56
806.37	233.64
806.69	233.54
807.01	233.54
807.33	233.46
807.65	233.41
807.97	233.32
808.28	233.28
808.60	233.19
808.92	233.12
809.24	233.29
809.56	233.15
809.88	233.00
810.20	233.01
810.52	232.93
810.84	232.81
811.16	232.81
811.48	232.84
811.80	232.96
812.12	233.00
812.43	233.01
812.75	232.96
813.07	232.87
813.39	232.90
813.71	232.79
814.03	232.81
814.35	232.77
814.67	232.68
814.98	232.55
815.30	232.52
815.62	232.53
815.94	232.32
816.26	232.38
816.58	232.27
816.89	232.17
817.21	232.10
817.53	232.08
817.85	232.08
818.17	232.05
818.48	231.88
818.80	231.83
819.12	231.76
819.44	231.65
819.76	231.57
820.07	231.47
820.39	231.50
820.71	231.51
821.03	231.46
821.34	231.38
821.66	231.30
821.98	231.23
822.30	231.05
822.61	231.03
822.93	230.84
823.25	230.81
823.57	230.80
823.88	230.88
824.20	230.82
824.52	230.80
824.83	230.69
825.15	230.60
825.47	230.51
825.79	230.42
826.10	230.37
826.42	230.36
826.74	230.42
827.05	230.23
827.37	230.16
827.69	230.14
828.00	230.13
828.32	230.16
828.64	230.07
828.95	230.27
829.27	230.18
829.58	230.14
829.90	230.11
830.22	230.18
830.53	230.08
830.85	230.04
831.17	229.92
831.48	229.94
831.80	229.99
832.11	229.95
832.43	229.95
832.75	229.95
833.06	229.95
833.38	229.80
833.69	229.85
834.01	229.84
834.32	229.81
834.64	229.78
834.96	229.75
835.27	229.78
835.59	229.62
835.90	229.67
836.22	229.72
836.53	229.70
836.85	229.56
837.16	229.74
837.48	229.73
837.79	229.90
838.11	229.86
838.42	229.84
838.74	229.98
839.05	230.03
839.37	230.05
839.68	229.97
840.00	230.10
840.31	230.12
840.63	230.10
840.94	230.18
841.26	230.16
841.57	230.23
841.88	230.20
842.20	230.20
842.51	230.14
842.83	230.04
843.14	230.21
843.46	230.18
843.77	230.04
844.08	230.12
844.40	230.05
844.71	230.15
845.03	230.20
845.34	230.03
845.65	230.01
845.97	229.94
846.28	229.99
846.60	229.94
846.91	230.00
847.22	229.91
847.54	229.86
847.85	229.92
848.16	229.85
848.48	229.83
848.79	229.81
849.10	229.73
849.42	229.80
849.73	229.65
850.04	229.71
850.36	229.69
850.67	229.65
850.98	229.60
851.30	229.55
851.61	229.45
851.92	229.53
852.23	229.51
852.55	229.49
852.86	229.49
853.17	229.41
853.49	229.50
853.80	229.49
854.11	229.45
854.42	229.42
854.74	229.34
855.05	229.29
855.36	229.22
855.67	229.36
855.99	229.43
856.30	229.62
856.61	229.60
856.92	229.59
857.23	229.59
857.55	229.52
857.86	229.41
858.17	229.34
858.48	229.15
858.79	229.13
859.11	229.17
859.42	229.08
859.73	229.00
860.04	228.89
860.35	228.84
860.66	228.84
860.98	228.82
861.29	228.93
861.60	228.96
861.91	228.99
862.22	228.96
862.53	228.82
862.84	228.61
863.16	228.59
863.47	228.45
863.78	228.38
864.09	228.34
864.40	228.38
864.71	228.50
865.02	228.64
865.33	228.58
865.64	228.53
865.95	228.53
866.27	228.73
866.58	228.66
866.89	228.65
867.20	228.60
867.51	228.57
867.82	228.45
868.13	228.54
868.44	228.56
868.75	228.53
869.06	228.56
869.37	228.61
869.68	228.60
869.99	228.65
870.30	228.66
870.61	228.71
870.92	228.67
871.23	228.68
871.54	228.70
871.85	228.77
872.16	228.72
872.47	228.79
872.78	228.66
873.09	228.71
873.40	228.76
873.71	228.77
874.02	228.77
874.33	228.80
874.64	228.79
874.95	228.86
875.26	228.84
875.56	228.85
875.87	228.82
876.18	228.83
876.49	229.00
876.80	229.05
877.11	229.05
877.42	229.11
877.73	229.04
878.04	228.98
878.35	229.01
878.66	229.02
878.96	228.94
879.27	228.96
879.58	228.92
879.89	228.93
880.20	228.95
880.51	228.95
880.82	228.96
881.12	228.90
881.43	228.78
881.74	228.74
882.05	228.66
882.36	228.67
882.67	228.63
882.97	228.49
883.28	228.45
883.59	228.42
883.90	228.44
884.21	228.48
884.51	228.52
884.82	228.50
885.13	228.56
885.44	228.64
885.74	228.68
886.05	228.69
886.36	228.72
886.67	228.70
886.98	228.73
887.28	228.71
887.59	228.71
887.90	228.77
888.20	228.81
888.51	228.91
888.82	228.87
889.13	228.98
889.43	229.12
889.74	229.17
890.05	229.26
890.35	229.17
890.66	229.17
890.97	229.14
891.28	229.07
891.58	229.12
891.89	229.10
892.20	229.10
892.50	229.19
892.81	229.14
893.12	229.17
893.42	229.19
893.73	229.28
894.04	229.33
894.34	229.34
894.65	229.31
894.95	229.29
895.26	229.29
895.57	229.29
895.87	229.22
896.18	229.23
896.48	229.19
896.79	229.19
897.10	229.20
897.40	229.16
897.71	229.28
898.01	229.29
898.32	229.39
898.63	229.39
898.93	229.36
899.24	229.43
899.54	229.40
899.85	229.43
900.15	229.38
900.46	229.33
900.76	229.36
901.07	229.35
901.38	229.38
901.68	229.46
901.99	229.38
902.29	229.41
902.60	229.36
902.90	229.34
903.21	229.43
903.51	229.41
903.82	229.43
904.12	229.41
904.43	229.34
904.73	229.12
905.03	229.10
905.34	229.21
905.64	229.08
905.95	229.00
906.25	228.90
906.56	228.92
906.86	228.88
907.17	228.85
907.47	228.91
907.77	228.83
908.08	228.80
908.38	228.84
908.69	228.79
908.99	228.78
909.30	228.74
909.60	228.65
909.90	228.62
910.21	228.61
910.51	228.51
910.81	228.57
911.12	228.66
911.42	228.61
911.73	228.40
912.03	228.48
912.33	228.61
912.64	228.62
912.94	228.57
913.24	228.60
913.55	228.66
913.85	228.67
914.15	228.80
914.46	228.66
914.76	228.72
915.06	228.76
915.37	228.73
915.67	228.81
915.97	228.81
916.27	228.83
916.58	228.88
916.88	228.97
917.18	228.92
917.49	229.09
917.79	229.20
918.09	229.26
918.39	229.25
918.70	229.23
919.00	229.25
919.30	229.31
919.60	229.30
919.91	229.24
920.21	229.20
920.51	229.08
920.81	229.19
921.12	229.17
921.42	229.12
921.72	229.16
922.02	229.16
922.32	229.21
922.63	229.23
922.93	229.35
923.23	229.35
923.53	229.34
923.83	229.30
924.13	229.15
924.44	229.21
924.74	229.29
925.04	229.38
925.34	229.40
925.64	229.40
925.94	229.46
926.24	229.53
926.55	229.51
926.85	229.60
927.15	229.59
927.45	229.62
927.75	229.60
928.05	229.62
928.35	229.65
928.65	229.75
928.95	229.77
929.26	229.61
929.56	229.58
929.86	229.67
930.16	229.57
930.46	229.65
930.76	229.57
931.06	229.45
931.36	229.38
931.66	229.41
931.96	229.30
932.26	229.28
932.56	229.24
932.86	229.25
933.16	229.14
933.46	229.19
933.76	229.00
934.06	229.06
934.36	229.18
934.66	229.04
934.96	228.98
935.26	228.96
935.56	229.07
935.86	229.04
936.16	228.95
936.46	228.89
936.76	228.91
937.06	229.03
937.36	229.10
937.66	229.04
937.96	228.97
938.26	229.08
938.56	229.01
938.86	228.96
939.16	228.92
939.46	228.98
939.76	228.87
940.06	228.97
940.35	228.91
940.65	228.60
940.95	228.72
941.25	228.67
941.55	228.64
941.85	228.60
942.15	228.61
942.45	228.67
942.75	228.66
943.04	228.61
943.34	228.52
943.64	228.47
943.94	228.45
944.24	228.46
944.54	228.47
944.84	228.49
945.13	228.44
945.43	228.48
945.73	228.43
946.03	228.40
946.33	228.26
946.62	228.21
946.92	228.30
947.22	228.22
947.52	228.23
947.82	228.20
948.11	228.10
948.41	228.10
948.71	228.06
949.01	228.08
949.31	228.05
949.60	228.08
949.90	228.16
950.20	228.10
950.50	228.11
950.79	228.03
951.09	228.07
951.39	228.05
951.69	228.04
951.98	228.05
952.28	228.05
952.58	228.15
952.87	228.20
953.17	228.32
953.47	228.35
953.76	228.38
954.06	228.40
954.36	228.44
954.66	228.47
954.95	228.49
955.25	228.47
955.55	228.55
955.84	228.47
956.14	228.33
956.44	228.46
956.73	228.49
957.03	228.45
957.32	228.50
957.62	228.55
957.92	228.56
958.21	228.58
958.51	228.90
958.81	228.94
959.10	228.92
959.40	228.81
959.69	228.87
959.99	228.85
960.29	228.80
960.58	228.72
960.88	228.78
961.17	228.80
961.47	228.83
961.76	228.87
962.06	228.94
962.36	229.06
962.65	228.97
962.95	228.95
963.24	229.02
963.54	229.01
963.83	229.03
964.13	229.07
964.42	229.06
964.72	228.86
965.01	228.90
965.31	229.00
965.60	228.98
965.90	229.08
966.19	229.05
966.49	229.15
966.78	229.16
967.08	229.06
967.37	229.08
967.67	229.15
967.96	229.18
968.26	229.18
968.55	229.18
968.85	229.24
969.14	229.25
969.43	229.21
969.73	229.10
970.02	229.13
970.32	229.10
970.61	229.21
970.91	229.15
971.20	229.15
971.49	229.00
971.79	229.01
972.08	228.84
972.38	228.81
972.67	228.72
972.96	228.82
973.26	228.77
973.55	228.72
973.85	228.67
974.14	228.49
974.43	228.50
974.73	228.43
975.02	228.40
975.31	228.31
975.61	228.20
975.90	228.24
976.19	228.09
976.49	228.01
976.78	227.80
977.07	227.86
977.37	227.76
977.66	227.83
977.95	227.90
978.24	227.94
978.54	228.04
978.83	228.06
979.12	228.01
979.42	228.02
979.71	227.98
980.00	227.87
980.29	227.82
980.59	227.74
980.88	227.85
981.17	227.78
981.46	227.73
981.76	227.80
982.05	227.80
982.34	227.91
982.63	227.95
982.93	228.01
983.22	227.91
983.51	227.94
983.80	227.91
984.09	227.96
984.39	227.87
984.68	227.88
984.97	227.91
985.26	227.82
985.55	227.86
985.85	227.89
986.14	227.97
986.43	228.05
986.72	227.98
987.01	227.95
987.30	228.00
987.59	228.07
987.89	228.15
988.18	228.20
988.47	228.19
988.76	228.13
989.05	228.17
989.34	228.16
989.63	228.24
989.92	228.24
990.22	228.07
990.51	228.07
990.80	227.97
991.09	227.90
991.38	227.97
991.67	227.96
991.96	227.89
992.25	227.97
992.54	228.03
992.83	228.11
993.12	228.05
993.41	228.06
993.70	228.08
993.99	228.06
994.28	228.00
994.58	228.02
994.87	228.11
995.16	228.19
995.45	228.23
995.74	228.00
996.03	228.04
996.32	228.18
996.61	228.30
996.90	228.44
997.19	228.40
997.48	228.46
997.77	228.51
998.06	228.61
998.34	228.55
998.63	228.50
998.92	228.46
999.21	228.50
999.50	228.51
999.79	228.53
1000.08	228.60
1000.37	228.60
1000.66	228.57
1000.95	228.56
1001.24	228.53
1001.53	228.69
1001.82	228.84
1002.11	228.71
1002.40	228.72
1002.68	228.72
1002.97	228.72
1003.26	228.75
1003.55	228.73
1003.84	228.64
1004.13	228.60
1004.42	228.57
1004.71	228.65
1004.99	228.60
1005.28	228.60
1005.57	228.59
1005.86	228.59
1006.15	228.56
1006.44	228.60
1006.72	228.63
1007.01	228.55
1007.30	228.50
1007.59	228.40
1007.88	228.42
1008.17	228.51
1008.45	228.48
1008.74	228.41
1009.03	228.30
1009.32	228.31
1009.60	228.21
1009.89	228.28
1010.18	228.24
1010.47	228.37
1010.76	228.36
1011.04	228.39
1011.33	228.35
1011.62	228.38
1011.91	228.31
1012.19	228.27
1012.48	228.24
1012.77	228.14
1013.05	228.28
1013.34	228.29
1013.63	228.25
1013.92	228.19
1014.20	228.16
1014.49	228.12
1014.78	228.12
1015.06	228.12
1015.35	228.04
1015.64	228.10
1015.92	228.09
1016.21	228.03
1016.50	227.89
1016.78	227.73
1017.07	227.79
1017.36	227.77
1017.64	227.66
1017.93	227.73
1018.22	227.74
1018.50	227.75
1018.79	227.76
1019.08	227.64
1019.36	227.65
1019.65	227.65
1019.93	227.74
1020.22	227.78
1020.51	227.91
1020.79	227.83
1021.08	228.60
1021.36	227.80
1021.65	227.30
1021.94	227.40
1022.22	228.20
1022.51	228.20
1022.79	229.50
1023.08	228.90
1023.36	230.60
1023.65	226.50
>>>>>End Processed Spectral Data<<<<<
