SpectraSuite Data File
++++++++++++++++++++++++++++++++++++
Date: Fri Feb 01 14:41:53 EST 2013
User: group
Dark Spectrum Present: No
Reference Spectrum Present: No
Number of Sampled Component Spectra: 1
Spectrometers: USB2E7196
Integration Time (usec): 70000 (USB2E7196)
Spectra Averaged: 10 (USB2E7196)
Boxcar Smoothing: 10 (USB2E7196)
Correct for Electrical Dark: No (USB2E7196)
Strobe/Lamp Enabled: No (USB2E7196)
Correct for Detector Non-linearity: No (USB2E7196)
Correct for Stray Light: No (USB2E7196)
Number of Pixels in Processed Spectrum: 2048
>>>>>Begin Processed Spectral Data<<<<<
339.09	0.00
339.48	217.50
339.86	219.40
340.24	216.90
340.63	219.10
341.01	224.80
341.39	222.50
341.78	224.80
342.16	224.90
342.54	226.60
342.93	214.65
343.31	225.47
343.69	225.91
344.07	226.39
344.46	226.97
344.84	227.45
345.22	227.50
345.60	227.84
345.99	228.10
346.37	228.32
346.75	228.46
347.13	228.61
347.52	228.69
347.90	228.86
348.28	228.88
348.66	229.00
349.05	229.10
349.43	229.20
349.81	229.33
350.19	229.44
350.57	229.46
350.96	229.57
351.34	229.74
351.72	229.85
352.10	229.88
352.48	229.95
352.87	229.93
353.25	230.13
353.63	230.10
354.01	230.13
354.39	230.18
354.77	230.22
355.15	230.26
355.54	230.29
355.92	230.36
356.30	230.40
356.68	230.60
357.06	230.64
357.44	230.70
357.82	230.70
358.20	230.70
358.58	230.80
358.97	230.82
359.35	230.85
359.73	230.95
360.11	230.94
360.49	230.99
360.87	230.95
361.25	231.01
361.63	231.18
362.01	231.20
362.39	231.10
362.77	231.17
363.15	231.21
363.53	231.23
363.91	231.06
364.29	230.95
364.67	230.70
365.05	230.65
365.43	230.61
365.81	230.59
366.19	230.70
366.57	230.74
366.95	230.72
367.33	230.62
367.71	230.66
368.09	230.68
368.47	230.57
368.85	230.69
369.23	230.61
369.61	230.48
369.99	230.60
370.37	230.66
370.75	230.67
371.13	230.54
371.51	230.46
371.89	230.48
372.27	230.56
372.65	230.51
373.03	230.49
373.41	230.39
373.78	230.28
374.16	230.01
374.54	229.85
374.92	229.72
375.30	229.70
375.68	229.51
376.06	229.53
376.44	229.50
376.82	229.52
377.19	229.51
377.57	229.51
377.95	229.17
378.33	229.12
378.71	228.90
379.09	228.99
379.47	228.98
379.84	228.90
380.22	228.70
380.60	228.70
380.98	228.50
381.36	228.49
381.73	228.50
382.11	228.53
382.49	228.50
382.87	228.49
383.25	228.42
383.62	228.68
384.00	228.56
384.38	228.43
384.76	228.26
385.13	228.23
385.51	228.06
385.89	227.98
386.27	227.97
386.64	227.95
387.02	227.82
387.40	227.82
387.78	227.80
388.15	227.84
388.53	227.61
388.91	227.72
389.29	227.64
389.66	227.58
390.04	227.60
390.42	227.59
390.79	227.60
391.17	227.60
391.55	227.46
391.92	227.41
392.30	227.48
392.68	227.49
393.05	227.57
393.43	227.64
393.81	227.72
394.18	227.65
394.56	227.71
394.94	227.86
395.31	227.87
395.69	227.98
396.06	228.06
396.44	228.25
396.82	228.24
397.19	228.39
397.57	228.46
397.95	228.53
398.32	228.60
398.70	228.81
399.07	228.92
399.45	228.83
399.82	228.91
400.20	229.01
400.58	229.19
400.95	229.12
401.33	229.30
401.70	229.65
402.08	229.79
402.45	229.87
402.83	229.97
403.20	230.06
403.58	230.22
403.95	230.50
404.33	230.67
404.71	230.88
405.08	231.11
405.46	231.30
405.83	231.54
406.21	231.70
406.58	231.80
406.96	232.01
407.33	232.35
407.70	232.61
408.08	233.05
408.45	233.33
408.83	233.80
409.20	234.10
409.58	234.33
409.95	234.70
410.33	235.10
410.70	235.43
411.08	235.90
411.45	236.42
411.82	236.80
412.20	237.40
412.57	238.03
412.95	238.45
413.32	239.10
413.69	239.63
414.07	240.38
414.44	241.06
414.82	241.81
415.19	242.63
415.56	243.51
415.94	244.33
416.31	245.31
416.68	246.15
417.06	247.25
417.43	248.23
417.81	249.40
418.18	250.52
418.55	251.82
418.93	253.12
419.30	254.33
419.67	255.76
420.04	257.11
420.42	258.50
420.79	260.32
421.16	261.87
421.54	263.70
421.91	265.49
422.28	267.33
422.66	269.20
423.03	271.01
423.40	272.90
423.77	274.79
424.15	276.84
424.52	279.00
424.89	281.41
425.26	283.61
425.64	285.70
426.01	288.09
426.38	290.48
426.75	292.87
427.13	295.47
427.50	298.01
427.87	300.70
428.24	303.46
428.61	305.88
428.99	308.82
429.36	311.67
429.73	314.68
430.10	317.60
430.47	320.69
430.85	323.76
431.22	327.05
431.59	330.62
431.96	333.83
432.33	337.39
432.70	340.60
433.08	344.73
433.45	348.46
433.82	352.31
434.19	356.60
434.56	360.78
434.93	364.64
435.30	368.53
435.68	372.80
436.05	376.83
436.42	381.06
436.79	384.60
437.16	388.50
437.53	392.43
437.90	396.55
438.27	400.40
438.64	404.57
439.01	408.27
439.38	411.55
439.75	414.66
440.13	418.26
440.50	421.62
440.87	424.28
441.24	427.32
441.61	430.31
441.98	432.34
442.35	434.88
442.72	437.47
443.09	440.07
443.46	441.31
443.83	442.15
444.20	442.58
444.57	443.92
444.94	444.54
445.31	445.15
445.68	445.74
446.05	445.76
446.42	445.07
446.79	444.45
447.16	443.79
447.53	443.35
447.90	441.72
448.27	440.23
448.64	437.84
449.01	436.14
449.37	433.35
449.74	430.50
450.11	427.17
450.48	423.29
450.85	419.46
451.22	416.42
451.59	413.56
451.96	410.86
452.33	406.96
452.70	403.31
453.07	399.05
453.43	394.66
453.80	390.69
454.17	386.71
454.54	383.01
454.91	379.00
455.28	374.94
455.65	371.19
456.02	367.67
456.38	364.60
456.75	360.64
457.12	357.28
457.49	354.11
457.86	350.99
458.23	348.40
458.59	345.33
458.96	342.30
459.33	339.50
459.70	336.78
460.07	334.59
460.43	332.11
460.80	329.70
461.17	327.58
461.54	325.47
461.91	323.40
462.27	321.25
462.64	319.31
463.01	317.36
463.38	315.51
463.74	313.31
464.11	311.60
464.48	309.92
464.85	308.18
465.21	306.90
465.58	305.48
465.95	303.91
466.32	302.71
466.68	301.32
467.05	299.98
467.42	298.54
467.78	296.98
468.15	295.63
468.52	294.72
468.88	293.36
469.25	292.14
469.62	291.25
469.98	290.14
470.35	289.12
470.72	288.19
471.08	287.14
471.45	286.25
471.82	285.36
472.18	284.52
472.55	283.91
472.92	282.99
473.28	282.16
473.65	281.45
474.02	280.78
474.38	280.26
474.75	279.75
475.11	279.20
475.48	278.80
475.85	278.51
476.21	278.03
476.58	277.73
476.94	277.49
477.31	277.10
477.67	276.86
478.04	276.72
478.41	276.58
478.77	276.63
479.14	276.57
479.50	276.52
479.87	276.54
480.23	276.64
480.60	276.60
480.96	276.62
481.33	276.85
481.69	276.97
482.06	277.09
482.42	277.19
482.79	277.49
483.15	277.95
483.52	278.33
483.88	278.73
484.25	279.18
484.61	279.46
484.98	280.04
485.34	280.76
485.71	281.46
486.07	282.12
486.44	282.65
486.80	283.43
487.17	284.19
487.53	285.03
487.90	285.93
488.26	287.18
488.62	288.45
488.99	289.64
489.35	290.83
489.72	292.10
490.08	293.39
490.44	294.83
490.81	296.21
491.17	297.75
491.54	299.43
491.90	301.36
492.26	303.51
492.63	305.52
492.99	307.70
493.36	309.77
493.72	312.21
494.08	314.87
494.45	317.65
494.81	320.61
495.17	323.73
495.54	327.00
495.90	330.20
496.26	333.58
496.63	337.22
496.99	340.98
497.35	345.10
497.72	349.40
498.08	353.76
498.44	358.48
498.80	363.39
499.17	368.57
499.53	373.81
499.89	379.25
500.26	384.98
500.62	390.78
500.98	397.18
501.34	403.68
501.71	410.29
502.07	417.07
502.43	424.18
502.79	431.50
503.16	439.14
503.52	447.22
503.88	455.54
504.24	463.82
504.60	472.73
504.97	481.81
505.33	491.39
505.69	501.45
506.05	511.76
506.41	521.97
506.78	532.60
507.14	543.65
507.50	555.15
507.86	567.03
508.22	579.19
508.59	591.51
508.95	604.08
509.31	617.33
509.67	630.92
510.03	644.63
510.39	658.67
510.75	673.23
511.12	688.10
511.48	703.32
511.84	718.95
512.20	734.80
512.56	751.21
512.92	767.87
513.28	784.74
513.64	801.77
514.00	819.33
514.37	837.23
514.73	855.07
515.09	873.12
515.45	891.64
515.81	910.51
516.17	929.88
516.53	949.70
516.89	969.12
517.25	988.87
517.61	1009.27
517.97	1029.72
518.33	1049.94
518.69	1070.60
519.05	1091.79
519.41	1113.24
519.77	1134.87
520.13	1156.66
520.49	1178.45
520.85	1200.44
521.21	1222.45
521.57	1245.14
521.93	1267.21
522.29	1290.07
522.65	1312.72
523.01	1335.11
523.37	1357.79
523.73	1380.38
524.09	1402.90
524.45	1426.30
524.81	1450.32
525.17	1474.26
525.53	1498.24
525.89	1522.40
526.25	1546.06
526.61	1569.02
526.97	1593.02
527.33	1616.97
527.68	1640.74
528.04	1664.74
528.40	1688.37
528.76	1712.81
529.12	1736.94
529.48	1761.38
529.84	1785.06
530.20	1809.59
530.56	1834.55
530.91	1859.59
531.27	1884.56
531.63	1908.92
531.99	1932.96
532.35	1955.81
532.71	1978.27
533.07	2002.00
533.42	2024.96
533.78	2048.41
534.14	2072.12
534.50	2094.16
534.86	2116.83
535.21	2139.19
535.57	2162.14
535.93	2185.35
536.29	2207.16
536.65	2228.82
537.00	2250.22
537.36	2272.19
537.72	2292.96
538.08	2314.00
538.44	2334.12
538.79	2354.45
539.15	2374.73
539.51	2395.29
539.87	2415.90
540.22	2436.38
540.58	2456.62
540.94	2476.02
541.29	2495.34
541.65	2514.26
542.01	2534.31
542.37	2553.22
542.72	2571.66
543.08	2589.12
543.44	2606.74
543.79	2623.53
544.15	2640.63
544.51	2658.82
544.87	2676.21
545.22	2693.17
545.58	2708.77
545.94	2723.93
546.29	2739.04
546.65	2753.68
547.01	2767.75
547.36	2782.05
547.72	2795.82
548.07	2808.88
548.43	2822.54
548.79	2835.39
549.14	2847.83
549.50	2859.59
549.86	2871.10
550.21	2882.66
550.57	2894.27
550.92	2905.46
551.28	2916.59
551.64	2927.32
551.99	2937.14
552.35	2946.71
552.70	2956.90
553.06	2967.19
553.41	2977.81
553.77	2987.14
554.13	2996.91
554.48	3006.61
554.84	3015.05
555.19	3023.90
555.55	3031.97
555.90	3039.56
556.26	3047.23
556.61	3055.15
556.97	3062.54
557.32	3070.67
557.68	3077.79
558.03	3084.56
558.39	3090.96
558.74	3098.74
559.10	3105.55
559.45	3112.19
559.81	3119.97
560.16	3125.41
560.52	3131.02
560.87	3137.05
561.23	3141.58
561.58	3146.79
561.94	3151.19
562.29	3155.50
562.64	3159.11
563.00	3163.40
563.35	3168.89
563.71	3174.39
564.06	3179.14
564.42	3183.46
564.77	3187.02
565.12	3191.78
565.48	3195.94
565.83	3198.83
566.19	3201.69
566.54	3203.78
566.89	3205.31
567.25	3206.00
567.60	3208.35
567.96	3209.83
568.31	3210.49
568.66	3212.57
569.02	3214.14
569.37	3214.68
569.72	3215.88
570.08	3216.94
570.43	3217.19
570.78	3215.85
571.14	3214.08
571.49	3212.68
571.84	3212.69
572.20	3210.44
572.55	3207.55
572.90	3204.19
573.26	3202.78
573.61	3199.61
573.96	3197.04
574.31	3193.68
574.67	3188.95
575.02	3184.93
575.37	3181.40
575.72	3176.29
576.08	3171.80
576.43	3166.30
576.78	3162.29
577.13	3158.07
577.49	3153.64
577.84	3148.37
578.19	3143.17
578.54	3137.64
578.90	3131.70
579.25	3123.57
579.60	3117.53
579.95	3110.83
580.30	3104.36
580.66	3096.62
581.01	3089.41
581.36	3082.51
581.71	3075.98
582.06	3069.90
582.42	3062.14
582.77	3054.08
583.12	3046.96
583.47	3039.68
583.82	3033.26
584.17	3025.43
584.53	3017.66
584.88	3009.85
585.23	3002.22
585.58	2994.32
585.93	2986.90
586.28	2980.07
586.63	2973.40
586.98	2965.79
587.34	2958.52
587.69	2951.00
588.04	2943.74
588.39	2936.88
588.74	2927.43
589.09	2918.80
589.44	2909.58
589.79	2901.73
590.14	2894.13
590.49	2885.85
590.84	2877.22
591.19	2867.98
591.54	2857.97
591.89	2846.86
592.25	2837.02
592.60	2826.41
592.95	2816.02
593.30	2805.19
593.65	2794.22
594.00	2783.86
594.35	2774.32
594.70	2763.08
595.05	2753.50
595.40	2742.73
595.75	2731.09
596.10	2722.33
596.45	2712.69
596.80	2704.39
597.15	2694.67
597.50	2683.97
597.85	2674.68
598.19	2665.18
598.54	2655.83
598.89	2646.80
599.24	2638.64
599.59	2629.49
599.94	2620.88
600.29	2611.90
600.64	2602.92
600.99	2592.31
601.34	2582.38
601.69	2571.79
602.04	2562.51
602.39	2552.50
602.74	2543.56
603.08	2535.11
603.43	2525.98
603.78	2516.40
604.13	2505.71
604.48	2495.47
604.83	2486.01
605.18	2476.10
605.53	2464.74
605.87	2452.77
606.22	2442.24
606.57	2431.10
606.92	2420.65
607.27	2410.37
607.62	2400.73
607.96	2390.64
608.31	2381.24
608.66	2370.91
609.01	2359.71
609.36	2348.42
609.70	2336.00
610.05	2323.53
610.40	2311.40
610.75	2299.36
611.10	2287.42
611.44	2274.77
611.79	2263.85
612.14	2252.03
612.49	2238.98
612.83	2227.29
613.18	2216.28
613.53	2204.93
613.88	2192.91
614.22	2180.71
614.57	2168.31
614.92	2156.56
615.27	2145.00
615.61	2133.35
615.96	2121.41
616.31	2110.81
616.65	2100.84
617.00	2090.98
617.35	2080.52
617.70	2069.21
618.04	2057.46
618.39	2046.32
618.74	2035.93
619.08	2024.17
619.43	2013.31
619.78	2003.23
620.12	1992.82
620.47	1981.82
620.82	1970.20
621.16	1959.76
621.51	1948.99
621.85	1938.02
622.20	1926.58
622.55	1915.28
622.89	1904.59
623.24	1894.27
623.59	1884.20
623.93	1873.53
624.28	1862.85
624.62	1851.43
624.97	1841.61
625.32	1831.77
625.66	1821.46
626.01	1811.27
626.35	1800.68
626.70	1790.00
627.04	1779.82
627.39	1769.31
627.73	1758.82
628.08	1749.19
628.43	1738.57
628.77	1728.25
629.12	1717.57
629.46	1706.73
629.81	1695.46
630.15	1684.27
630.50	1673.44
630.84	1661.62
631.19	1650.04
631.53	1638.74
631.88	1627.81
632.22	1616.38
632.57	1605.64
632.91	1594.95
633.26	1583.66
633.60	1572.74
633.95	1561.96
634.29	1551.13
634.64	1541.20
634.98	1530.48
635.32	1520.34
635.67	1511.04
636.01	1500.61
636.36	1491.18
636.70	1481.69
637.05	1472.38
637.39	1463.50
637.73	1453.90
638.08	1445.25
638.42	1436.36
638.77	1427.20
639.11	1418.26
639.45	1409.29
639.80	1399.66
640.14	1390.27
640.49	1381.53
640.83	1372.13
641.17	1363.02
641.52	1353.69
641.86	1344.01
642.20	1335.72
642.55	1326.24
642.89	1317.20
643.23	1307.89
643.58	1299.38
643.92	1290.29
644.26	1281.13
644.61	1272.27
644.95	1263.55
645.29	1253.73
645.64	1244.42
645.98	1235.44
646.32	1226.90
646.66	1217.70
647.01	1208.94
647.35	1200.47
647.69	1191.74
648.04	1184.04
648.38	1175.48
648.72	1166.94
649.06	1158.10
649.41	1149.24
649.75	1140.15
650.09	1131.07
650.43	1122.99
650.78	1113.47
651.12	1104.74
651.46	1096.63
651.80	1087.98
652.14	1079.90
652.49	1071.72
652.83	1063.66
653.17	1055.24
653.51	1046.75
653.85	1038.70
654.20	1030.46
654.54	1021.91
654.88	1013.50
655.22	1004.70
655.56	996.44
655.90	988.43
656.25	980.75
656.59	972.89
656.93	965.62
657.27	958.12
657.61	949.97
657.95	942.92
658.29	935.70
658.64	928.02
658.98	919.98
659.32	911.64
659.66	904.25
660.00	896.81
660.34	889.79
660.68	882.80
661.02	875.59
661.36	868.67
661.70	861.86
662.05	855.55
662.39	849.13
662.73	842.75
663.07	836.36
663.41	829.93
663.75	823.50
664.09	816.91
664.43	810.34
664.77	804.32
665.11	798.08
665.45	791.89
665.79	786.03
666.13	780.32
666.47	774.44
666.81	768.48
667.15	762.42
667.49	756.60
667.83	750.72
668.17	744.98
668.51	739.25
668.85	733.52
669.19	727.62
669.53	721.98
669.87	716.19
670.21	710.89
670.55	705.59
670.89	700.53
671.23	695.62
671.57	690.70
671.91	685.83
672.25	680.73
672.58	675.74
672.92	670.75
673.26	666.07
673.60	661.66
673.94	657.16
674.28	652.71
674.62	648.31
674.96	644.01
675.30	639.85
675.64	635.57
675.97	631.30
676.31	627.06
676.65	622.85
676.99	618.77
677.33	614.20
677.67	609.94
678.01	605.36
678.34	601.12
678.68	597.02
679.02	592.78
679.36	588.54
679.70	584.67
680.04	580.79
680.37	576.78
680.71	572.87
681.05	569.21
681.39	565.42
681.73	561.75
682.06	558.26
682.40	554.62
682.74	550.96
683.08	547.59
683.42	544.00
683.75	540.65
684.09	536.99
684.43	533.60
684.77	530.07
685.10	526.96
685.44	523.49
685.78	520.18
686.12	516.97
686.45	513.90
686.79	510.61
687.13	507.48
687.46	504.26
687.80	500.80
688.14	497.32
688.48	494.26
688.81	490.94
689.15	487.78
689.49	484.67
689.82	481.63
690.16	478.48
690.50	475.62
690.83	472.59
691.17	469.74
691.51	466.88
691.84	464.29
692.18	461.54
692.52	458.80
692.85	455.81
693.19	453.00
693.52	450.23
693.86	447.57
694.20	445.06
694.53	442.38
694.87	439.92
695.21	437.54
695.54	434.84
695.88	432.22
696.21	429.57
696.55	427.03
696.88	424.60
697.22	422.13
697.56	419.84
697.89	417.37
698.23	415.20
698.56	412.87
698.90	410.60
699.23	408.08
699.57	405.90
699.90	403.73
700.24	401.63
700.58	399.47
700.91	397.43
701.25	395.20
701.58	393.20
701.92	391.18
702.25	389.07
702.59	387.27
702.92	385.52
703.26	383.61
703.59	381.74
703.93	379.99
704.26	378.32
704.60	376.53
704.93	374.81
705.26	372.85
705.60	371.22
705.93	369.70
706.27	368.20
706.60	366.51
706.94	364.93
707.27	363.23
707.61	361.61
707.94	359.91
708.27	358.12
708.61	356.46
708.94	354.98
709.28	353.50
709.61	351.93
709.94	350.57
710.28	349.05
710.61	347.50
710.95	345.85
711.28	344.32
711.61	342.85
711.95	341.41
712.28	339.88
712.61	338.45
712.95	336.88
713.28	335.65
713.61	334.33
713.95	333.01
714.28	331.76
714.61	330.52
714.95	329.28
715.28	328.09
715.61	326.82
715.95	325.59
716.28	324.34
716.61	323.14
716.95	321.77
717.28	320.70
717.61	319.72
717.94	318.66
718.28	317.40
718.61	316.33
718.94	315.28
719.27	314.44
719.61	313.45
719.94	312.37
720.27	311.15
720.60	310.16
720.94	309.13
721.27	308.26
721.60	307.36
721.93	306.39
722.27	305.62
722.60	304.82
722.93	303.92
723.26	303.11
723.59	302.18
723.93	301.31
724.26	300.42
724.59	299.42
724.92	298.67
725.25	297.98
725.59	297.10
725.92	296.40
726.25	295.56
726.58	294.69
726.91	294.00
727.24	293.38
727.57	292.51
727.91	291.85
728.24	291.10
728.57	290.17
728.90	289.40
729.23	288.70
729.56	288.18
729.89	287.45
730.22	286.67
730.55	286.13
730.89	285.59
731.22	284.98
731.55	284.34
731.88	283.61
732.21	283.02
732.54	282.44
732.87	281.87
733.20	281.26
733.53	280.70
733.86	280.18
734.19	279.37
734.52	278.90
734.85	278.45
735.18	277.76
735.51	277.37
735.84	276.95
736.17	276.29
736.50	275.45
736.83	275.18
737.16	274.66
737.49	274.19
737.82	273.64
738.15	273.20
738.48	272.81
738.81	272.28
739.14	271.85
739.47	271.44
739.80	270.99
740.13	270.60
740.46	270.12
740.79	269.67
741.12	269.30
741.45	268.87
741.78	268.33
742.11	267.92
742.44	267.45
742.77	267.08
743.10	266.64
743.43	266.32
743.75	265.66
744.08	265.58
744.41	265.20
744.74	264.77
745.07	264.35
745.40	263.90
745.73	263.65
746.06	263.15
746.39	262.65
746.71	262.14
747.04	261.69
747.37	261.35
747.70	260.89
748.03	260.61
748.36	260.14
748.68	259.67
749.01	259.24
749.34	258.97
749.67	258.51
750.00	258.17
750.33	257.96
750.65	257.60
750.98	256.96
751.31	256.46
751.64	256.06
751.97	255.71
752.29	255.41
752.62	254.97
752.95	254.64
753.28	254.31
753.60	253.94
753.93	253.65
754.26	253.27
754.59	252.91
754.91	252.39
755.24	252.17
755.57	251.95
755.90	251.80
756.22	251.31
756.55	251.05
756.88	250.69
757.20	250.28
757.53	250.07
757.86	249.90
758.19	249.66
758.51	249.40
758.84	249.07
759.17	248.86
759.49	248.55
759.82	248.40
760.15	248.11
760.47	247.94
760.80	247.61
761.13	247.38
761.45	247.17
761.78	247.02
762.11	246.71
762.43	246.46
762.76	246.06
763.08	245.95
763.41	245.69
763.74	245.54
764.06	245.31
764.39	245.02
764.71	244.80
765.04	244.62
765.37	244.45
765.69	244.30
766.02	244.15
766.34	244.03
766.67	243.72
767.00	243.56
767.32	243.50
767.65	243.42
767.97	243.30
768.30	243.13
768.62	242.97
768.95	242.85
769.27	242.69
769.60	242.64
769.92	242.51
770.25	242.27
770.57	242.15
770.90	242.00
771.22	241.86
771.55	241.63
771.87	241.46
772.20	241.32
772.52	241.41
772.85	241.44
773.17	241.41
773.50	241.32
773.82	241.24
774.15	241.05
774.47	240.89
774.80	240.71
775.12	240.60
775.45	240.51
775.77	240.40
776.09	240.31
776.42	240.26
776.74	240.20
777.07	240.26
777.39	240.17
777.72	240.08
778.04	239.93
778.36	239.91
778.69	239.74
779.01	239.62
779.33	239.36
779.66	239.02
779.98	238.84
780.31	238.74
780.63	238.84
780.95	238.77
781.28	238.75
781.60	238.72
781.92	238.62
782.25	238.50
782.57	238.49
782.89	238.45
783.22	238.43
783.54	238.32
783.86	238.18
784.19	238.03
784.51	238.05
784.83	237.92
785.16	237.80
785.48	237.84
785.80	237.73
786.12	237.62
786.45	237.62
786.77	237.67
787.09	237.61
787.42	237.47
787.74	237.30
788.06	237.22
788.38	237.16
788.71	237.15
789.03	237.09
789.35	237.00
789.67	236.82
789.99	236.69
790.32	236.53
790.64	236.42
790.96	236.55
791.28	236.39
791.61	236.34
791.93	236.23
792.25	236.16
792.57	236.27
792.89	236.18
793.21	235.95
793.54	235.58
793.86	235.48
794.18	235.29
794.50	235.15
794.82	234.90
795.14	234.81
795.47	234.60
795.79	234.52
796.11	234.29
796.43	234.19
796.75	234.02
797.07	233.90
797.39	233.72
797.71	233.34
798.04	233.24
798.36	233.20
798.68	233.12
799.00	233.10
799.32	232.97
799.64	232.79
799.96	232.77
800.28	232.77
800.60	232.61
800.92	232.58
801.24	232.55
801.56	232.60
801.89	232.54
802.21	232.50
802.53	232.46
802.85	232.49
803.17	232.51
803.49	232.52
803.81	232.48
804.13	232.58
804.45	232.55
804.77	232.52
805.09	232.45
805.41	232.34
805.73	232.18
806.05	231.98
806.37	232.05
806.69	232.07
807.01	232.20
807.33	232.20
807.65	232.03
807.97	232.16
808.28	232.18
808.60	232.07
808.92	232.11
809.24	232.06
809.56	232.00
809.88	231.93
810.20	231.83
810.52	231.85
810.84	231.75
811.16	231.80
811.48	231.75
811.80	231.82
812.12	231.92
812.43	231.98
812.75	232.04
813.07	232.02
813.39	232.06
813.71	232.01
814.03	231.98
814.35	232.12
814.67	231.94
814.98	231.78
815.30	231.86
815.62	231.86
815.94	231.92
816.26	232.00
816.58	232.04
816.89	232.13
817.21	232.20
817.53	232.16
817.85	232.32
818.17	232.38
818.48	232.31
818.80	232.36
819.12	232.42
819.44	232.40
819.76	232.32
820.07	232.28
820.39	232.27
820.71	232.36
821.03	232.29
821.34	232.41
821.66	232.54
821.98	232.53
822.30	232.48
822.61	232.51
822.93	232.51
823.25	232.47
823.57	232.41
823.88	232.42
824.20	232.52
824.52	232.43
824.83	232.49
825.15	232.47
825.47	232.29
825.79	232.22
826.10	232.25
826.42	232.34
826.74	232.34
827.05	232.28
827.37	232.25
827.69	232.30
828.00	232.20
828.32	232.16
828.64	232.11
828.95	232.27
829.27	232.17
829.58	232.11
829.90	232.13
830.22	232.12
830.53	232.00
830.85	231.91
831.17	231.79
831.48	231.66
831.80	231.68
832.11	231.72
832.43	231.56
832.75	231.38
833.06	231.45
833.38	231.40
833.69	231.34
834.01	231.38
834.32	231.27
834.64	231.20
834.96	231.10
835.27	231.05
835.59	230.92
835.90	230.89
836.22	230.77
836.53	230.63
836.85	230.54
837.16	230.63
837.48	230.54
837.79	230.60
838.11	230.63
838.42	230.51
838.74	230.47
839.05	230.45
839.37	230.50
839.68	230.35
840.00	230.21
840.31	230.13
840.63	229.97
840.94	229.89
841.26	229.76
841.57	229.66
841.88	229.63
842.20	229.44
842.51	229.35
842.83	229.25
843.14	229.41
843.46	229.48
843.77	229.42
844.08	229.44
844.40	229.33
844.71	229.17
845.03	229.13
845.34	229.05
845.65	229.05
845.97	229.05
846.28	229.00
846.60	229.04
846.91	229.10
847.22	229.15
847.54	229.20
847.85	229.31
848.16	229.29
848.48	229.29
848.79	229.31
849.10	229.33
849.42	229.47
849.73	229.33
850.04	229.27
850.36	229.12
850.67	229.11
850.98	229.13
851.30	229.26
851.61	229.25
851.92	229.28
852.23	229.28
852.55	229.35
852.86	229.26
853.17	229.28
853.49	229.28
853.80	229.23
854.11	229.24
854.42	229.23
854.74	229.38
855.05	229.45
855.36	229.46
855.67	229.53
855.99	229.57
856.30	229.84
856.61	229.79
856.92	229.84
857.23	229.83
857.55	229.77
857.86	229.76
858.17	229.73
858.48	229.76
858.79	229.80
859.11	229.70
859.42	229.88
859.73	229.95
860.04	230.07
860.35	230.05
860.66	230.06
860.98	230.18
861.29	230.19
861.60	230.11
861.91	230.11
862.22	229.98
862.53	229.99
862.84	229.69
863.16	229.78
863.47	229.81
863.78	229.89
864.09	229.98
864.40	229.99
864.71	230.11
865.02	230.17
865.33	230.21
865.64	230.30
865.95	230.21
866.27	230.28
866.58	230.17
866.89	230.28
867.20	230.30
867.51	230.19
867.82	230.17
868.13	230.17
868.44	230.14
868.75	230.27
869.06	230.21
869.37	230.28
869.68	230.23
869.99	230.21
870.30	230.20
870.61	230.14
870.92	230.11
871.23	230.09
871.54	230.11
871.85	230.07
872.16	229.99
872.47	229.96
872.78	229.69
873.09	229.61
873.40	229.51
873.71	229.40
874.02	229.37
874.33	229.28
874.64	229.27
874.95	229.32
875.26	229.19
875.56	229.17
875.87	229.02
876.18	228.91
876.49	229.02
876.80	228.94
877.11	228.74
877.42	228.72
877.73	228.61
878.04	228.50
878.35	228.50
878.66	228.42
878.96	228.40
879.27	228.46
879.58	228.46
879.89	228.48
880.20	228.51
880.51	228.46
880.82	228.37
881.12	228.33
881.43	228.22
881.74	228.26
882.05	228.33
882.36	228.32
882.67	228.37
882.97	228.14
883.28	227.97
883.59	228.14
883.90	228.09
884.21	228.11
884.51	228.11
884.82	227.93
885.13	227.93
885.44	227.90
885.74	227.90
886.05	227.86
886.36	227.81
886.67	227.73
886.98	227.83
887.28	227.89
887.59	227.87
887.90	227.91
888.20	227.84
888.51	227.76
888.82	227.73
889.13	227.72
889.43	227.96
889.74	228.11
890.05	228.01
890.35	228.05
890.66	227.95
890.97	227.90
891.28	228.05
891.58	228.04
891.89	228.05
892.20	228.01
892.50	228.09
892.81	228.14
893.12	228.14
893.42	228.06
893.73	228.04
894.04	228.07
894.34	228.11
894.65	228.10
894.95	228.07
895.26	228.13
895.57	228.30
895.87	228.05
896.18	228.11
896.48	228.28
896.79	228.26
897.10	228.46
897.40	228.57
897.71	228.55
898.01	228.68
898.32	228.73
898.63	228.77
898.93	228.82
899.24	228.82
899.54	228.89
899.85	228.96
900.15	229.03
900.46	229.10
900.76	229.23
901.07	229.30
901.38	229.38
901.68	229.44
901.99	229.36
902.29	229.39
902.60	229.37
902.90	229.32
903.21	229.35
903.51	229.37
903.82	229.39
904.12	229.35
904.43	229.37
904.73	229.42
905.03	229.48
905.34	229.63
905.64	229.63
905.95	229.70
906.25	229.62
906.56	229.51
906.86	229.34
907.17	229.21
907.47	229.29
907.77	229.15
908.08	229.16
908.38	229.19
908.69	229.11
908.99	229.09
909.30	229.08
909.60	229.06
909.90	228.96
910.21	228.83
910.51	228.87
910.81	228.85
911.12	228.83
911.42	228.80
911.73	228.56
912.03	228.59
912.33	228.53
912.64	228.60
912.94	228.66
913.24	228.71
913.55	228.69
913.85	228.54
914.15	228.63
914.46	228.58
914.76	228.44
915.06	228.56
915.37	228.62
915.67	228.53
915.97	228.52
916.27	228.58
916.58	228.61
916.88	228.44
917.18	228.35
917.49	228.32
917.79	228.24
918.09	228.20
918.39	228.14
918.70	228.10
919.00	227.96
919.30	227.90
919.60	227.88
919.91	227.78
920.21	227.81
920.51	227.70
920.81	227.63
921.12	227.64
921.42	227.55
921.72	227.33
922.02	227.27
922.32	227.25
922.63	227.10
922.93	227.22
923.23	227.27
923.53	227.29
923.83	227.20
924.13	227.25
924.44	227.25
924.74	227.32
925.04	227.34
925.34	227.40
925.64	227.49
925.94	227.45
926.24	227.64
926.55	227.62
926.85	227.69
927.15	227.73
927.45	227.66
927.75	227.65
928.05	227.81
928.35	227.88
928.65	227.93
928.95	227.92
929.26	227.76
929.56	227.76
929.86	227.79
930.16	227.80
930.46	227.80
930.76	227.81
931.06	227.63
931.36	227.70
931.66	227.76
931.96	227.84
932.26	227.90
932.56	227.83
932.86	227.85
933.16	227.87
933.46	227.93
933.76	227.95
934.06	228.09
934.36	228.12
934.66	228.16
934.96	228.17
935.26	228.30
935.56	228.43
935.86	228.46
936.16	228.55
936.46	228.50
936.76	228.60
937.06	228.65
937.36	228.78
937.66	228.70
937.96	228.69
938.26	228.64
938.56	228.74
938.86	228.90
939.16	229.01
939.46	229.08
939.76	229.08
940.06	229.16
940.35	229.09
940.65	229.13
940.95	229.16
941.25	229.10
941.55	229.10
941.85	229.07
942.15	229.13
942.45	229.16
942.75	229.27
943.04	229.20
943.34	229.22
943.64	229.22
943.94	229.21
944.24	229.30
944.54	229.27
944.84	229.17
945.13	229.06
945.43	229.04
945.73	229.05
946.03	229.00
946.33	229.03
946.62	229.13
946.92	229.06
947.22	229.05
947.52	229.10
947.82	229.16
948.11	229.11
948.41	229.10
948.71	229.02
949.01	228.96
949.31	229.03
949.60	229.04
949.90	229.05
950.20	229.11
950.50	228.96
950.79	229.03
951.09	229.03
951.39	228.92
951.69	228.88
951.98	228.87
952.28	228.89
952.58	228.80
952.87	228.63
953.17	228.56
953.47	228.45
953.76	228.39
954.06	228.25
954.36	228.25
954.66	228.26
954.95	228.19
955.25	228.22
955.55	228.13
955.84	228.00
956.14	228.00
956.44	227.90
956.73	227.97
957.03	227.83
957.32	227.76
957.62	227.75
957.92	227.69
958.21	227.64
958.51	227.88
958.81	227.87
959.10	227.92
959.40	228.00
959.69	228.05
959.99	228.11
960.29	228.17
960.58	228.10
960.88	228.16
961.17	228.17
961.47	228.10
961.76	228.02
962.06	228.09
962.36	227.96
962.65	227.94
962.95	227.90
963.24	227.94
963.54	227.97
963.83	227.93
964.13	227.97
964.42	228.05
964.72	227.86
965.01	227.80
965.31	227.87
965.60	227.86
965.90	227.93
966.19	227.81
966.49	227.80
966.78	227.75
967.08	227.78
967.37	227.78
967.67	227.71
967.96	227.81
968.26	227.88
968.55	228.05
968.85	228.12
969.14	228.17
969.43	228.21
969.73	228.22
970.02	228.33
970.32	228.35
970.61	228.19
970.91	228.04
971.20	228.12
971.49	228.08
971.79	228.21
972.08	228.19
972.38	228.40
972.67	228.35
972.96	228.42
973.26	228.38
973.55	228.42
973.85	228.51
974.14	228.51
974.43	228.60
974.73	228.58
975.02	228.61
975.31	228.63
975.61	228.56
975.90	228.63
976.19	228.60
976.49	228.67
976.78	228.75
977.07	228.82
977.37	228.88
977.66	228.98
977.95	228.87
978.24	228.86
978.54	228.82
978.83	228.88
979.12	228.92
979.42	228.91
979.71	228.91
980.00	228.91
980.29	228.97
980.59	228.93
980.88	228.93
981.17	228.93
981.46	228.90
981.76	228.98
982.05	229.05
982.34	229.04
982.63	229.04
982.93	229.07
983.22	229.14
983.51	229.18
983.80	229.18
984.09	229.22
984.39	229.22
984.68	229.19
984.97	229.21
985.26	229.18
985.55	229.11
985.85	229.15
986.14	229.19
986.43	229.09
986.72	228.97
987.01	228.98
987.30	229.07
987.59	228.98
987.89	228.97
988.18	228.82
988.47	228.87
988.76	228.79
989.05	228.68
989.34	228.66
989.63	228.63
989.92	228.55
990.22	228.48
990.51	228.53
990.80	228.45
991.09	228.42
991.38	228.35
991.67	228.50
991.96	228.40
992.25	228.39
992.54	228.36
992.83	228.38
993.12	228.23
993.41	228.05
993.70	228.14
993.99	228.23
994.28	228.26
994.58	228.20
994.87	228.17
995.16	228.17
995.45	228.10
995.74	227.96
996.03	227.93
996.32	227.94
996.61	227.88
996.90	227.83
997.19	227.70
997.48	227.82
997.77	227.66
998.06	227.57
998.34	227.60
998.63	227.60
998.92	227.55
999.21	227.53
999.50	227.64
999.79	227.53
1000.08	227.46
1000.37	227.48
1000.66	227.43
1000.95	227.43
1001.24	227.45
1001.53	227.43
1001.82	227.49
1002.11	227.49
1002.40	227.51
1002.68	227.53
1002.97	227.75
1003.26	227.88
1003.55	227.86
1003.84	227.89
1004.13	228.10
1004.42	228.00
1004.71	228.04
1004.99	228.12
1005.28	228.28
1005.57	228.29
1005.86	228.36
1006.15	228.27
1006.44	228.19
1006.72	228.31
1007.01	228.35
1007.30	228.39
1007.59	228.47
1007.88	228.55
1008.17	228.53
1008.45	228.54
1008.74	228.48
1009.03	228.45
1009.32	228.46
1009.60	228.38
1009.89	228.40
1010.18	228.32
1010.47	228.46
1010.76	228.55
1011.04	228.60
1011.33	228.70
1011.62	228.69
1011.91	228.75
1012.19	228.87
1012.48	228.99
1012.77	229.00
1013.05	229.10
1013.34	229.11
1013.63	229.13
1013.92	229.19
1014.20	229.24
1014.49	229.27
1014.78	229.41
1015.06	229.24
1015.35	229.28
1015.64	229.38
1015.92	229.48
1016.21	229.45
1016.50	229.40
1016.78	229.45
1017.07	229.46
1017.36	229.32
1017.64	229.37
1017.93	229.35
1018.22	229.32
1018.50	229.31
1018.79	229.28
1019.08	229.29
1019.36	229.30
1019.65	229.30
1019.93	229.31
1020.22	229.34
1020.51	229.43
1020.79	229.37
1021.08	229.00
1021.36	228.40
1021.65	228.90
1021.94	230.50
1022.22	228.80
1022.51	229.50
1022.79	230.80
1023.08	229.30
1023.36	231.50
1023.65	229.00
>>>>>End Processed Spectral Data<<<<<
