SpectraSuite Data File
++++++++++++++++++++++++++++++++++++
Date: Fri Feb 01 14:35:48 EST 2013
User: group
Dark Spectrum Present: No
Reference Spectrum Present: No
Number of Sampled Component Spectra: 1
Spectrometers: USB2E7196
Integration Time (usec): 70000 (USB2E7196)
Spectra Averaged: 10 (USB2E7196)
Boxcar Smoothing: 10 (USB2E7196)
Correct for Electrical Dark: No (USB2E7196)
Strobe/Lamp Enabled: No (USB2E7196)
Correct for Detector Non-linearity: No (USB2E7196)
Correct for Stray Light: No (USB2E7196)
Number of Pixels in Processed Spectrum: 2048
>>>>>Begin Processed Spectral Data<<<<<
339.09	0.00
339.48	215.10
339.86	215.60
340.24	219.40
340.63	218.30
341.01	223.20
341.39	222.30
341.78	225.70
342.16	226.30
342.54	225.90
342.93	214.34
343.31	225.19
343.69	225.82
344.07	226.28
344.46	226.70
344.84	227.18
345.22	227.44
345.60	227.68
345.99	227.82
346.37	227.91
346.75	228.06
347.13	228.25
347.52	228.40
347.90	228.47
348.28	228.42
348.66	228.40
349.05	228.34
349.43	228.46
349.81	228.45
350.19	228.38
350.57	228.38
350.96	228.48
351.34	228.49
351.72	228.46
352.10	228.60
352.48	228.62
352.87	228.65
353.25	228.71
353.63	228.81
354.01	228.92
354.39	229.01
354.77	229.10
355.15	229.16
355.54	229.19
355.92	229.13
356.30	229.25
356.68	229.50
357.06	229.54
357.44	229.59
357.82	229.71
358.20	229.92
358.58	230.11
358.97	230.19
359.35	230.31
359.73	230.44
360.11	230.54
360.49	230.61
360.87	230.70
361.25	230.72
361.63	230.86
362.01	230.90
362.39	230.91
362.77	230.84
363.15	230.80
363.53	230.85
363.91	230.84
364.29	230.91
364.67	230.70
365.05	230.73
365.43	230.80
365.81	230.88
366.19	230.95
366.57	230.88
366.95	230.88
367.33	230.86
367.71	230.78
368.09	230.77
368.47	230.69
368.85	230.69
369.23	230.73
369.61	230.61
369.99	230.55
370.37	230.57
370.75	230.73
371.13	230.70
371.51	230.62
371.89	230.66
372.27	230.54
372.65	230.50
373.03	230.37
373.41	230.19
373.78	230.04
374.16	229.83
374.54	229.74
374.92	229.64
375.30	229.54
375.68	229.61
376.06	229.50
376.44	229.47
376.82	229.39
377.19	229.27
377.57	229.20
377.95	229.13
378.33	228.99
378.71	228.67
379.09	228.55
379.47	228.40
379.84	228.30
380.22	228.24
380.60	228.19
380.98	228.18
381.36	228.06
381.73	227.98
382.11	227.98
382.49	227.96
382.87	227.79
383.25	227.71
383.62	227.74
384.00	227.73
384.38	227.70
384.76	227.67
385.13	227.71
385.51	227.55
385.89	227.42
386.27	227.34
386.64	227.40
387.02	227.41
387.40	227.40
387.78	227.36
388.15	227.33
388.53	227.28
388.91	227.16
389.29	227.23
389.66	227.21
390.04	227.13
390.42	227.12
390.79	227.07
391.17	227.15
391.55	226.94
391.92	226.92
392.30	226.95
392.68	226.90
393.05	226.88
393.43	227.00
393.81	227.00
394.18	227.00
394.56	227.04
394.94	227.10
395.31	227.16
395.69	227.37
396.06	227.42
396.44	227.49
396.82	227.67
397.19	227.89
397.57	227.98
397.95	228.09
398.32	228.13
398.70	228.36
399.07	228.43
399.45	228.53
399.82	228.72
400.20	228.87
400.58	228.96
400.95	229.03
401.33	229.26
401.70	229.55
402.08	229.82
402.45	229.99
402.83	230.20
403.20	230.32
403.58	230.37
403.95	230.62
404.33	230.80
404.71	231.02
405.08	231.25
405.46	231.51
405.83	231.78
406.21	232.10
406.58	232.29
406.96	232.60
407.33	233.04
407.70	233.40
408.08	233.91
408.45	234.35
408.83	234.87
409.20	235.34
409.58	235.78
409.95	236.24
410.33	236.71
410.70	237.22
411.08	237.93
411.45	238.61
411.82	239.35
412.20	240.16
412.57	241.05
412.95	241.72
413.32	242.62
413.69	243.51
414.07	244.46
414.44	245.63
414.82	246.70
415.19	247.92
415.56	248.98
415.94	250.21
416.31	251.76
416.68	253.19
417.06	254.72
417.43	256.23
417.81	258.13
418.18	260.00
418.55	262.04
418.93	264.18
419.30	266.34
419.67	268.45
420.04	270.70
420.42	273.08
420.79	275.90
421.16	278.75
421.54	281.81
421.91	284.85
422.28	288.04
422.66	291.50
423.03	294.69
423.40	298.08
423.77	301.65
424.15	305.20
424.52	309.08
424.89	313.35
425.26	317.45
425.64	321.16
426.01	325.40
426.38	329.75
426.75	334.20
427.13	338.76
427.50	343.62
427.87	348.70
428.24	353.82
428.61	358.46
428.99	363.57
429.36	369.21
429.73	374.74
430.10	380.23
430.47	385.94
430.85	391.74
431.22	398.06
431.59	404.72
431.96	411.03
432.33	418.08
432.70	424.58
433.08	432.40
433.45	439.80
433.82	447.14
434.19	455.49
434.56	463.41
434.93	471.00
435.30	478.52
435.68	486.88
436.05	495.03
436.42	503.27
436.79	510.91
437.16	519.04
437.53	527.61
437.90	536.15
438.27	544.33
438.64	553.00
439.01	561.04
439.38	568.21
439.75	575.14
440.13	582.72
440.50	590.38
440.87	596.75
441.24	603.37
441.61	610.50
441.98	615.68
442.35	621.92
442.72	628.48
443.09	634.84
443.46	638.88
443.83	641.70
444.20	644.46
444.57	648.03
444.94	650.11
445.31	652.19
445.68	654.20
446.05	655.77
446.42	655.88
446.79	655.74
447.16	655.59
447.53	655.86
447.90	653.80
448.27	651.64
448.64	648.14
449.01	645.89
449.37	641.28
449.74	636.63
450.11	631.10
450.48	624.89
450.85	618.49
451.22	613.15
451.59	608.28
451.96	603.62
452.33	596.70
452.70	590.44
453.07	582.97
453.43	575.33
453.80	567.81
454.17	560.60
454.54	553.84
454.91	546.41
455.28	539.14
455.65	532.40
456.02	525.42
456.38	519.53
456.75	512.15
457.12	505.87
457.49	499.76
457.86	493.66
458.23	488.60
458.59	482.98
458.96	477.10
459.33	471.86
459.70	466.55
460.07	462.49
460.43	457.72
460.80	453.14
461.17	449.18
461.54	444.98
461.91	441.01
462.27	436.99
462.64	433.34
463.01	429.42
463.38	425.62
463.74	421.94
464.11	418.54
464.48	415.49
464.85	412.29
465.21	409.87
465.58	407.30
465.95	403.91
466.32	401.26
466.68	398.65
467.05	395.99
467.42	393.30
467.78	390.36
468.15	387.64
468.52	385.78
468.88	383.12
469.25	380.77
469.62	378.86
469.98	376.75
470.35	374.82
470.72	372.94
471.08	371.03
471.45	369.30
471.82	367.60
472.18	365.86
472.55	364.51
472.92	362.97
473.28	361.55
473.65	360.26
474.02	358.75
474.38	357.60
474.75	356.62
475.11	355.51
475.48	354.75
475.85	354.00
476.21	353.06
476.58	352.36
476.94	351.74
477.31	350.98
477.67	350.31
478.04	349.81
478.41	349.49
478.77	349.17
479.14	348.74
479.50	348.48
479.87	348.30
480.23	348.19
480.60	347.86
480.96	347.54
481.33	347.60
481.69	347.67
482.06	347.57
482.42	347.42
482.79	347.41
483.15	347.57
483.52	347.90
483.88	348.10
484.25	348.39
484.61	348.62
484.98	349.17
485.34	349.65
485.71	350.19
486.07	350.75
486.44	351.36
486.80	351.98
487.17	352.57
487.53	353.40
487.90	354.31
488.26	355.49
488.62	356.66
488.99	357.64
489.35	358.69
489.72	359.88
490.08	361.22
490.44	362.36
490.81	363.61
491.17	364.87
491.54	366.47
491.90	367.89
492.26	369.50
492.63	371.00
492.99	372.74
493.36	374.43
493.72	376.30
494.08	377.94
494.45	379.80
494.81	381.84
495.17	383.71
495.54	385.60
495.90	387.36
496.26	389.40
496.63	391.39
496.99	393.45
497.35	395.67
497.72	397.83
498.08	399.92
498.44	402.26
498.80	404.65
499.17	406.75
499.53	409.14
499.89	411.50
500.26	413.84
500.62	415.86
500.98	418.17
501.34	420.39
501.71	422.80
502.07	425.12
502.43	427.27
502.79	429.54
503.16	431.80
503.52	434.12
503.88	436.09
504.24	438.20
504.60	440.32
504.97	442.28
505.33	444.32
505.69	446.85
506.05	448.79
506.41	450.55
506.78	452.37
507.14	454.10
507.50	455.80
507.86	457.72
508.22	459.74
508.59	461.30
508.95	462.93
509.31	464.50
509.67	466.14
510.03	467.69
510.39	469.17
510.75	470.61
511.12	472.02
511.48	473.52
511.84	474.90
512.20	476.29
512.56	477.70
512.92	478.91
513.28	479.79
513.64	480.76
514.00	481.70
514.37	482.74
514.73	483.60
515.09	484.67
515.45	485.34
515.81	486.07
516.17	487.04
516.53	487.82
516.89	488.45
517.25	488.97
517.61	489.64
517.97	490.12
518.33	490.60
518.69	491.28
519.05	491.77
519.41	492.44
519.77	493.12
520.13	493.70
520.49	494.19
520.85	494.86
521.21	495.52
521.57	496.29
521.93	496.84
522.29	497.66
522.65	498.10
523.01	498.57
523.37	499.17
523.73	499.74
524.09	500.23
524.45	500.99
524.81	501.94
525.17	502.59
525.53	503.57
525.89	504.48
526.25	505.33
526.61	506.15
526.97	507.13
527.33	507.86
527.68	508.80
528.04	509.82
528.40	510.72
528.76	512.04
529.12	513.31
529.48	514.74
529.84	515.94
530.20	517.16
530.56	518.82
530.91	520.31
531.27	521.74
531.63	523.40
531.99	525.10
532.35	526.74
532.71	528.51
533.07	530.32
533.42	532.19
533.78	534.03
534.14	536.27
534.50	538.11
534.86	540.35
535.21	542.38
535.57	544.44
535.93	546.68
536.29	548.90
536.65	551.12
537.00	553.54
537.36	556.16
537.72	558.66
538.08	561.31
538.44	563.81
538.79	566.61
539.15	569.31
539.51	572.09
539.87	574.95
540.22	578.07
540.58	581.26
540.94	584.12
541.29	587.00
541.65	589.86
542.01	593.06
542.37	596.15
542.72	599.41
543.08	602.77
543.44	606.09
543.79	608.99
544.15	612.47
544.51	615.74
544.87	619.12
545.22	622.81
545.58	626.03
545.94	629.48
546.29	633.03
546.65	636.56
547.01	639.96
547.36	643.18
547.72	646.31
548.07	649.40
548.43	652.98
548.79	656.76
549.14	660.30
549.50	663.54
549.86	667.00
550.21	670.36
550.57	673.95
550.92	677.43
551.28	681.18
551.64	684.49
551.99	688.18
552.35	691.61
552.70	695.14
553.06	698.85
553.41	702.57
553.77	706.03
554.13	709.59
554.48	713.49
554.84	717.46
555.19	721.19
555.55	725.00
555.90	728.49
556.26	731.94
556.61	735.56
556.97	739.48
557.32	743.25
557.68	746.96
558.03	750.46
558.39	754.03
558.74	757.87
559.10	761.83
559.45	765.40
559.81	769.28
560.16	773.01
560.52	776.26
560.87	779.88
561.23	783.35
561.58	786.98
561.94	790.20
562.29	793.26
562.64	796.51
563.00	799.78
563.35	803.35
563.71	806.87
564.06	810.30
564.42	813.62
564.77	816.91
565.12	820.30
565.48	823.73
565.83	826.92
566.19	830.07
566.54	832.93
566.89	835.85
567.25	838.92
567.60	841.78
567.96	844.61
568.31	847.46
568.66	850.23
569.02	852.80
569.37	855.20
569.72	857.93
570.08	860.58
570.43	863.01
570.78	865.46
571.14	867.63
571.49	869.77
571.84	872.15
572.20	873.97
572.55	875.67
572.90	877.52
573.26	879.47
573.61	881.16
573.96	882.78
574.31	884.28
574.67	885.00
575.02	886.14
575.37	887.75
575.72	888.61
576.08	889.85
576.43	891.29
576.78	892.64
577.13	893.88
577.49	895.13
577.84	896.06
578.19	896.80
578.54	897.64
578.90	898.42
579.25	898.79
579.60	899.50
579.95	899.98
580.30	900.16
580.66	900.44
581.01	900.86
581.36	901.32
581.71	901.79
582.06	902.38
582.42	902.67
582.77	902.88
583.12	903.40
583.47	903.66
583.82	903.78
584.17	903.53
584.53	903.26
584.88	902.97
585.23	903.23
585.58	903.33
585.93	903.19
586.28	902.93
586.63	902.90
586.98	902.83
587.34	902.90
587.69	903.07
588.04	903.06
588.39	902.55
588.74	901.72
589.09	901.02
589.44	900.39
589.79	899.75
590.14	899.25
590.49	898.36
590.84	897.58
591.19	896.55
591.54	895.48
591.89	894.32
592.25	893.53
592.60	891.77
592.95	890.27
593.30	888.98
593.65	887.56
594.00	885.94
594.35	885.00
594.70	883.48
595.05	882.03
595.40	880.19
595.75	878.62
596.10	877.54
596.45	876.28
596.80	875.25
597.15	873.86
597.50	872.04
597.85	870.90
598.19	869.60
598.54	868.05
598.89	867.03
599.24	865.89
599.59	864.28
599.94	863.01
600.29	861.40
600.64	859.75
600.99	857.97
601.34	856.24
601.69	853.89
602.04	852.25
602.39	850.48
602.74	849.03
603.08	847.75
603.43	846.13
603.78	844.41
604.13	842.26
604.48	840.40
604.83	838.90
605.18	836.79
605.53	834.59
605.87	832.59
606.22	830.58
606.57	828.55
606.92	826.62
607.27	824.72
607.62	823.02
607.96	821.20
608.31	819.60
608.66	817.51
609.01	815.26
609.36	812.68
609.70	809.75
610.05	807.21
610.40	804.37
610.75	801.64
611.10	798.91
611.44	796.30
611.79	793.82
612.14	791.07
612.49	788.23
612.83	785.37
613.18	782.50
613.53	779.58
613.88	776.84
614.22	774.01
614.57	771.03
614.92	768.07
615.27	765.38
615.61	762.33
615.96	759.72
616.31	757.25
616.65	755.22
617.00	753.09
617.35	750.48
617.70	747.98
618.04	745.28
618.39	742.70
618.74	740.05
619.08	737.18
619.43	734.52
619.78	732.06
620.12	729.56
620.47	726.82
620.82	724.09
621.16	721.19
621.51	718.51
621.85	716.07
622.20	713.60
622.55	710.75
622.89	708.39
623.24	705.81
623.59	703.37
623.93	700.77
624.28	698.24
624.62	695.73
624.97	693.18
625.32	690.87
625.66	688.39
626.01	686.00
626.35	683.64
626.70	681.09
627.04	678.53
627.39	675.96
627.73	673.75
628.08	671.39
628.43	669.09
628.77	666.46
629.12	663.81
629.46	660.86
629.81	658.07
630.15	655.25
630.50	652.50
630.84	649.54
631.19	646.44
631.53	643.40
631.88	640.43
632.22	637.44
632.57	634.69
632.91	631.83
633.26	628.93
633.60	626.02
633.95	623.25
634.29	620.75
634.64	618.31
634.98	615.51
635.32	613.03
635.67	610.30
636.01	607.78
636.36	605.38
636.70	603.15
637.05	600.78
637.39	598.53
637.73	596.16
638.08	594.20
638.42	591.96
638.77	590.08
639.11	587.91
639.45	585.55
639.80	583.00
640.14	580.60
640.49	578.30
640.83	576.03
641.17	573.80
641.52	571.26
641.86	568.66
642.20	566.42
642.55	564.03
642.89	561.90
643.23	559.53
643.58	557.32
643.92	554.85
644.26	552.49
644.61	549.95
644.95	547.59
645.29	544.71
645.64	542.25
645.98	539.60
646.32	537.22
646.66	535.05
647.01	532.78
647.35	530.62
647.69	528.49
648.04	526.37
648.38	523.91
648.72	521.40
649.06	518.91
649.41	516.40
649.75	513.77
650.09	511.18
650.43	508.64
650.78	506.00
651.12	503.48
651.46	501.12
651.80	499.02
652.14	496.72
652.49	494.59
652.83	492.32
653.17	489.87
653.51	487.51
653.85	485.16
654.20	482.78
654.54	480.35
654.88	477.90
655.22	475.28
655.56	472.99
655.90	471.03
656.25	469.11
656.59	467.04
656.93	465.01
657.27	463.04
657.61	461.03
657.95	459.17
658.29	457.26
658.64	455.29
658.98	453.01
659.32	450.92
659.66	448.99
660.00	447.05
660.34	445.28
660.68	443.34
661.02	441.38
661.36	439.54
661.70	437.81
662.05	436.09
662.39	434.65
662.73	432.89
663.07	431.06
663.41	429.23
663.75	427.45
664.09	425.77
664.43	424.06
664.77	422.44
665.11	420.48
665.45	418.59
665.79	416.88
666.13	415.25
666.47	413.52
666.81	411.66
667.15	409.93
667.49	408.12
667.83	406.73
668.17	405.07
668.51	403.38
668.85	401.69
669.19	400.04
669.53	398.37
669.87	396.73
670.21	395.13
670.55	393.65
670.89	392.34
671.23	391.01
671.57	389.52
671.91	387.91
672.25	386.53
672.58	385.25
672.92	383.78
673.26	382.46
673.60	381.19
673.94	379.91
674.28	378.41
674.62	377.16
674.96	375.66
675.30	374.37
675.64	373.20
675.97	371.94
676.31	370.70
676.65	369.41
676.99	368.28
677.33	366.99
677.67	365.62
678.01	364.26
678.34	362.90
678.68	361.63
679.02	360.52
679.36	359.32
679.70	358.11
680.04	356.95
680.37	355.62
680.71	354.44
681.05	353.24
681.39	352.37
681.73	351.31
682.06	350.23
682.40	349.15
682.74	347.94
683.08	346.78
683.42	345.59
683.75	344.44
684.09	343.10
684.43	342.05
684.77	341.06
685.10	339.93
685.44	338.88
685.78	337.75
686.12	336.55
686.45	335.45
686.79	334.41
687.13	333.30
687.46	332.23
687.80	331.18
688.14	330.11
688.48	329.00
688.81	327.95
689.15	326.91
689.49	325.79
689.82	324.70
690.16	323.71
690.50	322.85
690.83	321.81
691.17	320.87
691.51	319.79
691.84	318.80
692.18	317.73
692.52	316.59
692.85	315.66
693.19	314.88
693.52	314.03
693.86	313.02
694.20	312.15
694.53	311.30
694.87	310.32
695.21	309.44
695.54	308.48
695.88	307.52
696.21	306.61
696.55	305.88
696.88	305.09
697.22	304.26
697.56	303.40
697.89	302.56
698.23	301.93
698.56	301.16
698.90	300.25
699.23	299.42
699.57	298.78
699.90	298.04
700.24	297.16
700.58	296.33
700.91	295.74
701.25	295.09
701.58	294.41
701.92	293.72
702.25	293.04
702.59	292.26
702.92	291.57
703.26	290.97
703.59	290.37
703.93	289.90
704.26	289.22
704.60	288.57
704.93	288.06
705.26	287.39
705.60	286.94
705.93	286.46
706.27	286.01
706.60	285.42
706.94	284.82
707.27	284.25
707.61	283.68
707.94	283.01
708.27	282.34
708.61	281.80
708.94	281.21
709.28	280.69
709.61	280.26
709.94	279.87
710.28	279.17
710.61	278.58
710.95	277.91
711.28	277.59
711.61	277.01
711.95	276.57
712.28	276.00
712.61	275.34
712.95	274.89
713.28	274.42
713.61	273.92
713.95	273.43
714.28	273.00
714.61	272.53
714.95	272.23
715.28	271.78
715.61	271.20
715.95	270.77
716.28	270.29
716.61	269.78
716.95	269.20
717.28	268.97
717.61	268.57
717.94	268.10
718.28	267.54
718.61	267.10
718.94	266.56
719.27	266.16
719.61	265.88
719.94	265.42
720.27	264.94
720.60	264.60
720.94	264.20
721.27	263.87
721.60	263.55
721.93	263.05
722.27	262.81
722.60	262.47
722.93	262.14
723.26	261.86
723.59	261.53
723.93	261.21
724.26	260.76
724.59	260.40
724.92	260.11
725.25	259.79
725.59	259.51
725.92	259.23
726.25	258.96
726.58	258.51
726.91	258.21
727.24	257.93
727.57	257.61
727.91	257.29
728.24	256.91
728.57	256.62
728.90	256.30
729.23	255.89
729.56	255.68
729.89	255.39
730.22	255.04
730.55	254.74
730.89	254.50
731.22	254.27
731.55	253.99
731.88	253.70
732.21	253.46
732.54	253.06
732.87	252.77
733.20	252.43
733.53	252.29
733.86	252.00
734.19	251.72
734.52	251.38
734.85	251.22
735.18	250.99
735.51	250.75
735.84	250.58
736.17	250.35
736.50	250.13
736.83	250.15
737.16	249.82
737.49	249.58
737.82	249.30
738.15	249.09
738.48	248.81
738.81	248.55
739.14	248.29
739.47	248.14
739.80	247.93
740.13	247.80
740.46	247.50
740.79	247.29
741.12	247.07
741.45	246.94
741.78	246.80
742.11	246.64
742.44	246.36
742.77	246.25
743.10	246.02
743.43	245.75
743.75	245.32
744.08	245.55
744.41	245.38
744.74	245.28
745.07	245.00
745.40	244.94
745.73	244.84
746.06	244.68
746.39	244.49
746.71	244.34
747.04	244.09
747.37	244.04
747.70	243.94
748.03	243.80
748.36	243.70
748.68	243.43
749.01	243.25
749.34	243.23
749.67	243.09
750.00	243.07
750.33	243.10
750.65	243.01
750.98	242.62
751.31	242.50
751.64	242.31
751.97	242.33
752.29	242.27
752.62	242.07
752.95	241.90
753.28	241.83
753.60	241.63
753.93	241.62
754.26	241.40
754.59	241.22
754.91	241.10
755.24	240.96
755.57	240.86
755.90	240.78
756.22	240.52
756.55	240.39
756.88	240.10
757.20	239.92
757.53	239.70
757.86	239.51
758.19	239.42
758.51	239.30
758.84	239.12
759.17	238.90
759.49	238.86
759.82	238.84
760.15	238.74
760.47	238.63
760.80	238.38
761.13	238.32
761.45	238.26
761.78	238.17
762.11	237.96
762.43	237.75
762.76	237.62
763.08	237.60
763.41	237.44
763.74	237.44
764.06	237.27
764.39	237.14
764.71	237.05
765.04	236.88
765.37	236.82
765.69	236.66
766.02	236.54
766.34	236.41
766.67	236.28
767.00	236.29
767.32	236.32
767.65	236.47
767.97	236.31
768.30	236.21
768.62	236.09
768.95	236.08
769.27	236.05
769.60	235.97
769.92	235.79
770.25	235.52
770.57	235.34
770.90	235.18
771.22	235.05
771.55	234.96
771.87	234.94
772.20	234.72
772.52	234.82
772.85	234.98
773.17	234.90
773.50	234.76
773.82	234.48
774.15	234.17
774.47	233.85
774.80	233.78
775.12	233.65
775.45	233.51
775.77	233.35
776.09	233.25
776.42	233.04
776.74	233.10
777.07	233.14
777.39	233.08
777.72	232.99
778.04	233.08
778.36	233.01
778.69	232.86
779.01	232.87
779.33	232.69
779.66	232.32
779.98	232.21
780.31	232.10
780.63	232.22
780.95	232.32
781.28	232.22
781.60	232.12
781.92	232.10
782.25	232.20
782.57	232.22
782.89	232.16
783.22	232.18
783.54	232.03
783.86	232.03
784.19	232.02
784.51	232.14
784.83	232.05
785.16	232.08
785.48	232.20
785.80	232.18
786.12	232.18
786.45	232.18
786.77	232.21
787.09	232.20
787.42	232.12
787.74	232.11
788.06	232.14
788.38	232.14
788.71	232.11
789.03	232.00
789.35	232.11
789.67	232.04
789.99	232.09
790.32	232.03
790.64	232.04
790.96	232.18
791.28	232.03
791.61	232.00
791.93	231.96
792.25	231.96
792.57	232.12
792.89	232.09
793.21	232.20
793.54	232.13
793.86	232.12
794.18	232.03
794.50	232.04
794.82	232.08
795.14	232.12
795.47	232.10
795.79	232.05
796.11	231.99
796.43	232.07
796.75	232.08
797.07	232.11
797.39	232.02
797.71	231.87
798.04	231.83
798.36	231.82
798.68	231.80
799.00	231.74
799.32	231.66
799.64	231.67
799.96	231.59
800.28	231.67
800.60	231.70
800.92	231.74
801.24	231.66
801.56	231.65
801.89	231.59
802.21	231.57
802.53	231.58
802.85	231.41
803.17	231.43
803.49	231.36
803.81	231.35
804.13	231.34
804.45	231.22
804.77	231.26
805.09	231.14
805.41	231.03
805.73	230.81
806.05	230.60
806.37	230.51
806.69	230.43
807.01	230.34
807.33	230.31
807.65	230.24
807.97	230.31
808.28	230.30
808.60	230.24
808.92	230.21
809.24	230.25
809.56	230.21
809.88	230.19
810.20	230.20
810.52	230.19
810.84	230.17
811.16	230.15
811.48	230.11
811.80	230.20
812.12	230.28
812.43	230.36
812.75	230.44
813.07	230.41
813.39	230.47
813.71	230.26
814.03	230.16
814.35	230.13
814.67	229.93
814.98	229.78
815.30	229.78
815.62	229.80
815.94	229.67
816.26	229.84
816.58	229.64
816.89	229.62
817.21	229.60
817.53	229.51
817.85	229.55
818.17	229.60
818.48	229.49
818.80	229.45
819.12	229.31
819.44	229.20
819.76	229.10
820.07	229.02
820.39	229.10
820.71	229.13
821.03	229.02
821.34	229.06
821.66	229.12
821.98	229.13
822.30	229.10
822.61	229.25
822.93	229.05
823.25	229.03
823.57	228.86
823.88	228.82
824.20	228.92
824.52	228.95
824.83	228.83
825.15	228.72
825.47	228.70
825.79	228.90
826.10	228.86
826.42	228.91
826.74	228.93
827.05	228.95
827.37	228.94
827.69	229.06
828.00	229.07
828.32	229.02
828.64	229.00
828.95	229.06
829.27	228.94
829.58	229.05
829.90	229.19
830.22	229.35
830.53	229.29
830.85	229.26
831.17	229.25
831.48	229.23
831.80	229.45
832.11	229.49
832.43	229.35
832.75	229.38
833.06	229.49
833.38	229.41
833.69	229.41
834.01	229.43
834.32	229.44
834.64	229.48
834.96	229.51
835.27	229.49
835.59	229.41
835.90	229.47
836.22	229.39
836.53	229.30
836.85	229.24
837.16	229.49
837.48	229.51
837.79	229.52
838.11	229.59
838.42	229.51
838.74	229.46
839.05	229.52
839.37	229.56
839.68	229.37
840.00	229.36
840.31	229.51
840.63	229.49
840.94	229.38
841.26	229.36
841.57	229.35
841.88	229.42
842.20	229.40
842.51	229.25
842.83	229.29
843.14	229.52
843.46	229.51
843.77	229.31
844.08	229.26
844.40	229.15
844.71	229.10
845.03	229.05
845.34	229.04
845.65	229.00
845.97	228.91
846.28	228.90
846.60	228.91
846.91	228.73
847.22	228.72
847.54	228.80
847.85	228.79
848.16	228.74
848.48	228.56
848.79	228.56
849.10	228.60
849.42	228.50
849.73	228.30
850.04	228.20
850.36	228.16
850.67	228.14
850.98	228.16
851.30	228.14
851.61	228.14
851.92	228.14
852.23	228.09
852.55	228.24
852.86	228.27
853.17	228.29
853.49	228.43
853.80	228.43
854.11	228.43
854.42	228.35
854.74	228.34
855.05	228.34
855.36	228.26
855.67	228.26
855.99	228.33
856.30	228.54
856.61	228.55
856.92	228.50
857.23	228.50
857.55	228.60
857.86	228.67
858.17	228.66
858.48	228.57
858.79	228.53
859.11	228.51
859.42	228.51
859.73	228.45
860.04	228.37
860.35	228.29
860.66	228.17
860.98	228.18
861.29	228.20
861.60	228.30
861.91	228.43
862.22	228.35
862.53	228.37
862.84	228.14
863.16	228.30
863.47	228.34
863.78	228.40
864.09	228.37
864.40	228.32
864.71	228.37
865.02	228.45
865.33	228.46
865.64	228.51
865.95	228.50
866.27	228.66
866.58	228.66
866.89	228.74
867.20	228.91
867.51	228.95
867.82	228.95
868.13	228.96
868.44	228.87
868.75	229.08
869.06	229.03
869.37	229.18
869.68	229.09
869.99	229.11
870.30	229.10
870.61	229.01
870.92	229.00
871.23	228.95
871.54	228.87
871.85	228.93
872.16	228.80
872.47	228.86
872.78	228.72
873.09	228.73
873.40	228.76
873.71	228.71
874.02	228.78
874.33	228.74
874.64	228.71
874.95	228.85
875.26	228.74
875.56	228.85
875.87	228.71
876.18	228.70
876.49	228.90
876.80	228.89
877.11	228.93
877.42	228.97
877.73	229.02
878.04	229.13
878.35	229.16
878.66	229.30
878.96	229.32
879.27	229.39
879.58	229.40
879.89	229.31
880.20	229.25
880.51	229.13
880.82	229.19
881.12	229.16
881.43	229.11
881.74	229.03
882.05	228.88
882.36	228.87
882.67	228.85
882.97	228.55
883.28	228.53
883.59	228.52
883.90	228.48
884.21	228.51
884.51	228.43
884.82	228.38
885.13	228.25
885.44	228.19
885.74	228.15
886.05	228.13
886.36	228.13
886.67	228.08
886.98	228.20
887.28	228.19
887.59	228.17
887.90	228.09
888.20	228.09
888.51	228.13
888.82	228.10
889.13	228.08
889.43	228.24
889.74	228.14
890.05	228.11
890.35	228.06
890.66	228.00
890.97	227.90
891.28	227.85
891.58	227.80
891.89	227.75
892.20	227.73
892.50	227.72
892.81	227.71
893.12	227.65
893.42	227.48
893.73	227.43
894.04	227.42
894.34	227.40
894.65	227.36
894.95	227.32
895.26	227.36
895.57	227.49
895.87	227.32
896.18	227.40
896.48	227.45
896.79	227.42
897.10	227.47
897.40	227.51
897.71	227.59
898.01	227.61
898.32	227.63
898.63	227.63
898.93	227.62
899.24	227.66
899.54	227.76
899.85	227.88
900.15	227.88
900.46	227.87
900.76	227.89
901.07	227.87
901.38	227.94
901.68	227.87
901.99	227.76
902.29	227.82
902.60	227.79
902.90	227.78
903.21	227.78
903.51	227.73
903.82	227.90
904.12	227.93
904.43	227.95
904.73	228.00
905.03	227.99
905.34	228.22
905.64	228.18
905.95	228.20
906.25	228.16
906.56	228.12
906.86	228.17
907.17	228.12
907.47	228.28
907.77	228.27
908.08	228.26
908.38	228.25
908.69	228.29
908.99	228.28
909.30	228.27
909.60	228.32
909.90	228.33
910.21	228.23
910.51	228.26
910.81	228.36
911.12	228.40
911.42	228.38
911.73	228.16
912.03	228.19
912.33	228.28
912.64	228.28
912.94	228.30
913.24	228.32
913.55	228.44
913.85	228.43
914.15	228.52
914.46	228.68
914.76	228.67
915.06	228.60
915.37	228.69
915.67	228.75
915.97	228.79
916.27	228.81
916.58	228.84
916.88	228.78
917.18	228.67
917.49	228.72
917.79	228.79
918.09	228.88
918.39	228.95
918.70	228.83
919.00	228.83
919.30	229.06
919.60	229.00
919.91	228.97
920.21	228.92
920.51	228.84
920.81	228.85
921.12	228.90
921.42	228.92
921.72	228.95
922.02	228.88
922.32	228.87
922.63	228.85
922.93	228.88
923.23	228.81
923.53	228.83
923.83	228.74
924.13	228.72
924.44	228.60
924.74	228.60
925.04	228.66
925.34	228.61
925.64	228.47
925.94	228.47
926.24	228.56
926.55	228.54
926.85	228.50
927.15	228.31
927.45	228.35
927.75	228.31
928.05	228.25
928.35	228.31
928.65	228.31
928.95	228.25
929.26	228.24
929.56	228.22
929.86	228.19
930.16	228.07
930.46	228.08
930.76	228.11
931.06	228.00
931.36	228.00
931.66	227.97
931.96	227.98
932.26	228.00
932.56	227.89
932.86	227.83
933.16	227.91
933.46	227.94
933.76	227.86
934.06	227.92
934.36	228.04
934.66	228.00
934.96	228.11
935.26	228.11
935.56	228.18
935.86	228.23
936.16	228.31
936.46	228.49
936.76	228.53
937.06	228.38
937.36	228.47
937.66	228.51
937.96	228.52
938.26	228.50
938.56	228.49
938.86	228.56
939.16	228.69
939.46	228.62
939.76	228.69
940.06	228.65
940.35	228.70
940.65	228.51
940.95	228.56
941.25	228.38
941.55	228.41
941.85	228.39
942.15	228.50
942.45	228.48
942.75	228.50
943.04	228.49
943.34	228.67
943.64	228.59
943.94	228.52
944.24	228.64
944.54	228.67
944.84	228.67
945.13	228.63
945.43	228.66
945.73	228.66
946.03	228.61
946.33	228.71
946.62	228.70
946.92	228.79
947.22	228.73
947.52	228.83
947.82	228.88
948.11	228.90
948.41	228.76
948.71	228.73
949.01	228.65
949.31	228.63
949.60	228.62
949.90	228.70
950.20	228.76
950.50	228.75
950.79	228.74
951.09	228.78
951.39	228.80
951.69	228.77
951.98	228.83
952.28	228.88
952.58	228.90
952.87	228.93
953.17	228.97
953.47	229.00
953.76	228.99
954.06	229.04
954.36	228.94
954.66	229.03
954.95	229.09
955.25	229.06
955.55	229.09
955.84	229.07
956.14	229.10
956.44	229.03
956.73	229.00
957.03	229.00
957.32	229.02
957.62	228.99
957.92	228.95
958.21	228.96
958.51	229.17
958.81	229.09
959.10	229.04
959.40	229.11
959.69	229.06
959.99	229.00
960.29	228.86
960.58	228.91
960.88	228.92
961.17	228.87
961.47	228.92
961.76	228.77
962.06	228.77
962.36	228.66
962.65	228.61
962.95	228.57
963.24	228.54
963.54	228.55
963.83	228.43
964.13	228.39
964.42	228.20
964.72	228.00
965.01	228.04
965.31	227.97
965.60	227.77
965.90	227.95
966.19	227.94
966.49	227.94
966.78	227.91
967.08	227.87
967.37	227.90
967.67	227.79
967.96	227.91
968.26	227.88
968.55	227.99
968.85	227.96
969.14	227.90
969.43	227.93
969.73	227.81
970.02	227.84
970.32	227.80
970.61	227.84
970.91	227.74
971.20	227.65
971.49	227.71
971.79	227.69
972.08	227.46
972.38	227.51
972.67	227.50
972.96	227.47
973.26	227.45
973.55	227.51
973.85	227.50
974.14	227.42
974.43	227.39
974.73	227.24
975.02	227.25
975.31	227.31
975.61	227.21
975.90	227.34
976.19	227.41
976.49	227.57
976.78	227.69
977.07	227.75
977.37	227.81
977.66	227.79
977.95	227.84
978.24	227.90
978.54	227.90
978.83	227.86
979.12	227.89
979.42	227.87
979.71	227.85
980.00	227.94
980.29	227.99
980.59	228.10
980.88	228.30
981.17	228.28
981.46	228.36
981.76	228.39
982.05	228.38
982.34	228.38
982.63	228.30
982.93	228.26
983.22	228.35
983.51	228.41
983.80	228.41
984.09	228.52
984.39	228.48
984.68	228.49
984.97	228.63
985.26	228.62
985.55	228.71
985.85	228.65
986.14	228.70
986.43	228.67
986.72	228.68
987.01	228.52
987.30	228.59
987.59	228.49
987.89	228.56
988.18	228.60
988.47	228.67
988.76	228.77
989.05	228.78
989.34	228.78
989.63	228.74
989.92	228.82
990.22	228.78
990.51	228.82
990.80	228.76
991.09	228.69
991.38	228.72
991.67	228.66
991.96	228.74
992.25	228.71
992.54	228.76
992.83	228.62
993.12	228.67
993.41	228.70
993.70	228.84
993.99	228.83
994.28	228.78
994.58	228.78
994.87	228.68
995.16	228.71
995.45	228.68
995.74	228.60
996.03	228.52
996.32	228.56
996.61	228.66
996.90	228.78
997.19	228.80
997.48	228.80
997.77	228.86
998.06	228.72
998.34	228.70
998.63	228.73
998.92	228.79
999.21	228.89
999.50	228.91
999.79	228.79
1000.08	228.77
1000.37	228.62
1000.66	228.59
1000.95	228.60
1001.24	228.60
1001.53	228.57
1001.82	228.62
1002.11	228.66
1002.40	228.63
1002.68	228.72
1002.97	228.68
1003.26	228.68
1003.55	228.60
1003.84	228.57
1004.13	228.60
1004.42	228.52
1004.71	228.44
1004.99	228.48
1005.28	228.43
1005.57	228.40
1005.86	228.32
1006.15	228.30
1006.44	228.37
1006.72	228.34
1007.01	228.34
1007.30	228.26
1007.59	228.20
1007.88	228.10
1008.17	228.08
1008.45	228.05
1008.74	227.84
1009.03	227.75
1009.32	227.75
1009.60	227.78
1009.89	227.72
1010.18	227.70
1010.47	227.72
1010.76	227.68
1011.04	227.58
1011.33	227.54
1011.62	227.48
1011.91	227.48
1012.19	227.43
1012.48	227.49
1012.77	227.47
1013.05	227.57
1013.34	227.60
1013.63	227.62
1013.92	227.79
1014.20	227.79
1014.49	227.70
1014.78	227.68
1015.06	227.70
1015.35	227.71
1015.64	227.69
1015.92	227.79
1016.21	227.80
1016.50	227.79
1016.78	227.92
1017.07	228.05
1017.36	228.13
1017.64	228.14
1017.93	228.22
1018.22	228.23
1018.50	228.22
1018.79	228.23
1019.08	228.07
1019.36	228.07
1019.65	228.11
1019.93	228.13
1020.22	228.15
1020.51	228.30
1020.79	228.33
1021.08	227.50
1021.36	227.60
1021.65	228.10
1021.94	227.10
1022.22	228.30
1022.51	228.60
1022.79	229.60
1023.08	228.50
1023.36	230.40
1023.65	227.40
>>>>>End Processed Spectral Data<<<<<
