SpectraSuite Data File
++++++++++++++++++++++++++++++++++++
Date: Fri Feb 01 14:38:59 EST 2013
User: group
Dark Spectrum Present: No
Reference Spectrum Present: No
Number of Sampled Component Spectra: 1
Spectrometers: USB2E7196
Integration Time (usec): 70000 (USB2E7196)
Spectra Averaged: 10 (USB2E7196)
Boxcar Smoothing: 10 (USB2E7196)
Correct for Electrical Dark: No (USB2E7196)
Strobe/Lamp Enabled: No (USB2E7196)
Correct for Detector Non-linearity: No (USB2E7196)
Correct for Stray Light: No (USB2E7196)
Number of Pixels in Processed Spectrum: 2048
>>>>>Begin Processed Spectral Data<<<<<
339.09	0.00
339.48	215.80
339.86	218.00
340.24	219.30
340.63	220.90
341.01	223.60
341.39	224.70
341.78	224.70
342.16	226.00
342.54	227.10
342.93	214.67
343.31	225.46
343.69	226.02
344.07	226.42
344.46	226.75
344.84	227.07
345.22	227.33
345.60	227.51
345.99	227.60
346.37	227.70
346.75	227.69
347.13	227.70
347.52	227.78
347.90	227.87
348.28	227.91
348.66	227.90
349.05	227.89
349.43	227.87
349.81	227.93
350.19	227.96
350.57	227.93
350.96	227.98
351.34	228.08
351.72	228.16
352.10	228.29
352.48	228.48
352.87	228.62
353.25	228.62
353.63	228.61
354.01	228.76
354.39	228.76
354.77	228.84
355.15	228.89
355.54	228.83
355.92	228.88
356.30	229.01
356.68	229.19
357.06	229.27
357.44	229.28
357.82	229.34
358.20	229.45
358.58	229.54
358.97	229.70
359.35	229.76
359.73	229.88
360.11	229.88
360.49	229.86
360.87	229.82
361.25	229.90
361.63	230.01
362.01	230.04
362.39	230.21
362.77	230.27
363.15	230.32
363.53	230.35
363.91	230.42
364.29	230.39
364.67	230.23
365.05	230.29
365.43	230.30
365.81	230.23
366.19	230.25
366.57	230.29
366.95	230.15
367.33	230.15
367.71	230.09
368.09	230.07
368.47	230.04
368.85	229.98
369.23	229.93
369.61	229.85
369.99	229.81
370.37	229.84
370.75	229.88
371.13	229.78
371.51	229.83
371.89	229.73
372.27	229.78
372.65	229.69
373.03	229.65
373.41	229.61
373.78	229.62
374.16	229.42
374.54	229.24
374.92	229.18
375.30	229.17
375.68	229.03
376.06	229.02
376.44	228.94
376.82	228.88
377.19	228.79
377.57	228.74
377.95	228.67
378.33	228.42
378.71	228.30
379.09	228.20
379.47	228.09
379.84	228.00
380.22	227.80
380.60	227.75
380.98	227.68
381.36	227.49
381.73	227.39
382.11	227.40
382.49	227.40
382.87	227.31
383.25	227.16
383.62	227.29
384.00	227.13
384.38	227.07
384.76	227.08
385.13	227.10
385.51	227.07
385.89	226.97
386.27	226.93
386.64	226.82
387.02	226.77
387.40	226.65
387.78	226.51
388.15	226.50
388.53	226.40
388.91	226.35
389.29	226.25
389.66	226.19
390.04	226.18
390.42	226.22
390.79	226.31
391.17	226.34
391.55	226.02
391.92	226.02
392.30	226.08
392.68	225.97
393.05	225.90
393.43	225.89
393.81	225.76
394.18	225.71
394.56	225.76
394.94	225.90
395.31	226.00
395.69	226.17
396.06	226.21
396.44	226.24
396.82	226.31
397.19	226.62
397.57	226.77
397.95	226.83
398.32	226.71
398.70	226.79
399.07	226.87
399.45	227.04
399.82	227.20
400.20	227.27
400.58	227.44
400.95	227.49
401.33	227.61
401.70	227.97
402.08	228.04
402.45	228.17
402.83	228.28
403.20	228.32
403.58	228.36
403.95	228.55
404.33	228.76
404.71	228.93
405.08	229.09
405.46	229.15
405.83	229.36
406.21	229.62
406.58	229.72
406.96	229.87
407.33	230.10
407.70	230.28
408.08	230.65
408.45	230.86
408.83	231.16
409.20	231.34
409.58	231.46
409.95	231.80
410.33	232.04
410.70	232.37
411.08	232.72
411.45	233.21
411.82	233.47
412.20	233.81
412.57	234.17
412.95	234.43
413.32	234.98
413.69	235.34
414.07	235.74
414.44	236.27
414.82	236.82
415.19	237.34
415.56	237.96
415.94	238.44
416.31	239.09
416.68	239.69
417.06	240.54
417.43	241.37
417.81	242.29
418.18	243.28
418.55	244.05
418.93	245.14
419.30	246.07
419.67	247.16
420.04	248.24
420.42	249.44
420.79	250.89
421.16	252.20
421.54	253.51
421.91	254.91
422.28	256.33
422.66	257.93
423.03	259.62
423.40	261.15
423.77	262.69
424.15	264.49
424.52	266.29
424.89	268.13
425.26	269.94
425.64	271.62
426.01	273.40
426.38	275.44
426.75	277.39
427.13	279.39
427.50	281.60
427.87	283.88
428.24	286.03
428.61	288.06
428.99	290.46
429.36	292.97
429.73	295.39
430.10	297.86
430.47	300.26
430.85	302.69
431.22	305.46
431.59	308.52
431.96	311.15
432.33	314.10
432.70	316.98
433.08	320.37
433.45	323.61
433.82	326.90
434.19	330.54
434.56	333.97
434.93	337.32
435.30	340.54
435.68	344.25
436.05	347.72
436.42	351.24
436.79	354.18
437.16	357.59
437.53	361.22
437.90	364.76
438.27	368.32
438.64	372.02
439.01	375.24
439.38	378.16
439.75	380.98
440.13	384.40
440.50	387.53
440.87	390.12
441.24	392.80
441.61	395.50
441.98	397.56
442.35	399.97
442.72	402.67
443.09	405.19
443.46	406.63
443.83	407.73
444.20	408.64
444.57	410.05
444.94	410.89
445.31	411.73
445.68	412.63
446.05	413.02
446.42	412.74
446.79	412.66
447.16	412.34
447.53	412.27
447.90	411.29
448.27	410.15
448.64	408.40
449.01	407.24
449.37	405.25
449.74	403.20
450.11	400.97
450.48	398.00
450.85	395.08
451.22	392.63
451.59	390.40
451.96	388.20
452.33	385.30
452.70	382.50
453.07	379.11
453.43	375.38
453.80	372.17
454.17	369.00
454.54	365.96
454.91	362.67
455.28	359.51
455.65	356.38
456.02	353.49
456.38	350.93
456.75	347.62
457.12	344.87
457.49	341.97
457.86	339.01
458.23	336.77
458.59	334.23
458.96	331.55
459.33	329.09
459.70	326.76
460.07	324.72
460.43	322.55
460.80	320.47
461.17	318.92
461.54	316.91
461.91	315.19
462.27	313.34
462.64	311.76
463.01	310.05
463.38	308.28
463.74	306.51
464.11	305.02
464.48	303.70
464.85	302.25
465.21	301.20
465.58	300.02
465.95	298.53
466.32	297.38
466.68	296.30
467.05	295.20
467.42	294.06
467.78	292.83
468.15	291.69
468.52	290.96
468.88	289.76
469.25	288.72
469.62	287.80
469.98	286.88
470.35	285.94
470.72	285.03
471.08	284.21
471.45	283.39
471.82	282.55
472.18	281.65
472.55	281.00
472.92	280.18
473.28	279.46
473.65	278.77
474.02	277.90
474.38	277.22
474.75	276.63
475.11	275.97
475.48	275.52
475.85	274.95
476.21	274.42
476.58	273.84
476.94	273.45
477.31	272.97
477.67	272.53
478.04	272.12
478.41	271.79
478.77	271.51
479.14	271.07
479.50	270.68
479.87	270.60
480.23	270.33
480.60	270.09
480.96	269.80
481.33	269.63
481.69	269.58
482.06	269.39
482.42	269.11
482.79	268.82
483.15	268.76
483.52	268.69
483.88	268.44
484.25	268.30
484.61	268.16
484.98	268.11
485.34	268.07
485.71	268.11
486.07	268.00
486.44	267.81
486.80	267.80
487.17	267.92
487.53	267.88
487.90	267.92
488.26	268.00
488.62	268.10
488.99	268.08
489.35	268.05
489.72	268.13
490.08	268.25
490.44	268.41
490.81	268.51
491.17	268.67
491.54	268.85
491.90	269.11
492.26	269.33
492.63	269.53
492.99	269.62
493.36	269.93
493.72	270.18
494.08	270.40
494.45	270.68
494.81	270.88
495.17	271.00
495.54	271.31
495.90	271.55
496.26	271.96
496.63	272.43
496.99	272.75
497.35	273.12
497.72	273.62
498.08	274.09
498.44	274.42
498.80	274.86
499.17	275.17
499.53	275.73
499.89	276.10
500.26	276.62
500.62	277.02
500.98	277.44
501.34	278.02
501.71	278.67
502.07	279.15
502.43	279.69
502.79	280.26
503.16	280.74
503.52	281.26
503.88	281.61
504.24	282.22
504.60	282.90
504.97	283.57
505.33	284.26
505.69	284.93
506.05	285.72
506.41	286.49
506.78	287.25
507.14	287.83
507.50	288.65
507.86	289.29
508.22	290.27
508.59	291.13
508.95	292.04
509.31	293.00
509.67	293.94
510.03	294.89
510.39	295.95
510.75	297.01
511.12	298.15
511.48	299.37
511.84	300.51
512.20	301.77
512.56	303.03
512.92	304.32
513.28	305.76
513.64	307.11
514.00	308.57
514.37	310.30
514.73	311.93
515.09	313.46
515.45	315.36
515.81	317.26
516.17	319.10
516.53	321.07
516.89	323.08
517.25	325.13
517.61	327.55
517.97	329.90
518.33	332.35
518.69	334.95
519.05	337.60
519.41	340.23
519.77	343.16
520.13	345.97
520.49	348.82
520.85	351.70
521.21	354.81
521.57	357.98
521.93	361.18
522.29	364.69
522.65	368.23
523.01	371.59
523.37	375.13
523.73	378.81
524.09	382.60
524.45	386.42
524.81	390.61
525.17	394.59
525.53	398.70
525.89	402.78
526.25	407.10
526.61	411.50
526.97	416.08
527.33	420.41
527.68	425.21
528.04	429.86
528.40	434.62
528.76	439.50
529.12	444.55
529.48	449.61
529.84	454.64
530.20	460.00
530.56	465.67
530.91	471.32
531.27	476.98
531.63	482.40
531.99	488.04
532.35	493.68
532.71	499.56
533.07	505.50
533.42	511.72
533.78	517.67
534.14	523.80
534.50	529.71
534.86	535.96
535.21	542.04
535.57	548.60
535.93	555.11
536.29	561.72
536.65	568.29
537.00	574.74
537.36	581.29
537.72	587.69
538.08	594.00
538.44	600.37
538.79	606.99
539.15	613.51
539.51	620.37
539.87	627.20
540.22	633.87
540.58	640.47
540.94	647.22
541.29	654.00
541.65	660.62
542.01	667.44
542.37	674.56
542.72	681.43
543.08	688.34
543.44	695.26
543.79	701.82
544.15	708.46
544.51	715.48
544.87	722.49
545.22	729.38
545.58	736.24
545.94	742.85
546.29	749.64
546.65	756.63
547.01	763.19
547.36	769.79
547.72	776.36
548.07	783.19
548.43	789.53
548.79	795.92
549.14	802.52
549.50	809.02
549.86	815.04
550.21	821.44
550.57	827.77
550.92	834.05
551.28	840.31
551.64	846.81
551.99	852.98
552.35	858.96
552.70	864.88
553.06	870.91
553.41	877.19
553.77	883.33
554.13	889.53
554.48	895.81
554.84	901.76
555.19	907.67
555.55	913.69
555.90	919.35
556.26	925.16
556.61	930.64
556.97	936.17
557.32	942.09
557.68	947.41
558.03	952.68
558.39	957.75
558.74	963.50
559.10	968.41
559.45	973.74
559.81	979.30
560.16	984.68
560.52	989.68
560.87	994.77
561.23	999.25
561.58	1004.11
561.94	1008.87
562.29	1013.07
562.64	1017.34
563.00	1021.46
563.35	1026.39
563.71	1031.10
564.06	1035.86
564.42	1040.37
564.77	1044.43
565.12	1049.03
565.48	1053.71
565.83	1057.71
566.19	1061.64
566.54	1066.01
566.89	1069.50
567.25	1073.24
567.60	1077.45
567.96	1081.50
568.31	1084.91
568.66	1088.57
569.02	1091.75
569.37	1094.67
569.72	1098.48
570.08	1101.72
570.43	1105.04
570.78	1107.94
571.14	1110.66
571.49	1113.62
571.84	1116.80
572.20	1119.66
572.55	1121.88
572.90	1124.05
573.26	1126.80
573.61	1129.05
573.96	1131.04
574.31	1132.72
574.67	1134.18
575.02	1135.51
575.37	1137.16
575.72	1138.58
576.08	1139.96
576.43	1141.40
576.78	1142.89
577.13	1144.16
577.49	1145.72
577.84	1146.71
578.19	1147.71
578.54	1148.61
578.90	1148.85
579.25	1148.77
579.60	1149.13
579.95	1149.43
580.30	1149.29
580.66	1149.47
581.01	1149.28
581.36	1149.32
581.71	1150.01
582.06	1150.10
582.42	1149.98
582.77	1149.61
583.12	1149.30
583.47	1149.62
583.82	1149.39
584.17	1148.90
584.53	1148.69
584.88	1148.46
585.23	1148.17
585.58	1147.69
585.93	1147.33
586.28	1147.30
586.63	1147.30
586.98	1146.62
587.34	1146.48
587.69	1146.25
588.04	1145.57
588.39	1145.20
588.74	1144.00
589.09	1143.10
589.44	1141.59
589.79	1140.36
590.14	1139.55
590.49	1138.72
590.84	1137.21
591.19	1136.11
591.54	1134.55
591.89	1132.43
592.25	1130.87
592.60	1128.69
592.95	1126.93
593.30	1124.72
593.65	1122.57
594.00	1120.54
594.35	1119.31
594.70	1117.05
595.05	1114.87
595.40	1112.80
595.75	1110.42
596.10	1108.38
596.45	1106.47
596.80	1105.27
597.15	1103.71
597.50	1101.47
597.85	1099.50
598.19	1098.11
598.54	1096.07
598.89	1094.37
599.24	1093.03
599.59	1090.82
599.94	1089.43
600.29	1087.34
600.64	1085.18
600.99	1082.76
601.34	1080.74
601.69	1077.82
602.04	1075.52
602.39	1073.31
602.74	1071.32
603.08	1069.55
603.43	1067.96
603.78	1065.57
604.13	1062.80
604.48	1060.24
604.83	1057.98
605.18	1055.60
605.53	1052.46
605.87	1049.35
606.22	1046.94
606.57	1043.81
606.92	1041.21
607.27	1038.38
607.62	1035.97
607.96	1033.69
608.31	1031.26
608.66	1027.98
609.01	1024.96
609.36	1021.82
609.70	1018.47
610.05	1014.89
610.40	1011.40
610.75	1007.85
611.10	1004.32
611.44	1000.95
611.79	997.55
612.14	993.76
612.49	989.90
612.83	986.04
613.18	982.66
613.53	978.69
613.88	974.77
614.22	970.83
614.57	966.71
614.92	962.65
615.27	959.09
615.61	955.28
615.96	951.85
616.31	948.42
616.65	945.14
617.00	941.99
617.35	938.58
617.70	934.74
618.04	930.75
618.39	927.27
618.74	923.59
619.08	919.87
619.43	916.69
619.78	913.44
620.12	910.04
620.47	906.50
620.82	903.03
621.16	899.77
621.51	896.33
621.85	893.15
622.20	889.40
622.55	885.49
622.89	882.01
623.24	878.52
623.59	875.04
623.93	871.61
624.28	867.67
624.62	864.13
624.97	860.94
625.32	857.78
625.66	854.21
626.01	851.12
626.35	847.60
626.70	843.86
627.04	840.33
627.39	836.83
627.73	833.34
628.08	829.80
628.43	826.47
628.77	823.08
629.12	819.36
629.46	815.81
629.81	812.11
630.15	808.17
630.50	804.36
630.84	800.32
631.19	796.31
631.53	792.71
631.88	788.84
632.22	784.70
632.57	780.90
632.91	777.06
633.26	773.09
633.60	769.14
633.95	765.61
634.29	762.03
634.64	758.31
634.98	754.69
635.32	751.30
635.67	747.54
636.01	743.96
636.36	740.42
636.70	737.22
637.05	733.99
637.39	730.98
637.73	727.59
638.08	724.62
638.42	721.62
638.77	718.48
639.11	715.11
639.45	712.00
639.80	708.35
640.14	705.23
640.49	701.92
640.83	698.88
641.17	695.67
641.52	692.16
641.86	688.76
642.20	685.49
642.55	682.04
642.89	678.83
643.23	675.46
643.58	672.45
643.92	669.03
644.26	665.67
644.61	662.53
644.95	659.44
645.29	655.88
645.64	652.21
645.98	648.81
646.32	645.82
646.66	642.52
647.01	639.50
647.35	636.40
647.69	633.17
648.04	630.10
648.38	626.32
648.72	623.04
649.06	619.86
649.41	616.68
649.75	613.17
650.09	609.74
650.43	606.37
650.78	602.68
651.12	599.20
651.46	596.14
651.80	592.72
652.14	589.47
652.49	586.46
652.83	583.45
653.17	580.30
653.51	577.14
653.85	573.92
654.20	570.85
654.54	567.28
654.88	563.97
655.22	560.43
655.56	557.44
655.90	554.48
656.25	551.51
656.59	548.49
656.93	545.89
657.27	543.23
657.61	540.23
657.95	537.78
658.29	534.92
658.64	531.94
658.98	529.02
659.32	526.00
659.66	523.13
660.00	520.29
660.34	517.37
660.68	514.35
661.02	511.47
661.36	508.75
661.70	506.31
662.05	504.07
662.39	501.86
662.73	499.45
663.07	497.00
663.41	494.43
663.75	491.72
664.09	489.13
664.43	486.51
664.77	484.10
665.11	481.68
665.45	479.51
665.79	476.98
666.13	474.47
666.47	472.17
666.81	469.79
667.15	467.30
667.49	465.06
667.83	462.91
668.17	460.83
668.51	458.58
668.85	456.11
669.19	453.70
669.53	451.30
669.87	448.86
670.21	446.59
670.55	444.57
670.89	442.82
671.23	440.71
671.57	438.59
671.91	436.58
672.25	434.34
672.58	432.29
672.92	430.47
673.26	428.52
673.60	426.68
673.94	424.81
674.28	423.26
674.62	421.53
674.96	419.64
675.30	417.92
675.64	416.17
675.97	414.55
676.31	413.04
676.65	411.44
676.99	410.01
677.33	408.31
677.67	406.56
678.01	404.63
678.34	402.99
678.68	401.49
679.02	399.82
679.36	398.33
679.70	396.62
680.04	394.88
680.37	393.35
680.71	391.68
681.05	390.08
681.39	388.48
681.73	387.02
682.06	385.71
682.40	384.30
682.74	382.82
683.08	381.48
683.42	379.81
683.75	378.30
684.09	376.71
684.43	375.26
684.77	373.79
685.10	372.28
685.44	370.88
685.78	369.36
686.12	367.98
686.45	366.51
686.79	365.16
687.13	363.93
687.46	362.72
687.80	361.33
688.14	359.90
688.48	358.49
688.81	356.98
689.15	355.65
689.49	354.23
689.82	352.99
690.16	351.41
690.50	350.17
690.83	348.86
691.17	347.49
691.51	346.14
691.84	344.81
692.18	343.61
692.52	342.20
692.85	341.00
693.19	339.85
693.52	338.62
693.86	337.18
694.20	335.82
694.53	334.42
694.87	333.23
695.21	331.98
695.54	330.74
695.88	329.57
696.21	328.23
696.55	326.92
696.88	325.66
697.22	324.63
697.56	323.56
697.89	322.45
698.23	321.38
698.56	320.24
698.90	319.12
699.23	318.00
699.57	316.93
699.90	315.80
700.24	314.65
700.58	313.46
700.91	312.62
701.25	311.62
701.58	310.75
701.92	309.75
702.25	308.78
702.59	307.80
702.92	306.90
703.26	306.05
703.59	305.37
703.93	304.71
704.26	303.90
704.60	302.95
704.93	302.10
705.26	301.29
705.60	300.63
705.93	300.05
706.27	299.44
706.60	298.75
706.94	298.11
707.27	297.36
707.61	296.70
707.94	295.94
708.27	295.33
708.61	294.50
708.94	293.92
709.28	293.42
709.61	292.75
709.94	292.15
710.28	291.55
710.61	290.78
710.95	289.89
711.28	289.42
711.61	288.73
711.95	287.97
712.28	287.30
712.61	286.53
712.95	285.68
713.28	285.11
713.61	284.40
713.95	283.74
714.28	283.22
714.61	282.65
714.95	282.07
715.28	281.43
715.61	280.76
715.95	280.13
716.28	279.56
716.61	279.12
716.95	278.52
717.28	277.94
717.61	277.51
717.94	277.02
718.28	276.30
718.61	275.82
718.94	275.49
719.27	275.11
719.61	274.77
719.94	274.43
720.27	273.78
720.60	273.38
720.94	273.00
721.27	272.52
721.60	272.08
721.93	271.70
722.27	271.32
722.60	271.04
722.93	270.62
723.26	270.21
723.59	269.76
723.93	269.40
724.26	268.98
724.59	268.38
724.92	267.95
725.25	267.68
725.59	267.31
725.92	266.93
726.25	266.48
726.58	266.10
726.91	265.71
727.24	265.48
727.57	265.04
727.91	264.48
728.24	264.19
728.57	263.78
728.90	263.39
729.23	262.93
729.56	262.64
729.89	262.28
730.22	261.86
730.55	261.41
730.89	261.00
731.22	260.72
731.55	260.38
731.88	260.07
732.21	259.64
732.54	259.07
732.87	258.67
733.20	258.38
733.53	257.92
733.86	257.66
734.19	257.05
734.52	256.81
734.85	256.66
735.18	256.20
735.51	255.91
735.84	255.57
736.17	255.34
736.50	254.93
736.83	254.81
737.16	254.46
737.49	254.25
737.82	253.96
738.15	253.63
738.48	253.37
738.81	252.95
739.14	252.67
739.47	252.52
739.80	252.20
740.13	251.99
740.46	251.74
740.79	251.37
741.12	251.21
741.45	250.96
741.78	250.61
742.11	250.36
742.44	250.05
742.77	249.90
743.10	249.59
743.43	249.31
743.75	248.83
744.08	248.81
744.41	248.57
744.74	248.20
745.07	247.80
745.40	247.60
745.73	247.44
746.06	247.15
746.39	246.98
746.71	246.80
747.04	246.46
747.37	246.17
747.70	245.92
748.03	245.77
748.36	245.53
748.68	245.29
749.01	245.08
749.34	244.99
749.67	244.71
750.00	244.50
750.33	244.51
750.65	244.39
750.98	244.02
751.31	243.85
751.64	243.68
751.97	243.68
752.29	243.55
752.62	243.37
752.95	243.10
753.28	242.89
753.60	242.75
753.93	242.65
754.26	242.46
754.59	242.35
754.91	242.17
755.24	242.08
755.57	241.90
755.90	241.76
756.22	241.46
756.55	241.37
756.88	241.20
757.20	240.96
757.53	240.82
757.86	240.74
758.19	240.63
758.51	240.60
758.84	240.36
759.17	240.25
759.49	240.14
759.82	240.24
760.15	240.14
760.47	240.03
760.80	239.84
761.13	239.90
761.45	239.71
761.78	239.63
762.11	239.51
762.43	239.49
762.76	239.48
763.08	239.53
763.41	239.44
763.74	239.51
764.06	239.41
764.39	239.20
764.71	239.05
765.04	238.93
765.37	238.87
765.69	238.84
766.02	238.73
766.34	238.71
766.67	238.46
767.00	238.50
767.32	238.51
767.65	238.61
767.97	238.48
768.30	238.42
768.62	238.37
768.95	238.24
769.27	238.17
769.60	237.97
769.92	237.75
770.25	237.67
770.57	237.46
770.90	237.32
771.22	237.27
771.55	237.22
771.87	237.20
772.20	237.10
772.52	237.00
772.85	237.10
773.17	236.87
773.50	236.80
773.82	236.60
774.15	236.29
774.47	236.00
774.80	235.83
775.12	235.79
775.45	235.71
775.77	235.63
776.09	235.49
776.42	235.50
776.74	235.48
777.07	235.27
777.39	235.14
777.72	234.91
778.04	234.86
778.36	234.77
778.69	234.63
779.01	234.49
779.33	234.39
779.66	234.00
779.98	233.99
780.31	233.95
780.63	233.92
780.95	233.81
781.28	233.75
781.60	233.68
781.92	233.55
782.25	233.38
782.57	233.30
782.89	233.21
783.22	233.01
783.54	232.93
783.86	232.86
784.19	232.80
784.51	232.94
784.83	232.75
785.16	232.70
785.48	232.55
785.80	232.51
786.12	232.34
786.45	232.26
786.77	232.16
787.09	232.10
787.42	232.09
787.74	232.08
788.06	232.00
788.38	231.91
788.71	231.87
789.03	231.79
789.35	231.78
789.67	231.73
789.99	231.76
790.32	231.65
790.64	231.62
790.96	231.70
791.28	231.60
791.61	231.61
791.93	231.59
792.25	231.61
792.57	231.73
792.89	231.77
793.21	231.82
793.54	231.83
793.86	231.81
794.18	231.71
794.50	231.81
794.82	231.85
795.14	231.84
795.47	231.92
795.79	232.00
796.11	231.95
796.43	231.96
796.75	231.94
797.07	231.94
797.39	231.99
797.71	231.88
798.04	231.94
798.36	231.99
798.68	231.87
799.00	231.90
799.32	231.85
799.64	231.93
799.96	231.93
800.28	231.94
800.60	231.89
800.92	231.84
801.24	231.75
801.56	231.78
801.89	231.89
802.21	231.93
802.53	231.84
802.85	231.80
803.17	231.92
803.49	231.97
803.81	232.04
804.13	231.96
804.45	231.98
804.77	231.91
805.09	231.91
805.41	232.01
805.73	231.95
806.05	231.86
806.37	231.82
806.69	231.82
807.01	231.84
807.33	231.90
807.65	231.87
807.97	231.99
808.28	231.99
808.60	231.91
808.92	231.93
809.24	232.15
809.56	232.22
809.88	232.01
810.20	231.97
810.52	231.95
810.84	231.99
811.16	231.84
811.48	231.86
811.80	231.91
812.12	231.93
812.43	232.02
812.75	232.00
813.07	231.86
813.39	231.88
813.71	231.78
814.03	231.70
814.35	231.70
814.67	231.50
814.98	231.48
815.30	231.40
815.62	231.15
815.94	230.90
816.26	230.85
816.58	230.81
816.89	230.73
817.21	230.61
817.53	230.44
817.85	230.50
818.17	230.44
818.48	230.23
818.80	230.04
819.12	229.89
819.44	229.73
819.76	229.71
820.07	229.60
820.39	229.56
820.71	229.56
821.03	229.50
821.34	229.48
821.66	229.34
821.98	229.37
822.30	229.28
822.61	229.34
822.93	229.16
823.25	229.11
823.57	228.99
823.88	228.99
824.20	228.93
824.52	228.86
824.83	228.81
825.15	228.81
825.47	228.75
825.79	228.74
826.10	228.76
826.42	228.72
826.74	228.69
827.05	228.59
827.37	228.50
827.69	228.46
828.00	228.37
828.32	228.43
828.64	228.30
828.95	228.36
829.27	228.31
829.58	228.33
829.90	228.39
830.22	228.54
830.53	228.47
830.85	228.60
831.17	228.51
831.48	228.42
831.80	228.40
832.11	228.36
832.43	228.40
832.75	228.46
833.06	228.61
833.38	228.64
833.69	228.69
834.01	228.75
834.32	228.73
834.64	228.81
834.96	228.77
835.27	228.83
835.59	228.85
835.90	228.92
836.22	228.90
836.53	228.91
836.85	228.77
837.16	229.00
837.48	229.00
837.79	229.21
838.11	229.30
838.42	229.39
838.74	229.62
839.05	229.52
839.37	229.53
839.68	229.44
840.00	229.45
840.31	229.52
840.63	229.58
840.94	229.68
841.26	229.80
841.57	229.79
841.88	229.77
842.20	229.79
842.51	229.63
842.83	229.70
843.14	229.80
843.46	229.81
843.77	229.68
844.08	229.73
844.40	229.53
844.71	229.51
845.03	229.46
845.34	229.44
845.65	229.49
845.97	229.47
846.28	229.45
846.60	229.48
846.91	229.57
847.22	229.40
847.54	229.42
847.85	229.35
848.16	229.35
848.48	229.36
848.79	229.46
849.10	229.62
849.42	229.60
849.73	229.49
850.04	229.58
850.36	229.59
850.67	229.58
850.98	229.69
851.30	229.84
851.61	229.84
851.92	229.79
852.23	229.80
852.55	229.83
852.86	229.92
853.17	229.99
853.49	229.94
853.80	230.07
854.11	230.10
854.42	230.11
854.74	230.06
855.05	230.07
855.36	230.03
855.67	229.97
855.99	230.01
856.30	230.18
856.61	230.16
856.92	230.13
857.23	230.07
857.55	229.98
857.86	229.78
858.17	229.83
858.48	229.70
858.79	229.70
859.11	229.65
859.42	229.50
859.73	229.31
860.04	229.26
860.35	229.11
860.66	229.00
860.98	228.92
861.29	229.03
861.60	229.01
861.91	229.00
862.22	228.83
862.53	228.75
862.84	228.45
863.16	228.44
863.47	228.44
863.78	228.43
864.09	228.35
864.40	228.36
864.71	228.24
865.02	228.22
865.33	228.16
865.64	228.17
865.95	228.08
866.27	228.25
866.58	228.19
866.89	228.30
867.20	228.26
867.51	228.27
867.82	228.09
868.13	228.06
868.44	227.98
868.75	228.12
869.06	228.10
869.37	228.18
869.68	228.14
869.99	228.15
870.30	228.09
870.61	228.20
870.92	228.18
871.23	228.28
871.54	228.39
871.85	228.38
872.16	228.45
872.47	228.45
872.78	228.28
873.09	228.29
873.40	228.21
873.71	228.23
874.02	228.21
874.33	228.20
874.64	228.22
874.95	228.19
875.26	228.08
875.56	228.10
875.87	228.08
876.18	228.09
876.49	228.26
876.80	228.27
877.11	228.31
877.42	228.41
877.73	228.35
878.04	228.33
878.35	228.37
878.66	228.34
878.96	228.39
879.27	228.38
879.58	228.43
879.89	228.39
880.20	228.46
880.51	228.48
880.82	228.56
881.12	228.59
881.43	228.59
881.74	228.58
882.05	228.67
882.36	228.73
882.67	228.72
882.97	228.50
883.28	228.64
883.59	228.59
883.90	228.60
884.21	228.64
884.51	228.61
884.82	228.69
885.13	228.64
885.44	228.74
885.74	228.79
886.05	228.73
886.36	228.81
886.67	228.85
886.98	228.99
887.28	229.08
887.59	229.10
887.90	229.21
888.20	229.29
888.51	229.30
888.82	229.20
889.13	229.23
889.43	229.39
889.74	229.30
890.05	229.30
890.35	229.21
890.66	229.12
890.97	229.09
891.28	228.97
891.58	229.02
891.89	228.94
892.20	228.95
892.50	228.92
892.81	228.87
893.12	228.76
893.42	228.59
893.73	228.51
894.04	228.50
894.34	228.44
894.65	228.42
894.95	228.40
895.26	228.41
895.57	228.50
895.87	228.35
896.18	228.33
896.48	228.26
896.79	228.22
897.10	228.31
897.40	228.29
897.71	228.33
898.01	228.19
898.32	228.21
898.63	228.28
898.93	228.25
899.24	228.29
899.54	228.18
899.85	228.10
900.15	228.10
900.46	228.00
900.76	228.02
901.07	227.95
901.38	227.90
901.68	227.98
901.99	227.82
902.29	227.80
902.60	227.78
902.90	227.76
903.21	227.76
903.51	227.67
903.82	227.70
904.12	227.67
904.43	227.74
904.73	227.79
905.03	227.76
905.34	227.91
905.64	227.90
905.95	228.03
906.25	228.11
906.56	228.10
906.86	228.15
907.17	228.09
907.47	228.19
907.77	228.11
908.08	228.01
908.38	228.06
908.69	228.09
908.99	228.15
909.30	228.26
909.60	228.37
909.90	228.42
910.21	228.50
910.51	228.40
910.81	228.36
911.12	228.36
911.42	228.30
911.73	228.15
912.03	228.13
912.33	228.12
912.64	228.12
912.94	228.10
913.24	228.17
913.55	228.11
913.85	228.03
914.15	228.15
914.46	228.25
914.76	228.20
915.06	228.20
915.37	228.19
915.67	228.18
915.97	228.09
916.27	228.13
916.58	228.10
916.88	228.20
917.18	228.28
917.49	228.43
917.79	228.48
918.09	228.45
918.39	228.50
918.70	228.53
919.00	228.55
919.30	228.67
919.60	228.57
919.91	228.60
920.21	228.62
920.51	228.52
920.81	228.42
921.12	228.46
921.42	228.48
921.72	228.40
922.02	228.35
922.32	228.46
922.63	228.45
922.93	228.54
923.23	228.53
923.53	228.42
923.83	228.19
924.13	228.23
924.44	228.27
924.74	228.30
925.04	228.36
925.34	228.32
925.64	228.22
925.94	228.25
926.24	228.36
926.55	228.37
926.85	228.46
927.15	228.62
927.45	228.63
927.75	228.54
928.05	228.56
928.35	228.62
928.65	228.66
928.95	228.61
929.26	228.55
929.56	228.53
929.86	228.61
930.16	228.60
930.46	228.47
930.76	228.56
931.06	228.46
931.36	228.38
931.66	228.40
931.96	228.38
932.26	228.48
932.56	228.50
932.86	228.55
933.16	228.43
933.46	228.29
933.76	228.27
934.06	228.33
934.36	228.39
934.66	228.31
934.96	228.14
935.26	228.15
935.56	228.16
935.86	228.14
936.16	228.14
936.46	228.18
936.76	228.25
937.06	228.20
937.36	228.24
937.66	228.33
937.96	228.35
938.26	228.30
938.56	228.22
938.86	228.07
939.16	228.04
939.46	228.03
939.76	228.06
940.06	228.09
940.35	228.10
940.65	227.99
940.95	228.02
941.25	228.08
941.55	228.10
941.85	228.00
942.15	228.06
942.45	228.07
942.75	228.15
943.04	228.10
943.34	228.18
943.64	228.18
943.94	228.03
944.24	227.98
944.54	228.00
944.84	227.93
945.13	227.98
945.43	227.98
945.73	228.10
946.03	228.17
946.33	228.18
946.62	228.20
946.92	228.29
947.22	228.29
947.52	228.40
947.82	228.40
948.11	228.52
948.41	228.52
948.71	228.40
949.01	228.30
949.31	228.40
949.60	228.24
949.90	228.30
950.20	228.36
950.50	228.41
950.79	228.40
951.09	228.52
951.39	228.53
951.69	228.60
951.98	228.63
952.28	228.58
952.58	228.54
952.87	228.50
953.17	228.53
953.47	228.53
953.76	228.50
954.06	228.48
954.36	228.34
954.66	228.35
954.95	228.51
955.25	228.57
955.55	228.59
955.84	228.63
956.14	228.57
956.44	228.56
956.73	228.56
957.03	228.66
957.32	228.52
957.62	228.56
957.92	228.47
958.21	228.43
958.51	228.53
958.81	228.63
959.10	228.65
959.40	228.71
959.69	228.70
959.99	228.63
960.29	228.68
960.58	228.72
960.88	228.70
961.17	228.58
961.47	228.48
961.76	228.43
962.06	228.50
962.36	228.55
962.65	228.46
962.95	228.31
963.24	228.29
963.54	228.35
963.83	228.29
964.13	228.36
964.42	228.31
964.72	228.15
965.01	228.05
965.31	228.07
965.60	227.93
965.90	228.01
966.19	227.95
966.49	227.93
966.78	227.94
967.08	227.89
967.37	227.94
967.67	228.00
967.96	227.97
968.26	227.91
968.55	227.93
968.85	227.98
969.14	228.08
969.43	227.98
969.73	228.03
970.02	227.95
970.32	227.78
970.61	227.70
970.91	227.74
971.20	227.71
971.49	227.60
971.79	227.56
972.08	227.48
972.38	227.43
972.67	227.44
972.96	227.48
973.26	227.53
973.55	227.61
973.85	227.61
974.14	227.61
974.43	227.70
974.73	227.55
975.02	227.49
975.31	227.51
975.61	227.48
975.90	227.40
976.19	227.46
976.49	227.46
976.78	227.43
977.07	227.40
977.37	227.36
977.66	227.36
977.95	227.40
978.24	227.44
978.54	227.54
978.83	227.45
979.12	227.42
979.42	227.46
979.71	227.35
980.00	227.29
980.29	227.29
980.59	227.20
980.88	227.27
981.17	227.37
981.46	227.30
981.76	227.38
982.05	227.43
982.34	227.48
982.63	227.60
982.93	227.67
983.22	227.68
983.51	227.77
983.80	227.85
984.09	227.87
984.39	227.85
984.68	227.94
984.97	227.93
985.26	227.90
985.55	227.89
985.85	227.90
986.14	227.94
986.43	228.00
986.72	227.92
987.01	227.90
987.30	227.90
987.59	227.93
987.89	227.88
988.18	227.90
988.47	227.96
988.76	227.92
989.05	228.01
989.34	227.97
989.63	228.00
989.92	227.98
990.22	228.04
990.51	228.00
990.80	227.83
991.09	227.97
991.38	228.04
991.67	228.01
991.96	227.96
992.25	228.02
992.54	227.96
992.83	228.00
993.12	227.93
993.41	227.93
993.70	228.04
993.99	228.07
994.28	227.98
994.58	227.84
994.87	227.85
995.16	227.75
995.45	227.84
995.74	227.84
996.03	227.86
996.32	227.82
996.61	227.79
996.90	227.88
997.19	227.77
997.48	227.69
997.77	227.60
998.06	227.61
998.34	227.50
998.63	227.49
998.92	227.52
999.21	227.60
999.50	227.52
999.79	227.48
1000.08	227.57
1000.37	227.66
1000.66	227.70
1000.95	227.74
1001.24	227.74
1001.53	227.64
1001.82	227.60
1002.11	227.54
1002.40	227.52
1002.68	227.58
1002.97	227.63
1003.26	227.62
1003.55	227.64
1003.84	227.71
1004.13	227.82
1004.42	227.89
1004.71	227.90
1004.99	227.83
1005.28	227.98
1005.57	228.01
1005.86	227.89
1006.15	227.87
1006.44	227.79
1006.72	227.83
1007.01	227.83
1007.30	227.85
1007.59	227.82
1007.88	227.84
1008.17	227.84
1008.45	227.87
1008.74	227.89
1009.03	227.78
1009.32	227.76
1009.60	227.78
1009.89	227.75
1010.18	227.67
1010.47	227.70
1010.76	227.58
1011.04	227.68
1011.33	227.53
1011.62	227.61
1011.91	227.71
1012.19	227.80
1012.48	227.85
1012.77	227.87
1013.05	228.00
1013.34	228.00
1013.63	228.12
1013.92	228.16
1014.20	228.14
1014.49	228.13
1014.78	228.20
1015.06	228.26
1015.35	228.29
1015.64	228.32
1015.92	228.28
1016.21	228.36
1016.50	228.27
1016.78	228.48
1017.07	228.43
1017.36	228.47
1017.64	228.44
1017.93	228.47
1018.22	228.28
1018.50	228.20
1018.79	228.24
1019.08	228.16
1019.36	228.20
1019.65	228.17
1019.93	228.21
1020.22	228.26
1020.51	228.37
1020.79	228.30
1021.08	226.30
1021.36	226.40
1021.65	229.80
1021.94	229.70
1022.22	228.10
1022.51	227.80
1022.79	230.30
1023.08	227.70
1023.36	230.80
1023.65	227.90
>>>>>End Processed Spectral Data<<<<<
