SpectraSuite Data File
++++++++++++++++++++++++++++++++++++
Date: Fri Feb 01 14:34:00 EST 2013
User: group
Dark Spectrum Present: No
Reference Spectrum Present: No
Number of Sampled Component Spectra: 1
Spectrometers: USB2E7196
Integration Time (usec): 70000 (USB2E7196)
Spectra Averaged: 10 (USB2E7196)
Boxcar Smoothing: 10 (USB2E7196)
Correct for Electrical Dark: No (USB2E7196)
Strobe/Lamp Enabled: No (USB2E7196)
Correct for Detector Non-linearity: No (USB2E7196)
Correct for Stray Light: No (USB2E7196)
Number of Pixels in Processed Spectrum: 2048
>>>>>Begin Processed Spectral Data<<<<<
339.09	0.00
339.48	215.30
339.86	217.20
340.24	219.20
340.63	220.50
341.01	225.10
341.39	222.00
341.78	224.30
342.16	226.10
342.54	224.70
342.93	214.58
343.31	225.46
343.69	226.10
344.07	226.59
344.46	227.01
344.84	227.40
345.22	227.57
345.60	227.96
345.99	228.20
346.37	228.38
346.75	228.59
347.13	228.80
347.52	228.85
347.90	228.90
348.28	229.03
348.66	228.96
349.05	228.81
349.43	228.84
349.81	228.96
350.19	229.00
350.57	229.14
350.96	229.24
351.34	229.31
351.72	229.40
352.10	229.50
352.48	229.63
352.87	229.60
353.25	229.62
353.63	229.62
354.01	229.63
354.39	229.63
354.77	229.64
355.15	229.62
355.54	229.68
355.92	229.70
356.30	229.78
356.68	230.04
357.06	230.23
357.44	230.30
357.82	230.17
358.20	230.17
358.58	230.23
358.97	230.37
359.35	230.40
359.73	230.46
360.11	230.50
360.49	230.50
360.87	230.58
361.25	230.66
361.63	230.72
362.01	230.81
362.39	230.80
362.77	230.89
363.15	230.91
363.53	230.93
363.91	231.02
364.29	230.91
364.67	230.72
365.05	230.78
365.43	230.76
365.81	230.86
366.19	231.01
366.57	231.06
366.95	230.94
367.33	230.86
367.71	230.86
368.09	230.90
368.47	230.82
368.85	230.87
369.23	230.86
369.61	230.79
369.99	230.75
370.37	230.81
370.75	230.82
371.13	230.73
371.51	230.65
371.89	230.50
372.27	230.51
372.65	230.47
373.03	230.35
373.41	230.25
373.78	230.17
374.16	229.94
374.54	229.84
374.92	229.80
375.30	229.80
375.68	229.72
376.06	229.61
376.44	229.54
376.82	229.39
377.19	229.30
377.57	229.20
377.95	229.08
378.33	228.91
378.71	228.74
379.09	228.68
379.47	228.57
379.84	228.55
380.22	228.48
380.60	228.26
380.98	228.12
381.36	228.02
381.73	227.94
382.11	227.91
382.49	227.71
382.87	227.58
383.25	227.47
383.62	227.49
384.00	227.40
384.38	227.40
384.76	227.43
385.13	227.43
385.51	227.44
385.89	227.39
386.27	227.42
386.64	227.37
387.02	227.31
387.40	227.31
387.78	227.24
388.15	227.16
388.53	227.23
388.91	227.28
389.29	227.35
389.66	227.32
390.04	227.39
390.42	227.48
390.79	227.53
391.17	227.59
391.55	227.48
391.92	227.43
392.30	227.52
392.68	227.57
393.05	227.61
393.43	227.67
393.81	227.67
394.18	227.64
394.56	227.76
394.94	227.84
395.31	227.91
395.69	228.08
396.06	228.20
396.44	228.27
396.82	228.35
397.19	228.55
397.57	228.67
397.95	228.68
398.32	228.77
398.70	228.91
399.07	229.05
399.45	229.16
399.82	229.33
400.20	229.43
400.58	229.63
400.95	229.74
401.33	229.87
401.70	230.21
402.08	230.51
402.45	230.66
402.83	230.94
403.20	231.31
403.58	231.44
403.95	231.76
404.33	232.16
404.71	232.50
405.08	232.96
405.46	233.29
405.83	233.70
406.21	234.08
406.58	234.57
406.96	235.04
407.33	235.49
407.70	236.04
408.08	236.70
408.45	237.22
408.83	237.93
409.20	238.52
409.58	239.17
409.95	239.82
410.33	240.69
410.70	241.50
411.08	242.34
411.45	243.39
411.82	244.38
412.20	245.47
412.57	246.69
412.95	247.57
413.32	248.94
413.69	250.33
414.07	251.82
414.44	253.30
414.82	254.71
415.19	256.52
415.56	258.32
415.94	260.33
416.31	262.48
416.68	264.53
417.06	267.00
417.43	269.32
417.81	272.05
418.18	274.78
418.55	277.68
418.93	280.68
419.30	283.72
419.67	286.94
420.04	290.40
420.42	293.92
420.79	298.12
421.16	302.27
421.54	306.47
421.91	310.79
422.28	315.39
422.66	320.47
423.03	325.13
423.40	330.17
423.77	335.22
424.15	340.64
424.52	346.24
424.89	352.27
425.26	358.14
425.64	363.68
426.01	369.80
426.38	376.18
426.75	382.59
427.13	389.38
427.50	396.57
427.87	403.77
428.24	411.16
428.61	417.96
428.99	425.66
429.36	434.11
429.73	442.46
430.10	450.52
430.47	458.68
430.85	467.40
431.22	476.44
431.59	486.09
431.96	495.27
432.33	505.43
432.70	515.26
433.08	526.93
433.45	537.80
433.82	548.59
434.19	560.63
434.56	572.40
434.93	583.68
435.30	594.91
435.68	607.37
436.05	619.56
436.42	632.00
436.79	642.88
437.16	654.66
437.53	667.36
437.90	680.00
438.27	692.36
438.64	705.07
439.01	716.83
439.38	727.47
439.75	737.51
440.13	749.23
440.50	760.27
440.87	769.49
441.24	779.19
441.61	789.90
441.98	797.87
442.35	807.09
442.72	816.55
443.09	825.66
443.46	831.80
443.83	835.95
444.20	839.70
444.57	845.26
444.94	848.40
445.31	851.45
445.68	854.40
446.05	856.73
446.42	856.98
446.79	857.17
447.16	857.14
447.53	857.49
447.90	854.48
448.27	851.38
448.64	846.21
449.01	843.12
449.37	836.13
449.74	829.25
450.11	820.88
450.48	811.70
450.85	802.20
451.22	794.30
451.59	787.02
451.96	780.13
452.33	769.83
452.70	760.85
453.07	749.70
453.43	738.42
453.80	727.44
454.17	716.76
454.54	706.45
454.91	695.36
455.28	684.86
455.65	674.62
456.02	664.40
456.38	655.71
456.75	644.66
457.12	635.66
457.49	626.72
457.86	618.28
458.23	610.69
458.59	602.39
458.96	593.55
459.33	586.02
459.70	578.20
460.07	572.34
460.43	565.47
460.80	558.60
461.17	552.72
461.54	546.42
461.91	540.64
462.27	534.55
462.64	529.50
463.01	523.65
463.38	518.18
463.74	512.81
464.11	508.05
464.48	503.73
464.85	498.86
465.21	495.47
465.58	491.70
465.95	487.04
466.32	483.40
466.68	479.81
467.05	475.90
467.42	472.10
467.78	468.17
468.15	464.19
468.52	461.60
468.88	457.95
469.25	454.78
469.62	452.06
469.98	449.46
470.35	446.80
470.72	444.37
471.08	441.63
471.45	439.40
471.82	436.96
472.18	434.28
472.55	432.73
472.92	430.46
473.28	428.41
473.65	426.68
474.02	424.68
474.38	422.85
474.75	421.41
475.11	419.86
475.48	418.59
475.85	417.67
476.21	416.57
476.58	415.82
476.94	414.90
477.31	414.05
477.67	413.35
478.04	412.62
478.41	412.17
478.77	411.98
479.14	411.25
479.50	411.06
479.87	411.14
480.23	411.02
480.60	410.83
480.96	410.85
481.33	411.24
481.69	411.60
482.06	412.02
482.42	412.15
482.79	412.47
483.15	413.15
483.52	413.87
483.88	414.60
484.25	415.20
484.61	416.07
484.98	416.98
485.34	417.93
485.71	419.19
486.07	420.38
486.44	421.71
486.80	423.42
487.17	425.01
487.53	426.72
487.90	428.57
488.26	430.65
488.62	432.69
488.99	434.58
489.35	436.59
489.72	439.00
490.08	441.57
490.44	444.35
490.81	446.90
491.17	449.50
491.54	452.46
491.90	455.49
492.26	458.67
492.63	462.02
492.99	465.31
493.36	468.65
493.72	472.50
494.08	476.06
494.45	479.87
494.81	483.75
495.17	487.84
495.54	491.86
495.90	496.12
496.26	500.31
496.63	504.80
496.99	509.65
497.35	514.28
497.72	518.99
498.08	523.61
498.44	528.62
498.80	534.01
499.17	539.20
499.53	544.35
499.89	549.61
500.26	554.80
500.62	560.08
500.98	565.73
501.34	571.10
501.71	576.87
502.07	582.29
502.43	587.81
502.79	593.55
503.16	599.09
503.52	604.84
503.88	610.32
504.24	615.89
504.60	621.50
504.97	627.27
505.33	633.19
505.69	639.35
506.05	645.25
506.41	650.51
506.78	655.97
507.14	661.73
507.50	667.71
507.86	673.43
508.22	679.41
508.59	685.06
508.95	690.67
509.31	696.37
509.67	702.29
510.03	708.10
510.39	713.64
510.75	719.46
511.12	724.60
511.48	730.21
511.84	735.59
512.20	740.71
512.56	745.98
512.92	751.33
513.28	756.33
513.64	761.06
514.00	766.18
514.37	771.01
514.73	775.69
515.09	779.76
515.45	784.34
515.81	788.72
516.17	792.99
516.53	797.45
516.89	801.55
517.25	805.28
517.61	809.22
517.97	812.91
518.33	816.28
518.69	819.86
519.05	823.56
519.41	827.40
519.77	831.27
520.13	834.64
520.49	837.80
520.85	841.07
521.21	844.39
521.57	847.78
521.93	850.73
522.29	854.12
522.65	857.62
523.01	860.53
523.37	863.13
523.73	865.93
524.09	868.43
524.45	871.17
524.81	874.49
525.17	877.28
525.53	880.25
525.89	883.22
526.25	886.50
526.61	888.81
526.97	891.50
527.33	894.13
527.68	897.15
528.04	899.73
528.40	902.48
528.76	905.42
529.12	908.16
529.48	911.17
529.84	913.38
530.20	916.06
530.56	919.10
530.91	922.33
531.27	925.36
531.63	927.97
531.99	930.72
532.35	933.05
532.71	935.30
533.07	938.25
533.42	940.95
533.78	943.50
534.14	946.50
534.50	948.73
534.86	951.17
535.21	953.14
535.57	955.61
535.93	958.20
536.29	960.57
536.65	962.90
537.00	965.18
537.36	967.77
537.72	970.32
538.08	972.16
538.44	974.19
538.79	976.34
539.15	978.60
539.51	980.98
539.87	983.53
540.22	986.31
540.58	988.62
540.94	991.05
541.29	993.15
541.65	995.36
542.01	998.15
542.37	1000.60
542.72	1002.95
543.08	1005.58
543.44	1007.85
543.79	1009.38
544.15	1011.82
544.51	1014.75
544.87	1017.06
545.22	1019.19
545.58	1021.57
545.94	1023.96
546.29	1026.24
546.65	1028.68
547.01	1030.65
547.36	1032.33
547.72	1034.24
548.07	1035.90
548.43	1037.80
548.79	1040.00
549.14	1041.84
549.50	1043.63
549.86	1045.30
550.21	1047.02
550.57	1049.03
550.92	1050.88
551.28	1053.07
551.64	1054.70
551.99	1055.95
552.35	1058.06
552.70	1059.99
553.06	1062.32
553.41	1064.31
553.77	1066.32
554.13	1068.14
554.48	1070.12
554.84	1072.29
555.19	1073.85
555.55	1075.49
555.90	1076.99
556.26	1078.68
556.61	1080.63
556.97	1082.17
557.32	1084.23
557.68	1086.26
558.03	1087.88
558.39	1089.39
558.74	1091.64
559.10	1093.21
559.45	1095.06
559.81	1096.87
560.16	1098.20
560.52	1099.52
560.87	1101.25
561.23	1102.54
561.58	1104.24
561.94	1105.67
562.29	1106.77
562.64	1108.04
563.00	1109.53
563.35	1111.49
563.71	1113.23
564.06	1114.90
564.42	1116.06
564.77	1117.13
565.12	1118.94
565.48	1120.38
565.83	1121.55
566.19	1122.40
566.54	1123.55
566.89	1124.58
567.25	1125.60
567.60	1126.93
567.96	1127.99
568.31	1128.48
568.66	1129.37
569.02	1130.00
569.37	1130.66
569.72	1131.60
570.08	1132.32
570.43	1133.38
570.78	1133.44
571.14	1133.17
571.49	1133.35
571.84	1134.27
572.20	1134.34
572.55	1133.80
572.90	1133.18
573.26	1133.28
573.61	1133.31
573.96	1132.85
574.31	1132.20
574.67	1131.42
575.02	1130.55
575.37	1129.66
575.72	1128.68
576.08	1128.36
576.43	1127.64
576.78	1126.81
577.13	1125.98
577.49	1125.80
577.84	1124.76
578.19	1124.03
578.54	1123.44
578.90	1122.08
579.25	1120.12
579.60	1119.01
579.95	1117.57
580.30	1115.80
580.66	1114.13
581.01	1112.39
581.36	1111.30
581.71	1109.99
582.06	1108.31
582.42	1106.72
582.77	1105.27
583.12	1103.94
583.47	1101.97
583.82	1100.34
584.17	1098.33
584.53	1096.41
584.88	1094.03
585.23	1091.73
585.58	1089.73
585.93	1087.47
586.28	1085.92
586.63	1084.58
586.98	1082.69
587.34	1081.06
587.69	1079.66
588.04	1077.85
588.39	1076.06
588.74	1073.70
589.09	1071.56
589.44	1069.10
589.79	1066.78
590.14	1064.31
590.49	1061.93
590.84	1059.50
591.19	1056.96
591.54	1054.30
591.89	1051.16
592.25	1048.63
592.60	1045.84
592.95	1042.59
593.30	1039.50
593.65	1036.12
594.00	1033.10
594.35	1030.47
594.70	1027.20
595.05	1024.31
595.40	1021.02
595.75	1017.70
596.10	1014.94
596.45	1012.22
596.80	1009.74
597.15	1006.88
597.50	1003.97
597.85	1000.97
598.19	997.89
598.54	995.16
598.89	992.74
599.24	990.58
599.59	987.70
599.94	984.97
600.29	982.33
600.64	979.80
600.99	976.71
601.34	973.68
601.69	970.19
602.04	967.66
602.39	964.45
602.74	961.69
603.08	958.97
603.43	956.09
603.78	952.71
604.13	949.76
604.48	947.10
604.83	944.46
605.18	941.85
605.53	938.56
605.87	934.78
606.22	931.43
606.57	928.10
606.92	925.00
607.27	921.87
607.62	919.10
607.96	915.83
608.31	913.17
608.66	909.79
609.01	906.40
609.36	902.55
609.70	899.14
610.05	895.45
610.40	891.94
610.75	888.12
611.10	884.65
611.44	880.59
611.79	876.79
612.14	872.92
612.49	868.63
612.83	864.80
613.18	861.53
613.53	858.02
613.88	854.09
614.22	850.13
614.57	845.99
614.92	842.00
615.27	838.45
615.61	834.29
615.96	830.64
616.31	827.24
616.65	824.05
617.00	820.61
617.35	817.39
617.70	813.70
618.04	810.16
618.39	806.44
618.74	803.15
619.08	799.38
619.43	795.93
619.78	792.76
620.12	789.40
620.47	785.90
620.82	782.16
621.16	778.81
621.51	775.64
621.85	772.68
622.20	769.27
622.55	765.66
622.89	762.34
623.24	759.10
623.59	755.81
623.93	752.41
624.28	749.20
624.62	745.79
624.97	742.80
625.32	739.73
625.66	736.60
626.01	733.44
626.35	730.42
626.70	727.09
627.04	723.89
627.39	720.72
627.73	717.38
628.08	714.21
628.43	711.05
628.77	707.65
629.12	704.09
629.46	700.83
629.81	697.53
630.15	694.28
630.50	690.80
630.84	687.19
631.19	683.56
631.53	679.93
631.88	676.36
632.22	672.69
632.57	669.21
632.91	666.00
633.26	662.56
633.60	658.98
633.95	655.66
634.29	652.37
634.64	649.50
634.98	646.53
635.32	643.34
635.67	640.54
636.01	637.51
636.36	634.55
636.70	631.59
637.05	628.70
637.39	625.82
637.73	623.04
638.08	620.50
638.42	617.90
638.77	615.30
639.11	612.39
639.45	609.62
639.80	606.80
640.14	603.99
640.49	601.19
640.83	598.45
641.17	595.72
641.52	592.84
641.86	589.95
642.20	587.06
642.55	584.68
642.89	581.74
643.23	579.14
643.58	576.71
643.92	573.85
644.26	571.30
644.61	568.76
644.95	566.14
645.29	563.36
645.64	560.75
645.98	558.19
646.32	555.83
646.66	552.95
647.01	550.40
647.35	547.87
647.69	545.43
648.04	543.16
648.38	540.45
648.72	537.86
649.06	535.21
649.41	532.64
649.75	529.66
650.09	527.11
650.43	524.59
650.78	521.65
651.12	519.08
651.46	516.57
651.80	514.12
652.14	511.68
652.49	509.29
652.83	506.72
653.17	504.04
653.51	501.53
653.85	499.28
654.20	496.86
654.54	494.18
654.88	491.65
655.22	489.04
655.56	486.55
655.90	484.27
656.25	481.85
656.59	479.55
656.93	477.38
657.27	475.23
657.61	472.61
657.95	470.57
658.29	468.40
658.64	466.10
658.98	463.70
659.32	461.21
659.66	459.20
660.00	457.03
660.34	455.00
660.68	452.72
661.02	450.67
661.36	448.56
661.70	446.72
662.05	444.75
662.39	443.01
662.73	441.18
663.07	439.27
663.41	437.34
663.75	435.46
664.09	433.63
664.43	431.55
664.77	429.92
665.11	428.10
665.45	426.26
665.79	424.45
666.13	422.75
666.47	421.13
666.81	418.90
667.15	416.95
667.49	415.08
667.83	413.61
668.17	411.69
668.51	409.84
668.85	408.00
669.19	406.42
669.53	404.53
669.87	402.92
670.21	401.27
670.55	399.67
670.89	398.20
671.23	396.59
671.57	395.02
671.91	393.38
672.25	391.72
672.58	390.17
672.92	388.61
673.26	387.20
673.60	385.86
673.94	384.56
674.28	383.36
674.62	382.01
674.96	380.38
675.30	379.11
675.64	377.85
675.97	376.49
676.31	375.00
676.65	373.74
676.99	372.47
677.33	371.05
677.67	369.67
678.01	368.10
678.34	366.89
678.68	365.55
679.02	364.24
679.36	362.98
679.70	361.69
680.04	360.38
680.37	358.87
680.71	357.43
681.05	356.18
681.39	354.90
681.73	353.83
682.06	352.82
682.40	351.80
682.74	350.58
683.08	349.46
683.42	348.24
683.75	347.02
684.09	345.65
684.43	344.55
684.77	343.44
685.10	342.27
685.44	340.95
685.78	339.82
686.12	338.76
686.45	337.60
686.79	336.52
687.13	335.41
687.46	334.40
687.80	333.28
688.14	332.04
688.48	330.89
688.81	329.58
689.15	328.47
689.49	327.32
689.82	326.26
690.16	325.24
690.50	324.25
690.83	323.23
691.17	322.30
691.51	321.32
691.84	320.45
692.18	319.49
692.52	318.54
692.85	317.71
693.19	316.73
693.52	315.97
693.86	315.00
694.20	314.16
694.53	313.26
694.87	312.38
695.21	311.60
695.54	310.80
695.88	309.99
696.21	309.11
696.55	308.15
696.88	307.32
697.22	306.42
697.56	305.59
697.89	304.84
698.23	303.94
698.56	303.14
698.90	302.30
699.23	301.60
699.57	300.88
699.90	299.94
700.24	299.21
700.58	298.45
700.91	297.69
701.25	297.13
701.58	296.53
701.92	295.94
702.25	295.26
702.59	294.57
702.92	293.96
703.26	293.35
703.59	292.81
703.93	292.31
704.26	291.73
704.60	291.07
704.93	290.43
705.26	289.88
705.60	289.32
705.93	288.66
706.27	288.13
706.60	287.65
706.94	287.22
707.27	286.56
707.61	285.94
707.94	285.50
708.27	284.76
708.61	284.06
708.94	283.43
709.28	282.97
709.61	282.48
709.94	281.97
710.28	281.43
710.61	280.84
710.95	279.99
711.28	279.53
711.61	279.14
711.95	278.55
712.28	278.05
712.61	277.48
712.95	276.99
713.28	276.56
713.61	275.96
713.95	275.26
714.28	274.75
714.61	274.12
714.95	273.54
715.28	272.94
715.61	272.52
715.95	272.04
716.28	271.48
716.61	270.99
716.95	270.47
717.28	269.96
717.61	269.53
717.94	269.18
718.28	268.56
718.61	267.98
718.94	267.48
719.27	266.95
719.61	266.44
719.94	266.05
720.27	265.56
720.60	265.07
720.94	264.72
721.27	264.43
721.60	264.14
721.93	263.73
722.27	263.50
722.60	263.09
722.93	262.77
723.26	262.38
723.59	261.90
723.93	261.52
724.26	261.05
724.59	260.65
724.92	260.30
725.25	260.00
725.59	259.76
725.92	259.47
726.25	259.26
726.58	258.96
726.91	258.56
727.24	258.19
727.57	257.86
727.91	257.50
728.24	257.09
728.57	256.82
728.90	256.61
729.23	256.15
729.56	255.90
729.89	255.58
730.22	255.23
730.55	254.98
730.89	254.61
731.22	254.33
731.55	253.98
731.88	253.79
732.21	253.53
732.54	253.21
732.87	252.87
733.20	252.49
733.53	252.30
733.86	252.05
734.19	251.78
734.52	251.59
734.85	251.50
735.18	251.26
735.51	250.92
735.84	250.74
736.17	250.58
736.50	250.31
736.83	250.22
737.16	250.09
737.49	249.97
737.82	249.76
738.15	249.66
738.48	249.46
738.81	249.15
739.14	248.94
739.47	248.69
739.80	248.57
740.13	248.39
740.46	248.11
740.79	247.95
741.12	247.85
741.45	247.67
741.78	247.40
742.11	247.25
742.44	247.08
742.77	246.87
743.10	246.70
743.43	246.44
743.75	246.14
744.08	246.11
744.41	245.88
744.74	245.79
745.07	245.53
745.40	245.51
745.73	245.42
746.06	245.21
746.39	245.18
746.71	245.05
747.04	245.01
747.37	244.88
747.70	244.78
748.03	244.49
748.36	244.46
748.68	244.32
749.01	244.11
749.34	243.96
749.67	243.80
750.00	243.72
750.33	243.77
750.65	243.63
750.98	243.32
751.31	243.25
751.64	243.09
751.97	243.02
752.29	242.79
752.62	242.66
752.95	242.57
753.28	242.39
753.60	242.23
753.93	242.10
754.26	241.85
754.59	241.63
754.91	241.51
755.24	241.21
755.57	241.10
755.90	241.01
756.22	240.94
756.55	240.78
756.88	240.53
757.20	240.30
757.53	240.14
757.86	239.96
758.19	239.75
758.51	239.57
758.84	239.40
759.17	239.24
759.49	239.04
759.82	238.98
760.15	238.73
760.47	238.49
760.80	238.27
761.13	238.31
761.45	238.20
761.78	238.03
762.11	237.93
762.43	237.76
762.76	237.64
763.08	237.46
763.41	237.30
763.74	237.16
764.06	237.01
764.39	236.84
764.71	236.78
765.04	236.61
765.37	236.48
765.69	236.37
766.02	236.30
766.34	236.16
766.67	235.99
767.00	235.93
767.32	235.93
767.65	235.92
767.97	235.71
768.30	235.68
768.62	235.61
768.95	235.48
769.27	235.29
769.60	235.24
769.92	235.20
770.25	235.13
770.57	235.02
770.90	234.94
771.22	234.83
771.55	234.72
771.87	234.66
772.20	234.60
772.52	234.58
772.85	234.69
773.17	234.61
773.50	234.48
773.82	234.42
774.15	234.30
774.47	234.14
774.80	234.02
775.12	233.83
775.45	233.70
775.77	233.62
776.09	233.68
776.42	233.56
776.74	233.54
777.07	233.50
777.39	233.46
777.72	233.36
778.04	233.31
778.36	233.21
778.69	233.19
779.01	233.11
779.33	233.05
779.66	232.75
779.98	232.75
780.31	232.69
780.63	232.72
780.95	232.71
781.28	232.68
781.60	232.79
781.92	232.84
782.25	232.86
782.57	232.90
782.89	232.90
783.22	232.89
783.54	232.81
783.86	232.74
784.19	232.69
784.51	232.70
784.83	232.74
785.16	232.69
785.48	232.76
785.80	232.88
786.12	232.74
786.45	232.72
786.77	232.72
787.09	232.77
787.42	232.68
787.74	232.66
788.06	232.65
788.38	232.61
788.71	232.48
789.03	232.51
789.35	232.51
789.67	232.40
789.99	232.41
790.32	232.44
790.64	232.41
790.96	232.62
791.28	232.62
791.61	232.59
791.93	232.59
792.25	232.50
792.57	232.56
792.89	232.61
793.21	232.70
793.54	232.63
793.86	232.57
794.18	232.55
794.50	232.61
794.82	232.59
795.14	232.60
795.47	232.67
795.79	232.64
796.11	232.57
796.43	232.57
796.75	232.49
797.07	232.33
797.39	232.36
797.71	232.23
798.04	232.17
798.36	232.16
798.68	232.19
799.00	232.09
799.32	232.00
799.64	231.99
799.96	231.87
800.28	231.93
800.60	231.83
800.92	231.79
801.24	231.69
801.56	231.70
801.89	231.57
802.21	231.51
802.53	231.37
802.85	231.42
803.17	231.40
803.49	231.35
803.81	231.44
804.13	231.28
804.45	231.13
804.77	231.10
805.09	231.01
805.41	230.96
805.73	230.94
806.05	230.79
806.37	230.70
806.69	230.69
807.01	230.53
807.33	230.55
807.65	230.51
807.97	230.48
808.28	230.34
808.60	230.34
808.92	230.24
809.24	230.33
809.56	230.18
809.88	230.13
810.20	230.11
810.52	230.06
810.84	230.14
811.16	230.07
811.48	229.98
811.80	230.03
812.12	230.00
812.43	229.98
812.75	229.95
813.07	230.03
813.39	230.05
813.71	230.06
814.03	229.93
814.35	229.87
814.67	229.89
814.98	229.94
815.30	229.85
815.62	229.83
815.94	229.72
816.26	229.72
816.58	229.62
816.89	229.68
817.21	229.58
817.53	229.49
817.85	229.58
818.17	229.55
818.48	229.46
818.80	229.48
819.12	229.44
819.44	229.39
819.76	229.27
820.07	229.20
820.39	229.20
820.71	229.35
821.03	229.37
821.34	229.42
821.66	229.35
821.98	229.40
822.30	229.50
822.61	229.67
822.93	229.65
823.25	229.81
823.57	229.67
823.88	229.81
824.20	229.83
824.52	229.80
824.83	229.84
825.15	229.82
825.47	229.76
825.79	229.82
826.10	229.90
826.42	229.90
826.74	229.92
827.05	229.87
827.37	229.70
827.69	229.72
828.00	229.61
828.32	229.71
828.64	229.68
828.95	229.66
829.27	229.65
829.58	229.70
829.90	229.62
830.22	229.73
830.53	229.60
830.85	229.54
831.17	229.57
831.48	229.62
831.80	229.70
832.11	229.72
832.43	229.65
832.75	229.65
833.06	229.79
833.38	229.64
833.69	229.63
834.01	229.79
834.32	229.70
834.64	229.71
834.96	229.68
835.27	229.61
835.59	229.50
835.90	229.43
836.22	229.41
836.53	229.40
836.85	229.33
837.16	229.51
837.48	229.52
837.79	229.46
838.11	229.41
838.42	229.31
838.74	229.37
839.05	229.40
839.37	229.26
839.68	229.04
840.00	229.19
840.31	229.32
840.63	229.26
840.94	229.27
841.26	229.22
841.57	229.16
841.88	229.21
842.20	229.29
842.51	229.20
842.83	229.11
843.14	229.22
843.46	229.25
843.77	229.08
844.08	229.02
844.40	229.00
844.71	229.01
845.03	228.93
845.34	228.80
845.65	228.81
845.97	228.93
846.28	228.96
846.60	228.89
846.91	228.78
847.22	228.73
847.54	228.71
847.85	228.68
848.16	228.70
848.48	228.75
848.79	228.72
849.10	228.77
849.42	228.79
849.73	228.66
850.04	228.60
850.36	228.55
850.67	228.56
850.98	228.48
851.30	228.45
851.61	228.51
851.92	228.59
852.23	228.60
852.55	228.55
852.86	228.54
853.17	228.61
853.49	228.69
853.80	228.67
854.11	228.83
854.42	228.85
854.74	228.80
855.05	228.72
855.36	228.68
855.67	228.63
855.99	228.66
856.30	228.84
856.61	228.85
856.92	228.88
857.23	228.95
857.55	229.04
857.86	228.97
858.17	229.01
858.48	229.02
858.79	229.00
859.11	228.98
859.42	229.08
859.73	229.07
860.04	229.03
860.35	229.04
860.66	228.98
860.98	228.98
861.29	229.01
861.60	229.00
861.91	229.01
862.22	229.03
862.53	229.02
862.84	228.92
863.16	229.03
863.47	229.02
863.78	229.11
864.09	229.11
864.40	229.23
864.71	229.18
865.02	229.12
865.33	229.11
865.64	229.15
865.95	229.10
866.27	229.23
866.58	229.21
866.89	229.27
867.20	229.26
867.51	229.20
867.82	229.23
868.13	229.31
868.44	229.35
868.75	229.34
869.06	229.31
869.37	229.25
869.68	229.11
869.99	229.22
870.30	229.14
870.61	229.25
870.92	229.23
871.23	229.39
871.54	229.46
871.85	229.47
872.16	229.47
872.47	229.50
872.78	229.30
873.09	229.37
873.40	229.30
873.71	229.32
874.02	229.45
874.33	229.43
874.64	229.38
874.95	229.32
875.26	229.28
875.56	229.23
875.87	229.18
876.18	229.17
876.49	229.22
876.80	229.22
877.11	229.09
877.42	229.00
877.73	228.87
878.04	228.84
878.35	228.79
878.66	228.74
878.96	228.67
879.27	228.73
879.58	228.60
879.89	228.55
880.20	228.43
880.51	228.34
880.82	228.33
881.12	228.39
881.43	228.34
881.74	228.32
882.05	228.36
882.36	228.40
882.67	228.31
882.97	228.05
883.28	227.89
883.59	227.82
883.90	227.87
884.21	227.82
884.51	227.78
884.82	227.73
885.13	227.68
885.44	227.69
885.74	227.62
886.05	227.72
886.36	227.74
886.67	227.71
886.98	227.71
887.28	227.77
887.59	227.68
887.90	227.76
888.20	227.81
888.51	227.81
888.82	227.72
889.13	227.84
889.43	228.09
889.74	228.22
890.05	228.32
890.35	228.27
890.66	228.34
890.97	228.28
891.28	228.33
891.58	228.44
891.89	228.53
892.20	228.47
892.50	228.33
892.81	228.40
893.12	228.40
893.42	228.44
893.73	228.35
894.04	228.36
894.34	228.36
894.65	228.37
894.95	228.39
895.26	228.44
895.57	228.67
895.87	228.58
896.18	228.60
896.48	228.56
896.79	228.57
897.10	228.62
897.40	228.63
897.71	228.64
898.01	228.59
898.32	228.52
898.63	228.64
898.93	228.68
899.24	228.61
899.54	228.65
899.85	228.59
900.15	228.59
900.46	228.58
900.76	228.64
901.07	228.60
901.38	228.56
901.68	228.57
901.99	228.40
902.29	228.30
902.60	228.35
902.90	228.32
903.21	228.44
903.51	228.39
903.82	228.54
904.12	228.57
904.43	228.67
904.73	228.64
905.03	228.61
905.34	228.77
905.64	228.82
905.95	228.87
906.25	228.90
906.56	228.95
906.86	229.00
907.17	228.91
907.47	228.89
907.77	228.95
908.08	228.99
908.38	228.98
908.69	228.99
908.99	228.97
909.30	229.00
909.60	229.00
909.90	229.00
910.21	228.92
910.51	228.92
910.81	228.84
911.12	228.90
911.42	228.91
911.73	228.86
912.03	228.80
912.33	228.81
912.64	228.79
912.94	228.73
913.24	228.73
913.55	228.81
913.85	228.88
914.15	228.87
914.46	228.87
914.76	228.90
915.06	228.87
915.37	228.85
915.67	228.81
915.97	228.75
916.27	228.74
916.58	228.68
916.88	228.58
917.18	228.61
917.49	228.80
917.79	228.75
918.09	228.65
918.39	228.71
918.70	228.61
919.00	228.65
919.30	228.66
919.60	228.68
919.91	228.49
920.21	228.46
920.51	228.39
920.81	228.28
921.12	228.23
921.42	228.27
921.72	228.16
922.02	228.17
922.32	228.19
922.63	228.12
922.93	228.21
923.23	228.23
923.53	228.22
923.83	228.00
924.13	228.03
924.44	228.11
924.74	228.18
925.04	228.36
925.34	228.34
925.64	228.28
925.94	228.14
926.24	228.30
926.55	228.28
926.85	228.29
927.15	228.32
927.45	228.30
927.75	228.34
928.05	228.45
928.35	228.43
928.65	228.43
928.95	228.52
929.26	228.40
929.56	228.52
929.86	228.48
930.16	228.50
930.46	228.50
930.76	228.41
931.06	228.30
931.36	228.09
931.66	228.08
931.96	228.10
932.26	228.15
932.56	228.19
932.86	228.27
933.16	228.25
933.46	228.24
933.76	228.18
934.06	228.07
934.36	228.02
934.66	228.07
934.96	227.97
935.26	228.00
935.56	228.10
935.86	228.03
936.16	227.99
936.46	227.87
936.76	227.84
937.06	227.90
937.36	227.92
937.66	227.99
937.96	227.94
938.26	227.94
938.56	228.02
938.86	228.00
939.16	227.93
939.46	227.94
939.76	227.94
940.06	228.03
940.35	228.10
940.65	228.03
940.95	228.00
941.25	228.03
941.55	227.92
941.85	227.91
942.15	227.89
942.45	227.94
942.75	227.98
943.04	227.91
943.34	227.89
943.64	227.88
943.94	227.91
944.24	227.93
944.54	228.01
944.84	227.94
945.13	227.79
945.43	227.82
945.73	227.76
946.03	227.73
946.33	227.70
946.62	227.69
946.92	227.79
947.22	227.83
947.52	227.92
947.82	227.99
948.11	228.02
948.41	228.02
948.71	228.03
949.01	228.02
949.31	228.00
949.60	227.99
949.90	228.05
950.20	227.81
950.50	227.89
950.79	227.93
951.09	227.95
951.39	228.07
951.69	227.98
951.98	228.17
952.28	228.20
952.58	228.13
952.87	228.01
953.17	228.08
953.47	228.04
953.76	228.02
954.06	227.95
954.36	227.87
954.66	227.85
954.95	227.91
955.25	228.03
955.55	228.13
955.84	228.17
956.14	228.20
956.44	228.40
956.73	228.29
957.03	228.17
957.32	228.17
957.62	228.15
957.92	228.30
958.21	228.17
958.51	228.40
958.81	228.39
959.10	228.61
959.40	228.67
959.69	228.69
959.99	228.69
960.29	228.63
960.58	228.66
960.88	228.77
961.17	228.71
961.47	228.73
961.76	228.70
962.06	228.62
962.36	228.56
962.65	228.52
962.95	228.59
963.24	228.60
963.54	228.65
963.83	228.57
964.13	228.50
964.42	228.44
964.72	228.26
965.01	228.44
965.31	228.30
965.60	228.11
965.90	228.30
966.19	228.15
966.49	228.24
966.78	228.16
967.08	228.13
967.37	228.14
967.67	227.98
967.96	228.05
968.26	228.13
968.55	228.09
968.85	228.10
969.14	228.03
969.43	228.00
969.73	227.96
970.02	227.95
970.32	228.00
970.61	228.07
970.91	228.01
971.20	227.84
971.49	227.91
971.79	228.06
972.08	227.85
972.38	227.88
972.67	227.83
972.96	227.84
973.26	227.72
973.55	227.80
973.85	227.77
974.14	227.77
974.43	227.68
974.73	227.67
975.02	227.66
975.31	227.68
975.61	227.73
975.90	227.74
976.19	227.85
976.49	227.69
976.78	227.75
977.07	227.70
977.37	227.73
977.66	227.75
977.95	227.60
978.24	227.65
978.54	227.78
978.83	227.78
979.12	227.82
979.42	228.00
979.71	227.90
980.00	228.06
980.29	228.08
980.59	228.16
980.88	228.27
981.17	228.36
981.46	228.36
981.76	228.32
982.05	228.39
982.34	228.33
982.63	228.44
982.93	228.48
983.22	228.61
983.51	228.67
983.80	228.73
984.09	228.80
984.39	228.77
984.68	228.70
984.97	228.80
985.26	228.90
985.55	228.91
985.85	228.98
986.14	228.90
986.43	228.89
986.72	228.76
987.01	228.75
987.30	228.74
987.59	228.74
987.89	228.78
988.18	228.80
988.47	228.84
988.76	228.87
989.05	228.80
989.34	228.80
989.63	228.86
989.92	228.78
990.22	228.80
990.51	228.80
990.80	228.85
991.09	228.86
991.38	228.71
991.67	228.64
991.96	228.59
992.25	228.60
992.54	228.61
992.83	228.71
993.12	228.60
993.41	228.61
993.70	228.72
993.99	228.84
994.28	228.83
994.58	228.90
994.87	228.84
995.16	228.81
995.45	228.70
995.74	228.64
996.03	228.70
996.32	228.77
996.61	228.71
996.90	228.66
997.19	228.71
997.48	228.75
997.77	228.78
998.06	228.66
998.34	228.67
998.63	228.58
998.92	228.54
999.21	228.63
999.50	228.58
999.79	228.47
1000.08	228.40
1000.37	228.28
1000.66	228.19
1000.95	228.16
1001.24	228.26
1001.53	228.28
1001.82	228.21
1002.11	228.11
1002.40	228.03
1002.68	228.11
1002.97	228.20
1003.26	228.10
1003.55	228.10
1003.84	228.03
1004.13	228.23
1004.42	228.25
1004.71	228.27
1004.99	228.30
1005.28	228.31
1005.57	228.27
1005.86	228.23
1006.15	228.15
1006.44	228.20
1006.72	228.20
1007.01	228.16
1007.30	228.04
1007.59	228.04
1007.88	228.09
1008.17	228.14
1008.45	228.11
1008.74	228.06
1009.03	228.00
1009.32	227.98
1009.60	227.87
1009.89	227.83
1010.18	227.73
1010.47	227.69
1010.76	227.69
1011.04	227.64
1011.33	227.68
1011.62	227.68
1011.91	227.71
1012.19	227.76
1012.48	227.75
1012.77	227.81
1013.05	227.97
1013.34	228.08
1013.63	228.14
1013.92	228.07
1014.20	228.02
1014.49	228.09
1014.78	228.13
1015.06	228.04
1015.35	228.10
1015.64	228.22
1015.92	228.31
1016.21	228.34
1016.50	228.38
1016.78	228.44
1017.07	228.46
1017.36	228.41
1017.64	228.39
1017.93	228.40
1018.22	228.32
1018.50	228.31
1018.79	228.16
1019.08	228.05
1019.36	228.04
1019.65	227.95
1019.93	228.11
1020.22	228.18
1020.51	228.22
1020.79	228.21
1021.08	226.90
1021.36	227.80
1021.65	226.20
1021.94	227.60
1022.22	229.00
1022.51	227.10
1022.79	229.90
1023.08	229.40
1023.36	230.60
1023.65	228.10
>>>>>End Processed Spectral Data<<<<<
