SpectraSuite Data File
++++++++++++++++++++++++++++++++++++
Date: Fri Feb 01 14:36:37 EST 2013
User: group
Dark Spectrum Present: No
Reference Spectrum Present: No
Number of Sampled Component Spectra: 1
Spectrometers: USB2E7196
Integration Time (usec): 70000 (USB2E7196)
Spectra Averaged: 10 (USB2E7196)
Boxcar Smoothing: 10 (USB2E7196)
Correct for Electrical Dark: No (USB2E7196)
Strobe/Lamp Enabled: No (USB2E7196)
Correct for Detector Non-linearity: No (USB2E7196)
Correct for Stray Light: No (USB2E7196)
Number of Pixels in Processed Spectrum: 2048
>>>>>Begin Processed Spectral Data<<<<<
339.09	0.00
339.48	216.10
339.86	217.10
340.24	217.70
340.63	220.00
341.01	223.20
341.39	224.00
341.78	225.20
342.16	225.60
342.54	225.50
342.93	213.97
343.31	224.73
343.69	225.28
344.07	225.73
344.46	226.17
344.84	226.49
345.22	226.58
345.60	226.73
345.99	226.81
346.37	226.92
346.75	227.00
347.13	227.00
347.52	227.02
347.90	227.13
348.28	227.10
348.66	227.16
349.05	227.11
349.43	227.13
349.81	227.13
350.19	227.16
350.57	227.30
350.96	227.44
351.34	227.60
351.72	227.58
352.10	227.65
352.48	227.87
352.87	227.97
353.25	228.15
353.63	228.29
354.01	228.42
354.39	228.45
354.77	228.60
355.15	229.00
355.54	229.12
355.92	229.16
356.30	229.34
356.68	229.56
357.06	229.69
357.44	229.79
357.82	229.88
358.20	229.95
358.58	229.99
358.97	230.10
359.35	230.22
359.73	230.42
360.11	230.45
360.49	230.37
360.87	230.54
361.25	230.60
361.63	230.71
362.01	230.73
362.39	230.72
362.77	230.79
363.15	230.62
363.53	230.62
363.91	230.56
364.29	230.58
364.67	230.29
365.05	230.29
365.43	230.30
365.81	230.34
366.19	230.35
366.57	230.43
366.95	230.37
367.33	230.28
367.71	230.23
368.09	230.24
368.47	230.30
368.85	230.20
369.23	230.15
369.61	230.00
369.99	230.08
370.37	230.18
370.75	230.17
371.13	230.09
371.51	230.09
371.89	230.12
372.27	230.13
372.65	230.20
373.03	230.20
373.41	230.15
373.78	229.97
374.16	229.92
374.54	229.74
374.92	229.65
375.30	229.60
375.68	229.53
376.06	229.51
376.44	229.33
376.82	229.27
377.19	229.19
377.57	229.13
377.95	228.93
378.33	228.87
378.71	228.60
379.09	228.58
379.47	228.42
379.84	228.31
380.22	228.19
380.60	228.16
380.98	227.96
381.36	227.85
381.73	227.89
382.11	227.86
382.49	227.76
382.87	227.67
383.25	227.56
383.62	227.68
384.00	227.60
384.38	227.54
384.76	227.43
385.13	227.58
385.51	227.39
385.89	227.26
386.27	227.16
386.64	227.17
387.02	227.15
387.40	227.19
387.78	227.08
388.15	227.07
388.53	227.13
388.91	227.01
389.29	227.04
389.66	227.05
390.04	226.96
390.42	227.03
390.79	227.19
391.17	227.23
391.55	227.03
391.92	226.94
392.30	227.02
392.68	227.11
393.05	227.01
393.43	227.20
393.81	227.39
394.18	227.39
394.56	227.42
394.94	227.32
395.31	227.30
395.69	227.52
396.06	227.60
396.44	227.51
396.82	227.78
397.19	227.97
397.57	227.97
397.95	228.09
398.32	228.11
398.70	228.14
399.07	228.38
399.45	228.51
399.82	228.63
400.20	228.75
400.58	228.76
400.95	228.78
401.33	228.95
401.70	229.15
402.08	229.35
402.45	229.55
402.83	229.81
403.20	230.04
403.58	230.20
403.95	230.39
404.33	230.69
404.71	230.76
405.08	230.91
405.46	231.11
405.83	231.38
406.21	231.63
406.58	231.90
406.96	232.04
407.33	232.26
407.70	232.57
408.08	232.99
408.45	233.41
408.83	233.86
409.20	234.23
409.58	234.46
409.95	234.84
410.33	235.25
410.70	235.76
411.08	236.24
411.45	236.76
411.82	237.28
412.20	237.89
412.57	238.69
412.95	239.36
413.32	240.04
413.69	240.75
414.07	241.56
414.44	242.38
414.82	243.24
415.19	244.32
415.56	245.43
415.94	246.39
416.31	247.52
416.68	248.78
417.06	250.09
417.43	251.52
417.81	253.10
418.18	254.57
418.55	256.17
418.93	257.87
419.30	259.68
419.67	261.62
420.04	263.39
420.42	265.45
420.79	267.80
421.16	270.31
421.54	272.75
421.91	275.19
422.28	277.73
422.66	280.42
423.03	283.09
423.40	285.83
423.77	288.97
424.15	292.07
424.52	295.16
424.89	298.69
425.26	302.02
425.64	305.04
426.01	308.59
426.38	312.25
426.75	315.90
427.13	319.50
427.50	323.39
427.87	327.53
428.24	331.55
428.61	335.32
428.99	339.62
429.36	344.35
429.73	349.15
430.10	353.67
430.47	358.50
430.85	363.34
431.22	368.43
431.59	373.91
431.96	379.21
432.33	384.95
432.70	390.37
433.08	396.67
433.45	402.81
433.82	408.97
434.19	415.71
434.56	422.38
434.93	428.65
435.30	434.88
435.68	441.96
436.05	448.87
436.42	455.63
436.79	461.75
437.16	468.31
437.53	475.18
437.90	482.31
438.27	489.01
438.64	496.08
439.01	502.89
439.38	508.55
439.75	514.03
440.13	520.40
440.50	526.61
440.87	531.97
441.24	537.24
441.61	542.94
441.98	547.37
442.35	552.42
442.72	557.81
443.09	563.00
443.46	566.14
443.83	568.25
444.20	570.47
444.57	573.47
444.94	575.03
445.31	576.74
445.68	578.39
446.05	579.41
446.42	579.39
446.79	579.14
447.16	579.10
447.53	579.51
447.90	577.76
448.27	575.80
448.64	572.74
449.01	571.06
449.37	567.21
449.74	563.34
450.11	558.76
450.48	553.34
450.85	547.98
451.22	543.71
451.59	539.70
451.96	535.69
452.33	529.98
452.70	525.06
453.07	518.92
453.43	512.60
453.80	506.81
454.17	500.87
454.54	495.27
454.91	489.11
455.28	482.92
455.65	477.38
456.02	471.84
456.38	466.92
456.75	460.77
457.12	455.68
457.49	450.72
457.86	445.66
458.23	441.70
458.59	437.04
458.96	431.98
459.33	427.78
459.70	423.51
460.07	420.02
460.43	416.11
460.80	412.21
461.17	408.78
461.54	405.20
461.91	402.00
462.27	398.53
462.64	395.66
463.01	392.40
463.38	389.15
463.74	385.79
464.11	383.21
464.48	380.77
464.85	378.05
465.21	375.91
465.58	373.69
465.95	371.00
466.32	368.73
466.68	366.59
467.05	364.28
467.42	362.00
467.78	359.63
468.15	357.44
468.52	355.89
468.88	353.92
469.25	351.76
469.62	350.00
469.98	348.21
470.35	346.48
470.72	344.95
471.08	343.46
471.45	342.19
471.82	340.60
472.18	338.93
472.55	337.80
472.92	336.29
473.28	335.09
473.65	333.91
474.02	332.66
474.38	331.61
474.75	330.64
475.11	329.73
475.48	329.05
475.85	328.17
476.21	327.33
476.58	326.51
476.94	326.04
477.31	325.45
477.67	324.86
478.04	324.30
478.41	323.75
478.77	323.48
479.14	323.05
479.50	322.73
479.87	322.55
480.23	322.25
480.60	322.00
480.96	321.72
481.33	321.63
481.69	321.65
482.06	321.64
482.42	321.50
482.79	321.33
483.15	321.34
483.52	321.56
483.88	321.56
484.25	321.70
484.61	321.71
484.98	321.91
485.34	322.39
485.71	322.86
486.07	323.33
486.44	323.42
486.80	323.95
487.17	324.39
487.53	325.00
487.90	325.68
488.26	326.34
488.62	327.05
488.99	327.65
489.35	328.41
489.72	329.11
490.08	330.00
490.44	330.90
490.81	331.83
491.17	332.68
491.54	333.81
491.90	334.79
492.26	335.90
492.63	336.88
492.99	337.85
493.36	338.93
493.72	340.11
494.08	341.31
494.45	342.42
494.81	343.66
495.17	344.89
495.54	346.13
495.90	347.47
496.26	348.74
496.63	350.20
496.99	351.50
497.35	352.88
497.72	354.20
498.08	355.52
498.44	356.89
498.80	358.35
499.17	359.61
499.53	360.92
499.89	362.39
500.26	363.97
500.62	365.29
500.98	366.74
501.34	368.10
501.71	369.50
502.07	370.89
502.43	372.10
502.79	373.18
503.16	374.44
503.52	375.57
503.88	376.70
504.24	377.63
504.60	378.75
504.97	379.99
505.33	381.10
505.69	382.20
506.05	382.98
506.41	383.92
506.78	384.82
507.14	385.62
507.50	386.45
507.86	387.22
508.22	388.13
508.59	388.58
508.95	389.14
509.31	389.81
509.67	390.27
510.03	391.02
510.39	391.67
510.75	392.18
511.12	392.67
511.48	393.23
511.84	393.78
512.20	394.07
512.56	394.26
512.92	394.69
513.28	395.04
513.64	395.45
514.00	395.67
514.37	395.99
514.73	396.43
515.09	396.58
515.45	396.63
515.81	396.70
516.17	396.73
516.53	396.82
516.89	396.80
517.25	396.99
517.61	396.88
517.97	396.98
518.33	396.80
518.69	396.92
519.05	397.05
519.41	397.22
519.77	397.56
520.13	397.68
520.49	397.61
520.85	397.82
521.21	398.09
521.57	398.30
521.93	398.45
522.29	398.75
522.65	399.18
523.01	399.58
523.37	399.75
523.73	400.30
524.09	400.77
524.45	401.38
524.81	402.01
525.17	402.77
525.53	403.49
525.89	404.35
526.25	405.09
526.61	405.81
526.97	406.56
527.33	407.54
527.68	408.76
528.04	409.94
528.40	410.87
528.76	412.06
529.12	413.30
529.48	414.71
529.84	416.00
530.20	417.38
530.56	419.00
530.91	420.95
531.27	422.89
531.63	424.70
531.99	426.63
532.35	428.42
532.71	430.40
533.07	432.42
533.42	434.77
533.78	436.99
534.14	439.40
534.50	441.88
534.86	443.98
535.21	446.29
535.57	448.90
535.93	451.69
536.29	454.45
536.65	457.26
537.00	460.00
537.36	463.04
537.72	466.07
538.08	469.10
538.44	472.01
538.79	475.17
539.15	478.13
539.51	481.30
539.87	484.55
540.22	487.90
540.58	491.40
540.94	494.85
541.29	498.43
541.65	501.88
542.01	505.58
542.37	509.60
542.72	513.39
543.08	517.15
543.44	521.01
543.79	524.57
544.15	528.37
544.51	532.63
544.87	536.39
545.22	540.32
545.58	544.28
545.94	548.36
546.29	552.12
546.65	556.55
547.01	560.72
547.36	564.89
547.72	569.10
548.07	573.22
548.43	577.44
548.79	581.64
549.14	585.68
549.50	589.66
549.86	593.66
550.21	597.84
550.57	601.95
550.92	606.06
551.28	610.43
551.64	614.67
551.99	618.75
552.35	623.07
552.70	627.22
553.06	631.40
553.41	635.55
553.77	639.70
554.13	643.87
554.48	648.00
554.84	652.02
555.19	656.28
555.55	660.47
555.90	664.39
556.26	668.52
556.61	672.91
556.97	677.24
557.32	681.27
557.68	685.27
558.03	689.37
558.39	693.64
558.74	697.85
559.10	702.08
559.45	706.02
559.81	710.13
560.16	714.12
560.52	718.08
560.87	722.26
561.23	726.42
561.58	730.65
561.94	734.69
562.29	738.78
562.64	742.44
563.00	746.23
563.35	750.34
563.71	754.37
564.06	758.17
564.42	762.01
564.77	765.90
565.12	769.70
565.48	773.63
565.83	777.08
566.19	780.58
566.54	783.97
566.89	787.55
567.25	791.20
567.60	794.80
567.96	798.20
568.31	801.40
568.66	804.76
569.02	807.74
569.37	810.50
569.72	813.50
570.08	816.47
570.43	819.44
570.78	821.88
571.14	824.31
571.49	827.03
571.84	829.69
572.20	831.96
572.55	834.47
572.90	836.43
573.26	839.02
573.61	841.19
573.96	843.40
574.31	844.86
574.67	846.50
575.02	848.10
575.37	849.96
575.72	851.20
576.08	852.74
576.43	854.10
576.78	855.86
577.13	857.60
577.49	859.16
577.84	860.75
578.19	862.43
578.54	863.49
578.90	864.42
579.25	865.10
579.60	866.31
579.95	866.99
580.30	867.80
580.66	868.10
581.01	868.62
581.36	869.43
581.71	870.66
582.06	871.30
582.42	871.86
582.77	872.20
583.12	873.10
583.47	873.61
583.82	874.04
584.17	874.24
584.53	874.32
584.88	874.48
585.23	874.53
585.58	874.53
585.93	874.98
586.28	875.41
586.63	875.72
586.98	875.95
587.34	876.42
587.69	876.87
588.04	877.19
588.39	877.62
588.74	877.03
589.09	876.83
589.44	876.41
589.79	876.45
590.14	876.42
590.49	876.22
590.84	875.95
591.19	875.73
591.54	875.27
591.89	874.31
592.25	873.84
592.60	872.70
592.95	871.69
593.30	870.84
593.65	869.91
594.00	868.84
594.35	868.36
594.70	866.96
595.05	865.90
595.40	864.70
595.75	863.33
596.10	862.53
596.45	861.50
596.80	860.53
597.15	859.50
597.50	858.29
597.85	857.16
598.19	856.03
598.54	855.09
598.89	853.98
599.24	853.48
599.59	852.32
599.94	851.55
600.29	850.46
600.64	849.06
600.99	847.20
601.34	846.08
601.69	844.11
602.04	843.11
602.39	841.56
602.74	840.32
603.08	839.19
603.43	838.00
603.78	836.50
604.13	835.04
604.48	833.55
604.83	832.15
605.18	830.68
605.53	828.81
605.87	826.71
606.22	825.16
606.57	823.04
606.92	821.01
607.27	819.35
607.62	817.80
607.96	816.20
608.31	814.83
608.66	812.95
609.01	810.99
609.36	808.52
609.70	806.29
610.05	804.15
610.40	801.90
610.75	799.44
611.10	796.97
611.44	794.42
611.79	791.90
612.14	789.51
612.49	786.48
612.83	783.95
613.18	781.30
613.53	778.67
613.88	775.97
614.22	773.49
614.57	770.44
614.92	767.99
615.27	765.28
615.61	762.38
615.96	759.57
616.31	757.34
616.65	755.18
617.00	752.95
617.35	750.33
617.70	747.44
618.04	744.61
618.39	742.16
618.74	739.75
619.08	736.98
619.43	734.22
619.78	731.72
620.12	729.30
620.47	726.94
620.82	724.20
621.16	721.91
621.51	719.49
621.85	717.26
622.20	714.33
622.55	711.66
622.89	709.40
623.24	707.10
623.59	704.39
623.93	701.91
624.28	699.29
624.62	696.93
624.97	694.75
625.32	692.64
625.66	690.12
626.01	687.75
626.35	685.34
626.70	682.79
627.04	680.77
627.39	678.14
627.73	675.64
628.08	673.16
628.43	670.52
628.77	667.98
629.12	665.30
629.46	663.00
629.81	660.56
630.15	657.96
630.50	655.10
630.84	652.22
631.19	649.44
631.53	646.83
631.88	643.83
632.22	640.82
632.57	638.19
632.91	635.55
633.26	633.16
633.60	630.49
633.95	628.09
634.29	625.52
634.64	623.24
634.98	620.54
635.32	618.38
635.67	615.97
636.01	613.60
636.36	611.07
636.70	608.58
637.05	606.27
637.39	603.89
637.73	601.71
638.08	599.69
638.42	597.34
638.77	595.20
639.11	592.91
639.45	590.79
639.80	588.24
640.14	585.88
640.49	583.37
640.83	581.17
641.17	578.87
641.52	576.27
641.86	573.74
642.20	571.72
642.55	569.35
642.89	567.15
643.23	564.75
643.58	562.55
643.92	560.20
644.26	557.76
644.61	555.53
644.95	553.30
645.29	550.66
645.64	548.22
645.98	545.67
646.32	543.59
646.66	541.32
647.01	539.13
647.35	537.17
647.69	534.91
648.04	532.71
648.38	530.40
648.72	528.05
649.06	525.69
649.41	523.24
649.75	520.58
650.09	518.15
650.43	515.63
650.78	513.19
651.12	510.73
651.46	508.59
651.80	506.30
652.14	503.89
652.49	501.90
652.83	499.77
653.17	497.51
653.51	495.05
653.85	492.78
654.20	490.44
654.54	487.83
654.88	485.39
655.22	482.89
655.56	480.40
655.90	478.25
656.25	476.01
656.59	473.80
656.93	471.69
657.27	469.61
657.61	467.41
657.95	465.45
658.29	463.39
658.64	461.05
658.98	458.73
659.32	456.43
659.66	454.17
660.00	451.95
660.34	449.85
660.68	447.81
661.02	445.64
661.36	443.61
661.70	441.55
662.05	439.51
662.39	437.64
662.73	435.80
663.07	433.95
663.41	432.21
663.75	430.24
664.09	428.56
664.43	426.55
664.77	424.87
665.11	423.05
665.45	421.29
665.79	419.62
666.13	417.88
666.47	416.17
666.81	414.18
667.15	412.33
667.49	410.50
667.83	408.79
668.17	407.18
668.51	405.45
668.85	403.90
669.19	402.41
669.53	400.72
669.87	398.99
670.21	397.29
670.55	395.58
670.89	394.21
671.23	392.54
671.57	391.16
671.91	389.66
672.25	388.12
672.58	386.70
672.92	385.12
673.26	383.88
673.60	382.66
673.94	381.45
674.28	380.24
674.62	379.01
674.96	377.80
675.30	376.49
675.64	375.27
675.97	374.06
676.31	372.83
676.65	371.69
676.99	370.50
677.33	369.17
677.67	367.96
678.01	366.62
678.34	365.51
678.68	364.32
679.02	363.29
679.36	362.06
679.70	360.78
680.04	359.65
680.37	358.35
680.71	357.10
681.05	356.08
681.39	354.99
681.73	354.01
682.06	352.80
682.40	351.80
682.74	350.74
683.08	349.59
683.42	348.46
683.75	347.33
684.09	346.16
684.43	345.10
684.77	343.99
685.10	342.92
685.44	341.79
685.78	340.80
686.12	339.60
686.45	338.59
686.79	337.49
687.13	336.50
687.46	335.47
687.80	334.53
688.14	333.37
688.48	332.36
688.81	331.27
689.15	330.33
689.49	329.16
689.82	328.19
690.16	327.20
690.50	326.24
690.83	325.26
691.17	324.32
691.51	323.44
691.84	322.50
692.18	321.51
692.52	320.56
692.85	319.46
693.19	318.55
693.52	317.46
693.86	316.57
694.20	315.63
694.53	314.71
694.87	313.80
695.21	312.81
695.54	311.77
695.88	310.83
696.21	309.81
696.55	308.90
696.88	308.10
697.22	307.20
697.56	306.41
697.89	305.58
698.23	304.67
698.56	303.90
698.90	303.10
699.23	302.19
699.57	301.22
699.90	300.14
700.24	299.17
700.58	298.45
700.91	297.63
701.25	296.91
701.58	296.20
701.92	295.34
702.25	294.64
702.59	293.92
702.92	293.31
703.26	292.58
703.59	291.88
703.93	291.20
704.26	290.51
704.60	289.90
704.93	289.19
705.26	288.65
705.60	287.91
705.93	287.27
706.27	286.74
706.60	286.17
706.94	285.84
707.27	285.27
707.61	284.67
707.94	284.14
708.27	283.47
708.61	282.73
708.94	282.17
709.28	281.66
709.61	281.14
709.94	280.53
710.28	280.02
710.61	279.43
710.95	278.74
711.28	278.30
711.61	277.58
711.95	277.10
712.28	276.51
712.61	276.04
712.95	275.52
713.28	275.10
713.61	274.61
713.95	274.03
714.28	273.51
714.61	273.10
714.95	272.53
715.28	271.98
715.61	271.51
715.95	271.05
716.28	270.52
716.61	270.07
716.95	269.50
717.28	269.01
717.61	268.56
717.94	268.13
718.28	267.54
718.61	267.13
718.94	266.68
719.27	266.20
719.61	265.82
719.94	265.39
720.27	264.83
720.60	264.50
720.94	264.22
721.27	263.94
721.60	263.50
721.93	263.25
722.27	263.03
722.60	262.77
722.93	262.46
723.26	262.19
723.59	261.78
723.93	261.50
724.26	261.22
724.59	261.03
724.92	260.79
725.25	260.64
725.59	260.40
725.92	260.09
726.25	259.86
726.58	259.56
726.91	259.26
727.24	259.09
727.57	258.87
727.91	258.61
728.24	258.32
728.57	258.11
728.90	257.83
729.23	257.50
729.56	257.24
729.89	256.96
730.22	256.68
730.55	256.61
730.89	256.36
731.22	256.15
731.55	255.78
731.88	255.45
732.21	255.13
732.54	254.78
732.87	254.59
733.20	254.30
733.53	254.00
733.86	253.66
734.19	253.43
734.52	253.09
734.85	252.86
735.18	252.60
735.51	252.37
735.84	252.19
736.17	251.98
736.50	251.70
736.83	251.70
737.16	251.39
737.49	251.05
737.82	250.88
738.15	250.60
738.48	250.46
738.81	250.34
739.14	250.09
739.47	249.87
739.80	249.54
740.13	249.45
740.46	249.25
740.79	249.05
741.12	248.75
741.45	248.55
741.78	248.22
742.11	248.03
742.44	247.77
742.77	247.42
743.10	247.11
743.43	246.82
743.75	246.34
744.08	246.40
744.41	246.14
744.74	245.85
745.07	245.59
745.40	245.35
745.73	245.14
746.06	244.94
746.39	244.74
746.71	244.63
747.04	244.35
747.37	244.18
747.70	244.07
748.03	243.95
748.36	243.77
748.68	243.64
749.01	243.35
749.34	243.05
749.67	242.88
750.00	242.73
750.33	242.72
750.65	242.41
750.98	241.95
751.31	241.79
751.64	241.56
751.97	241.59
752.29	241.43
752.62	241.06
752.95	240.82
753.28	240.63
753.60	240.39
753.93	240.28
754.26	240.17
754.59	239.92
754.91	239.75
755.24	239.66
755.57	239.50
755.90	239.46
756.22	239.39
756.55	239.25
756.88	239.12
757.20	238.85
757.53	238.82
757.86	238.82
758.19	238.67
758.51	238.63
758.84	238.30
759.17	238.17
759.49	238.14
759.82	238.24
760.15	238.10
760.47	238.07
760.80	237.93
761.13	237.85
761.45	237.75
761.78	237.60
762.11	237.42
762.43	237.18
762.76	237.12
763.08	237.07
763.41	237.09
763.74	237.00
764.06	236.94
764.39	236.85
764.71	236.69
765.04	236.60
765.37	236.49
765.69	236.45
766.02	236.49
766.34	236.46
766.67	236.39
767.00	236.33
767.32	236.34
767.65	236.36
767.97	236.20
768.30	236.20
768.62	236.21
768.95	236.18
769.27	236.22
769.60	236.05
769.92	236.03
770.25	235.92
770.57	235.91
770.90	235.87
771.22	235.76
771.55	235.71
771.87	235.72
772.20	235.67
772.52	235.84
772.85	235.81
773.17	235.64
773.50	235.47
773.82	235.46
774.15	235.22
774.47	235.06
774.80	235.04
775.12	234.91
775.45	234.89
775.77	234.77
776.09	234.68
776.42	234.64
776.74	234.51
777.07	234.39
777.39	234.25
777.72	234.25
778.04	234.35
778.36	234.25
778.69	234.15
779.01	234.11
779.33	233.85
779.66	233.73
779.98	233.71
780.31	233.56
780.63	233.56
780.95	233.61
781.28	233.50
781.60	233.39
781.92	233.35
782.25	233.18
782.57	233.16
782.89	233.05
783.22	233.06
783.54	233.01
783.86	233.00
784.19	232.88
784.51	232.84
784.83	232.71
785.16	232.70
785.48	232.70
785.80	232.60
786.12	232.50
786.45	232.33
786.77	232.36
787.09	232.40
787.42	232.30
787.74	232.30
788.06	232.34
788.38	232.25
788.71	232.10
789.03	232.09
789.35	232.13
789.67	232.12
789.99	232.04
790.32	232.00
790.64	232.10
790.96	232.36
791.28	232.21
791.61	232.16
791.93	232.12
792.25	232.12
792.57	232.14
792.89	232.13
793.21	232.14
793.54	232.06
793.86	232.01
794.18	231.92
794.50	231.84
794.82	231.80
795.14	231.78
795.47	231.93
795.79	231.90
796.11	231.75
796.43	231.66
796.75	231.69
797.07	231.71
797.39	231.60
797.71	231.37
798.04	231.25
798.36	231.21
798.68	231.21
799.00	231.19
799.32	231.10
799.64	231.16
799.96	231.15
800.28	231.21
800.60	231.15
800.92	231.26
801.24	231.10
801.56	231.12
801.89	231.17
802.21	231.09
802.53	231.05
802.85	231.04
803.17	231.14
803.49	231.02
803.81	230.92
804.13	230.85
804.45	230.76
804.77	230.85
805.09	230.83
805.41	230.72
805.73	230.62
806.05	230.58
806.37	230.54
806.69	230.56
807.01	230.45
807.33	230.47
807.65	230.41
807.97	230.58
808.28	230.51
808.60	230.43
808.92	230.34
809.24	230.41
809.56	230.40
809.88	230.34
810.20	230.39
810.52	230.42
810.84	230.31
811.16	230.32
811.48	230.22
811.80	230.27
812.12	230.29
812.43	230.30
812.75	230.31
813.07	230.24
813.39	230.23
813.71	230.17
814.03	230.09
814.35	229.98
814.67	229.77
814.98	229.68
815.30	229.64
815.62	229.68
815.94	229.58
816.26	229.72
816.58	229.69
816.89	229.65
817.21	229.57
817.53	229.59
817.85	229.58
818.17	229.66
818.48	229.62
818.80	229.65
819.12	229.49
819.44	229.40
819.76	229.42
820.07	229.46
820.39	229.52
820.71	229.55
821.03	229.47
821.34	229.61
821.66	229.62
821.98	229.67
822.30	229.60
822.61	229.78
822.93	229.60
823.25	229.58
823.57	229.53
823.88	229.54
824.20	229.49
824.52	229.45
824.83	229.48
825.15	229.43
825.47	229.43
825.79	229.52
826.10	229.53
826.42	229.41
826.74	229.25
827.05	229.13
827.37	229.04
827.69	229.10
828.00	229.10
828.32	229.12
828.64	229.17
828.95	229.32
829.27	229.20
829.58	229.19
829.90	229.25
830.22	229.34
830.53	229.35
830.85	229.52
831.17	229.46
831.48	229.39
831.80	229.36
832.11	229.27
832.43	229.24
832.75	229.32
833.06	229.49
833.38	229.54
833.69	229.58
834.01	229.69
834.32	229.71
834.64	229.68
834.96	229.60
835.27	229.51
835.59	229.46
835.90	229.39
836.22	229.39
836.53	229.35
836.85	229.23
837.16	229.41
837.48	229.29
837.79	229.35
838.11	229.33
838.42	229.36
838.74	229.46
839.05	229.43
839.37	229.35
839.68	229.16
840.00	229.16
840.31	229.31
840.63	229.30
840.94	229.24
841.26	229.15
841.57	229.11
841.88	229.13
842.20	229.11
842.51	229.03
842.83	228.99
843.14	229.20
843.46	229.12
843.77	228.98
844.08	228.93
844.40	228.88
844.71	228.80
845.03	228.68
845.34	228.60
845.65	228.60
845.97	228.58
846.28	228.70
846.60	228.73
846.91	228.56
847.22	228.60
847.54	228.66
847.85	228.73
848.16	228.77
848.48	228.80
848.79	228.82
849.10	228.94
849.42	228.96
849.73	228.74
850.04	228.86
850.36	228.75
850.67	228.83
850.98	228.91
851.30	228.90
851.61	228.94
851.92	228.90
852.23	228.96
852.55	228.96
852.86	228.87
853.17	228.84
853.49	228.89
853.80	228.84
854.11	228.93
854.42	228.87
854.74	228.90
855.05	228.83
855.36	228.75
855.67	228.71
855.99	228.75
856.30	228.93
856.61	228.88
856.92	228.88
857.23	228.85
857.55	228.77
857.86	228.80
858.17	228.82
858.48	228.81
858.79	228.80
859.11	228.82
859.42	228.94
859.73	228.85
860.04	228.87
860.35	228.79
860.66	228.64
860.98	228.66
861.29	228.60
861.60	228.69
861.91	228.69
862.22	228.69
862.53	228.64
862.84	228.44
863.16	228.50
863.47	228.54
863.78	228.50
864.09	228.60
864.40	228.68
864.71	228.69
865.02	228.77
865.33	228.72
865.64	228.64
865.95	228.61
866.27	228.80
866.58	228.74
866.89	228.73
867.20	228.65
867.51	228.61
867.82	228.66
868.13	228.71
868.44	228.60
868.75	228.64
869.06	228.66
869.37	228.64
869.68	228.59
869.99	228.67
870.30	228.76
870.61	228.63
870.92	228.57
871.23	228.58
871.54	228.59
871.85	228.66
872.16	228.71
872.47	228.61
872.78	228.57
873.09	228.55
873.40	228.58
873.71	228.62
874.02	228.65
874.33	228.67
874.64	228.60
874.95	228.64
875.26	228.52
875.56	228.56
875.87	228.57
876.18	228.60
876.49	228.73
876.80	228.71
877.11	228.74
877.42	228.80
877.73	228.75
878.04	228.67
878.35	228.63
878.66	228.75
878.96	228.79
879.27	228.70
879.58	228.71
879.89	228.76
880.20	228.83
880.51	228.85
880.82	228.84
881.12	228.87
881.43	228.86
881.74	228.90
882.05	228.80
882.36	228.84
882.67	228.90
882.97	228.69
883.28	228.57
883.59	228.57
883.90	228.58
884.21	228.64
884.51	228.69
884.82	228.65
885.13	228.53
885.44	228.47
885.74	228.41
886.05	228.51
886.36	228.45
886.67	228.43
886.98	228.46
887.28	228.49
887.59	228.43
887.90	228.48
888.20	228.50
888.51	228.60
888.82	228.57
889.13	228.52
889.43	228.59
889.74	228.59
890.05	228.65
890.35	228.58
890.66	228.53
890.97	228.50
891.28	228.51
891.58	228.58
891.89	228.64
892.20	228.66
892.50	228.51
892.81	228.53
893.12	228.49
893.42	228.38
893.73	228.35
894.04	228.43
894.34	228.50
894.65	228.43
894.95	228.41
895.26	228.41
895.57	228.41
895.87	228.35
896.18	228.50
896.48	228.37
896.79	228.38
897.10	228.46
897.40	228.50
897.71	228.56
898.01	228.48
898.32	228.54
898.63	228.60
898.93	228.62
899.24	228.57
899.54	228.65
899.85	228.74
900.15	228.76
900.46	228.64
900.76	228.66
901.07	228.67
901.38	228.70
901.68	228.70
901.99	228.72
902.29	228.72
902.60	228.70
902.90	228.87
903.21	228.79
903.51	228.72
903.82	228.79
904.12	228.73
904.43	228.84
904.73	228.79
905.03	228.78
905.34	229.09
905.64	229.08
905.95	229.01
906.25	228.99
906.56	228.97
906.86	228.97
907.17	228.94
907.47	228.93
907.77	228.88
908.08	228.82
908.38	228.77
908.69	228.70
908.99	228.73
909.30	228.66
909.60	228.79
909.90	228.81
910.21	228.70
910.51	228.69
910.81	228.58
911.12	228.52
911.42	228.51
911.73	228.20
912.03	228.29
912.33	228.32
912.64	228.36
912.94	228.33
913.24	228.29
913.55	228.25
913.85	228.27
914.15	228.42
914.46	228.43
914.76	228.47
915.06	228.59
915.37	228.56
915.67	228.55
915.97	228.51
916.27	228.48
916.58	228.41
916.88	228.35
917.18	228.33
917.49	228.57
917.79	228.46
918.09	228.48
918.39	228.53
918.70	228.53
919.00	228.42
919.30	228.47
919.60	228.53
919.91	228.50
920.21	228.53
920.51	228.43
920.81	228.45
921.12	228.60
921.42	228.54
921.72	228.50
922.02	228.47
922.32	228.57
922.63	228.60
922.93	228.67
923.23	228.74
923.53	228.77
923.83	228.58
924.13	228.67
924.44	228.63
924.74	228.66
925.04	228.65
925.34	228.70
925.64	228.71
925.94	228.66
926.24	228.73
926.55	228.67
926.85	228.62
927.15	228.59
927.45	228.34
927.75	228.26
928.05	228.27
928.35	228.22
928.65	228.20
928.95	228.16
929.26	228.18
929.56	228.18
929.86	228.19
930.16	228.15
930.46	228.19
930.76	228.29
931.06	228.15
931.36	228.14
931.66	228.19
931.96	228.12
932.26	228.22
932.56	228.13
932.86	228.13
933.16	228.11
933.46	228.01
933.76	228.01
934.06	228.10
934.36	228.18
934.66	228.24
934.96	228.24
935.26	228.26
935.56	228.24
935.86	228.15
936.16	228.15
936.46	228.13
936.76	228.01
937.06	227.90
937.36	227.94
937.66	227.90
937.96	227.89
938.26	227.93
938.56	227.87
938.86	227.96
939.16	228.04
939.46	228.10
939.76	228.16
940.06	228.26
940.35	228.30
940.65	228.21
940.95	228.28
941.25	228.30
941.55	228.36
941.85	228.40
942.15	228.57
942.45	228.68
942.75	228.67
943.04	228.70
943.34	228.80
943.64	228.83
943.94	228.88
944.24	228.90
944.54	228.83
944.84	228.85
945.13	228.69
945.43	228.62
945.73	228.56
946.03	228.58
946.33	228.60
946.62	228.58
946.92	228.57
947.22	228.47
947.52	228.44
947.82	228.30
948.11	228.26
948.41	228.23
948.71	228.10
949.01	228.20
949.31	228.26
949.60	228.13
949.90	228.08
950.20	228.10
950.50	228.09
950.79	228.15
951.09	228.09
951.39	228.20
951.69	228.22
951.98	228.34
952.28	228.43
952.58	228.33
952.87	228.29
953.17	228.25
953.47	228.33
953.76	228.33
954.06	228.30
954.36	228.32
954.66	228.22
954.95	228.27
955.25	228.24
955.55	228.28
955.84	228.31
956.14	228.35
956.44	228.26
956.73	228.26
957.03	228.28
957.32	228.30
957.62	228.31
957.92	228.33
958.21	228.23
958.51	228.33
958.81	228.34
959.10	228.44
959.40	228.49
959.69	228.40
959.99	228.35
960.29	228.40
960.58	228.30
960.88	228.38
961.17	228.41
961.47	228.50
961.76	228.40
962.06	228.49
962.36	228.44
962.65	228.39
962.95	228.39
963.24	228.34
963.54	228.45
963.83	228.35
964.13	228.39
964.42	228.29
964.72	228.17
965.01	228.11
965.31	228.02
965.60	227.97
965.90	228.19
966.19	228.18
966.49	228.14
966.78	228.24
967.08	228.26
967.37	228.14
967.67	227.97
967.96	228.02
968.26	227.92
968.55	228.03
968.85	228.10
969.14	228.00
969.43	227.94
969.73	227.87
970.02	227.88
970.32	227.83
970.61	227.97
970.91	228.02
971.20	228.05
971.49	228.09
971.79	228.11
972.08	227.92
972.38	227.90
972.67	227.98
972.96	228.06
973.26	228.02
973.55	228.23
973.85	228.29
974.14	228.35
974.43	228.40
974.73	228.34
975.02	228.39
975.31	228.35
975.61	228.39
975.90	228.37
976.19	228.51
976.49	228.54
976.78	228.54
977.07	228.46
977.37	228.42
977.66	228.48
977.95	228.47
978.24	228.47
978.54	228.53
978.83	228.52
979.12	228.42
979.42	228.50
979.71	228.39
980.00	228.40
980.29	228.42
980.59	228.47
980.88	228.52
981.17	228.53
981.46	228.54
981.76	228.55
982.05	228.63
982.34	228.49
982.63	228.59
982.93	228.59
983.22	228.70
983.51	228.75
983.80	228.66
984.09	228.69
984.39	228.75
984.68	228.73
984.97	228.76
985.26	228.76
985.55	228.75
985.85	228.79
986.14	228.76
986.43	228.80
986.72	228.67
987.01	228.65
987.30	228.65
987.59	228.70
987.89	228.68
988.18	228.61
988.47	228.59
988.76	228.48
989.05	228.47
989.34	228.40
989.63	228.40
989.92	228.36
990.22	228.35
990.51	228.26
990.80	228.27
991.09	228.28
991.38	228.32
991.67	228.31
991.96	228.25
992.25	228.26
992.54	228.18
992.83	228.18
993.12	228.19
993.41	228.13
993.70	228.10
993.99	228.16
994.28	228.22
994.58	228.31
994.87	228.30
995.16	228.25
995.45	228.09
995.74	228.07
996.03	228.04
996.32	228.00
996.61	228.05
996.90	228.04
997.19	227.98
997.48	228.00
997.77	227.96
998.06	227.90
998.34	227.91
998.63	227.87
998.92	227.90
999.21	227.82
999.50	227.83
999.79	227.79
1000.08	227.78
1000.37	227.80
1000.66	227.76
1000.95	227.80
1001.24	227.78
1001.53	227.86
1001.82	228.00
1002.11	228.05
1002.40	228.16
1002.68	228.15
1002.97	228.22
1003.26	228.21
1003.55	228.03
1003.84	228.00
1004.13	228.13
1004.42	228.16
1004.71	228.21
1004.99	228.15
1005.28	228.27
1005.57	228.24
1005.86	228.34
1006.15	228.28
1006.44	228.19
1006.72	228.16
1007.01	228.13
1007.30	228.19
1007.59	228.19
1007.88	228.08
1008.17	228.09
1008.45	227.98
1008.74	227.90
1009.03	227.96
1009.32	228.01
1009.60	228.10
1009.89	228.10
1010.18	228.00
1010.47	227.92
1010.76	227.94
1011.04	227.96
1011.33	228.00
1011.62	228.03
1011.91	228.01
1012.19	228.05
1012.48	228.03
1012.77	228.03
1013.05	228.10
1013.34	228.12
1013.63	228.05
1013.92	228.07
1014.20	228.06
1014.49	228.08
1014.78	228.15
1015.06	227.99
1015.35	227.88
1015.64	227.96
1015.92	227.96
1016.21	228.00
1016.50	228.03
1016.78	227.99
1017.07	228.08
1017.36	227.94
1017.64	227.98
1017.93	227.93
1018.22	227.83
1018.50	227.76
1018.79	227.77
1019.08	227.66
1019.36	227.70
1019.65	227.76
1019.93	227.80
1020.22	227.82
1020.51	227.91
1020.79	227.92
1021.08	225.90
1021.36	226.30
1021.65	227.00
1021.94	228.20
1022.22	229.30
1022.51	227.40
1022.79	228.80
1023.08	228.50
1023.36	229.60
1023.65	228.10
>>>>>End Processed Spectral Data<<<<<
