SpectraSuite Data File
++++++++++++++++++++++++++++++++++++
Date: Fri Feb 01 14:39:37 EST 2013
User: group
Dark Spectrum Present: No
Reference Spectrum Present: No
Number of Sampled Component Spectra: 1
Spectrometers: USB2E7196
Integration Time (usec): 70000 (USB2E7196)
Spectra Averaged: 10 (USB2E7196)
Boxcar Smoothing: 10 (USB2E7196)
Correct for Electrical Dark: No (USB2E7196)
Strobe/Lamp Enabled: No (USB2E7196)
Correct for Detector Non-linearity: No (USB2E7196)
Correct for Stray Light: No (USB2E7196)
Number of Pixels in Processed Spectrum: 2048
>>>>>Begin Processed Spectral Data<<<<<
339.09	0.00
339.48	216.60
339.86	216.30
340.24	217.90
340.63	219.40
341.01	225.30
341.39	221.40
341.78	223.20
342.16	226.00
342.54	225.80
342.93	214.25
343.31	225.12
343.69	225.59
344.07	226.08
344.46	226.53
344.84	226.85
345.22	226.91
345.60	227.20
345.99	227.41
346.37	227.50
346.75	227.54
347.13	227.45
347.52	227.38
347.90	227.47
348.28	227.45
348.66	227.48
349.05	227.37
349.43	227.42
349.81	227.41
350.19	227.31
350.57	227.39
350.96	227.42
351.34	227.51
351.72	227.61
352.10	227.70
352.48	227.79
352.87	227.98
353.25	228.03
353.63	228.19
354.01	228.24
354.39	228.31
354.77	228.46
355.15	228.69
355.54	228.84
355.92	228.81
356.30	228.94
356.68	229.19
357.06	229.43
357.44	229.49
357.82	229.64
358.20	229.80
358.58	229.79
358.97	229.86
359.35	229.95
359.73	230.09
360.11	230.16
360.49	230.20
360.87	230.16
361.25	230.27
361.63	230.29
362.01	230.35
362.39	230.48
362.77	230.61
363.15	230.73
363.53	230.68
363.91	230.78
364.29	230.92
364.67	230.80
365.05	230.70
365.43	230.77
365.81	230.78
366.19	230.85
366.57	230.93
366.95	230.91
367.33	230.86
367.71	230.80
368.09	230.90
368.47	230.87
368.85	230.83
369.23	230.82
369.61	230.78
369.99	230.85
370.37	230.74
370.75	230.69
371.13	230.56
371.51	230.56
371.89	230.54
372.27	230.45
372.65	230.32
373.03	230.31
373.41	230.19
373.78	230.20
374.16	230.07
374.54	230.02
374.92	229.97
375.30	229.84
375.68	229.65
376.06	229.51
376.44	229.45
376.82	229.36
377.19	229.30
377.57	229.21
377.95	229.01
378.33	228.98
378.71	228.83
379.09	228.65
379.47	228.56
379.84	228.40
380.22	228.27
380.60	228.13
380.98	228.11
381.36	228.06
381.73	227.89
382.11	227.84
382.49	227.78
382.87	227.69
383.25	227.60
383.62	227.89
384.00	227.72
384.38	227.57
384.76	227.59
385.13	227.64
385.51	227.49
385.89	227.38
386.27	227.27
386.64	227.23
387.02	227.22
387.40	227.20
387.78	227.22
388.15	227.16
388.53	227.17
388.91	227.04
389.29	227.03
389.66	227.01
390.04	226.92
390.42	226.86
390.79	226.78
391.17	226.72
391.55	226.46
391.92	226.48
392.30	226.59
392.68	226.59
393.05	226.50
393.43	226.66
393.81	226.66
394.18	226.56
394.56	226.48
394.94	226.54
395.31	226.52
395.69	226.50
396.06	226.55
396.44	226.58
396.82	226.63
397.19	226.74
397.57	226.69
397.95	226.76
398.32	226.82
398.70	226.98
399.07	227.11
399.45	227.24
399.82	227.22
400.20	227.36
400.58	227.37
400.95	227.49
401.33	227.53
401.70	227.81
402.08	227.99
402.45	228.08
402.83	228.22
403.20	228.24
403.58	228.43
403.95	228.51
404.33	228.71
404.71	228.81
405.08	229.07
405.46	229.32
405.83	229.56
406.21	229.73
406.58	229.87
406.96	230.06
407.33	230.21
407.70	230.53
408.08	230.94
408.45	231.22
408.83	231.32
409.20	231.52
409.58	231.64
409.95	231.90
410.33	232.20
410.70	232.41
411.08	232.94
411.45	233.22
411.82	233.59
412.20	233.90
412.57	234.32
412.95	234.54
413.32	235.01
413.69	235.30
414.07	235.71
414.44	236.28
414.82	236.67
415.19	237.20
415.56	237.64
415.94	237.89
416.31	238.52
416.68	239.20
417.06	239.96
417.43	240.72
417.81	241.54
418.18	242.36
418.55	243.27
418.93	244.00
419.30	244.81
419.67	245.67
420.04	246.64
420.42	247.60
420.79	248.85
421.16	249.96
421.54	251.24
421.91	252.46
422.28	253.61
422.66	254.98
423.03	256.32
423.40	257.80
423.77	259.16
424.15	260.57
424.52	261.97
424.89	263.49
425.26	264.99
425.64	266.41
426.01	267.97
426.38	269.62
426.75	271.40
427.13	273.18
427.50	275.13
427.87	277.07
428.24	279.05
428.61	280.87
428.99	282.68
429.36	284.67
429.73	286.75
430.10	288.87
430.47	291.19
430.85	293.30
431.22	295.60
431.59	298.33
431.96	300.75
432.33	303.55
432.70	306.07
433.08	309.08
433.45	311.83
433.82	314.80
434.19	317.89
434.56	320.89
434.93	323.76
435.30	326.51
435.68	329.69
436.05	332.72
436.42	335.71
436.79	338.61
437.16	341.70
437.53	344.96
437.90	348.06
438.27	351.15
438.64	354.20
439.01	357.08
439.38	359.48
439.75	361.93
440.13	364.80
440.50	367.60
440.87	369.73
441.24	372.17
441.61	374.45
441.98	376.25
442.35	378.30
442.72	380.54
443.09	382.77
443.46	384.07
443.83	384.95
444.20	385.69
444.57	386.80
444.94	387.26
445.31	387.69
445.68	388.31
446.05	388.36
446.42	388.30
446.79	388.14
447.16	387.92
447.53	387.73
447.90	386.55
448.27	385.48
448.64	384.05
449.01	382.89
449.37	381.05
449.74	379.06
450.11	376.89
450.48	374.26
450.85	371.62
451.22	369.30
451.59	367.24
451.96	365.22
452.33	362.40
452.70	359.97
453.07	357.14
453.43	354.06
453.80	351.25
454.17	348.35
454.54	345.58
454.91	342.75
455.28	339.93
455.65	337.32
456.02	334.82
456.38	332.41
456.75	329.57
457.12	327.10
457.49	324.83
457.86	322.38
458.23	320.48
458.59	318.13
458.96	315.94
459.33	313.85
459.70	311.83
460.07	310.29
460.43	308.58
460.80	306.81
461.17	305.22
461.54	303.64
461.91	302.08
462.27	300.49
462.64	299.01
463.01	297.47
463.38	296.02
463.74	294.40
464.11	293.09
464.48	291.88
464.85	290.65
465.21	289.61
465.58	288.71
465.95	287.41
466.32	286.54
466.68	285.55
467.05	284.56
467.42	283.56
467.78	282.47
468.15	281.30
468.52	280.44
468.88	279.43
469.25	278.41
469.62	277.74
469.98	276.92
470.35	276.22
470.72	275.42
471.08	274.52
471.45	273.84
471.82	273.18
472.18	272.55
472.55	271.97
472.92	271.24
473.28	270.47
473.65	269.83
474.02	269.09
474.38	268.50
474.75	267.94
475.11	267.43
475.48	267.01
475.85	266.63
476.21	266.08
476.58	265.67
476.94	265.32
477.31	264.84
477.67	264.34
478.04	263.82
478.41	263.54
478.77	263.42
479.14	263.04
479.50	262.79
479.87	262.53
480.23	262.20
480.60	261.90
480.96	261.71
481.33	261.68
481.69	261.59
482.06	261.38
482.42	261.30
482.79	261.11
483.15	260.94
483.52	260.81
483.88	260.85
484.25	260.75
484.61	260.55
484.98	260.55
485.34	260.63
485.71	260.67
486.07	260.76
486.44	260.55
486.80	260.59
487.17	260.58
487.53	260.72
487.90	260.86
488.26	261.13
488.62	261.20
488.99	261.10
489.35	261.13
489.72	261.38
490.08	261.41
490.44	261.51
490.81	261.74
491.17	261.96
491.54	262.08
491.90	262.32
492.26	262.72
492.63	262.95
492.99	263.19
493.36	263.48
493.72	263.58
494.08	264.04
494.45	264.32
494.81	264.76
495.17	264.94
495.54	265.36
495.90	265.58
496.26	265.91
496.63	266.52
496.99	267.12
497.35	267.52
497.72	268.16
498.08	268.70
498.44	269.20
498.80	269.87
499.17	270.61
499.53	271.26
499.89	271.90
500.26	272.61
500.62	273.41
500.98	274.24
501.34	275.31
501.71	276.21
502.07	277.20
502.43	277.94
502.79	278.96
503.16	279.94
503.52	281.16
503.88	282.52
504.24	283.63
504.60	284.76
504.97	286.18
505.33	287.47
505.69	288.96
506.05	290.48
506.41	291.91
506.78	293.44
507.14	295.14
507.50	296.88
507.86	298.71
508.22	300.47
508.59	302.40
508.95	304.23
509.31	306.19
509.67	308.25
510.03	310.64
510.39	313.00
510.75	315.49
511.12	317.96
511.48	320.36
511.84	322.91
512.20	325.63
512.56	328.42
512.92	331.29
513.28	334.23
513.64	337.34
514.00	340.53
514.37	343.75
514.73	347.05
515.09	350.48
515.45	353.89
515.81	357.61
516.17	361.27
516.53	365.13
516.89	369.03
517.25	372.98
517.61	377.00
517.97	381.09
518.33	385.29
518.69	389.62
519.05	394.23
519.41	398.98
519.77	403.90
520.13	408.69
520.49	413.61
520.85	418.61
521.21	423.84
521.57	429.24
521.93	434.51
522.29	440.06
522.65	445.48
523.01	451.13
523.37	456.87
523.73	462.69
524.09	468.69
524.45	474.83
524.81	480.95
525.17	487.19
525.53	493.60
525.89	500.20
526.25	506.75
526.61	513.06
526.97	519.72
527.33	526.36
527.68	533.44
528.04	540.37
528.40	547.43
528.76	554.40
529.12	561.51
529.48	568.93
529.84	576.30
530.20	583.71
530.56	591.42
530.91	599.21
531.27	607.04
531.63	614.83
531.99	622.62
532.35	630.42
532.71	638.27
533.07	646.34
533.42	654.28
533.78	662.36
534.14	670.76
534.50	678.72
534.86	687.01
535.21	694.85
535.57	703.41
535.93	711.77
536.29	720.31
536.65	728.81
537.00	737.14
537.36	745.30
537.72	753.85
538.08	762.30
538.44	770.81
538.79	779.22
539.15	787.40
539.51	795.75
539.87	804.60
540.22	813.40
540.58	822.06
540.94	830.60
541.29	838.89
541.65	847.25
542.01	856.17
542.37	864.74
542.72	873.45
543.08	881.55
543.44	889.81
543.79	897.80
544.15	906.12
544.51	914.60
544.87	923.20
545.22	931.47
545.58	939.49
545.94	946.97
546.29	954.97
546.65	963.04
547.01	971.15
547.36	978.87
547.72	986.29
548.07	993.74
548.43	1001.25
548.79	1008.82
549.14	1016.16
549.50	1023.24
549.86	1029.98
550.21	1036.86
550.57	1044.21
550.92	1051.43
551.28	1058.53
551.64	1065.32
551.99	1072.33
552.35	1079.28
552.70	1086.16
553.06	1092.92
553.41	1100.16
553.77	1107.00
554.13	1113.69
554.48	1120.32
554.84	1126.82
555.19	1133.30
555.55	1139.74
555.90	1145.94
556.26	1152.69
556.61	1158.89
556.97	1164.77
557.32	1170.99
557.68	1176.93
558.03	1182.74
558.39	1188.60
558.74	1194.95
559.10	1200.92
559.45	1206.20
559.81	1212.14
560.16	1217.68
560.52	1223.26
560.87	1228.57
561.23	1233.26
561.58	1238.65
561.94	1243.47
562.29	1247.82
562.64	1252.52
563.00	1257.30
563.35	1262.43
563.71	1266.91
564.06	1272.11
564.42	1276.90
564.77	1281.67
565.12	1286.24
565.48	1290.67
565.83	1294.67
566.19	1298.54
566.54	1302.04
566.89	1306.16
567.25	1309.53
567.60	1313.23
567.96	1316.83
568.31	1320.52
568.66	1324.12
569.02	1327.03
569.37	1330.15
569.72	1333.67
570.08	1337.08
570.43	1339.80
570.78	1342.28
571.14	1344.57
571.49	1346.76
571.84	1349.70
572.20	1352.08
572.55	1354.40
572.90	1356.39
573.26	1358.43
573.61	1360.04
573.96	1361.97
574.31	1362.57
574.67	1363.19
575.02	1364.04
575.37	1365.04
575.72	1365.03
576.08	1366.21
576.43	1366.86
576.78	1367.40
577.13	1367.81
577.49	1368.04
577.84	1368.60
578.19	1368.99
578.54	1369.19
578.90	1368.92
579.25	1368.10
579.60	1367.61
579.95	1366.62
580.30	1365.71
580.66	1364.85
581.01	1364.13
581.36	1363.39
581.71	1363.39
582.06	1362.94
582.42	1362.09
582.77	1361.06
583.12	1360.67
583.47	1359.50
583.82	1358.90
584.17	1357.90
584.53	1356.81
584.88	1355.68
585.23	1354.31
585.58	1352.87
585.93	1351.63
586.28	1350.67
586.63	1349.77
586.98	1348.40
587.34	1347.46
587.69	1346.40
588.04	1345.49
588.39	1344.30
588.74	1342.04
589.09	1340.20
589.44	1338.49
589.79	1337.03
590.14	1335.44
590.49	1333.50
590.84	1331.43
591.19	1329.47
591.54	1326.95
591.89	1324.34
592.25	1322.22
592.60	1319.18
592.95	1316.38
593.30	1313.84
593.65	1311.09
594.00	1307.92
594.35	1305.41
594.70	1302.13
595.05	1299.43
595.40	1296.11
595.75	1292.58
596.10	1290.38
596.45	1287.78
596.80	1285.11
597.15	1282.41
597.50	1279.25
597.85	1276.61
598.19	1273.94
598.54	1271.17
598.89	1268.97
599.24	1266.84
599.59	1263.94
599.94	1261.67
600.29	1259.22
600.64	1256.03
600.99	1252.26
601.34	1249.48
601.69	1246.13
602.04	1243.41
602.39	1240.02
602.74	1237.41
603.08	1234.60
603.43	1231.66
603.78	1228.32
604.13	1224.69
604.48	1221.22
604.83	1217.98
605.18	1214.60
605.53	1210.55
605.87	1206.36
606.22	1202.62
606.57	1198.72
606.92	1194.82
607.27	1191.26
607.62	1187.72
607.96	1184.31
608.31	1181.23
608.66	1177.06
609.01	1173.10
609.36	1168.87
609.70	1164.48
610.05	1159.88
610.40	1155.73
610.75	1151.02
611.10	1146.71
611.44	1142.43
611.79	1137.99
612.14	1133.62
612.49	1128.59
612.83	1124.27
613.18	1119.91
613.53	1115.36
613.88	1110.55
614.22	1106.10
614.57	1101.25
614.92	1095.99
615.27	1091.27
615.61	1086.75
615.96	1082.50
616.31	1078.17
616.65	1074.20
617.00	1070.25
617.35	1066.14
617.70	1061.68
618.04	1057.30
618.39	1053.16
618.74	1049.09
619.08	1044.51
619.43	1040.26
619.78	1036.31
620.12	1031.90
620.47	1027.72
620.82	1022.92
621.16	1018.76
621.51	1014.48
621.85	1010.03
622.20	1005.57
622.55	1001.29
622.89	996.85
623.24	992.31
623.59	988.23
623.93	983.84
624.28	979.57
624.62	975.07
624.97	970.85
625.32	966.62
625.66	962.26
626.01	957.80
626.35	953.42
626.70	948.96
627.04	944.70
627.39	940.49
627.73	935.95
628.08	931.92
628.43	927.70
628.77	923.34
629.12	918.93
629.46	914.76
629.81	910.13
630.15	905.55
630.50	901.24
630.84	896.18
631.19	891.41
631.53	886.61
631.88	881.62
632.22	876.60
632.57	872.38
632.91	867.49
633.26	862.95
633.60	858.40
633.95	853.71
634.29	849.05
634.64	844.79
634.98	840.11
635.32	835.90
635.67	831.67
636.01	827.45
636.36	823.35
636.70	819.28
637.05	815.22
637.39	811.40
637.73	807.17
638.08	803.67
638.42	799.97
638.77	796.14
639.11	792.53
639.45	788.85
639.80	784.45
640.14	780.57
640.49	776.72
640.83	772.75
641.17	768.82
641.52	764.97
641.86	760.96
642.20	757.50
642.55	753.51
642.89	749.50
643.23	745.45
643.58	741.80
643.92	737.80
644.26	733.90
644.61	730.09
644.95	726.22
645.29	721.85
645.64	717.61
645.98	713.70
646.32	709.90
646.66	705.98
647.01	702.07
647.35	698.37
647.69	694.35
648.04	690.97
648.38	687.17
648.72	683.09
649.06	679.13
649.41	675.20
649.75	671.01
650.09	667.17
650.43	663.19
650.78	659.16
651.12	655.49
651.46	651.68
651.80	647.84
652.14	644.34
652.49	640.78
652.83	637.32
653.17	633.44
653.51	629.67
653.85	626.11
654.20	622.61
654.54	618.72
654.88	614.65
655.22	610.42
655.56	606.65
655.90	603.20
656.25	599.83
656.59	596.30
656.93	592.94
657.27	589.45
657.61	585.90
657.95	582.42
658.29	578.77
658.64	575.34
658.98	571.60
659.32	567.90
659.66	564.45
660.00	560.96
660.34	557.68
660.68	554.41
661.02	551.01
661.36	547.76
661.70	544.74
662.05	542.12
662.39	539.22
662.73	536.29
663.07	533.49
663.41	530.52
663.75	527.60
664.09	524.84
664.43	521.88
664.77	519.09
665.11	516.31
665.45	513.76
665.79	511.03
666.13	508.29
666.47	505.45
666.81	502.71
667.15	499.65
667.49	497.11
667.83	494.43
668.17	491.86
668.51	489.19
668.85	486.54
669.19	483.92
669.53	481.51
669.87	478.96
670.21	476.40
670.55	473.83
670.89	471.49
671.23	469.08
671.57	466.74
671.91	464.50
672.25	462.18
672.58	459.87
672.92	457.56
673.26	455.58
673.60	453.50
673.94	451.37
674.28	449.75
674.62	447.74
674.96	445.77
675.30	443.69
675.64	441.63
675.97	439.64
676.31	437.79
676.65	435.74
676.99	433.81
677.33	431.64
677.67	429.59
678.01	427.61
678.34	425.62
678.68	423.57
679.02	421.50
679.36	419.62
679.70	417.73
680.04	415.90
680.37	413.78
680.71	412.05
681.05	410.34
681.39	408.56
681.73	406.58
682.06	404.80
682.40	403.15
682.74	401.43
683.08	399.59
683.42	397.65
683.75	395.94
684.09	394.24
684.43	392.50
684.77	390.83
685.10	389.08
685.44	387.34
685.78	385.75
686.12	384.25
686.45	382.60
686.79	380.98
687.13	379.44
687.46	377.92
687.80	376.37
688.14	374.63
688.48	372.96
688.81	371.48
689.15	369.83
689.49	368.12
689.82	366.61
690.16	365.23
690.50	363.85
690.83	362.42
691.17	360.91
691.51	359.62
691.84	358.35
692.18	356.87
692.52	355.53
692.85	354.19
693.19	352.74
693.52	351.32
693.86	349.84
694.20	348.37
694.53	347.03
694.87	345.66
695.21	344.29
695.54	342.83
695.88	341.45
696.21	340.21
696.55	339.04
696.88	337.76
697.22	336.42
697.56	335.20
697.89	333.80
698.23	332.65
698.56	331.34
698.90	330.15
699.23	328.90
699.57	327.52
699.90	326.17
700.24	324.96
700.58	323.86
700.91	322.66
701.25	321.54
701.58	320.48
701.92	319.36
702.25	318.28
702.59	317.30
702.92	316.35
703.26	315.22
703.59	314.20
703.93	313.41
704.26	312.51
704.60	311.56
704.93	310.66
705.26	309.60
705.60	308.79
705.93	307.85
706.27	306.92
706.60	306.24
706.94	305.57
707.27	304.59
707.61	303.73
707.94	302.99
708.27	302.13
708.61	301.28
708.94	300.53
709.28	299.81
709.61	299.03
709.94	298.19
710.28	297.54
710.61	296.78
710.95	295.86
711.28	295.14
711.61	294.23
711.95	293.44
712.28	292.74
712.61	292.00
712.95	291.10
713.28	290.50
713.61	289.59
713.95	288.74
714.28	288.15
714.61	287.40
714.95	286.67
715.28	286.06
715.61	285.31
715.95	284.66
716.28	283.99
716.61	283.38
716.95	282.81
717.28	282.17
717.61	281.52
717.94	280.91
718.28	280.18
718.61	279.67
718.94	279.11
719.27	278.55
719.61	278.12
719.94	277.71
720.27	277.03
720.60	276.57
720.94	276.10
721.27	275.67
721.60	275.24
721.93	274.88
722.27	274.47
722.60	274.10
722.93	273.55
723.26	273.14
723.59	272.67
723.93	272.22
724.26	271.73
724.59	271.18
724.92	270.68
725.25	270.35
725.59	269.88
725.92	269.49
726.25	268.97
726.58	268.37
726.91	267.96
727.24	267.64
727.57	267.34
727.91	267.04
728.24	266.63
728.57	266.01
728.90	265.58
729.23	265.03
729.56	264.74
729.89	264.34
730.22	263.91
730.55	263.51
730.89	263.15
731.22	262.77
731.55	262.41
731.88	262.10
732.21	261.72
732.54	261.37
732.87	261.11
733.20	260.84
733.53	260.59
733.86	260.20
734.19	259.80
734.52	259.41
734.85	259.10
735.18	258.70
735.51	258.56
735.84	258.28
736.17	258.07
736.50	257.59
736.83	257.47
737.16	257.14
737.49	256.82
737.82	256.45
738.15	256.13
738.48	255.89
738.81	255.50
739.14	255.10
739.47	254.87
739.80	254.60
740.13	254.40
740.46	254.07
740.79	253.71
741.12	253.58
741.45	253.29
741.78	252.99
742.11	252.74
742.44	252.38
742.77	252.05
743.10	251.62
743.43	251.32
743.75	250.90
744.08	250.85
744.41	250.57
744.74	250.27
745.07	250.04
745.40	249.96
745.73	249.88
746.06	249.75
746.39	249.42
746.71	249.13
747.04	248.70
747.37	248.39
747.70	248.20
748.03	247.84
748.36	247.66
748.68	247.31
749.01	247.02
749.34	246.78
749.67	246.52
750.00	246.40
750.33	246.34
750.65	246.11
750.98	245.64
751.31	245.57
751.64	245.36
751.97	245.30
752.29	244.93
752.62	244.69
752.95	244.50
753.28	244.37
753.60	244.18
753.93	244.16
754.26	243.95
754.59	243.79
754.91	243.64
755.24	243.49
755.57	243.36
755.90	243.23
756.22	243.10
756.55	242.97
756.88	242.85
757.20	242.57
757.53	242.36
757.86	242.26
758.19	242.13
758.51	242.03
758.84	241.75
759.17	241.62
759.49	241.37
759.82	241.20
760.15	241.01
760.47	240.90
760.80	240.67
761.13	240.67
761.45	240.56
761.78	240.46
762.11	240.29
762.43	240.15
762.76	240.04
763.08	240.02
763.41	239.80
763.74	239.53
764.06	239.39
764.39	239.31
764.71	239.22
765.04	238.99
765.37	238.85
765.69	238.59
766.02	238.46
766.34	238.40
766.67	238.39
767.00	238.33
767.32	238.15
767.65	238.21
767.97	238.04
768.30	237.94
768.62	237.80
768.95	237.68
769.27	237.54
769.60	237.47
769.92	237.29
770.25	237.31
770.57	237.30
770.90	237.18
771.22	237.12
771.55	237.02
771.87	236.96
772.20	236.84
772.52	237.01
772.85	237.23
773.17	237.14
773.50	236.95
773.82	236.85
774.15	236.67
774.47	236.42
774.80	236.34
775.12	236.15
775.45	236.05
775.77	236.11
776.09	236.04
776.42	235.91
776.74	235.97
777.07	235.90
777.39	235.78
777.72	235.78
778.04	235.63
778.36	235.54
778.69	235.36
779.01	235.32
779.33	235.06
779.66	234.79
779.98	234.73
780.31	234.60
780.63	234.59
780.95	234.65
781.28	234.60
781.60	234.59
781.92	234.53
782.25	234.57
782.57	234.30
782.89	234.20
783.22	234.07
783.54	233.87
783.86	233.79
784.19	233.82
784.51	233.80
784.83	233.78
785.16	233.76
785.48	233.73
785.80	233.59
786.12	233.64
786.45	233.47
786.77	233.41
787.09	233.41
787.42	233.26
787.74	233.21
788.06	233.13
788.38	233.02
788.71	232.94
789.03	232.89
789.35	232.99
789.67	232.99
789.99	233.03
790.32	233.07
790.64	232.96
790.96	232.99
791.28	233.00
791.61	232.98
791.93	233.01
792.25	232.95
792.57	233.16
792.89	233.04
793.21	233.10
793.54	232.98
793.86	232.94
794.18	232.98
794.50	232.96
794.82	233.03
795.14	232.99
795.47	233.04
795.79	233.00
796.11	232.92
796.43	232.92
796.75	232.86
797.07	232.68
797.39	232.66
797.71	232.47
798.04	232.34
798.36	232.33
798.68	232.22
799.00	232.15
799.32	232.08
799.64	232.17
799.96	232.08
800.28	232.11
800.60	232.03
800.92	231.99
801.24	231.91
801.56	231.90
801.89	231.91
802.21	231.87
802.53	231.66
802.85	231.55
803.17	231.43
803.49	231.38
803.81	231.30
804.13	231.31
804.45	231.26
804.77	231.19
805.09	231.09
805.41	231.02
805.73	231.03
806.05	230.97
806.37	230.85
806.69	230.85
807.01	230.92
807.33	230.90
807.65	230.79
807.97	230.79
808.28	230.63
808.60	230.49
808.92	230.51
809.24	230.76
809.56	230.78
809.88	230.85
810.20	230.89
810.52	231.03
810.84	230.87
811.16	230.95
811.48	230.87
811.80	230.91
812.12	230.85
812.43	230.90
812.75	230.83
813.07	230.81
813.39	230.84
813.71	230.67
814.03	230.69
814.35	230.71
814.67	230.73
814.98	230.76
815.30	230.89
815.62	230.74
815.94	230.56
816.26	230.64
816.58	230.64
816.89	230.58
817.21	230.46
817.53	230.54
817.85	230.40
818.17	230.47
818.48	230.40
818.80	230.51
819.12	230.47
819.44	230.34
819.76	230.27
820.07	230.12
820.39	230.21
820.71	230.12
821.03	230.09
821.34	230.00
821.66	230.00
821.98	229.84
822.30	229.86
822.61	229.88
822.93	229.69
823.25	229.59
823.57	229.60
823.88	229.65
824.20	229.68
824.52	229.75
824.83	229.60
825.15	229.57
825.47	229.49
825.79	229.44
826.10	229.48
826.42	229.47
826.74	229.57
827.05	229.54
827.37	229.60
827.69	229.54
828.00	229.55
828.32	229.60
828.64	229.72
828.95	229.89
829.27	229.89
829.58	230.00
829.90	230.08
830.22	229.99
830.53	229.94
830.85	229.95
831.17	229.89
831.48	230.02
831.80	230.00
832.11	230.07
832.43	230.06
832.75	230.03
833.06	230.08
833.38	230.00
833.69	229.89
834.01	229.87
834.32	229.94
834.64	229.94
834.96	229.80
835.27	229.74
835.59	229.68
835.90	229.64
836.22	229.58
836.53	229.51
836.85	229.45
837.16	229.56
837.48	229.47
837.79	229.60
838.11	229.68
838.42	229.78
838.74	229.81
839.05	229.81
839.37	229.76
839.68	229.73
840.00	229.75
840.31	229.81
840.63	229.85
840.94	229.86
841.26	229.85
841.57	229.89
841.88	229.87
842.20	229.70
842.51	229.76
842.83	229.81
843.14	229.85
843.46	229.98
843.77	229.90
844.08	229.82
844.40	229.62
844.71	229.50
845.03	229.38
845.34	229.29
845.65	229.20
845.97	229.26
846.28	229.29
846.60	229.26
846.91	229.24
847.22	229.12
847.54	229.21
847.85	229.05
848.16	229.00
848.48	228.97
848.79	229.10
849.10	228.97
849.42	228.87
849.73	228.75
850.04	228.67
850.36	228.63
850.67	228.73
850.98	228.80
851.30	228.75
851.61	228.70
851.92	228.69
852.23	228.84
852.55	228.83
852.86	228.71
853.17	228.70
853.49	228.75
853.80	228.84
854.11	228.68
854.42	228.89
854.74	228.86
855.05	228.85
855.36	228.80
855.67	228.77
855.99	228.84
856.30	229.11
856.61	229.02
856.92	228.97
857.23	228.88
857.55	228.82
857.86	228.90
858.17	228.90
858.48	228.82
858.79	228.69
859.11	228.75
859.42	228.69
859.73	228.69
860.04	228.65
860.35	228.58
860.66	228.50
860.98	228.36
861.29	228.41
861.60	228.36
861.91	228.31
862.22	228.32
862.53	228.20
862.84	227.92
863.16	228.05
863.47	228.08
863.78	228.10
864.09	228.18
864.40	228.15
864.71	228.14
865.02	228.19
865.33	228.15
865.64	228.13
865.95	228.20
866.27	228.30
866.58	228.24
866.89	228.22
867.20	228.16
867.51	228.23
867.82	228.27
868.13	228.34
868.44	228.27
868.75	228.36
869.06	228.44
869.37	228.34
869.68	228.30
869.99	228.30
870.30	228.37
870.61	228.37
870.92	228.35
871.23	228.38
871.54	228.41
871.85	228.53
872.16	228.43
872.47	228.45
872.78	228.32
873.09	228.30
873.40	228.39
873.71	228.53
874.02	228.51
874.33	228.50
874.64	228.59
874.95	228.70
875.26	228.63
875.56	228.62
875.87	228.75
876.18	228.73
876.49	228.97
876.80	228.97
877.11	228.93
877.42	229.00
877.73	229.02
878.04	228.97
878.35	229.02
878.66	229.08
878.96	229.02
879.27	229.07
879.58	229.06
879.89	228.95
880.20	229.01
880.51	228.98
880.82	228.90
881.12	228.71
881.43	228.71
881.74	228.67
882.05	228.69
882.36	228.72
882.67	228.66
882.97	228.39
883.28	228.31
883.59	228.25
883.90	228.20
884.21	228.30
884.51	228.33
884.82	228.25
885.13	228.16
885.44	228.20
885.74	228.20
886.05	228.26
886.36	228.24
886.67	228.10
886.98	228.10
887.28	228.13
887.59	228.20
887.90	228.14
888.20	228.10
888.51	228.10
888.82	228.00
889.13	228.05
889.43	228.15
889.74	228.15
890.05	228.15
890.35	228.09
890.66	227.93
890.97	227.94
891.28	227.86
891.58	227.89
891.89	227.92
892.20	227.77
892.50	227.74
892.81	227.77
893.12	227.74
893.42	227.81
893.73	227.78
894.04	227.81
894.34	227.81
894.65	227.80
894.95	227.80
895.26	227.84
895.57	227.88
895.87	227.78
896.18	227.77
896.48	227.75
896.79	227.69
897.10	227.83
897.40	227.77
897.71	227.77
898.01	227.80
898.32	227.74
898.63	227.70
898.93	227.77
899.24	227.84
899.54	227.89
899.85	227.78
900.15	227.83
900.46	227.78
900.76	227.84
901.07	227.85
901.38	227.83
901.68	227.87
901.99	227.93
902.29	227.94
902.60	227.93
902.90	227.90
903.21	227.94
903.51	227.82
903.82	227.85
904.12	227.94
904.43	227.91
904.73	227.93
905.03	228.05
905.34	228.14
905.64	228.03
905.95	228.02
906.25	228.01
906.56	228.08
906.86	228.10
907.17	228.10
907.47	228.08
907.77	228.04
908.08	228.08
908.38	228.01
908.69	228.06
908.99	228.09
909.30	228.14
909.60	228.25
909.90	228.31
910.21	228.24
910.51	228.22
910.81	228.18
911.12	228.22
911.42	228.23
911.73	228.15
912.03	228.24
912.33	228.32
912.64	228.35
912.94	228.27
913.24	228.37
913.55	228.32
913.85	228.42
914.15	228.55
914.46	228.57
914.76	228.47
915.06	228.38
915.37	228.49
915.67	228.55
915.97	228.49
916.27	228.40
916.58	228.47
916.88	228.48
917.18	228.67
917.49	228.81
917.79	228.83
918.09	228.79
918.39	228.82
918.70	228.79
919.00	228.76
919.30	228.86
919.60	228.71
919.91	228.68
920.21	228.67
920.51	228.50
920.81	228.39
921.12	228.52
921.42	228.64
921.72	228.57
922.02	228.55
922.32	228.60
922.63	228.61
922.93	228.74
923.23	228.65
923.53	228.57
923.83	228.49
924.13	228.53
924.44	228.56
924.74	228.55
925.04	228.62
925.34	228.72
925.64	228.67
925.94	228.79
926.24	228.89
926.55	228.84
926.85	228.92
927.15	228.97
927.45	228.93
927.75	228.89
928.05	228.81
928.35	228.87
928.65	228.91
928.95	228.86
929.26	228.73
929.56	228.83
929.86	228.88
930.16	228.84
930.46	228.71
930.76	228.77
931.06	228.66
931.36	228.60
931.66	228.54
931.96	228.47
932.26	228.40
932.56	228.29
932.86	228.34
933.16	228.32
933.46	228.23
933.76	228.19
934.06	228.15
934.36	228.23
934.66	228.14
934.96	228.00
935.26	228.07
935.56	228.07
935.86	227.96
936.16	227.83
936.46	227.76
936.76	227.80
937.06	227.69
937.36	227.65
937.66	227.62
937.96	227.58
938.26	227.58
938.56	227.52
938.86	227.56
939.16	227.59
939.46	227.52
939.76	227.51
940.06	227.50
940.35	227.47
940.65	227.36
940.95	227.37
941.25	227.39
941.55	227.34
941.85	227.35
942.15	227.43
942.45	227.48
942.75	227.36
943.04	227.41
943.34	227.44
943.64	227.47
943.94	227.47
944.24	227.50
944.54	227.47
944.84	227.50
945.13	227.42
945.43	227.27
945.73	227.34
946.03	227.37
946.33	227.46
946.62	227.49
946.92	227.53
947.22	227.59
947.52	227.65
947.82	227.75
948.11	227.69
948.41	227.62
948.71	227.69
949.01	227.80
949.31	227.82
949.60	227.85
949.90	227.98
950.20	227.94
950.50	227.94
950.79	228.00
951.09	227.99
951.39	228.10
951.69	228.19
951.98	228.30
952.28	228.32
952.58	228.34
952.87	228.38
953.17	228.45
953.47	228.42
953.76	228.37
954.06	228.34
954.36	228.41
954.66	228.55
954.95	228.57
955.25	228.65
955.55	228.63
955.84	228.58
956.14	228.54
956.44	228.64
956.73	228.56
957.03	228.54
957.32	228.60
957.62	228.60
957.92	228.60
958.21	228.50
958.51	228.70
958.81	228.66
959.10	228.63
959.40	228.63
959.69	228.65
959.99	228.75
960.29	228.78
960.58	228.73
960.88	228.78
961.17	228.70
961.47	228.74
961.76	228.71
962.06	228.78
962.36	228.75
962.65	228.74
962.95	228.86
963.24	228.91
963.54	228.93
963.83	228.87
964.13	229.01
964.42	229.00
964.72	228.90
965.01	228.91
965.31	228.89
965.60	228.88
965.90	229.02
966.19	228.91
966.49	228.80
966.78	228.83
967.08	228.70
967.37	228.73
967.67	228.72
967.96	228.73
968.26	228.73
968.55	228.80
968.85	228.80
969.14	228.80
969.43	228.75
969.73	228.73
970.02	228.79
970.32	228.64
970.61	228.71
970.91	228.63
971.20	228.46
971.49	228.48
971.79	228.52
972.08	228.36
972.38	228.46
972.67	228.52
972.96	228.52
973.26	228.55
973.55	228.60
973.85	228.52
974.14	228.52
974.43	228.50
974.73	228.48
975.02	228.43
975.31	228.33
975.61	228.35
975.90	228.31
976.19	228.26
976.49	228.21
976.78	228.14
977.07	228.15
977.37	228.30
977.66	228.30
977.95	228.14
978.24	228.12
978.54	228.08
978.83	228.00
979.12	227.98
979.42	227.95
979.71	228.02
980.00	228.02
980.29	228.05
980.59	227.97
980.88	228.07
981.17	228.09
981.46	228.23
981.76	228.27
982.05	228.27
982.34	228.23
982.63	228.30
982.93	228.34
983.22	228.46
983.51	228.45
983.80	228.42
984.09	228.55
984.39	228.57
984.68	228.56
984.97	228.62
985.26	228.62
985.55	228.62
985.85	228.44
986.14	228.43
986.43	228.41
986.72	228.50
987.01	228.40
987.30	228.44
987.59	228.33
987.89	228.28
988.18	228.28
988.47	228.31
988.76	228.33
989.05	228.32
989.34	228.22
989.63	228.27
989.92	228.21
990.22	228.20
990.51	228.17
990.80	228.18
991.09	228.25
991.38	228.30
991.67	228.30
991.96	228.33
992.25	228.35
992.54	228.31
992.83	228.23
993.12	228.20
993.41	228.14
993.70	228.26
993.99	228.22
994.28	228.33
994.58	228.33
994.87	228.40
995.16	228.38
995.45	228.41
995.74	228.24
996.03	228.36
996.32	228.49
996.61	228.53
996.90	228.52
997.19	228.45
997.48	228.45
997.77	228.49
998.06	228.58
998.34	228.53
998.63	228.53
998.92	228.54
999.21	228.52
999.50	228.57
999.79	228.48
1000.08	228.62
1000.37	228.55
1000.66	228.60
1000.95	228.60
1001.24	228.58
1001.53	228.58
1001.82	228.67
1002.11	228.62
1002.40	228.53
1002.68	228.66
1002.97	228.88
1003.26	228.80
1003.55	228.73
1003.84	228.67
1004.13	228.68
1004.42	228.72
1004.71	228.74
1004.99	228.78
1005.28	228.92
1005.57	228.85
1005.86	228.93
1006.15	228.84
1006.44	228.75
1006.72	228.71
1007.01	228.63
1007.30	228.68
1007.59	228.68
1007.88	228.69
1008.17	228.73
1008.45	228.70
1008.74	228.52
1009.03	228.39
1009.32	228.43
1009.60	228.35
1009.89	228.34
1010.18	228.25
1010.47	228.22
1010.76	228.21
1011.04	228.20
1011.33	228.09
1011.62	228.26
1011.91	228.23
1012.19	228.24
1012.48	228.33
1012.77	228.42
1013.05	228.54
1013.34	228.47
1013.63	228.39
1013.92	228.45
1014.20	228.40
1014.49	228.34
1014.78	228.36
1015.06	228.25
1015.35	228.21
1015.64	228.34
1015.92	228.36
1016.21	228.33
1016.50	228.35
1016.78	228.36
1017.07	228.33
1017.36	228.37
1017.64	228.29
1017.93	228.30
1018.22	228.24
1018.50	228.23
1018.79	228.13
1019.08	228.05
1019.36	228.10
1019.65	228.13
1019.93	228.17
1020.22	228.26
1020.51	228.37
1020.79	228.35
1021.08	227.80
1021.36	227.70
1021.65	227.90
1021.94	228.90
1022.22	228.40
1022.51	228.30
1022.79	229.70
1023.08	229.60
1023.36	230.50
1023.65	227.30
>>>>>End Processed Spectral Data<<<<<
