SpectraSuite Data File
++++++++++++++++++++++++++++++++++++
Date: Fri Feb 01 14:38:05 EST 2013
User: group
Dark Spectrum Present: No
Reference Spectrum Present: No
Number of Sampled Component Spectra: 1
Spectrometers: USB2E7196
Integration Time (usec): 70000 (USB2E7196)
Spectra Averaged: 10 (USB2E7196)
Boxcar Smoothing: 10 (USB2E7196)
Correct for Electrical Dark: No (USB2E7196)
Strobe/Lamp Enabled: No (USB2E7196)
Correct for Detector Non-linearity: No (USB2E7196)
Correct for Stray Light: No (USB2E7196)
Number of Pixels in Processed Spectrum: 2048
>>>>>Begin Processed Spectral Data<<<<<
339.09	0.00
339.48	215.40
339.86	216.00
340.24	218.20
340.63	220.20
341.01	224.70
341.39	221.80
341.78	223.70
342.16	226.30
342.54	226.60
342.93	214.30
343.31	225.15
343.69	225.69
344.07	226.24
344.46	226.79
344.84	227.08
345.22	227.21
345.60	227.63
345.99	227.79
346.37	227.89
346.75	227.95
347.13	227.95
347.52	227.87
347.90	227.94
348.28	227.95
348.66	228.02
349.05	227.90
349.43	228.00
349.81	227.98
350.19	228.07
350.57	228.11
350.96	228.13
351.34	228.20
351.72	228.22
352.10	228.29
352.48	228.19
352.87	228.38
353.25	228.40
353.63	228.22
354.01	228.26
354.39	228.28
354.77	228.38
355.15	228.58
355.54	228.56
355.92	228.54
356.30	228.68
356.68	228.82
357.06	228.92
357.44	229.01
357.82	229.08
358.20	229.04
358.58	229.10
358.97	229.27
359.35	229.27
359.73	229.41
360.11	229.44
360.49	229.55
360.87	229.60
361.25	229.76
361.63	229.86
362.01	229.89
362.39	229.91
362.77	229.91
363.15	230.05
363.53	230.13
363.91	230.22
364.29	230.15
364.67	230.02
365.05	230.05
365.43	229.93
365.81	229.93
366.19	230.20
366.57	230.27
366.95	230.14
367.33	230.12
367.71	230.19
368.09	230.25
368.47	230.24
368.85	230.12
369.23	230.08
369.61	230.06
369.99	230.19
370.37	230.14
370.75	230.23
371.13	230.02
371.51	230.00
371.89	229.96
372.27	229.95
372.65	229.86
373.03	229.85
373.41	229.81
373.78	229.76
374.16	229.54
374.54	229.35
374.92	229.33
375.30	229.26
375.68	229.06
376.06	229.04
376.44	229.00
376.82	228.93
377.19	228.86
377.57	228.71
377.95	228.51
378.33	228.58
378.71	228.44
379.09	228.37
379.47	228.24
379.84	228.15
380.22	228.06
380.60	227.93
380.98	227.78
381.36	227.65
381.73	227.55
382.11	227.53
382.49	227.40
382.87	227.32
383.25	227.31
383.62	227.44
384.00	227.27
384.38	227.19
384.76	227.21
385.13	227.19
385.51	227.18
385.89	227.05
386.27	226.95
386.64	226.85
387.02	226.74
387.40	226.68
387.78	226.57
388.15	226.51
388.53	226.49
388.91	226.41
389.29	226.44
389.66	226.44
390.04	226.37
390.42	226.46
390.79	226.43
391.17	226.35
391.55	226.18
391.92	226.23
392.30	226.29
392.68	226.17
393.05	226.08
393.43	226.25
393.81	226.40
394.18	226.32
394.56	226.40
394.94	226.49
395.31	226.53
395.69	226.67
396.06	226.71
396.44	226.80
396.82	226.88
397.19	227.05
397.57	227.13
397.95	227.13
398.32	227.19
398.70	227.31
399.07	227.44
399.45	227.51
399.82	227.53
400.20	227.56
400.58	227.77
400.95	227.84
401.33	227.84
401.70	228.08
402.08	228.27
402.45	228.40
402.83	228.59
403.20	228.70
403.58	228.84
403.95	229.06
404.33	229.23
404.71	229.47
405.08	229.70
405.46	229.88
405.83	230.10
406.21	230.30
406.58	230.48
406.96	230.71
407.33	231.00
407.70	231.28
408.08	231.61
408.45	231.76
408.83	232.11
409.20	232.48
409.58	232.59
409.95	232.90
410.33	233.21
410.70	233.55
411.08	234.00
411.45	234.36
411.82	234.68
412.20	235.13
412.57	235.66
412.95	235.96
413.32	236.42
413.69	237.08
414.07	237.61
414.44	238.23
414.82	238.85
415.19	239.53
415.56	240.23
415.94	240.92
416.31	241.94
416.68	242.78
417.06	243.68
417.43	244.63
417.81	245.59
418.18	246.61
418.55	247.62
418.93	248.67
419.30	249.90
419.67	251.22
420.04	252.47
420.42	253.79
420.79	255.56
421.16	257.20
421.54	258.86
421.91	260.63
422.28	262.39
422.66	264.30
423.03	266.22
423.40	268.10
423.77	270.18
424.15	272.06
424.52	274.17
424.89	276.40
425.26	278.51
425.64	280.65
426.01	282.90
426.38	285.37
426.75	287.82
427.13	290.40
427.50	293.10
427.87	295.93
428.24	298.75
428.61	301.37
428.99	304.26
429.36	307.38
429.73	310.58
430.10	313.57
430.47	316.67
430.85	319.81
431.22	323.26
431.59	327.03
431.96	330.59
432.33	334.63
432.70	338.43
433.08	342.91
433.45	347.04
433.82	351.22
434.19	355.71
434.56	360.37
434.93	364.42
435.30	368.69
435.68	373.40
436.05	377.94
436.42	382.43
436.79	386.66
437.16	391.22
437.53	395.81
437.90	400.49
438.27	405.08
438.64	409.80
439.01	414.28
439.38	417.92
439.75	421.75
440.13	425.97
440.50	430.07
440.87	433.54
441.24	436.93
441.61	440.69
441.98	443.57
442.35	446.90
442.72	450.42
443.09	453.65
443.46	455.81
443.83	457.33
444.20	458.57
444.57	460.51
444.94	461.44
445.31	462.42
445.68	463.76
446.05	464.37
446.42	464.48
446.79	464.20
447.16	464.00
447.53	463.98
447.90	462.62
448.27	461.39
448.64	459.24
449.01	458.26
449.37	455.71
449.74	453.07
450.11	449.95
450.48	446.57
450.85	442.98
451.22	439.86
451.59	436.86
451.96	434.12
452.33	430.14
452.70	426.60
453.07	422.47
453.43	417.92
453.80	413.89
454.17	409.77
454.54	406.09
454.91	401.94
455.28	397.75
455.65	393.97
456.02	390.10
456.38	386.88
456.75	382.59
457.12	379.16
457.49	375.73
457.86	372.22
458.23	369.22
458.59	366.07
458.96	362.88
459.33	360.15
459.70	357.21
460.07	355.00
460.43	352.25
460.80	349.62
461.17	347.46
461.54	345.00
461.91	342.65
462.27	340.16
462.64	338.18
463.01	336.00
463.38	333.80
463.74	331.53
464.11	329.50
464.48	327.89
464.85	325.92
465.21	324.62
465.58	323.17
465.95	321.40
466.32	319.91
466.68	318.21
467.05	316.53
467.42	315.12
467.78	313.43
468.15	311.86
468.52	310.73
468.88	309.12
469.25	307.84
469.62	306.70
469.98	305.54
470.35	304.39
470.72	303.39
471.08	302.18
471.45	301.21
471.82	300.32
472.18	299.08
472.55	298.30
472.92	297.22
473.28	296.25
473.65	295.44
474.02	294.59
474.38	293.90
474.75	293.26
475.11	292.58
475.48	291.93
475.85	291.36
476.21	290.86
476.58	290.40
476.94	289.85
477.31	289.48
477.67	289.07
478.04	288.68
478.41	288.30
478.77	288.12
479.14	287.65
479.50	287.29
479.87	287.06
480.23	286.81
480.60	286.60
480.96	286.38
481.33	286.20
481.69	285.97
482.06	285.83
482.42	285.66
482.79	285.47
483.15	285.44
483.52	285.58
483.88	285.36
484.25	285.29
484.61	285.22
484.98	285.15
485.34	285.28
485.71	285.49
486.07	285.61
486.44	285.57
486.80	285.66
487.17	285.83
487.53	286.13
487.90	286.31
488.26	286.56
488.62	286.71
488.99	286.86
489.35	287.21
489.72	287.47
490.08	287.72
490.44	288.05
490.81	288.31
491.17	288.60
491.54	289.04
491.90	289.37
492.26	289.81
492.63	290.09
492.99	290.39
493.36	290.71
493.72	291.02
494.08	291.41
494.45	292.02
494.81	292.41
495.17	292.78
495.54	293.20
495.90	293.49
496.26	294.10
496.63	294.67
496.99	295.12
497.35	295.51
497.72	296.12
498.08	296.47
498.44	296.88
498.80	297.26
499.17	297.63
499.53	298.01
499.89	298.37
500.26	298.80
500.62	299.04
500.98	299.46
501.34	299.78
501.71	300.19
502.07	300.57
502.43	300.87
502.79	301.10
503.16	301.46
503.52	301.79
503.88	301.96
504.24	302.07
504.60	302.17
504.97	302.36
505.33	302.32
505.69	302.67
506.05	302.79
506.41	303.03
506.78	303.20
507.14	303.35
507.50	303.66
507.86	303.85
508.22	304.17
508.59	304.26
508.95	304.49
509.31	304.77
509.67	304.71
510.03	304.96
510.39	305.18
510.75	305.25
511.12	305.50
511.48	305.63
511.84	305.92
512.20	306.17
512.56	306.51
512.92	306.91
513.28	307.01
513.64	307.49
514.00	307.78
514.37	308.14
514.73	308.59
515.09	308.90
515.45	309.31
515.81	309.66
516.17	310.14
516.53	310.68
516.89	311.19
517.25	312.00
517.61	312.83
517.97	313.66
518.33	314.46
518.69	315.43
519.05	316.47
519.41	317.42
519.77	318.68
520.13	319.85
520.49	320.95
520.85	322.36
521.21	323.70
521.57	325.22
521.93	326.63
522.29	328.11
522.65	329.53
523.01	331.17
523.37	332.86
523.73	334.78
524.09	336.64
524.45	338.50
524.81	340.39
525.17	342.37
525.53	344.48
525.89	346.80
526.25	349.01
526.61	351.36
526.97	353.74
527.33	356.14
527.68	358.90
528.04	361.60
528.40	364.09
528.76	366.87
529.12	369.80
529.48	372.73
529.84	375.71
530.20	379.10
530.56	382.48
530.91	385.78
531.27	389.16
531.63	392.54
531.99	396.09
532.35	399.64
532.71	403.35
533.07	407.03
533.42	411.09
533.78	415.23
534.14	419.30
534.50	423.46
534.86	427.69
535.21	431.75
535.57	436.23
535.93	440.77
536.29	445.39
536.65	449.85
537.00	454.42
537.36	459.36
537.72	463.86
538.08	468.52
538.44	473.23
538.79	478.07
539.15	482.83
539.51	487.95
539.87	493.11
540.22	498.05
540.58	503.26
540.94	508.13
541.29	513.08
541.65	518.14
542.01	523.30
542.37	528.60
542.72	533.78
543.08	538.92
543.44	544.22
543.79	549.20
544.15	554.50
544.51	560.03
544.87	565.22
545.22	570.72
545.58	576.13
545.94	581.55
546.29	586.77
546.65	592.32
547.01	597.65
547.36	603.03
547.72	608.35
548.07	613.61
548.43	619.01
548.79	624.18
549.14	629.60
549.50	635.00
549.86	640.03
550.21	645.45
550.57	650.85
550.92	656.08
551.28	661.49
551.64	666.72
551.99	672.11
552.35	677.39
552.70	682.44
553.06	687.79
553.41	693.22
553.77	698.57
554.13	703.92
554.48	709.02
554.84	714.10
555.19	719.41
555.55	724.65
555.90	729.69
556.26	734.98
556.61	740.10
556.97	745.16
557.32	750.27
557.68	754.98
558.03	759.82
558.39	764.78
558.74	769.99
559.10	774.97
559.45	779.86
559.81	784.70
560.16	789.37
560.52	794.00
560.87	798.83
561.23	803.28
561.58	808.03
561.94	812.83
562.29	817.39
562.64	821.72
563.00	826.12
563.35	830.68
563.71	835.11
564.06	839.48
564.42	843.75
564.77	848.07
565.12	852.64
565.48	856.99
565.83	860.97
566.19	864.77
566.54	868.85
566.89	872.38
567.25	876.38
567.60	880.75
567.96	884.65
568.31	888.28
568.66	892.20
569.02	895.82
569.37	899.11
569.72	902.54
570.08	905.88
570.43	909.13
570.78	912.30
571.14	915.09
571.49	918.02
571.84	921.23
572.20	923.91
572.55	926.50
572.90	928.80
573.26	931.72
573.61	934.52
573.96	936.75
574.31	938.86
574.67	940.85
575.02	942.69
575.37	944.53
575.72	946.18
576.08	947.84
576.43	949.38
576.78	951.15
577.13	952.77
577.49	954.53
577.84	956.03
578.19	957.42
578.54	958.99
578.90	960.14
579.25	960.89
579.60	961.86
579.95	962.61
580.30	963.82
580.66	964.91
581.01	965.31
581.36	966.06
581.71	967.25
582.06	968.11
582.42	968.78
582.77	969.06
583.12	969.59
583.47	970.27
583.82	970.71
584.17	971.11
584.53	971.50
584.88	971.69
585.23	972.06
585.58	972.03
585.93	972.15
586.28	972.37
586.63	972.84
586.98	973.21
587.34	973.71
587.69	973.72
588.04	973.24
588.39	973.11
588.74	972.48
589.09	971.85
589.44	971.10
589.79	970.74
590.14	970.80
590.49	970.30
590.84	969.66
591.19	969.18
591.54	968.03
591.89	966.67
592.25	966.11
592.60	964.94
592.95	963.90
593.30	962.84
593.65	961.60
594.00	960.19
594.35	959.10
594.70	957.60
595.05	956.46
595.40	955.14
595.75	953.75
596.10	952.93
596.45	952.04
596.80	951.08
597.15	949.59
597.50	947.85
597.85	946.88
598.19	945.58
598.54	944.08
598.89	942.93
599.24	942.09
599.59	940.30
599.94	939.03
600.29	937.77
600.64	936.18
600.99	934.35
601.34	933.04
601.69	931.13
602.04	929.60
602.39	927.67
602.74	926.31
603.08	924.96
603.43	923.40
603.78	921.42
604.13	919.45
604.48	917.96
604.83	916.48
605.18	914.32
605.53	912.23
605.87	910.16
606.22	908.24
606.57	906.00
606.92	904.11
607.27	902.32
607.62	900.57
607.96	898.64
608.31	896.78
608.66	894.27
609.01	891.81
609.36	889.09
609.70	886.31
610.05	883.57
610.40	880.85
610.75	878.12
611.10	875.57
611.44	872.89
611.79	870.10
612.14	867.05
612.49	863.97
612.83	861.22
613.18	858.40
613.53	855.55
613.88	852.66
614.22	849.48
614.57	846.15
614.92	842.90
615.27	840.24
615.61	837.53
615.96	834.75
616.31	832.49
616.65	830.24
617.00	827.84
617.35	825.08
617.70	822.19
618.04	819.04
618.39	816.21
618.74	813.51
619.08	810.54
619.43	807.85
619.78	805.50
620.12	802.45
620.47	799.60
620.82	796.67
621.16	794.03
621.51	791.45
621.85	788.70
622.20	785.83
622.55	782.83
622.89	779.85
623.24	777.19
623.59	774.21
623.93	771.18
624.28	768.28
624.62	765.55
624.97	762.95
625.32	760.59
625.66	757.85
626.01	755.20
626.35	752.34
626.70	749.62
627.04	746.78
627.39	743.92
627.73	741.04
628.08	738.26
628.43	735.29
628.77	732.44
629.12	729.40
629.46	726.48
629.81	723.35
630.15	720.15
630.50	716.88
630.84	713.68
631.19	710.43
631.53	707.53
631.88	704.10
632.22	700.75
632.57	697.57
632.91	694.31
633.26	691.01
633.60	687.89
633.95	684.73
634.29	681.60
634.64	678.78
634.98	675.69
635.32	672.99
635.67	670.20
636.01	667.33
636.36	664.47
636.70	661.59
637.05	658.78
637.39	656.22
637.73	653.60
638.08	651.12
638.42	648.69
638.77	645.77
639.11	643.08
639.45	640.51
639.80	637.76
640.14	634.97
640.49	632.31
640.83	629.88
641.17	627.37
641.52	624.67
641.86	622.00
642.20	619.41
642.55	616.48
642.89	613.79
643.23	610.96
643.58	608.56
643.92	606.04
644.26	603.30
644.61	600.77
644.95	598.13
645.29	595.10
645.64	592.32
645.98	589.76
646.32	587.23
646.66	584.61
647.01	581.93
647.35	579.57
647.69	576.94
648.04	574.17
648.38	571.29
648.72	568.32
649.06	565.35
649.41	562.64
649.75	559.78
650.09	556.97
650.43	554.14
650.78	551.12
651.12	548.13
651.46	545.56
651.80	542.80
652.14	540.11
652.49	537.59
652.83	535.04
653.17	532.34
653.51	529.76
653.85	526.99
654.20	524.32
654.54	521.41
654.88	518.63
655.22	515.84
655.56	513.23
655.90	510.97
656.25	508.79
656.59	506.31
656.93	504.03
657.27	501.58
657.61	499.03
657.95	496.75
658.29	494.65
658.64	492.25
658.98	489.88
659.32	487.23
659.66	484.75
660.00	482.24
660.34	479.76
660.68	477.26
661.02	474.72
661.36	472.50
661.70	470.46
662.05	468.42
662.39	466.21
662.73	464.18
663.07	462.11
663.41	459.85
663.75	457.60
664.09	455.33
664.43	453.18
664.77	451.28
665.11	449.27
665.45	447.00
665.79	444.90
666.13	442.71
666.47	440.82
666.81	438.83
667.15	436.73
667.49	434.90
667.83	433.14
668.17	431.33
668.51	429.30
668.85	427.27
669.19	425.35
669.53	423.51
669.87	421.55
670.21	419.49
670.55	417.84
670.89	416.31
671.23	414.79
671.57	413.12
671.91	411.44
672.25	409.48
672.58	407.75
672.92	406.14
673.26	404.50
673.60	402.80
673.94	401.22
674.28	399.75
674.62	398.21
674.96	396.66
675.30	395.28
675.64	393.66
675.97	392.13
676.31	390.49
676.65	388.94
676.99	387.48
677.33	385.93
677.67	384.38
678.01	382.84
678.34	381.16
678.68	379.77
679.02	378.18
679.36	376.89
679.70	375.59
680.04	374.02
680.37	372.68
680.71	371.35
681.05	370.07
681.39	368.65
681.73	367.40
682.06	365.99
682.40	364.70
682.74	363.36
683.08	362.22
683.42	360.99
683.75	359.82
684.09	358.52
684.43	357.49
684.77	356.11
685.10	354.79
685.44	353.63
685.78	352.46
686.12	351.35
686.45	349.97
686.79	348.73
687.13	347.58
687.46	346.27
687.80	345.01
688.14	343.72
688.48	342.75
688.81	341.36
689.15	340.31
689.49	339.06
689.82	338.15
690.16	336.92
690.50	335.88
690.83	334.70
691.17	333.46
691.51	332.26
691.84	331.38
692.18	330.21
692.52	328.99
692.85	327.83
693.19	326.81
693.52	325.83
693.86	324.70
694.20	323.73
694.53	322.65
694.87	321.80
695.21	320.79
695.54	319.50
695.88	318.51
696.21	317.47
696.55	316.51
696.88	315.48
697.22	314.41
697.56	313.39
697.89	312.42
698.23	311.62
698.56	310.64
698.90	309.46
699.23	308.62
699.57	307.89
699.90	306.92
700.24	306.00
700.58	305.20
700.91	304.35
701.25	303.58
701.58	302.88
701.92	302.01
702.25	301.13
702.59	300.53
702.92	299.75
703.26	298.97
703.59	298.11
703.93	297.46
704.26	296.83
704.60	296.13
704.93	295.36
705.26	294.54
705.60	293.96
705.93	293.38
706.27	292.75
706.60	292.05
706.94	291.48
707.27	290.83
707.61	290.23
707.94	289.58
708.27	288.73
708.61	288.06
708.94	287.37
709.28	286.80
709.61	286.20
709.94	285.76
710.28	285.14
710.61	284.74
710.95	283.98
711.28	283.44
711.61	282.79
711.95	282.21
712.28	281.56
712.61	280.83
712.95	280.30
713.28	279.80
713.61	279.20
713.95	278.57
714.28	277.85
714.61	277.31
714.95	276.80
715.28	276.28
715.61	275.69
715.95	275.13
716.28	274.54
716.61	273.93
716.95	273.29
717.28	272.87
717.61	272.27
717.94	271.75
718.28	271.11
718.61	270.64
718.94	270.28
719.27	269.96
719.61	269.66
719.94	269.27
720.27	268.63
720.60	268.20
720.94	267.82
721.27	267.59
721.60	267.10
721.93	266.75
722.27	266.36
722.60	266.01
722.93	265.65
723.26	265.40
723.59	265.00
723.93	264.67
724.26	264.30
724.59	263.90
724.92	263.52
725.25	263.23
725.59	262.97
725.92	262.59
726.25	262.26
726.58	261.78
726.91	261.40
727.24	261.16
727.57	260.80
727.91	260.41
728.24	260.14
728.57	259.90
728.90	259.56
729.23	259.34
729.56	259.11
729.89	258.67
730.22	258.24
730.55	257.91
730.89	257.52
731.22	257.19
731.55	256.93
731.88	256.72
732.21	256.41
732.54	255.97
732.87	255.76
733.20	255.43
733.53	255.20
733.86	254.94
734.19	254.62
734.52	254.39
734.85	254.22
735.18	253.86
735.51	253.51
735.84	253.29
736.17	252.94
736.50	252.53
736.83	252.57
737.16	252.34
737.49	252.18
737.82	252.02
738.15	251.63
738.48	251.40
738.81	251.19
739.14	250.90
739.47	250.76
739.80	250.50
740.13	250.24
740.46	249.91
740.79	249.56
741.12	249.26
741.45	248.97
741.78	248.75
742.11	248.49
742.44	248.22
742.77	248.04
743.10	247.86
743.43	247.65
743.75	247.23
744.08	247.23
744.41	246.92
744.74	246.70
745.07	246.44
745.40	246.22
745.73	246.12
746.06	245.93
746.39	245.80
746.71	245.56
747.04	245.40
747.37	245.22
747.70	245.14
748.03	245.12
748.36	245.01
748.68	244.70
749.01	244.40
749.34	244.26
749.67	244.03
750.00	243.94
750.33	243.97
750.65	243.83
750.98	243.53
751.31	243.38
751.64	243.22
751.97	243.27
752.29	243.11
752.62	242.70
752.95	242.55
753.28	242.26
753.60	242.11
753.93	241.96
754.26	241.87
754.59	241.63
754.91	241.28
755.24	241.12
755.57	240.98
755.90	240.84
756.22	240.75
756.55	240.53
756.88	240.35
757.20	240.06
757.53	239.97
757.86	239.85
758.19	239.76
758.51	239.62
758.84	239.34
759.17	239.24
759.49	239.26
759.82	239.21
760.15	239.10
760.47	238.99
760.80	238.80
761.13	238.75
761.45	238.69
761.78	238.68
762.11	238.60
762.43	238.52
762.76	238.56
763.08	238.40
763.41	238.32
763.74	238.20
764.06	238.08
764.39	237.96
764.71	237.77
765.04	237.59
765.37	237.34
765.69	237.29
766.02	237.05
766.34	236.91
766.67	236.75
767.00	236.62
767.32	236.62
767.65	236.63
767.97	236.44
768.30	236.26
768.62	236.11
768.95	235.89
769.27	235.78
769.60	235.63
769.92	235.46
770.25	235.39
770.57	235.22
770.90	235.10
771.22	234.99
771.55	234.92
771.87	234.85
772.20	234.87
772.52	234.95
772.85	235.28
773.17	235.09
773.50	235.00
773.82	234.96
774.15	234.76
774.47	234.58
774.80	234.56
775.12	234.43
775.45	234.44
775.77	234.38
776.09	234.39
776.42	234.27
776.74	234.29
777.07	234.18
777.39	234.13
777.72	234.03
778.04	233.96
778.36	233.90
778.69	233.83
779.01	233.70
779.33	233.43
779.66	233.00
779.98	232.97
780.31	232.86
780.63	232.94
780.95	233.00
781.28	233.01
781.60	232.90
781.92	232.88
782.25	232.75
782.57	232.65
782.89	232.61
783.22	232.60
783.54	232.51
783.86	232.49
784.19	232.40
784.51	232.49
784.83	232.40
785.16	232.28
785.48	232.26
785.80	232.12
786.12	232.16
786.45	232.12
786.77	232.11
787.09	232.11
787.42	231.86
787.74	231.73
788.06	231.69
788.38	231.70
788.71	231.67
789.03	231.75
789.35	231.86
789.67	231.75
789.99	231.72
790.32	231.62
790.64	231.60
790.96	231.62
791.28	231.45
791.61	231.40
791.93	231.42
792.25	231.39
792.57	231.59
792.89	231.48
793.21	231.53
793.54	231.52
793.86	231.46
794.18	231.48
794.50	231.55
794.82	231.59
795.14	231.53
795.47	231.64
795.79	231.55
796.11	231.46
796.43	231.51
796.75	231.55
797.07	231.61
797.39	231.57
797.71	231.53
798.04	231.66
798.36	231.70
798.68	231.70
799.00	231.74
799.32	231.60
799.64	231.62
799.96	231.59
800.28	231.57
800.60	231.60
800.92	231.64
801.24	231.59
801.56	231.54
801.89	231.57
802.21	231.50
802.53	231.42
802.85	231.47
803.17	231.42
803.49	231.39
803.81	231.41
804.13	231.38
804.45	231.46
804.77	231.39
805.09	231.41
805.41	231.31
805.73	231.23
806.05	231.35
806.37	231.36
806.69	231.33
807.01	231.31
807.33	231.24
807.65	231.18
807.97	231.20
808.28	231.03
808.60	231.01
808.92	230.95
809.24	231.04
809.56	230.92
809.88	230.82
810.20	230.77
810.52	230.68
810.84	230.74
811.16	230.55
811.48	230.54
811.80	230.61
812.12	230.67
812.43	230.69
812.75	230.57
813.07	230.50
813.39	230.50
813.71	230.50
814.03	230.47
814.35	230.44
814.67	230.32
814.98	230.40
815.30	230.29
815.62	230.25
815.94	230.16
816.26	230.26
816.58	230.26
816.89	230.20
817.21	230.21
817.53	230.15
817.85	230.18
818.17	230.12
818.48	229.97
818.80	230.01
819.12	229.90
819.44	229.73
819.76	229.71
820.07	229.68
820.39	229.57
820.71	229.60
821.03	229.51
821.34	229.46
821.66	229.51
821.98	229.57
822.30	229.52
822.61	229.59
822.93	229.50
823.25	229.45
823.57	229.41
823.88	229.36
824.20	229.30
824.52	229.26
824.83	229.26
825.15	229.15
825.47	229.05
825.79	229.09
826.10	229.17
826.42	229.12
826.74	229.08
827.05	228.99
827.37	229.04
827.69	229.06
828.00	229.09
828.32	229.02
828.64	228.88
828.95	228.96
829.27	228.93
829.58	228.89
829.90	228.86
830.22	228.99
830.53	228.97
830.85	228.88
831.17	228.90
831.48	228.92
831.80	228.86
832.11	228.82
832.43	228.70
832.75	228.73
833.06	228.83
833.38	228.85
833.69	228.88
834.01	228.79
834.32	228.81
834.64	228.74
834.96	228.73
835.27	228.81
835.59	228.76
835.90	228.66
836.22	228.62
836.53	228.60
836.85	228.51
837.16	228.67
837.48	228.74
837.79	228.73
838.11	228.63
838.42	228.74
838.74	228.76
839.05	228.88
839.37	228.93
839.68	228.80
840.00	228.69
840.31	228.82
840.63	228.84
840.94	228.81
841.26	228.76
841.57	228.74
841.88	228.77
842.20	228.77
842.51	228.80
842.83	228.89
843.14	229.08
843.46	229.07
843.77	228.94
844.08	229.00
844.40	228.87
844.71	228.92
845.03	228.83
845.34	228.81
845.65	228.74
845.97	228.66
846.28	228.67
846.60	228.67
846.91	228.62
847.22	228.55
847.54	228.53
847.85	228.64
848.16	228.67
848.48	228.75
848.79	228.89
849.10	228.82
849.42	228.79
849.73	228.61
850.04	228.62
850.36	228.60
850.67	228.58
850.98	228.68
851.30	228.71
851.61	228.81
851.92	228.89
852.23	228.96
852.55	228.90
852.86	228.91
853.17	229.02
853.49	229.09
853.80	229.16
854.11	229.25
854.42	229.16
854.74	229.17
855.05	229.04
855.36	228.89
855.67	228.95
855.99	228.98
856.30	229.17
856.61	229.18
856.92	229.15
857.23	229.18
857.55	229.12
857.86	229.05
858.17	229.08
858.48	228.98
858.79	228.98
859.11	229.01
859.42	229.02
859.73	229.06
860.04	228.93
860.35	228.94
860.66	228.86
860.98	228.84
861.29	228.80
861.60	228.80
861.91	228.85
862.22	228.71
862.53	228.64
862.84	228.53
863.16	228.55
863.47	228.49
863.78	228.37
864.09	228.42
864.40	228.43
864.71	228.43
865.02	228.52
865.33	228.51
865.64	228.60
865.95	228.57
866.27	228.58
866.58	228.70
866.89	228.70
867.20	228.63
867.51	228.64
867.82	228.63
868.13	228.64
868.44	228.60
868.75	228.63
869.06	228.61
869.37	228.47
869.68	228.26
869.99	228.41
870.30	228.44
870.61	228.50
870.92	228.48
871.23	228.39
871.54	228.37
871.85	228.32
872.16	228.27
872.47	228.25
872.78	228.16
873.09	228.06
873.40	227.99
873.71	228.16
874.02	228.16
874.33	228.14
874.64	228.06
874.95	228.11
875.26	228.04
875.56	228.19
875.87	228.28
876.18	228.38
876.49	228.40
876.80	228.36
877.11	228.40
877.42	228.45
877.73	228.50
878.04	228.49
878.35	228.48
878.66	228.47
878.96	228.49
879.27	228.46
879.58	228.53
879.89	228.67
880.20	228.58
880.51	228.65
880.82	228.60
881.12	228.65
881.43	228.58
881.74	228.60
882.05	228.50
882.36	228.59
882.67	228.63
882.97	228.57
883.28	228.65
883.59	228.53
883.90	228.51
884.21	228.61
884.51	228.62
884.82	228.72
885.13	228.76
885.44	228.84
885.74	228.82
886.05	228.84
886.36	228.71
886.67	228.67
886.98	228.64
887.28	228.77
887.59	228.87
887.90	228.83
888.20	228.92
888.51	228.96
888.82	228.87
889.13	228.91
889.43	229.08
889.74	229.01
890.05	229.02
890.35	228.97
890.66	228.90
890.97	228.80
891.28	228.64
891.58	228.60
891.89	228.59
892.20	228.59
892.50	228.46
892.81	228.44
893.12	228.49
893.42	228.45
893.73	228.41
894.04	228.36
894.34	228.42
894.65	228.38
894.95	228.36
895.26	228.34
895.57	228.35
895.87	228.12
896.18	228.19
896.48	228.22
896.79	228.30
897.10	228.22
897.40	228.29
897.71	228.39
898.01	228.37
898.32	228.35
898.63	228.36
898.93	228.45
899.24	228.41
899.54	228.38
899.85	228.31
900.15	228.38
900.46	228.33
900.76	228.30
901.07	228.35
901.38	228.29
901.68	228.32
901.99	228.29
902.29	228.28
902.60	228.20
902.90	228.11
903.21	228.03
903.51	228.15
903.82	228.00
904.12	228.04
904.43	228.13
904.73	228.10
905.03	228.11
905.34	228.16
905.64	228.18
905.95	228.23
906.25	228.22
906.56	228.15
906.86	228.16
907.17	228.13
907.47	228.17
907.77	228.28
908.08	228.40
908.38	228.32
908.69	228.36
908.99	228.52
909.30	228.60
909.60	228.62
909.90	228.56
910.21	228.64
910.51	228.49
910.81	228.43
911.12	228.40
911.42	228.42
911.73	228.36
912.03	228.39
912.33	228.35
912.64	228.40
912.94	228.35
913.24	228.32
913.55	228.31
913.85	228.22
914.15	228.22
914.46	228.07
914.76	228.14
915.06	228.12
915.37	227.95
915.67	227.97
915.97	228.05
916.27	228.01
916.58	228.07
916.88	228.10
917.18	228.06
917.49	228.26
917.79	228.30
918.09	228.33
918.39	228.38
918.70	228.47
919.00	228.45
919.30	228.57
919.60	228.64
919.91	228.64
920.21	228.63
920.51	228.52
920.81	228.50
921.12	228.57
921.42	228.57
921.72	228.72
922.02	228.62
922.32	228.57
922.63	228.59
922.93	228.73
923.23	228.80
923.53	228.73
923.83	228.59
924.13	228.52
924.44	228.46
924.74	228.48
925.04	228.50
925.34	228.60
925.64	228.41
925.94	228.35
926.24	228.50
926.55	228.54
926.85	228.52
927.15	228.50
927.45	228.44
927.75	228.40
928.05	228.34
928.35	228.34
928.65	228.40
928.95	228.42
929.26	228.41
929.56	228.51
929.86	228.58
930.16	228.58
930.46	228.55
930.76	228.50
931.06	228.40
931.36	228.36
931.66	228.34
931.96	228.44
932.26	228.43
932.56	228.40
932.86	228.35
933.16	228.45
933.46	228.38
933.76	228.34
934.06	228.48
934.36	228.51
934.66	228.60
934.96	228.54
935.26	228.51
935.56	228.36
935.86	228.24
936.16	228.29
936.46	228.34
936.76	228.38
937.06	228.44
937.36	228.53
937.66	228.52
937.96	228.47
938.26	228.40
938.56	228.32
938.86	228.36
939.16	228.45
939.46	228.43
939.76	228.60
940.06	228.47
940.35	228.39
940.65	228.35
940.95	228.41
941.25	228.49
941.55	228.55
941.85	228.51
942.15	228.56
942.45	228.62
942.75	228.60
943.04	228.63
943.34	228.68
943.64	228.55
943.94	228.54
944.24	228.60
944.54	228.60
944.84	228.60
945.13	228.50
945.43	228.53
945.73	228.46
946.03	228.41
946.33	228.56
946.62	228.42
946.92	228.41
947.22	228.39
947.52	228.27
947.82	228.24
948.11	228.32
948.41	228.28
948.71	228.11
949.01	228.06
949.31	228.01
949.60	227.95
949.90	227.86
950.20	227.84
950.50	227.75
950.79	227.82
951.09	227.88
951.39	227.86
951.69	227.73
951.98	227.81
952.28	227.78
952.58	227.78
952.87	227.79
953.17	227.80
953.47	227.64
953.76	227.64
954.06	227.59
954.36	227.61
954.66	227.47
954.95	227.54
955.25	227.52
955.55	227.56
955.84	227.57
956.14	227.63
956.44	227.64
956.73	227.60
957.03	227.48
957.32	227.54
957.62	227.52
957.92	227.63
958.21	227.63
958.51	227.79
958.81	227.84
959.10	227.91
959.40	227.87
959.69	227.96
959.99	227.97
960.29	227.90
960.58	227.72
960.88	227.89
961.17	227.88
961.47	228.00
961.76	228.01
962.06	228.01
962.36	227.99
962.65	227.94
962.95	228.00
963.24	228.09
963.54	228.11
963.83	228.27
964.13	228.21
964.42	228.15
964.72	228.11
965.01	227.96
965.31	228.01
965.60	228.05
965.90	228.06
966.19	228.04
966.49	228.12
966.78	228.20
967.08	228.25
967.37	228.27
967.67	228.16
967.96	228.23
968.26	228.20
968.55	228.37
968.85	228.47
969.14	228.56
969.43	228.59
969.73	228.56
970.02	228.46
970.32	228.53
970.61	228.57
970.91	228.50
971.20	228.58
971.49	228.63
971.79	228.67
972.08	228.69
972.38	228.80
972.67	228.80
972.96	228.83
973.26	228.66
973.55	228.78
973.85	228.75
974.14	228.71
974.43	228.80
974.73	228.70
975.02	228.67
975.31	228.59
975.61	228.54
975.90	228.47
976.19	228.48
976.49	228.38
976.78	228.38
977.07	228.42
977.37	228.51
977.66	228.46
977.95	228.41
978.24	228.51
978.54	228.38
978.83	228.39
979.12	228.37
979.42	228.50
979.71	228.40
980.00	228.50
980.29	228.56
980.59	228.49
980.88	228.65
981.17	228.61
981.46	228.68
981.76	228.78
982.05	228.96
982.34	228.98
982.63	228.99
982.93	229.00
983.22	229.01
983.51	228.95
983.80	229.02
984.09	229.00
984.39	228.87
984.68	228.90
984.97	228.94
985.26	228.98
985.55	228.98
985.85	228.91
986.14	228.93
986.43	228.89
986.72	228.91
987.01	228.87
987.30	228.85
987.59	228.75
987.89	228.71
988.18	228.60
988.47	228.52
988.76	228.36
989.05	228.43
989.34	228.32
989.63	228.38
989.92	228.26
990.22	228.27
990.51	228.28
990.80	228.25
991.09	228.21
991.38	228.21
991.67	228.22
991.96	228.22
992.25	228.09
992.54	228.04
992.83	228.01
993.12	227.85
993.41	227.82
993.70	227.92
993.99	227.80
994.28	227.83
994.58	227.84
994.87	228.05
995.16	227.80
995.45	227.76
995.74	227.59
996.03	227.64
996.32	227.70
996.61	227.70
996.90	227.73
997.19	227.72
997.48	227.74
997.77	227.74
998.06	227.70
998.34	227.73
998.63	227.65
998.92	227.62
999.21	227.70
999.50	227.70
999.79	227.58
1000.08	227.64
1000.37	227.57
1000.66	227.65
1000.95	227.62
1001.24	227.84
1001.53	227.94
1001.82	228.10
1002.11	228.11
1002.40	228.01
1002.68	228.07
1002.97	228.20
1003.26	228.18
1003.55	228.11
1003.84	228.03
1004.13	228.11
1004.42	228.14
1004.71	228.23
1004.99	228.23
1005.28	228.16
1005.57	228.26
1005.86	228.24
1006.15	228.27
1006.44	228.30
1006.72	228.32
1007.01	228.22
1007.30	228.21
1007.59	228.12
1007.88	227.98
1008.17	227.87
1008.45	227.93
1008.74	227.87
1009.03	227.73
1009.32	227.64
1009.60	227.68
1009.89	227.73
1010.18	227.70
1010.47	227.77
1010.76	227.74
1011.04	227.70
1011.33	227.94
1011.62	227.92
1011.91	228.02
1012.19	227.93
1012.48	227.91
1012.77	227.81
1013.05	228.00
1013.34	227.92
1013.63	227.95
1013.92	228.08
1014.20	228.13
1014.49	228.17
1014.78	228.15
1015.06	228.10
1015.35	228.18
1015.64	228.21
1015.92	228.15
1016.21	228.12
1016.50	228.05
1016.78	228.13
1017.07	228.23
1017.36	228.00
1017.64	227.92
1017.93	227.87
1018.22	227.98
1018.50	227.97
1018.79	227.98
1019.08	227.97
1019.36	227.91
1019.65	227.86
1019.93	227.85
1020.22	227.86
1020.51	227.93
1020.79	227.90
1021.08	228.00
1021.36	227.70
1021.65	228.00
1021.94	230.00
1022.22	226.40
1022.51	226.20
1022.79	228.80
1023.08	228.20
1023.36	230.80
1023.65	227.40
>>>>>End Processed Spectral Data<<<<<
