SpectraSuite Data File
++++++++++++++++++++++++++++++++++++
Date: Fri Feb 01 14:42:03 EST 2013
User: group
Dark Spectrum Present: No
Reference Spectrum Present: No
Number of Sampled Component Spectra: 1
Spectrometers: USB2E7196
Integration Time (usec): 70000 (USB2E7196)
Spectra Averaged: 10 (USB2E7196)
Boxcar Smoothing: 10 (USB2E7196)
Correct for Electrical Dark: No (USB2E7196)
Strobe/Lamp Enabled: No (USB2E7196)
Correct for Detector Non-linearity: No (USB2E7196)
Correct for Stray Light: No (USB2E7196)
Number of Pixels in Processed Spectrum: 2048
>>>>>Begin Processed Spectral Data<<<<<
339.09	0.00
339.48	215.70
339.86	216.90
340.24	218.00
340.63	221.50
341.01	225.20
341.39	223.60
341.78	224.00
342.16	224.50
342.54	224.10
342.93	214.07
343.31	224.85
343.69	225.47
344.07	225.97
344.46	226.28
344.84	226.68
345.22	226.83
345.60	227.04
345.99	227.21
346.37	227.36
346.75	227.58
347.13	227.85
347.52	227.94
347.90	228.00
348.28	228.02
348.66	228.23
349.05	228.12
349.43	228.26
349.81	228.35
350.19	228.42
350.57	228.60
350.96	228.71
351.34	228.87
351.72	228.88
352.10	229.03
352.48	229.27
352.87	229.22
353.25	229.19
353.63	229.23
354.01	229.34
354.39	229.46
354.77	229.56
355.15	229.65
355.54	229.81
355.92	229.84
356.30	229.85
356.68	229.99
357.06	230.00
357.44	230.01
357.82	230.16
358.20	230.15
358.58	230.19
358.97	230.19
359.35	230.21
359.73	230.40
360.11	230.37
360.49	230.46
360.87	230.44
361.25	230.58
361.63	230.70
362.01	230.80
362.39	230.86
362.77	230.91
363.15	231.00
363.53	231.01
363.91	231.10
364.29	231.24
364.67	231.11
365.05	231.20
365.43	231.22
365.81	231.20
366.19	231.33
366.57	231.40
366.95	231.39
367.33	231.41
367.71	231.34
368.09	231.35
368.47	231.33
368.85	231.47
369.23	231.59
369.61	231.55
369.99	231.63
370.37	231.62
370.75	231.73
371.13	231.51
371.51	231.36
371.89	231.36
372.27	231.27
372.65	231.20
373.03	231.25
373.41	231.18
373.78	231.07
374.16	230.97
374.54	230.81
374.92	230.87
375.30	230.79
375.68	230.64
376.06	230.66
376.44	230.67
376.82	230.55
377.19	230.33
377.57	230.26
377.95	230.11
378.33	230.00
378.71	229.70
379.09	229.73
379.47	229.75
379.84	229.60
380.22	229.51
380.60	229.48
380.98	229.31
381.36	229.14
381.73	229.12
382.11	229.05
382.49	228.90
382.87	228.80
383.25	228.78
383.62	228.92
384.00	228.75
384.38	228.60
384.76	228.58
385.13	228.62
385.51	228.60
385.89	228.47
386.27	228.40
386.64	228.50
387.02	228.37
387.40	228.24
387.78	228.32
388.15	228.33
388.53	228.19
388.91	228.20
389.29	228.22
389.66	228.30
390.04	228.18
390.42	228.21
390.79	228.24
391.17	228.20
391.55	228.05
391.92	228.18
392.30	228.11
392.68	228.07
393.05	227.99
393.43	227.85
393.81	227.90
394.18	227.91
394.56	227.84
394.94	228.05
395.31	228.08
395.69	228.16
396.06	228.20
396.44	228.27
396.82	228.36
397.19	228.50
397.57	228.45
397.95	228.70
398.32	228.78
398.70	228.78
399.07	228.91
399.45	228.97
399.82	228.94
400.20	229.03
400.58	229.14
400.95	229.22
401.33	229.50
401.70	229.85
402.08	230.05
402.45	230.20
402.83	230.33
403.20	230.50
403.58	230.66
403.95	230.80
404.33	230.97
404.71	231.25
405.08	231.53
405.46	231.78
405.83	231.99
406.21	232.19
406.58	232.51
406.96	232.74
407.33	233.09
407.70	233.42
408.08	233.98
408.45	234.30
408.83	234.71
409.20	235.01
409.58	235.17
409.95	235.54
410.33	235.91
410.70	236.26
411.08	236.77
411.45	237.23
411.82	237.67
412.20	238.37
412.57	238.88
412.95	239.44
413.32	240.03
413.69	240.60
414.07	241.34
414.44	242.03
414.82	242.69
415.19	243.53
415.56	244.35
415.94	245.04
416.31	246.02
416.68	247.04
417.06	248.22
417.43	249.23
417.81	250.40
418.18	251.61
418.55	252.90
418.93	254.16
419.30	255.53
419.67	257.08
420.04	258.50
420.42	260.03
420.79	261.80
421.16	263.53
421.54	265.38
421.91	267.18
422.28	269.19
422.66	271.31
423.03	273.35
423.40	275.49
423.77	277.73
424.15	279.97
424.52	282.18
424.89	284.60
425.26	287.01
425.64	289.22
426.01	291.73
426.38	294.22
426.75	296.83
427.13	299.59
427.50	302.34
427.87	305.22
428.24	308.17
428.61	310.90
428.99	313.96
429.36	317.11
429.73	320.39
430.10	323.47
430.47	326.66
430.85	329.94
431.22	333.46
431.59	337.15
431.96	340.56
432.33	344.43
432.70	348.09
433.08	352.50
433.45	356.63
433.82	360.54
434.19	365.00
434.56	369.34
434.93	373.36
435.30	377.50
435.68	381.90
436.05	386.18
436.42	390.30
436.79	394.13
437.16	398.27
437.53	402.55
437.90	406.85
438.27	411.08
438.64	415.38
439.01	419.27
439.38	422.74
439.75	426.15
440.13	429.99
440.50	433.59
440.87	436.47
441.24	439.47
441.61	442.82
441.98	445.21
442.35	448.06
442.72	450.98
443.09	453.56
443.46	455.05
443.83	455.99
444.20	456.77
444.57	458.12
444.94	458.71
445.31	459.25
445.68	459.77
446.05	459.82
446.42	459.11
446.79	458.23
447.16	457.42
447.53	456.85
447.90	455.03
448.27	453.03
448.64	450.43
449.01	448.63
449.37	445.52
449.74	442.52
450.11	438.89
450.48	434.80
450.85	430.92
451.22	427.45
451.59	424.22
451.96	421.21
452.33	417.14
452.70	413.38
453.07	409.05
453.43	404.42
453.80	400.12
454.17	395.98
454.54	392.19
454.91	388.00
455.28	383.87
455.65	379.96
456.02	376.37
456.38	373.09
456.75	368.90
457.12	365.43
457.49	362.00
457.86	358.70
458.23	355.88
458.59	352.53
458.96	349.40
459.33	346.49
459.70	343.58
460.07	341.12
460.43	338.37
460.80	335.80
461.17	333.52
461.54	331.20
461.91	329.02
462.27	326.71
462.64	324.70
463.01	322.50
463.38	320.60
463.74	318.34
464.11	316.32
464.48	314.68
464.85	312.97
465.21	311.54
465.58	310.06
465.95	308.43
466.32	307.20
466.68	305.76
467.05	304.33
467.42	302.95
467.78	301.52
468.15	300.17
468.52	299.10
468.88	297.91
469.25	296.71
469.62	295.66
469.98	294.56
470.35	293.63
470.72	292.63
471.08	291.43
471.45	290.55
471.82	289.78
472.18	288.83
472.55	288.16
472.92	287.28
473.28	286.57
473.65	285.77
474.02	285.02
474.38	284.53
474.75	284.01
475.11	283.31
475.48	282.84
475.85	282.31
476.21	281.95
476.58	281.55
476.94	281.27
477.31	281.16
477.67	280.94
478.04	280.69
478.41	280.69
478.77	280.76
479.14	280.59
479.50	280.56
479.87	280.57
480.23	280.62
480.60	280.61
480.96	280.55
481.33	280.71
481.69	280.90
482.06	280.96
482.42	281.20
482.79	281.48
483.15	281.83
483.52	282.34
483.88	282.63
484.25	282.96
484.61	283.32
484.98	283.59
485.34	284.20
485.71	284.84
486.07	285.60
486.44	286.13
486.80	287.00
487.17	287.95
487.53	289.03
487.90	290.09
488.26	291.28
488.62	292.55
488.99	293.77
489.35	295.04
489.72	296.46
490.08	298.05
490.44	299.69
490.81	301.41
491.17	303.16
491.54	305.23
491.90	307.40
492.26	309.63
492.63	312.01
492.99	314.43
493.36	317.05
493.72	319.60
494.08	322.57
494.45	325.68
494.81	328.82
495.17	332.02
495.54	335.42
495.90	339.10
496.26	342.81
496.63	346.77
496.99	351.06
497.35	355.60
497.72	360.20
498.08	364.99
498.44	370.09
498.80	375.58
499.17	380.84
499.53	386.57
499.89	392.55
500.26	398.73
500.62	405.18
500.98	411.82
501.34	418.87
501.71	426.20
502.07	433.60
502.43	441.33
502.79	449.54
503.16	457.98
503.52	466.72
503.88	475.64
504.24	484.96
504.60	494.70
504.97	504.67
505.33	514.94
505.69	526.17
506.05	537.37
506.41	548.62
506.78	560.44
507.14	572.48
507.50	584.96
507.86	597.99
508.22	611.34
508.59	624.84
508.95	639.02
509.31	653.34
509.67	667.95
510.03	682.80
510.39	698.10
510.75	714.24
511.12	730.27
511.48	746.99
511.84	763.96
512.20	780.97
512.56	798.77
512.92	816.79
513.28	834.87
513.64	853.23
514.00	872.12
514.37	891.36
514.73	910.86
515.09	930.60
515.45	950.25
515.81	970.41
516.17	991.44
516.53	1012.20
516.89	1033.32
517.25	1055.02
517.61	1076.81
517.97	1098.56
518.33	1120.11
518.69	1142.45
519.05	1165.29
519.41	1188.35
519.77	1211.52
520.13	1235.04
520.49	1258.12
520.85	1281.32
521.21	1304.93
521.57	1329.12
521.93	1352.56
522.29	1377.31
522.65	1401.42
523.01	1425.93
523.37	1450.07
523.73	1473.87
524.09	1498.23
524.45	1523.13
524.81	1547.90
525.17	1573.23
525.53	1598.50
525.89	1623.94
526.25	1649.50
526.61	1674.11
526.97	1699.16
527.33	1724.60
527.68	1749.83
528.04	1775.21
528.40	1800.83
528.76	1826.88
529.12	1852.61
529.48	1879.06
529.84	1903.54
530.20	1929.47
530.56	1955.35
530.91	1981.56
531.27	2008.14
531.63	2033.58
531.99	2058.78
532.35	2083.88
532.71	2107.89
533.07	2133.22
533.42	2157.47
533.78	2181.73
534.14	2206.46
534.50	2230.36
534.86	2254.44
535.21	2277.35
535.57	2301.58
535.93	2325.08
536.29	2348.25
536.65	2371.00
537.00	2393.35
537.36	2416.76
537.72	2438.52
538.08	2460.74
538.44	2482.25
538.79	2503.11
539.15	2524.38
539.51	2545.84
539.87	2567.38
540.22	2589.08
540.58	2610.17
540.94	2631.08
541.29	2650.49
541.65	2669.99
542.01	2690.32
542.37	2709.95
542.72	2729.37
543.08	2748.26
543.44	2767.00
543.79	2784.02
544.15	2801.42
544.51	2820.05
544.87	2837.75
545.22	2855.36
545.58	2872.38
545.94	2888.17
546.29	2904.57
546.65	2919.56
547.01	2934.20
547.36	2948.85
547.72	2963.20
548.07	2976.68
548.43	2989.96
548.79	3003.40
549.14	3016.66
549.50	3028.35
549.86	3039.82
550.21	3051.67
550.57	3063.26
550.92	3075.03
551.28	3086.48
551.64	3098.05
551.99	3108.18
552.35	3118.49
552.70	3128.68
553.06	3138.45
553.41	3149.06
553.77	3158.20
554.13	3168.96
554.48	3178.82
554.84	3187.59
555.19	3196.35
555.55	3204.70
555.90	3213.11
556.26	3221.76
556.61	3229.71
556.97	3237.11
557.32	3244.91
557.68	3252.73
558.03	3259.61
558.39	3265.73
558.74	3273.92
559.10	3280.55
559.45	3287.05
559.81	3293.86
560.16	3299.40
560.52	3304.68
560.87	3310.90
561.23	3315.48
561.58	3320.75
561.94	3325.34
562.29	3329.02
562.64	3332.36
563.00	3336.50
563.35	3341.53
563.71	3346.77
564.06	3351.51
564.42	3356.54
564.77	3360.65
565.12	3364.30
565.48	3368.00
565.83	3370.61
566.19	3372.86
566.54	3374.50
566.89	3375.64
567.25	3376.18
567.60	3378.72
567.96	3380.39
568.31	3380.61
568.66	3382.01
569.02	3382.38
569.37	3382.58
569.72	3383.35
570.08	3383.88
570.43	3383.59
570.78	3382.14
571.14	3379.70
571.49	3377.89
571.84	3376.75
572.20	3374.52
572.55	3372.00
572.90	3368.79
573.26	3367.26
573.61	3364.09
573.96	3360.78
574.31	3357.17
574.67	3352.81
575.02	3347.12
575.37	3342.68
575.72	3337.21
576.08	3332.82
576.43	3326.97
576.78	3321.76
577.13	3317.44
577.49	3312.78
577.84	3307.11
578.19	3301.30
578.54	3295.65
578.90	3288.56
579.25	3280.77
579.60	3273.42
579.95	3265.92
580.30	3258.71
580.66	3250.40
581.01	3242.60
581.36	3234.82
581.71	3228.18
582.06	3221.59
582.42	3214.34
582.77	3205.93
583.12	3198.19
583.47	3190.78
583.82	3183.58
584.17	3175.25
584.53	3167.01
584.88	3158.42
585.23	3150.19
585.58	3142.41
585.93	3134.35
586.28	3126.84
586.63	3119.96
586.98	3112.02
587.34	3104.15
587.69	3095.76
588.04	3087.87
588.39	3079.83
588.74	3070.81
589.09	3060.89
589.44	3050.72
589.79	3042.38
590.14	3034.40
590.49	3025.21
590.84	3015.05
591.19	3005.80
591.54	2995.29
591.89	2983.37
592.25	2973.23
592.60	2961.62
592.95	2950.46
593.30	2939.37
593.65	2928.20
594.00	2916.17
594.35	2905.93
594.70	2893.96
595.05	2883.79
595.40	2872.73
595.75	2860.89
596.10	2851.09
596.45	2840.98
596.80	2832.03
597.15	2821.65
597.50	2810.47
597.85	2800.74
598.19	2791.10
598.54	2780.95
598.89	2771.59
599.24	2763.62
599.59	2753.47
599.94	2744.95
600.29	2735.05
600.64	2725.08
600.99	2714.40
601.34	2704.55
601.69	2693.40
602.04	2684.29
602.39	2674.08
602.74	2664.28
603.08	2655.40
603.43	2645.64
603.78	2635.62
604.13	2624.73
604.48	2614.22
604.83	2603.85
605.18	2593.34
605.53	2581.59
605.87	2569.28
606.22	2558.20
606.57	2546.18
606.92	2534.92
607.27	2523.98
607.62	2513.49
607.96	2502.61
608.31	2492.63
608.66	2480.95
609.01	2469.46
609.36	2456.77
609.70	2443.55
610.05	2430.74
610.40	2418.18
610.75	2405.45
611.10	2393.11
611.44	2379.65
611.79	2367.47
612.14	2354.92
612.49	2341.32
612.83	2329.05
613.18	2317.15
613.53	2304.78
613.88	2291.92
614.22	2279.46
614.57	2266.20
614.92	2252.92
615.27	2240.80
615.61	2227.93
615.96	2215.67
616.31	2204.34
616.65	2193.90
617.00	2183.29
617.35	2172.00
617.70	2159.71
618.04	2147.44
618.39	2135.64
618.74	2124.64
619.08	2112.47
619.43	2100.78
619.78	2090.23
620.12	2078.43
620.47	2066.87
620.82	2055.00
621.16	2043.67
621.51	2032.79
621.85	2021.65
622.20	2010.01
622.55	1998.14
622.89	1986.94
623.24	1976.03
623.59	1965.12
623.93	1954.16
624.28	1942.71
624.62	1931.01
624.97	1920.16
625.32	1909.76
625.66	1898.77
626.01	1887.90
626.35	1876.65
626.70	1865.74
627.04	1854.80
627.39	1844.01
627.73	1833.22
628.08	1822.57
628.43	1811.59
628.77	1800.59
629.12	1789.10
629.46	1778.20
629.81	1767.01
630.15	1755.56
630.50	1744.26
630.84	1732.20
631.19	1719.81
631.53	1708.42
631.88	1697.20
632.22	1685.78
632.57	1674.42
632.91	1663.20
633.26	1651.56
633.60	1640.19
633.95	1629.03
634.29	1618.00
634.64	1607.83
634.98	1596.70
635.32	1586.62
635.67	1576.65
636.01	1566.35
636.36	1556.30
636.70	1546.34
637.05	1536.56
637.39	1527.07
637.73	1517.10
638.08	1508.26
638.42	1499.16
638.77	1489.69
639.11	1479.88
639.45	1470.32
639.80	1460.34
640.14	1450.71
640.49	1441.28
640.83	1431.97
641.17	1422.49
641.52	1412.75
641.86	1402.75
642.20	1393.84
642.55	1383.99
642.89	1374.44
643.23	1364.32
643.58	1355.38
643.92	1346.10
644.26	1336.12
644.61	1326.75
644.95	1317.80
645.29	1307.32
645.64	1297.50
645.98	1287.82
646.32	1278.77
646.66	1269.40
647.01	1260.44
647.35	1251.26
647.69	1242.06
648.04	1233.10
648.38	1223.45
648.72	1213.76
649.06	1204.12
649.41	1194.74
649.75	1185.19
650.09	1176.03
650.43	1166.92
650.78	1156.89
651.12	1147.07
651.46	1138.43
651.80	1129.51
652.14	1120.48
652.49	1111.85
652.83	1103.13
653.17	1094.32
653.51	1085.56
653.85	1076.93
654.20	1068.08
654.54	1059.25
654.88	1050.76
655.22	1041.60
655.56	1033.13
655.90	1025.05
656.25	1017.21
656.59	1008.77
656.93	1000.60
657.27	992.04
657.61	983.53
657.95	976.20
658.29	968.85
658.64	960.70
658.98	952.40
659.32	943.91
659.66	936.30
660.00	928.70
660.34	920.98
660.68	913.43
661.02	905.66
661.36	898.53
661.70	891.31
662.05	884.18
662.39	877.42
662.73	870.90
663.07	864.16
663.41	857.35
663.75	850.60
664.09	844.17
664.43	837.73
664.77	831.55
665.11	824.97
665.45	818.58
665.79	812.47
666.13	806.13
666.47	800.11
666.81	793.31
667.15	786.53
667.49	780.58
667.83	774.47
668.17	768.49
668.51	762.32
668.85	756.33
669.19	750.51
669.53	745.15
669.87	739.28
670.21	733.69
670.55	727.93
670.89	722.42
671.23	717.00
671.57	711.70
671.91	706.39
672.25	700.85
672.58	695.41
672.92	690.02
673.26	685.29
673.60	680.61
673.94	676.15
674.28	671.82
674.62	667.16
674.96	662.61
675.30	658.17
675.64	653.70
675.97	649.35
676.31	644.92
676.65	640.17
676.99	635.74
677.33	631.11
677.67	626.60
678.01	622.12
678.34	617.63
678.68	613.39
679.02	609.15
679.36	605.16
679.70	601.18
680.04	597.03
680.37	592.60
680.71	588.38
681.05	584.62
681.39	580.74
681.73	576.98
682.06	573.21
682.40	569.46
682.74	565.75
683.08	561.96
683.42	558.14
683.75	554.57
684.09	550.76
684.43	547.17
684.77	543.86
685.10	540.43
685.44	537.03
685.78	533.51
686.12	530.23
686.45	526.73
686.79	523.22
687.13	519.97
687.46	516.80
687.80	513.40
688.14	509.91
688.48	506.58
688.81	503.17
689.15	499.96
689.49	496.80
689.82	493.56
690.16	490.29
690.50	487.30
690.83	484.28
691.17	481.46
691.51	478.52
691.84	475.61
692.18	472.60
692.52	469.70
692.85	466.81
693.19	463.85
693.52	461.16
693.86	458.41
694.20	455.58
694.53	452.91
694.87	450.20
695.21	447.49
695.54	444.88
695.88	442.17
696.21	439.31
696.55	436.67
696.88	434.31
697.22	431.74
697.56	429.26
697.89	426.63
698.23	424.07
698.56	421.61
698.90	419.02
699.23	416.63
699.57	414.24
699.90	411.72
700.24	409.24
700.58	406.75
700.91	404.41
701.25	402.37
701.58	399.99
701.92	397.85
702.25	395.58
702.59	393.36
702.92	391.21
703.26	389.30
703.59	387.23
703.93	385.17
704.26	383.26
704.60	381.31
704.93	379.33
705.26	377.31
705.60	375.60
705.93	373.90
706.27	372.20
706.60	370.53
706.94	368.79
707.27	367.07
707.61	365.27
707.94	363.60
708.27	361.79
708.61	360.06
708.94	358.38
709.28	357.01
709.61	355.50
709.94	354.04
710.28	352.44
710.61	350.89
710.95	349.20
711.28	347.81
711.61	346.21
711.95	344.73
712.28	343.29
712.61	341.69
712.95	340.18
713.28	338.84
713.61	337.29
713.95	335.98
714.28	334.73
714.61	333.51
714.95	332.24
715.28	330.93
715.61	329.72
715.95	328.47
716.28	327.16
716.61	325.93
716.95	324.68
717.28	323.55
717.61	322.38
717.94	321.20
718.28	319.93
718.61	318.76
718.94	317.78
719.27	316.74
719.61	315.82
719.94	314.80
720.27	313.63
720.60	312.63
720.94	311.61
721.27	310.72
721.60	309.83
721.93	308.85
722.27	307.97
722.60	307.12
722.93	306.26
723.26	305.23
723.59	304.30
723.93	303.53
724.26	302.75
724.59	301.97
724.92	301.20
725.25	300.45
725.59	299.75
725.92	298.98
726.25	298.18
726.58	297.47
726.91	296.74
727.24	296.07
727.57	295.38
727.91	294.69
728.24	293.94
728.57	293.15
728.90	292.39
729.23	291.67
729.56	291.02
729.89	290.37
730.22	289.72
730.55	289.14
730.89	288.45
731.22	287.76
731.55	286.96
731.88	286.38
732.21	285.62
732.54	285.08
732.87	284.32
733.20	283.79
733.53	283.19
733.86	282.58
734.19	281.89
734.52	281.39
734.85	280.90
735.18	280.23
735.51	279.70
735.84	279.25
736.17	278.80
736.50	278.09
736.83	277.74
737.16	277.30
737.49	276.72
737.82	276.19
738.15	275.65
738.48	275.18
738.81	274.52
739.14	274.02
739.47	273.28
739.80	272.83
740.13	272.35
740.46	271.76
740.79	271.24
741.12	270.71
741.45	270.12
741.78	269.64
742.11	269.30
742.44	268.70
742.77	268.17
743.10	267.65
743.43	267.21
743.75	266.53
744.08	266.19
744.41	265.72
744.74	265.25
745.07	264.74
745.40	264.38
745.73	264.07
746.06	263.66
746.39	263.21
746.71	262.73
747.04	262.22
747.37	261.76
747.70	261.19
748.03	260.78
748.36	260.46
748.68	259.93
749.01	259.39
749.34	259.06
749.67	258.70
750.00	258.26
750.33	258.03
750.65	257.63
750.98	257.12
751.31	256.63
751.64	256.23
751.97	256.03
752.29	255.56
752.62	255.15
752.95	254.87
753.28	254.59
753.60	254.28
753.93	253.94
754.26	253.60
754.59	253.30
754.91	253.02
755.24	252.60
755.57	252.34
755.90	252.08
756.22	251.72
756.55	251.31
756.88	251.01
757.20	250.59
757.53	250.24
757.86	249.97
758.19	249.80
758.51	249.54
758.84	249.17
759.17	249.00
759.49	248.68
759.82	248.38
760.15	248.12
760.47	247.93
760.80	247.74
761.13	247.58
761.45	247.41
761.78	247.15
762.11	246.95
762.43	246.74
762.76	246.51
763.08	246.45
763.41	246.40
763.74	246.21
764.06	245.91
764.39	245.89
764.71	245.64
765.04	245.40
765.37	245.20
765.69	245.02
766.02	244.72
766.34	244.67
766.67	244.50
767.00	244.38
767.32	244.29
767.65	244.13
767.97	243.96
768.30	243.81
768.62	243.65
768.95	243.58
769.27	243.34
769.60	243.22
769.92	242.94
770.25	242.79
770.57	242.60
770.90	242.50
771.22	242.17
771.55	242.00
771.87	242.00
772.20	241.87
772.52	241.97
772.85	242.06
773.17	241.88
773.50	241.80
773.82	241.63
774.15	241.47
774.47	241.32
774.80	241.25
775.12	241.16
775.45	241.08
775.77	240.91
776.09	240.89
776.42	240.77
776.74	240.78
777.07	240.58
777.39	240.53
777.72	240.36
778.04	240.28
778.36	240.27
778.69	240.12
779.01	239.98
779.33	239.65
779.66	239.47
779.98	239.39
780.31	239.21
780.63	239.25
780.95	239.10
781.28	238.93
781.60	238.78
781.92	238.71
782.25	238.60
782.57	238.49
782.89	238.32
783.22	238.16
783.54	238.06
783.86	237.96
784.19	237.79
784.51	237.75
784.83	237.60
785.16	237.36
785.48	237.21
785.80	237.17
786.12	237.10
786.45	236.91
786.77	236.75
787.09	236.60
787.42	236.39
787.74	236.30
788.06	236.23
788.38	236.00
788.71	235.85
789.03	235.74
789.35	235.70
789.67	235.58
789.99	235.43
790.32	235.24
790.64	235.07
790.96	235.11
791.28	234.90
791.61	234.82
791.93	234.85
792.25	234.72
792.57	234.66
792.89	234.38
793.21	234.36
793.54	234.27
793.86	234.15
794.18	234.04
794.50	233.84
794.82	233.75
795.14	233.63
795.47	233.50
795.79	233.38
796.11	233.26
796.43	233.14
796.75	233.17
797.07	233.16
797.39	233.14
797.71	232.94
798.04	232.93
798.36	232.95
798.68	232.77
799.00	232.78
799.32	232.67
799.64	232.84
799.96	232.79
800.28	232.73
800.60	232.72
800.92	232.71
801.24	232.68
801.56	232.60
801.89	232.64
802.21	232.67
802.53	232.57
802.85	232.54
803.17	232.67
803.49	232.52
803.81	232.43
804.13	232.45
804.45	232.44
804.77	232.41
805.09	232.42
805.41	232.50
805.73	232.40
806.05	232.37
806.37	232.33
806.69	232.33
807.01	232.41
807.33	232.32
807.65	232.21
807.97	232.25
808.28	232.30
808.60	232.28
808.92	232.28
809.24	232.58
809.56	232.49
809.88	232.48
810.20	232.48
810.52	232.53
810.84	232.46
811.16	232.34
811.48	232.35
811.80	232.34
812.12	232.35
812.43	232.40
812.75	232.37
813.07	232.29
813.39	232.24
813.71	232.12
814.03	232.33
814.35	232.41
814.67	232.36
814.98	232.32
815.30	232.37
815.62	232.35
815.94	232.09
816.26	232.30
816.58	232.10
816.89	232.14
817.21	232.07
817.53	232.18
817.85	232.20
818.17	232.32
818.48	232.20
818.80	232.20
819.12	232.08
819.44	232.07
819.76	232.03
820.07	232.05
820.39	232.03
820.71	231.93
821.03	231.96
821.34	231.97
821.66	231.94
821.98	231.88
822.30	231.80
822.61	231.81
822.93	231.50
823.25	231.55
823.57	231.47
823.88	231.50
824.20	231.33
824.52	231.39
824.83	231.26
825.15	231.26
825.47	231.11
825.79	231.12
826.10	231.15
826.42	231.10
826.74	230.99
827.05	230.99
827.37	230.97
827.69	230.81
828.00	230.80
828.32	230.73
828.64	230.73
828.95	230.81
829.27	230.82
829.58	230.89
829.90	230.91
830.22	230.87
830.53	230.68
830.85	230.61
831.17	230.55
831.48	230.42
831.80	230.36
832.11	230.32
832.43	230.23
832.75	230.08
833.06	230.20
833.38	230.08
833.69	229.89
834.01	229.80
834.32	229.86
834.64	229.72
834.96	229.64
835.27	229.59
835.59	229.40
835.90	229.27
836.22	229.23
836.53	229.13
836.85	229.03
837.16	229.30
837.48	229.25
837.79	229.21
838.11	229.33
838.42	229.24
838.74	229.23
839.05	229.31
839.37	229.31
839.68	229.20
840.00	229.19
840.31	229.29
840.63	229.33
840.94	229.25
841.26	229.14
841.57	229.30
841.88	229.26
842.20	229.30
842.51	229.27
842.83	229.20
843.14	229.32
843.46	229.48
843.77	229.36
844.08	229.31
844.40	229.35
844.71	229.25
845.03	229.32
845.34	229.36
845.65	229.33
845.97	229.31
846.28	229.26
846.60	229.36
846.91	229.35
847.22	229.38
847.54	229.38
847.85	229.51
848.16	229.46
848.48	229.45
848.79	229.54
849.10	229.67
849.42	229.80
849.73	229.67
850.04	229.66
850.36	229.64
850.67	229.84
850.98	229.87
851.30	230.00
851.61	230.09
851.92	230.15
852.23	230.20
852.55	230.27
852.86	230.31
853.17	230.35
853.49	230.42
853.80	230.42
854.11	230.38
854.42	230.50
854.74	230.40
855.05	230.46
855.36	230.40
855.67	230.39
855.99	230.42
856.30	230.67
856.61	230.66
856.92	230.57
857.23	230.59
857.55	230.57
857.86	230.45
858.17	230.43
858.48	230.33
858.79	230.31
859.11	230.39
859.42	230.34
859.73	230.27
860.04	230.26
860.35	230.19
860.66	230.24
860.98	230.20
861.29	230.35
861.60	230.36
861.91	230.42
862.22	230.35
862.53	230.21
862.84	230.00
863.16	229.97
863.47	230.01
863.78	229.93
864.09	229.86
864.40	229.82
864.71	229.81
865.02	229.80
865.33	229.74
865.64	229.61
865.95	229.62
866.27	229.73
866.58	229.74
866.89	229.70
867.20	229.65
867.51	229.58
867.82	229.42
868.13	229.43
868.44	229.29
868.75	229.37
869.06	229.43
869.37	229.31
869.68	229.24
869.99	229.31
870.30	229.23
870.61	229.27
870.92	229.30
871.23	229.23
871.54	229.25
871.85	229.23
872.16	229.36
872.47	229.32
872.78	229.14
873.09	229.11
873.40	229.21
873.71	229.22
874.02	229.20
874.33	229.19
874.64	229.16
874.95	229.16
875.26	229.04
875.56	228.89
875.87	228.91
876.18	229.00
876.49	229.07
876.80	229.03
877.11	228.96
877.42	228.98
877.73	229.00
878.04	228.89
878.35	228.92
878.66	228.74
878.96	228.76
879.27	228.73
879.58	228.70
879.89	228.57
880.20	228.56
880.51	228.55
880.82	228.51
881.12	228.46
881.43	228.50
881.74	228.42
882.05	228.52
882.36	228.51
882.67	228.49
882.97	228.29
883.28	228.40
883.59	228.37
883.90	228.36
884.21	228.41
884.51	228.50
884.82	228.46
885.13	228.42
885.44	228.38
885.74	228.49
886.05	228.53
886.36	228.52
886.67	228.60
886.98	228.64
887.28	228.84
887.59	228.95
887.90	228.90
888.20	228.97
888.51	229.01
888.82	229.06
889.13	229.00
889.43	229.22
889.74	229.20
890.05	229.27
890.35	229.20
890.66	229.15
890.97	229.18
891.28	229.12
891.58	229.27
891.89	229.29
892.20	229.21
892.50	229.18
892.81	229.28
893.12	229.25
893.42	229.26
893.73	229.20
894.04	229.07
894.34	229.13
894.65	229.06
894.95	229.03
895.26	229.01
895.57	229.12
895.87	228.90
896.18	228.98
896.48	229.02
896.79	229.00
897.10	229.01
897.40	228.96
897.71	229.02
898.01	228.94
898.32	228.95
898.63	229.06
898.93	229.08
899.24	228.95
899.54	228.92
899.85	228.84
900.15	228.85
900.46	228.87
900.76	228.84
901.07	228.81
901.38	228.78
901.68	228.77
901.99	228.73
902.29	228.73
902.60	228.67
902.90	228.63
903.21	228.62
903.51	228.64
903.82	228.70
904.12	228.73
904.43	228.71
904.73	228.68
905.03	228.60
905.34	228.79
905.64	228.73
905.95	228.76
906.25	228.72
906.56	228.61
906.86	228.59
907.17	228.60
907.47	228.70
907.77	228.62
908.08	228.64
908.38	228.68
908.69	228.60
908.99	228.63
909.30	228.71
909.60	228.74
909.90	228.57
910.21	228.45
910.51	228.47
910.81	228.54
911.12	228.57
911.42	228.51
911.73	228.31
912.03	228.39
912.33	228.37
912.64	228.35
912.94	228.43
913.24	228.45
913.55	228.32
913.85	228.30
914.15	228.32
914.46	228.37
914.76	228.18
915.06	228.30
915.37	228.13
915.67	228.04
915.97	228.08
916.27	228.14
916.58	228.23
916.88	228.14
917.18	228.09
917.49	228.25
917.79	228.21
918.09	228.23
918.39	228.34
918.70	228.30
919.00	228.44
919.30	228.46
919.60	228.44
919.91	228.60
920.21	228.62
920.51	228.67
920.81	228.58
921.12	228.77
921.42	228.82
921.72	228.95
922.02	228.90
922.32	228.97
922.63	228.97
922.93	229.07
923.23	229.10
923.53	229.19
923.83	229.07
924.13	229.26
924.44	229.26
924.74	229.34
925.04	229.42
925.34	229.32
925.64	229.32
925.94	229.31
926.24	229.39
926.55	229.41
926.85	229.49
927.15	229.52
927.45	229.51
927.75	229.39
928.05	229.36
928.35	229.44
928.65	229.43
928.95	229.41
929.26	229.31
929.56	229.40
929.86	229.33
930.16	229.35
930.46	229.32
930.76	229.26
931.06	229.10
931.36	229.12
931.66	229.06
931.96	229.01
932.26	229.00
932.56	228.90
932.86	228.95
933.16	229.00
933.46	229.11
933.76	229.10
934.06	229.21
934.36	229.37
934.66	229.34
934.96	229.37
935.26	229.49
935.56	229.47
935.86	229.37
936.16	229.41
936.46	229.40
936.76	229.36
937.06	229.37
937.36	229.38
937.66	229.27
937.96	229.43
938.26	229.42
938.56	229.51
938.86	229.58
939.16	229.52
939.46	229.49
939.76	229.39
940.06	229.37
940.35	229.34
940.65	229.15
940.95	229.14
941.25	229.04
941.55	229.00
941.85	228.97
942.15	229.00
942.45	229.05
942.75	229.00
943.04	228.92
943.34	228.90
943.64	228.90
943.94	228.89
944.24	228.82
944.54	228.74
944.84	228.65
945.13	228.61
945.43	228.59
945.73	228.58
946.03	228.49
946.33	228.39
946.62	228.34
946.92	228.32
947.22	228.35
947.52	228.30
947.82	228.27
948.11	228.22
948.41	228.14
948.71	228.06
949.01	228.02
949.31	228.02
949.60	228.01
949.90	228.02
950.20	227.94
950.50	227.88
950.79	227.84
951.09	227.87
951.39	227.80
951.69	227.79
951.98	227.76
952.28	227.79
952.58	227.74
952.87	227.72
953.17	227.69
953.47	227.58
953.76	227.62
954.06	227.60
954.36	227.61
954.66	227.68
954.95	227.68
955.25	227.73
955.55	227.76
955.84	227.79
956.14	227.76
956.44	227.78
956.73	227.82
957.03	227.91
957.32	227.84
957.62	227.76
957.92	227.69
958.21	227.62
958.51	227.80
958.81	227.90
959.10	227.86
959.40	228.02
959.69	228.06
959.99	228.10
960.29	228.04
960.58	228.05
960.88	228.00
961.17	227.97
961.47	227.93
961.76	227.86
962.06	227.85
962.36	227.81
962.65	227.89
962.95	227.84
963.24	227.78
963.54	227.83
963.83	227.84
964.13	227.92
964.42	227.98
964.72	227.91
965.01	227.95
965.31	227.99
965.60	227.84
965.90	227.96
966.19	227.88
966.49	227.94
966.78	227.95
967.08	227.94
967.37	228.00
967.67	228.04
967.96	228.12
968.26	228.08
968.55	228.11
968.85	228.20
969.14	228.29
969.43	228.37
969.73	228.36
970.02	228.41
970.32	228.33
970.61	228.31
970.91	228.27
971.20	228.31
971.49	228.38
971.79	228.45
972.08	228.27
972.38	228.36
972.67	228.33
972.96	228.35
973.26	228.37
973.55	228.32
973.85	228.35
974.14	228.30
974.43	228.35
974.73	228.46
975.02	228.38
975.31	228.28
975.61	228.29
975.90	228.39
976.19	228.32
976.49	228.43
976.78	228.45
977.07	228.44
977.37	228.38
977.66	228.40
977.95	228.41
978.24	228.49
978.54	228.57
978.83	228.50
979.12	228.50
979.42	228.58
979.71	228.69
980.00	228.65
980.29	228.76
980.59	228.76
980.88	228.70
981.17	228.66
981.46	228.74
981.76	228.75
982.05	228.80
982.34	228.87
982.63	228.85
982.93	228.85
983.22	228.88
983.51	228.88
983.80	228.82
984.09	228.85
984.39	228.81
984.68	228.78
984.97	228.78
985.26	228.78
985.55	228.71
985.85	228.57
986.14	228.55
986.43	228.52
986.72	228.46
987.01	228.45
987.30	228.49
987.59	228.43
987.89	228.41
988.18	228.32
988.47	228.26
988.76	228.24
989.05	228.14
989.34	228.15
989.63	228.16
989.92	228.11
990.22	228.00
990.51	227.91
990.80	227.77
991.09	227.83
991.38	227.87
991.67	227.73
991.96	227.74
992.25	227.74
992.54	227.77
992.83	227.78
993.12	227.73
993.41	227.70
993.70	227.74
993.99	227.72
994.28	227.65
994.58	227.74
994.87	227.64
995.16	227.65
995.45	227.57
995.74	227.47
996.03	227.55
996.32	227.56
996.61	227.70
996.90	227.78
997.19	227.79
997.48	227.78
997.77	227.90
998.06	227.91
998.34	227.86
998.63	227.74
998.92	227.74
999.21	227.90
999.50	227.96
999.79	227.90
1000.08	227.92
1000.37	227.95
1000.66	227.84
1000.95	227.87
1001.24	227.82
1001.53	227.83
1001.82	227.84
1002.11	227.87
1002.40	227.91
1002.68	227.97
1002.97	228.01
1003.26	227.98
1003.55	227.89
1003.84	227.87
1004.13	227.92
1004.42	227.85
1004.71	227.98
1004.99	227.90
1005.28	227.75
1005.57	227.72
1005.86	227.73
1006.15	227.71
1006.44	227.69
1006.72	227.74
1007.01	227.86
1007.30	227.97
1007.59	228.01
1007.88	228.10
1008.17	228.06
1008.45	228.05
1008.74	227.98
1009.03	227.99
1009.32	227.97
1009.60	227.97
1009.89	227.95
1010.18	227.88
1010.47	227.96
1010.76	227.94
1011.04	228.06
1011.33	228.20
1011.62	228.24
1011.91	228.35
1012.19	228.46
1012.48	228.46
1012.77	228.58
1013.05	228.60
1013.34	228.71
1013.63	228.67
1013.92	228.65
1014.20	228.70
1014.49	228.74
1014.78	228.72
1015.06	228.68
1015.35	228.87
1015.64	229.04
1015.92	229.17
1016.21	229.29
1016.50	229.36
1016.78	229.44
1017.07	229.39
1017.36	229.30
1017.64	229.36
1017.93	229.21
1018.22	229.18
1018.50	229.25
1018.79	229.25
1019.08	229.19
1019.36	229.15
1019.65	229.18
1019.93	229.24
1020.22	229.27
1020.51	229.27
1020.79	229.29
1021.08	229.40
1021.36	229.20
1021.65	229.30
1021.94	228.60
1022.22	229.70
1022.51	229.10
1022.79	229.80
1023.08	229.90
1023.36	229.00
1023.65	228.50
>>>>>End Processed Spectral Data<<<<<
