SpectraSuite Data File
++++++++++++++++++++++++++++++++++++
Date: Fri Feb 01 14:39:51 EST 2013
User: group
Dark Spectrum Present: No
Reference Spectrum Present: No
Number of Sampled Component Spectra: 1
Spectrometers: USB2E7196
Integration Time (usec): 70000 (USB2E7196)
Spectra Averaged: 10 (USB2E7196)
Boxcar Smoothing: 10 (USB2E7196)
Correct for Electrical Dark: No (USB2E7196)
Strobe/Lamp Enabled: No (USB2E7196)
Correct for Detector Non-linearity: No (USB2E7196)
Correct for Stray Light: No (USB2E7196)
Number of Pixels in Processed Spectrum: 2048
>>>>>Begin Processed Spectral Data<<<<<
339.09	0.00
339.48	216.80
339.86	218.40
340.24	219.00
340.63	220.20
341.01	226.10
341.39	223.50
341.78	224.60
342.16	228.20
342.54	226.00
342.93	215.09
343.31	225.86
343.69	226.39
344.07	226.85
344.46	227.30
344.84	227.73
345.22	227.74
345.60	227.96
345.99	228.12
346.37	228.14
346.75	228.21
347.13	228.16
347.52	228.17
347.90	228.21
348.28	228.02
348.66	228.22
349.05	228.20
349.43	228.26
349.81	228.26
350.19	228.18
350.57	228.24
350.96	228.26
351.34	228.28
351.72	228.31
352.10	228.35
352.48	228.30
352.87	228.29
353.25	228.48
353.63	228.53
354.01	228.54
354.39	228.56
354.77	228.64
355.15	228.81
355.54	228.91
355.92	228.80
356.30	228.93
356.68	229.09
357.06	229.10
357.44	229.09
357.82	229.19
358.20	229.25
358.58	229.29
358.97	229.31
359.35	229.51
359.73	229.64
360.11	229.62
360.49	229.79
360.87	229.82
361.25	229.87
361.63	229.94
362.01	229.98
362.39	230.01
362.77	230.09
363.15	230.12
363.53	230.04
363.91	230.13
364.29	230.28
364.67	230.19
365.05	230.20
365.43	230.26
365.81	230.22
366.19	230.30
366.57	230.38
366.95	230.40
367.33	230.31
367.71	230.26
368.09	230.32
368.47	230.20
368.85	230.19
369.23	230.29
369.61	230.26
369.99	230.25
370.37	230.24
370.75	230.20
371.13	230.11
371.51	230.10
371.89	230.14
372.27	230.14
372.65	230.08
373.03	230.03
373.41	229.98
373.78	229.94
374.16	229.82
374.54	229.67
374.92	229.61
375.30	229.56
375.68	229.46
376.06	229.44
376.44	229.45
376.82	229.41
377.19	229.20
377.57	229.07
377.95	229.01
378.33	228.90
378.71	228.81
379.09	228.71
379.47	228.61
379.84	228.53
380.22	228.43
380.60	228.31
380.98	228.22
381.36	228.12
381.73	228.09
382.11	228.00
382.49	227.94
382.87	227.78
383.25	227.76
383.62	227.87
384.00	227.74
384.38	227.60
384.76	227.47
385.13	227.42
385.51	227.42
385.89	227.38
386.27	227.40
386.64	227.35
387.02	227.29
387.40	227.28
387.78	227.17
388.15	227.06
388.53	226.92
388.91	226.85
389.29	226.80
389.66	226.74
390.04	226.67
390.42	226.62
390.79	226.68
391.17	226.64
391.55	226.36
391.92	226.40
392.30	226.43
392.68	226.58
393.05	226.53
393.43	226.44
393.81	226.42
394.18	226.33
394.56	226.40
394.94	226.34
395.31	226.34
395.69	226.43
396.06	226.42
396.44	226.50
396.82	226.53
397.19	226.60
397.57	226.55
397.95	226.64
398.32	226.67
398.70	226.76
399.07	226.89
399.45	227.02
399.82	227.00
400.20	227.07
400.58	226.94
400.95	226.95
401.33	227.07
401.70	227.34
402.08	227.49
402.45	227.48
402.83	227.73
403.20	227.82
403.58	227.87
403.95	228.08
404.33	228.24
404.71	228.40
405.08	228.64
405.46	228.96
405.83	229.13
406.21	229.27
406.58	229.40
406.96	229.51
407.33	229.74
407.70	229.96
408.08	230.37
408.45	230.67
408.83	231.04
409.20	231.30
409.58	231.49
409.95	231.74
410.33	232.05
410.70	232.26
411.08	232.62
411.45	233.01
411.82	233.37
412.20	233.73
412.57	234.21
412.95	234.43
413.32	234.78
413.69	235.16
414.07	235.61
414.44	236.12
414.82	236.60
415.19	237.20
415.56	237.77
415.94	238.14
416.31	238.78
416.68	239.38
417.06	240.16
417.43	240.77
417.81	241.61
418.18	242.45
418.55	243.29
418.93	244.24
419.30	245.17
419.67	246.00
420.04	246.82
420.42	247.69
420.79	249.01
421.16	250.10
421.54	251.35
421.91	252.49
422.28	253.71
422.66	255.08
423.03	256.46
423.40	257.78
423.77	259.25
424.15	260.67
424.52	262.06
424.89	263.71
425.26	265.31
425.64	266.68
426.01	268.23
426.38	269.92
426.75	271.59
427.13	273.41
427.50	275.26
427.87	277.41
428.24	279.22
428.61	280.85
428.99	282.79
429.36	284.84
429.73	287.11
430.10	289.17
430.47	291.22
430.85	293.29
431.22	295.55
431.59	298.04
431.96	300.32
432.33	302.98
432.70	305.27
433.08	308.16
433.45	310.84
433.82	313.60
434.19	316.62
434.56	319.60
434.93	322.20
435.30	324.95
435.68	327.84
436.05	330.96
436.42	334.00
436.79	336.84
437.16	339.76
437.53	342.65
437.90	345.56
438.27	348.46
438.64	351.41
439.01	354.10
439.38	356.44
439.75	358.69
440.13	361.32
440.50	363.88
440.87	365.61
441.24	367.61
441.61	369.79
441.98	371.38
442.35	373.20
442.72	375.27
443.09	377.22
443.46	378.29
443.83	378.94
444.20	379.54
444.57	380.30
444.94	380.70
445.31	381.20
445.68	381.90
446.05	382.08
446.42	381.86
446.79	381.63
447.16	381.25
447.53	381.06
447.90	379.95
448.27	378.88
448.64	377.57
449.01	376.68
449.37	374.70
449.74	372.80
450.11	370.53
450.48	368.06
450.85	365.44
451.22	363.33
451.59	361.37
451.96	359.38
452.33	356.84
452.70	354.38
453.07	351.56
453.43	348.46
453.80	345.66
454.17	343.01
454.54	340.34
454.91	337.54
455.28	334.87
455.65	332.30
456.02	329.98
456.38	327.75
456.75	325.00
457.12	322.80
457.49	320.46
457.86	318.24
458.23	316.26
458.59	314.29
458.96	312.25
459.33	310.30
459.70	308.43
460.07	307.01
460.43	305.34
460.80	303.67
461.17	302.04
461.54	300.50
461.91	298.78
462.27	297.37
462.64	296.11
463.01	294.70
463.38	293.46
463.74	291.76
464.11	290.52
464.48	289.43
464.85	288.24
465.21	287.29
465.58	286.32
465.95	285.18
466.32	284.12
466.68	283.06
467.05	282.02
467.42	281.00
467.78	279.79
468.15	278.78
468.52	277.93
468.88	277.05
469.25	276.10
469.62	275.47
469.98	274.51
470.35	273.74
470.72	272.99
471.08	271.95
471.45	271.41
471.82	270.75
472.18	269.95
472.55	269.40
472.92	268.82
473.28	268.18
473.65	267.45
474.02	266.81
474.38	266.20
474.75	265.77
475.11	265.16
475.48	264.71
475.85	264.16
476.21	263.63
476.58	263.22
476.94	262.81
477.31	262.30
477.67	262.02
478.04	261.65
478.41	261.30
478.77	261.30
479.14	260.75
479.50	260.33
479.87	260.08
480.23	259.79
480.60	259.46
480.96	259.15
481.33	259.05
481.69	258.95
482.06	258.75
482.42	258.59
482.79	258.40
483.15	258.12
483.52	258.08
483.88	257.99
484.25	257.80
484.61	257.82
484.98	257.78
485.34	257.75
485.71	257.74
486.07	257.64
486.44	257.40
486.80	257.49
487.17	257.41
487.53	257.60
487.90	257.70
488.26	257.85
488.62	258.11
488.99	258.23
489.35	258.29
489.72	258.46
490.08	258.52
490.44	258.77
490.81	259.13
491.17	259.32
491.54	259.49
491.90	259.76
492.26	259.97
492.63	260.20
492.99	260.60
493.36	260.87
493.72	261.29
494.08	261.64
494.45	262.01
494.81	262.71
495.17	262.98
495.54	263.50
495.90	263.95
496.26	264.36
496.63	264.94
496.99	265.71
497.35	266.35
497.72	267.08
498.08	267.71
498.44	268.52
498.80	269.33
499.17	270.30
499.53	271.27
499.89	272.19
500.26	273.21
500.62	274.06
500.98	275.29
501.34	276.42
501.71	277.66
502.07	278.97
502.43	280.06
502.79	281.39
503.16	282.74
503.52	284.19
503.88	285.63
504.24	287.12
504.60	288.64
504.97	290.39
505.33	292.14
505.69	294.03
506.05	295.86
506.41	297.81
506.78	299.78
507.14	301.77
507.50	303.97
507.86	306.29
508.22	308.68
508.59	311.03
508.95	313.59
509.31	316.19
509.67	318.89
510.03	321.77
510.39	324.70
510.75	327.78
511.12	330.80
511.48	334.04
511.84	337.23
512.20	340.43
512.56	343.80
512.92	347.37
513.28	351.16
513.64	355.13
514.00	359.10
514.37	363.16
514.73	367.50
515.09	371.68
515.45	375.90
515.81	380.45
516.17	385.05
516.53	389.82
516.89	394.66
517.25	399.52
517.61	404.60
517.97	409.77
518.33	414.78
518.69	420.08
519.05	425.57
519.41	431.33
519.77	437.37
520.13	443.20
520.49	449.09
520.85	454.89
521.21	460.74
521.57	466.90
521.93	472.84
522.29	479.12
522.65	485.67
523.01	492.30
523.37	498.69
523.73	505.31
524.09	511.99
524.45	518.94
524.81	526.12
525.17	533.30
525.53	540.58
525.89	548.05
526.25	555.68
526.61	563.00
526.97	570.62
527.33	578.18
527.68	586.30
528.04	593.97
528.40	601.98
528.76	610.11
529.12	618.38
529.48	626.96
529.84	635.32
530.20	643.91
530.56	652.66
530.91	661.84
531.27	670.63
531.63	679.34
531.99	688.00
532.35	696.74
532.71	705.50
533.07	714.84
533.42	724.01
533.78	733.11
534.14	742.35
534.50	751.23
534.86	760.46
535.21	769.06
535.57	778.75
535.93	788.01
536.29	797.65
536.65	806.97
537.00	815.85
537.36	825.20
537.72	834.27
538.08	843.33
538.44	852.01
538.79	861.36
539.15	870.67
539.51	880.20
539.87	889.39
540.22	898.59
540.58	907.75
540.94	916.91
541.29	925.93
541.65	934.95
542.01	944.36
542.37	953.74
542.72	963.14
543.08	971.98
543.44	981.02
543.79	989.31
544.15	998.20
544.51	1007.70
544.87	1016.69
545.22	1025.45
545.58	1033.96
545.94	1042.41
546.29	1050.82
546.65	1059.15
547.01	1067.27
547.36	1075.48
547.72	1083.82
548.07	1091.40
548.43	1099.40
548.79	1107.19
549.14	1115.16
549.50	1122.51
549.86	1129.83
550.21	1137.10
550.57	1144.47
550.92	1152.09
551.28	1159.62
551.64	1166.80
551.99	1174.06
552.35	1180.80
552.70	1187.85
553.06	1195.17
553.41	1202.49
553.77	1209.50
554.13	1216.57
554.48	1223.53
554.84	1230.58
555.19	1237.32
555.55	1244.41
555.90	1250.57
556.26	1256.98
556.61	1263.36
556.97	1269.44
557.32	1275.49
557.68	1281.66
558.03	1288.14
558.39	1293.98
558.74	1300.22
559.10	1306.31
559.45	1311.93
559.81	1318.20
560.16	1323.57
560.52	1328.94
560.87	1334.45
561.23	1339.31
561.58	1344.59
561.94	1349.50
562.29	1353.96
562.64	1358.24
563.00	1362.56
563.35	1367.84
563.71	1373.25
564.06	1378.36
564.42	1383.57
564.77	1388.24
565.12	1392.82
565.48	1397.25
565.83	1400.98
566.19	1404.65
566.54	1408.25
566.89	1412.04
567.25	1415.56
567.60	1419.69
567.96	1423.51
568.31	1426.88
568.66	1430.18
569.02	1433.10
569.37	1436.12
569.72	1439.19
570.08	1442.31
570.43	1445.20
570.78	1447.32
571.14	1448.84
571.49	1450.86
571.84	1453.22
572.20	1454.97
572.55	1456.94
572.90	1458.00
573.26	1460.03
573.61	1461.74
573.96	1462.80
574.31	1463.40
574.67	1463.58
575.02	1464.18
575.37	1464.85
575.72	1464.88
576.08	1465.79
576.43	1466.20
576.78	1466.51
577.13	1467.36
577.49	1467.94
577.84	1468.07
578.19	1468.44
578.54	1468.66
578.90	1468.12
579.25	1467.19
579.60	1466.58
579.95	1465.75
580.30	1464.81
580.66	1463.55
581.01	1462.47
581.36	1461.84
581.71	1461.60
582.06	1460.85
582.42	1459.52
582.77	1457.82
583.12	1456.85
583.47	1455.75
583.82	1454.78
584.17	1453.34
584.53	1451.62
584.88	1449.80
585.23	1448.13
585.58	1446.32
585.93	1444.55
586.28	1443.37
586.63	1442.05
586.98	1440.82
587.34	1439.20
587.69	1437.83
588.04	1436.49
588.39	1434.85
588.74	1432.29
589.09	1429.57
589.44	1427.30
589.79	1425.62
590.14	1423.88
590.49	1421.71
590.84	1418.97
591.19	1416.45
591.54	1413.50
591.89	1409.96
592.25	1407.10
592.60	1403.95
592.95	1400.59
593.30	1397.50
593.65	1393.92
594.00	1390.32
594.35	1387.22
594.70	1383.71
595.05	1380.46
595.40	1377.00
595.75	1373.27
596.10	1370.54
596.45	1367.83
596.80	1365.42
597.15	1361.97
597.50	1358.63
597.85	1355.58
598.19	1352.73
598.54	1349.60
598.89	1346.78
599.24	1344.56
599.59	1341.38
599.94	1338.32
600.29	1335.10
600.64	1331.84
600.99	1328.11
601.34	1325.15
601.69	1321.34
602.04	1318.01
602.39	1314.50
602.74	1311.36
603.08	1308.37
603.43	1305.26
603.78	1301.38
604.13	1297.41
604.48	1293.77
604.83	1290.21
605.18	1286.74
605.53	1282.24
605.87	1277.96
606.22	1274.06
606.57	1269.57
606.92	1265.74
607.27	1261.86
607.62	1258.43
607.96	1254.68
608.31	1251.20
608.66	1246.81
609.01	1242.57
609.36	1238.04
609.70	1233.06
610.05	1228.08
610.40	1223.57
610.75	1218.64
611.10	1214.03
611.44	1208.78
611.79	1204.18
612.14	1199.17
612.49	1193.26
612.83	1188.40
613.18	1183.50
613.53	1178.55
613.88	1173.26
614.22	1168.09
614.57	1162.77
614.92	1157.37
615.27	1152.48
615.61	1147.20
615.96	1142.12
616.31	1137.57
616.65	1133.37
617.00	1128.93
617.35	1124.40
617.70	1119.19
618.04	1114.22
618.39	1109.23
618.74	1104.91
619.08	1099.93
619.43	1094.89
619.78	1090.73
620.12	1086.28
620.47	1081.45
620.82	1076.40
621.16	1071.91
621.51	1067.07
621.85	1062.34
622.20	1057.40
622.55	1052.31
622.89	1047.50
623.24	1042.99
623.59	1038.16
623.93	1033.28
624.28	1028.79
624.62	1023.80
624.97	1019.35
625.32	1014.67
625.66	1010.29
626.01	1005.31
626.35	1000.37
626.70	995.97
627.04	991.38
627.39	986.40
627.73	981.40
628.08	976.77
628.43	972.19
628.77	967.67
629.12	962.79
629.46	958.24
629.81	953.10
630.15	948.26
630.50	943.24
630.84	937.94
631.19	932.44
631.53	927.36
631.88	922.28
632.22	916.87
632.57	912.04
632.91	906.82
633.26	902.04
633.60	897.09
633.95	892.17
634.29	887.32
634.64	883.01
634.98	878.65
635.32	874.11
635.67	869.55
636.01	864.88
636.36	860.45
636.70	855.78
637.05	851.48
637.39	847.28
637.73	843.01
638.08	838.92
638.42	835.04
638.77	830.98
639.11	826.87
639.45	822.82
639.80	818.30
640.14	814.31
640.49	810.17
640.83	806.11
641.17	802.03
641.52	797.85
641.86	793.18
642.20	788.94
642.55	784.84
642.89	780.48
643.23	776.40
643.58	772.56
643.92	768.30
644.26	764.17
644.61	760.19
644.95	756.03
645.29	751.56
645.64	746.86
645.98	742.61
646.32	738.58
646.66	734.37
647.01	730.48
647.35	726.16
647.69	721.96
648.04	717.90
648.38	713.47
648.72	709.08
649.06	705.02
649.41	700.90
649.75	696.49
650.09	692.70
650.43	688.44
650.78	684.04
651.12	679.70
651.46	675.69
651.80	671.31
652.14	667.21
652.49	663.58
652.83	660.15
653.17	655.84
653.51	651.81
653.85	647.85
654.20	643.76
654.54	639.87
654.88	635.81
655.22	631.75
655.56	627.78
655.90	624.16
656.25	620.31
656.59	616.55
656.93	613.03
657.27	609.03
657.61	605.30
657.95	601.76
658.29	598.43
658.64	594.93
658.98	591.20
659.32	587.38
659.66	583.51
660.00	579.69
660.34	576.26
660.68	572.73
661.02	569.20
661.36	566.01
661.70	562.82
662.05	559.58
662.39	556.65
662.73	553.54
663.07	550.28
663.41	547.25
663.75	544.04
664.09	540.85
664.43	537.82
664.77	534.88
665.11	531.92
665.45	528.99
665.79	526.11
666.13	523.16
666.47	520.47
666.81	517.70
667.15	514.74
667.49	511.92
667.83	509.36
668.17	506.53
668.51	503.50
668.85	500.43
669.19	497.72
669.53	494.79
669.87	492.00
670.21	489.50
670.55	486.87
670.89	484.46
671.23	482.21
671.57	479.65
671.91	477.19
672.25	474.55
672.58	472.10
672.92	469.59
673.26	467.37
673.60	465.01
673.94	462.78
674.28	460.88
674.62	458.78
674.96	456.37
675.30	454.31
675.64	452.25
675.97	450.28
676.31	448.17
676.65	446.01
676.99	444.08
677.33	441.78
677.67	439.72
678.01	437.60
678.34	435.39
678.68	433.34
679.02	431.15
679.36	429.26
679.70	427.37
680.04	425.22
680.37	423.20
680.71	421.29
681.05	419.37
681.39	417.26
681.73	415.37
682.06	413.58
682.40	411.74
682.74	409.92
683.08	408.11
683.42	406.27
683.75	404.44
684.09	402.68
684.43	400.93
684.77	399.15
685.10	397.25
685.44	395.35
685.78	393.70
686.12	391.94
686.45	390.02
686.79	388.21
687.13	386.61
687.46	384.95
687.80	383.24
688.14	381.37
688.48	379.80
688.81	378.07
689.15	376.48
689.49	374.74
689.82	373.21
690.16	371.50
690.50	370.04
690.83	368.44
691.17	366.80
691.51	365.18
691.84	363.80
692.18	362.40
692.52	360.98
692.85	359.54
693.19	358.09
693.52	356.79
693.86	355.38
694.20	353.96
694.53	352.50
694.87	351.07
695.21	349.70
695.54	348.23
695.88	346.81
696.21	345.31
696.55	344.10
696.88	342.66
697.22	341.30
697.56	339.94
697.89	338.66
698.23	337.35
698.56	336.21
698.90	334.90
699.23	333.56
699.57	332.20
699.90	330.83
700.24	329.46
700.58	328.15
700.91	326.97
701.25	325.85
701.58	324.74
701.92	323.55
702.25	322.43
702.59	321.36
702.92	320.30
703.26	319.28
703.59	318.25
703.93	317.31
704.26	316.38
704.60	315.47
704.93	314.50
705.26	313.47
705.60	312.35
705.93	311.30
706.27	310.47
706.60	309.68
706.94	308.94
707.27	308.11
707.61	307.19
707.94	306.17
708.27	305.16
708.61	304.18
708.94	303.41
709.28	302.61
709.61	301.82
709.94	301.10
710.28	300.23
710.61	299.34
710.95	298.26
711.28	297.51
711.61	296.53
711.95	295.72
712.28	294.86
712.61	294.08
712.95	293.38
713.28	292.59
713.61	291.77
713.95	290.95
714.28	290.34
714.61	289.66
714.95	289.06
715.28	288.34
715.61	287.72
715.95	287.02
716.28	286.28
716.61	285.60
716.95	285.07
717.28	284.49
717.61	283.88
717.94	283.44
718.28	282.73
718.61	282.20
718.94	281.73
719.27	281.28
719.61	280.78
719.94	280.20
720.27	279.57
720.60	279.12
720.94	278.56
721.27	277.98
721.60	277.56
721.93	277.11
722.27	276.76
722.60	276.28
722.93	275.78
723.26	275.40
723.59	274.91
723.93	274.28
724.26	273.84
724.59	273.32
724.92	272.82
725.25	272.37
725.59	271.92
725.92	271.40
726.25	270.91
726.58	270.42
726.91	269.96
727.24	269.60
727.57	269.02
727.91	268.68
728.24	268.36
728.57	267.95
728.90	267.52
729.23	266.98
729.56	266.70
729.89	266.39
730.22	265.97
730.55	265.55
730.89	265.24
731.22	264.81
731.55	264.48
731.88	264.10
732.21	263.69
732.54	263.30
732.87	262.97
733.20	262.60
733.53	262.33
733.86	262.01
734.19	261.62
734.52	261.45
734.85	261.10
735.18	260.60
735.51	260.25
735.84	259.90
736.17	259.72
736.50	259.22
736.83	259.07
737.16	258.73
737.49	258.45
737.82	258.05
738.15	257.64
738.48	257.35
738.81	257.03
739.14	256.68
739.47	256.31
739.80	255.93
740.13	255.72
740.46	255.44
740.79	255.13
741.12	254.79
741.45	254.39
741.78	254.00
742.11	253.74
742.44	253.35
742.77	252.93
743.10	252.50
743.43	252.15
743.75	251.50
744.08	251.49
744.41	251.13
744.74	250.82
745.07	250.65
745.40	250.36
745.73	250.12
746.06	249.96
746.39	249.70
746.71	249.47
747.04	249.15
747.37	248.75
747.70	248.46
748.03	248.20
748.36	248.04
748.68	247.90
749.01	247.70
749.34	247.55
749.67	247.38
750.00	247.18
750.33	247.19
750.65	247.04
750.98	246.56
751.31	246.36
751.64	246.24
751.97	246.12
752.29	245.89
752.62	245.59
752.95	245.40
753.28	245.18
753.60	244.94
753.93	244.78
754.26	244.65
754.59	244.41
754.91	244.27
755.24	243.99
755.57	243.73
755.90	243.56
756.22	243.25
756.55	243.15
756.88	242.97
757.20	242.66
757.53	242.43
757.86	242.34
758.19	242.27
758.51	242.06
758.84	241.72
759.17	241.58
759.49	241.61
759.82	241.51
760.15	241.46
760.47	241.34
760.80	241.05
761.13	241.01
761.45	240.91
761.78	240.83
762.11	240.76
762.43	240.69
762.76	240.63
763.08	240.65
763.41	240.53
763.74	240.41
764.06	240.30
764.39	240.20
764.71	240.09
765.04	239.89
765.37	239.74
765.69	239.64
766.02	239.54
766.34	239.25
766.67	239.08
767.00	239.01
767.32	239.07
767.65	239.20
767.97	239.10
768.30	238.99
768.62	238.80
768.95	238.65
769.27	238.51
769.60	238.30
769.92	238.15
770.25	237.96
770.57	237.90
770.90	237.76
771.22	237.64
771.55	237.44
771.87	237.37
772.20	237.25
772.52	237.43
772.85	237.56
773.17	237.54
773.50	237.39
773.82	237.16
774.15	236.89
774.47	236.60
774.80	236.41
775.12	236.25
775.45	236.24
775.77	236.23
776.09	236.03
776.42	236.01
776.74	235.99
777.07	235.94
777.39	235.76
777.72	235.63
778.04	235.63
778.36	235.50
778.69	235.51
779.01	235.48
779.33	235.12
779.66	234.77
779.98	234.64
780.31	234.54
780.63	234.59
780.95	234.54
781.28	234.39
781.60	234.25
781.92	234.18
782.25	233.96
782.57	233.82
782.89	233.85
783.22	233.70
783.54	233.57
783.86	233.50
784.19	233.41
784.51	233.40
784.83	233.25
785.16	233.29
785.48	233.12
785.80	232.95
786.12	232.81
786.45	232.74
786.77	232.63
787.09	232.56
787.42	232.39
787.74	232.41
788.06	232.39
788.38	232.40
788.71	232.32
789.03	232.29
789.35	232.14
789.67	232.09
789.99	232.12
790.32	232.07
790.64	232.00
790.96	232.25
791.28	232.10
791.61	232.01
791.93	231.93
792.25	231.90
792.57	232.06
792.89	232.11
793.21	232.11
793.54	232.28
793.86	232.16
794.18	232.17
794.50	232.03
794.82	232.05
795.14	232.15
795.47	232.20
795.79	232.19
796.11	232.20
796.43	232.17
796.75	232.07
797.07	232.08
797.39	231.96
797.71	231.76
798.04	231.79
798.36	231.90
798.68	231.90
799.00	231.97
799.32	231.93
799.64	232.01
799.96	232.01
800.28	231.90
800.60	232.02
800.92	232.05
801.24	232.15
801.56	232.13
801.89	232.01
802.21	232.10
802.53	232.09
802.85	232.21
803.17	232.31
803.49	232.28
803.81	232.24
804.13	232.46
804.45	232.41
804.77	232.53
805.09	232.47
805.41	232.46
805.73	232.30
806.05	232.25
806.37	232.11
806.69	232.06
807.01	232.07
807.33	232.09
807.65	231.99
807.97	232.04
808.28	232.00
808.60	232.06
808.92	231.97
809.24	232.11
809.56	232.12
809.88	232.05
810.20	232.10
810.52	232.20
810.84	232.04
811.16	231.98
811.48	231.90
811.80	231.90
812.12	231.85
812.43	231.93
812.75	231.85
813.07	231.92
813.39	231.89
813.71	231.78
814.03	231.58
814.35	231.53
814.67	231.37
814.98	231.38
815.30	231.31
815.62	231.22
815.94	231.02
816.26	230.96
816.58	230.84
816.89	230.86
817.21	230.75
817.53	230.84
817.85	230.78
818.17	230.76
818.48	230.72
818.80	230.76
819.12	230.60
819.44	230.52
819.76	230.43
820.07	230.43
820.39	230.41
820.71	230.64
821.03	230.61
821.34	230.58
821.66	230.64
821.98	230.55
822.30	230.45
822.61	230.47
822.93	230.30
823.25	230.26
823.57	230.11
823.88	230.06
824.20	229.86
824.52	229.82
824.83	229.76
825.15	229.67
825.47	229.55
825.79	229.55
826.10	229.52
826.42	229.47
826.74	229.55
827.05	229.58
827.37	229.41
827.69	229.34
828.00	229.24
828.32	229.12
828.64	229.11
828.95	229.22
829.27	229.28
829.58	229.29
829.90	229.34
830.22	229.35
830.53	229.34
830.85	229.37
831.17	229.47
831.48	229.49
831.80	229.53
832.11	229.60
832.43	229.62
832.75	229.63
833.06	229.70
833.38	229.51
833.69	229.43
834.01	229.44
834.32	229.50
834.64	229.53
834.96	229.58
835.27	229.64
835.59	229.68
835.90	229.57
836.22	229.57
836.53	229.52
836.85	229.55
837.16	229.72
837.48	229.75
837.79	229.73
838.11	229.74
838.42	229.71
838.74	229.80
839.05	229.82
839.37	229.88
839.68	229.86
840.00	229.94
840.31	230.00
840.63	230.00
840.94	230.09
841.26	230.21
841.57	230.14
841.88	230.20
842.20	230.18
842.51	230.24
842.83	230.30
843.14	230.46
843.46	230.44
843.77	230.45
844.08	230.39
844.40	230.34
844.71	230.30
845.03	230.30
845.34	230.21
845.65	230.23
845.97	230.17
846.28	230.16
846.60	230.18
846.91	230.19
847.22	230.30
847.54	230.41
847.85	230.32
848.16	230.33
848.48	230.26
848.79	230.37
849.10	230.29
849.42	230.19
849.73	230.10
850.04	230.07
850.36	229.93
850.67	229.99
850.98	230.06
851.30	230.10
851.61	230.19
851.92	230.16
852.23	230.15
852.55	230.15
852.86	230.13
853.17	230.12
853.49	230.13
853.80	230.12
854.11	230.01
854.42	229.98
854.74	230.05
855.05	229.99
855.36	229.79
855.67	229.92
855.99	230.00
856.30	230.18
856.61	230.09
856.92	230.08
857.23	229.98
857.55	229.85
857.86	229.78
858.17	229.70
858.48	229.62
858.79	229.55
859.11	229.66
859.42	229.61
859.73	229.65
860.04	229.59
860.35	229.44
860.66	229.28
860.98	229.39
861.29	229.27
861.60	229.15
861.91	229.21
862.22	229.00
862.53	228.96
862.84	228.69
863.16	228.78
863.47	228.66
863.78	228.68
864.09	228.67
864.40	228.63
864.71	228.55
865.02	228.56
865.33	228.54
865.64	228.42
865.95	228.46
866.27	228.38
866.58	228.34
866.89	228.40
867.20	228.41
867.51	228.31
867.82	228.33
868.13	228.53
868.44	228.47
868.75	228.55
869.06	228.53
869.37	228.49
869.68	228.35
869.99	228.37
870.30	228.41
870.61	228.38
870.92	228.38
871.23	228.36
871.54	228.37
871.85	228.40
872.16	228.41
872.47	228.43
872.78	228.32
873.09	228.35
873.40	228.30
873.71	228.33
874.02	228.20
874.33	228.13
874.64	227.99
874.95	228.00
875.26	227.90
875.56	227.85
875.87	227.89
876.18	227.94
876.49	228.13
876.80	228.12
877.11	228.20
877.42	228.20
877.73	228.18
878.04	228.24
878.35	228.25
878.66	228.23
878.96	228.12
879.27	228.24
879.58	228.22
879.89	228.19
880.20	228.20
880.51	228.38
880.82	228.49
881.12	228.53
881.43	228.53
881.74	228.58
882.05	228.59
882.36	228.50
882.67	228.61
882.97	228.48
883.28	228.36
883.59	228.35
883.90	228.30
884.21	228.39
884.51	228.37
884.82	228.42
885.13	228.48
885.44	228.60
885.74	228.55
886.05	228.57
886.36	228.64
886.67	228.68
886.98	228.80
887.28	228.82
887.59	228.87
887.90	228.93
888.20	228.89
888.51	228.97
888.82	228.99
889.13	228.99
889.43	229.13
889.74	229.15
890.05	229.20
890.35	229.25
890.66	229.28
890.97	229.22
891.28	229.14
891.58	229.14
891.89	229.20
892.20	229.23
892.50	229.18
892.81	229.17
893.12	229.23
893.42	229.07
893.73	229.06
894.04	228.97
894.34	228.87
894.65	228.93
894.95	228.95
895.26	228.97
895.57	229.05
895.87	228.84
896.18	228.94
896.48	228.94
896.79	228.86
897.10	228.81
897.40	228.89
897.71	228.90
898.01	228.84
898.32	228.75
898.63	228.69
898.93	228.70
899.24	228.68
899.54	228.60
899.85	228.54
900.15	228.50
900.46	228.50
900.76	228.56
901.07	228.54
901.38	228.50
901.68	228.56
901.99	228.30
902.29	228.30
902.60	228.23
902.90	228.22
903.21	228.22
903.51	228.24
903.82	228.17
904.12	228.10
904.43	228.08
904.73	228.09
905.03	228.04
905.34	228.21
905.64	228.16
905.95	228.14
906.25	228.16
906.56	228.12
906.86	228.15
907.17	228.12
907.47	228.06
907.77	227.95
908.08	227.88
908.38	227.87
908.69	227.95
908.99	228.05
909.30	227.88
909.60	227.98
909.90	227.96
910.21	227.90
910.51	228.03
910.81	228.03
911.12	227.97
911.42	227.97
911.73	227.81
912.03	227.82
912.33	227.84
912.64	227.77
912.94	227.72
913.24	227.70
913.55	227.72
913.85	227.75
914.15	227.81
914.46	227.88
914.76	227.90
915.06	227.86
915.37	227.67
915.67	227.70
915.97	227.60
916.27	227.58
916.58	227.69
916.88	227.58
917.18	227.65
917.49	227.84
917.79	227.88
918.09	227.91
918.39	227.91
918.70	227.90
919.00	228.03
919.30	228.17
919.60	228.10
919.91	228.15
920.21	228.12
920.51	228.25
920.81	228.19
921.12	228.34
921.42	228.38
921.72	228.43
922.02	228.59
922.32	228.70
922.63	228.75
922.93	228.85
923.23	228.87
923.53	228.76
923.83	228.61
924.13	228.61
924.44	228.56
924.74	228.69
925.04	228.80
925.34	228.76
925.64	228.70
925.94	228.76
926.24	228.86
926.55	228.94
926.85	228.92
927.15	229.00
927.45	228.99
927.75	228.98
928.05	229.11
928.35	229.08
928.65	229.19
928.95	229.22
929.26	229.16
929.56	229.21
929.86	229.30
930.16	229.28
930.46	229.44
930.76	229.56
931.06	229.44
931.36	229.31
931.66	229.34
931.96	229.37
932.26	229.31
932.56	229.13
932.86	229.16
933.16	229.13
933.46	229.09
933.76	229.07
934.06	229.07
934.36	229.07
934.66	229.09
934.96	228.95
935.26	228.93
935.56	228.98
935.86	228.98
936.16	228.88
936.46	228.91
936.76	228.78
937.06	228.61
937.36	228.62
937.66	228.67
937.96	228.64
938.26	228.60
938.56	228.60
938.86	228.59
939.16	228.58
939.46	228.62
939.76	228.71
940.06	228.70
940.35	228.60
940.65	228.58
940.95	228.47
941.25	228.43
941.55	228.49
941.85	228.26
942.15	228.38
942.45	228.45
942.75	228.39
943.04	228.48
943.34	228.60
943.64	228.68
943.94	228.66
944.24	228.61
944.54	228.65
944.84	228.65
945.13	228.70
945.43	228.69
945.73	228.63
946.03	228.45
946.33	228.38
946.62	228.40
946.92	228.37
947.22	228.40
947.52	228.47
947.82	228.41
948.11	228.55
948.41	228.45
948.71	228.44
949.01	228.46
949.31	228.32
949.60	228.27
949.90	228.12
950.20	227.98
950.50	227.98
950.79	227.94
951.09	228.01
951.39	227.92
951.69	227.85
951.98	227.87
952.28	227.98
952.58	227.97
952.87	227.90
953.17	227.82
953.47	227.78
953.76	227.75
954.06	227.54
954.36	227.41
954.66	227.31
954.95	227.36
955.25	227.38
955.55	227.43
955.84	227.41
956.14	227.50
956.44	227.63
956.73	227.63
957.03	227.57
957.32	227.58
957.62	227.64
957.92	227.68
958.21	227.64
958.51	227.80
958.81	227.72
959.10	227.78
959.40	227.80
959.69	227.86
959.99	227.79
960.29	227.90
960.58	227.91
960.88	227.95
961.17	227.89
961.47	227.84
961.76	227.80
962.06	227.82
962.36	227.77
962.65	227.73
962.95	227.64
963.24	227.65
963.54	227.59
963.83	227.58
964.13	227.64
964.42	227.58
964.72	227.52
965.01	227.61
965.31	227.58
965.60	227.53
965.90	227.62
966.19	227.64
966.49	227.67
966.78	227.71
967.08	227.79
967.37	227.83
967.67	227.90
967.96	227.93
968.26	227.91
968.55	227.96
968.85	228.09
969.14	228.15
969.43	228.08
969.73	228.12
970.02	228.16
970.32	228.11
970.61	228.22
970.91	228.09
971.20	228.19
971.49	228.21
971.79	228.32
972.08	228.31
972.38	228.39
972.67	228.40
972.96	228.42
973.26	228.38
973.55	228.41
973.85	228.43
974.14	228.40
974.43	228.33
974.73	228.32
975.02	228.18
975.31	228.28
975.61	228.44
975.90	228.48
976.19	228.39
976.49	228.47
976.78	228.44
977.07	228.43
977.37	228.31
977.66	228.40
977.95	228.39
978.24	228.36
978.54	228.39
978.83	228.45
979.12	228.50
979.42	228.54
979.71	228.53
980.00	228.50
980.29	228.62
980.59	228.63
980.88	228.58
981.17	228.61
981.46	228.44
981.76	228.32
982.05	228.33
982.34	228.34
982.63	228.18
982.93	228.18
983.22	228.28
983.51	228.29
983.80	228.29
984.09	228.26
984.39	228.20
984.68	228.09
984.97	227.97
985.26	227.86
985.55	227.85
985.85	227.77
986.14	227.69
986.43	227.57
986.72	227.56
987.01	227.57
987.30	227.56
987.59	227.64
987.89	227.64
988.18	227.58
988.47	227.52
988.76	227.54
989.05	227.49
989.34	227.37
989.63	227.42
989.92	227.40
990.22	227.37
990.51	227.41
990.80	227.48
991.09	227.52
991.38	227.59
991.67	227.48
991.96	227.51
992.25	227.47
992.54	227.58
992.83	227.59
993.12	227.54
993.41	227.50
993.70	227.62
993.99	227.71
994.28	227.77
994.58	227.81
994.87	227.85
995.16	227.89
995.45	227.92
995.74	227.86
996.03	227.86
996.32	228.00
996.61	228.01
996.90	227.93
997.19	227.89
997.48	227.95
997.77	228.00
998.06	227.95
998.34	228.14
998.63	228.09
998.92	228.16
999.21	228.29
999.50	228.39
999.79	228.35
1000.08	228.40
1000.37	228.34
1000.66	228.37
1000.95	228.46
1001.24	228.51
1001.53	228.54
1001.82	228.53
1002.11	228.58
1002.40	228.54
1002.68	228.57
1002.97	228.73
1003.26	228.79
1003.55	228.60
1003.84	228.64
1004.13	228.75
1004.42	228.66
1004.71	228.76
1004.99	228.74
1005.28	228.81
1005.57	228.72
1005.86	228.65
1006.15	228.56
1006.44	228.64
1006.72	228.69
1007.01	228.67
1007.30	228.65
1007.59	228.72
1007.88	228.77
1008.17	228.73
1008.45	228.75
1008.74	228.66
1009.03	228.63
1009.32	228.65
1009.60	228.74
1009.89	228.73
1010.18	228.68
1010.47	228.70
1010.76	228.68
1011.04	228.60
1011.33	228.58
1011.62	228.67
1011.91	228.75
1012.19	228.85
1012.48	228.84
1012.77	228.79
1013.05	228.95
1013.34	228.92
1013.63	228.87
1013.92	228.89
1014.20	228.87
1014.49	228.83
1014.78	228.93
1015.06	228.89
1015.35	228.95
1015.64	229.11
1015.92	229.05
1016.21	229.05
1016.50	229.07
1016.78	228.96
1017.07	229.02
1017.36	228.97
1017.64	228.97
1017.93	228.84
1018.22	228.75
1018.50	228.61
1018.79	228.67
1019.08	228.42
1019.36	228.39
1019.65	228.30
1019.93	228.26
1020.22	228.31
1020.51	228.40
1020.79	228.29
1021.08	227.80
1021.36	226.40
1021.65	229.30
1021.94	227.00
1022.22	227.80
1022.51	227.10
1022.79	227.80
1023.08	229.20
1023.36	230.90
1023.65	227.30
>>>>>End Processed Spectral Data<<<<<
