SpectraSuite Data File
++++++++++++++++++++++++++++++++++++
Date: Fri Feb 01 14:39:38 EST 2013
User: group
Dark Spectrum Present: No
Reference Spectrum Present: No
Number of Sampled Component Spectra: 1
Spectrometers: USB2E7196
Integration Time (usec): 70000 (USB2E7196)
Spectra Averaged: 10 (USB2E7196)
Boxcar Smoothing: 10 (USB2E7196)
Correct for Electrical Dark: No (USB2E7196)
Strobe/Lamp Enabled: No (USB2E7196)
Correct for Detector Non-linearity: No (USB2E7196)
Correct for Stray Light: No (USB2E7196)
Number of Pixels in Processed Spectrum: 2048
>>>>>Begin Processed Spectral Data<<<<<
339.09	0.00
339.48	216.90
339.86	219.30
340.24	219.20
340.63	220.20
341.01	224.30
341.39	223.30
341.78	222.30
342.16	225.70
342.54	225.10
342.93	214.58
343.31	225.47
343.69	225.95
344.07	226.35
344.46	226.80
344.84	227.19
345.22	227.41
345.60	227.67
345.99	227.97
346.37	228.18
346.75	228.33
347.13	228.48
347.52	228.47
347.90	228.59
348.28	228.54
348.66	228.58
349.05	228.56
349.43	228.51
349.81	228.60
350.19	228.54
350.57	228.56
350.96	228.70
351.34	228.74
351.72	228.92
352.10	228.95
352.48	228.89
352.87	229.03
353.25	229.05
353.63	229.06
354.01	229.06
354.39	229.02
354.77	228.98
355.15	229.00
355.54	229.05
355.92	229.02
356.30	229.13
356.68	229.21
357.06	229.20
357.44	229.24
357.82	229.28
358.20	229.37
358.58	229.52
358.97	229.57
359.35	229.70
359.73	229.68
360.11	229.73
360.49	229.85
360.87	229.74
361.25	229.81
361.63	229.88
362.01	229.98
362.39	230.01
362.77	230.10
363.15	230.20
363.53	230.21
363.91	230.19
364.29	230.06
364.67	229.93
365.05	229.93
365.43	229.99
365.81	229.99
366.19	230.06
366.57	230.00
366.95	229.87
367.33	229.79
367.71	229.74
368.09	229.74
368.47	229.65
368.85	229.67
369.23	229.64
369.61	229.56
369.99	229.49
370.37	229.47
370.75	229.57
371.13	229.30
371.51	229.20
371.89	229.13
372.27	229.17
372.65	229.21
373.03	229.18
373.41	229.14
373.78	229.04
374.16	228.76
374.54	228.67
374.92	228.62
375.30	228.51
375.68	228.38
376.06	228.41
376.44	228.37
376.82	228.23
377.19	228.07
377.57	227.98
377.95	227.91
378.33	227.82
378.71	227.64
379.09	227.75
379.47	227.72
379.84	227.72
380.22	227.71
380.60	227.54
380.98	227.48
381.36	227.42
381.73	227.36
382.11	227.48
382.49	227.43
382.87	227.32
383.25	227.23
383.62	227.40
384.00	227.20
384.38	227.18
384.76	227.21
385.13	227.28
385.51	227.18
385.89	227.06
386.27	227.01
386.64	227.00
387.02	226.94
387.40	226.85
387.78	226.89
388.15	226.92
388.53	226.96
388.91	226.91
389.29	226.87
389.66	226.95
390.04	226.82
390.42	226.79
390.79	226.88
391.17	226.90
391.55	226.77
391.92	226.91
392.30	226.96
392.68	226.98
393.05	226.96
393.43	227.08
393.81	227.20
394.18	227.17
394.56	227.10
394.94	227.11
395.31	227.27
395.69	227.20
396.06	227.24
396.44	227.35
396.82	227.46
397.19	227.60
397.57	227.62
397.95	227.84
398.32	228.01
398.70	228.11
399.07	228.13
399.45	228.19
399.82	228.21
400.20	228.32
400.58	228.40
400.95	228.46
401.33	228.54
401.70	228.78
402.08	229.02
402.45	229.22
402.83	229.32
403.20	229.42
403.58	229.59
403.95	229.58
404.33	229.65
404.71	229.64
405.08	229.89
405.46	230.00
405.83	230.12
406.21	230.15
406.58	230.21
406.96	230.43
407.33	230.56
407.70	230.67
408.08	231.05
408.45	231.30
408.83	231.56
409.20	231.83
409.58	231.84
409.95	231.96
410.33	232.18
410.70	232.38
411.08	232.72
411.45	232.98
411.82	233.25
412.20	233.59
412.57	234.15
412.95	234.27
413.32	234.58
413.69	234.98
414.07	235.37
414.44	235.93
414.82	236.51
415.19	237.06
415.56	237.50
415.94	237.81
416.31	238.48
416.68	239.06
417.06	239.71
417.43	240.40
417.81	241.04
418.18	241.88
418.55	242.75
418.93	243.41
419.30	244.28
419.67	245.31
420.04	246.26
420.42	247.14
420.79	248.40
421.16	249.65
421.54	250.69
421.91	251.96
422.28	253.18
422.66	254.39
423.03	255.78
423.40	257.25
423.77	258.75
424.15	260.21
424.52	261.56
424.89	263.13
425.26	264.62
425.64	266.22
426.01	267.80
426.38	269.46
426.75	271.43
427.13	273.31
427.50	275.23
427.87	277.10
428.24	279.11
428.61	280.94
428.99	282.94
429.36	285.27
429.73	287.45
430.10	289.55
430.47	291.75
430.85	293.93
431.22	296.30
431.59	298.95
431.96	301.26
432.33	304.03
432.70	306.55
433.08	309.62
433.45	312.45
433.82	315.29
434.19	318.60
434.56	321.54
434.93	324.51
435.30	327.24
435.68	330.51
436.05	333.47
436.42	336.56
436.79	339.28
437.16	342.22
437.53	345.31
437.90	348.54
438.27	351.51
438.64	354.67
439.01	357.63
439.38	360.00
439.75	362.36
440.13	365.09
440.50	367.88
440.87	370.12
441.24	372.49
441.61	374.96
441.98	376.61
442.35	378.64
442.72	380.73
443.09	382.97
443.46	384.04
443.83	384.95
444.20	385.68
444.57	386.77
444.94	387.35
445.31	387.91
445.68	388.47
446.05	388.83
446.42	388.60
446.79	388.35
447.16	387.98
447.53	387.89
447.90	386.93
448.27	385.95
448.64	384.32
449.01	383.29
449.37	381.26
449.74	379.30
450.11	377.22
450.48	374.70
450.85	371.97
451.22	369.94
451.59	367.96
451.96	365.92
452.33	363.28
452.70	360.73
453.07	357.76
453.43	354.64
453.80	351.73
454.17	348.87
454.54	346.12
454.91	343.26
455.28	340.37
455.65	337.61
456.02	334.95
456.38	332.72
456.75	329.61
457.12	327.14
457.49	324.88
457.86	322.27
458.23	320.23
458.59	318.00
458.96	315.60
459.33	313.50
459.70	311.40
460.07	309.80
460.43	308.01
460.80	306.24
461.17	304.64
461.54	302.90
461.91	301.26
462.27	299.60
462.64	298.11
463.01	296.54
463.38	295.21
463.74	293.49
464.11	292.10
464.48	290.99
464.85	289.76
465.21	288.74
465.58	287.74
465.95	286.35
466.32	285.38
466.68	284.27
467.05	283.22
467.42	282.20
467.78	280.96
468.15	279.75
468.52	278.98
468.88	277.92
469.25	276.94
469.62	276.28
469.98	275.45
470.35	274.72
470.72	274.15
471.08	273.26
471.45	272.69
471.82	271.92
472.18	271.17
472.55	270.63
472.92	269.79
473.28	269.11
473.65	268.43
474.02	267.69
474.38	267.20
474.75	266.68
475.11	266.16
475.48	265.78
475.85	265.50
476.21	265.08
476.58	264.74
476.94	264.32
477.31	263.80
477.67	263.48
478.04	263.15
478.41	262.73
478.77	262.51
479.14	262.11
479.50	261.84
479.87	261.75
480.23	261.41
480.60	261.19
480.96	260.96
481.33	260.93
481.69	260.87
482.06	260.64
482.42	260.39
482.79	260.17
483.15	259.99
483.52	259.80
483.88	259.64
484.25	259.46
484.61	259.48
484.98	259.51
485.34	259.46
485.71	259.47
486.07	259.49
486.44	259.38
486.80	259.52
487.17	259.66
487.53	259.70
487.90	259.92
488.26	260.29
488.62	260.52
488.99	260.60
489.35	260.69
489.72	261.03
490.08	261.18
490.44	261.38
490.81	261.67
491.17	261.95
491.54	262.12
491.90	262.40
492.26	262.63
492.63	262.91
492.99	263.22
493.36	263.57
493.72	263.98
494.08	264.33
494.45	264.71
494.81	265.01
495.17	265.38
495.54	265.77
495.90	265.98
496.26	266.48
496.63	267.04
496.99	267.69
497.35	268.12
497.72	268.76
498.08	269.39
498.44	270.03
498.80	270.71
499.17	271.35
499.53	272.05
499.89	272.87
500.26	273.59
500.62	274.40
500.98	275.29
501.34	276.01
501.71	276.95
502.07	277.79
502.43	278.77
502.79	279.67
503.16	280.65
503.52	281.79
503.88	282.84
504.24	283.94
504.60	285.05
504.97	286.30
505.33	287.70
505.69	289.10
506.05	290.53
506.41	291.85
506.78	293.40
507.14	295.04
507.50	296.79
507.86	298.60
508.22	300.49
508.59	302.17
508.95	304.07
509.31	306.21
509.67	308.29
510.03	310.52
510.39	312.87
510.75	315.25
511.12	317.67
511.48	320.25
511.84	322.78
512.20	325.51
512.56	328.38
512.92	331.11
513.28	334.16
513.64	337.13
514.00	340.40
514.37	343.78
514.73	347.11
515.09	350.45
515.45	353.98
515.81	357.53
516.17	361.40
516.53	365.40
516.89	369.29
517.25	373.30
517.61	377.51
517.97	381.81
518.33	386.02
518.69	390.50
519.05	395.16
519.41	399.97
519.77	404.84
520.13	409.85
520.49	414.96
520.85	419.99
521.21	425.42
521.57	430.80
521.93	435.95
522.29	441.57
522.65	447.13
523.01	452.80
523.37	458.57
523.73	464.37
524.09	470.39
524.45	476.44
524.81	482.90
525.17	489.26
525.53	495.74
525.89	502.41
526.25	509.07
526.61	515.42
526.97	522.32
527.33	529.03
527.68	536.18
528.04	543.11
528.40	550.24
528.76	557.43
529.12	564.61
529.48	572.25
529.84	579.51
530.20	587.04
530.56	594.81
530.91	602.64
531.27	610.88
531.63	618.64
531.99	626.77
532.35	634.49
532.71	642.42
533.07	650.63
533.42	659.07
533.78	667.23
534.14	675.72
534.50	683.77
534.86	692.45
535.21	700.31
535.57	708.88
535.93	717.47
536.29	725.87
536.65	734.50
537.00	742.96
537.36	751.71
537.72	760.36
538.08	768.86
538.44	777.38
538.79	785.38
539.15	794.01
539.51	802.71
539.87	811.46
540.22	820.12
540.58	828.50
540.94	836.81
541.29	845.02
541.65	853.40
542.01	862.11
542.37	870.57
542.72	879.03
543.08	887.37
543.44	895.60
543.79	903.44
544.15	911.78
544.51	920.41
544.87	928.95
545.22	937.08
545.58	944.97
545.94	952.60
546.29	960.83
546.65	968.57
547.01	975.95
547.36	983.53
547.72	991.16
548.07	999.01
548.43	1006.45
548.79	1014.19
549.14	1021.69
549.50	1028.73
549.86	1035.80
550.21	1043.14
550.57	1050.12
550.92	1057.36
551.28	1064.83
551.64	1071.92
551.99	1078.51
552.35	1085.00
552.70	1091.87
553.06	1098.86
553.41	1106.10
553.77	1112.91
554.13	1119.82
554.48	1126.72
554.84	1133.58
555.19	1140.03
555.55	1146.22
555.90	1152.50
556.26	1159.00
556.61	1165.14
556.97	1171.28
557.32	1177.19
557.68	1182.97
558.03	1188.90
558.39	1194.67
558.74	1200.60
559.10	1205.87
559.45	1211.72
559.81	1217.58
560.16	1222.62
560.52	1228.07
560.87	1233.60
561.23	1238.30
561.58	1243.63
561.94	1248.45
562.29	1252.70
562.64	1257.38
563.00	1261.97
563.35	1267.21
563.71	1272.18
564.06	1276.94
564.42	1281.56
564.77	1286.08
565.12	1291.10
565.48	1295.52
565.83	1299.59
566.19	1303.58
566.54	1307.68
566.89	1311.26
567.25	1314.77
567.60	1319.27
567.96	1322.70
568.31	1325.71
568.66	1329.53
569.02	1332.56
569.37	1335.53
569.72	1338.90
570.08	1341.88
570.43	1344.82
570.78	1347.14
571.14	1348.70
571.49	1351.00
571.84	1354.01
572.20	1356.30
572.55	1358.04
572.90	1360.07
573.26	1362.10
573.61	1364.00
573.96	1365.74
574.31	1366.87
574.67	1367.84
575.02	1368.50
575.37	1369.78
575.72	1370.68
576.08	1371.30
576.43	1372.07
576.78	1372.78
577.13	1373.68
577.49	1374.50
577.84	1374.77
578.19	1375.11
578.54	1375.67
578.90	1375.48
579.25	1374.84
579.60	1374.53
579.95	1374.12
580.30	1373.55
580.66	1372.94
581.01	1372.07
581.36	1371.44
581.71	1371.41
582.06	1370.99
582.42	1369.91
582.77	1368.74
583.12	1367.64
583.47	1367.13
583.82	1365.97
584.17	1365.06
584.53	1363.95
584.88	1362.80
585.23	1361.75
585.58	1360.43
585.93	1359.44
586.28	1358.20
586.63	1357.17
586.98	1355.84
587.34	1354.50
587.69	1353.16
588.04	1351.77
588.39	1350.70
588.74	1348.46
589.09	1346.57
589.44	1344.20
589.79	1342.79
590.14	1341.50
590.49	1340.07
590.84	1337.95
591.19	1336.30
591.54	1333.36
591.89	1330.47
592.25	1327.90
592.60	1325.13
592.95	1322.13
593.30	1319.14
593.65	1316.43
594.00	1313.17
594.35	1310.61
594.70	1307.49
595.05	1304.52
595.40	1301.01
595.75	1297.65
596.10	1294.93
596.45	1292.10
596.80	1289.85
597.15	1287.10
597.50	1283.47
597.85	1280.52
598.19	1277.35
598.54	1274.28
598.89	1271.98
599.24	1269.48
599.59	1266.36
599.94	1263.83
600.29	1261.18
600.64	1258.20
600.99	1254.96
601.34	1252.05
601.69	1248.67
602.04	1245.67
602.39	1242.33
602.74	1239.70
603.08	1236.35
603.43	1233.98
603.78	1230.68
604.13	1227.15
604.48	1223.80
604.83	1220.84
605.18	1217.10
605.53	1213.35
605.87	1209.29
606.22	1205.87
606.57	1202.07
606.92	1198.44
607.27	1194.48
607.62	1190.98
607.96	1187.35
608.31	1184.06
608.66	1179.97
609.01	1176.15
609.36	1171.91
609.70	1167.64
610.05	1163.08
610.40	1158.98
610.75	1154.05
611.10	1149.38
611.44	1144.86
611.79	1140.20
612.14	1135.80
612.49	1131.12
612.83	1126.59
613.18	1122.17
613.53	1117.44
613.88	1112.60
614.22	1108.16
614.57	1103.59
614.92	1098.90
615.27	1094.40
615.61	1089.26
615.96	1084.94
616.31	1080.55
616.65	1076.77
617.00	1072.93
617.35	1068.83
617.70	1064.36
618.04	1059.76
618.39	1055.60
618.74	1051.38
619.08	1046.88
619.43	1042.34
619.78	1038.16
620.12	1033.81
620.47	1029.42
620.82	1024.82
621.16	1020.44
621.51	1016.04
621.85	1011.53
622.20	1006.88
622.55	1002.34
622.89	998.28
623.24	993.92
623.59	989.36
623.93	984.96
624.28	980.39
624.62	976.20
624.97	971.85
625.32	968.00
625.66	963.67
626.01	959.22
626.35	955.17
626.70	950.72
627.04	946.29
627.39	942.05
627.73	937.70
628.08	933.75
628.43	929.69
628.77	925.18
629.12	920.66
629.46	916.41
629.81	911.78
630.15	907.33
630.50	902.84
630.84	898.01
631.19	892.99
631.53	888.40
631.88	883.51
632.22	878.76
632.57	874.19
632.91	869.49
633.26	864.99
633.60	860.06
633.95	855.57
634.29	851.07
634.64	846.92
634.98	842.22
635.32	837.75
635.67	833.62
636.01	829.48
636.36	825.20
636.70	821.24
637.05	817.07
637.39	813.13
637.73	809.13
638.08	805.71
638.42	801.94
638.77	798.33
639.11	794.26
639.45	790.50
639.80	786.34
640.14	782.53
640.49	778.62
640.83	774.59
641.17	770.76
641.52	766.97
641.86	762.72
642.20	759.10
642.55	755.01
642.89	750.99
643.23	747.06
643.58	743.60
643.92	739.17
644.26	735.39
644.61	731.47
644.95	727.48
645.29	723.12
645.64	718.86
645.98	714.71
646.32	710.93
646.66	706.91
647.01	703.05
647.35	699.12
647.69	695.17
648.04	691.65
648.38	687.67
648.72	683.52
649.06	679.58
649.41	675.68
649.75	671.62
650.09	667.45
650.43	663.50
650.78	659.20
651.12	655.40
651.46	651.70
651.80	647.75
652.14	644.14
652.49	640.37
652.83	637.11
653.17	633.19
653.51	629.58
653.85	625.98
654.20	622.00
654.54	618.00
654.88	614.26
655.22	610.52
655.56	606.78
655.90	603.45
656.25	599.98
656.59	596.35
656.93	593.02
657.27	589.80
657.61	586.24
657.95	583.15
658.29	579.89
658.64	576.49
658.98	573.03
659.32	569.35
659.66	566.23
660.00	562.58
660.34	559.34
660.68	555.80
661.02	552.49
661.36	549.61
661.70	546.81
662.05	544.00
662.39	541.04
662.73	538.13
663.07	535.12
663.41	532.32
663.75	529.58
664.09	526.88
664.43	523.89
664.77	521.25
665.11	518.37
665.45	515.75
665.79	513.00
666.13	510.29
666.47	507.65
666.81	504.86
667.15	502.10
667.49	499.46
667.83	497.16
668.17	494.52
668.51	491.70
668.85	488.80
669.19	486.21
669.53	483.50
669.87	481.01
670.21	478.75
670.55	476.28
670.89	473.87
671.23	471.47
671.57	468.97
671.91	466.44
672.25	464.23
672.58	461.75
672.92	459.35
673.26	457.17
673.60	455.01
673.94	452.82
674.28	450.83
674.62	448.74
674.96	446.45
675.30	444.49
675.64	442.58
675.97	440.66
676.31	438.61
676.65	436.72
676.99	434.66
677.33	432.42
677.67	430.25
678.01	428.21
678.34	426.15
678.68	424.21
679.02	422.30
679.36	420.09
679.70	418.26
680.04	416.43
680.37	414.53
680.71	412.54
681.05	410.68
681.39	408.92
681.73	407.04
682.06	405.36
682.40	403.55
682.74	401.87
683.08	400.21
683.42	398.27
683.75	396.47
684.09	394.75
684.43	392.92
684.77	391.15
685.10	389.50
685.44	387.70
685.78	386.23
686.12	384.44
686.45	382.88
686.79	381.09
687.13	379.36
687.46	377.60
687.80	376.05
688.14	374.39
688.48	372.80
688.81	371.15
689.15	369.53
689.49	368.07
689.82	366.50
690.16	364.90
690.50	363.49
690.83	362.01
691.17	360.41
691.51	359.04
691.84	357.83
692.18	356.22
692.52	354.76
692.85	353.18
693.19	351.94
693.52	350.59
693.86	349.25
694.20	347.94
694.53	346.65
694.87	345.29
695.21	343.84
695.54	342.33
695.88	341.00
696.21	339.59
696.55	338.23
696.88	336.88
697.22	335.58
697.56	334.34
697.89	333.10
698.23	332.06
698.56	330.79
698.90	329.47
699.23	328.30
699.57	327.12
699.90	326.00
700.24	324.77
700.58	323.60
700.91	322.42
701.25	321.34
701.58	320.47
701.92	319.40
702.25	318.51
702.59	317.54
702.92	316.58
703.26	315.64
703.59	314.70
703.93	313.76
704.26	312.88
704.60	311.98
704.93	311.01
705.26	310.00
705.60	309.22
705.93	308.31
706.27	307.56
706.60	306.76
706.94	306.00
707.27	305.18
707.61	304.37
707.94	303.64
708.27	302.82
708.61	301.90
708.94	301.10
709.28	300.24
709.61	299.60
709.94	298.82
710.28	297.98
710.61	297.28
710.95	296.40
711.28	295.79
711.61	294.99
711.95	294.26
712.28	293.38
712.61	292.58
712.95	291.99
713.28	291.29
713.61	290.70
713.95	289.93
714.28	289.25
714.61	288.47
714.95	287.82
715.28	287.10
715.61	286.30
715.95	285.56
716.28	284.89
716.61	284.04
716.95	283.42
717.28	282.89
717.61	282.16
717.94	281.61
718.28	280.81
718.61	280.20
718.94	279.56
719.27	279.10
719.61	278.52
719.94	277.96
720.27	277.36
720.60	276.63
720.94	276.08
721.27	275.65
721.60	275.11
721.93	274.69
722.27	274.29
722.60	273.84
722.93	273.47
723.26	273.00
723.59	272.60
723.93	272.05
724.26	271.60
724.59	271.02
724.92	270.60
725.25	270.23
725.59	269.79
725.92	269.39
726.25	268.91
726.58	268.53
726.91	268.07
727.24	267.68
727.57	267.31
727.91	266.89
728.24	266.34
728.57	265.93
728.90	265.44
729.23	264.91
729.56	264.58
729.89	264.03
730.22	263.61
730.55	263.22
730.89	262.95
731.22	262.54
731.55	262.18
731.88	261.59
732.21	261.21
732.54	260.83
732.87	260.43
733.20	260.15
733.53	259.73
733.86	259.32
734.19	258.99
734.52	258.66
734.85	258.49
735.18	258.23
735.51	257.92
735.84	257.58
736.17	257.33
736.50	256.79
736.83	256.91
737.16	256.64
737.49	256.35
737.82	255.90
738.15	255.70
738.48	255.49
738.81	255.39
739.14	254.94
739.47	254.70
739.80	254.46
740.13	254.13
740.46	253.92
740.79	253.71
741.12	253.30
741.45	253.07
741.78	252.68
742.11	252.49
742.44	252.24
742.77	251.95
743.10	251.69
743.43	251.55
743.75	250.95
744.08	250.92
744.41	250.65
744.74	250.57
745.07	250.25
745.40	250.04
745.73	249.76
746.06	249.70
746.39	249.52
746.71	249.21
747.04	248.97
747.37	248.71
747.70	248.46
748.03	248.30
748.36	248.10
748.68	247.94
749.01	247.67
749.34	247.43
749.67	247.28
750.00	247.07
750.33	247.04
750.65	246.99
750.98	246.59
751.31	246.34
751.64	246.03
751.97	245.96
752.29	245.78
752.62	245.49
752.95	245.17
753.28	244.89
753.60	244.72
753.93	244.57
754.26	244.43
754.59	244.14
754.91	243.89
755.24	243.64
755.57	243.42
755.90	243.13
756.22	242.97
756.55	242.73
756.88	242.50
757.20	242.20
757.53	241.91
757.86	241.73
758.19	241.58
758.51	241.57
758.84	241.21
759.17	241.03
759.49	241.01
759.82	241.05
760.15	240.93
760.47	240.86
760.80	240.59
761.13	240.44
761.45	240.33
761.78	240.30
762.11	240.17
762.43	240.00
762.76	240.00
763.08	239.89
763.41	239.77
763.74	239.67
764.06	239.58
764.39	239.49
764.71	239.29
765.04	239.10
765.37	238.89
765.69	238.75
766.02	238.56
766.34	238.37
766.67	238.20
767.00	238.16
767.32	238.16
767.65	238.28
767.97	238.13
768.30	238.06
768.62	237.78
768.95	237.60
769.27	237.52
769.60	237.32
769.92	237.26
770.25	237.14
770.57	236.94
770.90	236.73
771.22	236.60
771.55	236.55
771.87	236.61
772.20	236.50
772.52	236.60
772.85	236.80
773.17	236.79
773.50	236.64
773.82	236.46
774.15	236.23
774.47	235.96
774.80	235.87
775.12	235.78
775.45	235.83
775.77	235.87
776.09	235.76
776.42	235.76
776.74	235.72
777.07	235.64
777.39	235.67
777.72	235.68
778.04	235.51
778.36	235.49
778.69	235.32
779.01	235.18
779.33	234.93
779.66	234.62
779.98	234.54
780.31	234.41
780.63	234.40
780.95	234.36
781.28	234.38
781.60	234.29
781.92	234.18
782.25	234.08
782.57	233.90
782.89	233.84
783.22	233.76
783.54	233.62
783.86	233.65
784.19	233.54
784.51	233.55
784.83	233.50
785.16	233.43
785.48	233.42
785.80	233.45
786.12	233.47
786.45	233.52
786.77	233.43
787.09	233.41
787.42	233.24
787.74	233.18
788.06	233.03
788.38	232.97
788.71	232.96
789.03	232.94
789.35	232.97
789.67	232.89
789.99	232.95
790.32	232.89
790.64	232.79
790.96	232.92
791.28	232.72
791.61	232.71
791.93	232.66
792.25	232.62
792.57	232.73
792.89	232.59
793.21	232.40
793.54	232.28
793.86	232.19
794.18	232.31
794.50	232.27
794.82	232.32
795.14	232.36
795.47	232.36
795.79	232.42
796.11	232.34
796.43	232.32
796.75	232.20
797.07	232.19
797.39	232.15
797.71	232.03
798.04	232.05
798.36	232.00
798.68	231.92
799.00	231.89
799.32	231.79
799.64	231.91
799.96	231.98
800.28	232.05
800.60	232.12
800.92	232.01
801.24	231.96
801.56	232.02
801.89	231.96
802.21	231.97
802.53	231.79
802.85	231.75
803.17	231.88
803.49	231.86
803.81	231.80
804.13	231.75
804.45	231.65
804.77	231.59
805.09	231.61
805.41	231.67
805.73	231.63
806.05	231.49
806.37	231.44
806.69	231.41
807.01	231.37
807.33	231.39
807.65	231.34
807.97	231.37
808.28	231.30
808.60	231.24
808.92	231.19
809.24	231.37
809.56	231.31
809.88	231.16
810.20	231.03
810.52	231.14
810.84	231.10
811.16	231.10
811.48	231.08
811.80	231.05
812.12	231.00
812.43	230.99
812.75	231.11
813.07	231.02
813.39	230.97
813.71	230.92
814.03	230.80
814.35	230.84
814.67	230.75
814.98	230.70
815.30	230.61
815.62	230.56
815.94	230.43
816.26	230.55
816.58	230.48
816.89	230.62
817.21	230.40
817.53	230.46
817.85	230.33
818.17	230.37
818.48	230.27
818.80	230.29
819.12	230.27
819.44	230.10
819.76	229.99
820.07	229.96
820.39	229.94
820.71	229.93
821.03	229.91
821.34	229.97
821.66	229.90
821.98	229.99
822.30	229.94
822.61	229.98
822.93	229.80
823.25	229.78
823.57	229.71
823.88	229.84
824.20	229.76
824.52	229.85
824.83	229.83
825.15	229.85
825.47	229.73
825.79	229.74
826.10	229.74
826.42	229.79
826.74	229.76
827.05	229.73
827.37	229.75
827.69	229.66
828.00	229.59
828.32	229.59
828.64	229.61
828.95	229.79
829.27	229.75
829.58	229.74
829.90	229.77
830.22	229.82
830.53	229.72
830.85	229.67
831.17	229.58
831.48	229.57
831.80	229.60
832.11	229.59
832.43	229.57
832.75	229.64
833.06	229.77
833.38	229.78
833.69	229.79
834.01	229.92
834.32	229.89
834.64	229.82
834.96	229.90
835.27	229.82
835.59	229.71
835.90	229.62
836.22	229.73
836.53	229.68
836.85	229.60
837.16	229.80
837.48	229.93
837.79	229.91
838.11	229.94
838.42	230.00
838.74	230.07
839.05	229.99
839.37	229.91
839.68	229.81
840.00	229.76
840.31	229.76
840.63	229.57
840.94	229.52
841.26	229.52
841.57	229.55
841.88	229.61
842.20	229.41
842.51	229.43
842.83	229.38
843.14	229.53
843.46	229.64
843.77	229.56
844.08	229.52
844.40	229.62
844.71	229.68
845.03	229.61
845.34	229.50
845.65	229.59
845.97	229.61
846.28	229.60
846.60	229.68
846.91	229.75
847.22	229.75
847.54	229.83
847.85	229.81
848.16	229.66
848.48	229.58
848.79	229.71
849.10	229.69
849.42	229.68
849.73	229.48
850.04	229.32
850.36	229.22
850.67	229.18
850.98	229.12
851.30	229.00
851.61	228.99
851.92	229.19
852.23	229.27
852.55	229.29
852.86	229.21
853.17	229.13
853.49	229.10
853.80	229.08
854.11	229.09
854.42	229.11
854.74	229.02
855.05	229.00
855.36	228.94
855.67	228.91
855.99	228.95
856.30	229.20
856.61	229.16
856.92	229.15
857.23	229.17
857.55	229.10
857.86	229.04
858.17	229.03
858.48	228.84
858.79	228.73
859.11	228.70
859.42	228.78
859.73	228.77
860.04	228.72
860.35	228.81
860.66	228.82
860.98	228.81
861.29	228.97
861.60	228.99
861.91	228.98
862.22	228.98
862.53	228.89
862.84	228.70
863.16	228.74
863.47	228.70
863.78	228.62
864.09	228.74
864.40	228.73
864.71	228.67
865.02	228.68
865.33	228.60
865.64	228.58
865.95	228.47
866.27	228.60
866.58	228.62
866.89	228.55
867.20	228.55
867.51	228.58
867.82	228.49
868.13	228.51
868.44	228.43
868.75	228.45
869.06	228.41
869.37	228.29
869.68	228.28
869.99	228.37
870.30	228.41
870.61	228.47
870.92	228.48
871.23	228.50
871.54	228.52
871.85	228.62
872.16	228.51
872.47	228.50
872.78	228.24
873.09	228.24
873.40	228.16
873.71	228.11
874.02	228.10
874.33	228.15
874.64	228.17
874.95	228.22
875.26	228.26
875.56	228.22
875.87	228.27
876.18	228.29
876.49	228.42
876.80	228.43
877.11	228.27
877.42	228.31
877.73	228.45
878.04	228.51
878.35	228.49
878.66	228.56
878.96	228.60
879.27	228.74
879.58	228.70
879.89	228.80
880.20	228.87
880.51	228.90
880.82	228.90
881.12	228.82
881.43	228.83
881.74	228.74
882.05	228.91
882.36	228.98
882.67	228.96
882.97	228.70
883.28	228.70
883.59	228.75
883.90	228.72
884.21	228.62
884.51	228.59
884.82	228.50
885.13	228.58
885.44	228.61
885.74	228.60
886.05	228.71
886.36	228.77
886.67	228.69
886.98	228.74
887.28	228.72
887.59	228.82
887.90	228.77
888.20	228.80
888.51	228.73
888.82	228.64
889.13	228.70
889.43	228.91
889.74	228.93
890.05	228.98
890.35	228.95
890.66	228.89
890.97	228.87
891.28	228.90
891.58	228.86
891.89	228.85
892.20	228.78
892.50	228.69
892.81	228.64
893.12	228.62
893.42	228.46
893.73	228.44
894.04	228.33
894.34	228.43
894.65	228.39
894.95	228.37
895.26	228.39
895.57	228.37
895.87	228.24
896.18	228.15
896.48	228.05
896.79	228.01
897.10	228.13
897.40	228.15
897.71	228.14
898.01	228.11
898.32	228.12
898.63	228.12
898.93	228.05
899.24	227.97
899.54	227.91
899.85	227.93
900.15	227.94
900.46	227.91
900.76	227.90
901.07	227.91
901.38	227.94
901.68	227.96
901.99	227.87
902.29	227.87
902.60	227.86
902.90	227.83
903.21	227.89
903.51	227.79
903.82	227.75
904.12	227.72
904.43	227.78
904.73	227.71
905.03	227.81
905.34	228.03
905.64	228.08
905.95	228.19
906.25	228.13
906.56	228.21
906.86	228.21
907.17	228.20
907.47	228.30
907.77	228.29
908.08	228.30
908.38	228.37
908.69	228.37
908.99	228.49
909.30	228.50
909.60	228.42
909.90	228.45
910.21	228.43
910.51	228.40
910.81	228.39
911.12	228.45
911.42	228.42
911.73	228.32
912.03	228.36
912.33	228.39
912.64	228.59
912.94	228.50
913.24	228.57
913.55	228.58
913.85	228.49
914.15	228.55
914.46	228.56
914.76	228.53
915.06	228.66
915.37	228.57
915.67	228.61
915.97	228.72
916.27	228.78
916.58	228.81
916.88	228.82
917.18	228.79
917.49	228.89
917.79	228.91
918.09	228.93
918.39	228.93
918.70	228.91
919.00	228.82
919.30	228.93
919.60	228.90
919.91	228.89
920.21	228.90
920.51	228.83
920.81	228.93
921.12	228.99
921.42	228.96
921.72	228.96
922.02	228.98
922.32	228.95
922.63	228.91
922.93	229.00
923.23	229.10
923.53	229.24
923.83	229.18
924.13	229.20
924.44	229.13
924.74	229.14
925.04	229.10
925.34	229.15
925.64	229.10
925.94	229.07
926.24	229.20
926.55	229.27
926.85	229.28
927.15	229.16
927.45	229.25
927.75	229.09
928.05	229.10
928.35	229.09
928.65	229.19
928.95	229.17
929.26	229.12
929.56	229.20
929.86	229.13
930.16	229.10
930.46	229.00
930.76	229.03
931.06	228.99
931.36	228.98
931.66	228.98
931.96	228.89
932.26	228.95
932.56	228.85
932.86	228.86
933.16	228.90
933.46	228.93
933.76	228.84
934.06	228.94
934.36	228.97
934.66	228.92
934.96	228.85
935.26	228.83
935.56	228.80
935.86	228.72
936.16	228.60
936.46	228.63
936.76	228.57
937.06	228.49
937.36	228.48
937.66	228.51
937.96	228.50
938.26	228.53
938.56	228.49
938.86	228.45
939.16	228.51
939.46	228.47
939.76	228.52
940.06	228.42
940.35	228.31
940.65	228.22
940.95	228.18
941.25	228.16
941.55	228.20
941.85	228.05
942.15	228.04
942.45	228.18
942.75	228.06
943.04	228.10
943.34	228.10
943.64	228.01
943.94	227.89
944.24	227.74
944.54	227.74
944.84	227.71
945.13	227.71
945.43	227.55
945.73	227.59
946.03	227.43
946.33	227.44
946.62	227.50
946.92	227.49
947.22	227.71
947.52	227.70
947.82	227.63
948.11	227.71
948.41	227.82
948.71	227.70
949.01	227.66
949.31	227.72
949.60	227.74
949.90	227.71
950.20	227.71
950.50	227.85
950.79	227.86
951.09	227.85
951.39	227.78
951.69	227.79
951.98	227.76
952.28	227.92
952.58	227.94
952.87	227.96
953.17	227.93
953.47	227.75
953.76	227.78
954.06	227.77
954.36	227.86
954.66	227.66
954.95	227.76
955.25	227.89
955.55	227.88
955.84	227.78
956.14	227.99
956.44	228.03
956.73	227.96
957.03	227.94
957.32	228.01
957.62	228.05
957.92	228.16
958.21	228.17
958.51	228.31
958.81	228.30
959.10	228.35
959.40	228.41
959.69	228.51
959.99	228.48
960.29	228.49
960.58	228.40
960.88	228.59
961.17	228.59
961.47	228.57
961.76	228.54
962.06	228.71
962.36	228.70
962.65	228.70
962.95	228.78
963.24	228.80
963.54	228.84
963.83	228.94
964.13	228.92
964.42	228.82
964.72	228.68
965.01	228.67
965.31	228.63
965.60	228.62
965.90	228.75
966.19	228.86
966.49	228.81
966.78	228.90
967.08	228.85
967.37	228.85
967.67	228.82
967.96	228.91
968.26	228.84
968.55	228.80
968.85	228.97
969.14	229.00
969.43	229.00
969.73	228.94
970.02	228.80
970.32	228.77
970.61	228.80
970.91	228.74
971.20	228.74
971.49	228.76
971.79	228.78
972.08	228.58
972.38	228.49
972.67	228.50
972.96	228.39
973.26	228.30
973.55	228.22
973.85	228.16
974.14	228.11
974.43	228.26
974.73	228.25
975.02	228.06
975.31	227.94
975.61	227.90
975.90	227.85
976.19	227.86
976.49	227.89
976.78	227.89
977.07	227.86
977.37	227.83
977.66	227.74
977.95	227.65
978.24	227.53
978.54	227.53
978.83	227.53
979.12	227.60
979.42	227.59
979.71	227.64
980.00	227.69
980.29	227.68
980.59	227.48
980.88	227.42
981.17	227.41
981.46	227.41
981.76	227.34
982.05	227.35
982.34	227.28
982.63	227.22
982.93	227.13
983.22	227.20
983.51	227.26
983.80	227.30
984.09	227.40
984.39	227.50
984.68	227.45
984.97	227.38
985.26	227.34
985.55	227.31
985.85	227.28
986.14	227.39
986.43	227.37
986.72	227.37
987.01	227.44
987.30	227.47
987.59	227.38
987.89	227.46
988.18	227.48
988.47	227.52
988.76	227.59
989.05	227.64
989.34	227.62
989.63	227.67
989.92	227.71
990.22	227.69
990.51	227.74
990.80	227.82
991.09	227.99
991.38	228.06
991.67	228.15
991.96	228.16
992.25	228.08
992.54	228.07
992.83	228.17
993.12	228.10
993.41	228.18
993.70	228.36
993.99	228.47
994.28	228.47
994.58	228.59
994.87	228.60
995.16	228.65
995.45	228.58
995.74	228.56
996.03	228.64
996.32	228.70
996.61	228.73
996.90	228.82
997.19	228.86
997.48	228.82
997.77	228.76
998.06	228.76
998.34	228.80
998.63	228.89
998.92	228.81
999.21	228.94
999.50	228.97
999.79	229.02
1000.08	228.94
1000.37	229.06
1000.66	229.02
1000.95	229.00
1001.24	229.05
1001.53	229.06
1001.82	229.05
1002.11	228.90
1002.40	228.79
1002.68	228.84
1002.97	228.86
1003.26	228.80
1003.55	228.76
1003.84	228.82
1004.13	228.88
1004.42	228.88
1004.71	228.88
1004.99	228.86
1005.28	228.87
1005.57	228.73
1005.86	228.57
1006.15	228.62
1006.44	228.50
1006.72	228.58
1007.01	228.50
1007.30	228.45
1007.59	228.55
1007.88	228.50
1008.17	228.61
1008.45	228.62
1008.74	228.57
1009.03	228.45
1009.32	228.41
1009.60	228.39
1009.89	228.31
1010.18	228.21
1010.47	228.09
1010.76	228.08
1011.04	228.05
1011.33	228.04
1011.62	228.13
1011.91	228.20
1012.19	228.19
1012.48	228.24
1012.77	228.14
1013.05	228.33
1013.34	228.28
1013.63	228.23
1013.92	228.25
1014.20	228.13
1014.49	228.17
1014.78	228.05
1015.06	227.97
1015.35	228.03
1015.64	228.10
1015.92	228.19
1016.21	228.16
1016.50	228.22
1016.78	228.13
1017.07	228.18
1017.36	228.11
1017.64	228.07
1017.93	228.10
1018.22	227.99
1018.50	228.04
1018.79	228.10
1019.08	227.95
1019.36	228.06
1019.65	227.99
1019.93	228.04
1020.22	228.10
1020.51	228.24
1020.79	228.22
1021.08	226.70
1021.36	230.00
1021.65	228.80
1021.94	228.10
1022.22	229.50
1022.51	227.00
1022.79	229.00
1023.08	228.30
1023.36	231.00
1023.65	226.30
>>>>>End Processed Spectral Data<<<<<
