SpectraSuite Data File
++++++++++++++++++++++++++++++++++++
Date: Fri Feb 01 14:35:55 EST 2013
User: group
Dark Spectrum Present: No
Reference Spectrum Present: No
Number of Sampled Component Spectra: 1
Spectrometers: USB2E7196
Integration Time (usec): 70000 (USB2E7196)
Spectra Averaged: 10 (USB2E7196)
Boxcar Smoothing: 10 (USB2E7196)
Correct for Electrical Dark: No (USB2E7196)
Strobe/Lamp Enabled: No (USB2E7196)
Correct for Detector Non-linearity: No (USB2E7196)
Correct for Stray Light: No (USB2E7196)
Number of Pixels in Processed Spectrum: 2048
>>>>>Begin Processed Spectral Data<<<<<
339.09	0.00
339.48	217.30
339.86	217.60
340.24	217.10
340.63	220.40
341.01	224.90
341.39	223.90
341.78	226.00
342.16	224.90
342.54	225.50
342.93	214.27
343.31	225.12
343.69	225.60
344.07	226.17
344.46	226.79
344.84	227.14
345.22	227.34
345.60	227.56
345.99	227.67
346.37	227.88
346.75	228.00
347.13	228.00
347.52	228.07
347.90	228.20
348.28	228.18
348.66	228.35
349.05	228.34
349.43	228.35
349.81	228.35
350.19	228.45
350.57	228.56
350.96	228.68
351.34	228.77
351.72	228.77
352.10	228.67
352.48	228.71
352.87	228.75
353.25	228.76
353.63	228.84
354.01	228.82
354.39	228.85
354.77	228.87
355.15	229.06
355.54	229.16
355.92	229.07
356.30	229.33
356.68	229.48
357.06	229.58
357.44	229.54
357.82	229.66
358.20	229.72
358.58	229.73
358.97	229.80
359.35	229.87
359.73	230.00
360.11	230.11
360.49	230.06
360.87	230.14
361.25	230.17
361.63	230.18
362.01	230.38
362.39	230.40
362.77	230.48
363.15	230.49
363.53	230.51
363.91	230.59
364.29	230.40
364.67	230.20
365.05	230.10
365.43	230.13
365.81	230.16
366.19	230.30
366.57	230.34
366.95	230.30
367.33	230.26
367.71	230.30
368.09	230.26
368.47	230.17
368.85	230.12
369.23	230.10
369.61	230.01
369.99	229.88
370.37	229.76
370.75	229.76
371.13	229.62
371.51	229.51
371.89	229.50
372.27	229.56
372.65	229.44
373.03	229.45
373.41	229.51
373.78	229.43
374.16	229.31
374.54	229.19
374.92	229.13
375.30	229.03
375.68	228.84
376.06	228.72
376.44	228.72
376.82	228.69
377.19	228.65
377.57	228.57
377.95	228.46
378.33	228.43
378.71	228.24
379.09	228.22
379.47	228.18
379.84	227.98
380.22	227.89
380.60	227.82
380.98	227.74
381.36	227.56
381.73	227.43
382.11	227.27
382.49	227.14
382.87	227.06
383.25	226.98
383.62	227.17
384.00	227.18
384.38	227.04
384.76	226.97
385.13	227.05
385.51	227.01
385.89	227.00
386.27	227.04
386.64	227.02
387.02	226.93
387.40	226.82
387.78	226.86
388.15	226.86
388.53	226.81
388.91	226.81
389.29	226.78
389.66	226.84
390.04	226.86
390.42	226.93
390.79	226.90
391.17	226.90
391.55	226.72
391.92	226.59
392.30	226.63
392.68	226.59
393.05	226.48
393.43	226.56
393.81	226.52
394.18	226.48
394.56	226.55
394.94	226.70
395.31	226.74
395.69	226.79
396.06	226.83
396.44	226.97
396.82	226.99
397.19	227.20
397.57	227.28
397.95	227.32
398.32	227.37
398.70	227.49
399.07	227.59
399.45	227.64
399.82	227.96
400.20	228.16
400.58	228.40
400.95	228.45
401.33	228.62
401.70	228.93
402.08	229.10
402.45	229.26
402.83	229.43
403.20	229.66
403.58	229.88
403.95	230.03
404.33	230.22
404.71	230.43
405.08	230.85
405.46	231.10
405.83	231.49
406.21	231.76
406.58	232.01
406.96	232.36
407.33	232.80
407.70	233.08
408.08	233.57
408.45	233.93
408.83	234.37
409.20	234.76
409.58	235.14
409.95	235.60
410.33	236.18
410.70	236.68
411.08	237.34
411.45	237.99
411.82	238.63
412.20	239.41
412.57	240.27
412.95	240.81
413.32	241.61
413.69	242.46
414.07	243.54
414.44	244.56
414.82	245.62
415.19	246.80
415.56	248.00
415.94	249.24
416.31	250.67
416.68	252.16
417.06	253.77
417.43	255.36
417.81	257.16
418.18	258.95
418.55	260.92
418.93	262.87
419.30	264.95
419.67	267.14
420.04	269.34
420.42	271.76
420.79	274.56
421.16	277.39
421.54	280.12
421.91	282.86
422.28	285.90
422.66	289.10
423.03	292.19
423.40	295.51
423.77	298.93
424.15	302.36
424.52	305.94
424.89	309.96
425.26	313.80
425.64	317.43
426.01	321.44
426.38	325.69
426.75	330.00
427.13	334.42
427.50	339.16
427.87	344.12
428.24	348.94
428.61	353.53
428.99	358.57
429.36	364.28
429.73	369.86
430.10	375.22
430.47	380.57
430.85	386.36
431.22	392.40
431.59	398.86
431.96	405.00
432.33	411.85
432.70	418.21
433.08	425.81
433.45	433.00
433.82	440.09
434.19	447.98
434.56	455.70
434.93	463.05
435.30	470.60
435.68	478.68
436.05	486.72
436.42	494.61
436.79	502.09
437.16	509.71
437.53	518.04
437.90	526.49
438.27	534.66
438.64	543.10
439.01	550.72
439.38	557.70
439.75	564.47
440.13	572.34
440.50	579.99
440.87	585.97
441.24	592.35
441.61	599.39
441.98	604.58
442.35	610.81
442.72	617.18
443.09	622.99
443.46	626.92
443.83	629.68
444.20	632.22
444.57	635.67
444.94	637.78
445.31	639.80
445.68	641.63
446.05	643.01
446.42	643.00
446.79	643.06
447.16	642.83
447.53	643.13
447.90	640.80
448.27	638.61
448.64	635.40
449.01	633.39
449.37	628.99
449.74	624.65
450.11	619.06
450.48	613.10
450.85	607.04
451.22	602.07
451.59	597.10
451.96	592.44
452.33	585.73
452.70	579.83
453.07	572.45
453.43	565.13
453.80	557.96
454.17	551.09
454.54	544.58
454.91	537.48
455.28	530.26
455.65	523.81
456.02	517.09
456.38	511.55
456.75	504.36
457.12	498.28
457.49	492.27
457.86	486.47
458.23	481.39
458.59	475.84
458.96	469.90
459.33	465.18
459.70	460.20
460.07	456.22
460.43	451.65
460.80	447.15
461.17	443.07
461.54	439.11
461.91	434.95
462.27	431.07
462.64	427.59
463.01	423.95
463.38	420.13
463.74	416.45
464.11	413.06
464.48	410.20
464.85	407.03
465.21	404.82
465.58	402.34
465.95	399.25
466.32	396.70
466.68	394.21
467.05	391.51
467.42	388.87
467.78	386.07
468.15	383.31
468.52	381.50
468.88	379.19
469.25	376.91
469.62	375.22
469.98	373.09
470.35	371.32
470.72	369.60
471.08	367.82
471.45	366.22
471.82	364.53
472.18	362.61
472.55	361.37
472.92	359.60
473.28	358.13
473.65	356.73
474.02	355.32
474.38	354.11
474.75	353.15
475.11	352.10
475.48	351.21
475.85	350.56
476.21	349.67
476.58	348.89
476.94	348.22
477.31	347.53
477.67	346.95
478.04	346.16
478.41	345.48
478.77	345.08
479.14	344.54
479.50	344.16
479.87	344.05
480.23	343.76
480.60	343.51
480.96	343.35
481.33	343.45
481.69	343.38
482.06	343.37
482.42	343.21
482.79	343.18
483.15	343.33
483.52	343.41
483.88	343.49
484.25	343.77
484.61	344.12
484.98	344.50
485.34	344.84
485.71	345.56
486.07	346.20
486.44	346.76
486.80	347.44
487.17	348.21
487.53	348.96
487.90	349.88
488.26	350.83
488.62	351.82
488.99	352.65
489.35	353.61
489.72	354.73
490.08	356.00
490.44	357.25
490.81	358.57
491.17	359.83
491.54	361.40
491.90	362.70
492.26	364.10
492.63	365.60
492.99	367.16
493.36	368.60
493.72	370.34
494.08	372.04
494.45	373.82
494.81	375.59
495.17	377.36
495.54	379.15
495.90	380.96
496.26	382.80
496.63	384.77
496.99	386.87
497.35	388.85
497.72	390.85
498.08	392.91
498.44	394.92
498.80	397.26
499.17	399.40
499.53	401.58
499.89	403.73
500.26	405.83
500.62	407.90
500.98	410.22
501.34	412.35
501.71	414.47
502.07	416.57
502.43	418.60
502.79	420.62
503.16	422.67
503.52	424.66
503.88	426.54
504.24	428.45
504.60	430.31
504.97	432.37
505.33	434.16
505.69	436.23
506.05	438.16
506.41	439.84
506.78	441.43
507.14	443.21
507.50	444.85
507.86	446.59
508.22	448.27
508.59	449.63
508.95	451.18
509.31	452.74
509.67	454.16
510.03	455.53
510.39	457.04
510.75	458.38
511.12	459.56
511.48	460.90
511.84	462.14
512.20	463.45
512.56	464.45
512.92	465.48
513.28	466.28
513.64	467.16
514.00	468.09
514.37	468.88
514.73	469.61
515.09	470.38
515.45	470.95
515.81	471.62
516.17	472.32
516.53	472.84
516.89	473.33
517.25	473.88
517.61	474.49
517.97	474.95
518.33	475.39
518.69	475.96
519.05	476.44
519.41	476.92
519.77	477.46
520.13	477.91
520.49	478.48
520.85	478.90
521.21	479.32
521.57	479.78
521.93	480.17
522.29	480.67
522.65	481.07
523.01	481.69
523.37	482.09
523.73	482.75
524.09	483.38
524.45	483.98
524.81	484.69
525.17	485.47
525.53	486.29
525.89	487.09
526.25	488.12
526.61	488.86
526.97	489.77
527.33	490.74
527.68	491.80
528.04	492.77
528.40	493.93
528.76	495.19
529.12	496.34
529.48	497.86
529.84	499.05
530.20	500.60
530.56	502.12
530.91	503.67
531.27	505.21
531.63	506.70
531.99	508.34
532.35	509.79
532.71	511.32
533.07	513.00
533.42	514.97
533.78	516.70
534.14	518.69
534.50	520.67
534.86	522.77
535.21	524.80
535.57	527.02
535.93	529.40
536.29	531.71
536.65	534.27
537.00	536.44
537.36	539.23
537.72	541.69
538.08	544.20
538.44	546.86
538.79	549.39
539.15	552.09
539.51	554.90
539.87	558.07
540.22	561.30
540.58	564.53
540.94	567.38
541.29	570.57
541.65	573.80
542.01	576.98
542.37	579.86
542.72	582.89
543.08	586.09
543.44	589.30
543.79	592.24
544.15	595.52
544.51	599.10
544.87	602.54
545.22	605.91
545.58	609.41
545.94	612.93
546.29	616.55
546.65	619.99
547.01	623.57
547.36	627.02
547.72	630.37
548.07	633.71
548.43	637.27
548.79	640.81
549.14	644.41
549.50	647.90
549.86	651.63
550.21	655.21
550.57	658.90
550.92	662.58
551.28	666.46
551.64	670.16
551.99	673.77
552.35	677.28
552.70	681.17
553.06	684.82
553.41	688.41
553.77	692.19
554.13	696.09
554.48	700.34
554.84	704.08
555.19	707.78
555.55	711.58
555.90	715.07
556.26	718.68
556.61	722.16
556.97	725.69
557.32	729.47
557.68	733.64
558.03	737.45
558.39	740.86
558.74	744.84
559.10	748.33
559.45	752.32
559.81	756.13
560.16	759.75
560.52	763.22
560.87	766.96
561.23	770.30
561.58	774.08
561.94	777.07
562.29	780.21
562.64	783.61
563.00	786.85
563.35	790.59
563.71	794.12
564.06	797.61
564.42	801.51
564.77	804.74
565.12	807.87
565.48	811.07
565.83	814.47
566.19	817.45
566.54	820.67
566.89	823.71
567.25	826.67
567.60	829.91
567.96	833.13
568.31	835.97
568.66	839.08
569.02	841.64
569.37	844.17
569.72	847.28
570.08	850.07
570.43	852.76
570.78	855.03
571.14	857.31
571.49	859.96
571.84	862.14
572.20	864.52
572.55	866.41
572.90	868.33
573.26	870.57
573.61	872.56
573.96	874.35
574.31	875.57
574.67	876.72
575.02	877.91
575.37	879.32
575.72	880.65
576.08	881.67
576.43	882.96
576.78	884.44
577.13	885.50
577.49	886.42
577.84	887.43
578.19	888.61
578.54	889.64
578.90	890.10
579.25	890.66
579.60	890.98
579.95	891.59
580.30	892.24
580.66	892.30
581.01	892.47
581.36	892.62
581.71	893.14
582.06	893.90
582.42	894.21
582.77	894.31
583.12	894.68
583.47	895.43
583.82	895.82
584.17	895.56
584.53	895.55
584.88	895.72
585.23	895.74
585.58	895.58
585.93	895.26
586.28	895.38
586.63	895.57
586.98	895.75
587.34	895.75
587.69	895.62
588.04	895.57
588.39	895.49
588.74	895.24
589.09	895.04
589.44	894.43
589.79	894.00
590.14	893.80
590.49	893.08
590.84	892.13
591.19	891.04
591.54	890.41
591.89	889.28
592.25	888.31
592.60	887.27
592.95	885.93
593.30	884.76
593.65	883.35
594.00	881.86
594.35	880.84
594.70	879.31
595.05	878.11
595.40	876.60
595.75	875.21
596.10	873.99
596.45	872.62
596.80	871.58
597.15	870.03
597.50	868.27
597.85	866.95
598.19	865.43
598.54	864.41
598.89	862.78
599.24	861.66
599.59	860.32
599.94	858.92
600.29	857.82
600.64	856.23
600.99	854.54
601.34	853.06
601.69	851.30
602.04	849.63
602.39	847.79
602.74	846.47
603.08	844.88
603.43	843.36
603.78	841.69
604.13	840.01
604.48	838.14
604.83	836.57
605.18	834.72
605.53	832.83
605.87	830.33
606.22	828.74
606.57	826.78
606.92	824.62
607.27	822.72
607.62	820.86
607.96	819.35
608.31	817.81
608.66	815.62
609.01	813.22
609.36	811.10
609.70	808.48
610.05	805.96
610.40	803.45
610.75	800.66
611.10	798.07
611.44	795.06
611.79	792.72
612.14	790.08
612.49	787.34
612.83	784.46
613.18	781.99
613.53	779.11
613.88	776.21
614.22	773.43
614.57	770.12
614.92	767.26
615.27	764.22
615.61	761.35
615.96	758.67
616.31	756.20
616.65	754.00
617.00	751.72
617.35	748.99
617.70	746.35
618.04	743.70
618.39	741.06
618.74	738.66
619.08	735.87
619.43	733.28
619.78	730.70
620.12	728.12
620.47	725.52
620.82	722.79
621.16	720.14
621.51	717.48
621.85	715.50
622.20	712.58
622.55	710.10
622.89	707.50
623.24	704.85
623.59	702.00
623.93	699.33
624.28	696.59
624.62	693.99
624.97	691.60
625.32	689.38
625.66	687.09
626.01	684.87
626.35	682.38
626.70	679.64
627.04	677.17
627.39	674.63
627.73	672.00
628.08	669.67
628.43	667.18
628.77	664.53
629.12	661.68
629.46	659.26
629.81	656.49
630.15	653.81
630.50	651.18
630.84	648.31
631.19	645.41
631.53	642.69
631.88	640.10
632.22	637.13
632.57	634.46
632.91	631.53
633.26	628.27
633.60	625.76
633.95	623.11
634.29	620.50
634.64	618.18
634.98	615.62
635.32	613.20
635.67	610.91
636.01	608.78
636.36	606.17
636.70	603.84
637.05	601.29
637.39	598.99
637.73	596.55
638.08	594.67
638.42	592.47
638.77	590.22
639.11	587.69
639.45	585.52
639.80	582.92
640.14	580.70
640.49	578.64
640.83	576.21
641.17	573.81
641.52	571.20
641.86	568.74
642.20	566.55
642.55	563.97
642.89	561.58
643.23	559.04
643.58	557.18
643.92	554.66
644.26	552.61
644.61	550.13
644.95	547.80
645.29	545.03
645.64	542.47
645.98	540.10
646.32	538.04
646.66	535.50
647.01	533.20
647.35	530.80
647.69	528.33
648.04	526.17
648.38	524.02
648.72	521.72
649.06	519.32
649.41	516.86
649.75	514.41
650.09	511.94
650.43	509.54
650.78	506.71
651.12	504.48
651.46	502.14
651.80	499.99
652.14	497.88
652.49	495.80
652.83	493.70
653.17	491.43
653.51	488.96
653.85	486.82
654.20	484.47
654.54	482.10
654.88	479.88
655.22	477.24
655.56	474.80
655.90	472.78
656.25	470.65
656.59	468.43
656.93	466.43
657.27	464.25
657.61	462.15
657.95	460.21
658.29	458.12
658.64	455.90
658.98	453.55
659.32	451.28
659.66	449.16
660.00	446.93
660.34	444.88
660.68	442.90
661.02	440.71
661.36	438.73
661.70	436.84
662.05	435.02
662.39	433.20
662.73	431.44
663.07	429.60
663.41	427.73
663.75	425.90
664.09	424.21
664.43	422.46
664.77	420.71
665.11	419.03
665.45	417.09
665.79	415.33
666.13	413.53
666.47	411.76
666.81	410.10
667.15	408.22
667.49	406.63
667.83	405.19
668.17	403.64
668.51	401.92
668.85	400.26
669.19	398.59
669.53	397.22
669.87	395.66
670.21	394.25
670.55	392.64
670.89	391.27
671.23	389.80
671.57	388.36
671.91	386.99
672.25	385.32
672.58	384.11
672.92	382.60
673.26	381.52
673.60	380.26
673.94	378.89
674.28	377.82
674.62	376.51
674.96	375.11
675.30	373.95
675.64	373.02
675.97	371.75
676.31	370.53
676.65	369.15
676.99	367.94
677.33	366.48
677.67	365.30
678.01	364.03
678.34	362.60
678.68	361.40
679.02	360.17
679.36	359.14
679.70	357.99
680.04	356.97
680.37	355.70
680.71	354.49
681.05	353.27
681.39	352.17
681.73	351.13
682.06	349.92
682.40	348.74
682.74	347.30
683.08	346.24
683.42	344.98
683.75	343.95
684.09	342.86
684.43	341.92
684.77	340.74
685.10	339.76
685.44	338.74
685.78	337.59
686.12	336.33
686.45	335.21
686.79	334.09
687.13	333.00
687.46	331.66
687.80	330.61
688.14	329.56
688.48	328.47
688.81	327.29
689.15	326.30
689.49	325.27
689.82	324.32
690.16	323.28
690.50	322.40
690.83	321.30
691.17	320.31
691.51	319.23
691.84	318.48
692.18	317.36
692.52	316.30
692.85	315.35
693.19	314.56
693.52	313.72
693.86	312.72
694.20	311.89
694.53	311.09
694.87	310.12
695.21	309.16
695.54	308.16
695.88	307.19
696.21	306.25
696.55	305.38
696.88	304.62
697.22	303.83
697.56	303.03
697.89	302.25
698.23	301.27
698.56	300.40
698.90	299.50
699.23	298.70
699.57	298.04
699.90	297.31
700.24	296.57
700.58	295.87
700.91	295.08
701.25	294.41
701.58	293.88
701.92	293.21
702.25	292.61
702.59	291.98
702.92	291.34
703.26	290.67
703.59	290.04
703.93	289.43
704.26	288.77
704.60	288.07
704.93	287.40
705.26	286.83
705.60	286.27
705.93	285.84
706.27	285.39
706.60	284.87
706.94	284.29
707.27	283.61
707.61	282.87
707.94	282.44
708.27	281.68
708.61	281.13
708.94	280.62
709.28	280.20
709.61	279.65
709.94	279.15
710.28	278.67
710.61	278.03
710.95	277.34
711.28	276.91
711.61	276.41
711.95	275.95
712.28	275.30
712.61	274.80
712.95	274.28
713.28	273.84
713.61	273.26
713.95	272.78
714.28	272.38
714.61	271.99
714.95	271.53
715.28	271.13
715.61	270.57
715.95	270.22
716.28	269.70
716.61	269.33
716.95	268.87
717.28	268.47
717.61	268.19
717.94	267.91
718.28	267.35
718.61	267.03
718.94	266.61
719.27	266.40
719.61	266.15
719.94	265.69
720.27	265.19
720.60	264.80
720.94	264.47
721.27	264.14
721.60	263.80
721.93	263.52
722.27	263.40
722.60	263.09
722.93	262.68
723.26	262.48
723.59	262.09
723.93	261.87
724.26	261.58
724.59	261.26
724.92	260.90
725.25	260.75
725.59	260.36
725.92	260.11
726.25	259.74
726.58	259.37
726.91	259.02
727.24	258.71
727.57	258.38
727.91	258.10
728.24	257.80
728.57	257.41
728.90	257.00
729.23	256.50
729.56	256.32
729.89	256.05
730.22	255.51
730.55	255.24
730.89	254.93
731.22	254.55
731.55	254.20
731.88	253.99
732.21	253.63
732.54	253.35
732.87	253.00
733.20	252.88
733.53	252.53
733.86	252.34
734.19	252.05
734.52	251.84
734.85	251.66
735.18	251.32
735.51	251.18
735.84	250.92
736.17	250.70
736.50	250.21
736.83	250.11
737.16	249.88
737.49	249.67
737.82	249.33
738.15	249.09
738.48	248.90
738.81	248.54
739.14	248.25
739.47	247.97
739.80	247.81
740.13	247.54
740.46	247.39
740.79	247.07
741.12	246.88
741.45	246.73
741.78	246.38
742.11	246.34
742.44	246.10
742.77	245.99
743.10	245.76
743.43	245.65
743.75	245.32
744.08	245.55
744.41	245.40
744.74	245.21
745.07	245.12
745.40	244.89
745.73	244.76
746.06	244.68
746.39	244.56
746.71	244.40
747.04	244.17
747.37	243.88
747.70	243.78
748.03	243.71
748.36	243.55
748.68	243.49
749.01	243.22
749.34	243.10
749.67	242.88
750.00	242.82
750.33	242.81
750.65	242.69
750.98	242.29
751.31	242.15
751.64	242.07
751.97	241.99
752.29	241.86
752.62	241.71
752.95	241.49
753.28	241.42
753.60	241.21
753.93	241.22
754.26	241.17
754.59	240.96
754.91	240.79
755.24	240.70
755.57	240.51
755.90	240.34
756.22	240.20
756.55	240.08
756.88	240.09
757.20	239.86
757.53	239.70
757.86	239.66
758.19	239.56
758.51	239.58
758.84	239.34
759.17	239.32
759.49	239.30
759.82	239.34
760.15	239.32
760.47	239.29
760.80	239.10
761.13	239.02
761.45	238.98
761.78	238.91
762.11	238.75
762.43	238.60
762.76	238.55
763.08	238.47
763.41	238.38
763.74	238.15
764.06	238.06
764.39	237.93
764.71	237.69
765.04	237.60
765.37	237.45
765.69	237.40
766.02	237.17
766.34	237.07
766.67	236.86
767.00	236.78
767.32	236.80
767.65	236.86
767.97	236.82
768.30	236.74
768.62	236.68
768.95	236.65
769.27	236.70
769.60	236.65
769.92	236.51
770.25	236.45
770.57	236.29
770.90	236.27
771.22	236.19
771.55	236.11
771.87	235.96
772.20	235.87
772.52	235.89
772.85	236.10
773.17	236.00
773.50	235.94
773.82	235.67
774.15	235.52
774.47	235.32
774.80	235.12
775.12	235.00
775.45	234.80
775.77	234.60
776.09	234.52
776.42	234.33
776.74	234.35
777.07	234.20
777.39	234.11
777.72	233.98
778.04	233.95
778.36	233.88
778.69	233.78
779.01	233.76
779.33	233.57
779.66	233.31
779.98	233.26
780.31	233.24
780.63	233.35
780.95	233.23
781.28	233.20
781.60	233.28
781.92	233.20
782.25	233.17
782.57	233.14
782.89	233.02
783.22	233.12
783.54	232.96
783.86	232.91
784.19	232.80
784.51	232.77
784.83	232.66
785.16	232.57
785.48	232.56
785.80	232.42
786.12	232.38
786.45	232.36
786.77	232.24
787.09	232.12
787.42	232.03
787.74	231.95
788.06	231.83
788.38	231.72
788.71	231.75
789.03	231.68
789.35	231.70
789.67	231.63
789.99	231.56
790.32	231.53
790.64	231.54
790.96	231.72
791.28	231.73
791.61	231.70
791.93	231.68
792.25	231.67
792.57	231.80
792.89	231.74
793.21	231.67
793.54	231.73
793.86	231.70
794.18	231.61
794.50	231.62
794.82	231.66
795.14	231.66
795.47	231.62
795.79	231.67
796.11	231.52
796.43	231.52
796.75	231.48
797.07	231.56
797.39	231.54
797.71	231.40
798.04	231.22
798.36	231.29
798.68	231.35
799.00	231.26
799.32	231.15
799.64	231.16
799.96	231.20
800.28	231.14
800.60	231.16
800.92	231.12
801.24	231.11
801.56	231.10
801.89	231.11
802.21	231.10
802.53	231.09
802.85	231.22
803.17	231.27
803.49	231.27
803.81	231.20
804.13	231.17
804.45	231.04
804.77	231.10
805.09	231.01
805.41	231.01
805.73	231.02
806.05	230.98
806.37	230.99
806.69	230.96
807.01	230.90
807.33	230.79
807.65	230.73
807.97	230.81
808.28	230.69
808.60	230.57
808.92	230.58
809.24	230.57
809.56	230.50
809.88	230.36
810.20	230.36
810.52	230.37
810.84	230.29
811.16	230.27
811.48	230.31
811.80	230.37
812.12	230.29
812.43	230.35
812.75	230.33
813.07	230.31
813.39	230.30
813.71	230.21
814.03	230.30
814.35	230.31
814.67	230.19
814.98	230.16
815.30	230.12
815.62	230.00
815.94	229.89
816.26	229.97
816.58	229.92
816.89	229.92
817.21	229.78
817.53	229.80
817.85	229.84
818.17	229.79
818.48	229.66
818.80	229.66
819.12	229.60
819.44	229.54
819.76	229.46
820.07	229.46
820.39	229.49
820.71	229.46
821.03	229.40
821.34	229.34
821.66	229.37
821.98	229.42
822.30	229.43
822.61	229.55
822.93	229.38
823.25	229.48
823.57	229.34
823.88	229.45
824.20	229.40
824.52	229.39
824.83	229.33
825.15	229.28
825.47	229.24
825.79	229.15
826.10	229.00
826.42	229.01
826.74	229.00
827.05	228.97
827.37	228.96
827.69	229.01
828.00	229.06
828.32	229.04
828.64	228.98
828.95	229.07
829.27	228.95
829.58	228.98
829.90	228.88
830.22	228.77
830.53	228.63
830.85	228.60
831.17	228.58
831.48	228.63
831.80	228.72
832.11	228.69
832.43	228.67
832.75	228.79
833.06	228.85
833.38	228.73
833.69	228.67
834.01	228.60
834.32	228.52
834.64	228.52
834.96	228.49
835.27	228.51
835.59	228.52
835.90	228.53
836.22	228.57
836.53	228.54
836.85	228.71
837.16	228.95
837.48	228.99
837.79	229.05
838.11	229.00
838.42	229.06
838.74	229.12
839.05	229.14
839.37	229.19
839.68	229.05
840.00	229.05
840.31	229.17
840.63	229.13
840.94	229.25
841.26	229.10
841.57	229.14
841.88	229.16
842.20	229.10
842.51	229.04
842.83	229.08
843.14	229.33
843.46	229.31
843.77	229.26
844.08	229.20
844.40	229.14
844.71	229.06
845.03	228.93
845.34	228.91
845.65	228.99
845.97	228.85
846.28	228.90
846.60	228.99
846.91	228.94
847.22	229.06
847.54	228.94
847.85	229.07
848.16	229.03
848.48	228.97
848.79	229.01
849.10	229.11
849.42	229.05
849.73	228.90
850.04	228.90
850.36	228.76
850.67	228.86
850.98	228.82
851.30	228.98
851.61	228.95
851.92	228.99
852.23	229.00
852.55	229.07
852.86	228.99
853.17	228.97
853.49	228.98
853.80	228.99
854.11	229.17
854.42	229.10
854.74	228.98
855.05	229.06
855.36	228.90
855.67	228.81
855.99	228.79
856.30	228.97
856.61	228.82
856.92	228.79
857.23	228.66
857.55	228.62
857.86	228.56
858.17	228.60
858.48	228.49
858.79	228.35
859.11	228.37
859.42	228.51
859.73	228.33
860.04	228.36
860.35	228.26
860.66	228.04
860.98	228.07
861.29	228.22
861.60	228.15
861.91	228.14
862.22	228.10
862.53	228.15
862.84	227.85
863.16	228.03
863.47	228.10
863.78	228.16
864.09	228.20
864.40	228.20
864.71	228.24
865.02	228.28
865.33	228.25
865.64	228.17
865.95	228.15
866.27	228.39
866.58	228.36
866.89	228.39
867.20	228.40
867.51	228.44
867.82	228.42
868.13	228.51
868.44	228.62
868.75	228.67
869.06	228.53
869.37	228.59
869.68	228.50
869.99	228.43
870.30	228.49
870.61	228.53
870.92	228.47
871.23	228.43
871.54	228.54
871.85	228.62
872.16	228.65
872.47	228.60
872.78	228.51
873.09	228.50
873.40	228.55
873.71	228.51
874.02	228.53
874.33	228.44
874.64	228.44
874.95	228.38
875.26	228.35
875.56	228.45
875.87	228.48
876.18	228.42
876.49	228.68
876.80	228.67
877.11	228.64
877.42	228.63
877.73	228.56
878.04	228.46
878.35	228.52
878.66	228.54
878.96	228.55
879.27	228.53
879.58	228.63
879.89	228.56
880.20	228.78
880.51	228.73
880.82	228.75
881.12	228.69
881.43	228.68
881.74	228.72
882.05	228.68
882.36	228.61
882.67	228.64
882.97	228.39
883.28	228.38
883.59	228.36
883.90	228.50
884.21	228.59
884.51	228.57
884.82	228.45
885.13	228.46
885.44	228.44
885.74	228.48
886.05	228.40
886.36	228.40
886.67	228.23
886.98	228.24
887.28	228.29
887.59	228.26
887.90	228.24
888.20	228.20
888.51	228.27
888.82	228.23
889.13	228.30
889.43	228.44
889.74	228.35
890.05	228.31
890.35	228.17
890.66	228.14
890.97	228.18
891.28	228.21
891.58	228.20
891.89	228.20
892.20	228.14
892.50	228.17
892.81	228.23
893.12	228.28
893.42	228.25
893.73	228.24
894.04	228.26
894.34	228.32
894.65	228.36
894.95	228.23
895.26	228.28
895.57	228.35
895.87	228.16
896.18	228.14
896.48	228.21
896.79	228.25
897.10	228.22
897.40	228.29
897.71	228.34
898.01	228.30
898.32	228.33
898.63	228.32
898.93	228.12
899.24	227.95
899.54	227.95
899.85	228.02
900.15	228.09
900.46	228.13
900.76	228.15
901.07	228.17
901.38	228.24
901.68	228.24
901.99	228.16
902.29	228.25
902.60	228.37
902.90	228.33
903.21	228.25
903.51	228.26
903.82	228.26
904.12	228.31
904.43	228.35
904.73	228.26
905.03	228.35
905.34	228.64
905.64	228.77
905.95	228.80
906.25	228.80
906.56	228.78
906.86	228.73
907.17	228.64
907.47	228.78
907.77	228.87
908.08	228.89
908.38	228.91
908.69	228.87
908.99	228.92
909.30	228.94
909.60	229.00
909.90	229.11
910.21	229.07
910.51	228.93
910.81	228.98
911.12	229.11
911.42	229.10
911.73	228.89
912.03	228.87
912.33	228.93
912.64	228.88
912.94	228.91
913.24	229.02
913.55	229.09
913.85	228.92
914.15	228.90
914.46	228.97
914.76	229.01
915.06	228.98
915.37	228.84
915.67	229.00
915.97	229.05
916.27	228.95
916.58	228.96
916.88	228.93
917.18	229.00
917.49	229.05
917.79	229.09
918.09	229.20
918.39	229.30
918.70	229.19
919.00	229.25
919.30	229.24
919.60	229.06
919.91	229.00
920.21	229.02
920.51	228.94
920.81	228.92
921.12	228.93
921.42	228.93
921.72	228.99
922.02	228.91
922.32	228.87
922.63	228.90
922.93	229.05
923.23	229.18
923.53	229.08
923.83	228.98
924.13	228.91
924.44	228.96
924.74	228.95
925.04	229.02
925.34	228.93
925.64	228.86
925.94	228.86
926.24	228.96
926.55	229.00
926.85	229.03
927.15	228.96
927.45	228.82
927.75	228.90
928.05	228.85
928.35	228.75
928.65	228.78
928.95	228.81
929.26	228.63
929.56	228.49
929.86	228.41
930.16	228.46
930.46	228.47
930.76	228.35
931.06	228.32
931.36	228.19
931.66	228.27
931.96	228.32
932.26	228.34
932.56	228.34
932.86	228.39
933.16	228.36
933.46	228.32
933.76	228.35
934.06	228.32
934.36	228.42
934.66	228.44
934.96	228.41
935.26	228.48
935.56	228.48
935.86	228.57
936.16	228.60
936.46	228.46
936.76	228.41
937.06	228.36
937.36	228.37
937.66	228.41
937.96	228.41
938.26	228.37
938.56	228.37
938.86	228.39
939.16	228.26
939.46	228.30
939.76	228.40
940.06	228.46
940.35	228.39
940.65	228.31
940.95	228.27
941.25	228.33
941.55	228.16
941.85	228.23
942.15	228.27
942.45	228.32
942.75	228.36
943.04	228.41
943.34	228.42
943.64	228.37
943.94	228.43
944.24	228.35
944.54	228.38
944.84	228.50
945.13	228.39
945.43	228.39
945.73	228.41
946.03	228.30
946.33	228.32
946.62	228.42
946.92	228.43
947.22	228.53
947.52	228.51
947.82	228.60
948.11	228.57
948.41	228.55
948.71	228.52
949.01	228.64
949.31	228.63
949.60	228.70
949.90	228.71
950.20	228.62
950.50	228.74
950.79	228.70
951.09	228.60
951.39	228.67
951.69	228.67
951.98	228.61
952.28	228.71
952.58	228.66
952.87	228.62
953.17	228.72
953.47	228.70
953.76	228.67
954.06	228.61
954.36	228.60
954.66	228.61
954.95	228.55
955.25	228.50
955.55	228.50
955.84	228.45
956.14	228.50
956.44	228.47
956.73	228.41
957.03	228.40
957.32	228.47
957.62	228.32
957.92	228.38
958.21	228.37
958.51	228.61
958.81	228.66
959.10	228.66
959.40	228.60
959.69	228.60
959.99	228.72
960.29	228.75
960.58	228.78
960.88	228.81
961.17	228.80
961.47	228.77
961.76	228.69
962.06	228.73
962.36	228.70
962.65	228.81
962.95	228.86
963.24	228.87
963.54	228.81
963.83	228.92
964.13	228.87
964.42	228.84
964.72	228.58
965.01	228.54
965.31	228.52
965.60	228.52
965.90	228.59
966.19	228.43
966.49	228.41
966.78	228.24
967.08	228.16
967.37	228.26
967.67	228.24
967.96	228.35
968.26	228.30
968.55	228.27
968.85	228.20
969.14	228.20
969.43	228.13
969.73	228.14
970.02	228.03
970.32	228.04
970.61	228.03
970.91	227.96
971.20	227.81
971.49	227.84
971.79	227.80
972.08	227.65
972.38	227.61
972.67	227.58
972.96	227.64
973.26	227.68
973.55	227.69
973.85	227.72
974.14	227.57
974.43	227.61
974.73	227.58
975.02	227.59
975.31	227.50
975.61	227.56
975.90	227.45
976.19	227.48
976.49	227.55
976.78	227.63
977.07	227.71
977.37	227.92
977.66	227.90
977.95	227.89
978.24	227.93
978.54	227.96
978.83	227.95
979.12	227.96
979.42	227.91
979.71	227.87
980.00	227.86
980.29	227.95
980.59	228.03
980.88	228.11
981.17	228.13
981.46	228.19
981.76	228.08
982.05	228.21
982.34	228.25
982.63	228.16
982.93	228.03
983.22	228.04
983.51	228.00
983.80	227.98
984.09	227.98
984.39	227.91
984.68	227.87
984.97	227.88
985.26	227.84
985.55	227.87
985.85	227.83
986.14	227.84
986.43	227.93
986.72	227.80
987.01	227.75
987.30	227.71
987.59	227.65
987.89	227.83
988.18	227.87
988.47	227.83
988.76	227.83
989.05	227.90
989.34	227.90
989.63	227.90
989.92	227.95
990.22	228.01
990.51	228.10
990.80	228.22
991.09	228.23
991.38	228.30
991.67	228.23
991.96	228.22
992.25	228.20
992.54	228.15
992.83	228.30
993.12	228.39
993.41	228.45
993.70	228.49
993.99	228.45
994.28	228.38
994.58	228.50
994.87	228.60
995.16	228.69
995.45	228.67
995.74	228.70
996.03	228.70
996.32	228.76
996.61	228.89
996.90	228.89
997.19	228.97
997.48	229.00
997.77	229.09
998.06	229.18
998.34	229.18
998.63	229.20
998.92	229.04
999.21	228.96
999.50	228.99
999.79	228.97
1000.08	229.02
1000.37	229.08
1000.66	229.03
1000.95	229.02
1001.24	229.03
1001.53	228.95
1001.82	228.92
1002.11	228.90
1002.40	228.91
1002.68	228.77
1002.97	228.93
1003.26	228.98
1003.55	228.96
1003.84	229.04
1004.13	229.10
1004.42	229.11
1004.71	229.12
1004.99	229.17
1005.28	229.26
1005.57	229.21
1005.86	229.16
1006.15	229.10
1006.44	228.91
1006.72	228.86
1007.01	228.83
1007.30	228.75
1007.59	228.83
1007.88	228.79
1008.17	228.90
1008.45	228.74
1008.74	228.75
1009.03	228.63
1009.32	228.50
1009.60	228.44
1009.89	228.36
1010.18	228.28
1010.47	228.23
1010.76	228.17
1011.04	228.09
1011.33	228.09
1011.62	228.07
1011.91	228.05
1012.19	228.06
1012.48	228.17
1012.77	228.15
1013.05	228.26
1013.34	228.33
1013.63	228.27
1013.92	228.28
1014.20	228.14
1014.49	228.23
1014.78	228.21
1015.06	228.05
1015.35	228.08
1015.64	228.08
1015.92	228.02
1016.21	227.94
1016.50	228.02
1016.78	228.12
1017.07	228.15
1017.36	228.00
1017.64	227.99
1017.93	227.97
1018.22	227.91
1018.50	227.93
1018.79	227.95
1019.08	227.72
1019.36	227.70
1019.65	227.58
1019.93	227.64
1020.22	227.65
1020.51	227.70
1020.79	227.71
1021.08	227.30
1021.36	228.30
1021.65	227.30
1021.94	226.10
1022.22	229.00
1022.51	225.20
1022.79	229.50
1023.08	227.90
1023.36	229.90
1023.65	228.20
>>>>>End Processed Spectral Data<<<<<
