SpectraSuite Data File
++++++++++++++++++++++++++++++++++++
Date: Fri Feb 01 14:40:22 EST 2013
User: group
Dark Spectrum Present: No
Reference Spectrum Present: No
Number of Sampled Component Spectra: 1
Spectrometers: USB2E7196
Integration Time (usec): 70000 (USB2E7196)
Spectra Averaged: 10 (USB2E7196)
Boxcar Smoothing: 10 (USB2E7196)
Correct for Electrical Dark: No (USB2E7196)
Strobe/Lamp Enabled: No (USB2E7196)
Correct for Detector Non-linearity: No (USB2E7196)
Correct for Stray Light: No (USB2E7196)
Number of Pixels in Processed Spectrum: 2048
>>>>>Begin Processed Spectral Data<<<<<
339.09	0.00
339.48	217.50
339.86	217.80
340.24	218.90
340.63	219.70
341.01	226.10
341.39	224.20
341.78	224.30
342.16	225.70
342.54	226.70
342.93	214.87
343.31	225.78
343.69	226.31
344.07	226.74
344.46	227.17
344.84	227.62
345.22	227.67
345.60	227.95
345.99	228.11
346.37	228.20
346.75	228.27
347.13	228.20
347.52	228.32
347.90	228.38
348.28	228.47
348.66	228.51
349.05	228.45
349.43	228.53
349.81	228.63
350.19	228.59
350.57	228.64
350.96	228.75
351.34	228.82
351.72	228.78
352.10	228.89
352.48	229.04
352.87	229.09
353.25	229.15
353.63	229.14
354.01	229.20
354.39	229.38
354.77	229.52
355.15	229.60
355.54	229.53
355.92	229.62
356.30	229.66
356.68	229.86
357.06	229.86
357.44	229.92
357.82	229.91
358.20	230.00
358.58	230.08
358.97	230.06
359.35	230.11
359.73	230.28
360.11	230.24
360.49	230.16
360.87	230.09
361.25	230.27
361.63	230.33
362.01	230.33
362.39	230.26
362.77	230.15
363.15	230.24
363.53	230.27
363.91	230.24
364.29	230.28
364.67	230.15
365.05	230.24
365.43	230.20
365.81	230.20
366.19	230.17
366.57	230.28
366.95	230.22
367.33	230.13
367.71	230.16
368.09	230.22
368.47	230.17
368.85	230.15
369.23	230.10
369.61	230.01
369.99	230.03
370.37	229.95
370.75	230.04
371.13	229.97
371.51	229.86
371.89	229.86
372.27	229.77
372.65	229.63
373.03	229.58
373.41	229.53
373.78	229.40
374.16	229.36
374.54	229.24
374.92	229.25
375.30	229.17
375.68	228.95
376.06	228.85
376.44	228.81
376.82	228.78
377.19	228.63
377.57	228.48
377.95	228.45
378.33	228.39
378.71	228.27
379.09	228.21
379.47	228.23
379.84	228.07
380.22	227.96
380.60	227.88
380.98	227.79
381.36	227.75
381.73	227.67
382.11	227.64
382.49	227.50
382.87	227.35
383.25	227.20
383.62	227.40
384.00	227.39
384.38	227.40
384.76	227.39
385.13	227.42
385.51	227.40
385.89	227.28
386.27	227.28
386.64	227.20
387.02	227.08
387.40	226.93
387.78	227.01
388.15	226.94
388.53	226.89
388.91	226.88
389.29	226.80
389.66	226.87
390.04	226.81
390.42	226.84
390.79	226.80
391.17	226.88
391.55	226.66
391.92	226.62
392.30	226.50
392.68	226.45
393.05	226.42
393.43	226.41
393.81	226.47
394.18	226.37
394.56	226.44
394.94	226.52
395.31	226.58
395.69	226.61
396.06	226.71
396.44	226.82
396.82	226.88
397.19	226.91
397.57	226.90
397.95	227.02
398.32	227.08
398.70	227.28
399.07	227.36
399.45	227.48
399.82	227.60
400.20	227.79
400.58	227.95
400.95	227.98
401.33	228.19
401.70	228.44
402.08	228.62
402.45	228.70
402.83	228.88
403.20	229.08
403.58	229.13
403.95	229.38
404.33	229.53
404.71	229.67
405.08	230.01
405.46	230.18
405.83	230.29
406.21	230.47
406.58	230.60
406.96	230.80
407.33	230.91
407.70	231.12
408.08	231.51
408.45	231.72
408.83	232.04
409.20	232.24
409.58	232.36
409.95	232.71
410.33	233.00
410.70	233.27
411.08	233.59
411.45	233.90
411.82	234.07
412.20	234.44
412.57	234.84
412.95	235.04
413.32	235.46
413.69	235.83
414.07	236.21
414.44	236.74
414.82	237.31
415.19	237.92
415.56	238.38
415.94	238.74
416.31	239.31
416.68	239.84
417.06	240.42
417.43	241.02
417.81	241.72
418.18	242.46
418.55	243.21
418.93	244.00
419.30	244.86
419.67	245.84
420.04	246.64
420.42	247.61
420.79	248.88
421.16	250.10
421.54	251.33
421.91	252.50
422.28	253.70
422.66	254.81
423.03	256.12
423.40	257.46
423.77	258.86
424.15	260.18
424.52	261.67
424.89	263.34
425.26	264.89
425.64	266.22
426.01	267.71
426.38	269.45
426.75	271.10
427.13	272.90
427.50	274.74
427.87	276.68
428.24	278.36
428.61	280.03
428.99	281.88
429.36	283.88
429.73	285.91
430.10	287.88
430.47	290.02
430.85	292.10
431.22	294.36
431.59	296.80
431.96	299.12
432.33	301.58
432.70	304.00
433.08	306.76
433.45	309.34
433.82	311.95
434.19	314.65
434.56	317.47
434.93	320.08
435.30	322.53
435.68	325.43
436.05	328.31
436.42	331.19
436.79	333.65
437.16	336.33
437.53	339.10
437.90	341.94
438.27	344.77
438.64	347.55
439.01	350.19
439.38	352.40
439.75	354.70
440.13	357.13
440.50	359.54
440.87	361.42
441.24	363.40
441.61	365.56
441.98	367.20
442.35	368.88
442.72	370.81
443.09	372.76
443.46	373.80
443.83	374.45
444.20	374.87
444.57	375.75
444.94	376.28
445.31	376.82
445.68	377.37
446.05	377.32
446.42	377.16
446.79	376.86
447.16	376.49
447.53	376.15
447.90	375.07
448.27	373.88
448.64	372.28
449.01	371.25
449.37	369.37
449.74	367.43
450.11	365.40
450.48	362.78
450.85	360.20
451.22	358.13
451.59	356.24
451.96	354.20
452.33	351.60
452.70	349.15
453.07	346.28
453.43	343.13
453.80	340.31
454.17	337.37
454.54	334.54
454.91	331.71
455.28	328.93
455.65	326.49
456.02	324.24
456.38	322.13
456.75	319.47
457.12	317.15
457.49	314.90
457.86	312.79
458.23	310.95
458.59	308.85
458.96	306.73
459.33	304.77
459.70	303.10
460.07	301.62
460.43	299.79
460.80	298.17
461.17	296.87
461.54	295.49
461.91	294.03
462.27	292.75
462.64	291.41
463.01	290.01
463.38	288.60
463.74	286.81
464.11	285.49
464.48	284.42
464.85	283.37
465.21	282.48
465.58	281.31
465.95	280.24
466.32	279.27
466.68	278.23
467.05	277.29
467.42	276.25
467.78	275.29
468.15	274.40
468.52	273.56
468.88	272.48
469.25	271.52
469.62	270.92
469.98	270.12
470.35	269.40
470.72	268.77
471.08	268.04
471.45	267.55
471.82	266.97
472.18	266.25
472.55	265.72
472.92	265.09
473.28	264.55
473.65	263.93
474.02	263.36
474.38	262.87
474.75	262.32
475.11	261.80
475.48	261.44
475.85	261.01
476.21	260.69
476.58	260.36
476.94	260.04
477.31	259.64
477.67	259.24
478.04	259.01
478.41	258.72
478.77	258.81
479.14	258.48
479.50	258.32
479.87	258.21
480.23	257.87
480.60	257.68
480.96	257.51
481.33	257.44
481.69	257.30
482.06	257.16
482.42	257.00
482.79	256.91
483.15	256.77
483.52	256.71
483.88	256.65
484.25	256.68
484.61	256.84
484.98	256.93
485.34	257.02
485.71	257.12
486.07	257.11
486.44	256.98
486.80	256.96
487.17	257.00
487.53	257.13
487.90	257.48
488.26	257.75
488.62	258.02
488.99	258.25
489.35	258.58
489.72	258.90
490.08	259.25
490.44	259.46
490.81	259.80
491.17	260.18
491.54	260.60
491.90	260.98
492.26	261.23
492.63	261.64
492.99	262.18
493.36	262.67
493.72	263.35
494.08	263.90
494.45	264.85
494.81	265.60
495.17	266.45
495.54	267.26
495.90	268.04
496.26	269.01
496.63	269.91
496.99	271.03
497.35	272.14
497.72	273.37
498.08	274.70
498.44	276.03
498.80	277.41
499.17	278.90
499.53	280.38
499.89	282.07
500.26	283.71
500.62	285.42
500.98	287.37
501.34	289.28
501.71	291.29
502.07	293.24
502.43	295.46
502.79	297.75
503.16	300.05
503.52	302.55
503.88	304.87
504.24	307.69
504.60	310.34
504.97	313.35
505.33	316.28
505.69	319.48
506.05	322.74
506.41	326.02
506.78	329.40
507.14	332.98
507.50	336.66
507.86	340.54
508.22	344.55
508.59	348.51
508.95	352.79
509.31	357.39
509.67	362.11
510.03	366.69
510.39	371.39
510.75	376.32
511.12	381.37
511.48	386.74
511.84	392.00
512.20	397.46
512.56	403.16
512.92	409.20
513.28	415.30
513.64	421.42
514.00	427.75
514.37	434.27
514.73	440.91
515.09	447.61
515.45	454.49
515.81	461.58
516.17	468.85
516.53	476.28
516.89	483.65
517.25	491.19
517.61	498.96
517.97	506.72
518.33	514.60
518.69	522.89
519.05	530.99
519.41	539.31
519.77	548.04
520.13	556.64
520.49	565.31
520.85	574.03
521.21	582.96
521.57	592.32
521.93	601.50
522.29	610.84
522.65	620.21
523.01	629.53
523.37	638.92
523.73	648.76
524.09	658.48
524.45	668.31
524.81	678.27
525.17	688.75
525.53	699.36
525.89	709.87
526.25	720.41
526.61	731.43
526.97	742.40
527.33	752.96
527.68	764.08
528.04	775.23
528.40	786.25
528.76	797.69
529.12	808.78
529.48	820.24
529.84	831.71
530.20	843.38
530.56	855.33
530.91	867.51
531.27	879.14
531.63	891.25
531.99	903.45
532.35	915.28
532.71	926.67
533.07	938.46
533.42	950.27
533.78	962.20
534.14	973.98
534.50	985.61
534.86	997.54
535.21	1008.90
535.57	1020.80
535.93	1033.04
536.29	1044.98
536.65	1056.90
537.00	1068.26
537.36	1080.28
537.72	1092.06
538.08	1103.62
538.44	1115.07
538.79	1126.99
539.15	1137.85
539.51	1149.24
539.87	1161.16
540.22	1173.19
540.58	1185.20
540.94	1197.08
541.29	1208.72
541.65	1220.05
542.01	1231.86
542.37	1243.31
542.72	1254.76
543.08	1265.66
543.44	1276.66
543.79	1286.91
544.15	1297.74
544.51	1309.48
544.87	1320.28
545.22	1330.94
545.58	1341.49
545.94	1351.19
546.29	1361.19
546.65	1371.75
547.01	1381.68
547.36	1390.90
547.72	1400.13
548.07	1409.09
548.43	1418.15
548.79	1426.63
549.14	1435.50
549.50	1443.73
549.86	1452.30
550.21	1460.40
550.57	1469.29
550.92	1477.60
551.28	1485.98
551.64	1494.03
551.99	1501.67
552.35	1509.34
552.70	1516.96
553.06	1524.64
553.41	1532.64
553.77	1540.08
554.13	1547.44
554.48	1554.87
554.84	1562.34
555.19	1569.64
555.55	1576.96
555.90	1583.70
556.26	1590.82
556.61	1597.66
556.97	1604.15
557.32	1610.61
557.68	1617.49
558.03	1623.40
558.39	1629.38
558.74	1636.01
559.10	1642.13
559.45	1648.23
559.81	1654.84
560.16	1660.41
560.52	1665.94
560.87	1671.56
561.23	1676.52
561.58	1681.94
561.94	1686.73
562.29	1691.41
562.64	1696.17
563.00	1700.66
563.35	1705.81
563.71	1710.50
564.06	1715.62
564.42	1720.50
564.77	1725.06
565.12	1729.52
565.48	1734.17
565.83	1738.03
566.19	1741.78
566.54	1745.53
566.89	1748.85
567.25	1751.70
567.60	1755.65
567.96	1758.83
568.31	1762.00
568.66	1765.27
569.02	1767.86
569.37	1770.47
569.72	1773.34
570.08	1775.90
570.43	1778.21
570.78	1780.24
571.14	1782.02
571.49	1783.41
571.84	1785.60
572.20	1787.07
572.55	1788.15
572.90	1788.72
573.26	1790.23
573.61	1791.39
573.96	1792.16
574.31	1791.85
574.67	1791.15
575.02	1790.76
575.37	1791.03
575.72	1790.56
576.08	1790.35
576.43	1790.03
576.78	1789.78
577.13	1789.36
577.49	1788.29
577.84	1787.39
578.19	1786.00
578.54	1784.89
578.90	1783.31
579.25	1781.17
579.60	1779.42
579.95	1777.61
580.30	1775.63
580.66	1772.94
581.01	1770.41
581.36	1768.04
581.71	1766.88
582.06	1765.54
582.42	1763.15
582.77	1760.55
583.12	1758.16
583.47	1756.17
583.82	1754.00
584.17	1751.21
584.53	1748.50
584.88	1746.22
585.23	1743.41
585.58	1741.03
585.93	1738.29
586.28	1735.61
586.63	1733.23
586.98	1730.76
587.34	1728.40
587.69	1725.71
588.04	1723.43
588.39	1720.80
588.74	1717.05
589.09	1713.25
589.44	1709.10
589.79	1705.98
590.14	1703.03
590.49	1699.45
590.84	1695.19
591.19	1691.19
591.54	1687.05
591.89	1682.17
592.25	1678.03
592.60	1673.36
592.95	1668.34
593.30	1663.64
593.65	1658.82
594.00	1654.29
594.35	1649.85
594.70	1644.78
595.05	1640.49
595.40	1635.23
595.75	1630.31
596.10	1626.02
596.45	1622.07
596.80	1618.20
597.15	1613.87
597.50	1609.03
597.85	1605.28
598.19	1601.59
598.54	1597.18
598.89	1592.72
599.24	1589.62
599.59	1584.95
599.94	1581.15
600.29	1577.01
600.64	1572.66
600.99	1567.86
601.34	1563.19
601.69	1557.86
602.04	1553.32
602.39	1548.20
602.74	1544.37
603.08	1539.98
603.43	1535.89
603.78	1531.00
604.13	1526.08
604.48	1521.02
604.83	1516.23
605.18	1511.17
605.53	1505.15
605.87	1499.40
606.22	1494.33
606.57	1488.39
606.92	1483.24
607.27	1478.36
607.62	1473.83
607.96	1469.16
608.31	1464.35
608.66	1458.34
609.01	1453.01
609.36	1446.99
609.70	1440.83
610.05	1434.56
610.40	1428.22
610.75	1421.85
611.10	1415.84
611.44	1409.33
611.79	1403.30
612.14	1396.57
612.49	1389.32
612.83	1383.48
613.18	1377.70
613.53	1371.89
613.88	1365.35
614.22	1359.30
614.57	1351.93
614.92	1345.12
615.27	1338.64
615.61	1332.34
615.96	1326.44
616.31	1320.69
616.65	1315.45
617.00	1309.66
617.35	1303.67
617.70	1297.50
618.04	1291.49
618.39	1285.48
618.74	1279.97
619.08	1273.98
619.43	1268.52
619.78	1263.04
620.12	1257.03
620.47	1250.84
620.82	1244.62
621.16	1239.09
621.51	1232.99
621.85	1227.25
622.20	1220.94
622.55	1214.95
622.89	1209.01
623.24	1203.13
623.59	1197.43
623.93	1191.33
624.28	1186.07
624.62	1179.89
624.97	1174.46
625.32	1168.90
625.66	1162.91
626.01	1157.27
626.35	1151.50
626.70	1145.48
627.04	1139.88
627.39	1133.52
627.73	1127.61
628.08	1121.71
628.43	1115.91
628.77	1110.23
629.12	1104.44
629.46	1098.59
629.81	1092.04
630.15	1085.92
630.50	1080.02
630.84	1073.24
631.19	1066.72
631.53	1060.34
631.88	1054.03
632.22	1047.58
632.57	1041.47
632.91	1035.29
633.26	1029.01
633.60	1022.55
633.95	1016.63
634.29	1010.51
634.64	1005.12
634.98	999.30
635.32	993.68
635.67	987.96
636.01	982.46
636.36	976.99
636.70	971.83
637.05	966.90
637.39	961.79
637.73	956.46
638.08	951.90
638.42	947.16
638.77	942.00
639.11	937.09
639.45	931.88
639.80	926.83
640.14	921.64
640.49	916.44
640.83	911.44
641.17	906.48
641.52	901.49
641.86	896.43
642.20	891.42
642.55	886.07
642.89	880.81
643.23	875.38
643.58	870.67
643.92	865.38
644.26	860.23
644.61	855.13
644.95	849.95
645.29	844.18
645.64	838.33
645.98	833.35
646.32	828.59
646.66	823.61
647.01	818.42
647.35	813.43
647.69	808.54
648.04	803.93
648.38	798.74
648.72	793.59
649.06	788.19
649.41	783.31
649.75	778.20
650.09	773.17
650.43	768.22
650.78	762.70
651.12	757.67
651.46	752.93
651.80	748.17
652.14	743.75
652.49	739.16
652.83	734.79
653.17	729.62
653.51	724.76
653.85	720.05
654.20	715.30
654.54	710.45
654.88	705.46
655.22	700.30
655.56	695.47
655.90	691.14
656.25	686.78
656.59	682.48
656.93	678.28
657.27	674.02
657.61	669.51
657.95	665.50
658.29	661.33
658.64	656.78
658.98	652.17
659.32	647.35
659.66	643.04
660.00	638.73
660.34	634.78
660.68	630.40
661.02	626.11
661.36	622.10
661.70	618.30
662.05	614.62
662.39	611.27
662.73	607.63
663.07	603.80
663.41	600.19
663.75	596.20
664.09	592.56
664.43	588.77
664.77	585.05
665.11	581.40
665.45	577.82
665.79	574.17
666.13	570.71
666.47	567.22
666.81	563.76
667.15	560.11
667.49	556.54
667.83	553.29
668.17	550.01
668.51	546.56
668.85	543.17
669.19	540.01
669.53	536.41
669.87	533.04
670.21	529.73
670.55	526.47
670.89	523.64
671.23	520.60
671.57	517.83
671.91	514.84
672.25	511.81
672.58	508.94
672.92	506.08
673.26	503.45
673.60	500.81
673.94	497.99
674.28	495.60
674.62	493.01
674.96	490.43
675.30	487.94
675.64	485.29
675.97	482.80
676.31	480.18
676.65	477.81
676.99	475.71
677.33	473.19
677.67	470.81
678.01	468.22
678.34	465.77
678.68	463.14
679.02	460.71
679.36	458.37
679.70	455.98
680.04	453.74
680.37	451.31
680.71	448.84
681.05	446.77
681.39	444.53
681.73	442.49
682.06	440.25
682.40	438.23
682.74	436.13
683.08	433.93
683.42	431.80
683.75	429.51
684.09	427.04
684.43	425.02
684.77	422.92
685.10	420.79
685.44	418.69
685.78	416.64
686.12	414.84
686.45	412.74
686.79	410.66
687.13	408.67
687.46	406.68
687.80	404.93
688.14	402.91
688.48	400.99
688.81	398.96
689.15	397.07
689.49	395.18
689.82	393.45
690.16	391.63
690.50	389.81
690.83	388.06
691.17	386.40
691.51	384.74
691.84	383.06
692.18	381.30
692.52	379.55
692.85	378.07
693.19	376.32
693.52	374.65
693.86	372.97
694.20	371.37
694.53	369.82
694.87	368.06
695.21	366.34
695.54	364.68
695.88	362.94
696.21	361.26
696.55	359.58
696.88	358.06
697.22	356.59
697.56	355.03
697.89	353.57
698.23	351.88
698.56	350.25
698.90	348.73
699.23	347.19
699.57	345.86
699.90	344.32
700.24	342.82
700.58	341.56
700.91	340.22
701.25	339.07
701.58	337.85
701.92	336.60
702.25	335.31
702.59	333.91
702.92	332.73
703.26	331.75
703.59	330.55
703.93	329.44
704.26	328.25
704.60	327.11
704.93	325.86
705.26	324.79
705.60	323.73
705.93	322.71
706.27	321.82
706.60	320.81
706.94	319.68
707.27	318.58
707.61	317.55
707.94	316.51
708.27	315.18
708.61	314.06
708.94	313.09
709.28	312.34
709.61	311.59
709.94	310.69
710.28	309.53
710.61	308.57
710.95	307.55
711.28	306.63
711.61	305.76
711.95	304.91
712.28	303.97
712.61	302.96
712.95	302.13
713.28	301.30
713.61	300.36
713.95	299.59
714.28	298.80
714.61	298.08
714.95	297.36
715.28	296.60
715.61	295.65
715.95	294.80
716.28	293.92
716.61	293.02
716.95	292.20
717.28	291.58
717.61	290.83
717.94	290.02
718.28	289.25
718.61	288.49
718.94	287.88
719.27	287.15
719.61	286.56
719.94	285.68
720.27	284.94
720.60	284.29
720.94	283.70
721.27	283.06
721.60	282.39
721.93	281.70
722.27	281.05
722.60	280.52
722.93	280.01
723.26	279.34
723.59	278.78
723.93	278.21
724.26	277.57
724.59	276.98
724.92	276.34
725.25	275.84
725.59	275.33
725.92	274.80
726.25	274.36
726.58	273.76
726.91	273.35
727.24	272.84
727.57	272.36
727.91	271.88
728.24	271.46
728.57	270.85
728.90	270.37
729.23	269.92
729.56	269.53
729.89	269.00
730.22	268.67
730.55	268.27
730.89	267.96
731.22	267.56
731.55	267.12
731.88	266.72
732.21	266.33
732.54	265.93
732.87	265.44
733.20	265.14
733.53	264.96
733.86	264.54
734.19	264.10
734.52	263.69
734.85	263.44
735.18	263.09
735.51	262.79
735.84	262.41
736.17	262.13
736.50	261.69
736.83	261.60
737.16	261.20
737.49	260.93
737.82	260.48
738.15	260.17
738.48	259.95
738.81	259.69
739.14	259.30
739.47	259.02
739.80	258.65
740.13	258.34
740.46	257.88
740.79	257.60
741.12	257.36
741.45	257.06
741.78	256.54
742.11	256.27
742.44	255.93
742.77	255.86
743.10	255.56
743.43	255.30
743.75	254.74
744.08	254.73
744.41	254.42
744.74	254.17
745.07	253.89
745.40	253.68
745.73	253.43
746.06	253.29
746.39	252.90
746.71	252.64
747.04	252.39
747.37	252.14
747.70	252.00
748.03	251.80
748.36	251.56
748.68	251.35
749.01	251.00
749.34	250.79
749.67	250.42
750.00	250.28
750.33	250.13
750.65	249.99
750.98	249.50
751.31	249.32
751.64	249.10
751.97	249.06
752.29	248.71
752.62	248.43
752.95	248.00
753.28	247.81
753.60	247.62
753.93	247.47
754.26	247.27
754.59	246.87
754.91	246.55
755.24	246.23
755.57	246.00
755.90	245.86
756.22	245.58
756.55	245.36
756.88	244.96
757.20	244.68
757.53	244.29
757.86	244.20
758.19	243.86
758.51	243.68
758.84	243.26
759.17	242.94
759.49	242.81
759.82	242.75
760.15	242.59
760.47	242.39
760.80	242.13
761.13	241.96
761.45	241.79
761.78	241.68
762.11	241.61
762.43	241.47
762.76	241.20
763.08	241.09
763.41	240.91
763.74	240.80
764.06	240.55
764.39	240.49
764.71	240.22
765.04	240.06
765.37	239.83
765.69	239.68
766.02	239.67
766.34	239.46
766.67	239.31
767.00	239.22
767.32	239.29
767.65	239.14
767.97	239.04
768.30	238.97
768.62	238.76
768.95	238.68
769.27	238.50
769.60	238.48
769.92	238.36
770.25	238.19
770.57	238.11
770.90	238.08
771.22	237.97
771.55	237.84
771.87	237.77
772.20	237.60
772.52	237.76
772.85	237.72
773.17	237.56
773.50	237.37
773.82	237.24
774.15	236.88
774.47	236.72
774.80	236.59
775.12	236.49
775.45	236.48
775.77	236.33
776.09	236.22
776.42	236.09
776.74	235.99
777.07	235.90
777.39	235.80
777.72	235.66
778.04	235.51
778.36	235.50
778.69	235.40
779.01	235.45
779.33	235.15
779.66	235.00
779.98	234.96
780.31	235.02
780.63	234.97
780.95	235.04
781.28	234.91
781.60	234.78
781.92	234.67
782.25	234.63
782.57	234.48
782.89	234.52
783.22	234.47
783.54	234.39
783.86	234.36
784.19	234.25
784.51	234.25
784.83	234.20
785.16	234.12
785.48	234.18
785.80	234.18
786.12	234.14
786.45	234.13
786.77	234.13
787.09	234.04
787.42	233.89
787.74	233.87
788.06	233.93
788.38	233.89
788.71	233.97
789.03	233.86
789.35	234.00
789.67	233.88
789.99	233.94
790.32	233.91
790.64	233.99
790.96	234.02
791.28	233.99
791.61	234.05
791.93	234.10
792.25	233.94
792.57	233.95
792.89	233.98
793.21	233.94
793.54	233.84
793.86	233.82
794.18	233.81
794.50	233.71
794.82	233.66
795.14	233.72
795.47	233.68
795.79	233.74
796.11	233.49
796.43	233.44
796.75	233.29
797.07	233.19
797.39	233.02
797.71	232.92
798.04	232.91
798.36	232.83
798.68	232.71
799.00	232.83
799.32	232.73
799.64	232.61
799.96	232.52
800.28	232.54
800.60	232.41
800.92	232.40
801.24	232.33
801.56	232.23
801.89	232.11
802.21	232.01
802.53	231.89
802.85	231.99
803.17	231.94
803.49	231.92
803.81	231.87
804.13	231.86
804.45	231.82
804.77	231.76
805.09	231.70
805.41	231.68
805.73	231.49
806.05	231.41
806.37	231.41
806.69	231.38
807.01	231.24
807.33	231.22
807.65	231.05
807.97	231.11
808.28	231.16
808.60	231.15
808.92	231.06
809.24	231.09
809.56	230.95
809.88	230.95
810.20	230.90
810.52	230.94
810.84	230.83
811.16	230.73
811.48	230.70
811.80	230.75
812.12	230.61
812.43	230.65
812.75	230.59
813.07	230.52
813.39	230.52
813.71	230.53
814.03	230.50
814.35	230.67
814.67	230.57
814.98	230.48
815.30	230.41
815.62	230.38
815.94	230.30
816.26	230.40
816.58	230.33
816.89	230.30
817.21	230.21
817.53	230.20
817.85	230.27
818.17	230.17
818.48	230.12
818.80	230.19
819.12	230.15
819.44	230.04
819.76	229.98
820.07	229.93
820.39	229.92
820.71	229.91
821.03	229.78
821.34	229.78
821.66	229.78
821.98	229.77
822.30	229.86
822.61	229.96
822.93	229.90
823.25	229.88
823.57	229.84
823.88	230.02
824.20	230.06
824.52	230.12
824.83	230.17
825.15	230.10
825.47	230.06
825.79	230.08
826.10	230.18
826.42	230.22
826.74	230.29
827.05	230.30
827.37	230.36
827.69	230.47
828.00	230.39
828.32	230.44
828.64	230.46
828.95	230.50
829.27	230.44
829.58	230.46
829.90	230.58
830.22	230.64
830.53	230.57
830.85	230.66
831.17	230.51
831.48	230.48
831.80	230.54
832.11	230.61
832.43	230.52
832.75	230.51
833.06	230.50
833.38	230.40
833.69	230.36
834.01	230.35
834.32	230.18
834.64	230.15
834.96	230.21
835.27	230.10
835.59	230.04
835.90	229.90
836.22	229.88
836.53	229.84
836.85	229.72
837.16	229.91
837.48	229.81
837.79	229.80
838.11	229.86
838.42	229.82
838.74	229.78
839.05	229.88
839.37	229.89
839.68	229.87
840.00	229.92
840.31	229.95
840.63	229.77
840.94	229.86
841.26	229.87
841.57	229.75
841.88	229.94
842.20	229.85
842.51	229.81
842.83	229.82
843.14	229.89
843.46	229.90
843.77	229.73
844.08	229.61
844.40	229.63
844.71	229.61
845.03	229.55
845.34	229.55
845.65	229.45
845.97	229.42
846.28	229.43
846.60	229.47
846.91	229.42
847.22	229.46
847.54	229.37
847.85	229.35
848.16	229.24
848.48	229.07
848.79	229.11
849.10	229.05
849.42	228.96
849.73	228.80
850.04	228.71
850.36	228.57
850.67	228.74
850.98	228.66
851.30	228.61
851.61	228.59
851.92	228.58
852.23	228.62
852.55	228.59
852.86	228.53
853.17	228.35
853.49	228.39
853.80	228.38
854.11	228.32
854.42	228.38
854.74	228.36
855.05	228.39
855.36	228.30
855.67	228.37
855.99	228.44
856.30	228.70
856.61	228.77
856.92	228.82
857.23	228.70
857.55	228.67
857.86	228.60
858.17	228.63
858.48	228.51
858.79	228.52
859.11	228.58
859.42	228.60
859.73	228.68
860.04	228.66
860.35	228.61
860.66	228.70
860.98	228.70
861.29	228.79
861.60	228.77
861.91	228.78
862.22	228.90
862.53	228.76
862.84	228.51
863.16	228.59
863.47	228.43
863.78	228.44
864.09	228.44
864.40	228.56
864.71	228.53
865.02	228.55
865.33	228.39
865.64	228.26
865.95	228.23
866.27	228.33
866.58	228.26
866.89	228.36
867.20	228.41
867.51	228.40
867.82	228.28
868.13	228.36
868.44	228.31
868.75	228.27
869.06	228.28
869.37	228.27
869.68	228.14
869.99	228.22
870.30	228.29
870.61	228.36
870.92	228.27
871.23	228.24
871.54	228.30
871.85	228.45
872.16	228.57
872.47	228.57
872.78	228.38
873.09	228.39
873.40	228.40
873.71	228.30
874.02	228.25
874.33	228.24
874.64	228.10
874.95	228.28
875.26	228.21
875.56	228.25
875.87	228.18
876.18	228.18
876.49	228.43
876.80	228.31
877.11	228.23
877.42	228.30
877.73	228.35
878.04	228.30
878.35	228.25
878.66	228.14
878.96	228.13
879.27	228.21
879.58	228.21
879.89	228.19
880.20	228.19
880.51	228.23
880.82	228.23
881.12	228.29
881.43	228.12
881.74	228.08
882.05	228.12
882.36	228.23
882.67	228.25
882.97	228.02
883.28	228.03
883.59	228.08
883.90	228.08
884.21	228.15
884.51	228.16
884.82	228.22
885.13	228.23
885.44	228.22
885.74	228.24
886.05	228.32
886.36	228.36
886.67	228.39
886.98	228.46
887.28	228.60
887.59	228.63
887.90	228.75
888.20	228.73
888.51	228.66
888.82	228.69
889.13	228.81
889.43	228.97
889.74	228.91
890.05	228.97
890.35	228.89
890.66	228.84
890.97	228.75
891.28	228.75
891.58	228.86
891.89	228.76
892.20	228.76
892.50	228.64
892.81	228.65
893.12	228.63
893.42	228.50
893.73	228.48
894.04	228.39
894.34	228.37
894.65	228.34
894.95	228.41
895.26	228.27
895.57	228.27
895.87	228.10
896.18	228.20
896.48	228.10
896.79	228.07
897.10	227.94
897.40	227.93
897.71	227.84
898.01	227.76
898.32	227.94
898.63	227.81
898.93	227.82
899.24	227.79
899.54	227.82
899.85	227.87
900.15	227.88
900.46	227.91
900.76	227.93
901.07	227.99
901.38	227.92
901.68	227.94
901.99	227.80
902.29	227.81
902.60	227.79
902.90	227.82
903.21	227.91
903.51	228.00
903.82	228.14
904.12	228.23
904.43	228.24
904.73	228.16
905.03	228.22
905.34	228.47
905.64	228.31
905.95	228.28
906.25	228.15
906.56	228.11
906.86	228.10
907.17	228.05
907.47	228.00
907.77	227.98
908.08	227.94
908.38	227.99
908.69	227.98
908.99	228.08
909.30	228.14
909.60	228.06
909.90	228.10
910.21	228.05
910.51	227.97
910.81	227.93
911.12	228.01
911.42	227.98
911.73	227.74
912.03	227.87
912.33	227.96
912.64	228.05
912.94	228.08
913.24	228.10
913.55	228.04
913.85	228.08
914.15	228.22
914.46	228.28
914.76	228.29
915.06	228.37
915.37	228.22
915.67	228.19
915.97	228.27
916.27	228.23
916.58	228.30
916.88	228.31
917.18	228.31
917.49	228.33
917.79	228.43
918.09	228.48
918.39	228.58
918.70	228.54
919.00	228.55
919.30	228.59
919.60	228.63
919.91	228.69
920.21	228.75
920.51	228.64
920.81	228.63
921.12	228.68
921.42	228.59
921.72	228.76
922.02	228.77
922.32	228.74
922.63	228.73
922.93	228.83
923.23	228.95
923.53	228.88
923.83	228.84
924.13	228.87
924.44	228.93
924.74	228.92
925.04	229.00
925.34	229.02
925.64	228.91
925.94	228.91
926.24	229.06
926.55	229.01
926.85	229.05
927.15	229.16
927.45	229.16
927.75	229.18
928.05	229.13
928.35	229.08
928.65	229.06
928.95	229.03
929.26	228.95
929.56	228.88
929.86	228.98
930.16	228.93
930.46	228.91
930.76	228.80
931.06	228.76
931.36	228.66
931.66	228.66
931.96	228.80
932.26	228.78
932.56	228.71
932.86	228.77
933.16	228.79
933.46	228.71
933.76	228.65
934.06	228.63
934.36	228.64
934.66	228.67
934.96	228.71
935.26	228.75
935.56	228.78
935.86	228.80
936.16	228.79
936.46	228.92
936.76	228.95
937.06	229.04
937.36	228.96
937.66	228.99
937.96	229.01
938.26	228.93
938.56	228.90
938.86	228.90
939.16	228.87
939.46	228.87
939.76	228.86
940.06	228.82
940.35	228.95
940.65	228.91
940.95	228.96
941.25	228.92
941.55	229.00
941.85	228.93
942.15	228.90
942.45	228.91
942.75	228.82
943.04	228.74
943.34	228.70
943.64	228.69
943.94	228.65
944.24	228.53
944.54	228.56
944.84	228.68
945.13	228.59
945.43	228.60
945.73	228.59
946.03	228.54
946.33	228.68
946.62	228.48
946.92	228.40
947.22	228.37
947.52	228.39
947.82	228.30
948.11	228.24
948.41	228.20
948.71	228.10
949.01	227.98
949.31	227.91
949.60	227.92
949.90	228.04
950.20	227.97
950.50	228.12
950.79	228.07
951.09	228.06
951.39	228.02
951.69	227.93
951.98	227.94
952.28	227.99
952.58	227.89
952.87	227.99
953.17	228.08
953.47	228.00
953.76	227.95
954.06	227.89
954.36	227.85
954.66	227.92
954.95	228.04
955.25	228.16
955.55	228.29
955.84	228.25
956.14	228.20
956.44	228.36
956.73	228.29
957.03	228.32
957.32	228.27
957.62	228.27
957.92	228.37
958.21	228.36
958.51	228.54
958.81	228.55
959.10	228.50
959.40	228.53
959.69	228.60
959.99	228.54
960.29	228.67
960.58	228.72
960.88	228.79
961.17	228.77
961.47	228.73
961.76	228.68
962.06	228.66
962.36	228.66
962.65	228.58
962.95	228.54
963.24	228.47
963.54	228.41
963.83	228.50
964.13	228.37
964.42	228.28
964.72	228.19
965.01	228.23
965.31	228.30
965.60	228.30
965.90	228.41
966.19	228.48
966.49	228.46
966.78	228.43
967.08	228.42
967.37	228.46
967.67	228.47
967.96	228.57
968.26	228.63
968.55	228.66
968.85	228.71
969.14	228.70
969.43	228.74
969.73	228.73
970.02	228.67
970.32	228.80
970.61	228.84
970.91	228.69
971.20	228.61
971.49	228.60
971.79	228.59
972.08	228.45
972.38	228.47
972.67	228.38
972.96	228.47
973.26	228.42
973.55	228.47
973.85	228.49
974.14	228.37
974.43	228.39
974.73	228.40
975.02	228.39
975.31	228.40
975.61	228.44
975.90	228.47
976.19	228.45
976.49	228.46
976.78	228.44
977.07	228.52
977.37	228.61
977.66	228.65
977.95	228.55
978.24	228.63
978.54	228.72
978.83	228.80
979.12	228.74
979.42	228.64
979.71	228.65
980.00	228.63
980.29	228.67
980.59	228.63
980.88	228.66
981.17	228.60
981.46	228.71
981.76	228.68
982.05	228.64
982.34	228.71
982.63	228.68
982.93	228.68
983.22	228.69
983.51	228.62
983.80	228.64
984.09	228.69
984.39	228.59
984.68	228.59
984.97	228.50
985.26	228.40
985.55	228.42
985.85	228.37
986.14	228.49
986.43	228.59
986.72	228.64
987.01	228.50
987.30	228.54
987.59	228.41
987.89	228.50
988.18	228.47
988.47	228.51
988.76	228.50
989.05	228.52
989.34	228.47
989.63	228.50
989.92	228.39
990.22	228.36
990.51	228.39
990.80	228.29
991.09	228.34
991.38	228.50
991.67	228.56
991.96	228.54
992.25	228.52
992.54	228.38
992.83	228.24
993.12	228.22
993.41	228.22
993.70	228.37
993.99	228.31
994.28	228.43
994.58	228.40
994.87	228.43
995.16	228.38
995.45	228.33
995.74	228.30
996.03	228.36
996.32	228.39
996.61	228.43
996.90	228.47
997.19	228.50
997.48	228.46
997.77	228.45
998.06	228.45
998.34	228.37
998.63	228.36
998.92	228.40
999.21	228.50
999.50	228.57
999.79	228.46
1000.08	228.40
1000.37	228.34
1000.66	228.31
1000.95	228.31
1001.24	228.31
1001.53	228.44
1001.82	228.50
1002.11	228.53
1002.40	228.64
1002.68	228.69
1002.97	228.79
1003.26	228.70
1003.55	228.68
1003.84	228.69
1004.13	228.70
1004.42	228.73
1004.71	228.79
1004.99	228.85
1005.28	228.86
1005.57	228.72
1005.86	228.75
1006.15	228.82
1006.44	228.82
1006.72	228.91
1007.01	228.90
1007.30	228.98
1007.59	228.91
1007.88	228.83
1008.17	228.84
1008.45	228.80
1008.74	228.69
1009.03	228.63
1009.32	228.69
1009.60	228.71
1009.89	228.70
1010.18	228.52
1010.47	228.50
1010.76	228.40
1011.04	228.38
1011.33	228.35
1011.62	228.45
1011.91	228.47
1012.19	228.44
1012.48	228.46
1012.77	228.42
1013.05	228.52
1013.34	228.43
1013.63	228.46
1013.92	228.55
1014.20	228.49
1014.49	228.45
1014.78	228.51
1015.06	228.45
1015.35	228.48
1015.64	228.52
1015.92	228.53
1016.21	228.63
1016.50	228.54
1016.78	228.61
1017.07	228.67
1017.36	228.71
1017.64	228.57
1017.93	228.66
1018.22	228.60
1018.50	228.58
1018.79	228.52
1019.08	228.45
1019.36	228.53
1019.65	228.46
1019.93	228.46
1020.22	228.47
1020.51	228.52
1020.79	228.46
1021.08	227.70
1021.36	228.10
1021.65	228.60
1021.94	228.90
1022.22	228.30
1022.51	227.60
1022.79	228.90
1023.08	228.10
1023.36	230.00
1023.65	227.70
>>>>>End Processed Spectral Data<<<<<
