SpectraSuite Data File
++++++++++++++++++++++++++++++++++++
Date: Fri Feb 01 14:39:00 EST 2013
User: group
Dark Spectrum Present: No
Reference Spectrum Present: No
Number of Sampled Component Spectra: 1
Spectrometers: USB2E7196
Integration Time (usec): 70000 (USB2E7196)
Spectra Averaged: 10 (USB2E7196)
Boxcar Smoothing: 10 (USB2E7196)
Correct for Electrical Dark: No (USB2E7196)
Strobe/Lamp Enabled: No (USB2E7196)
Correct for Detector Non-linearity: No (USB2E7196)
Correct for Stray Light: No (USB2E7196)
Number of Pixels in Processed Spectrum: 2048
>>>>>Begin Processed Spectral Data<<<<<
339.09	0.00
339.48	215.60
339.86	216.50
340.24	219.00
340.63	220.10
341.01	224.80
341.39	224.00
341.78	224.90
342.16	226.90
342.54	227.10
342.93	214.66
343.31	225.54
343.69	226.20
344.07	226.78
344.46	227.19
344.84	227.57
345.22	227.81
345.60	228.04
345.99	228.19
346.37	228.16
346.75	228.10
347.13	228.14
347.52	228.10
347.90	228.19
348.28	228.19
348.66	228.23
349.05	228.11
349.43	228.13
349.81	228.18
350.19	228.24
350.57	228.33
350.96	228.45
351.34	228.55
351.72	228.53
352.10	228.55
352.48	228.61
352.87	228.68
353.25	228.60
353.63	228.67
354.01	228.72
354.39	228.94
354.77	229.19
355.15	229.32
355.54	229.47
355.92	229.52
356.30	229.57
356.68	229.73
357.06	229.86
357.44	229.93
357.82	229.95
358.20	229.97
358.58	230.03
358.97	230.04
359.35	230.02
359.73	230.03
360.11	230.12
360.49	230.16
360.87	230.18
361.25	230.40
361.63	230.49
362.01	230.48
362.39	230.44
362.77	230.40
363.15	230.40
363.53	230.32
363.91	230.37
364.29	230.29
364.67	230.19
365.05	230.31
365.43	230.22
365.81	230.29
366.19	230.21
366.57	230.26
366.95	230.20
367.33	230.18
367.71	230.15
368.09	230.10
368.47	230.15
368.85	230.17
369.23	230.09
369.61	229.94
369.99	230.03
370.37	230.01
370.75	230.10
371.13	229.95
371.51	229.92
371.89	229.82
372.27	229.85
372.65	229.79
373.03	229.67
373.41	229.67
373.78	229.55
374.16	229.54
374.54	229.39
374.92	229.28
375.30	229.15
375.68	229.13
376.06	228.97
376.44	228.82
376.82	228.66
377.19	228.54
377.57	228.52
377.95	228.38
378.33	228.27
378.71	228.06
379.09	228.03
379.47	228.02
379.84	227.89
380.22	227.76
380.60	227.58
380.98	227.43
381.36	227.34
381.73	227.31
382.11	227.28
382.49	227.19
382.87	227.15
383.25	227.08
383.62	227.21
384.00	227.12
384.38	227.10
384.76	227.05
385.13	227.03
385.51	226.98
385.89	226.89
386.27	226.87
386.64	226.82
387.02	226.74
387.40	226.65
387.78	226.60
388.15	226.56
388.53	226.65
388.91	226.65
389.29	226.62
389.66	226.50
390.04	226.38
390.42	226.48
390.79	226.51
391.17	226.67
391.55	226.35
391.92	226.41
392.30	226.30
392.68	226.25
393.05	226.20
393.43	226.23
393.81	226.20
394.18	226.18
394.56	226.19
394.94	226.27
395.31	226.29
395.69	226.51
396.06	226.65
396.44	226.64
396.82	226.67
397.19	226.80
397.57	226.98
397.95	227.13
398.32	227.11
398.70	227.13
399.07	227.10
399.45	227.25
399.82	227.32
400.20	227.57
400.58	227.72
400.95	227.81
401.33	227.95
401.70	228.16
402.08	228.30
402.45	228.45
402.83	228.60
403.20	228.76
403.58	228.77
403.95	228.90
404.33	229.04
404.71	229.16
405.08	229.36
405.46	229.49
405.83	229.60
406.21	229.70
406.58	229.93
406.96	230.13
407.33	230.33
407.70	230.51
408.08	230.79
408.45	231.01
408.83	231.20
409.20	231.35
409.58	231.44
409.95	231.75
410.33	232.00
410.70	232.27
411.08	232.59
411.45	232.89
411.82	233.23
412.20	233.69
412.57	234.21
412.95	234.44
413.32	234.84
413.69	235.27
414.07	235.65
414.44	236.13
414.82	236.60
415.19	237.15
415.56	237.93
415.94	238.43
416.31	239.12
416.68	239.82
417.06	240.59
417.43	241.44
417.81	242.21
418.18	243.13
418.55	244.05
418.93	244.95
419.30	246.05
419.67	246.92
420.04	247.95
420.42	248.97
420.79	250.38
421.16	251.59
421.54	253.04
421.91	254.62
422.28	256.00
422.66	257.54
423.03	259.16
423.40	260.45
423.77	262.10
424.15	263.83
424.52	265.64
424.89	267.48
425.26	269.28
425.64	271.02
426.01	272.80
426.38	274.76
426.75	276.82
427.13	278.76
427.50	280.89
427.87	283.03
428.24	285.14
428.61	287.17
428.99	289.61
429.36	292.06
429.73	294.41
430.10	296.91
430.47	299.35
430.85	301.85
431.22	304.65
431.59	307.51
431.96	310.18
432.33	313.15
432.70	316.15
433.08	319.44
433.45	322.69
433.82	325.87
434.19	329.50
434.56	333.02
434.93	336.26
435.30	339.56
435.68	343.26
436.05	347.03
436.42	350.57
436.79	353.72
437.16	357.20
437.53	360.90
437.90	364.44
438.27	368.10
438.64	371.70
439.01	375.20
439.38	378.14
439.75	380.97
440.13	384.26
440.50	387.26
440.87	389.95
441.24	392.48
441.61	395.54
441.98	397.47
442.35	399.73
442.72	402.35
443.09	405.04
443.46	406.60
443.83	407.45
444.20	408.27
444.57	409.53
444.94	410.10
445.31	410.74
445.68	411.57
446.05	411.92
446.42	411.83
446.79	411.59
447.16	411.45
447.53	411.55
447.90	410.33
448.27	409.11
448.64	407.46
449.01	406.44
449.37	404.20
449.74	402.27
450.11	399.98
450.48	397.10
450.85	394.09
451.22	391.68
451.59	389.40
451.96	387.23
452.33	384.28
452.70	381.66
453.07	378.45
453.43	374.98
453.80	371.75
454.17	368.51
454.54	365.41
454.91	362.00
455.28	358.53
455.65	355.63
456.02	353.00
456.38	350.32
456.75	346.99
457.12	344.26
457.49	341.39
457.86	338.59
458.23	336.45
458.59	333.87
458.96	331.20
459.33	328.99
459.70	326.76
460.07	324.91
460.43	322.68
460.80	320.64
461.17	318.84
461.54	316.82
461.91	315.02
462.27	313.05
462.64	311.56
463.01	309.93
463.38	308.21
463.74	306.11
464.11	304.52
464.48	303.25
464.85	301.78
465.21	300.69
465.58	299.50
465.95	297.95
466.32	296.92
466.68	295.60
467.05	294.34
467.42	293.06
467.78	291.77
468.15	290.56
468.52	289.54
468.88	288.30
469.25	287.24
469.62	286.20
469.98	285.28
470.35	284.26
470.72	283.37
471.08	282.30
471.45	281.60
471.82	280.84
472.18	279.83
472.55	279.14
472.92	278.33
473.28	277.51
473.65	276.71
474.02	275.92
474.38	275.36
474.75	274.84
475.11	274.06
475.48	273.51
475.85	272.92
476.21	272.37
476.58	271.82
476.94	271.40
477.31	271.07
477.67	270.66
478.04	270.27
478.41	269.95
478.77	269.94
479.14	269.56
479.50	269.27
479.87	269.06
480.23	268.83
480.60	268.51
480.96	268.33
481.33	268.28
481.69	268.02
482.06	267.93
482.42	267.66
482.79	267.69
483.15	267.57
483.52	267.57
483.88	267.48
484.25	267.50
484.61	267.41
484.98	267.33
485.34	267.38
485.71	267.40
486.07	267.34
486.44	267.13
486.80	267.09
487.17	267.10
487.53	267.33
487.90	267.28
488.26	267.51
488.62	267.60
488.99	267.65
489.35	267.80
489.72	267.81
490.08	267.95
490.44	268.08
490.81	268.30
491.17	268.45
491.54	268.80
491.90	268.97
492.26	269.19
492.63	269.36
492.99	269.57
493.36	269.80
493.72	270.04
494.08	270.35
494.45	270.62
494.81	271.02
495.17	271.14
495.54	271.50
495.90	271.80
496.26	272.08
496.63	272.51
496.99	272.93
497.35	273.25
497.72	273.65
498.08	274.08
498.44	274.36
498.80	274.75
499.17	275.02
499.53	275.42
499.89	275.79
500.26	276.25
500.62	276.65
500.98	277.14
501.34	277.74
501.71	278.20
502.07	278.74
502.43	279.06
502.79	279.49
503.16	280.03
503.52	280.52
503.88	281.10
504.24	281.69
504.60	282.27
504.97	282.91
505.33	283.60
505.69	284.28
506.05	285.03
506.41	285.77
506.78	286.44
507.14	287.26
507.50	288.22
507.86	289.10
508.22	290.00
508.59	290.83
508.95	291.65
509.31	292.79
509.67	293.85
510.03	294.96
510.39	296.18
510.75	297.30
511.12	298.55
511.48	299.58
511.84	300.81
512.20	301.89
512.56	303.34
512.92	304.67
513.28	306.00
513.64	307.49
514.00	309.05
514.37	310.75
514.73	312.58
515.09	314.31
515.45	316.09
515.81	317.94
516.17	320.06
516.53	322.15
516.89	324.11
517.25	326.37
517.61	328.75
517.97	331.10
518.33	333.68
518.69	336.20
519.05	339.16
519.41	341.90
519.77	344.96
520.13	347.95
520.49	350.83
520.85	354.00
521.21	357.40
521.57	360.72
521.93	364.04
522.29	367.50
522.65	371.03
523.01	374.77
523.37	378.60
523.73	382.34
524.09	386.15
524.45	390.16
524.81	394.17
525.17	398.30
525.53	402.67
525.89	406.98
526.25	411.27
526.61	415.70
526.97	420.20
527.33	424.80
527.68	429.51
528.04	434.60
528.40	439.58
528.76	444.51
529.12	449.61
529.48	454.94
529.84	459.90
530.20	465.28
530.56	470.73
530.91	476.36
531.27	482.02
531.63	487.61
531.99	493.21
532.35	498.91
532.71	504.77
533.07	510.77
533.42	516.75
533.78	522.75
534.14	528.93
534.50	535.00
534.86	541.24
535.21	547.27
535.57	553.81
535.93	560.18
536.29	566.68
536.65	573.17
537.00	579.54
537.36	586.23
537.72	592.67
538.08	599.11
538.44	605.50
538.79	612.02
539.15	618.65
539.51	625.69
539.87	632.80
540.22	639.63
540.58	646.27
540.94	653.07
541.29	660.08
541.65	666.73
542.01	673.70
542.37	680.84
542.72	687.78
543.08	694.49
543.44	701.48
543.79	708.00
544.15	714.89
544.51	721.91
544.87	728.98
545.22	735.82
545.58	742.72
545.94	749.33
546.29	756.20
546.65	763.12
547.01	769.84
547.36	776.21
547.72	782.65
548.07	789.44
548.43	795.89
548.79	802.33
549.14	808.66
549.50	815.23
549.86	821.45
550.21	827.81
550.57	834.21
550.92	840.29
551.28	846.68
551.64	852.77
551.99	858.98
552.35	864.87
552.70	871.19
553.06	877.52
553.41	883.67
553.77	889.50
554.13	895.34
554.48	901.15
554.84	907.17
555.19	913.26
555.55	919.06
555.90	924.66
556.26	930.33
556.61	936.36
556.97	941.54
557.32	947.08
557.68	952.57
558.03	958.06
558.39	963.63
558.74	969.03
559.10	974.11
559.45	979.50
559.81	984.92
560.16	989.91
560.52	994.97
560.87	1000.36
561.23	1005.19
561.58	1010.36
561.94	1015.11
562.29	1019.55
562.64	1023.80
563.00	1028.21
563.35	1033.33
563.71	1038.23
564.06	1042.87
564.42	1047.62
564.77	1051.85
565.12	1056.56
565.48	1060.87
565.83	1064.94
566.19	1069.37
566.54	1073.76
566.89	1077.75
567.25	1081.78
567.60	1086.02
567.96	1089.58
568.31	1093.03
568.66	1096.86
569.02	1100.01
569.37	1103.43
569.72	1106.86
570.08	1110.36
570.43	1113.80
570.78	1116.47
571.14	1118.97
571.49	1121.36
571.84	1124.62
572.20	1127.44
572.55	1129.70
572.90	1132.03
573.26	1134.78
573.61	1136.70
573.96	1139.00
574.31	1140.55
574.67	1141.65
575.02	1143.02
575.37	1144.74
575.72	1146.00
576.08	1147.43
576.43	1149.10
576.78	1150.51
577.13	1152.16
577.49	1153.64
577.84	1154.48
578.19	1155.31
578.54	1156.07
578.90	1156.94
579.25	1156.90
579.60	1157.09
579.95	1157.27
580.30	1157.33
580.66	1157.02
581.01	1157.20
581.36	1156.89
581.71	1157.18
582.06	1157.63
582.42	1157.21
582.77	1157.17
583.12	1157.01
583.47	1156.98
583.82	1156.91
584.17	1156.07
584.53	1155.63
584.88	1155.00
585.23	1154.60
585.58	1154.30
585.93	1153.94
586.28	1153.75
586.63	1153.38
586.98	1153.20
587.34	1152.81
587.69	1152.22
588.04	1151.55
588.39	1151.03
588.74	1150.06
589.09	1148.91
589.44	1147.59
589.79	1147.03
590.14	1145.95
590.49	1144.97
590.84	1143.38
591.19	1141.98
591.54	1140.73
591.89	1138.50
592.25	1137.02
592.60	1135.32
592.95	1133.32
593.30	1131.26
593.65	1129.13
594.00	1127.30
594.35	1125.54
594.70	1123.04
595.05	1121.12
595.40	1119.19
595.75	1116.70
596.10	1114.99
596.45	1113.01
596.80	1111.60
597.15	1109.42
597.50	1107.47
597.85	1105.62
598.19	1103.95
598.54	1102.24
598.89	1100.34
599.24	1098.80
599.59	1096.74
599.94	1094.56
600.29	1092.62
600.64	1090.48
600.99	1088.05
601.34	1085.56
601.69	1083.10
602.04	1081.20
602.39	1078.89
602.74	1076.88
603.08	1075.14
603.43	1073.28
603.78	1070.94
604.13	1068.30
604.48	1065.80
604.83	1063.05
605.18	1060.35
605.53	1057.25
605.87	1053.61
606.22	1051.11
606.57	1048.35
606.92	1045.32
607.27	1042.86
607.62	1040.34
607.96	1037.98
608.31	1035.36
608.66	1032.67
609.01	1029.59
609.36	1026.33
609.70	1022.62
610.05	1018.84
610.40	1015.25
610.75	1011.24
611.10	1007.97
611.44	1004.13
611.79	1000.90
612.14	997.53
612.49	993.52
612.83	989.97
613.18	986.73
613.53	982.89
613.88	978.83
614.22	975.23
614.57	971.12
614.92	967.17
615.27	963.56
615.61	959.70
615.96	955.74
616.31	952.27
616.65	949.00
617.00	946.04
617.35	942.75
617.70	938.91
618.04	935.02
618.39	931.16
618.74	928.09
619.08	924.31
619.43	920.52
619.78	917.32
620.12	913.79
620.47	910.36
620.82	906.44
621.16	903.21
621.51	899.64
621.85	896.06
622.20	892.41
622.55	888.80
622.89	885.50
623.24	882.30
623.59	878.58
623.93	875.40
624.28	871.84
624.62	868.36
624.97	865.19
625.32	862.26
625.66	859.26
626.01	855.56
626.35	851.97
626.70	848.51
627.04	845.19
627.39	841.80
627.73	837.92
628.08	834.69
628.43	831.06
628.77	827.67
629.12	824.08
629.46	820.32
629.81	816.46
630.15	812.39
630.50	808.78
630.84	804.77
631.19	800.52
631.53	796.55
631.88	792.59
632.22	788.28
632.57	784.39
632.91	780.24
633.26	776.31
633.60	772.42
633.95	768.74
634.29	764.89
634.64	761.29
634.98	757.94
635.32	754.54
635.67	751.36
636.01	747.77
636.36	744.36
636.70	741.13
637.05	737.56
637.39	734.36
637.73	730.73
638.08	727.85
638.42	724.89
638.77	721.61
639.11	718.23
639.45	714.99
639.80	711.62
640.14	708.36
640.49	705.09
640.83	701.83
641.17	698.71
641.52	695.36
641.86	692.14
642.20	688.87
642.55	685.48
642.89	682.06
643.23	678.43
643.58	675.31
643.92	672.06
644.26	668.87
644.61	665.57
644.95	662.33
645.29	658.50
645.64	654.87
645.98	651.52
646.32	648.27
646.66	645.03
647.01	641.53
647.35	638.28
647.69	635.18
648.04	632.18
648.38	628.70
648.72	625.36
649.06	621.88
649.41	618.52
649.75	614.90
650.09	611.33
650.43	608.12
650.78	604.35
651.12	600.89
651.46	597.68
651.80	594.43
652.14	591.23
652.49	588.27
652.83	585.14
653.17	581.83
653.51	578.52
653.85	575.66
654.20	572.56
654.54	569.24
654.88	565.85
655.22	562.39
655.56	559.18
655.90	556.13
656.25	553.00
656.59	549.73
656.93	546.83
657.27	543.94
657.61	540.95
657.95	538.20
658.29	535.39
658.64	532.42
658.98	529.54
659.32	526.59
659.66	523.59
660.00	520.51
660.34	517.76
660.68	515.20
661.02	512.19
661.36	509.64
661.70	507.09
662.05	504.73
662.39	502.21
662.73	499.50
663.07	497.17
663.41	494.66
663.75	492.44
664.09	489.97
664.43	487.58
664.77	485.29
665.11	483.00
665.45	480.66
665.79	478.31
666.13	475.88
666.47	473.47
666.81	471.29
667.15	469.00
667.49	466.86
667.83	464.64
668.17	462.36
668.51	459.87
668.85	457.43
669.19	455.19
669.53	453.12
669.87	450.90
670.21	448.71
670.55	446.50
670.89	444.40
671.23	442.54
671.57	440.42
671.91	438.40
672.25	436.30
672.58	434.24
672.92	432.23
673.26	430.38
673.60	428.65
673.94	426.61
674.28	424.87
674.62	423.02
674.96	421.10
675.30	419.58
675.64	417.93
675.97	416.31
676.31	414.51
676.65	412.72
676.99	411.25
677.33	409.36
677.67	407.80
678.01	405.90
678.34	404.13
678.68	402.56
679.02	400.83
679.36	399.33
679.70	397.80
680.04	396.11
680.37	394.41
680.71	392.70
681.05	391.38
681.39	389.88
681.73	388.39
682.06	386.90
682.40	385.12
682.74	383.63
683.08	382.20
683.42	380.63
683.75	379.18
684.09	377.57
684.43	376.10
684.77	374.63
685.10	373.35
685.44	371.83
685.78	370.38
686.12	368.91
686.45	367.30
686.79	365.75
687.13	364.49
687.46	363.16
687.80	361.80
688.14	360.22
688.48	358.88
688.81	357.34
689.15	356.00
689.49	354.86
689.82	353.49
690.16	351.97
690.50	350.63
690.83	349.17
691.17	347.87
691.51	346.50
691.84	345.25
692.18	343.81
692.52	342.53
692.85	341.28
693.19	340.10
693.52	338.87
693.86	337.62
694.20	336.37
694.53	335.03
694.87	333.60
695.21	332.31
695.54	331.06
695.88	329.80
696.21	328.57
696.55	327.35
696.88	326.20
697.22	325.11
697.56	324.01
697.89	322.97
698.23	321.89
698.56	320.76
698.90	319.72
699.23	318.66
699.57	317.59
699.90	316.37
700.24	315.19
700.58	314.15
700.91	313.21
701.25	312.28
701.58	311.44
701.92	310.65
702.25	309.82
702.59	308.80
702.92	308.06
703.26	307.19
703.59	306.33
703.93	305.60
704.26	304.74
704.60	303.94
704.93	303.13
705.26	302.28
705.60	301.60
705.93	300.72
706.27	300.15
706.60	299.49
706.94	298.82
707.27	298.09
707.61	297.39
707.94	296.68
708.27	295.92
708.61	295.09
708.94	294.40
709.28	293.72
709.61	293.13
709.94	292.45
710.28	291.72
710.61	290.94
710.95	290.17
711.28	289.66
711.61	288.83
711.95	288.15
712.28	287.45
712.61	286.72
712.95	286.13
713.28	285.47
713.61	284.79
713.95	284.22
714.28	283.65
714.61	282.98
714.95	282.45
715.28	281.85
715.61	281.35
715.95	280.77
716.28	280.21
716.61	279.74
716.95	279.09
717.28	278.62
717.61	278.18
717.94	277.61
718.28	276.94
718.61	276.54
718.94	275.96
719.27	275.50
719.61	275.08
719.94	274.63
720.27	274.00
720.60	273.54
720.94	272.93
721.27	272.63
721.60	272.27
721.93	271.82
722.27	271.37
722.60	270.85
722.93	270.33
723.26	269.94
723.59	269.31
723.93	269.03
724.26	268.54
724.59	268.01
724.92	267.70
725.25	267.34
725.59	266.98
725.92	266.65
726.25	266.19
726.58	265.67
726.91	265.26
727.24	264.89
727.57	264.45
727.91	264.13
728.24	263.56
728.57	263.10
728.90	262.61
729.23	262.22
729.56	261.94
729.89	261.49
730.22	260.97
730.55	260.70
730.89	260.22
731.22	259.81
731.55	259.45
731.88	258.98
732.21	258.65
732.54	258.22
732.87	257.91
733.20	257.68
733.53	257.43
733.86	257.09
734.19	256.64
734.52	256.45
734.85	256.28
735.18	256.04
735.51	255.86
735.84	255.49
736.17	255.11
736.50	254.64
736.83	254.61
737.16	254.31
737.49	254.00
737.82	253.71
738.15	253.46
738.48	253.20
738.81	252.97
739.14	252.64
739.47	252.40
739.80	252.11
740.13	251.87
740.46	251.55
740.79	251.26
741.12	251.03
741.45	250.77
741.78	250.32
742.11	250.03
742.44	249.70
742.77	249.51
743.10	249.34
743.43	249.14
743.75	248.66
744.08	248.75
744.41	248.51
744.74	248.18
745.07	248.07
745.40	247.82
745.73	247.65
746.06	247.31
746.39	247.09
746.71	246.86
747.04	246.63
747.37	246.51
747.70	246.32
748.03	246.33
748.36	246.03
748.68	245.87
749.01	245.68
749.34	245.54
749.67	245.31
750.00	245.13
750.33	245.13
750.65	245.00
750.98	244.64
751.31	244.50
751.64	244.49
751.97	244.33
752.29	244.19
752.62	243.95
752.95	243.85
753.28	243.75
753.60	243.64
753.93	243.57
754.26	243.42
754.59	243.26
754.91	242.95
755.24	242.87
755.57	242.66
755.90	242.59
756.22	242.47
756.55	242.40
756.88	242.29
757.20	242.01
757.53	241.93
757.86	241.80
758.19	241.65
758.51	241.50
758.84	241.27
759.17	241.20
759.49	241.09
759.82	241.11
760.15	241.01
760.47	240.79
760.80	240.63
761.13	240.50
761.45	240.42
761.78	240.29
762.11	240.08
762.43	240.05
762.76	239.87
763.08	239.70
763.41	239.65
763.74	239.47
764.06	239.38
764.39	239.17
764.71	239.02
765.04	238.98
765.37	238.82
765.69	238.67
766.02	238.54
766.34	238.38
766.67	238.21
767.00	238.13
767.32	238.11
767.65	238.00
767.97	237.89
768.30	237.70
768.62	237.57
768.95	237.43
769.27	237.28
769.60	237.24
769.92	237.06
770.25	236.84
770.57	236.72
770.90	236.54
771.22	236.45
771.55	236.29
771.87	236.10
772.20	235.97
772.52	236.09
772.85	236.15
773.17	236.07
773.50	235.85
773.82	235.61
774.15	235.45
774.47	235.22
774.80	235.03
775.12	234.93
775.45	234.88
775.77	234.90
776.09	234.85
776.42	234.70
776.74	234.68
777.07	234.61
777.39	234.47
777.72	234.34
778.04	234.30
778.36	234.23
778.69	234.17
779.01	234.08
779.33	233.79
779.66	233.48
779.98	233.44
780.31	233.35
780.63	233.39
780.95	233.36
781.28	233.25
781.60	233.20
781.92	233.20
782.25	233.10
782.57	232.91
782.89	232.79
783.22	232.75
783.54	232.66
783.86	232.60
784.19	232.55
784.51	232.67
784.83	232.49
785.16	232.40
785.48	232.33
785.80	232.25
786.12	232.22
786.45	232.18
786.77	232.11
787.09	232.12
787.42	232.13
787.74	232.05
788.06	232.10
788.38	232.01
788.71	232.01
789.03	232.03
789.35	232.15
789.67	232.10
789.99	232.03
790.32	231.96
790.64	231.92
790.96	232.06
791.28	232.00
791.61	232.08
791.93	232.07
792.25	232.10
792.57	232.26
792.89	232.20
793.21	232.24
793.54	232.26
793.86	232.29
794.18	232.23
794.50	232.22
794.82	232.17
795.14	232.28
795.47	232.19
795.79	232.16
796.11	232.09
796.43	232.19
796.75	232.29
797.07	232.30
797.39	232.34
797.71	232.21
798.04	232.08
798.36	232.06
798.68	232.06
799.00	232.06
799.32	232.02
799.64	232.04
799.96	231.98
800.28	231.96
800.60	231.98
800.92	231.98
801.24	231.95
801.56	232.06
801.89	231.99
802.21	232.08
802.53	232.04
802.85	232.09
803.17	231.99
803.49	231.87
803.81	231.87
804.13	231.77
804.45	231.75
804.77	231.81
805.09	231.85
805.41	231.93
805.73	231.89
806.05	231.82
806.37	231.87
806.69	231.91
807.01	231.90
807.33	231.91
807.65	231.78
807.97	231.86
808.28	231.74
808.60	231.72
808.92	231.55
809.24	231.65
809.56	231.68
809.88	231.61
810.20	231.57
810.52	231.55
810.84	231.52
811.16	231.38
811.48	231.37
811.80	231.35
812.12	231.21
812.43	231.16
812.75	230.98
813.07	230.84
813.39	230.72
813.71	230.62
814.03	230.47
814.35	230.54
814.67	230.41
814.98	230.32
815.30	230.27
815.62	230.26
815.94	230.05
816.26	230.03
816.58	229.95
816.89	229.92
817.21	229.85
817.53	229.81
817.85	229.85
818.17	229.77
818.48	229.66
818.80	229.62
819.12	229.57
819.44	229.65
819.76	229.58
820.07	229.48
820.39	229.43
820.71	229.30
821.03	229.15
821.34	229.03
821.66	229.04
821.98	229.03
822.30	228.91
822.61	229.07
822.93	228.87
823.25	228.84
823.57	228.90
823.88	228.86
824.20	228.78
824.52	228.69
824.83	228.59
825.15	228.55
825.47	228.56
825.79	228.55
826.10	228.45
826.42	228.38
826.74	228.49
827.05	228.40
827.37	228.45
827.69	228.48
828.00	228.54
828.32	228.57
828.64	228.53
828.95	228.66
829.27	228.46
829.58	228.42
829.90	228.47
830.22	228.30
830.53	228.30
830.85	228.32
831.17	228.34
831.48	228.41
831.80	228.41
832.11	228.32
832.43	228.22
832.75	228.31
833.06	228.51
833.38	228.44
833.69	228.46
834.01	228.56
834.32	228.50
834.64	228.56
834.96	228.55
835.27	228.54
835.59	228.57
835.90	228.68
836.22	228.73
836.53	228.71
836.85	228.73
837.16	228.92
837.48	228.85
837.79	228.95
838.11	229.00
838.42	228.95
838.74	229.09
839.05	229.16
839.37	229.11
839.68	229.01
840.00	229.06
840.31	229.14
840.63	229.14
840.94	229.21
841.26	229.12
841.57	229.11
841.88	229.26
842.20	229.15
842.51	229.10
842.83	229.21
843.14	229.46
843.46	229.59
843.77	229.53
844.08	229.62
844.40	229.57
844.71	229.56
845.03	229.71
845.34	229.69
845.65	229.64
845.97	229.71
846.28	229.71
846.60	229.66
846.91	229.63
847.22	229.66
847.54	229.64
847.85	229.63
848.16	229.59
848.48	229.49
848.79	229.60
849.10	229.63
849.42	229.53
849.73	229.23
850.04	229.13
850.36	229.03
850.67	229.08
850.98	229.07
851.30	229.13
851.61	229.02
851.92	229.04
852.23	229.09
852.55	229.00
852.86	229.07
853.17	229.11
853.49	229.17
853.80	229.08
854.11	229.09
854.42	229.19
854.74	229.12
855.05	229.14
855.36	228.99
855.67	228.96
855.99	228.86
856.30	229.13
856.61	229.11
856.92	229.02
857.23	229.01
857.55	228.93
857.86	228.82
858.17	228.80
858.48	228.74
858.79	228.69
859.11	228.76
859.42	228.66
859.73	228.67
860.04	228.56
860.35	228.55
860.66	228.44
860.98	228.32
861.29	228.40
861.60	228.27
861.91	228.34
862.22	228.26
862.53	228.30
862.84	228.06
863.16	228.02
863.47	227.99
863.78	227.94
864.09	227.96
864.40	227.92
864.71	227.92
865.02	227.87
865.33	227.89
865.64	227.75
865.95	227.76
866.27	227.80
866.58	227.73
866.89	227.76
867.20	227.80
867.51	227.75
867.82	227.61
868.13	227.78
868.44	227.78
868.75	227.81
869.06	227.82
869.37	227.85
869.68	227.85
869.99	227.97
870.30	228.00
870.61	228.03
870.92	228.03
871.23	228.03
871.54	228.11
871.85	228.09
872.16	228.16
872.47	228.15
872.78	228.07
873.09	228.14
873.40	228.06
873.71	228.04
874.02	228.10
874.33	228.15
874.64	228.03
874.95	228.04
875.26	228.03
875.56	228.01
875.87	228.00
876.18	228.07
876.49	228.24
876.80	228.25
877.11	228.24
877.42	228.31
877.73	228.35
878.04	228.24
878.35	228.18
878.66	228.22
878.96	228.19
879.27	228.20
879.58	228.37
879.89	228.45
880.20	228.61
880.51	228.63
880.82	228.81
881.12	228.82
881.43	228.69
881.74	228.66
882.05	228.63
882.36	228.70
882.67	228.67
882.97	228.50
883.28	228.42
883.59	228.45
883.90	228.48
884.21	228.45
884.51	228.50
884.82	228.60
885.13	228.66
885.44	228.72
885.74	228.68
886.05	228.54
886.36	228.55
886.67	228.41
886.98	228.53
887.28	228.35
887.59	228.40
887.90	228.50
888.20	228.60
888.51	228.80
888.82	228.74
889.13	228.76
889.43	228.86
889.74	228.94
890.05	228.92
890.35	228.89
890.66	228.91
890.97	228.91
891.28	228.90
891.58	228.87
891.89	228.70
892.20	228.63
892.50	228.62
892.81	228.58
893.12	228.59
893.42	228.48
893.73	228.50
894.04	228.47
894.34	228.39
894.65	228.30
894.95	228.19
895.26	228.13
895.57	228.29
895.87	228.06
896.18	228.09
896.48	228.06
896.79	228.01
897.10	227.98
897.40	227.93
897.71	227.96
898.01	227.99
898.32	228.06
898.63	228.18
898.93	228.17
899.24	228.23
899.54	228.14
899.85	228.11
900.15	228.19
900.46	228.25
900.76	228.38
901.07	228.41
901.38	228.44
901.68	228.50
901.99	228.33
902.29	228.37
902.60	228.38
902.90	228.37
903.21	228.46
903.51	228.46
903.82	228.56
904.12	228.47
904.43	228.40
904.73	228.58
905.03	228.54
905.34	228.75
905.64	228.67
905.95	228.73
906.25	228.71
906.56	228.72
906.86	228.71
907.17	228.64
907.47	228.68
907.77	228.55
908.08	228.54
908.38	228.56
908.69	228.64
908.99	228.54
909.30	228.60
909.60	228.54
909.90	228.64
910.21	228.52
910.51	228.53
910.81	228.50
911.12	228.44
911.42	228.53
911.73	228.27
912.03	228.28
912.33	228.40
912.64	228.39
912.94	228.29
913.24	228.23
913.55	228.23
913.85	228.26
914.15	228.39
914.46	228.41
914.76	228.47
915.06	228.48
915.37	228.55
915.67	228.47
915.97	228.48
916.27	228.32
916.58	228.41
916.88	228.38
917.18	228.45
917.49	228.56
917.79	228.44
918.09	228.50
918.39	228.52
918.70	228.48
919.00	228.52
919.30	228.62
919.60	228.63
919.91	228.53
920.21	228.55
920.51	228.48
920.81	228.46
921.12	228.49
921.42	228.40
921.72	228.40
922.02	228.38
922.32	228.39
922.63	228.50
922.93	228.60
923.23	228.74
923.53	228.76
923.83	228.65
924.13	228.75
924.44	228.77
924.74	228.76
925.04	228.87
925.34	228.96
925.64	229.03
925.94	228.98
926.24	229.21
926.55	229.20
926.85	229.32
927.15	229.24
927.45	229.17
927.75	229.21
928.05	229.24
928.35	229.27
928.65	229.43
928.95	229.48
929.26	229.40
929.56	229.40
929.86	229.44
930.16	229.40
930.46	229.31
930.76	229.22
931.06	229.18
931.36	228.97
931.66	228.95
931.96	228.87
932.26	228.98
932.56	228.79
932.86	228.78
933.16	228.69
933.46	228.79
933.76	228.85
934.06	228.82
934.36	228.87
934.66	228.86
934.96	228.60
935.26	228.64
935.56	228.70
935.86	228.52
936.16	228.43
936.46	228.41
936.76	228.42
937.06	228.49
937.36	228.63
937.66	228.65
937.96	228.61
938.26	228.53
938.56	228.40
938.86	228.47
939.16	228.42
939.46	228.43
939.76	228.37
940.06	228.26
940.35	228.23
940.65	228.04
940.95	228.00
941.25	228.00
941.55	227.84
941.85	227.73
942.15	227.74
942.45	227.68
942.75	227.63
943.04	227.60
943.34	227.56
943.64	227.39
943.94	227.39
944.24	227.32
944.54	227.33
944.84	227.30
945.13	227.17
945.43	227.19
945.73	227.10
946.03	227.07
946.33	227.03
946.62	226.99
946.92	227.02
947.22	227.07
947.52	227.13
947.82	227.14
948.11	227.15
948.41	227.18
948.71	227.10
949.01	227.14
949.31	227.17
949.60	227.19
949.90	227.18
950.20	227.19
950.50	227.22
950.79	227.14
951.09	227.13
951.39	227.20
951.69	227.18
951.98	227.38
952.28	227.46
952.58	227.45
952.87	227.46
953.17	227.48
953.47	227.49
953.76	227.40
954.06	227.40
954.36	227.47
954.66	227.53
954.95	227.68
955.25	227.76
955.55	227.74
955.84	227.75
956.14	227.87
956.44	227.81
956.73	227.85
957.03	227.95
957.32	228.08
957.62	228.16
957.92	228.19
958.21	228.13
958.51	228.36
958.81	228.47
959.10	228.62
959.40	228.69
959.69	228.73
959.99	228.87
960.29	228.91
960.58	228.90
960.88	228.97
961.17	228.94
961.47	228.89
961.76	228.93
962.06	229.00
962.36	229.02
962.65	229.16
962.95	229.14
963.24	229.29
963.54	229.28
963.83	229.38
964.13	229.34
964.42	229.39
964.72	229.24
965.01	229.34
965.31	229.28
965.60	229.26
965.90	229.42
966.19	229.38
966.49	229.48
966.78	229.49
967.08	229.45
967.37	229.54
967.67	229.58
967.96	229.63
968.26	229.59
968.55	229.62
968.85	229.50
969.14	229.52
969.43	229.39
969.73	229.36
970.02	229.22
970.32	229.20
970.61	229.10
970.91	228.99
971.20	228.88
971.49	228.80
971.79	228.85
972.08	228.66
972.38	228.69
972.67	228.57
972.96	228.57
973.26	228.48
973.55	228.37
973.85	228.35
974.14	228.26
974.43	228.37
974.73	228.23
975.02	228.26
975.31	228.22
975.61	228.31
975.90	228.30
976.19	228.26
976.49	228.21
976.78	228.14
977.07	228.17
977.37	228.17
977.66	228.27
977.95	228.19
978.24	228.16
978.54	228.08
978.83	228.10
979.12	227.97
979.42	227.99
979.71	227.96
980.00	227.88
980.29	227.88
980.59	227.69
980.88	227.70
981.17	227.68
981.46	227.60
981.76	227.54
982.05	227.57
982.34	227.47
982.63	227.46
982.93	227.43
983.22	227.37
983.51	227.24
983.80	227.18
984.09	227.23
984.39	227.19
984.68	227.10
984.97	227.11
985.26	227.08
985.55	227.03
985.85	226.98
986.14	227.00
986.43	227.04
986.72	227.01
987.01	227.04
987.30	227.00
987.59	227.04
987.89	227.01
988.18	226.90
988.47	227.03
988.76	227.02
989.05	227.09
989.34	227.13
989.63	227.31
989.92	227.34
990.22	227.22
990.51	227.27
990.80	227.33
991.09	227.35
991.38	227.37
991.67	227.46
991.96	227.54
992.25	227.59
992.54	227.52
992.83	227.60
993.12	227.63
993.41	227.77
993.70	227.87
993.99	227.87
994.28	227.94
994.58	228.00
994.87	228.00
995.16	227.95
995.45	227.93
995.74	227.80
996.03	227.78
996.32	227.95
996.61	227.92
996.90	228.02
997.19	228.09
997.48	228.25
997.77	228.25
998.06	228.33
998.34	228.44
998.63	228.58
998.92	228.70
999.21	228.72
999.50	228.76
999.79	228.74
1000.08	228.76
1000.37	228.86
1000.66	228.82
1000.95	228.95
1001.24	229.11
1001.53	229.18
1001.82	229.32
1002.11	229.46
1002.40	229.54
1002.68	229.73
1002.97	229.92
1003.26	229.80
1003.55	229.73
1003.84	229.70
1004.13	229.68
1004.42	229.63
1004.71	229.61
1004.99	229.49
1005.28	229.58
1005.57	229.54
1005.86	229.51
1006.15	229.58
1006.44	229.51
1006.72	229.58
1007.01	229.58
1007.30	229.55
1007.59	229.52
1007.88	229.54
1008.17	229.44
1008.45	229.30
1008.74	229.22
1009.03	229.03
1009.32	229.09
1009.60	229.10
1009.89	229.15
1010.18	229.13
1010.47	229.06
1010.76	229.05
1011.04	229.11
1011.33	229.07
1011.62	229.05
1011.91	229.02
1012.19	228.96
1012.48	228.94
1012.77	228.76
1013.05	228.88
1013.34	228.87
1013.63	228.89
1013.92	228.65
1014.20	228.62
1014.49	228.67
1014.78	228.60
1015.06	228.55
1015.35	228.50
1015.64	228.48
1015.92	228.44
1016.21	228.42
1016.50	228.35
1016.78	228.31
1017.07	228.28
1017.36	228.23
1017.64	228.26
1017.93	228.26
1018.22	228.30
1018.50	228.38
1018.79	228.40
1019.08	228.23
1019.36	228.29
1019.65	228.20
1019.93	228.32
1020.22	228.32
1020.51	228.34
1020.79	228.36
1021.08	228.90
1021.36	229.40
1021.65	226.90
1021.94	228.70
1022.22	230.20
1022.51	226.90
1022.79	228.30
1023.08	228.20
1023.36	230.10
1023.65	228.00
>>>>>End Processed Spectral Data<<<<<
