SpectraSuite Data File
++++++++++++++++++++++++++++++++++++
Date: Fri Feb 01 14:35:26 EST 2013
User: group
Dark Spectrum Present: No
Reference Spectrum Present: No
Number of Sampled Component Spectra: 1
Spectrometers: USB2E7196
Integration Time (usec): 70000 (USB2E7196)
Spectra Averaged: 10 (USB2E7196)
Boxcar Smoothing: 10 (USB2E7196)
Correct for Electrical Dark: No (USB2E7196)
Strobe/Lamp Enabled: No (USB2E7196)
Correct for Detector Non-linearity: No (USB2E7196)
Correct for Stray Light: No (USB2E7196)
Number of Pixels in Processed Spectrum: 2048
>>>>>Begin Processed Spectral Data<<<<<
339.09	0.00
339.48	219.10
339.86	218.50
340.24	220.20
340.63	220.80
341.01	226.50
341.39	224.50
341.78	226.80
342.16	227.30
342.54	224.30
342.93	215.37
343.31	226.28
343.69	226.69
344.07	227.10
344.46	227.49
344.84	227.87
345.22	227.97
345.60	228.12
345.99	228.15
346.37	228.21
346.75	228.45
347.13	228.47
347.52	228.56
347.90	228.61
348.28	228.56
348.66	228.57
349.05	228.48
349.43	228.61
349.81	228.63
350.19	228.63
350.57	228.73
350.96	228.88
351.34	228.98
351.72	229.07
352.10	229.23
352.48	229.35
352.87	229.38
353.25	229.46
353.63	229.56
354.01	229.69
354.39	229.72
354.77	229.75
355.15	229.98
355.54	230.09
355.92	230.08
356.30	230.09
356.68	230.25
357.06	230.35
357.44	230.27
357.82	230.35
358.20	230.33
358.58	230.39
358.97	230.35
359.35	230.33
359.73	230.41
360.11	230.36
360.49	230.26
360.87	230.24
361.25	230.36
361.63	230.46
362.01	230.49
362.39	230.73
362.77	230.81
363.15	230.81
363.53	230.78
363.91	230.79
364.29	230.86
364.67	230.62
365.05	230.56
365.43	230.61
365.81	230.62
366.19	230.80
366.57	230.79
366.95	230.77
367.33	230.75
367.71	230.77
368.09	230.76
368.47	230.85
368.85	230.96
369.23	230.82
369.61	230.73
369.99	230.74
370.37	230.56
370.75	230.58
371.13	230.43
371.51	230.38
371.89	230.37
372.27	230.32
372.65	230.22
373.03	230.30
373.41	230.30
373.78	230.18
374.16	229.99
374.54	229.92
374.92	229.90
375.30	229.81
375.68	229.66
376.06	229.54
376.44	229.43
376.82	229.39
377.19	229.28
377.57	229.18
377.95	229.06
378.33	228.97
378.71	228.67
379.09	228.64
379.47	228.56
379.84	228.48
380.22	228.41
380.60	228.31
380.98	228.13
381.36	228.03
381.73	228.04
382.11	228.04
382.49	227.95
382.87	227.77
383.25	227.71
383.62	227.96
384.00	227.89
384.38	227.89
384.76	227.75
385.13	227.76
385.51	227.68
385.89	227.61
386.27	227.59
386.64	227.63
387.02	227.59
387.40	227.53
387.78	227.54
388.15	227.55
388.53	227.65
388.91	227.64
389.29	227.51
389.66	227.42
390.04	227.38
390.42	227.46
390.79	227.50
391.17	227.52
391.55	227.17
391.92	227.17
392.30	227.16
392.68	227.16
393.05	227.23
393.43	227.24
393.81	227.24
394.18	227.14
394.56	227.24
394.94	227.38
395.31	227.42
395.69	227.37
396.06	227.37
396.44	227.36
396.82	227.47
397.19	227.70
397.57	227.78
397.95	227.88
398.32	227.85
398.70	227.98
399.07	228.07
399.45	228.22
399.82	228.43
400.20	228.53
400.58	228.65
400.95	228.62
401.33	228.82
401.70	229.13
402.08	229.40
402.45	229.48
402.83	229.61
403.20	229.84
403.58	230.20
403.95	230.45
404.33	230.71
404.71	230.93
405.08	231.22
405.46	231.53
405.83	231.86
406.21	232.21
406.58	232.62
406.96	232.94
407.33	233.40
407.70	233.80
408.08	234.34
408.45	234.77
408.83	235.43
409.20	235.84
409.58	236.16
409.95	236.64
410.33	237.26
410.70	237.85
411.08	238.53
411.45	239.10
411.82	239.92
412.20	240.83
412.57	241.79
412.95	242.53
413.32	243.50
413.69	244.47
414.07	245.53
414.44	246.69
414.82	247.95
415.19	249.21
415.56	250.60
415.94	251.95
416.31	253.61
416.68	255.11
417.06	257.09
417.43	258.99
417.81	261.03
418.18	263.10
418.55	265.26
418.93	267.46
419.30	269.90
419.67	272.27
420.04	274.76
420.42	277.43
420.79	280.49
421.16	283.54
421.54	286.68
421.91	289.98
422.28	293.43
422.66	297.13
423.03	300.69
423.40	304.27
423.77	308.26
424.15	312.29
424.52	316.51
424.89	320.97
425.26	325.25
425.64	329.41
426.01	333.90
426.38	338.68
426.75	343.68
427.13	348.75
427.50	354.15
427.87	359.68
428.24	365.17
428.61	370.35
428.99	376.04
429.36	382.39
429.73	388.43
430.10	394.44
430.47	400.46
430.85	407.02
431.22	413.85
431.59	421.11
431.96	427.70
432.33	435.35
432.70	442.64
433.08	451.33
433.45	459.62
433.82	467.61
434.19	476.57
434.56	485.06
434.93	493.34
435.30	501.45
435.68	510.46
436.05	519.49
436.42	528.57
436.79	536.86
437.16	545.72
437.53	555.03
437.90	564.20
438.27	573.25
438.64	582.55
439.01	591.37
439.38	599.27
439.75	607.00
440.13	615.44
440.50	623.82
440.87	630.54
441.24	637.39
441.61	645.51
441.98	651.38
442.35	658.31
442.72	665.21
443.09	672.14
443.46	676.75
443.83	679.73
444.20	682.60
444.57	686.66
444.94	689.03
445.31	691.45
445.68	693.73
446.05	695.64
446.42	695.78
446.79	695.90
447.16	695.63
447.53	695.91
447.90	693.74
448.27	691.43
448.64	687.60
449.01	685.50
449.37	680.30
449.74	675.45
450.11	669.34
450.48	662.70
450.85	655.75
451.22	649.92
451.59	644.40
451.96	639.16
452.33	631.54
452.70	624.68
453.07	616.68
453.43	608.60
453.80	600.45
454.17	592.44
454.54	584.80
454.91	576.68
455.28	568.82
455.65	561.26
456.02	553.59
456.38	547.17
456.75	538.94
457.12	532.02
457.49	525.03
457.86	518.49
458.23	512.77
458.59	506.49
458.96	500.12
459.33	494.72
459.70	488.94
460.07	484.50
460.43	479.30
460.80	473.98
461.17	469.42
461.54	464.55
461.91	460.32
462.27	455.86
462.64	452.01
463.01	447.65
463.38	443.60
463.74	439.41
464.11	436.00
464.48	432.62
464.85	429.21
465.21	426.77
465.58	424.05
465.95	420.67
466.32	417.88
466.68	414.86
467.05	412.05
467.42	409.32
467.78	406.22
468.15	403.29
468.52	401.34
468.88	398.60
469.25	396.28
469.62	394.33
469.98	392.13
470.35	390.08
470.72	388.23
471.08	386.26
471.45	384.58
471.82	382.55
472.18	380.56
472.55	379.06
472.92	377.19
473.28	375.56
473.65	374.00
474.02	372.48
474.38	371.34
474.75	370.12
475.11	368.82
475.48	367.81
475.85	367.00
476.21	366.20
476.58	365.34
476.94	364.68
477.31	363.86
477.67	363.19
478.04	362.62
478.41	362.11
478.77	361.79
479.14	361.33
479.50	361.07
479.87	361.00
480.23	361.02
480.60	360.73
480.96	360.56
481.33	360.67
481.69	360.78
482.06	360.72
482.42	360.66
482.79	360.69
483.15	361.03
483.52	361.45
483.88	361.64
484.25	362.13
484.61	362.55
484.98	362.89
485.34	363.59
485.71	364.29
486.07	365.13
486.44	365.62
486.80	366.62
487.17	367.53
487.53	368.69
487.90	369.72
488.26	371.08
488.62	372.38
488.99	373.58
489.35	374.84
489.72	376.26
490.08	377.75
490.44	379.35
490.81	380.84
491.17	382.30
491.54	384.01
491.90	385.60
492.26	387.39
492.63	389.39
492.99	391.28
493.36	393.37
493.72	395.40
494.08	397.61
494.45	399.63
494.81	401.96
495.17	404.12
495.54	406.61
495.90	409.01
496.26	411.32
496.63	414.01
496.99	416.65
497.35	419.29
497.72	422.00
498.08	424.74
498.44	427.68
498.80	430.59
499.17	433.53
499.53	436.36
499.89	439.17
500.26	441.93
500.62	444.63
500.98	447.37
501.34	450.10
501.71	452.90
502.07	455.57
502.43	458.27
502.79	461.08
503.16	463.64
503.52	466.25
503.88	469.01
504.24	471.42
504.60	473.97
504.97	476.64
505.33	479.26
505.69	481.98
506.05	484.48
506.41	486.93
506.78	489.30
507.14	491.73
507.50	494.18
507.86	496.76
508.22	499.27
508.59	501.63
508.95	503.98
509.31	506.28
509.67	508.65
510.03	510.97
510.39	513.10
510.75	515.30
511.12	517.47
511.48	519.39
511.84	521.30
512.20	523.10
512.56	524.89
512.92	526.88
513.28	528.68
513.64	530.37
514.00	531.91
514.37	533.34
514.73	534.99
515.09	536.43
515.45	537.72
515.81	539.00
516.17	540.41
516.53	541.78
516.89	542.99
517.25	544.25
517.61	545.38
517.97	546.37
518.33	547.27
518.69	548.51
519.05	549.65
519.41	550.88
519.77	552.04
520.13	553.18
520.49	553.97
520.85	554.72
521.21	555.77
521.57	556.82
521.93	557.78
522.29	558.63
522.65	559.74
523.01	560.69
523.37	561.48
523.73	562.29
524.09	563.28
524.45	564.30
524.81	565.15
525.17	566.22
525.53	567.33
525.89	568.47
526.25	569.35
526.61	570.31
526.97	571.39
527.33	572.66
527.68	573.77
528.04	574.94
528.40	576.25
528.76	577.60
529.12	579.00
529.48	580.61
529.84	582.07
530.20	583.50
530.56	585.01
530.91	586.95
531.27	588.65
531.63	590.15
531.99	591.90
532.35	593.70
532.71	595.42
533.07	597.50
533.42	599.65
533.78	601.71
534.14	603.75
534.50	605.63
534.86	607.52
535.21	609.66
535.57	611.91
535.93	614.08
536.29	616.18
536.65	618.51
537.00	620.70
537.36	623.05
537.72	625.40
538.08	627.83
538.44	630.13
538.79	632.62
539.15	635.17
539.51	637.68
539.87	640.43
540.22	643.31
540.58	646.23
540.94	648.96
541.29	651.48
541.65	654.21
542.01	657.41
542.37	660.40
542.72	663.43
543.08	666.41
543.44	669.45
543.79	672.33
544.15	675.51
544.51	679.00
544.87	682.13
545.22	685.41
545.58	688.58
545.94	691.98
546.29	695.20
546.65	698.37
547.01	701.50
547.36	704.60
547.72	707.61
548.07	710.63
548.43	713.55
548.79	716.95
549.14	720.21
549.50	723.47
549.86	726.65
550.21	729.78
550.57	733.03
550.92	736.44
551.28	739.78
551.64	742.98
551.99	746.10
552.35	749.56
552.70	752.64
553.06	756.07
553.41	759.17
553.77	762.39
554.13	765.82
554.48	769.29
554.84	772.63
555.19	775.70
555.55	779.18
555.90	782.34
556.26	785.70
556.61	789.07
556.97	792.23
557.32	795.70
557.68	798.83
558.03	802.19
558.39	805.46
558.74	808.92
559.10	812.04
559.45	815.17
559.81	818.64
560.16	821.89
560.52	825.00
560.87	828.41
561.23	831.79
561.58	834.99
561.94	838.42
562.29	841.46
562.64	844.71
563.00	847.33
563.35	851.00
563.71	854.29
564.06	857.50
564.42	860.36
564.77	863.19
565.12	866.30
565.48	869.40
565.83	872.06
566.19	874.80
566.54	877.62
566.89	880.34
567.25	882.85
567.60	885.66
567.96	888.46
568.31	890.98
568.66	893.30
569.02	895.83
569.37	897.58
569.72	899.95
570.08	902.02
570.43	904.40
570.78	906.21
571.14	907.98
571.49	909.66
571.84	912.15
572.20	913.87
572.55	915.60
572.90	917.02
573.26	918.82
573.61	920.39
573.96	921.93
574.31	923.06
574.67	923.97
575.02	924.78
575.37	925.80
575.72	926.50
576.08	927.51
576.43	928.23
576.78	929.48
577.13	930.57
577.49	931.70
577.84	932.48
578.19	932.98
578.54	933.32
578.90	933.83
579.25	933.70
579.60	933.96
579.95	934.21
580.30	934.24
580.66	934.06
581.01	933.95
581.36	933.63
581.71	933.91
582.06	934.09
582.42	934.00
582.77	933.92
583.12	933.50
583.47	933.24
583.82	932.98
584.17	932.58
584.53	932.01
584.88	931.47
585.23	931.10
585.58	930.63
585.93	930.37
586.28	930.11
586.63	929.70
586.98	929.39
587.34	928.89
587.69	928.68
588.04	928.34
588.39	927.90
588.74	926.95
589.09	925.99
589.44	925.06
589.79	924.37
590.14	923.59
590.49	922.92
590.84	921.82
591.19	920.80
591.54	919.47
591.89	917.94
592.25	916.80
592.60	915.04
592.95	913.41
593.30	911.75
593.65	910.18
594.00	908.38
594.35	907.20
594.70	905.17
595.05	903.32
595.40	901.30
595.75	899.34
596.10	897.93
596.45	896.38
596.80	894.67
597.15	892.96
597.50	890.92
597.85	889.37
598.19	887.80
598.54	886.23
598.89	884.79
599.24	883.19
599.59	881.46
599.94	880.16
600.29	878.68
600.64	876.81
600.99	874.68
601.34	873.00
601.69	870.63
602.04	868.97
602.39	866.90
602.74	865.25
603.08	863.26
603.43	861.93
603.78	859.89
604.13	858.10
604.48	855.85
604.83	853.83
605.18	851.72
605.53	849.30
605.87	846.89
606.22	844.45
606.57	842.20
606.92	839.97
607.27	837.58
607.62	835.52
607.96	833.61
608.31	831.63
608.66	829.20
609.01	826.50
609.36	823.91
609.70	821.15
610.05	818.51
610.40	816.30
610.75	813.09
611.10	810.50
611.44	807.37
611.79	804.90
612.14	802.03
612.49	799.01
612.83	796.13
613.18	793.31
613.53	790.78
613.88	787.83
614.22	784.75
614.57	781.69
614.92	778.60
615.27	775.58
615.61	772.48
615.96	769.47
616.31	767.09
616.65	764.69
617.00	762.39
617.35	759.52
617.70	756.16
618.04	753.24
618.39	750.22
618.74	747.64
619.08	744.68
619.43	742.22
619.78	739.40
620.12	736.86
620.47	733.99
620.82	730.79
621.16	728.04
621.51	725.40
621.85	722.55
622.20	719.60
622.55	716.77
622.89	714.05
623.24	711.63
623.59	708.81
623.93	706.01
624.28	703.09
624.62	700.40
624.97	697.95
625.32	695.42
625.66	692.97
626.01	690.39
626.35	687.74
626.70	685.00
627.04	682.54
627.39	679.64
627.73	677.10
628.08	674.52
628.43	671.79
628.77	669.09
629.12	666.37
629.46	663.93
629.81	661.28
630.15	658.42
630.50	655.60
630.84	652.41
631.19	649.31
631.53	646.55
631.88	643.52
632.22	640.67
632.57	638.08
632.91	635.12
633.26	632.25
633.60	629.53
633.95	626.61
634.29	623.85
634.64	621.56
634.98	618.87
635.32	616.58
635.67	614.27
636.01	611.72
636.36	609.34
636.70	606.75
637.05	604.23
637.39	602.14
637.73	599.64
638.08	597.78
638.42	595.38
638.77	593.10
639.11	590.81
639.45	588.50
639.80	585.92
640.14	583.84
640.49	581.36
640.83	578.96
641.17	576.57
641.52	574.27
641.86	571.45
642.20	569.19
642.55	566.71
642.89	564.28
643.23	561.84
643.58	559.64
643.92	557.13
644.26	554.66
644.61	552.45
644.95	550.01
645.29	547.34
645.64	545.10
645.98	542.71
646.32	540.51
646.66	538.02
647.01	535.68
647.35	532.95
647.69	530.72
648.04	528.54
648.38	526.16
648.72	523.63
649.06	521.35
649.41	518.68
649.75	516.04
650.09	513.53
650.43	511.14
650.78	508.37
651.12	505.95
651.46	503.76
651.80	501.14
652.14	498.93
652.49	496.56
652.83	494.30
653.17	491.86
653.51	489.40
653.85	487.11
654.20	484.91
654.54	482.49
654.88	479.91
655.22	477.40
655.56	475.17
655.90	473.01
656.25	470.93
656.59	468.91
656.93	466.76
657.27	464.64
657.61	462.42
657.95	460.37
658.29	458.37
658.64	456.17
658.98	453.97
659.32	451.80
659.66	449.79
660.00	447.56
660.34	445.34
660.68	443.32
661.02	441.32
661.36	439.27
661.70	437.49
662.05	435.79
662.39	434.01
662.73	432.18
663.07	430.41
663.41	428.44
663.75	426.63
664.09	424.77
664.43	422.97
664.77	421.30
665.11	419.52
665.45	417.73
665.79	415.98
666.13	414.25
666.47	412.42
666.81	410.56
667.15	408.80
667.49	407.20
667.83	405.70
668.17	404.03
668.51	402.14
668.85	400.59
669.19	398.99
669.53	397.34
669.87	395.63
670.21	393.92
670.55	392.43
670.89	391.08
671.23	389.70
671.57	388.09
671.91	386.60
672.25	385.16
672.58	383.82
672.92	382.40
673.26	381.03
673.60	379.67
673.94	378.58
674.28	377.39
674.62	376.22
674.96	374.70
675.30	373.46
675.64	372.44
675.97	371.18
676.31	369.87
676.65	368.55
676.99	367.39
677.33	366.13
677.67	364.90
678.01	363.33
678.34	362.05
678.68	361.03
679.02	359.71
679.36	358.68
679.70	357.52
680.04	356.21
680.37	355.10
680.71	354.03
681.05	352.72
681.39	351.59
681.73	350.47
682.06	349.53
682.40	348.50
682.74	347.30
683.08	346.28
683.42	345.21
683.75	344.16
684.09	342.95
684.43	341.92
684.77	340.90
685.10	339.99
685.44	338.90
685.78	337.66
686.12	336.60
686.45	335.47
686.79	334.30
687.13	333.57
687.46	332.38
687.80	331.32
688.14	330.28
688.48	329.42
688.81	328.25
689.15	327.15
689.49	326.10
689.82	325.07
690.16	323.79
690.50	322.85
690.83	321.84
691.17	320.97
691.51	319.94
691.84	318.90
692.18	318.03
692.52	317.09
692.85	316.36
693.19	315.42
693.52	314.48
693.86	313.49
694.20	312.40
694.53	311.56
694.87	310.63
695.21	309.80
695.54	308.73
695.88	307.83
696.21	306.99
696.55	306.10
696.88	305.33
697.22	304.60
697.56	303.72
697.89	302.95
698.23	302.13
698.56	301.32
698.90	300.53
699.23	299.53
699.57	298.67
699.90	297.67
700.24	296.92
700.58	296.09
700.91	295.42
701.25	294.82
701.58	294.10
701.92	293.40
702.25	292.63
702.59	291.88
702.92	291.30
703.26	290.58
703.59	289.82
703.93	289.32
704.26	288.68
704.60	288.00
704.93	287.38
705.26	286.74
705.60	286.26
705.93	285.74
706.27	285.20
706.60	284.68
706.94	284.25
707.27	283.56
707.61	283.09
707.94	282.42
708.27	281.65
708.61	281.06
708.94	280.46
709.28	279.89
709.61	279.32
709.94	278.79
710.28	278.22
710.61	277.73
710.95	276.91
711.28	276.50
711.61	276.00
711.95	275.44
712.28	274.79
712.61	274.14
712.95	273.59
713.28	273.16
713.61	272.62
713.95	272.04
714.28	271.67
714.61	271.13
714.95	270.62
715.28	270.15
715.61	269.70
715.95	269.31
716.28	268.81
716.61	268.37
716.95	267.82
717.28	267.41
717.61	266.98
717.94	266.67
718.28	266.14
718.61	265.73
718.94	265.33
719.27	265.03
719.61	264.70
719.94	264.29
720.27	263.85
720.60	263.59
720.94	263.24
721.27	262.90
721.60	262.50
721.93	262.31
722.27	262.05
722.60	261.70
722.93	261.41
723.26	261.17
723.59	260.85
723.93	260.63
724.26	260.39
724.59	260.22
724.92	259.87
725.25	259.58
725.59	259.25
725.92	259.00
726.25	258.75
726.58	258.44
726.91	258.08
727.24	257.91
727.57	257.58
727.91	257.28
728.24	257.03
728.57	256.80
728.90	256.42
729.23	256.18
729.56	256.06
729.89	255.67
730.22	255.48
730.55	255.22
730.89	255.01
731.22	254.72
731.55	254.41
731.88	254.18
732.21	254.00
732.54	253.84
732.87	253.60
733.20	253.36
733.53	253.06
733.86	253.04
734.19	252.75
734.52	252.56
734.85	252.50
735.18	252.20
735.51	252.07
735.84	251.95
736.17	251.74
736.50	251.32
736.83	251.43
737.16	251.13
737.49	250.79
737.82	250.48
738.15	250.31
738.48	250.08
738.81	249.90
739.14	249.57
739.47	249.20
739.80	248.95
740.13	248.78
740.46	248.62
740.79	248.35
741.12	248.06
741.45	247.83
741.78	247.57
742.11	247.43
742.44	247.18
742.77	246.90
743.10	246.60
743.43	246.45
743.75	245.93
744.08	246.09
744.41	245.98
744.74	245.80
745.07	245.49
745.40	245.31
745.73	245.14
746.06	245.00
746.39	244.92
746.71	244.73
747.04	244.41
747.37	244.16
747.70	243.96
748.03	243.72
748.36	243.49
748.68	243.19
749.01	242.95
749.34	242.72
749.67	242.57
750.00	242.40
750.33	242.33
750.65	242.24
750.98	241.70
751.31	241.64
751.64	241.40
751.97	241.30
752.29	241.03
752.62	240.80
752.95	240.62
753.28	240.39
753.60	240.20
753.93	240.11
754.26	240.03
754.59	239.80
754.91	239.78
755.24	239.64
755.57	239.50
755.90	239.34
756.22	239.25
756.55	239.04
756.88	238.89
757.20	238.66
757.53	238.43
757.86	238.33
758.19	238.20
758.51	238.15
758.84	237.99
759.17	237.89
759.49	237.72
759.82	237.70
760.15	237.65
760.47	237.62
760.80	237.46
761.13	237.27
761.45	237.19
761.78	237.00
762.11	236.86
762.43	236.82
762.76	236.72
763.08	236.74
763.41	236.71
763.74	236.53
764.06	236.45
764.39	236.42
764.71	236.40
765.04	236.31
765.37	236.27
765.69	236.20
766.02	236.18
766.34	236.12
766.67	236.06
767.00	236.11
767.32	236.20
767.65	236.29
767.97	236.25
768.30	236.27
768.62	236.25
768.95	236.26
769.27	236.20
769.60	236.19
769.92	236.02
770.25	235.99
770.57	236.00
770.90	235.91
771.22	235.84
771.55	235.81
771.87	235.80
772.20	235.80
772.52	235.97
772.85	236.10
773.17	236.13
773.50	236.03
773.82	235.80
774.15	235.54
774.47	235.34
774.80	235.32
775.12	235.21
775.45	235.22
775.77	235.14
776.09	235.18
776.42	235.11
776.74	235.10
777.07	235.00
777.39	234.98
777.72	234.95
778.04	234.94
778.36	234.89
778.69	234.76
779.01	234.70
779.33	234.39
779.66	234.09
779.98	233.97
780.31	233.97
780.63	234.09
780.95	234.12
781.28	234.10
781.60	234.06
781.92	233.93
782.25	233.79
782.57	233.71
782.89	233.52
783.22	233.56
783.54	233.43
783.86	233.42
784.19	233.37
784.51	233.36
784.83	233.21
785.16	233.10
785.48	233.01
785.80	232.86
786.12	232.86
786.45	232.89
786.77	232.79
787.09	232.75
787.42	232.56
787.74	232.41
788.06	232.25
788.38	232.12
788.71	232.07
789.03	232.10
789.35	232.09
789.67	232.13
789.99	232.00
790.32	231.99
790.64	232.01
790.96	232.09
791.28	232.06
791.61	232.08
791.93	232.00
792.25	231.87
792.57	232.01
792.89	231.86
793.21	231.73
793.54	231.69
793.86	231.56
794.18	231.56
794.50	231.57
794.82	231.56
795.14	231.60
795.47	231.61
795.79	231.49
796.11	231.32
796.43	231.15
796.75	231.13
797.07	231.08
797.39	230.91
797.71	230.71
798.04	230.62
798.36	230.60
798.68	230.65
799.00	230.69
799.32	230.49
799.64	230.55
799.96	230.58
800.28	230.60
800.60	230.63
800.92	230.58
801.24	230.49
801.56	230.53
801.89	230.40
802.21	230.39
802.53	230.36
802.85	230.50
803.17	230.57
803.49	230.46
803.81	230.48
804.13	230.56
804.45	230.49
804.77	230.50
805.09	230.42
805.41	230.41
805.73	230.39
806.05	230.39
806.37	230.46
806.69	230.43
807.01	230.46
807.33	230.35
807.65	230.41
807.97	230.60
808.28	230.60
808.60	230.80
808.92	230.79
809.24	231.06
809.56	231.05
809.88	231.01
810.20	231.14
810.52	231.14
810.84	231.00
811.16	231.11
811.48	231.06
811.80	231.20
812.12	231.16
812.43	231.24
812.75	231.24
813.07	231.27
813.39	231.27
813.71	231.20
814.03	231.26
814.35	231.18
814.67	231.09
814.98	231.03
815.30	230.96
815.62	230.95
815.94	230.74
816.26	230.85
816.58	230.88
816.89	230.88
817.21	230.77
817.53	230.81
817.85	230.78
818.17	230.83
818.48	230.71
818.80	230.75
819.12	230.69
819.44	230.70
819.76	230.56
820.07	230.57
820.39	230.57
820.71	230.55
821.03	230.50
821.34	230.43
821.66	230.43
821.98	230.46
822.30	230.35
822.61	230.50
822.93	230.36
823.25	230.27
823.57	230.18
823.88	230.24
824.20	230.26
824.52	230.21
824.83	230.10
825.15	230.05
825.47	229.90
825.79	229.82
826.10	229.85
826.42	229.80
826.74	229.77
827.05	229.69
827.37	229.64
827.69	229.67
828.00	229.63
828.32	229.59
828.64	229.39
828.95	229.50
829.27	229.29
829.58	229.30
829.90	229.30
830.22	229.26
830.53	229.15
830.85	229.07
831.17	229.00
831.48	228.96
831.80	228.91
832.11	228.98
832.43	229.00
832.75	228.86
833.06	228.98
833.38	228.86
833.69	228.87
834.01	228.82
834.32	228.78
834.64	228.85
834.96	228.86
835.27	228.97
835.59	228.89
835.90	228.81
836.22	228.73
836.53	228.76
836.85	228.72
837.16	228.90
837.48	228.87
837.79	228.98
838.11	229.02
838.42	229.15
838.74	229.11
839.05	229.09
839.37	229.15
839.68	228.99
840.00	229.04
840.31	229.07
840.63	229.11
840.94	229.00
841.26	228.93
841.57	228.95
841.88	228.93
842.20	228.91
842.51	228.95
842.83	228.97
843.14	229.10
843.46	229.10
843.77	229.00
844.08	229.10
844.40	229.05
844.71	229.08
845.03	228.95
845.34	228.96
845.65	229.00
845.97	229.03
846.28	229.14
846.60	229.17
846.91	229.21
847.22	229.12
847.54	229.29
847.85	229.31
848.16	229.26
848.48	229.24
848.79	229.44
849.10	229.38
849.42	229.47
849.73	229.30
850.04	229.39
850.36	229.37
850.67	229.40
850.98	229.37
851.30	229.34
851.61	229.40
851.92	229.48
852.23	229.44
852.55	229.29
852.86	229.25
853.17	229.30
853.49	229.39
853.80	229.50
854.11	229.36
854.42	229.40
854.74	229.48
855.05	229.43
855.36	229.34
855.67	229.45
855.99	229.28
856.30	229.54
856.61	229.46
856.92	229.42
857.23	229.34
857.55	229.31
857.86	229.31
858.17	229.28
858.48	229.20
858.79	229.18
859.11	229.35
859.42	229.33
859.73	229.29
860.04	229.20
860.35	229.07
860.66	229.14
860.98	229.09
861.29	228.95
861.60	228.97
861.91	228.90
862.22	228.81
862.53	228.79
862.84	228.57
863.16	228.55
863.47	228.53
863.78	228.53
864.09	228.44
864.40	228.44
864.71	228.36
865.02	228.42
865.33	228.30
865.64	228.21
865.95	228.21
866.27	228.25
866.58	228.17
866.89	228.20
867.20	228.12
867.51	228.03
867.82	228.02
868.13	228.16
868.44	228.09
868.75	228.08
869.06	228.07
869.37	227.99
869.68	227.91
869.99	227.90
870.30	227.90
870.61	228.08
870.92	228.05
871.23	228.11
871.54	228.03
871.85	228.19
872.16	228.25
872.47	228.17
872.78	228.05
873.09	228.09
873.40	228.06
873.71	228.15
874.02	228.16
874.33	228.16
874.64	227.96
874.95	228.01
875.26	228.01
875.56	228.10
875.87	228.16
876.18	228.28
876.49	228.49
876.80	228.41
877.11	228.28
877.42	228.21
877.73	228.30
878.04	228.33
878.35	228.31
878.66	228.17
878.96	228.21
879.27	228.26
879.58	228.20
879.89	228.17
880.20	228.27
880.51	228.20
880.82	228.20
881.12	228.30
881.43	228.28
881.74	228.38
882.05	228.33
882.36	228.30
882.67	228.32
882.97	228.09
883.28	228.12
883.59	228.25
883.90	228.30
884.21	228.21
884.51	228.20
884.82	228.23
885.13	228.30
885.44	228.24
885.74	228.21
886.05	228.26
886.36	228.30
886.67	228.25
886.98	228.40
887.28	228.39
887.59	228.39
887.90	228.40
888.20	228.32
888.51	228.38
888.82	228.43
889.13	228.44
889.43	228.63
889.74	228.69
890.05	228.65
890.35	228.72
890.66	228.72
890.97	228.71
891.28	228.71
891.58	228.70
891.89	228.78
892.20	228.79
892.50	228.90
892.81	228.91
893.12	228.80
893.42	228.73
893.73	228.82
894.04	228.81
894.34	228.90
894.65	228.97
894.95	228.98
895.26	229.00
895.57	229.06
895.87	228.88
896.18	228.88
896.48	228.79
896.79	228.82
897.10	228.79
897.40	228.84
897.71	228.73
898.01	228.77
898.32	228.84
898.63	228.78
898.93	228.70
899.24	228.78
899.54	228.86
899.85	228.91
900.15	228.98
900.46	228.99
900.76	228.94
901.07	228.95
901.38	228.96
901.68	228.98
901.99	228.80
902.29	228.81
902.60	228.73
902.90	228.74
903.21	228.64
903.51	228.66
903.82	228.66
904.12	228.68
904.43	228.61
904.73	228.56
905.03	228.64
905.34	228.68
905.64	228.55
905.95	228.58
906.25	228.50
906.56	228.43
906.86	228.40
907.17	228.36
907.47	228.20
907.77	228.03
908.08	227.98
908.38	228.01
908.69	228.07
908.99	228.13
909.30	228.12
909.60	228.08
909.90	228.02
910.21	227.84
910.51	227.88
910.81	227.90
911.12	227.91
911.42	227.79
911.73	227.63
912.03	227.68
912.33	227.64
912.64	227.60
912.94	227.50
913.24	227.46
913.55	227.40
913.85	227.41
914.15	227.59
914.46	227.49
914.76	227.48
915.06	227.41
915.37	227.37
915.67	227.29
915.97	227.40
916.27	227.41
916.58	227.53
916.88	227.51
917.18	227.47
917.49	227.54
917.79	227.58
918.09	227.72
918.39	227.77
918.70	227.72
919.00	227.74
919.30	227.87
919.60	227.90
919.91	228.00
920.21	228.16
920.51	228.08
920.81	228.10
921.12	228.21
921.42	228.23
921.72	228.25
922.02	228.36
922.32	228.39
922.63	228.36
922.93	228.51
923.23	228.48
923.53	228.60
923.83	228.52
924.13	228.65
924.44	228.58
924.74	228.64
925.04	228.80
925.34	228.92
925.64	228.88
925.94	228.86
926.24	228.94
926.55	228.89
926.85	228.93
927.15	229.00
927.45	228.97
927.75	228.95
928.05	229.01
928.35	229.00
928.65	229.00
928.95	229.03
929.26	228.99
929.56	229.08
929.86	229.11
930.16	229.05
930.46	229.05
930.76	229.13
931.06	229.02
931.36	228.90
931.66	228.85
931.96	228.87
932.26	228.94
932.56	228.87
932.86	228.90
933.16	228.86
933.46	228.84
933.76	228.76
934.06	228.86
934.36	228.87
934.66	228.86
934.96	228.82
935.26	228.90
935.56	228.84
935.86	228.76
936.16	228.66
936.46	228.68
936.76	228.67
937.06	228.60
937.36	228.65
937.66	228.61
937.96	228.61
938.26	228.70
938.56	228.59
938.86	228.56
939.16	228.48
939.46	228.52
939.76	228.55
940.06	228.62
940.35	228.50
940.65	228.43
940.95	228.44
941.25	228.41
941.55	228.30
941.85	228.27
942.15	228.31
942.45	228.32
942.75	228.36
943.04	228.17
943.34	228.22
943.64	228.22
943.94	228.24
944.24	228.22
944.54	228.05
944.84	228.08
945.13	228.02
945.43	227.94
945.73	227.83
946.03	227.76
946.33	227.70
946.62	227.70
946.92	227.68
947.22	227.69
947.52	227.67
947.82	227.73
948.11	227.73
948.41	227.63
948.71	227.67
949.01	227.65
949.31	227.78
949.60	227.70
949.90	227.66
950.20	227.57
950.50	227.57
950.79	227.63
951.09	227.60
951.39	227.58
951.69	227.69
951.98	227.79
952.28	227.80
952.58	227.81
952.87	227.90
953.17	227.94
953.47	227.91
953.76	228.05
954.06	228.00
954.36	228.00
954.66	228.13
954.95	228.11
955.25	228.14
955.55	228.15
955.84	228.21
956.14	228.26
956.44	228.31
956.73	228.25
957.03	228.33
957.32	228.40
957.62	228.39
957.92	228.43
958.21	228.42
958.51	228.63
958.81	228.61
959.10	228.65
959.40	228.63
959.69	228.63
959.99	228.50
960.29	228.60
960.58	228.61
960.88	228.63
961.17	228.65
961.47	228.62
961.76	228.62
962.06	228.65
962.36	228.52
962.65	228.56
962.95	228.60
963.24	228.45
963.54	228.51
963.83	228.63
964.13	228.62
964.42	228.57
964.72	228.43
965.01	228.58
965.31	228.57
965.60	228.63
965.90	228.78
966.19	228.77
966.49	228.79
966.78	228.84
967.08	228.84
967.37	228.79
967.67	228.88
967.96	228.93
968.26	228.80
968.55	228.93
968.85	228.92
969.14	228.90
969.43	228.90
969.73	228.85
970.02	228.72
970.32	228.72
970.61	228.72
970.91	228.73
971.20	228.63
971.49	228.49
971.79	228.43
972.08	228.33
972.38	228.29
972.67	228.22
972.96	228.12
973.26	228.09
973.55	228.14
973.85	228.06
974.14	227.93
974.43	228.02
974.73	227.88
975.02	227.88
975.31	227.81
975.61	227.84
975.90	227.88
976.19	227.83
976.49	227.69
976.78	227.81
977.07	227.78
977.37	227.71
977.66	227.79
977.95	227.69
978.24	227.67
978.54	227.69
978.83	227.79
979.12	227.83
979.42	227.77
979.71	227.71
980.00	227.65
980.29	227.74
980.59	227.62
980.88	227.73
981.17	227.84
981.46	227.84
981.76	227.91
982.05	227.91
982.34	228.06
982.63	228.21
982.93	228.13
983.22	228.04
983.51	228.07
983.80	228.02
984.09	228.13
984.39	228.13
984.68	228.14
984.97	227.96
985.26	227.85
985.55	227.99
985.85	227.98
986.14	227.99
986.43	227.91
986.72	227.88
987.01	227.83
987.30	227.67
987.59	227.73
987.89	227.67
988.18	227.56
988.47	227.54
988.76	227.47
989.05	227.39
989.34	227.46
989.63	227.53
989.92	227.52
990.22	227.48
990.51	227.52
990.80	227.59
991.09	227.60
991.38	227.72
991.67	227.59
991.96	227.60
992.25	227.63
992.54	227.63
992.83	227.71
993.12	227.62
993.41	227.77
993.70	227.86
993.99	227.94
994.28	228.06
994.58	228.09
994.87	228.08
995.16	228.10
995.45	228.10
995.74	228.10
996.03	228.22
996.32	228.34
996.61	228.35
996.90	228.34
997.19	228.42
997.48	228.45
997.77	228.51
998.06	228.49
998.34	228.50
998.63	228.57
998.92	228.62
999.21	228.72
999.50	228.68
999.79	228.63
1000.08	228.61
1000.37	228.55
1000.66	228.43
1000.95	228.55
1001.24	228.63
1001.53	228.59
1001.82	228.61
1002.11	228.50
1002.40	228.47
1002.68	228.64
1002.97	228.77
1003.26	228.83
1003.55	228.79
1003.84	228.80
1004.13	228.91
1004.42	228.90
1004.71	228.90
1004.99	228.95
1005.28	228.98
1005.57	228.97
1005.86	228.92
1006.15	228.93
1006.44	229.00
1006.72	229.09
1007.01	229.09
1007.30	229.17
1007.59	229.12
1007.88	229.02
1008.17	229.06
1008.45	228.91
1008.74	228.77
1009.03	228.66
1009.32	228.58
1009.60	228.58
1009.89	228.52
1010.18	228.37
1010.47	228.43
1010.76	228.48
1011.04	228.43
1011.33	228.48
1011.62	228.52
1011.91	228.60
1012.19	228.61
1012.48	228.51
1012.77	228.41
1013.05	228.39
1013.34	228.27
1013.63	228.32
1013.92	228.42
1014.20	228.37
1014.49	228.53
1014.78	228.46
1015.06	228.41
1015.35	228.33
1015.64	228.27
1015.92	228.22
1016.21	228.36
1016.50	228.15
1016.78	228.13
1017.07	228.03
1017.36	228.00
1017.64	227.88
1017.93	227.93
1018.22	227.87
1018.50	227.89
1018.79	227.88
1019.08	227.86
1019.36	227.77
1019.65	227.78
1019.93	227.74
1020.22	227.81
1020.51	227.76
1020.79	227.70
1021.08	227.80
1021.36	227.90
1021.65	226.40
1021.94	229.20
1022.22	226.00
1022.51	227.60
1022.79	228.70
1023.08	228.60
1023.36	228.60
1023.65	227.10
>>>>>End Processed Spectral Data<<<<<
