SpectraSuite Data File
++++++++++++++++++++++++++++++++++++
Date: Fri Feb 01 14:38:16 EST 2013
User: group
Dark Spectrum Present: No
Reference Spectrum Present: No
Number of Sampled Component Spectra: 1
Spectrometers: USB2E7196
Integration Time (usec): 70000 (USB2E7196)
Spectra Averaged: 10 (USB2E7196)
Boxcar Smoothing: 10 (USB2E7196)
Correct for Electrical Dark: No (USB2E7196)
Strobe/Lamp Enabled: No (USB2E7196)
Correct for Detector Non-linearity: No (USB2E7196)
Correct for Stray Light: No (USB2E7196)
Number of Pixels in Processed Spectrum: 2048
>>>>>Begin Processed Spectral Data<<<<<
339.09	0.00
339.48	215.40
339.86	215.40
340.24	218.00
340.63	221.00
341.01	224.10
341.39	224.00
341.78	224.00
342.16	226.70
342.54	225.30
342.93	214.38
343.31	225.19
343.69	225.70
344.07	226.29
344.46	226.77
344.84	227.07
345.22	227.23
345.60	227.45
345.99	227.68
346.37	227.74
346.75	227.88
347.13	228.17
347.52	228.30
347.90	228.32
348.28	228.44
348.66	228.46
349.05	228.42
349.43	228.47
349.81	228.64
350.19	228.69
350.57	228.67
350.96	228.60
351.34	228.75
351.72	228.87
352.10	228.92
352.48	228.93
352.87	229.09
353.25	229.22
353.63	229.18
354.01	229.20
354.39	229.19
354.77	229.27
355.15	229.22
355.54	229.16
355.92	229.23
356.30	229.20
356.68	229.24
357.06	229.39
357.44	229.42
357.82	229.36
358.20	229.46
358.58	229.56
358.97	229.70
359.35	229.73
359.73	229.81
360.11	229.92
360.49	229.96
360.87	229.92
361.25	229.85
361.63	230.05
362.01	230.17
362.39	230.26
362.77	230.20
363.15	230.26
363.53	230.24
363.91	230.29
364.29	230.33
364.67	230.20
365.05	230.11
365.43	230.10
365.81	230.14
366.19	230.19
366.57	230.29
366.95	230.25
367.33	230.21
367.71	230.26
368.09	230.21
368.47	230.18
368.85	230.16
369.23	230.21
369.61	230.06
369.99	229.98
370.37	230.04
370.75	230.15
371.13	230.01
371.51	230.00
371.89	229.98
372.27	229.87
372.65	229.87
373.03	229.72
373.41	229.69
373.78	229.68
374.16	229.52
374.54	229.38
374.92	229.28
375.30	229.14
375.68	228.93
376.06	228.86
376.44	228.80
376.82	228.76
377.19	228.67
377.57	228.62
377.95	228.48
378.33	228.31
378.71	228.13
379.09	228.07
379.47	228.01
379.84	227.87
380.22	227.86
380.60	227.67
380.98	227.62
381.36	227.48
381.73	227.34
382.11	227.30
382.49	227.12
382.87	226.94
383.25	226.92
383.62	227.08
384.00	226.89
384.38	226.86
384.76	226.82
385.13	226.86
385.51	226.81
385.89	226.81
386.27	226.64
386.64	226.65
387.02	226.56
387.40	226.46
387.78	226.45
388.15	226.37
388.53	226.41
388.91	226.40
389.29	226.40
389.66	226.32
390.04	226.21
390.42	226.26
390.79	226.43
391.17	226.37
391.55	226.16
391.92	226.31
392.30	226.39
392.68	226.24
393.05	226.26
393.43	226.22
393.81	226.14
394.18	226.25
394.56	226.29
394.94	226.34
395.31	226.35
395.69	226.47
396.06	226.50
396.44	226.52
396.82	226.60
397.19	226.64
397.57	226.71
397.95	226.86
398.32	226.92
398.70	226.96
399.07	227.12
399.45	227.29
399.82	227.27
400.20	227.25
400.58	227.42
400.95	227.43
401.33	227.60
401.70	227.91
402.08	227.99
402.45	227.95
402.83	228.11
403.20	228.27
403.58	228.40
403.95	228.62
404.33	228.90
404.71	229.00
405.08	229.40
405.46	229.63
405.83	229.81
406.21	230.00
406.58	230.21
406.96	230.39
407.33	230.50
407.70	230.76
408.08	231.20
408.45	231.43
408.83	231.76
409.20	232.05
409.58	232.20
409.95	232.65
410.33	233.15
410.70	233.47
411.08	233.86
411.45	234.22
411.82	234.57
412.20	235.00
412.57	235.60
412.95	235.93
413.32	236.59
413.69	237.10
414.07	237.67
414.44	238.11
414.82	238.77
415.19	239.51
415.56	240.21
415.94	240.85
416.31	241.76
416.68	242.59
417.06	243.49
417.43	244.42
417.81	245.43
418.18	246.37
418.55	247.49
418.93	248.60
419.30	249.75
419.67	251.03
420.04	252.23
420.42	253.60
420.79	255.09
421.16	256.58
421.54	258.20
421.91	259.81
422.28	261.60
422.66	263.26
423.03	265.18
423.40	266.94
423.77	268.81
424.15	270.75
424.52	272.72
424.89	275.03
425.26	277.12
425.64	279.08
426.01	281.42
426.38	283.79
426.75	286.21
427.13	288.60
427.50	291.06
427.87	293.72
428.24	296.23
428.61	298.83
428.99	301.50
429.36	304.45
429.73	307.42
430.10	310.50
430.47	313.62
430.85	316.60
431.22	319.91
431.59	323.45
431.96	326.74
432.33	330.35
432.70	333.83
433.08	337.90
433.45	341.77
433.82	345.59
434.19	349.93
434.56	354.13
434.93	358.21
435.30	362.24
435.68	366.49
436.05	370.81
436.42	375.00
436.79	378.94
437.16	383.28
437.53	387.67
437.90	391.86
438.27	396.35
438.64	400.90
439.01	405.00
439.38	408.59
439.75	412.14
440.13	416.06
440.50	420.05
440.87	423.16
441.24	426.54
441.61	430.18
441.98	432.72
442.35	435.78
442.72	439.06
443.09	442.34
443.46	444.40
443.83	445.55
444.20	446.89
444.57	448.64
444.94	449.50
445.31	450.64
445.68	451.79
446.05	452.18
446.42	452.10
446.79	452.05
447.16	452.01
447.53	452.03
447.90	450.86
448.27	449.45
448.64	447.60
449.01	446.22
449.37	443.65
449.74	441.13
450.11	438.28
450.48	434.85
450.85	431.40
451.22	428.47
451.59	426.01
451.96	423.32
452.33	419.69
452.70	416.22
453.07	412.11
453.43	407.95
453.80	403.99
454.17	400.03
454.54	396.40
454.91	392.36
455.28	388.48
455.65	385.00
456.02	381.49
456.38	378.36
456.75	374.36
457.12	371.04
457.49	367.78
457.86	364.53
458.23	361.72
458.59	358.60
458.96	355.83
459.33	353.03
459.70	350.23
460.07	348.03
460.43	345.60
460.80	343.06
461.17	340.88
461.54	338.61
461.91	336.40
462.27	334.14
462.64	332.30
463.01	330.16
463.38	328.08
463.74	325.78
464.11	323.98
464.48	322.51
464.85	320.72
465.21	319.48
465.58	317.92
465.95	316.26
466.32	314.81
466.68	313.06
467.05	311.61
467.42	310.15
467.78	308.56
468.15	307.11
468.52	306.13
468.88	304.64
469.25	303.37
469.62	302.38
469.98	301.29
470.35	300.20
470.72	299.13
471.08	297.94
471.45	297.00
471.82	296.08
472.18	295.00
472.55	294.19
472.92	293.14
473.28	292.21
473.65	291.22
474.02	290.40
474.38	289.61
474.75	288.79
475.11	288.14
475.48	287.55
475.85	286.94
476.21	286.18
476.58	285.66
476.94	285.22
477.31	284.60
477.67	283.93
478.04	283.33
478.41	282.99
478.77	282.88
479.14	282.50
479.50	282.23
479.87	281.97
480.23	281.77
480.60	281.31
480.96	281.14
481.33	281.13
481.69	280.91
482.06	280.90
482.42	280.82
482.79	280.58
483.15	280.45
483.52	280.34
483.88	280.40
484.25	280.37
484.61	280.33
484.98	280.30
485.34	280.57
485.71	280.65
486.07	280.72
486.44	280.65
486.80	280.70
487.17	280.69
487.53	280.85
487.90	281.00
488.26	281.40
488.62	281.54
488.99	281.56
489.35	281.74
489.72	281.89
490.08	282.11
490.44	282.44
490.81	282.74
491.17	282.97
491.54	283.19
491.90	283.50
492.26	283.72
492.63	284.13
492.99	284.32
493.36	284.67
493.72	285.06
494.08	285.40
494.45	285.81
494.81	286.26
495.17	286.66
495.54	287.02
495.90	287.35
496.26	287.83
496.63	288.42
496.99	288.82
497.35	289.24
497.72	289.63
498.08	290.06
498.44	290.43
498.80	290.96
499.17	291.58
499.53	292.00
499.89	292.48
500.26	292.81
500.62	293.27
500.98	293.77
501.34	294.05
501.71	294.47
502.07	294.81
502.43	295.14
502.79	295.44
503.16	295.76
503.52	296.12
503.88	296.38
504.24	296.53
504.60	296.92
504.97	297.24
505.33	297.54
505.69	297.87
506.05	298.15
506.41	298.54
506.78	298.55
507.14	298.73
507.50	298.98
507.86	299.30
508.22	299.53
508.59	299.71
508.95	300.16
509.31	300.50
509.67	300.85
510.03	301.06
510.39	301.27
510.75	301.59
511.12	301.88
511.48	302.29
511.84	302.73
512.20	303.01
512.56	303.41
512.92	303.87
513.28	304.37
513.64	304.80
514.00	305.05
514.37	305.68
514.73	306.40
515.09	307.04
515.45	307.60
515.81	308.18
516.17	308.84
516.53	309.48
516.89	310.11
517.25	310.88
517.61	311.94
517.97	312.91
518.33	313.89
518.69	315.10
519.05	316.24
519.41	317.40
519.77	318.82
520.13	320.13
520.49	321.60
520.85	322.93
521.21	324.45
521.57	326.18
521.93	327.71
522.29	329.37
522.65	331.14
523.01	333.13
523.37	335.18
523.73	337.20
524.09	339.34
524.45	341.56
524.81	343.79
525.17	346.07
525.53	348.51
525.89	351.19
526.25	353.86
526.61	356.55
526.97	359.35
527.33	362.10
527.68	365.21
528.04	368.17
528.40	371.27
528.76	374.48
529.12	377.81
529.48	381.13
529.84	384.50
530.20	388.17
530.56	391.88
530.91	395.65
531.27	399.46
531.63	403.32
531.99	407.38
532.35	411.33
532.71	415.36
533.07	419.60
533.42	424.04
533.78	428.10
534.14	432.44
534.50	436.77
534.86	441.28
535.21	445.67
535.57	450.47
535.93	455.15
536.29	460.09
536.65	464.87
537.00	469.84
537.36	475.09
537.72	480.02
538.08	484.99
538.44	490.05
538.79	495.34
539.15	500.39
539.51	505.55
539.87	511.13
540.22	516.54
540.58	522.11
540.94	527.26
541.29	532.73
541.65	538.12
542.01	543.77
542.37	549.32
542.72	555.08
543.08	560.58
543.44	566.21
543.79	571.50
544.15	577.15
544.51	583.08
544.87	588.63
545.22	594.43
545.58	600.05
545.94	605.50
546.29	610.91
546.65	616.60
547.01	622.25
547.36	627.47
547.72	633.15
548.07	638.52
548.43	644.07
548.79	649.86
549.14	655.39
549.50	660.80
549.86	666.32
550.21	671.49
550.57	676.92
550.92	682.47
551.28	687.86
551.64	693.41
551.99	698.71
552.35	703.96
552.70	709.35
553.06	714.91
553.41	720.44
553.77	726.11
554.13	731.65
554.48	737.11
554.84	742.56
555.19	747.81
555.55	753.15
555.90	758.23
556.26	763.49
556.61	768.60
556.97	773.85
557.32	778.85
557.68	783.95
558.03	789.14
558.39	794.12
558.74	799.53
559.10	804.55
559.45	809.51
559.81	814.86
560.16	819.57
560.52	824.13
560.87	829.06
561.23	833.43
561.58	837.92
561.94	842.35
562.29	846.73
562.64	851.05
563.00	855.40
563.35	860.06
563.71	864.47
564.06	869.12
564.42	873.35
564.77	877.95
565.12	882.52
565.48	886.77
565.83	890.63
566.19	894.51
566.54	898.35
566.89	902.39
567.25	906.19
567.60	910.13
567.96	914.34
568.31	918.00
568.66	921.48
569.02	925.10
569.37	928.68
569.72	932.37
570.08	935.68
570.43	938.90
570.78	942.07
571.14	944.87
571.49	947.95
571.84	951.35
572.20	954.00
572.55	956.53
572.90	959.07
573.26	962.20
573.61	965.02
573.96	967.45
574.31	969.22
574.67	970.72
575.02	972.56
575.37	974.07
575.72	975.42
576.08	977.59
576.43	979.01
576.78	980.58
577.13	982.17
577.49	984.08
577.84	985.53
578.19	987.05
578.54	988.31
578.90	989.32
579.25	989.97
579.60	990.86
579.95	991.86
580.30	992.58
580.66	993.20
581.01	993.41
581.36	994.15
581.71	995.15
582.06	996.26
582.42	996.75
582.77	997.49
583.12	998.20
583.47	998.71
583.82	999.52
584.17	999.55
584.53	1000.11
584.88	1000.17
585.23	1000.43
585.58	1000.35
585.93	1000.57
586.28	1000.93
586.63	1001.23
586.98	1001.60
587.34	1001.45
587.69	1001.45
588.04	1001.30
588.39	1001.51
588.74	1000.66
589.09	1000.00
589.44	999.34
589.79	998.79
590.14	998.32
590.49	997.94
590.84	997.17
591.19	996.23
591.54	995.50
591.89	994.19
592.25	993.18
592.60	991.98
592.95	990.66
593.30	989.39
593.65	987.51
594.00	985.83
594.35	984.64
594.70	983.08
595.05	981.77
595.40	979.76
595.75	977.99
596.10	976.98
596.45	975.92
596.80	974.84
597.15	973.34
597.50	971.37
597.85	969.96
598.19	968.61
598.54	967.40
598.89	966.23
599.24	965.23
599.59	963.76
599.94	962.31
600.29	960.67
600.64	959.13
600.99	957.72
601.34	956.11
601.69	954.01
602.04	952.44
602.39	950.40
602.74	949.20
603.08	947.66
603.43	946.08
603.78	944.01
604.13	941.85
604.48	940.05
604.83	938.45
605.18	936.59
605.53	934.10
605.87	931.47
606.22	929.31
606.57	926.93
606.92	924.71
607.27	923.08
607.62	921.41
607.96	919.50
608.31	917.64
608.66	915.22
609.01	912.62
609.36	910.09
609.70	907.45
610.05	904.49
610.40	901.72
610.75	899.02
611.10	896.33
611.44	893.26
611.79	890.78
612.14	887.83
612.49	884.48
612.83	881.66
613.18	878.89
613.53	875.96
613.88	872.67
614.22	869.47
614.57	865.67
614.92	862.53
615.27	859.17
615.61	855.89
615.96	853.10
616.31	850.40
616.65	848.01
617.00	845.60
617.35	843.00
617.70	840.09
618.04	836.68
618.39	833.83
618.74	831.13
619.08	827.78
619.43	825.03
619.78	822.39
620.12	819.53
620.47	816.71
620.82	813.63
621.16	810.67
621.51	808.10
621.85	805.46
622.20	802.33
622.55	799.42
622.89	796.25
623.24	793.36
623.59	790.64
623.93	787.55
624.28	784.35
624.62	781.42
624.97	778.69
625.32	776.21
625.66	773.46
626.01	770.52
626.35	767.95
626.70	764.96
627.04	761.89
627.39	758.87
627.73	756.14
628.08	753.13
628.43	750.30
628.77	747.11
629.12	744.10
629.46	741.12
629.81	737.92
630.15	735.10
630.50	731.84
630.84	728.19
631.19	724.81
631.53	721.65
631.88	718.35
632.22	714.76
632.57	711.39
632.91	707.94
633.26	704.87
633.60	701.49
633.95	698.23
634.29	695.46
634.64	692.65
634.98	689.29
635.32	686.48
635.67	683.66
636.01	680.70
636.36	677.64
636.70	674.63
637.05	672.00
637.39	669.11
637.73	666.31
638.08	664.01
638.42	661.37
638.77	658.76
639.11	656.04
639.45	653.26
639.80	650.36
640.14	647.61
640.49	644.70
640.83	641.81
641.17	639.18
641.52	636.01
641.86	633.08
642.20	630.25
642.55	627.25
642.89	624.43
643.23	621.59
643.58	618.81
643.92	616.08
644.26	613.17
644.61	610.48
644.95	607.58
645.29	604.23
645.64	601.20
645.98	598.09
646.32	595.26
646.66	592.54
647.01	589.86
647.35	587.19
647.69	584.29
648.04	581.77
648.38	578.87
648.72	576.04
649.06	573.04
649.41	570.39
649.75	567.53
650.09	564.65
650.43	561.84
650.78	558.92
651.12	556.11
651.46	553.26
651.80	550.57
652.14	548.09
652.49	545.62
652.83	542.97
653.17	540.25
653.51	537.47
653.85	534.90
654.20	532.30
654.54	529.43
654.88	526.82
655.22	523.92
655.56	520.96
655.90	518.37
656.25	515.84
656.59	513.07
656.93	510.50
657.27	507.83
657.61	505.19
657.95	502.82
658.29	500.22
658.64	497.77
658.98	494.98
659.32	492.38
659.66	489.80
660.00	487.19
660.34	484.80
660.68	482.36
661.02	479.76
661.36	477.36
661.70	474.98
662.05	472.81
662.39	470.68
662.73	468.76
663.07	466.70
663.41	464.48
663.75	462.49
664.09	460.46
664.43	458.31
664.77	456.29
665.11	454.30
665.45	452.45
665.79	450.31
666.13	448.27
666.47	446.17
666.81	444.18
667.15	442.13
667.49	440.16
667.83	438.26
668.17	436.41
668.51	434.41
668.85	432.58
669.19	430.81
669.53	428.86
669.87	426.74
670.21	424.74
670.55	423.08
670.89	421.53
671.23	419.71
671.57	418.00
671.91	416.34
672.25	414.59
672.58	412.72
672.92	411.08
673.26	409.50
673.60	407.82
673.94	406.29
674.28	404.90
674.62	403.51
674.96	401.94
675.30	400.40
675.64	398.93
675.97	397.54
676.31	395.98
676.65	394.43
676.99	393.09
677.33	391.68
677.67	390.01
678.01	388.16
678.34	386.64
678.68	385.19
679.02	383.58
679.36	382.11
679.70	380.86
680.04	379.48
680.37	377.99
680.71	376.68
681.05	375.35
681.39	373.97
681.73	372.51
682.06	371.21
682.40	369.90
682.74	368.45
683.08	367.09
683.42	365.56
683.75	364.40
684.09	363.10
684.43	361.70
684.77	360.51
685.10	359.35
685.44	358.06
685.78	356.78
686.12	355.41
686.45	353.97
686.79	352.53
687.13	351.23
687.46	349.92
687.80	348.54
688.14	347.11
688.48	345.84
688.81	344.48
689.15	343.21
689.49	342.03
689.82	340.80
690.16	339.53
690.50	338.45
690.83	337.30
691.17	335.99
691.51	334.75
691.84	333.62
692.18	332.31
692.52	331.08
692.85	329.96
693.19	329.10
693.52	328.02
693.86	326.86
694.20	325.73
694.53	324.80
694.87	323.72
695.21	322.61
695.54	321.48
695.88	320.48
696.21	319.32
696.55	318.20
696.88	317.17
697.22	315.96
697.56	314.97
697.89	313.77
698.23	312.81
698.56	311.92
698.90	310.90
699.23	309.92
699.57	308.91
699.90	307.79
700.24	306.82
700.58	305.93
700.91	304.94
701.25	304.19
701.58	303.24
701.92	302.45
702.25	301.72
702.59	300.88
702.92	299.96
703.26	299.26
703.59	298.51
703.93	297.90
704.26	297.31
704.60	296.56
704.93	295.86
705.26	295.16
705.60	294.49
705.93	293.82
706.27	293.32
706.60	292.80
706.94	292.33
707.27	291.59
707.61	290.90
707.94	290.34
708.27	289.69
708.61	288.95
708.94	288.23
709.28	287.64
709.61	287.06
709.94	286.44
710.28	285.86
710.61	285.30
710.95	284.47
711.28	284.02
711.61	283.39
711.95	282.83
712.28	282.31
712.61	281.69
712.95	281.23
713.28	280.57
713.61	280.04
713.95	279.39
714.28	278.87
714.61	278.49
714.95	278.02
715.28	277.34
715.61	276.86
715.95	276.35
716.28	275.78
716.61	275.40
716.95	275.10
717.28	274.58
717.61	274.14
717.94	273.77
718.28	273.12
718.61	272.62
718.94	272.25
719.27	271.74
719.61	271.32
719.94	270.84
720.27	270.52
720.60	270.09
720.94	269.70
721.27	269.23
721.60	268.68
721.93	268.25
722.27	267.94
722.60	267.64
722.93	267.34
723.26	266.99
723.59	266.57
723.93	266.15
724.26	265.74
724.59	265.36
724.92	265.09
725.25	264.70
725.59	264.30
725.92	263.91
726.25	263.52
726.58	263.20
726.91	262.85
727.24	262.46
727.57	262.05
727.91	261.73
728.24	261.39
728.57	261.02
728.90	260.69
729.23	260.26
729.56	259.90
729.89	259.59
730.22	259.16
730.55	258.76
730.89	258.44
731.22	258.01
731.55	257.59
731.88	257.15
732.21	256.83
732.54	256.49
732.87	256.08
733.20	255.81
733.53	255.53
733.86	255.17
734.19	254.77
734.52	254.50
734.85	254.26
735.18	253.84
735.51	253.60
735.84	253.38
736.17	253.15
736.50	252.81
736.83	252.73
737.16	252.47
737.49	252.09
737.82	251.68
738.15	251.57
738.48	251.23
738.81	251.00
739.14	250.77
739.47	250.53
739.80	250.33
740.13	250.02
740.46	249.72
740.79	249.43
741.12	249.18
741.45	248.92
741.78	248.60
742.11	248.50
742.44	248.20
742.77	247.95
743.10	247.50
743.43	247.20
743.75	246.72
744.08	246.73
744.41	246.65
744.74	246.50
745.07	246.26
745.40	246.08
745.73	245.87
746.06	245.62
746.39	245.46
746.71	245.25
747.04	245.05
747.37	244.80
747.70	244.65
748.03	244.38
748.36	244.23
748.68	243.98
749.01	243.73
749.34	243.52
749.67	243.31
750.00	243.36
750.33	243.35
750.65	243.27
750.98	242.93
751.31	242.65
751.64	242.62
751.97	242.55
752.29	242.52
752.62	242.30
752.95	242.23
753.28	242.05
753.60	241.87
753.93	241.79
754.26	241.76
754.59	241.54
754.91	241.55
755.24	241.33
755.57	241.34
755.90	241.23
756.22	241.18
756.55	241.10
756.88	240.90
757.20	240.82
757.53	240.62
757.86	240.44
758.19	240.43
758.51	240.15
758.84	239.99
759.17	239.84
759.49	239.84
759.82	239.80
760.15	239.76
760.47	239.61
760.80	239.49
761.13	239.39
761.45	239.30
761.78	239.23
762.11	239.26
762.43	239.13
762.76	239.06
763.08	239.07
763.41	238.93
763.74	238.93
764.06	238.74
764.39	238.64
764.71	238.67
765.04	238.55
765.37	238.52
765.69	238.36
766.02	238.20
766.34	238.08
766.67	237.90
767.00	237.77
767.32	237.82
767.65	237.90
767.97	237.75
768.30	237.65
768.62	237.47
768.95	237.33
769.27	237.21
769.60	237.15
769.92	236.92
770.25	236.77
770.57	236.66
770.90	236.51
771.22	236.37
771.55	236.15
771.87	236.05
772.20	235.94
772.52	236.04
772.85	236.30
773.17	236.16
773.50	236.07
773.82	235.99
774.15	235.91
774.47	235.62
774.80	235.49
775.12	235.30
775.45	235.23
775.77	235.13
776.09	234.95
776.42	234.86
776.74	234.91
777.07	234.77
777.39	234.56
777.72	234.45
778.04	234.30
778.36	234.19
778.69	234.07
779.01	233.99
779.33	233.70
779.66	233.24
779.98	233.11
780.31	232.95
780.63	232.83
780.95	232.68
781.28	232.62
781.60	232.50
781.92	232.55
782.25	232.37
782.57	232.26
782.89	232.23
783.22	232.13
783.54	231.90
783.86	231.86
784.19	231.82
784.51	231.75
784.83	231.80
785.16	231.82
785.48	231.75
785.80	231.66
786.12	231.57
786.45	231.55
786.77	231.49
787.09	231.42
787.42	231.45
787.74	231.41
788.06	231.43
788.38	231.43
788.71	231.41
789.03	231.43
789.35	231.43
789.67	231.36
789.99	231.35
790.32	231.37
790.64	231.34
790.96	231.46
791.28	231.47
791.61	231.43
791.93	231.34
792.25	231.40
792.57	231.46
792.89	231.43
793.21	231.39
793.54	231.39
793.86	231.41
794.18	231.39
794.50	231.36
794.82	231.30
795.14	231.26
795.47	231.29
795.79	231.29
796.11	231.27
796.43	231.28
796.75	231.25
797.07	231.22
797.39	231.19
797.71	231.20
798.04	231.18
798.36	231.17
798.68	231.22
799.00	231.25
799.32	231.20
799.64	231.24
799.96	231.27
800.28	231.35
800.60	231.31
800.92	231.31
801.24	231.35
801.56	231.43
801.89	231.41
802.21	231.35
802.53	231.28
802.85	231.30
803.17	231.35
803.49	231.24
803.81	231.19
804.13	231.26
804.45	231.19
804.77	231.17
805.09	231.19
805.41	231.15
805.73	231.04
806.05	230.97
806.37	231.04
806.69	231.04
807.01	231.02
807.33	231.03
807.65	230.92
807.97	230.86
808.28	230.78
808.60	230.79
808.92	230.72
809.24	230.86
809.56	230.81
809.88	230.68
810.20	230.77
810.52	230.79
810.84	230.69
811.16	230.55
811.48	230.52
811.80	230.56
812.12	230.53
812.43	230.58
812.75	230.54
813.07	230.46
813.39	230.41
813.71	230.25
814.03	230.21
814.35	230.24
814.67	230.13
814.98	230.00
815.30	229.87
815.62	229.84
815.94	229.73
816.26	229.75
816.58	229.76
816.89	229.70
817.21	229.66
817.53	229.66
817.85	229.64
818.17	229.56
818.48	229.37
818.80	229.39
819.12	229.29
819.44	229.27
819.76	229.18
820.07	229.07
820.39	229.11
820.71	229.03
821.03	228.96
821.34	228.96
821.66	229.00
821.98	229.02
822.30	228.89
822.61	228.95
822.93	228.78
823.25	228.75
823.57	228.72
823.88	228.73
824.20	228.60
824.52	228.67
824.83	228.65
825.15	228.59
825.47	228.49
825.79	228.48
826.10	228.46
826.42	228.53
826.74	228.55
827.05	228.57
827.37	228.66
827.69	228.61
828.00	228.59
828.32	228.59
828.64	228.56
828.95	228.72
829.27	228.64
829.58	228.68
829.90	228.62
830.22	228.64
830.53	228.67
830.85	228.80
831.17	228.69
831.48	228.75
831.80	228.87
832.11	228.98
832.43	228.91
832.75	228.93
833.06	229.03
833.38	229.08
833.69	229.10
834.01	229.10
834.32	229.11
834.64	229.12
834.96	229.22
835.27	229.34
835.59	229.32
835.90	229.34
836.22	229.42
836.53	229.50
836.85	229.46
837.16	229.60
837.48	229.68
837.79	229.78
838.11	229.92
838.42	229.96
838.74	229.95
839.05	230.06
839.37	230.16
839.68	230.08
840.00	230.06
840.31	230.10
840.63	230.15
840.94	230.29
841.26	230.33
841.57	230.35
841.88	230.35
842.20	230.41
842.51	230.35
842.83	230.30
843.14	230.52
843.46	230.59
843.77	230.49
844.08	230.39
844.40	230.38
844.71	230.19
845.03	230.15
845.34	230.04
845.65	230.09
845.97	230.00
846.28	229.96
846.60	229.94
846.91	229.88
847.22	229.81
847.54	229.74
847.85	229.77
848.16	229.65
848.48	229.60
848.79	229.59
849.10	229.68
849.42	229.72
849.73	229.47
850.04	229.40
850.36	229.38
850.67	229.45
850.98	229.45
851.30	229.47
851.61	229.48
851.92	229.52
852.23	229.39
852.55	229.31
852.86	229.22
853.17	229.33
853.49	229.30
853.80	229.27
854.11	229.20
854.42	229.10
854.74	229.01
855.05	228.94
855.36	228.71
855.67	228.63
855.99	228.48
856.30	228.65
856.61	228.62
856.92	228.54
857.23	228.40
857.55	228.41
857.86	228.30
858.17	228.20
858.48	228.11
858.79	228.10
859.11	228.09
859.42	228.06
859.73	227.92
860.04	227.90
860.35	227.83
860.66	227.87
860.98	227.92
861.29	227.90
861.60	227.90
861.91	227.96
862.22	227.93
862.53	228.03
862.84	227.81
863.16	227.91
863.47	227.88
863.78	227.82
864.09	227.76
864.40	227.65
864.71	227.60
865.02	227.67
865.33	227.56
865.64	227.58
865.95	227.59
866.27	227.74
866.58	227.66
866.89	227.78
867.20	227.64
867.51	227.53
867.82	227.56
868.13	227.66
868.44	227.70
868.75	227.73
869.06	227.71
869.37	227.75
869.68	227.75
869.99	227.80
870.30	227.91
870.61	227.86
870.92	228.06
871.23	228.10
871.54	228.10
871.85	228.21
872.16	228.28
872.47	228.29
872.78	228.18
873.09	228.20
873.40	228.22
873.71	228.27
874.02	228.33
874.33	228.35
874.64	228.33
874.95	228.43
875.26	228.46
875.56	228.47
875.87	228.52
876.18	228.50
876.49	228.70
876.80	228.73
877.11	228.82
877.42	228.86
877.73	228.99
878.04	229.09
878.35	229.29
878.66	229.23
878.96	229.32
879.27	229.28
879.58	229.49
879.89	229.40
880.20	229.48
880.51	229.48
880.82	229.61
881.12	229.56
881.43	229.51
881.74	229.47
882.05	229.51
882.36	229.52
882.67	229.59
882.97	229.39
883.28	229.28
883.59	229.22
883.90	229.23
884.21	229.23
884.51	229.10
884.82	228.98
885.13	229.00
885.44	229.00
885.74	229.03
886.05	228.90
886.36	228.90
886.67	228.86
886.98	228.99
887.28	229.01
887.59	229.10
887.90	229.00
888.20	229.00
888.51	228.96
888.82	228.85
889.13	228.75
889.43	228.90
889.74	228.93
890.05	229.00
890.35	228.91
890.66	228.74
890.97	228.78
891.28	228.71
891.58	228.71
891.89	228.63
892.20	228.60
892.50	228.60
892.81	228.56
893.12	228.51
893.42	228.37
893.73	228.30
894.04	228.19
894.34	228.18
894.65	228.20
894.95	228.10
895.26	228.12
895.57	228.20
895.87	227.98
896.18	227.94
896.48	227.87
896.79	227.87
897.10	227.87
897.40	227.87
897.71	227.79
898.01	227.74
898.32	227.71
898.63	227.72
898.93	227.62
899.24	227.63
899.54	227.65
899.85	227.61
900.15	227.51
900.46	227.51
900.76	227.52
901.07	227.46
901.38	227.45
901.68	227.48
901.99	227.33
902.29	227.39
902.60	227.36
902.90	227.22
903.21	227.18
903.51	227.26
903.82	227.30
904.12	227.34
904.43	227.30
904.73	227.28
905.03	227.18
905.34	227.44
905.64	227.30
905.95	227.23
906.25	227.21
906.56	227.25
906.86	227.25
907.17	227.26
907.47	227.26
907.77	227.30
908.08	227.22
908.38	227.23
908.69	227.23
908.99	227.30
909.30	227.42
909.60	227.56
909.90	227.52
910.21	227.39
910.51	227.35
910.81	227.42
911.12	227.49
911.42	227.51
911.73	227.28
912.03	227.51
912.33	227.63
912.64	227.65
912.94	227.72
913.24	227.77
913.55	227.84
913.85	227.86
914.15	227.85
914.46	227.91
914.76	227.92
915.06	227.93
915.37	227.92
915.67	227.90
915.97	227.85
916.27	227.81
916.58	227.90
916.88	228.03
917.18	228.05
917.49	228.24
917.79	228.31
918.09	228.50
918.39	228.51
918.70	228.53
919.00	228.58
919.30	228.54
919.60	228.44
919.91	228.38
920.21	228.41
920.51	228.48
920.81	228.56
921.12	228.67
921.42	228.64
921.72	228.70
922.02	228.78
922.32	228.84
922.63	228.96
922.93	229.14
923.23	229.15
923.53	229.07
923.83	228.92
924.13	228.93
924.44	228.87
924.74	228.90
925.04	228.93
925.34	228.93
925.64	228.91
925.94	229.00
926.24	229.19
926.55	229.17
926.85	229.14
927.15	229.06
927.45	229.05
927.75	229.16
928.05	229.13
928.35	229.11
928.65	229.10
928.95	229.00
929.26	228.85
929.56	228.83
929.86	228.92
930.16	228.84
930.46	228.79
930.76	228.73
931.06	228.54
931.36	228.48
931.66	228.52
931.96	228.57
932.26	228.55
932.56	228.32
932.86	228.36
933.16	228.29
933.46	228.34
933.76	228.33
934.06	228.29
934.36	228.39
934.66	228.33
934.96	228.24
935.26	228.20
935.56	228.18
935.86	228.21
936.16	228.15
936.46	228.20
936.76	228.23
937.06	228.22
937.36	228.29
937.66	228.31
937.96	228.25
938.26	228.20
938.56	228.23
938.86	228.27
939.16	228.24
939.46	228.39
939.76	228.33
940.06	228.19
940.35	228.06
940.65	227.91
940.95	227.95
941.25	227.97
941.55	228.03
941.85	228.16
942.15	228.10
942.45	228.14
942.75	228.13
943.04	228.11
943.34	228.10
943.64	228.01
943.94	227.98
944.24	228.04
944.54	227.91
944.84	227.90
945.13	227.95
945.43	227.94
945.73	227.91
946.03	228.04
946.33	228.09
946.62	228.07
946.92	228.07
947.22	228.04
947.52	228.02
947.82	228.02
948.11	227.88
948.41	227.79
948.71	227.72
949.01	227.68
949.31	227.75
949.60	227.81
949.90	227.84
950.20	227.88
950.50	227.82
950.79	227.92
951.09	227.94
951.39	227.91
951.69	227.96
951.98	227.97
952.28	227.80
952.58	227.75
952.87	227.85
953.17	227.89
953.47	227.89
953.76	227.93
954.06	227.90
954.36	227.91
954.66	228.07
954.95	228.13
955.25	228.16
955.55	228.18
955.84	228.09
956.14	228.10
956.44	228.10
956.73	228.07
957.03	228.08
957.32	228.06
957.62	228.04
957.92	228.09
958.21	228.02
958.51	228.29
958.81	228.38
959.10	228.45
959.40	228.50
959.69	228.65
959.99	228.75
960.29	228.79
960.58	228.77
960.88	228.74
961.17	228.85
961.47	228.96
961.76	228.86
962.06	228.99
962.36	229.12
962.65	229.09
962.95	229.05
963.24	229.03
963.54	229.07
963.83	229.07
964.13	229.10
964.42	229.13
964.72	228.96
965.01	228.89
965.31	228.89
965.60	228.86
965.90	228.91
966.19	228.80
966.49	228.85
966.78	228.90
967.08	228.90
967.37	228.85
967.67	228.75
967.96	228.80
968.26	228.82
968.55	228.79
968.85	228.74
969.14	228.86
969.43	228.93
969.73	228.92
970.02	228.89
970.32	228.78
970.61	228.74
970.91	228.70
971.20	228.72
971.49	228.66
971.79	228.65
972.08	228.51
972.38	228.48
972.67	228.44
972.96	228.41
973.26	228.41
973.55	228.44
973.85	228.43
974.14	228.48
974.43	228.51
974.73	228.49
975.02	228.56
975.31	228.51
975.61	228.42
975.90	228.43
976.19	228.44
976.49	228.48
976.78	228.40
977.07	228.40
977.37	228.46
977.66	228.46
977.95	228.46
978.24	228.51
978.54	228.58
978.83	228.51
979.12	228.50
979.42	228.51
979.71	228.44
980.00	228.47
980.29	228.45
980.59	228.22
980.88	228.26
981.17	228.35
981.46	228.38
981.76	228.44
982.05	228.43
982.34	228.47
982.63	228.47
982.93	228.56
983.22	228.57
983.51	228.62
983.80	228.56
984.09	228.59
984.39	228.56
984.68	228.54
984.97	228.60
985.26	228.57
985.55	228.49
985.85	228.41
986.14	228.41
986.43	228.38
986.72	228.44
987.01	228.38
987.30	228.22
987.59	228.18
987.89	228.17
988.18	228.14
988.47	228.08
988.76	228.00
989.05	228.01
989.34	228.04
989.63	228.03
989.92	228.07
990.22	227.94
990.51	227.82
990.80	227.79
991.09	227.77
991.38	227.79
991.67	227.86
991.96	227.93
992.25	227.88
992.54	227.86
992.83	227.89
993.12	227.87
993.41	227.92
993.70	227.89
993.99	227.83
994.28	227.75
994.58	227.83
994.87	227.87
995.16	227.83
995.45	227.84
995.74	227.67
996.03	227.70
996.32	227.73
996.61	227.86
996.90	227.86
997.19	227.90
997.48	228.02
997.77	227.96
998.06	227.90
998.34	227.83
998.63	227.89
998.92	227.90
999.21	227.90
999.50	227.97
999.79	228.05
1000.08	228.07
1000.37	228.19
1000.66	228.20
1000.95	228.28
1001.24	228.26
1001.53	228.25
1001.82	228.51
1002.11	228.41
1002.40	228.53
1002.68	228.51
1002.97	228.63
1003.26	228.59
1003.55	228.44
1003.84	228.46
1004.13	228.59
1004.42	228.72
1004.71	228.62
1004.99	228.55
1005.28	228.65
1005.57	228.53
1005.86	228.50
1006.15	228.50
1006.44	228.50
1006.72	228.56
1007.01	228.51
1007.30	228.58
1007.59	228.49
1007.88	228.29
1008.17	228.42
1008.45	228.39
1008.74	228.36
1009.03	228.37
1009.32	228.44
1009.60	228.43
1009.89	228.42
1010.18	228.27
1010.47	228.25
1010.76	228.30
1011.04	228.32
1011.33	228.31
1011.62	228.41
1011.91	228.44
1012.19	228.46
1012.48	228.48
1012.77	228.45
1013.05	228.50
1013.34	228.52
1013.63	228.50
1013.92	228.54
1014.20	228.47
1014.49	228.49
1014.78	228.45
1015.06	228.30
1015.35	228.22
1015.64	228.30
1015.92	228.22
1016.21	228.33
1016.50	228.26
1016.78	228.26
1017.07	228.29
1017.36	228.26
1017.64	228.17
1017.93	228.20
1018.22	228.17
1018.50	228.04
1018.79	227.95
1019.08	227.79
1019.36	227.77
1019.65	227.79
1019.93	227.85
1020.22	227.88
1020.51	227.98
1020.79	228.11
1021.08	227.60
1021.36	226.70
1021.65	227.40
1021.94	225.90
1022.22	228.50
1022.51	227.60
1022.79	228.70
1023.08	229.00
1023.36	231.70
1023.65	230.10
>>>>>End Processed Spectral Data<<<<<
