SpectraSuite Data File
++++++++++++++++++++++++++++++++++++
Date: Fri Feb 01 14:35:56 EST 2013
User: group
Dark Spectrum Present: No
Reference Spectrum Present: No
Number of Sampled Component Spectra: 1
Spectrometers: USB2E7196
Integration Time (usec): 70000 (USB2E7196)
Spectra Averaged: 10 (USB2E7196)
Boxcar Smoothing: 10 (USB2E7196)
Correct for Electrical Dark: No (USB2E7196)
Strobe/Lamp Enabled: No (USB2E7196)
Correct for Detector Non-linearity: No (USB2E7196)
Correct for Stray Light: No (USB2E7196)
Number of Pixels in Processed Spectrum: 2048
>>>>>Begin Processed Spectral Data<<<<<
339.09	0.00
339.48	217.30
339.86	216.00
340.24	218.90
340.63	219.70
341.01	224.50
341.39	221.90
341.78	225.20
342.16	224.90
342.54	225.40
342.93	214.72
343.31	225.55
343.69	226.12
344.07	226.72
344.46	227.09
344.84	227.48
345.22	227.65
345.60	227.95
345.99	228.15
346.37	228.43
346.75	228.52
347.13	228.41
347.52	228.46
347.90	228.52
348.28	228.56
348.66	228.53
349.05	228.56
349.43	228.64
349.81	228.62
350.19	228.72
350.57	228.68
350.96	228.70
351.34	228.80
351.72	228.73
352.10	228.65
352.48	228.71
352.87	228.83
353.25	228.93
353.63	228.99
354.01	228.97
354.39	228.92
354.77	229.06
355.15	229.27
355.54	229.31
355.92	229.37
356.30	229.42
356.68	229.67
357.06	229.66
357.44	229.66
357.82	229.64
358.20	229.67
358.58	229.80
358.97	229.89
359.35	229.93
359.73	230.07
360.11	230.22
360.49	230.37
360.87	230.36
361.25	230.36
361.63	230.40
362.01	230.40
362.39	230.41
362.77	230.34
363.15	230.29
363.53	230.33
363.91	230.30
364.29	230.29
364.67	230.09
365.05	230.12
365.43	230.17
365.81	230.20
366.19	230.24
366.57	230.31
366.95	230.33
367.33	230.21
367.71	230.15
368.09	230.18
368.47	230.06
368.85	230.03
369.23	230.00
369.61	229.88
369.99	229.91
370.37	229.93
370.75	230.02
371.13	229.93
371.51	229.78
371.89	229.72
372.27	229.66
372.65	229.62
373.03	229.58
373.41	229.42
373.78	229.32
374.16	229.22
374.54	229.05
374.92	228.93
375.30	228.98
375.68	228.90
376.06	228.78
376.44	228.71
376.82	228.56
377.19	228.46
377.57	228.36
377.95	228.29
378.33	228.14
378.71	227.85
379.09	227.70
379.47	227.75
379.84	227.63
380.22	227.47
380.60	227.36
380.98	227.23
381.36	227.23
381.73	227.16
382.11	227.07
382.49	226.99
382.87	226.87
383.25	226.73
383.62	226.90
384.00	226.77
384.38	226.82
384.76	226.79
385.13	226.83
385.51	226.81
385.89	226.73
386.27	226.65
386.64	226.75
387.02	226.82
387.40	226.66
387.78	226.59
388.15	226.69
388.53	226.69
388.91	226.72
389.29	226.68
389.66	226.69
390.04	226.54
390.42	226.57
390.79	226.54
391.17	226.59
391.55	226.45
391.92	226.51
392.30	226.45
392.68	226.53
393.05	226.59
393.43	226.63
393.81	226.77
394.18	226.82
394.56	226.86
394.94	227.00
395.31	227.06
395.69	227.26
396.06	227.32
396.44	227.35
396.82	227.43
397.19	227.58
397.57	227.65
397.95	227.87
398.32	228.00
398.70	228.15
399.07	228.28
399.45	228.28
399.82	228.35
400.20	228.42
400.58	228.49
400.95	228.51
401.33	228.70
401.70	228.87
402.08	229.07
402.45	229.18
402.83	229.33
403.20	229.54
403.58	229.65
403.95	229.85
404.33	230.05
404.71	230.26
405.08	230.57
405.46	230.78
405.83	231.12
406.21	231.31
406.58	231.68
406.96	232.03
407.33	232.45
407.70	232.85
408.08	233.42
408.45	233.81
408.83	234.27
409.20	234.70
409.58	234.98
409.95	235.50
410.33	236.13
410.70	236.66
411.08	237.29
411.45	237.85
411.82	238.52
412.20	239.28
412.57	240.16
412.95	240.82
413.32	241.80
413.69	242.58
414.07	243.48
414.44	244.48
414.82	245.50
415.19	246.72
415.56	247.99
415.94	249.24
416.31	250.67
416.68	252.08
417.06	253.66
417.43	255.27
417.81	257.00
418.18	258.83
418.55	260.70
418.93	262.70
419.30	264.91
419.67	267.08
420.04	269.44
420.42	271.82
420.79	274.55
421.16	277.17
421.54	280.04
421.91	283.01
422.28	286.08
422.66	289.27
423.03	292.44
423.40	295.76
423.77	299.19
424.15	302.73
424.52	306.50
424.89	310.52
425.26	314.54
425.64	318.30
426.01	322.32
426.38	326.61
426.75	330.83
427.13	335.34
427.50	340.00
427.87	344.87
428.24	349.68
428.61	354.36
428.99	359.46
429.36	365.11
429.73	370.50
430.10	375.81
430.47	381.40
430.85	387.00
431.22	392.90
431.59	399.36
431.96	405.58
432.33	412.42
432.70	418.88
433.08	426.44
433.45	433.50
433.82	440.66
434.19	448.75
434.56	456.60
434.93	464.00
435.30	471.37
435.68	479.43
436.05	487.46
436.42	495.45
436.79	502.87
437.16	510.50
437.53	518.88
437.90	527.20
438.27	535.14
438.64	543.57
439.01	551.55
439.38	558.40
439.75	565.12
440.13	572.71
440.50	580.03
440.87	586.14
441.24	592.51
441.61	599.67
441.98	604.66
442.35	610.81
442.72	616.89
443.09	622.87
443.46	626.89
443.83	629.42
444.20	631.91
444.57	635.18
444.94	637.25
445.31	639.31
445.68	641.28
446.05	642.81
446.42	642.95
446.79	643.03
447.16	642.96
447.53	643.19
447.90	641.19
448.27	639.02
448.64	635.42
449.01	633.39
449.37	628.61
449.74	624.17
450.11	618.68
450.48	612.77
450.85	606.68
451.22	601.36
451.59	596.70
451.96	592.10
452.33	585.52
452.70	579.60
453.07	572.26
453.43	564.84
453.80	557.70
454.17	550.69
454.54	543.74
454.91	536.40
455.28	529.26
455.65	522.52
456.02	515.77
456.38	510.11
456.75	502.87
457.12	496.89
457.49	491.01
457.86	485.28
458.23	480.34
458.59	474.70
458.96	469.02
459.33	463.92
459.70	458.77
460.07	454.66
460.43	449.91
460.80	445.36
461.17	441.41
461.54	437.16
461.91	433.13
462.27	429.34
462.64	426.08
463.01	422.31
463.38	418.68
463.74	415.14
464.11	412.08
464.48	409.13
464.85	405.96
465.21	403.58
465.58	400.86
465.95	397.71
466.32	395.26
466.68	392.58
467.05	390.09
467.42	387.47
467.78	385.00
468.15	382.50
468.52	380.72
468.88	378.27
469.25	376.05
469.62	374.27
469.98	372.08
470.35	370.25
470.72	368.49
471.08	366.55
471.45	364.94
471.82	363.19
472.18	361.35
472.55	360.02
472.92	358.35
473.28	356.98
473.65	355.64
474.02	354.28
474.38	353.14
474.75	352.10
475.11	350.91
475.48	349.85
475.85	349.08
476.21	348.25
476.58	347.49
476.94	346.91
477.31	346.16
477.67	345.54
478.04	344.76
478.41	344.25
478.77	343.99
479.14	343.59
479.50	343.28
479.87	343.19
480.23	343.00
480.60	342.73
480.96	342.45
481.33	342.44
481.69	342.46
482.06	342.47
482.42	342.31
482.79	342.48
483.15	342.78
483.52	343.03
483.88	343.19
484.25	343.44
484.61	343.69
484.98	344.01
485.34	344.59
485.71	345.20
486.07	345.75
486.44	346.20
486.80	346.95
487.17	347.57
487.53	348.44
487.90	349.34
488.26	350.42
488.62	351.49
488.99	352.33
489.35	353.32
489.72	354.38
490.08	355.69
490.44	356.94
490.81	358.13
491.17	359.47
491.54	360.80
491.90	362.13
492.26	363.54
492.63	365.20
492.99	366.69
493.36	368.32
493.72	370.00
494.08	371.66
494.45	373.37
494.81	375.31
495.17	377.00
495.54	378.81
495.90	380.55
496.26	382.38
496.63	384.26
496.99	386.32
497.35	388.48
497.72	390.61
498.08	392.55
498.44	394.64
498.80	396.76
499.17	398.91
499.53	401.22
499.89	403.48
500.26	405.40
500.62	407.33
500.98	409.45
501.34	411.56
501.71	413.68
502.07	415.65
502.43	417.52
502.79	419.50
503.16	421.54
503.52	423.56
503.88	425.36
504.24	427.51
504.60	429.48
504.97	431.34
505.33	432.96
505.69	434.92
506.05	436.74
506.41	438.35
506.78	439.98
507.14	441.45
507.50	443.02
507.86	444.89
508.22	446.65
508.59	448.14
508.95	449.60
509.31	451.13
509.67	452.51
510.03	453.94
510.39	455.32
510.75	456.40
511.12	457.72
511.48	459.08
511.84	460.10
512.20	461.12
512.56	462.10
512.92	463.13
513.28	464.18
513.64	465.00
514.00	465.82
514.37	466.83
514.73	467.62
515.09	468.27
515.45	468.81
515.81	469.44
516.17	470.13
516.53	470.83
516.89	471.36
517.25	471.92
517.61	472.48
517.97	473.05
518.33	473.53
518.69	474.03
519.05	474.53
519.41	475.05
519.77	475.63
520.13	476.01
520.49	476.67
520.85	476.92
521.21	477.47
521.57	478.27
521.93	478.58
522.29	479.24
522.65	479.65
523.01	480.05
523.37	480.45
523.73	480.93
524.09	481.43
524.45	481.98
524.81	482.50
525.17	483.24
525.53	484.05
525.89	484.97
526.25	485.60
526.61	486.39
526.97	487.35
527.33	488.08
527.68	489.40
528.04	490.18
528.40	491.30
528.76	492.54
529.12	493.64
529.48	494.94
529.84	496.11
530.20	497.72
530.56	499.50
530.91	501.30
531.27	503.02
531.63	504.63
531.99	506.34
532.35	508.19
532.71	509.83
533.07	511.60
533.42	513.58
533.78	515.81
534.14	517.86
534.50	519.83
534.86	522.11
535.21	523.95
535.57	526.28
535.93	528.68
536.29	531.13
536.65	533.47
537.00	535.87
537.36	538.30
537.72	540.97
538.08	543.28
538.44	545.85
538.79	548.26
539.15	550.80
539.51	553.69
539.87	556.63
540.22	559.55
540.58	562.65
540.94	565.58
541.29	568.42
541.65	571.42
542.01	574.64
542.37	577.85
542.72	581.14
543.08	584.29
543.44	587.44
543.79	590.23
544.15	593.52
544.51	597.37
544.87	600.98
545.22	604.39
545.58	607.95
545.94	611.30
546.29	614.98
546.65	618.66
547.01	622.26
547.36	625.77
547.72	629.35
548.07	632.81
548.43	636.61
548.79	640.05
549.14	643.75
549.50	647.04
549.86	650.39
550.21	654.15
550.57	657.99
550.92	661.62
551.28	665.60
551.64	669.24
551.99	672.66
552.35	676.16
552.70	679.85
553.06	683.63
553.41	687.23
553.77	691.07
554.13	694.90
554.48	698.57
554.84	702.14
555.19	705.80
555.55	709.54
555.90	712.92
556.26	716.69
556.61	720.22
556.97	724.15
557.32	728.09
557.68	731.41
558.03	734.90
558.39	738.51
558.74	742.14
559.10	745.79
559.45	749.29
559.81	753.29
560.16	756.78
560.52	760.34
560.87	764.10
561.23	767.46
561.58	771.16
561.94	774.67
562.29	778.14
562.64	781.59
563.00	784.96
563.35	788.64
563.71	792.38
564.06	795.89
564.42	798.99
564.77	802.34
565.12	805.93
565.48	809.57
565.83	813.04
566.19	816.33
566.54	819.41
566.89	822.54
567.25	825.36
567.60	828.73
567.96	832.00
568.31	835.09
568.66	837.99
569.02	840.60
569.37	843.02
569.72	845.70
570.08	848.49
570.43	851.05
570.78	853.55
571.14	855.65
571.49	858.12
571.84	860.82
572.20	862.84
572.55	864.80
572.90	866.78
573.26	868.98
573.61	870.72
573.96	872.80
574.31	874.25
574.67	875.76
575.02	876.62
575.37	877.77
575.72	878.80
576.08	880.29
576.43	881.61
576.78	883.22
577.13	884.79
577.49	885.78
577.84	886.79
578.19	887.69
578.54	888.81
578.90	889.56
579.25	890.04
579.60	890.99
579.95	891.94
580.30	892.23
580.66	892.58
581.01	893.11
581.36	893.32
581.71	893.89
582.06	894.44
582.42	895.12
582.77	895.60
583.12	896.07
583.47	896.30
583.82	896.62
584.17	896.50
584.53	896.59
584.88	896.84
585.23	896.91
585.58	896.84
585.93	896.57
586.28	896.63
586.63	896.80
586.98	896.56
587.34	896.20
587.69	896.03
588.04	895.77
588.39	895.71
588.74	895.08
589.09	894.62
589.44	894.02
589.79	893.66
590.14	893.05
590.49	892.46
590.84	891.68
591.19	890.67
591.54	889.48
591.89	888.07
592.25	887.24
592.60	885.86
592.95	884.79
593.30	883.69
593.65	882.39
594.00	881.21
594.35	880.32
594.70	878.84
595.05	877.54
595.40	876.10
595.75	874.37
596.10	873.30
596.45	872.17
596.80	871.06
597.15	869.46
597.50	867.64
597.85	866.23
598.19	864.86
598.54	863.73
598.89	862.68
599.24	861.58
599.59	859.75
599.94	858.57
600.29	857.16
600.64	855.64
600.99	853.74
601.34	851.85
601.69	849.60
602.04	848.03
602.39	846.49
602.74	845.04
603.08	843.56
603.43	841.99
603.78	840.43
604.13	838.42
604.48	836.73
604.83	835.17
605.18	833.14
605.53	831.09
605.87	828.79
606.22	826.76
606.57	824.50
606.92	822.83
607.27	820.88
607.62	818.99
607.96	817.03
608.31	815.33
608.66	813.09
609.01	811.00
609.36	808.75
609.70	806.16
610.05	803.45
610.40	801.28
610.75	798.80
611.10	796.07
611.44	793.32
611.79	791.02
612.14	788.45
612.49	785.65
612.83	782.98
613.18	780.49
613.53	778.02
613.88	775.60
614.22	772.74
614.57	770.05
614.92	767.25
615.27	764.55
615.61	761.85
615.96	759.30
616.31	756.71
616.65	754.51
617.00	752.34
617.35	749.64
617.70	746.74
618.04	743.94
618.39	741.22
618.74	738.68
619.08	735.82
619.43	733.22
619.78	730.88
620.12	728.48
620.47	725.84
620.82	723.01
621.16	720.52
621.51	717.93
621.85	715.27
622.20	712.48
622.55	709.94
622.89	707.03
623.24	704.88
623.59	702.50
623.93	700.04
624.28	697.34
624.62	695.21
624.97	692.95
625.32	690.59
625.66	688.24
626.01	685.81
626.35	683.21
626.70	680.67
627.04	678.24
627.39	675.42
627.73	672.90
628.08	670.68
628.43	667.90
628.77	665.54
629.12	663.02
629.46	660.49
629.81	657.66
630.15	655.20
630.50	652.34
630.84	649.53
631.19	646.62
631.53	643.76
631.88	640.78
632.22	637.74
632.57	635.00
632.91	632.23
633.26	629.62
633.60	627.09
633.95	624.72
634.29	621.96
634.64	619.65
634.98	616.89
635.32	614.20
635.67	611.79
636.01	609.08
636.36	606.45
636.70	604.01
637.05	601.77
637.39	599.31
637.73	596.67
638.08	594.67
638.42	592.29
638.77	590.29
639.11	587.93
639.45	585.59
639.80	583.22
640.14	580.77
640.49	578.50
640.83	575.86
641.17	573.29
641.52	570.89
641.86	568.47
642.20	566.13
642.55	563.60
642.89	561.19
643.23	558.81
643.58	556.75
643.92	554.25
644.26	551.94
644.61	549.64
644.95	547.43
645.29	544.41
645.64	541.76
645.98	539.21
646.32	536.88
646.66	534.58
647.01	532.34
647.35	530.03
647.69	527.77
648.04	525.68
648.38	523.21
648.72	520.76
649.06	518.26
649.41	515.91
649.75	513.73
650.09	511.36
650.43	508.94
650.78	506.30
651.12	504.14
651.46	501.85
651.80	499.74
652.14	497.60
652.49	495.63
652.83	493.55
653.17	491.18
653.51	488.89
653.85	486.62
654.20	484.03
654.54	481.77
654.88	479.26
655.22	476.76
655.56	474.50
655.90	472.31
656.25	470.20
656.59	468.26
656.93	466.11
657.27	464.12
657.61	462.05
657.95	460.09
658.29	457.90
658.64	455.72
658.98	453.48
659.32	451.26
659.66	449.14
660.00	447.16
660.34	445.17
660.68	443.24
661.02	441.17
661.36	439.31
661.70	437.40
662.05	435.65
662.39	434.06
662.73	432.27
663.07	430.70
663.41	429.00
663.75	427.11
664.09	425.31
664.43	423.46
664.77	421.79
665.11	420.12
665.45	418.44
665.79	416.76
666.13	415.12
666.47	413.41
666.81	411.71
667.15	409.85
667.49	408.20
667.83	406.55
668.17	404.76
668.51	403.16
668.85	401.60
669.19	400.10
669.53	398.43
669.87	396.93
670.21	395.35
670.55	393.77
670.89	392.39
671.23	391.01
671.57	389.51
671.91	387.90
672.25	386.35
672.58	385.00
672.92	383.61
673.26	382.22
673.60	380.88
673.94	379.68
674.28	378.47
674.62	377.30
674.96	376.04
675.30	374.94
675.64	373.65
675.97	372.36
676.31	371.17
676.65	369.86
676.99	368.61
677.33	367.24
677.67	365.98
678.01	364.57
678.34	363.21
678.68	362.00
679.02	360.90
679.36	359.77
679.70	358.47
680.04	357.21
680.37	355.99
680.71	354.83
681.05	353.46
681.39	352.26
681.73	350.98
682.06	349.81
682.40	348.73
682.74	347.84
683.08	346.81
683.42	345.60
683.75	344.51
684.09	343.35
684.43	342.36
684.77	341.15
685.10	340.09
685.44	339.10
685.78	338.00
686.12	336.90
686.45	335.58
686.79	334.45
687.13	333.39
687.46	332.28
687.80	331.13
688.14	330.09
688.48	329.03
688.81	327.93
689.15	326.88
689.49	325.83
689.82	324.66
690.16	323.53
690.50	322.47
690.83	321.53
691.17	320.45
691.51	319.41
691.84	318.53
692.18	317.55
692.52	316.50
692.85	315.43
693.19	314.63
693.52	313.90
693.86	312.97
694.20	312.04
694.53	311.28
694.87	310.43
695.21	309.57
695.54	308.73
695.88	307.75
696.21	306.85
696.55	305.95
696.88	305.11
697.22	304.38
697.56	303.56
697.89	302.66
698.23	301.99
698.56	301.21
698.90	300.48
699.23	299.64
699.57	298.96
699.90	298.26
700.24	297.38
700.58	296.47
700.91	295.82
701.25	295.24
701.58	294.53
701.92	293.89
702.25	293.24
702.59	292.51
702.92	292.08
703.26	291.44
703.59	290.84
703.93	290.40
704.26	289.81
704.60	289.17
704.93	288.60
705.26	287.82
705.60	287.24
705.93	286.70
706.27	286.15
706.60	285.62
706.94	285.07
707.27	284.53
707.61	284.07
707.94	283.50
708.27	282.87
708.61	282.27
708.94	281.70
709.28	281.14
709.61	280.61
709.94	280.03
710.28	279.43
710.61	279.00
710.95	278.22
711.28	277.69
711.61	277.06
711.95	276.60
712.28	276.10
712.61	275.65
712.95	275.20
713.28	274.90
713.61	274.41
713.95	273.97
714.28	273.48
714.61	273.00
714.95	272.57
715.28	272.03
715.61	271.47
715.95	271.10
716.28	270.70
716.61	270.37
716.95	269.85
717.28	269.55
717.61	269.15
717.94	268.78
718.28	268.29
718.61	267.96
718.94	267.58
719.27	267.29
719.61	266.81
719.94	266.33
720.27	265.71
720.60	265.28
720.94	264.91
721.27	264.52
721.60	264.12
721.93	263.69
722.27	263.46
722.60	263.19
722.93	262.81
723.26	262.40
723.59	262.00
723.93	261.71
724.26	261.40
724.59	260.96
724.92	260.68
725.25	260.37
725.59	259.99
725.92	259.48
726.25	259.15
726.58	258.76
726.91	258.41
727.24	258.19
727.57	257.87
727.91	257.42
728.24	257.15
728.57	256.84
728.90	256.60
729.23	256.19
729.56	255.95
729.89	255.74
730.22	255.40
730.55	254.98
730.89	254.70
731.22	254.35
731.55	253.97
731.88	253.71
732.21	253.42
732.54	253.17
732.87	252.95
733.20	252.71
733.53	252.50
733.86	252.24
734.19	252.06
734.52	251.79
734.85	251.74
735.18	251.37
735.51	251.16
735.84	250.95
736.17	250.74
736.50	250.44
736.83	250.25
737.16	249.94
737.49	249.83
737.82	249.66
738.15	249.42
738.48	249.18
738.81	248.90
739.14	248.62
739.47	248.37
739.80	248.25
740.13	247.94
740.46	247.77
740.79	247.54
741.12	247.20
741.45	246.91
741.78	246.62
742.11	246.51
742.44	246.28
742.77	246.10
743.10	245.87
743.43	245.62
743.75	245.30
744.08	245.40
744.41	245.15
744.74	245.03
745.07	244.84
745.40	244.72
745.73	244.61
746.06	244.47
746.39	244.29
746.71	244.07
747.04	243.99
747.37	243.80
747.70	243.70
748.03	243.61
748.36	243.58
748.68	243.30
749.01	243.18
749.34	243.05
749.67	242.81
750.00	242.68
750.33	242.72
750.65	242.61
750.98	242.37
751.31	242.24
751.64	241.95
751.97	241.95
752.29	241.89
752.62	241.80
752.95	241.71
753.28	241.60
753.60	241.37
753.93	241.28
754.26	241.13
754.59	240.87
754.91	240.68
755.24	240.52
755.57	240.44
755.90	240.29
756.22	240.11
756.55	239.96
756.88	239.81
757.20	239.54
757.53	239.43
757.86	239.31
758.19	239.24
758.51	239.09
758.84	238.96
759.17	238.82
759.49	238.62
759.82	238.62
760.15	238.57
760.47	238.52
760.80	238.35
761.13	238.30
761.45	238.20
761.78	238.25
762.11	238.02
762.43	237.99
762.76	237.90
763.08	237.91
763.41	237.76
763.74	237.70
764.06	237.52
764.39	237.43
764.71	237.25
765.04	236.97
765.37	236.87
765.69	236.63
766.02	236.46
766.34	236.36
766.67	236.12
767.00	235.97
767.32	236.03
767.65	236.12
767.97	235.94
768.30	235.91
768.62	235.67
768.95	235.56
769.27	235.44
769.60	235.37
769.92	235.13
770.25	235.12
770.57	235.01
770.90	235.02
771.22	234.86
771.55	234.79
771.87	234.84
772.20	234.77
772.52	234.88
772.85	235.09
773.17	234.93
773.50	234.85
773.82	234.77
774.15	234.54
774.47	234.22
774.80	234.16
775.12	233.96
775.45	233.90
775.77	233.97
776.09	233.93
776.42	233.77
776.74	233.84
777.07	233.68
777.39	233.66
777.72	233.57
778.04	233.44
778.36	233.38
778.69	233.33
779.01	233.25
779.33	233.08
779.66	232.72
779.98	232.81
780.31	232.78
780.63	232.78
780.95	232.86
781.28	232.79
781.60	232.79
781.92	232.90
782.25	232.86
782.57	232.76
782.89	232.70
783.22	232.72
783.54	232.62
783.86	232.58
784.19	232.36
784.51	232.37
784.83	232.38
785.16	232.32
785.48	232.27
785.80	232.37
786.12	232.37
786.45	232.33
786.77	232.22
787.09	232.09
787.42	232.09
787.74	231.99
788.06	231.98
788.38	231.97
788.71	231.82
789.03	231.83
789.35	231.81
789.67	231.75
789.99	231.64
790.32	231.58
790.64	231.55
790.96	231.78
791.28	231.68
791.61	231.70
791.93	231.66
792.25	231.73
792.57	231.72
792.89	231.59
793.21	231.71
793.54	231.68
793.86	231.67
794.18	231.71
794.50	231.62
794.82	231.69
795.14	231.72
795.47	231.78
795.79	231.88
796.11	231.75
796.43	231.79
796.75	231.86
797.07	231.88
797.39	232.00
797.71	231.83
798.04	231.76
798.36	231.64
798.68	231.64
799.00	231.65
799.32	231.51
799.64	231.48
799.96	231.50
800.28	231.60
800.60	231.62
800.92	231.47
801.24	231.52
801.56	231.49
801.89	231.30
802.21	231.30
802.53	231.11
802.85	231.25
803.17	231.37
803.49	231.34
803.81	231.25
804.13	231.17
804.45	231.20
804.77	231.24
805.09	231.22
805.41	231.23
805.73	231.07
806.05	231.08
806.37	231.18
806.69	231.10
807.01	230.98
807.33	230.91
807.65	230.81
807.97	230.86
808.28	230.85
808.60	230.94
808.92	230.94
809.24	230.97
809.56	230.86
809.88	230.71
810.20	230.60
810.52	230.63
810.84	230.64
811.16	230.57
811.48	230.48
811.80	230.47
812.12	230.44
812.43	230.55
812.75	230.51
813.07	230.35
813.39	230.25
813.71	230.28
814.03	230.23
814.35	230.20
814.67	230.10
814.98	230.05
815.30	229.93
815.62	229.85
815.94	229.71
816.26	229.72
816.58	229.59
816.89	229.61
817.21	229.59
817.53	229.43
817.85	229.38
818.17	229.33
818.48	229.22
818.80	229.17
819.12	228.95
819.44	228.90
819.76	228.85
820.07	228.76
820.39	228.63
820.71	228.64
821.03	228.60
821.34	228.62
821.66	228.51
821.98	228.53
822.30	228.45
822.61	228.51
822.93	228.40
823.25	228.38
823.57	228.36
823.88	228.39
824.20	228.42
824.52	228.44
824.83	228.59
825.15	228.62
825.47	228.57
825.79	228.61
826.10	228.61
826.42	228.66
826.74	228.75
827.05	228.77
827.37	228.76
827.69	228.81
828.00	228.69
828.32	228.77
828.64	228.66
828.95	228.78
829.27	228.89
829.58	228.93
829.90	229.02
830.22	229.05
830.53	228.91
830.85	228.91
831.17	228.90
831.48	228.89
831.80	228.90
832.11	229.02
832.43	228.96
832.75	229.03
833.06	229.21
833.38	229.14
833.69	229.18
834.01	229.20
834.32	229.20
834.64	229.24
834.96	229.26
835.27	229.33
835.59	229.28
835.90	229.19
836.22	229.30
836.53	229.22
836.85	229.17
837.16	229.40
837.48	229.39
837.79	229.47
838.11	229.37
838.42	229.46
838.74	229.35
839.05	229.37
839.37	229.38
839.68	229.22
840.00	229.24
840.31	229.23
840.63	229.32
840.94	229.41
841.26	229.34
841.57	229.35
841.88	229.39
842.20	229.40
842.51	229.26
842.83	229.30
843.14	229.49
843.46	229.53
843.77	229.50
844.08	229.54
844.40	229.49
844.71	229.47
845.03	229.40
845.34	229.45
845.65	229.49
845.97	229.46
846.28	229.43
846.60	229.46
846.91	229.40
847.22	229.38
847.54	229.25
847.85	229.32
848.16	229.26
848.48	229.22
848.79	229.23
849.10	229.43
849.42	229.30
849.73	229.11
850.04	229.06
850.36	228.98
850.67	228.95
850.98	228.85
851.30	228.85
851.61	228.83
851.92	228.83
852.23	228.85
852.55	228.79
852.86	228.74
853.17	228.70
853.49	228.75
853.80	228.69
854.11	228.72
854.42	228.76
854.74	228.67
855.05	228.63
855.36	228.58
855.67	228.46
855.99	228.40
856.30	228.59
856.61	228.56
856.92	228.57
857.23	228.50
857.55	228.50
857.86	228.52
858.17	228.48
858.48	228.46
858.79	228.49
859.11	228.49
859.42	228.63
859.73	228.66
860.04	228.73
860.35	228.67
860.66	228.71
860.98	228.67
861.29	228.76
861.60	228.81
861.91	228.90
862.22	228.90
862.53	228.94
862.84	228.73
863.16	228.82
863.47	228.66
863.78	228.63
864.09	228.67
864.40	228.70
864.71	228.75
865.02	228.73
865.33	228.66
865.64	228.71
865.95	228.51
866.27	228.67
866.58	228.58
866.89	228.63
867.20	228.65
867.51	228.71
867.82	228.70
868.13	228.75
868.44	228.66
868.75	228.78
869.06	228.86
869.37	228.96
869.68	228.88
869.99	229.00
870.30	229.12
870.61	229.21
870.92	229.19
871.23	229.19
871.54	229.32
871.85	229.31
872.16	229.36
872.47	229.39
872.78	229.24
873.09	229.25
873.40	229.24
873.71	229.21
874.02	229.22
874.33	229.25
874.64	229.21
874.95	229.20
875.26	229.14
875.56	229.07
875.87	229.02
876.18	229.06
876.49	229.28
876.80	229.27
877.11	229.23
877.42	229.18
877.73	229.21
878.04	229.10
878.35	229.17
878.66	229.13
878.96	229.18
879.27	229.13
879.58	229.21
879.89	229.23
880.20	229.31
880.51	229.25
880.82	229.18
881.12	229.16
881.43	229.16
881.74	229.11
882.05	229.08
882.36	229.04
882.67	229.00
882.97	228.73
883.28	228.67
883.59	228.71
883.90	228.81
884.21	228.76
884.51	228.80
884.82	228.81
885.13	228.75
885.44	228.75
885.74	228.80
886.05	228.76
886.36	228.71
886.67	228.58
886.98	228.61
887.28	228.69
887.59	228.65
887.90	228.59
888.20	228.57
888.51	228.66
888.82	228.67
889.13	228.68
889.43	228.76
889.74	228.80
890.05	228.68
890.35	228.60
890.66	228.60
890.97	228.53
891.28	228.48
891.58	228.45
891.89	228.37
892.20	228.28
892.50	228.23
892.81	228.20
893.12	228.16
893.42	228.09
893.73	228.03
894.04	227.95
894.34	227.98
894.65	228.02
894.95	227.91
895.26	227.87
895.57	227.95
895.87	227.88
896.18	227.76
896.48	227.76
896.79	227.74
897.10	227.73
897.40	227.76
897.71	227.77
898.01	227.74
898.32	227.74
898.63	227.78
898.93	227.82
899.24	227.90
899.54	227.93
899.85	227.88
900.15	227.80
900.46	227.85
900.76	227.83
901.07	227.72
901.38	227.77
901.68	227.84
901.99	227.73
902.29	227.68
902.60	227.72
902.90	227.69
903.21	227.62
903.51	227.61
903.82	227.52
904.12	227.47
904.43	227.64
904.73	227.67
905.03	227.67
905.34	227.83
905.64	227.79
905.95	227.84
906.25	227.85
906.56	227.93
906.86	228.01
907.17	228.07
907.47	228.09
907.77	228.06
908.08	227.98
908.38	228.00
908.69	228.09
908.99	228.12
909.30	228.20
909.60	228.40
909.90	228.45
910.21	228.60
910.51	228.57
910.81	228.50
911.12	228.58
911.42	228.62
911.73	228.40
912.03	228.44
912.33	228.49
912.64	228.60
912.94	228.54
913.24	228.51
913.55	228.52
913.85	228.60
914.15	228.62
914.46	228.69
914.76	228.76
915.06	228.81
915.37	228.92
915.67	228.93
915.97	228.76
916.27	228.71
916.58	228.70
916.88	228.79
917.18	228.79
917.49	228.94
917.79	228.92
918.09	228.99
918.39	229.10
918.70	229.05
919.00	229.04
919.30	229.20
919.60	229.22
919.91	229.22
920.21	229.17
920.51	229.14
920.81	229.16
921.12	229.14
921.42	229.10
921.72	229.10
922.02	229.07
922.32	229.13
922.63	229.20
922.93	229.24
923.23	229.26
923.53	229.24
923.83	229.02
924.13	229.01
924.44	229.01
924.74	228.97
925.04	229.06
925.34	228.90
925.64	228.84
925.94	228.83
926.24	228.99
926.55	228.97
926.85	229.02
927.15	229.01
927.45	228.99
927.75	228.90
928.05	228.75
928.35	228.79
928.65	228.89
928.95	228.77
929.26	228.62
929.56	228.66
929.86	228.59
930.16	228.66
930.46	228.71
930.76	228.63
931.06	228.52
931.36	228.36
931.66	228.47
931.96	228.48
932.26	228.45
932.56	228.27
932.86	228.25
933.16	228.24
933.46	228.19
933.76	228.05
934.06	228.08
934.36	228.29
934.66	228.18
934.96	228.18
935.26	228.21
935.56	228.32
935.86	228.21
936.16	228.27
936.46	228.15
936.76	228.14
937.06	228.13
937.36	228.13
937.66	228.18
937.96	228.19
938.26	228.10
938.56	228.11
938.86	228.11
939.16	228.17
939.46	228.17
939.76	228.16
940.06	228.30
940.35	228.30
940.65	228.10
940.95	228.12
941.25	228.00
941.55	228.00
941.85	228.03
942.15	228.06
942.45	228.06
942.75	228.11
943.04	228.08
943.34	228.05
943.64	228.15
943.94	228.14
944.24	228.11
944.54	228.10
944.84	228.10
945.13	228.10
945.43	228.10
945.73	228.03
946.03	228.05
946.33	228.08
946.62	228.08
946.92	228.06
947.22	228.14
947.52	228.20
947.82	228.28
948.11	228.23
948.41	228.19
948.71	228.29
949.01	228.19
949.31	228.18
949.60	228.35
949.90	228.29
950.20	228.36
950.50	228.36
950.79	228.49
951.09	228.52
951.39	228.53
951.69	228.62
951.98	228.78
952.28	228.81
952.58	228.83
952.87	228.91
953.17	229.00
953.47	229.01
953.76	228.98
954.06	228.94
954.36	228.90
954.66	228.88
954.95	228.78
955.25	228.92
955.55	228.91
955.84	228.87
956.14	228.89
956.44	228.84
956.73	228.82
957.03	228.71
957.32	228.65
957.62	228.60
957.92	228.62
958.21	228.50
958.51	228.68
958.81	228.70
959.10	228.74
959.40	228.79
959.69	228.69
959.99	228.74
960.29	228.76
960.58	228.69
960.88	228.85
961.17	228.88
961.47	228.89
961.76	228.96
962.06	228.94
962.36	228.90
962.65	228.94
962.95	229.09
963.24	229.13
963.54	229.23
963.83	229.31
964.13	229.28
964.42	229.27
964.72	229.07
965.01	229.07
965.31	228.92
965.60	228.86
965.90	228.95
966.19	228.83
966.49	228.75
966.78	228.83
967.08	228.70
967.37	228.60
967.67	228.53
967.96	228.53
968.26	228.47
968.55	228.49
968.85	228.41
969.14	228.30
969.43	228.20
969.73	228.14
970.02	228.04
970.32	227.92
970.61	227.89
970.91	227.91
971.20	227.88
971.49	227.90
971.79	227.83
972.08	227.80
972.38	227.85
972.67	227.90
972.96	227.86
973.26	227.87
973.55	228.02
973.85	228.00
974.14	227.99
974.43	227.99
974.73	227.85
975.02	227.91
975.31	227.87
975.61	227.93
975.90	227.89
976.19	227.93
976.49	227.96
976.78	228.01
977.07	228.06
977.37	228.04
977.66	227.90
977.95	227.90
978.24	227.87
978.54	227.87
978.83	227.79
979.12	227.85
979.42	227.77
979.71	227.60
980.00	227.59
980.29	227.51
980.59	227.48
980.88	227.61
981.17	227.66
981.46	227.69
981.76	227.66
982.05	227.67
982.34	227.62
982.63	227.64
982.93	227.65
983.22	227.62
983.51	227.74
983.80	227.85
984.09	227.89
984.39	227.91
984.68	228.01
984.97	228.01
985.26	228.05
985.55	228.17
985.85	228.32
986.14	228.31
986.43	228.45
986.72	228.49
987.01	228.48
987.30	228.45
987.59	228.48
987.89	228.53
988.18	228.51
988.47	228.59
988.76	228.62
989.05	228.62
989.34	228.66
989.63	228.56
989.92	228.56
990.22	228.61
990.51	228.63
990.80	228.45
991.09	228.50
991.38	228.47
991.67	228.48
991.96	228.45
992.25	228.52
992.54	228.40
992.83	228.41
993.12	228.40
993.41	228.43
993.70	228.49
993.99	228.52
994.28	228.63
994.58	228.59
994.87	228.50
995.16	228.55
995.45	228.55
995.74	228.44
996.03	228.56
996.32	228.51
996.61	228.61
996.90	228.71
997.19	228.74
997.48	228.72
997.77	228.70
998.06	228.62
998.34	228.68
998.63	228.65
998.92	228.68
999.21	228.79
999.50	228.73
999.79	228.62
1000.08	228.59
1000.37	228.62
1000.66	228.64
1000.95	228.71
1001.24	228.55
1001.53	228.51
1001.82	228.64
1002.11	228.57
1002.40	228.59
1002.68	228.48
1002.97	228.63
1003.26	228.59
1003.55	228.50
1003.84	228.61
1004.13	228.67
1004.42	228.54
1004.71	228.59
1004.99	228.56
1005.28	228.46
1005.57	228.44
1005.86	228.54
1006.15	228.49
1006.44	228.28
1006.72	228.23
1007.01	228.12
1007.30	228.16
1007.59	228.21
1007.88	228.10
1008.17	228.10
1008.45	228.03
1008.74	228.05
1009.03	227.91
1009.32	227.90
1009.60	227.90
1009.89	227.73
1010.18	227.60
1010.47	227.63
1010.76	227.66
1011.04	227.59
1011.33	227.61
1011.62	227.61
1011.91	227.52
1012.19	227.56
1012.48	227.68
1012.77	227.64
1013.05	227.83
1013.34	227.92
1013.63	227.77
1013.92	227.85
1014.20	227.65
1014.49	227.63
1014.78	227.59
1015.06	227.55
1015.35	227.47
1015.64	227.54
1015.92	227.60
1016.21	227.69
1016.50	227.69
1016.78	227.65
1017.07	227.74
1017.36	227.68
1017.64	227.65
1017.93	227.77
1018.22	227.80
1018.50	227.78
1018.79	227.81
1019.08	227.71
1019.36	227.62
1019.65	227.66
1019.93	227.66
1020.22	227.90
1020.51	228.02
1020.79	228.03
1021.08	228.50
1021.36	228.00
1021.65	227.30
1021.94	228.40
1022.22	226.90
1022.51	227.50
1022.79	228.70
1023.08	229.20
1023.36	229.50
1023.65	227.50
>>>>>End Processed Spectral Data<<<<<
