SpectraSuite Data File
++++++++++++++++++++++++++++++++++++
Date: Fri Feb 01 14:41:11 EST 2013
User: group
Dark Spectrum Present: No
Reference Spectrum Present: No
Number of Sampled Component Spectra: 1
Spectrometers: USB2E7196
Integration Time (usec): 70000 (USB2E7196)
Spectra Averaged: 10 (USB2E7196)
Boxcar Smoothing: 10 (USB2E7196)
Correct for Electrical Dark: No (USB2E7196)
Strobe/Lamp Enabled: No (USB2E7196)
Correct for Detector Non-linearity: No (USB2E7196)
Correct for Stray Light: No (USB2E7196)
Number of Pixels in Processed Spectrum: 2048
>>>>>Begin Processed Spectral Data<<<<<
339.09	0.00
339.48	214.80
339.86	217.80
340.24	218.40
340.63	220.10
341.01	223.30
341.39	222.90
341.78	223.10
342.16	226.40
342.54	226.30
342.93	214.48
343.31	225.33
343.69	225.88
344.07	226.40
344.46	226.86
344.84	227.26
345.22	227.53
345.60	227.79
345.99	228.04
346.37	228.14
346.75	228.26
347.13	228.31
347.52	228.40
347.90	228.41
348.28	228.42
348.66	228.44
349.05	228.43
349.43	228.56
349.81	228.62
350.19	228.83
350.57	228.89
350.96	228.94
351.34	229.08
351.72	229.23
352.10	229.30
352.48	229.28
352.87	229.40
353.25	229.42
353.63	229.52
354.01	229.53
354.39	229.70
354.77	229.76
355.15	229.88
355.54	229.94
355.92	230.02
356.30	230.24
356.68	230.51
357.06	230.64
357.44	230.63
357.82	230.52
358.20	230.54
358.58	230.62
358.97	230.75
359.35	230.80
359.73	230.86
360.11	230.86
360.49	231.02
360.87	231.02
361.25	231.15
361.63	231.31
362.01	231.53
362.39	231.46
362.77	231.45
363.15	231.57
363.53	231.61
363.91	231.60
364.29	231.50
364.67	231.20
365.05	231.08
365.43	231.14
365.81	231.21
366.19	231.23
366.57	231.23
366.95	231.16
367.33	231.11
367.71	231.07
368.09	231.11
368.47	231.14
368.85	231.07
369.23	230.98
369.61	230.82
369.99	230.74
370.37	230.74
370.75	230.81
371.13	230.61
371.51	230.43
371.89	230.40
372.27	230.42
372.65	230.40
373.03	230.42
373.41	230.24
373.78	230.19
374.16	230.09
374.54	229.99
374.92	229.89
375.30	229.72
375.68	229.68
376.06	229.60
376.44	229.46
376.82	229.43
377.19	229.35
377.57	229.18
377.95	229.00
378.33	228.87
378.71	228.76
379.09	228.67
379.47	228.76
379.84	228.63
380.22	228.53
380.60	228.41
380.98	228.29
381.36	228.18
381.73	228.05
382.11	228.04
382.49	227.98
382.87	227.84
383.25	227.84
383.62	227.93
384.00	227.81
384.38	227.66
384.76	227.60
385.13	227.70
385.51	227.70
385.89	227.59
386.27	227.57
386.64	227.44
387.02	227.33
387.40	227.19
387.78	227.15
388.15	227.10
388.53	227.10
388.91	227.07
389.29	227.10
389.66	227.21
390.04	227.07
390.42	227.09
390.79	227.14
391.17	227.14
391.55	226.92
391.92	226.93
392.30	227.02
392.68	227.05
393.05	227.05
393.43	227.05
393.81	227.11
394.18	227.09
394.56	227.10
394.94	227.31
395.31	227.38
395.69	227.47
396.06	227.55
396.44	227.68
396.82	227.74
397.19	227.91
397.57	227.87
397.95	228.02
398.32	228.04
398.70	228.10
399.07	228.26
399.45	228.29
399.82	228.35
400.20	228.52
400.58	228.57
400.95	228.43
401.33	228.60
401.70	228.85
402.08	228.92
402.45	229.10
402.83	229.16
403.20	229.29
403.58	229.37
403.95	229.45
404.33	229.50
404.71	229.62
405.08	229.82
405.46	230.06
405.83	230.21
406.21	230.38
406.58	230.64
406.96	230.80
407.33	231.08
407.70	231.41
408.08	231.75
408.45	231.90
408.83	232.32
409.20	232.64
409.58	232.78
409.95	233.21
410.33	233.56
410.70	233.83
411.08	234.15
411.45	234.54
411.82	234.90
412.20	235.42
412.57	235.96
412.95	236.27
413.32	236.77
413.69	237.34
414.07	237.89
414.44	238.34
414.82	238.86
415.19	239.55
415.56	240.06
415.94	240.61
416.31	241.39
416.68	242.06
417.06	242.79
417.43	243.57
417.81	244.42
418.18	245.29
418.55	246.30
418.93	247.32
419.30	248.36
419.67	249.48
420.04	250.53
420.42	251.66
420.79	253.07
421.16	254.30
421.54	255.63
421.91	257.03
422.28	258.41
422.66	259.98
423.03	261.57
423.40	263.15
423.77	264.72
424.15	266.31
424.52	268.01
424.89	269.89
425.26	271.68
425.64	273.35
426.01	275.23
426.38	277.10
426.75	278.94
427.13	280.95
427.50	282.97
427.87	285.15
428.24	287.25
428.61	289.29
428.99	291.63
429.36	293.93
429.73	296.19
430.10	298.55
430.47	300.95
430.85	303.32
431.22	305.92
431.59	308.67
431.96	311.34
432.33	314.21
432.70	316.91
433.08	320.25
433.45	323.26
433.82	326.23
434.19	329.49
434.56	332.79
434.93	335.76
435.30	338.73
435.68	342.02
436.05	345.40
436.42	348.67
436.79	351.59
437.16	354.69
437.53	358.04
437.90	361.27
438.27	364.37
438.64	367.63
439.01	370.59
439.38	373.17
439.75	375.61
440.13	378.49
440.50	381.27
440.87	383.43
441.24	385.79
441.61	388.19
441.98	390.04
442.35	392.24
442.72	394.43
443.09	396.63
443.46	397.66
443.83	398.18
444.20	398.62
444.57	399.55
444.94	400.02
445.31	400.41
445.68	401.03
446.05	401.12
446.42	400.53
446.79	400.11
447.16	399.53
447.53	399.38
447.90	397.96
448.27	396.52
448.64	394.66
449.01	393.28
449.37	391.19
449.74	388.86
450.11	386.28
450.48	383.42
450.85	380.32
451.22	377.92
451.59	375.67
451.96	373.38
452.33	370.40
452.70	367.42
453.07	364.10
453.43	360.62
453.80	357.35
454.17	354.32
454.54	351.23
454.91	348.08
455.28	344.72
455.65	341.81
456.02	339.09
456.38	336.57
456.75	333.42
457.12	330.71
457.49	328.15
457.86	325.46
458.23	323.30
458.59	321.14
458.96	318.68
459.33	316.53
459.70	314.27
460.07	312.29
460.43	310.47
460.80	308.65
461.17	306.87
461.54	305.12
461.91	303.33
462.27	301.60
462.64	300.10
463.01	298.66
463.38	297.20
463.74	295.49
464.11	293.95
464.48	292.70
464.85	291.35
465.21	290.33
465.58	289.22
465.95	287.89
466.32	286.74
466.68	285.72
467.05	284.50
467.42	283.43
467.78	282.39
468.15	281.20
468.52	280.26
468.88	279.16
469.25	278.16
469.62	277.56
469.98	276.76
470.35	276.08
470.72	275.19
471.08	274.37
471.45	273.68
471.82	272.97
472.18	272.26
472.55	271.68
472.92	270.91
473.28	270.28
473.65	269.53
474.02	268.90
474.38	268.35
474.75	267.93
475.11	267.49
475.48	267.04
475.85	266.71
476.21	266.32
476.58	266.10
476.94	265.80
477.31	265.29
477.67	264.95
478.04	264.47
478.41	264.25
478.77	264.17
479.14	263.79
479.50	263.63
479.87	263.42
480.23	263.24
480.60	263.20
480.96	263.01
481.33	263.17
481.69	263.12
482.06	263.06
482.42	263.08
482.79	263.12
483.15	263.22
483.52	263.29
483.88	263.33
484.25	263.39
484.61	263.64
484.98	263.97
485.34	264.26
485.71	264.62
486.07	264.89
486.44	265.15
486.80	265.66
487.17	266.19
487.53	266.68
487.90	267.26
488.26	267.86
488.62	268.61
488.99	269.21
489.35	269.91
489.72	270.75
490.08	271.58
490.44	272.43
490.81	273.38
491.17	274.44
491.54	275.60
491.90	276.72
492.26	277.85
492.63	279.12
492.99	280.51
493.36	282.03
493.72	283.68
494.08	285.28
494.45	287.08
494.81	288.84
495.17	290.73
495.54	292.67
495.90	294.76
496.26	296.73
496.63	298.95
496.99	301.32
497.35	303.82
497.72	306.49
498.08	309.28
498.44	312.19
498.80	315.27
499.17	318.41
499.53	321.71
499.89	325.20
500.26	328.77
500.62	332.50
500.98	336.34
501.34	340.36
501.71	344.65
502.07	349.06
502.43	353.73
502.79	358.46
503.16	363.47
503.52	368.61
503.88	374.16
504.24	379.86
504.60	385.65
504.97	391.73
505.33	397.88
505.69	404.47
506.05	411.40
506.41	418.36
506.78	425.52
507.14	432.81
507.50	440.37
507.86	448.31
508.22	456.38
508.59	464.62
508.95	473.24
509.31	481.99
509.67	491.17
510.03	500.45
510.39	510.02
510.75	519.99
511.12	529.96
511.48	540.07
511.84	550.45
512.20	561.15
512.56	572.24
512.92	583.38
513.28	594.86
513.64	606.05
514.00	617.80
514.37	629.77
514.73	642.22
515.09	654.60
515.45	667.02
515.81	679.88
516.17	693.44
516.53	706.85
516.89	720.41
517.25	733.71
517.61	747.35
517.97	761.40
518.33	775.31
518.69	789.80
519.05	804.63
519.41	819.64
519.77	835.05
520.13	850.19
520.49	865.72
520.85	881.29
521.21	897.12
521.57	913.50
521.93	929.15
522.29	945.73
522.65	962.08
523.01	978.30
523.37	994.47
523.73	1010.62
524.09	1027.30
524.45	1044.31
524.81	1061.58
525.17	1079.31
525.53	1096.87
525.89	1114.13
526.25	1131.86
526.61	1149.23
526.97	1166.86
527.33	1184.28
527.68	1202.44
528.04	1220.06
528.40	1237.57
528.76	1256.38
529.12	1274.48
529.48	1293.10
529.84	1310.58
530.20	1329.22
530.56	1348.42
530.91	1367.77
531.27	1386.99
531.63	1405.41
531.99	1423.82
532.35	1441.98
532.71	1459.30
533.07	1477.29
533.42	1495.88
533.78	1513.74
534.14	1531.88
534.50	1549.17
534.86	1567.12
535.21	1584.01
535.57	1601.78
535.93	1619.74
536.29	1636.50
536.65	1653.51
537.00	1670.35
537.36	1687.99
537.72	1704.69
538.08	1720.50
538.44	1736.40
538.79	1752.18
539.15	1768.30
539.51	1784.48
539.87	1801.24
540.22	1817.91
540.58	1834.44
540.94	1850.24
541.29	1865.94
541.65	1881.47
542.01	1897.75
542.37	1913.15
542.72	1928.63
543.08	1943.58
543.44	1958.45
543.79	1972.20
544.15	1986.36
544.51	2001.50
544.87	2015.47
545.22	2029.24
545.58	2042.71
545.94	2055.54
546.29	2068.24
546.65	2080.70
547.01	2093.07
547.36	2104.72
547.72	2115.92
548.07	2126.90
548.43	2137.97
548.79	2149.20
549.14	2159.43
549.50	2169.41
549.86	2179.68
550.21	2189.57
550.57	2199.68
550.92	2209.32
551.28	2219.00
551.64	2228.76
551.99	2237.32
552.35	2246.32
552.70	2254.93
553.06	2264.57
553.41	2273.72
553.77	2282.57
554.13	2291.44
554.48	2300.02
554.84	2308.26
555.19	2316.80
555.55	2325.02
555.90	2332.11
556.26	2339.94
556.61	2348.02
556.97	2355.05
557.32	2362.16
557.68	2368.97
558.03	2375.55
558.39	2382.17
558.74	2389.94
559.10	2396.62
559.45	2403.35
559.81	2410.06
560.16	2416.11
560.52	2421.52
560.87	2427.90
561.23	2433.18
561.58	2438.48
561.94	2443.39
562.29	2447.90
562.64	2452.23
563.00	2456.50
563.35	2462.50
563.71	2467.01
564.06	2471.85
564.42	2476.56
564.77	2481.05
565.12	2485.67
565.48	2489.80
565.83	2493.05
566.19	2496.14
566.54	2498.58
566.89	2500.74
567.25	2502.70
567.60	2505.95
567.96	2508.50
568.31	2510.24
568.66	2512.51
569.02	2514.18
569.37	2515.54
569.72	2517.86
570.08	2519.74
570.43	2521.03
570.78	2520.94
571.14	2520.88
571.49	2520.85
571.84	2522.29
572.20	2521.79
572.55	2520.89
572.90	2519.90
573.26	2519.83
573.61	2518.81
573.96	2517.78
574.31	2516.32
574.67	2513.93
575.02	2511.51
575.37	2509.11
575.72	2506.07
576.08	2503.90
576.43	2501.44
576.78	2499.40
577.13	2496.86
577.49	2494.36
577.84	2490.90
578.19	2487.83
578.54	2484.29
578.90	2480.52
579.25	2474.68
579.60	2470.37
579.95	2466.68
580.30	2462.65
580.66	2457.64
581.01	2452.32
581.36	2448.06
581.71	2444.17
582.06	2440.15
582.42	2435.39
582.77	2431.04
583.12	2425.97
583.47	2421.20
583.82	2417.03
584.17	2411.66
584.53	2406.16
584.88	2400.52
585.23	2395.19
585.58	2390.55
585.93	2385.72
586.28	2380.83
586.63	2376.64
586.98	2371.69
587.34	2366.39
587.69	2360.90
588.04	2355.60
588.39	2350.98
588.74	2343.75
589.09	2337.09
589.44	2330.59
589.79	2324.52
590.14	2318.69
590.49	2313.26
590.84	2306.69
591.19	2299.91
591.54	2291.93
591.89	2283.91
592.25	2277.03
592.60	2269.79
592.95	2261.74
593.30	2253.76
593.65	2245.72
594.00	2237.67
594.35	2230.37
594.70	2221.81
595.05	2214.38
595.40	2206.85
595.75	2198.44
596.10	2192.29
596.45	2185.60
596.80	2179.40
597.15	2172.28
597.50	2164.86
597.85	2157.75
598.19	2151.07
598.54	2143.83
598.89	2137.98
599.24	2132.13
599.59	2125.05
599.94	2118.48
600.29	2111.49
600.64	2104.50
600.99	2096.76
601.34	2090.26
601.69	2082.86
602.04	2076.27
602.39	2069.08
602.74	2062.29
603.08	2055.86
603.43	2049.02
603.78	2041.81
604.13	2033.90
604.48	2026.41
604.83	2018.75
605.18	2011.40
605.53	2002.50
605.87	1993.63
606.22	1985.85
606.57	1977.10
606.92	1969.30
607.27	1961.80
607.62	1954.45
607.96	1947.25
608.31	1940.49
608.66	1931.49
609.01	1923.08
609.36	1914.16
609.70	1904.89
610.05	1895.43
610.40	1886.96
610.75	1877.80
611.10	1868.44
611.44	1858.65
611.79	1849.92
612.14	1840.95
612.49	1830.61
612.83	1821.57
613.18	1812.90
613.53	1803.58
613.88	1794.29
614.22	1785.05
614.57	1775.28
614.92	1765.97
615.27	1756.33
615.61	1746.58
615.96	1737.61
616.31	1728.71
616.65	1720.69
617.00	1712.36
617.35	1703.98
617.70	1694.58
618.04	1684.94
618.39	1676.13
618.74	1668.30
619.08	1659.17
619.43	1650.46
619.78	1642.89
620.12	1634.43
620.47	1626.10
620.82	1616.78
621.16	1608.71
621.51	1600.11
621.85	1592.03
622.20	1582.58
622.55	1574.15
622.89	1566.14
623.24	1558.57
623.59	1550.34
623.93	1541.88
624.28	1533.46
624.62	1524.89
624.97	1516.99
625.32	1509.45
625.66	1501.63
626.01	1493.28
626.35	1484.88
626.70	1476.53
627.04	1468.60
627.39	1460.30
627.73	1451.91
628.08	1444.52
628.43	1436.10
628.77	1427.90
629.12	1419.16
629.46	1411.18
629.81	1402.52
630.15	1393.73
630.50	1384.85
630.84	1375.84
631.19	1367.00
631.53	1358.61
631.88	1349.85
632.22	1340.72
632.57	1332.32
632.91	1323.57
633.26	1314.92
633.60	1306.60
633.95	1297.96
634.29	1289.22
634.64	1281.58
634.98	1273.32
635.32	1265.30
635.67	1258.00
636.01	1250.10
636.36	1242.47
636.70	1235.15
637.05	1227.92
637.39	1220.76
637.73	1213.22
638.08	1206.39
638.42	1199.60
638.77	1192.64
639.11	1185.38
639.45	1178.33
639.80	1170.47
640.14	1163.37
640.49	1156.06
640.83	1148.57
641.17	1141.74
641.52	1134.51
641.86	1127.16
642.20	1120.00
642.55	1112.61
642.89	1105.07
643.23	1097.85
643.58	1091.06
643.92	1083.75
644.26	1076.40
644.61	1069.18
644.95	1062.10
645.29	1054.37
645.64	1046.45
645.98	1039.08
646.32	1032.42
646.66	1025.27
647.01	1018.48
647.35	1011.54
647.69	1004.52
648.04	998.24
648.38	991.04
648.72	983.67
649.06	976.23
649.41	969.45
649.75	962.31
650.09	955.32
650.43	948.24
650.78	940.65
651.12	933.58
651.46	926.99
651.80	920.18
652.14	913.51
652.49	906.99
652.83	900.69
653.17	893.88
653.51	886.89
653.85	880.25
654.20	873.52
654.54	866.65
654.88	860.24
655.22	853.18
655.56	846.34
655.90	840.36
656.25	834.36
656.59	828.24
656.93	822.31
657.27	816.25
657.61	809.87
657.95	804.29
658.29	798.43
658.64	792.43
658.98	786.38
659.32	780.00
659.66	774.28
660.00	768.55
660.34	762.69
660.68	757.11
661.02	751.54
661.36	746.24
661.70	740.99
662.05	735.91
662.39	731.10
662.73	726.18
663.07	721.16
663.41	716.10
663.75	710.92
664.09	705.59
664.43	700.26
664.77	695.80
665.11	691.01
665.45	686.15
665.79	681.19
666.13	676.39
666.47	671.87
666.81	666.91
667.15	662.04
667.49	657.58
667.83	653.06
668.17	648.39
668.51	643.78
668.85	639.15
669.19	634.85
669.53	630.29
669.87	625.79
670.21	621.59
670.55	617.33
670.89	613.33
671.23	609.50
671.57	605.74
671.91	601.62
672.25	597.42
672.58	593.44
672.92	589.64
673.26	585.88
673.60	582.44
673.94	578.94
674.28	575.58
674.62	572.08
674.96	568.50
675.30	565.29
675.64	561.99
675.97	558.84
676.31	555.28
676.65	551.92
676.99	548.86
677.33	545.35
677.67	542.01
678.01	538.61
678.34	535.33
678.68	532.24
679.02	529.00
679.36	525.87
679.70	522.90
680.04	519.71
680.37	516.45
680.71	513.10
681.05	510.17
681.39	507.10
681.73	504.23
682.06	501.62
682.40	498.87
682.74	496.05
683.08	493.04
683.42	490.18
683.75	487.41
684.09	484.42
684.43	481.67
684.77	478.87
685.10	476.03
685.44	473.15
685.78	470.33
686.12	467.63
686.45	464.83
686.79	462.02
687.13	459.46
687.46	456.88
687.80	454.40
688.14	451.58
688.48	449.09
688.81	446.33
689.15	443.67
689.49	440.92
689.82	438.30
690.16	435.78
690.50	433.34
690.83	430.74
691.17	428.41
691.51	425.90
691.84	423.68
692.18	421.36
692.52	419.04
692.85	416.78
693.19	414.62
693.52	412.43
693.86	410.17
694.20	407.96
694.53	405.80
694.87	403.54
695.21	401.54
695.54	399.27
695.88	397.17
696.21	394.96
696.55	392.86
696.88	390.88
697.22	389.04
697.56	387.00
697.89	385.16
698.23	383.15
698.56	381.46
698.90	379.54
699.23	377.52
699.57	375.75
699.90	373.83
700.24	371.80
700.58	370.13
700.91	368.60
701.25	366.90
701.58	365.47
701.92	363.83
702.25	362.23
702.59	360.70
702.92	359.18
703.26	357.65
703.59	356.13
703.93	354.75
704.26	353.21
704.60	351.74
704.93	350.32
705.26	348.95
705.60	347.41
705.93	346.02
706.27	344.86
706.60	343.52
706.94	342.17
707.27	340.84
707.61	339.39
707.94	338.04
708.27	336.63
708.61	335.12
708.94	333.83
709.28	332.55
709.61	331.37
709.94	330.21
710.28	329.07
710.61	327.95
710.95	326.59
711.28	325.41
711.61	324.29
711.95	323.12
712.28	321.94
712.61	320.73
712.95	319.54
713.28	318.28
713.61	317.14
713.95	316.03
714.28	315.03
714.61	314.04
714.95	313.08
715.28	312.20
715.61	311.21
715.95	310.36
716.28	309.27
716.61	308.34
716.95	307.32
717.28	306.36
717.61	305.47
717.94	304.65
718.28	303.69
718.61	302.81
718.94	301.95
719.27	301.10
719.61	300.37
719.94	299.59
720.27	298.86
720.60	298.15
720.94	297.47
721.27	296.73
721.60	296.04
721.93	295.22
722.27	294.45
722.60	293.86
722.93	293.06
723.26	292.37
723.59	291.56
723.93	291.02
724.26	290.48
724.59	289.74
724.92	289.00
725.25	288.38
725.59	287.76
725.92	287.15
726.25	286.58
726.58	286.06
726.91	285.51
727.24	284.90
727.57	284.30
727.91	283.56
728.24	282.89
728.57	282.18
728.90	281.60
729.23	280.90
729.56	280.27
729.89	279.71
730.22	279.23
730.55	278.71
730.89	278.03
731.22	277.39
731.55	276.90
731.88	276.49
732.21	275.88
732.54	275.25
732.87	274.69
733.20	274.13
733.53	273.43
733.86	272.89
734.19	272.38
734.52	271.83
734.85	271.50
735.18	270.97
735.51	270.56
735.84	270.05
736.17	269.72
736.50	269.27
736.83	269.00
737.16	268.47
737.49	267.90
737.82	267.50
738.15	267.02
738.48	266.53
738.81	265.90
739.14	265.43
739.47	265.04
739.80	264.60
740.13	264.19
740.46	263.81
740.79	263.30
741.12	262.81
741.45	262.30
741.78	261.77
742.11	261.57
742.44	261.14
742.77	260.93
743.10	260.36
743.43	259.82
743.75	259.11
744.08	259.06
744.41	258.79
744.74	258.27
745.07	257.82
745.40	257.36
745.73	257.21
746.06	256.88
746.39	256.60
746.71	256.20
747.04	255.73
747.37	255.35
747.70	255.04
748.03	254.66
748.36	254.48
748.68	254.27
749.01	253.80
749.34	253.59
749.67	253.04
750.00	252.81
750.33	252.60
750.65	252.38
750.98	251.80
751.31	251.59
751.64	251.40
751.97	251.33
752.29	251.14
752.62	250.72
752.95	250.53
753.28	250.19
753.60	249.90
753.93	249.80
754.26	249.55
754.59	249.33
754.91	249.23
755.24	248.98
755.57	248.63
755.90	248.50
756.22	248.10
756.55	247.97
756.88	247.71
757.20	247.52
757.53	247.20
757.86	247.01
758.19	246.79
758.51	246.52
758.84	246.20
759.17	245.94
759.49	245.76
759.82	245.52
760.15	245.40
760.47	245.30
760.80	245.09
761.13	244.96
761.45	244.84
761.78	244.60
762.11	244.34
762.43	244.20
762.76	243.91
763.08	243.91
763.41	243.79
763.74	243.59
764.06	243.42
764.39	243.34
764.71	243.20
765.04	242.94
765.37	242.89
765.69	242.80
766.02	242.72
766.34	242.59
766.67	242.40
767.00	242.29
767.32	242.22
767.65	242.18
767.97	241.97
768.30	241.76
768.62	241.63
768.95	241.62
769.27	241.51
769.60	241.41
769.92	241.08
770.25	240.83
770.57	240.71
770.90	240.48
771.22	240.41
771.55	240.35
771.87	240.20
772.20	239.95
772.52	239.91
772.85	240.09
773.17	239.89
773.50	239.78
773.82	239.58
774.15	239.30
774.47	239.02
774.80	238.93
775.12	238.88
775.45	238.69
775.77	238.44
776.09	238.30
776.42	238.12
776.74	238.14
777.07	238.05
777.39	237.94
777.72	237.97
778.04	237.83
778.36	237.58
778.69	237.46
779.01	237.51
779.33	237.25
779.66	236.89
779.98	236.77
780.31	236.66
780.63	236.61
780.95	236.55
781.28	236.48
781.60	236.39
781.92	236.17
782.25	236.02
782.57	236.05
782.89	235.81
783.22	235.79
783.54	235.62
783.86	235.61
784.19	235.52
784.51	235.50
784.83	235.30
785.16	235.30
785.48	235.33
785.80	235.17
786.12	235.11
786.45	234.95
786.77	234.88
787.09	234.77
787.42	234.60
787.74	234.48
788.06	234.31
788.38	234.29
788.71	234.28
789.03	234.39
789.35	234.33
789.67	234.46
789.99	234.38
790.32	234.26
790.64	234.11
790.96	234.27
791.28	234.08
791.61	234.08
791.93	234.05
792.25	234.01
792.57	234.03
792.89	233.92
793.21	233.88
793.54	233.97
793.86	233.99
794.18	234.00
794.50	233.99
794.82	234.15
795.14	234.10
795.47	234.06
795.79	233.92
796.11	233.77
796.43	233.61
796.75	233.63
797.07	233.71
797.39	233.72
797.71	233.54
798.04	233.44
798.36	233.37
798.68	233.29
799.00	233.30
799.32	233.23
799.64	233.15
799.96	233.18
800.28	233.06
800.60	232.95
800.92	232.90
801.24	232.91
801.56	232.86
801.89	232.82
802.21	232.78
802.53	232.79
802.85	232.82
803.17	232.84
803.49	232.79
803.81	232.64
804.13	232.50
804.45	232.46
804.77	232.39
805.09	232.40
805.41	232.28
805.73	232.17
806.05	232.05
806.37	232.05
806.69	231.85
807.01	231.84
807.33	231.78
807.65	231.69
807.97	231.69
808.28	231.60
808.60	231.55
808.92	231.56
809.24	231.58
809.56	231.59
809.88	231.60
810.20	231.50
810.52	231.54
810.84	231.58
811.16	231.46
811.48	231.48
811.80	231.60
812.12	231.61
812.43	231.51
812.75	231.56
813.07	231.62
813.39	231.73
813.71	231.62
814.03	231.63
814.35	231.68
814.67	231.54
814.98	231.45
815.30	231.28
815.62	231.24
815.94	231.11
816.26	231.07
816.58	230.96
816.89	231.00
817.21	230.92
817.53	230.88
817.85	230.92
818.17	230.91
818.48	230.76
818.80	230.77
819.12	230.85
819.44	230.89
819.76	230.75
820.07	230.65
820.39	230.69
820.71	230.72
821.03	230.62
821.34	230.67
821.66	230.73
821.98	230.84
822.30	230.78
822.61	230.89
822.93	230.79
823.25	230.90
823.57	230.90
823.88	230.91
824.20	230.87
824.52	230.82
824.83	230.76
825.15	230.65
825.47	230.65
825.79	230.59
826.10	230.46
826.42	230.49
826.74	230.48
827.05	230.45
827.37	230.40
827.69	230.37
828.00	230.38
828.32	230.28
828.64	230.31
828.95	230.28
829.27	230.18
829.58	230.20
829.90	230.14
830.22	230.04
830.53	230.02
830.85	230.00
831.17	229.94
831.48	229.94
831.80	229.96
832.11	229.90
832.43	229.87
832.75	229.87
833.06	229.92
833.38	229.91
833.69	229.85
834.01	229.76
834.32	229.73
834.64	229.64
834.96	229.59
835.27	229.55
835.59	229.57
835.90	229.49
836.22	229.49
836.53	229.40
836.85	229.35
837.16	229.45
837.48	229.54
837.79	229.70
838.11	229.68
838.42	229.68
838.74	229.63
839.05	229.59
839.37	229.61
839.68	229.52
840.00	229.49
840.31	229.53
840.63	229.59
840.94	229.67
841.26	229.69
841.57	229.76
841.88	229.50
842.20	229.47
842.51	229.49
842.83	229.39
843.14	229.57
843.46	229.56
843.77	229.48
844.08	229.34
844.40	229.25
844.71	229.25
845.03	229.25
845.34	229.26
845.65	229.21
845.97	229.20
846.28	229.19
846.60	229.24
846.91	229.21
847.22	229.16
847.54	229.17
847.85	229.11
848.16	229.07
848.48	229.28
848.79	229.37
849.10	229.42
849.42	229.51
849.73	229.35
850.04	229.48
850.36	229.44
850.67	229.53
850.98	229.41
851.30	229.40
851.61	229.36
851.92	229.43
852.23	229.53
852.55	229.47
852.86	229.43
853.17	229.37
853.49	229.31
853.80	229.41
854.11	229.40
854.42	229.44
854.74	229.48
855.05	229.48
855.36	229.34
855.67	229.31
855.99	229.22
856.30	229.37
856.61	229.26
856.92	229.28
857.23	229.30
857.55	229.40
857.86	229.43
858.17	229.54
858.48	229.49
858.79	229.47
859.11	229.56
859.42	229.51
859.73	229.49
860.04	229.61
860.35	229.50
860.66	229.42
860.98	229.45
861.29	229.32
861.60	229.29
861.91	229.35
862.22	229.38
862.53	229.39
862.84	229.19
863.16	229.24
863.47	229.15
863.78	229.03
864.09	228.92
864.40	228.88
864.71	228.80
865.02	228.79
865.33	228.71
865.64	228.66
865.95	228.71
866.27	228.84
866.58	228.74
866.89	228.78
867.20	228.77
867.51	228.71
867.82	228.89
868.13	228.97
868.44	228.92
868.75	228.92
869.06	228.99
869.37	229.06
869.68	229.00
869.99	229.00
870.30	229.13
870.61	229.24
870.92	229.30
871.23	229.35
871.54	229.38
871.85	229.43
872.16	229.41
872.47	229.42
872.78	229.30
873.09	229.27
873.40	229.24
873.71	229.26
874.02	229.26
874.33	229.14
874.64	229.06
874.95	229.15
875.26	229.09
875.56	229.03
875.87	228.96
876.18	228.93
876.49	229.21
876.80	229.14
877.11	229.02
877.42	229.02
877.73	228.96
878.04	228.86
878.35	228.86
878.66	228.89
878.96	228.89
879.27	228.94
879.58	229.01
879.89	228.99
880.20	229.01
880.51	229.06
880.82	229.00
881.12	229.00
881.43	228.84
881.74	228.82
882.05	228.93
882.36	228.88
882.67	228.78
882.97	228.52
883.28	228.54
883.59	228.52
883.90	228.42
884.21	228.43
884.51	228.41
884.82	228.43
885.13	228.30
885.44	228.21
885.74	228.26
886.05	228.23
886.36	228.29
886.67	228.18
886.98	228.21
887.28	228.31
887.59	228.28
887.90	228.33
888.20	228.29
888.51	228.13
888.82	228.17
889.13	228.29
889.43	228.43
889.74	228.34
890.05	228.39
890.35	228.44
890.66	228.47
890.97	228.56
891.28	228.53
891.58	228.62
891.89	228.67
892.20	228.64
892.50	228.63
892.81	228.60
893.12	228.68
893.42	228.58
893.73	228.54
894.04	228.53
894.34	228.61
894.65	228.61
894.95	228.63
895.26	228.62
895.57	228.75
895.87	228.59
896.18	228.70
896.48	228.71
896.79	228.75
897.10	228.76
897.40	228.66
897.71	228.73
898.01	228.68
898.32	228.69
898.63	228.63
898.93	228.61
899.24	228.70
899.54	228.64
899.85	228.65
900.15	228.69
900.46	228.80
900.76	228.83
901.07	228.89
901.38	228.94
901.68	228.94
901.99	228.85
902.29	228.86
902.60	228.76
902.90	228.76
903.21	228.74
903.51	228.72
903.82	228.95
904.12	228.95
904.43	229.01
904.73	229.05
905.03	229.08
905.34	229.32
905.64	229.24
905.95	229.36
906.25	229.24
906.56	229.25
906.86	229.32
907.17	229.28
907.47	229.27
907.77	229.28
908.08	229.36
908.38	229.48
908.69	229.59
908.99	229.67
909.30	229.70
909.60	229.68
909.90	229.78
910.21	229.66
910.51	229.55
910.81	229.44
911.12	229.41
911.42	229.48
911.73	229.31
912.03	229.29
912.33	229.31
912.64	229.49
912.94	229.45
913.24	229.31
913.55	229.23
913.85	229.27
914.15	229.30
914.46	229.20
914.76	229.04
915.06	228.91
915.37	228.85
915.67	228.89
915.97	228.89
916.27	228.75
916.58	228.73
916.88	228.68
917.18	228.73
917.49	228.91
917.79	228.73
918.09	228.71
918.39	228.81
918.70	228.74
919.00	228.66
919.30	228.77
919.60	228.76
919.91	228.74
920.21	228.56
920.51	228.50
920.81	228.48
921.12	228.42
921.42	228.41
921.72	228.47
922.02	228.33
922.32	228.28
922.63	228.24
922.93	228.25
923.23	228.33
923.53	228.26
923.83	227.99
924.13	228.10
924.44	228.09
924.74	228.11
925.04	228.06
925.34	228.05
925.64	227.95
925.94	227.90
926.24	228.04
926.55	228.10
926.85	228.10
927.15	228.14
927.45	228.11
927.75	228.17
928.05	228.14
928.35	228.20
928.65	228.32
928.95	228.37
929.26	228.34
929.56	228.27
929.86	228.32
930.16	228.36
930.46	228.30
930.76	228.27
931.06	228.11
931.36	228.18
931.66	228.21
931.96	228.23
932.26	228.30
932.56	228.17
932.86	228.24
933.16	228.30
933.46	228.30
933.76	228.42
934.06	228.45
934.36	228.53
934.66	228.55
934.96	228.55
935.26	228.60
935.56	228.66
935.86	228.75
936.16	228.72
936.46	228.78
936.76	228.84
937.06	228.93
937.36	229.02
937.66	228.98
937.96	229.00
938.26	228.94
938.56	228.95
938.86	228.90
939.16	228.91
939.46	228.84
939.76	228.85
940.06	228.73
940.35	228.75
940.65	228.69
940.95	228.75
941.25	228.66
941.55	228.63
941.85	228.60
942.15	228.63
942.45	228.77
942.75	228.77
943.04	228.75
943.34	228.66
943.64	228.65
943.94	228.69
944.24	228.72
944.54	228.77
944.84	228.74
945.13	228.79
945.43	228.82
945.73	228.83
946.03	228.82
946.33	228.93
946.62	228.88
946.92	228.82
947.22	228.83
947.52	228.91
947.82	228.95
948.11	228.91
948.41	228.91
948.71	228.84
949.01	228.93
949.31	228.95
949.60	228.93
949.90	228.91
950.20	228.92
950.50	228.82
950.79	228.77
951.09	228.77
951.39	228.91
951.69	228.81
951.98	228.86
952.28	228.92
952.58	228.90
952.87	228.92
953.17	229.01
953.47	229.03
953.76	229.07
954.06	229.10
954.36	229.09
954.66	229.07
954.95	229.10
955.25	229.10
955.55	229.10
955.84	229.16
956.14	229.20
956.44	229.25
956.73	229.20
957.03	229.21
957.32	229.20
957.62	229.00
957.92	229.08
958.21	229.00
958.51	229.17
958.81	229.12
959.10	229.09
959.40	229.01
959.69	228.87
959.99	228.86
960.29	228.73
960.58	228.73
960.88	228.80
961.17	228.74
961.47	228.65
961.76	228.63
962.06	228.58
962.36	228.46
962.65	228.45
962.95	228.56
963.24	228.52
963.54	228.48
963.83	228.58
964.13	228.50
964.42	228.43
964.72	228.20
965.01	228.23
965.31	228.23
965.60	228.15
965.90	228.36
966.19	228.20
966.49	228.29
966.78	228.21
967.08	228.10
967.37	228.09
967.67	228.05
967.96	227.98
968.26	227.92
968.55	227.96
968.85	227.86
969.14	227.77
969.43	227.74
969.73	227.66
970.02	227.62
970.32	227.65
970.61	227.71
970.91	227.74
971.20	227.77
971.49	227.57
971.79	227.70
972.08	227.53
972.38	227.55
972.67	227.39
972.96	227.42
973.26	227.32
973.55	227.40
973.85	227.38
974.14	227.40
974.43	227.42
974.73	227.36
975.02	227.29
975.31	227.33
975.61	227.44
975.90	227.42
976.19	227.40
976.49	227.44
976.78	227.48
977.07	227.45
977.37	227.42
977.66	227.62
977.95	227.55
978.24	227.53
978.54	227.54
978.83	227.68
979.12	227.70
979.42	227.87
979.71	227.81
980.00	227.89
980.29	227.90
980.59	227.95
980.88	228.13
981.17	228.20
981.46	228.34
981.76	228.31
982.05	228.58
982.34	228.60
982.63	228.63
982.93	228.69
983.22	228.78
983.51	228.90
983.80	228.93
984.09	229.04
984.39	229.10
984.68	229.20
984.97	229.23
985.26	229.30
985.55	229.28
985.85	229.29
986.14	229.31
986.43	229.51
986.72	229.56
987.01	229.40
987.30	229.44
987.59	229.35
987.89	229.38
988.18	229.20
988.47	229.21
988.76	229.23
989.05	229.17
989.34	229.19
989.63	229.12
989.92	229.10
990.22	229.01
990.51	228.97
990.80	228.94
991.09	228.94
991.38	228.88
991.67	228.76
991.96	228.76
992.25	228.71
992.54	228.58
992.83	228.57
993.12	228.61
993.41	228.64
993.70	228.62
993.99	228.58
994.28	228.65
994.58	228.65
994.87	228.47
995.16	228.37
995.45	228.21
995.74	228.17
996.03	228.12
996.32	228.19
996.61	228.24
996.90	228.18
997.19	228.08
997.48	228.11
997.77	228.20
998.06	228.10
998.34	228.09
998.63	228.03
998.92	227.98
999.21	227.91
999.50	227.94
999.79	227.90
1000.08	227.88
1000.37	227.81
1000.66	227.78
1000.95	227.83
1001.24	227.87
1001.53	227.90
1001.82	227.85
1002.11	227.76
1002.40	227.68
1002.68	227.63
1002.97	227.72
1003.26	227.74
1003.55	227.68
1003.84	227.63
1004.13	227.67
1004.42	227.62
1004.71	227.59
1004.99	227.43
1005.28	227.43
1005.57	227.36
1005.86	227.29
1006.15	227.23
1006.44	227.32
1006.72	227.30
1007.01	227.28
1007.30	227.30
1007.59	227.34
1007.88	227.35
1008.17	227.39
1008.45	227.31
1008.74	227.26
1009.03	227.19
1009.32	227.16
1009.60	227.13
1009.89	227.00
1010.18	227.03
1010.47	227.04
1010.76	227.04
1011.04	227.12
1011.33	227.26
1011.62	227.20
1011.91	227.28
1012.19	227.30
1012.48	227.25
1012.77	227.25
1013.05	227.35
1013.34	227.26
1013.63	227.31
1013.92	227.33
1014.20	227.33
1014.49	227.35
1014.78	227.42
1015.06	227.41
1015.35	227.49
1015.64	227.50
1015.92	227.67
1016.21	227.72
1016.50	227.81
1016.78	227.98
1017.07	228.13
1017.36	228.16
1017.64	228.14
1017.93	228.23
1018.22	228.30
1018.50	228.22
1018.79	228.26
1019.08	228.21
1019.36	228.35
1019.65	228.26
1019.93	228.34
1020.22	228.45
1020.51	228.62
1020.79	228.61
1021.08	228.50
1021.36	226.20
1021.65	228.20
1021.94	227.70
1022.22	229.30
1022.51	227.50
1022.79	229.40
1023.08	229.00
1023.36	230.20
1023.65	228.40
>>>>>End Processed Spectral Data<<<<<
