SpectraSuite Data File
++++++++++++++++++++++++++++++++++++
Date: Fri Feb 01 14:35:30 EST 2013
User: group
Dark Spectrum Present: No
Reference Spectrum Present: No
Number of Sampled Component Spectra: 1
Spectrometers: USB2E7196
Integration Time (usec): 70000 (USB2E7196)
Spectra Averaged: 10 (USB2E7196)
Boxcar Smoothing: 10 (USB2E7196)
Correct for Electrical Dark: No (USB2E7196)
Strobe/Lamp Enabled: No (USB2E7196)
Correct for Detector Non-linearity: No (USB2E7196)
Correct for Stray Light: No (USB2E7196)
Number of Pixels in Processed Spectrum: 2048
>>>>>Begin Processed Spectral Data<<<<<
339.09	0.00
339.48	215.40
339.86	217.30
340.24	219.00
340.63	219.10
341.01	224.70
341.39	223.30
341.78	223.10
342.16	225.50
342.54	225.20
342.93	214.40
343.31	225.33
343.69	225.89
344.07	226.40
344.46	226.75
344.84	227.16
345.22	227.34
345.60	227.56
345.99	227.82
346.37	227.93
346.75	228.14
347.13	228.15
347.52	228.20
347.90	228.32
348.28	228.40
348.66	228.47
349.05	228.50
349.43	228.69
349.81	228.66
350.19	228.74
350.57	228.76
350.96	228.91
351.34	228.84
351.72	228.96
352.10	229.00
352.48	229.11
352.87	229.18
353.25	229.24
353.63	229.37
354.01	229.41
354.39	229.54
354.77	229.52
355.15	229.62
355.54	229.64
355.92	229.80
356.30	229.86
356.68	230.03
357.06	230.08
357.44	230.15
357.82	230.18
358.20	230.22
358.58	230.27
358.97	230.28
359.35	230.42
359.73	230.51
360.11	230.65
360.49	230.68
360.87	230.82
361.25	230.80
361.63	230.92
362.01	230.99
362.39	230.95
362.77	231.11
363.15	231.13
363.53	231.19
363.91	231.06
364.29	231.07
364.67	230.84
365.05	230.78
365.43	230.79
365.81	230.79
366.19	230.80
366.57	230.86
366.95	230.84
367.33	230.88
367.71	230.86
368.09	230.80
368.47	230.86
368.85	230.69
369.23	230.78
369.61	230.61
369.99	230.62
370.37	230.64
370.75	230.64
371.13	230.54
371.51	230.44
371.89	230.45
372.27	230.39
372.65	230.25
373.03	230.18
373.41	230.13
373.78	230.07
374.16	229.90
374.54	229.75
374.92	229.62
375.30	229.41
375.68	229.21
376.06	229.14
376.44	229.05
376.82	229.02
377.19	228.87
377.57	228.82
377.95	228.64
378.33	228.52
378.71	228.20
379.09	228.16
379.47	228.13
379.84	228.04
380.22	227.88
380.60	227.91
380.98	227.90
381.36	227.70
381.73	227.60
382.11	227.55
382.49	227.56
382.87	227.51
383.25	227.50
383.62	227.70
384.00	227.58
384.38	227.55
384.76	227.50
385.13	227.46
385.51	227.40
385.89	227.32
386.27	227.27
386.64	227.38
387.02	227.28
387.40	227.18
387.78	227.21
388.15	227.20
388.53	227.16
388.91	227.06
389.29	227.14
389.66	227.21
390.04	227.27
390.42	227.17
390.79	227.11
391.17	227.09
391.55	226.90
391.92	226.95
392.30	226.83
392.68	226.85
393.05	226.89
393.43	226.86
393.81	226.87
394.18	226.87
394.56	226.85
394.94	226.94
395.31	227.00
395.69	227.12
396.06	227.23
396.44	227.24
396.82	227.36
397.19	227.45
397.57	227.50
397.95	227.52
398.32	227.51
398.70	227.73
399.07	227.83
399.45	227.98
399.82	228.10
400.20	228.25
400.58	228.34
400.95	228.37
401.33	228.56
401.70	228.87
402.08	229.07
402.45	229.24
402.83	229.37
403.20	229.57
403.58	229.75
403.95	229.89
404.33	230.11
404.71	230.20
405.08	230.55
405.46	230.73
405.83	231.15
406.21	231.54
406.58	231.80
406.96	232.20
407.33	232.54
407.70	232.90
408.08	233.43
408.45	233.94
408.83	234.44
409.20	234.94
409.58	235.25
409.95	235.90
410.33	236.43
410.70	237.08
411.08	237.80
411.45	238.47
411.82	239.22
412.20	240.09
412.57	241.15
412.95	241.90
413.32	242.93
413.69	243.81
414.07	244.78
414.44	245.91
414.82	247.03
415.19	248.37
415.56	249.73
415.94	251.15
416.31	252.73
416.68	254.29
417.06	256.10
417.43	257.78
417.81	259.65
418.18	261.74
418.55	263.86
418.93	266.08
419.30	268.26
419.67	270.70
420.04	273.20
420.42	275.77
420.79	278.80
421.16	281.78
421.54	284.99
421.91	288.32
422.28	291.90
422.66	295.40
423.03	298.90
423.40	302.52
423.77	306.49
424.15	310.44
424.52	314.62
424.89	319.01
425.26	323.50
425.64	327.73
426.01	332.19
426.38	336.81
426.75	341.49
427.13	346.58
427.50	351.84
427.87	357.09
428.24	362.43
428.61	367.46
428.99	373.16
429.36	379.22
429.73	385.20
430.10	390.97
430.47	397.20
430.85	403.42
431.22	409.96
431.59	416.89
431.96	423.57
432.33	431.11
432.70	438.34
433.08	446.86
433.45	454.60
433.82	462.25
434.19	471.26
434.56	479.92
434.93	488.06
435.30	496.01
435.68	505.08
436.05	513.91
436.42	522.87
436.79	530.90
437.16	539.47
437.53	548.48
437.90	557.56
438.27	566.36
438.64	575.72
439.01	584.30
439.38	591.90
439.75	599.20
440.13	607.51
440.50	615.42
440.87	622.19
441.24	629.05
441.61	636.97
441.98	642.61
442.35	649.27
442.72	656.07
443.09	662.78
443.46	667.11
443.83	670.35
444.20	673.20
444.57	677.23
444.94	679.66
445.31	682.30
445.68	684.36
446.05	685.95
446.42	686.13
446.79	686.17
447.16	686.00
447.53	686.39
447.90	684.15
448.27	681.83
448.64	677.85
449.01	675.79
449.37	670.69
449.74	665.91
450.11	659.86
450.48	653.28
450.85	646.56
451.22	640.91
451.59	635.34
451.96	630.07
452.33	622.45
452.70	615.85
453.07	607.75
453.43	599.81
453.80	591.89
454.17	584.00
454.54	576.77
454.91	568.95
455.28	561.18
455.65	553.87
456.02	546.48
456.38	540.16
456.75	532.10
457.12	525.53
457.49	518.88
457.86	512.67
458.23	507.20
458.59	501.24
458.96	494.91
459.33	489.39
459.70	483.91
460.07	479.57
460.43	474.32
460.80	469.26
461.17	464.77
461.54	460.18
461.91	456.08
462.27	451.81
462.64	448.20
463.01	444.00
463.38	439.91
463.74	436.02
464.11	432.65
464.48	429.53
464.85	426.18
465.21	423.38
465.58	420.39
465.95	416.97
466.32	414.05
466.68	411.28
467.05	408.60
467.42	405.80
467.78	402.93
468.15	400.12
468.52	397.95
468.88	395.24
469.25	392.82
469.62	390.66
469.98	388.45
470.35	386.30
470.72	384.43
471.08	382.50
471.45	380.73
471.82	378.89
472.18	376.93
472.55	375.39
472.92	373.76
473.28	372.25
473.65	370.76
474.02	369.19
474.38	367.90
474.75	366.79
475.11	365.54
475.48	364.58
475.85	363.68
476.21	362.96
476.58	362.30
476.94	361.64
477.31	360.92
477.67	360.09
478.04	359.52
478.41	359.00
478.77	358.74
479.14	358.18
479.50	357.85
479.87	357.64
480.23	357.50
480.60	357.17
480.96	357.00
481.33	357.14
481.69	357.20
482.06	357.21
482.42	356.97
482.79	357.11
483.15	357.38
483.52	357.77
483.88	358.10
484.25	358.39
484.61	358.85
484.98	359.29
485.34	360.01
485.71	360.62
486.07	361.26
486.44	361.82
486.80	362.70
487.17	363.57
487.53	364.62
487.90	365.67
488.26	366.99
488.62	368.18
488.99	369.18
489.35	370.46
489.72	371.79
490.08	373.35
490.44	374.80
490.81	376.32
491.17	377.70
491.54	379.24
491.90	380.98
492.26	382.70
492.63	384.47
492.99	386.23
493.36	388.28
493.72	390.52
494.08	392.52
494.45	394.90
494.81	397.03
495.17	399.23
495.54	401.60
495.90	403.85
496.26	406.26
496.63	408.69
496.99	411.19
497.35	413.79
497.72	416.33
498.08	418.65
498.44	421.10
498.80	424.13
499.17	426.89
499.53	429.51
499.89	432.26
500.26	434.98
500.62	437.63
500.98	440.14
501.34	442.67
501.71	445.49
502.07	448.03
502.43	450.71
502.79	453.13
503.16	455.87
503.52	458.41
503.88	460.91
504.24	463.54
504.60	465.91
504.97	468.52
505.33	471.20
505.69	474.11
506.05	476.83
506.41	479.06
506.78	481.09
507.14	483.49
507.50	485.86
507.86	488.19
508.22	490.59
508.59	492.77
508.95	494.80
509.31	496.81
509.67	498.80
510.03	500.86
510.39	503.14
510.75	504.99
511.12	506.95
511.48	508.81
511.84	510.64
512.20	512.56
512.56	514.22
512.92	515.90
513.28	517.28
513.64	518.46
514.00	519.89
514.37	521.66
514.73	523.03
515.09	524.13
515.45	525.50
515.81	526.66
516.17	527.97
516.53	529.36
516.89	530.55
517.25	531.67
517.61	532.71
517.97	533.27
518.33	534.09
518.69	535.01
519.05	535.98
519.41	536.83
519.77	537.76
520.13	538.72
520.49	539.56
520.85	540.27
521.21	541.34
521.57	542.29
521.93	542.96
522.29	543.84
522.65	544.74
523.01	545.36
523.37	546.01
523.73	546.80
524.09	547.51
524.45	548.43
524.81	549.45
525.17	550.51
525.53	551.89
525.89	552.95
526.25	554.00
526.61	554.76
526.97	555.83
527.33	556.70
527.68	557.82
528.04	558.68
528.40	560.08
528.76	561.48
529.12	562.91
529.48	564.47
529.84	565.84
530.20	567.28
530.56	569.03
530.91	570.98
531.27	572.78
531.63	574.48
531.99	576.10
532.35	577.45
532.71	578.98
533.07	580.88
533.42	582.87
533.78	584.96
534.14	587.16
534.50	589.07
534.86	591.41
535.21	593.51
535.57	595.97
535.93	598.08
536.29	600.13
536.65	602.21
537.00	604.28
537.36	606.59
537.72	609.12
538.08	611.50
538.44	613.80
538.79	616.18
539.15	618.61
539.51	621.28
539.87	624.41
540.22	627.49
540.58	630.20
540.94	632.77
541.29	635.26
541.65	637.90
542.01	641.13
542.37	643.99
542.72	646.90
543.08	649.82
543.44	652.97
543.79	655.96
544.15	659.34
544.51	662.86
544.87	665.95
545.22	668.90
545.58	671.86
545.94	674.81
546.29	678.04
546.65	681.32
547.01	684.58
547.36	687.59
547.72	690.60
548.07	694.00
548.43	697.29
548.79	700.79
549.14	704.30
549.50	707.35
549.86	710.46
550.21	713.57
550.57	716.85
550.92	720.24
551.28	723.30
551.64	726.49
551.99	729.74
552.35	733.09
552.70	736.84
553.06	740.46
553.41	744.18
553.77	747.70
554.13	751.27
554.48	754.90
554.84	758.52
555.19	761.78
555.55	765.21
555.90	768.70
556.26	771.96
556.61	775.28
556.97	778.61
557.32	782.23
557.68	785.74
558.03	789.27
558.39	792.24
558.74	796.30
559.10	799.55
559.45	802.80
559.81	806.51
560.16	809.64
560.52	812.88
560.87	816.15
561.23	819.25
561.58	822.71
561.94	825.62
562.29	828.52
562.64	831.69
563.00	834.69
563.35	838.12
563.71	841.49
564.06	844.68
564.42	847.67
564.77	850.88
565.12	854.01
565.48	857.32
565.83	860.50
566.19	863.23
566.54	866.09
566.89	869.04
567.25	871.87
567.60	875.03
567.96	877.60
568.31	880.10
568.66	882.87
569.02	884.91
569.37	887.42
569.72	889.96
570.08	892.31
570.43	894.51
570.78	896.37
571.14	898.40
571.49	900.41
571.84	902.71
572.20	904.43
572.55	906.16
572.90	907.66
573.26	909.53
573.61	910.94
573.96	912.55
574.31	913.70
574.67	914.47
575.02	915.33
575.37	916.54
575.72	917.19
576.08	918.05
576.43	919.17
576.78	919.96
577.13	920.86
577.49	921.63
577.84	922.47
578.19	923.24
578.54	923.65
578.90	924.21
579.25	924.10
579.60	924.41
579.95	924.68
580.30	924.67
580.66	924.65
581.01	924.82
581.36	924.71
581.71	925.00
582.06	925.20
582.42	924.98
582.77	925.01
583.12	925.02
583.47	924.94
583.82	924.76
584.17	924.62
584.53	924.29
584.88	924.01
585.23	923.66
585.58	923.00
585.93	922.66
586.28	922.38
586.63	922.36
586.98	921.83
587.34	921.33
587.69	920.95
588.04	920.40
588.39	919.91
588.74	918.97
589.09	917.94
589.44	916.86
589.79	916.09
590.14	915.41
590.49	914.76
590.84	913.69
591.19	912.89
591.54	911.58
591.89	909.99
592.25	909.18
592.60	907.46
592.95	906.11
593.30	904.70
593.65	903.07
594.00	901.41
594.35	900.49
594.70	898.80
595.05	897.16
595.40	895.54
595.75	893.50
596.10	892.06
596.45	890.68
596.80	889.54
597.15	887.96
597.50	885.91
597.85	884.41
598.19	882.92
598.54	881.30
598.89	879.70
599.24	878.52
599.59	876.66
599.94	875.24
600.29	873.70
600.64	871.99
600.99	869.97
601.34	868.29
601.69	865.74
602.04	864.02
602.39	862.06
602.74	860.47
603.08	859.06
603.43	857.59
603.78	855.59
604.13	853.53
604.48	851.60
604.83	849.93
605.18	847.85
605.53	845.59
605.87	843.10
606.22	841.16
606.57	838.90
606.92	836.59
607.27	834.58
607.62	832.67
607.96	830.65
608.31	828.75
608.66	826.57
609.01	824.39
609.36	821.78
609.70	818.96
610.05	815.93
610.40	813.37
610.75	810.60
611.10	807.94
611.44	805.20
611.79	802.81
612.14	800.06
612.49	797.02
612.83	794.11
613.18	791.48
613.53	788.77
613.88	785.80
614.22	783.06
614.57	780.16
614.92	777.14
615.27	774.18
615.61	771.23
615.96	768.47
616.31	765.88
616.65	763.70
617.00	761.33
617.35	759.08
617.70	755.99
618.04	752.91
618.39	750.14
618.74	747.47
619.08	744.13
619.43	741.16
619.78	738.58
620.12	736.00
620.47	733.03
620.82	730.07
621.16	727.39
621.51	724.54
621.85	721.57
622.20	718.61
622.55	715.92
622.89	713.45
623.24	710.65
623.59	707.92
623.93	705.01
624.28	702.45
624.62	699.56
624.97	697.16
625.32	694.85
625.66	692.38
626.01	689.63
626.35	686.95
626.70	684.32
627.04	681.81
627.39	678.80
627.73	676.13
628.08	673.46
628.43	670.80
628.77	668.08
629.12	665.46
629.46	662.84
629.81	659.93
630.15	656.76
630.50	653.96
630.84	650.78
631.19	647.69
631.53	644.78
631.88	641.76
632.22	638.68
632.57	635.65
632.91	632.47
633.26	629.54
633.60	626.85
633.95	624.10
634.29	621.18
634.64	618.78
634.98	616.30
635.32	613.60
635.67	610.99
636.01	608.53
636.36	605.79
636.70	603.26
637.05	600.68
637.39	598.40
637.73	595.89
638.08	593.90
638.42	591.86
638.77	589.56
639.11	586.96
639.45	584.65
639.80	582.19
640.14	579.85
640.49	577.60
640.83	575.18
641.17	572.87
641.52	570.62
641.86	568.05
642.20	565.72
642.55	563.49
642.89	561.13
643.23	558.69
643.58	556.63
643.92	553.89
644.26	551.54
644.61	549.30
644.95	547.10
645.29	544.50
645.64	541.82
645.98	539.40
646.32	537.35
646.66	534.80
647.01	532.63
647.35	530.42
647.69	528.07
648.04	526.04
648.38	523.74
648.72	521.14
649.06	518.71
649.41	516.25
649.75	513.78
650.09	511.33
650.43	508.99
650.78	506.35
651.12	504.26
651.46	502.10
651.80	499.74
652.14	497.34
652.49	495.08
652.83	492.94
653.17	490.60
653.51	488.26
653.85	486.09
654.20	483.77
654.54	481.43
654.88	479.08
655.22	476.51
655.56	474.11
655.90	472.08
656.25	470.22
656.59	468.23
656.93	466.06
657.27	464.06
657.61	461.82
657.95	460.00
658.29	458.03
658.64	455.89
658.98	453.61
659.32	451.35
659.66	449.12
660.00	446.97
660.34	444.90
660.68	443.00
661.02	441.06
661.36	439.23
661.70	437.43
662.05	435.71
662.39	434.10
662.73	432.42
663.07	430.71
663.41	428.83
663.75	426.86
664.09	425.09
664.43	423.24
664.77	421.54
665.11	419.75
665.45	418.00
665.79	416.33
666.13	414.54
666.47	412.84
666.81	411.10
667.15	409.27
667.49	407.58
667.83	405.92
668.17	404.17
668.51	402.27
668.85	400.59
669.19	399.08
669.53	397.42
669.87	395.67
670.21	394.00
670.55	392.41
670.89	390.97
671.23	389.54
671.57	388.16
671.91	386.78
672.25	385.24
672.58	383.87
672.92	382.48
673.26	381.20
673.60	379.95
673.94	378.72
674.28	377.60
674.62	376.45
674.96	375.08
675.30	373.91
675.64	372.63
675.97	371.45
676.31	370.08
676.65	368.85
676.99	367.70
677.33	366.34
677.67	365.01
678.01	363.60
678.34	362.32
678.68	360.93
679.02	359.76
679.36	358.58
679.70	357.21
680.04	355.89
680.37	354.70
680.71	353.49
681.05	352.35
681.39	351.30
681.73	350.10
682.06	349.05
682.40	347.91
682.74	347.00
683.08	345.90
683.42	344.69
683.75	343.63
684.09	342.41
684.43	341.33
684.77	340.32
685.10	339.31
685.44	338.21
685.78	337.17
686.12	336.05
686.45	334.96
686.79	333.90
687.13	332.91
687.46	331.90
687.80	330.87
688.14	329.91
688.48	328.82
688.81	327.85
689.15	326.76
689.49	325.76
689.82	324.60
690.16	323.56
690.50	322.63
690.83	321.59
691.17	320.67
691.51	319.82
691.84	318.96
692.18	317.97
692.52	317.07
692.85	316.20
693.19	315.20
693.52	314.32
693.86	313.39
694.20	312.48
694.53	311.57
694.87	310.69
695.21	309.60
695.54	308.73
695.88	307.77
696.21	306.77
696.55	305.90
696.88	305.18
697.22	304.41
697.56	303.67
697.89	302.85
698.23	302.13
698.56	301.30
698.90	300.44
699.23	299.67
699.57	298.82
699.90	298.04
700.24	297.31
700.58	296.49
700.91	295.90
701.25	295.34
701.58	294.75
701.92	294.03
702.25	293.52
702.59	292.71
702.92	292.02
703.26	291.47
703.59	290.78
703.93	290.29
704.26	289.42
704.60	288.73
704.93	288.05
705.26	287.37
705.60	286.82
705.93	286.35
706.27	285.90
706.60	285.39
706.94	284.86
707.27	284.24
707.61	283.60
707.94	283.07
708.27	282.40
708.61	281.74
708.94	281.16
709.28	280.53
709.61	280.02
709.94	279.66
710.28	279.13
710.61	278.64
710.95	277.90
711.28	277.53
711.61	276.90
711.95	276.60
712.28	276.20
712.61	275.54
712.95	274.93
713.28	274.41
713.61	273.94
713.95	273.42
714.28	273.00
714.61	272.65
714.95	272.10
715.28	271.67
715.61	271.17
715.95	270.62
716.28	270.22
716.61	269.74
716.95	269.15
717.28	268.79
717.61	268.33
717.94	267.89
718.28	267.44
718.61	267.12
718.94	266.58
719.27	266.06
719.61	265.76
719.94	265.42
720.27	265.02
720.60	264.61
720.94	264.19
721.27	263.78
721.60	263.49
721.93	263.23
722.27	262.87
722.60	262.56
722.93	262.35
723.26	262.02
723.59	261.72
723.93	261.33
724.26	261.07
724.59	260.79
724.92	260.47
725.25	260.27
725.59	259.89
725.92	259.53
726.25	259.28
726.58	258.95
726.91	258.64
727.24	258.36
727.57	258.13
727.91	257.80
728.24	257.51
728.57	257.19
728.90	256.80
729.23	256.43
729.56	256.32
729.89	256.01
730.22	255.66
730.55	255.39
730.89	255.17
731.22	254.82
731.55	254.56
731.88	254.35
732.21	253.96
732.54	253.85
732.87	253.52
733.20	253.38
733.53	253.14
733.86	253.00
734.19	252.67
734.52	252.42
734.85	252.32
735.18	252.04
735.51	251.82
735.84	251.63
736.17	251.48
736.50	250.98
736.83	250.97
737.16	250.74
737.49	250.58
737.82	250.35
738.15	250.15
738.48	249.95
738.81	249.68
739.14	249.40
739.47	249.15
739.80	249.05
740.13	248.74
740.46	248.51
740.79	248.18
741.12	248.01
741.45	247.66
741.78	247.36
742.11	247.24
742.44	246.99
742.77	246.70
743.10	246.49
743.43	246.40
743.75	246.02
744.08	246.04
744.41	245.84
744.74	245.71
745.07	245.33
745.40	245.19
745.73	245.12
746.06	244.97
746.39	244.78
746.71	244.59
747.04	244.33
747.37	244.20
747.70	244.00
748.03	243.78
748.36	243.77
748.68	243.67
749.01	243.48
749.34	243.28
749.67	243.19
750.00	243.03
750.33	243.03
750.65	242.94
750.98	242.65
751.31	242.50
751.64	242.31
751.97	242.40
752.29	242.23
752.62	242.02
752.95	241.85
753.28	241.67
753.60	241.54
753.93	241.43
754.26	241.32
754.59	241.17
754.91	241.09
755.24	240.86
755.57	240.60
755.90	240.44
756.22	240.25
756.55	239.98
756.88	239.79
757.20	239.51
757.53	239.28
757.86	239.08
758.19	238.90
758.51	238.75
758.84	238.55
759.17	238.41
759.49	238.28
759.82	238.32
760.15	238.19
760.47	238.10
760.80	238.05
761.13	237.97
761.45	237.88
761.78	237.74
762.11	237.57
762.43	237.43
762.76	237.41
763.08	237.30
763.41	237.26
763.74	237.10
764.06	237.01
764.39	236.90
764.71	236.77
765.04	236.72
765.37	236.55
765.69	236.35
766.02	236.33
766.34	236.27
766.67	236.09
767.00	235.97
767.32	235.99
767.65	235.87
767.97	235.74
768.30	235.70
768.62	235.53
768.95	235.47
769.27	235.35
769.60	235.14
769.92	235.03
770.25	234.99
770.57	234.98
770.90	234.86
771.22	234.75
771.55	234.75
771.87	234.72
772.20	234.69
772.52	234.84
772.85	234.89
773.17	234.80
773.50	234.68
773.82	234.65
774.15	234.44
774.47	234.37
774.80	234.21
775.12	234.12
775.45	234.11
775.77	234.20
776.09	234.23
776.42	234.21
776.74	234.33
777.07	234.36
777.39	234.30
777.72	234.30
778.04	234.38
778.36	234.37
778.69	234.22
779.01	234.17
779.33	233.98
779.66	233.79
779.98	233.70
780.31	233.60
780.63	233.61
780.95	233.59
781.28	233.54
781.60	233.50
781.92	233.41
782.25	233.44
782.57	233.34
782.89	233.29
783.22	233.34
783.54	233.18
783.86	233.04
784.19	233.00
784.51	232.93
784.83	232.81
785.16	232.80
785.48	232.77
785.80	232.86
786.12	232.86
786.45	232.70
786.77	232.65
787.09	232.64
787.42	232.60
787.74	232.63
788.06	232.60
788.38	232.61
788.71	232.56
789.03	232.47
789.35	232.51
789.67	232.54
789.99	232.44
790.32	232.53
790.64	232.52
790.96	232.58
791.28	232.50
791.61	232.55
791.93	232.52
792.25	232.53
792.57	232.60
792.89	232.56
793.21	232.52
793.54	232.50
793.86	232.48
794.18	232.40
794.50	232.26
794.82	232.23
795.14	232.19
795.47	232.16
795.79	232.17
796.11	232.12
796.43	231.97
796.75	232.00
797.07	231.89
797.39	231.89
797.71	231.79
798.04	231.78
798.36	231.66
798.68	231.56
799.00	231.54
799.32	231.26
799.64	231.24
799.96	231.30
800.28	231.32
800.60	231.34
800.92	231.36
801.24	231.36
801.56	231.28
801.89	231.25
802.21	231.26
802.53	231.14
802.85	231.05
803.17	231.15
803.49	231.07
803.81	230.99
804.13	230.96
804.45	231.01
804.77	231.03
805.09	231.01
805.41	230.96
805.73	230.85
806.05	230.94
806.37	230.95
806.69	230.97
807.01	230.94
807.33	230.80
807.65	230.70
807.97	230.80
808.28	230.85
808.60	230.82
808.92	230.77
809.24	230.87
809.56	230.85
809.88	230.70
810.20	230.61
810.52	230.54
810.84	230.45
811.16	230.33
811.48	230.24
811.80	230.27
812.12	230.35
812.43	230.40
812.75	230.32
813.07	230.22
813.39	230.09
813.71	230.09
814.03	230.17
814.35	230.13
814.67	229.97
814.98	229.83
815.30	229.79
815.62	229.85
815.94	229.77
816.26	229.78
816.58	229.88
816.89	229.92
817.21	229.96
817.53	229.94
817.85	229.90
818.17	229.88
818.48	229.80
818.80	229.74
819.12	229.62
819.44	229.61
819.76	229.61
820.07	229.62
820.39	229.52
820.71	229.50
821.03	229.54
821.34	229.48
821.66	229.50
821.98	229.52
822.30	229.45
822.61	229.50
822.93	229.44
823.25	229.29
823.57	229.31
823.88	229.40
824.20	229.41
824.52	229.30
824.83	229.23
825.15	229.22
825.47	229.08
825.79	229.14
826.10	229.04
826.42	228.92
826.74	228.98
827.05	228.98
827.37	229.01
827.69	228.94
828.00	228.95
828.32	228.90
828.64	228.89
828.95	228.99
829.27	228.90
829.58	228.90
829.90	228.93
830.22	228.98
830.53	228.91
830.85	228.96
831.17	229.00
831.48	229.06
831.80	229.04
832.11	229.12
832.43	229.12
832.75	229.07
833.06	229.24
833.38	229.18
833.69	229.14
834.01	229.10
834.32	229.14
834.64	229.07
834.96	229.04
835.27	229.06
835.59	228.98
835.90	229.04
836.22	228.96
836.53	229.01
836.85	228.90
837.16	228.99
837.48	228.89
837.79	229.01
838.11	228.99
838.42	229.04
838.74	229.03
839.05	229.01
839.37	229.08
839.68	228.94
840.00	228.91
840.31	228.91
840.63	228.94
840.94	228.98
841.26	229.15
841.57	229.27
841.88	229.32
842.20	229.28
842.51	229.28
842.83	229.42
843.14	229.63
843.46	229.62
843.77	229.52
844.08	229.55
844.40	229.51
844.71	229.49
845.03	229.45
845.34	229.43
845.65	229.48
845.97	229.44
846.28	229.40
846.60	229.37
846.91	229.38
847.22	229.30
847.54	229.31
847.85	229.20
848.16	229.10
848.48	229.10
848.79	229.12
849.10	229.08
849.42	229.08
849.73	228.78
850.04	228.71
850.36	228.61
850.67	228.63
850.98	228.49
851.30	228.57
851.61	228.51
851.92	228.52
852.23	228.54
852.55	228.61
852.86	228.75
853.17	228.80
853.49	228.87
853.80	228.84
854.11	228.83
854.42	228.80
854.74	228.89
855.05	228.80
855.36	228.67
855.67	228.71
855.99	228.62
856.30	228.95
856.61	228.93
856.92	228.92
857.23	229.02
857.55	229.06
857.86	228.91
858.17	228.99
858.48	228.89
858.79	228.75
859.11	228.74
859.42	228.67
859.73	228.66
860.04	228.62
860.35	228.66
860.66	228.60
860.98	228.61
861.29	228.60
861.60	228.60
861.91	228.77
862.22	228.64
862.53	228.52
862.84	228.24
863.16	228.33
863.47	228.30
863.78	228.18
864.09	228.19
864.40	228.30
864.71	228.26
865.02	228.34
865.33	228.29
865.64	228.26
865.95	228.32
866.27	228.38
866.58	228.34
866.89	228.44
867.20	228.47
867.51	228.50
867.82	228.46
868.13	228.47
868.44	228.41
868.75	228.59
869.06	228.60
869.37	228.57
869.68	228.47
869.99	228.51
870.30	228.48
870.61	228.52
870.92	228.39
871.23	228.42
871.54	228.47
871.85	228.63
872.16	228.59
872.47	228.60
872.78	228.50
873.09	228.50
873.40	228.34
873.71	228.34
874.02	228.28
874.33	228.31
874.64	228.28
874.95	228.40
875.26	228.21
875.56	228.31
875.87	228.40
876.18	228.44
876.49	228.69
876.80	228.73
877.11	228.70
877.42	228.88
877.73	228.82
878.04	228.92
878.35	228.87
878.66	228.85
878.96	228.74
879.27	228.81
879.58	228.74
879.89	228.70
880.20	228.71
880.51	228.79
880.82	228.82
881.12	228.78
881.43	228.60
881.74	228.64
882.05	228.70
882.36	228.65
882.67	228.71
882.97	228.42
883.28	228.39
883.59	228.45
883.90	228.32
884.21	228.33
884.51	228.24
884.82	228.16
885.13	228.26
885.44	228.36
885.74	228.40
886.05	228.46
886.36	228.50
886.67	228.46
886.98	228.50
887.28	228.47
887.59	228.49
887.90	228.58
888.20	228.61
888.51	228.60
888.82	228.59
889.13	228.51
889.43	228.80
889.74	228.77
890.05	228.75
890.35	228.83
890.66	228.81
890.97	228.76
891.28	228.77
891.58	228.76
891.89	228.81
892.20	228.66
892.50	228.61
892.81	228.58
893.12	228.61
893.42	228.62
893.73	228.53
894.04	228.58
894.34	228.48
894.65	228.37
894.95	228.31
895.26	228.29
895.57	228.39
895.87	228.10
896.18	228.20
896.48	228.09
896.79	227.94
897.10	228.03
897.40	227.92
897.71	227.99
898.01	227.99
898.32	227.87
898.63	227.92
898.93	227.98
899.24	228.00
899.54	227.81
899.85	227.70
900.15	227.76
900.46	227.80
900.76	227.85
901.07	227.95
901.38	227.92
901.68	228.01
901.99	227.93
902.29	228.01
902.60	228.00
902.90	228.08
903.21	228.17
903.51	228.11
903.82	228.21
904.12	228.20
904.43	228.24
904.73	228.25
905.03	228.28
905.34	228.42
905.64	228.52
905.95	228.63
906.25	228.70
906.56	228.66
906.86	228.71
907.17	228.72
907.47	228.67
907.77	228.71
908.08	228.62
908.38	228.62
908.69	228.64
908.99	228.76
909.30	228.78
909.60	228.75
909.90	228.81
910.21	228.78
910.51	228.85
910.81	228.80
911.12	228.83
911.42	228.77
911.73	228.56
912.03	228.45
912.33	228.47
912.64	228.54
912.94	228.47
913.24	228.49
913.55	228.48
913.85	228.45
914.15	228.48
914.46	228.59
914.76	228.70
915.06	228.56
915.37	228.38
915.67	228.25
915.97	228.42
916.27	228.42
916.58	228.36
916.88	228.37
917.18	228.41
917.49	228.58
917.79	228.69
918.09	228.84
918.39	228.98
918.70	229.03
919.00	228.94
919.30	229.06
919.60	229.01
919.91	229.03
920.21	229.08
920.51	229.06
920.81	229.01
921.12	228.90
921.42	229.05
921.72	229.18
922.02	229.22
922.32	229.23
922.63	229.16
922.93	229.28
923.23	229.23
923.53	229.18
923.83	228.98
924.13	228.97
924.44	228.89
924.74	228.86
925.04	228.90
925.34	228.90
925.64	228.88
925.94	228.76
926.24	228.88
926.55	228.79
926.85	228.77
927.15	228.79
927.45	228.86
927.75	228.76
928.05	228.70
928.35	228.76
928.65	228.71
928.95	228.71
929.26	228.66
929.56	228.70
929.86	228.68
930.16	228.71
930.46	228.64
930.76	228.76
931.06	228.69
931.36	228.60
931.66	228.68
931.96	228.69
932.26	228.67
932.56	228.60
932.86	228.67
933.16	228.78
933.46	228.69
933.76	228.65
934.06	228.79
934.36	228.82
934.66	228.75
934.96	228.71
935.26	228.79
935.56	228.83
935.86	228.75
936.16	228.72
936.46	228.68
936.76	228.72
937.06	228.53
937.36	228.56
937.66	228.52
937.96	228.40
938.26	228.28
938.56	228.32
938.86	228.12
939.16	228.11
939.46	227.98
939.76	228.02
940.06	227.96
940.35	227.89
940.65	227.87
940.95	227.98
941.25	227.95
941.55	227.87
941.85	227.84
942.15	227.96
942.45	228.07
942.75	228.10
943.04	228.03
943.34	228.04
943.64	227.98
943.94	227.90
944.24	227.95
944.54	228.01
944.84	227.99
945.13	228.04
945.43	228.09
945.73	228.04
946.03	227.97
946.33	228.04
946.62	227.98
946.92	227.90
947.22	227.80
947.52	227.76
947.82	227.83
948.11	227.82
948.41	227.71
948.71	227.56
949.01	227.58
949.31	227.55
949.60	227.61
949.90	227.67
950.20	227.75
950.50	227.75
950.79	227.70
951.09	227.69
951.39	227.75
951.69	227.73
951.98	227.87
952.28	227.98
952.58	227.90
952.87	227.96
953.17	228.04
953.47	228.15
953.76	228.15
954.06	228.07
954.36	227.98
954.66	227.90
954.95	227.99
955.25	227.99
955.55	228.03
955.84	227.97
956.14	227.92
956.44	227.90
956.73	227.88
957.03	227.97
957.32	227.98
957.62	227.92
957.92	227.91
958.21	227.82
958.51	228.07
958.81	228.16
959.10	228.08
959.40	228.10
959.69	228.07
959.99	228.09
960.29	228.15
960.58	228.18
960.88	228.31
961.17	228.28
961.47	228.31
961.76	228.24
962.06	228.31
962.36	228.40
962.65	228.51
962.95	228.45
963.24	228.41
963.54	228.41
963.83	228.51
964.13	228.53
964.42	228.56
964.72	228.37
965.01	228.20
965.31	228.24
965.60	228.26
965.90	228.40
966.19	228.29
966.49	228.23
966.78	228.24
967.08	228.22
967.37	228.24
967.67	228.20
967.96	228.35
968.26	228.40
968.55	228.44
968.85	228.38
969.14	228.47
969.43	228.45
969.73	228.44
970.02	228.34
970.32	228.32
970.61	228.19
970.91	228.06
971.20	228.16
971.49	228.17
971.79	228.12
972.08	227.87
972.38	228.03
972.67	228.05
972.96	228.08
973.26	228.02
973.55	228.05
973.85	228.01
974.14	227.91
974.43	227.86
974.73	227.74
975.02	227.64
975.31	227.56
975.61	227.62
975.90	227.63
976.19	227.62
976.49	227.64
976.78	227.78
977.07	227.80
977.37	227.87
977.66	227.89
977.95	227.90
978.24	227.95
978.54	227.93
978.83	227.95
979.12	227.88
979.42	227.84
979.71	227.71
980.00	227.71
980.29	227.74
980.59	227.71
980.88	227.79
981.17	227.84
981.46	227.91
981.76	227.90
982.05	227.92
982.34	227.90
982.63	227.87
982.93	227.79
983.22	227.83
983.51	227.80
983.80	227.77
984.09	227.78
984.39	227.74
984.68	227.75
984.97	227.70
985.26	227.71
985.55	227.80
985.85	227.82
986.14	227.88
986.43	227.95
986.72	227.93
987.01	227.88
987.30	227.94
987.59	227.85
987.89	227.95
988.18	228.01
988.47	228.11
988.76	228.10
989.05	228.10
989.34	228.08
989.63	228.11
989.92	228.16
990.22	228.20
990.51	228.23
990.80	228.20
991.09	228.26
991.38	228.37
991.67	228.35
991.96	228.41
992.25	228.40
992.54	228.25
992.83	228.26
993.12	228.22
993.41	228.22
993.70	228.38
993.99	228.30
994.28	228.22
994.58	228.27
994.87	228.17
995.16	228.24
995.45	228.26
995.74	228.15
996.03	228.20
996.32	228.18
996.61	228.18
996.90	228.20
997.19	228.13
997.48	228.11
997.77	228.01
998.06	227.99
998.34	228.00
998.63	227.99
998.92	228.01
999.21	228.08
999.50	228.03
999.79	227.89
1000.08	227.91
1000.37	227.95
1000.66	227.79
1000.95	227.94
1001.24	227.92
1001.53	227.93
1001.82	227.93
1002.11	227.68
1002.40	227.62
1002.68	227.74
1002.97	227.84
1003.26	227.80
1003.55	227.78
1003.84	227.80
1004.13	227.79
1004.42	227.74
1004.71	227.77
1004.99	227.73
1005.28	227.72
1005.57	227.67
1005.86	227.64
1006.15	227.57
1006.44	227.45
1006.72	227.68
1007.01	227.58
1007.30	227.61
1007.59	227.51
1007.88	227.53
1008.17	227.62
1008.45	227.63
1008.74	227.50
1009.03	227.38
1009.32	227.39
1009.60	227.30
1009.89	227.39
1010.18	227.41
1010.47	227.46
1010.76	227.54
1011.04	227.53
1011.33	227.60
1011.62	227.73
1011.91	227.73
1012.19	227.84
1012.48	227.90
1012.77	227.79
1013.05	227.92
1013.34	227.96
1013.63	227.94
1013.92	227.98
1014.20	228.05
1014.49	228.02
1014.78	228.13
1015.06	228.19
1015.35	228.22
1015.64	228.30
1015.92	228.31
1016.21	228.27
1016.50	228.26
1016.78	228.30
1017.07	228.34
1017.36	228.26
1017.64	228.18
1017.93	228.26
1018.22	228.15
1018.50	228.20
1018.79	228.14
1019.08	228.07
1019.36	228.05
1019.65	228.16
1019.93	228.20
1020.22	228.23
1020.51	228.39
1020.79	228.34
1021.08	227.30
1021.36	227.70
1021.65	227.30
1021.94	228.10
1022.22	229.10
1022.51	228.70
1022.79	229.20
1023.08	228.90
1023.36	230.90
1023.65	228.30
>>>>>End Processed Spectral Data<<<<<
