SpectraSuite Data File
++++++++++++++++++++++++++++++++++++
Date: Fri Feb 01 14:40:30 EST 2013
User: group
Dark Spectrum Present: No
Reference Spectrum Present: No
Number of Sampled Component Spectra: 1
Spectrometers: USB2E7196
Integration Time (usec): 70000 (USB2E7196)
Spectra Averaged: 10 (USB2E7196)
Boxcar Smoothing: 10 (USB2E7196)
Correct for Electrical Dark: No (USB2E7196)
Strobe/Lamp Enabled: No (USB2E7196)
Correct for Detector Non-linearity: No (USB2E7196)
Correct for Stray Light: No (USB2E7196)
Number of Pixels in Processed Spectrum: 2048
>>>>>Begin Processed Spectral Data<<<<<
339.09	0.00
339.48	215.90
339.86	219.40
340.24	219.00
340.63	221.30
341.01	224.40
341.39	223.40
341.78	223.80
342.16	225.80
342.54	224.90
342.93	214.62
343.31	225.49
343.69	226.02
344.07	226.46
344.46	226.89
344.84	227.31
345.22	227.55
345.60	227.83
345.99	227.99
346.37	228.12
346.75	228.28
347.13	228.30
347.52	228.39
347.90	228.54
348.28	228.55
348.66	228.64
349.05	228.52
349.43	228.60
349.81	228.65
350.19	228.85
350.57	228.89
350.96	228.89
351.34	228.95
351.72	229.14
352.10	229.09
352.48	229.15
352.87	229.09
353.25	229.11
353.63	229.17
354.01	229.27
354.39	229.35
354.77	229.46
355.15	229.44
355.54	229.47
355.92	229.51
356.30	229.56
356.68	229.70
357.06	229.79
357.44	229.77
357.82	229.96
358.20	229.91
358.58	229.84
358.97	229.93
359.35	230.04
359.73	230.04
360.11	230.17
360.49	230.20
360.87	230.24
361.25	230.28
361.63	230.35
362.01	230.33
362.39	230.36
362.77	230.28
363.15	230.37
363.53	230.40
363.91	230.39
364.29	230.34
364.67	230.26
365.05	230.24
365.43	230.37
365.81	230.30
366.19	230.39
366.57	230.50
366.95	230.39
367.33	230.31
367.71	230.26
368.09	230.24
368.47	230.20
368.85	230.11
369.23	230.16
369.61	229.98
369.99	230.04
370.37	229.90
370.75	229.93
371.13	229.79
371.51	229.70
371.89	229.57
372.27	229.48
372.65	229.35
373.03	229.33
373.41	229.10
373.78	229.00
374.16	228.83
374.54	228.74
374.92	228.76
375.30	228.68
375.68	228.53
376.06	228.45
376.44	228.37
376.82	228.48
377.19	228.29
377.57	228.32
377.95	228.21
378.33	228.13
378.71	227.97
379.09	227.97
379.47	227.99
379.84	227.92
380.22	227.88
380.60	227.74
380.98	227.64
381.36	227.61
381.73	227.57
382.11	227.47
382.49	227.38
382.87	227.29
383.25	227.13
383.62	227.37
384.00	227.25
384.38	227.19
384.76	226.98
385.13	226.94
385.51	226.80
385.89	226.71
386.27	226.80
386.64	226.89
387.02	226.83
387.40	226.71
387.78	226.71
388.15	226.63
388.53	226.68
388.91	226.59
389.29	226.53
389.66	226.51
390.04	226.61
390.42	226.66
390.79	226.52
391.17	226.59
391.55	226.33
391.92	226.29
392.30	226.32
392.68	226.36
393.05	226.36
393.43	226.48
393.81	226.53
394.18	226.56
394.56	226.60
394.94	226.71
395.31	226.78
395.69	226.95
396.06	227.09
396.44	227.12
396.82	227.30
397.19	227.44
397.57	227.50
397.95	227.55
398.32	227.45
398.70	227.73
399.07	227.82
399.45	227.88
399.82	228.05
400.20	228.16
400.58	228.33
400.95	228.52
401.33	228.61
401.70	228.94
402.08	229.02
402.45	229.06
402.83	229.26
403.20	229.35
403.58	229.46
403.95	229.68
404.33	229.85
404.71	229.92
405.08	230.22
405.46	230.39
405.83	230.61
406.21	230.91
406.58	231.07
406.96	231.24
407.33	231.40
407.70	231.61
408.08	231.96
408.45	232.19
408.83	232.47
409.20	232.69
409.58	232.71
409.95	233.04
410.33	233.37
410.70	233.55
411.08	233.86
411.45	234.17
411.82	234.47
412.20	234.88
412.57	235.33
412.95	235.35
413.32	235.72
413.69	236.09
414.07	236.59
414.44	236.97
414.82	237.46
415.19	238.06
415.56	238.60
415.94	239.12
416.31	239.71
416.68	240.18
417.06	240.88
417.43	241.52
417.81	242.19
418.18	242.89
418.55	243.70
418.93	244.56
419.30	245.34
419.67	246.12
420.04	247.05
420.42	248.04
420.79	249.35
421.16	250.48
421.54	251.68
421.91	252.82
422.28	253.97
422.66	255.27
423.03	256.57
423.40	257.88
423.77	259.09
424.15	260.44
424.52	261.99
424.89	263.56
425.26	265.11
425.64	266.47
426.01	268.07
426.38	269.70
426.75	271.35
427.13	273.09
427.50	274.93
427.87	276.80
428.24	278.57
428.61	280.33
428.99	282.29
429.36	284.29
429.73	286.18
430.10	288.30
430.47	290.47
430.85	292.50
431.22	294.74
431.59	297.30
431.96	299.58
432.33	302.06
432.70	304.38
433.08	307.16
433.45	309.77
433.82	312.45
434.19	315.40
434.56	318.26
434.93	320.94
435.30	323.69
435.68	326.50
436.05	329.29
436.42	332.07
436.79	334.61
437.16	337.30
437.53	340.28
437.90	342.98
438.27	345.57
438.64	348.50
439.01	351.12
439.38	353.29
439.75	355.45
440.13	357.88
440.50	360.22
440.87	361.99
441.24	363.98
441.61	366.01
441.98	367.49
442.35	369.28
442.72	371.14
443.09	372.91
443.46	374.13
443.83	374.92
444.20	375.52
444.57	376.42
444.94	376.67
445.31	377.00
445.68	377.62
446.05	377.80
446.42	377.47
446.79	377.09
447.16	376.59
447.53	376.32
447.90	375.21
448.27	374.15
448.64	372.77
449.01	371.74
449.37	369.86
449.74	367.92
450.11	365.78
450.48	363.31
450.85	360.72
451.22	358.43
451.59	356.33
451.96	354.38
452.33	351.67
452.70	349.46
453.07	346.72
453.43	343.85
453.80	341.03
454.17	338.24
454.54	335.74
454.91	333.15
455.28	330.40
455.65	327.86
456.02	325.57
456.38	323.29
456.75	320.54
457.12	318.20
457.49	316.07
457.86	313.80
458.23	312.02
458.59	310.00
458.96	307.90
459.33	305.97
459.70	304.06
460.07	302.54
460.43	300.69
460.80	299.07
461.17	297.49
461.54	295.96
461.91	294.40
462.27	292.85
462.64	291.47
463.01	290.11
463.38	288.84
463.74	287.25
464.11	286.13
464.48	285.04
464.85	283.90
465.21	282.92
465.58	281.95
465.95	280.69
466.32	279.62
466.68	278.64
467.05	277.67
467.42	276.66
467.78	275.70
468.15	274.89
468.52	274.16
468.88	273.16
469.25	272.32
469.62	271.73
469.98	270.93
470.35	270.25
470.72	269.56
471.08	268.84
471.45	268.21
471.82	267.55
472.18	266.97
472.55	266.55
472.92	265.84
473.28	265.24
473.65	264.62
474.02	264.19
474.38	263.66
474.75	263.16
475.11	262.63
475.48	262.15
475.85	261.58
476.21	261.02
476.58	260.67
476.94	260.37
477.31	260.00
477.67	259.52
478.04	259.22
478.41	258.96
478.77	258.77
479.14	258.40
479.50	258.17
479.87	257.94
480.23	257.62
480.60	257.40
480.96	257.22
481.33	257.15
481.69	256.99
482.06	256.84
482.42	256.78
482.79	256.71
483.15	256.70
483.52	256.72
483.88	256.71
484.25	256.60
484.61	256.60
484.98	256.64
485.34	256.89
485.71	256.94
486.07	257.01
486.44	257.00
486.80	257.20
487.17	257.34
487.53	257.53
487.90	257.83
488.26	258.17
488.62	258.38
488.99	258.70
489.35	259.04
489.72	259.38
490.08	259.76
490.44	260.24
490.81	260.74
491.17	261.17
491.54	261.70
491.90	262.31
492.26	262.89
492.63	263.45
492.99	264.01
493.36	264.76
493.72	265.52
494.08	266.27
494.45	267.02
494.81	267.90
495.17	268.81
495.54	269.76
495.90	270.83
496.26	271.94
496.63	273.13
496.99	274.33
497.35	275.68
497.72	277.04
498.08	278.35
498.44	279.88
498.80	281.55
499.17	283.20
499.53	284.92
499.89	286.83
500.26	288.78
500.62	290.82
500.98	292.92
501.34	295.06
501.71	297.42
502.07	299.90
502.43	302.40
502.79	305.00
503.16	307.64
503.52	310.33
503.88	313.41
504.24	316.50
504.60	319.62
504.97	322.95
505.33	326.46
505.69	330.09
506.05	333.70
506.41	337.53
506.78	341.46
507.14	345.63
507.50	349.73
507.86	354.18
508.22	358.66
508.59	363.32
508.95	368.20
509.31	373.20
509.67	378.33
510.03	383.77
510.39	389.28
510.75	394.94
511.12	400.84
511.48	406.73
511.84	412.70
512.20	418.94
512.56	425.38
512.92	432.00
513.28	438.85
513.64	445.67
514.00	452.86
514.37	460.13
514.73	467.37
515.09	475.03
515.45	482.69
515.81	490.61
516.17	498.48
516.53	506.68
516.89	514.96
517.25	523.30
517.61	531.65
517.97	540.35
518.33	548.99
518.69	557.83
519.05	567.01
519.41	576.46
519.77	586.08
520.13	595.69
520.49	605.03
520.85	614.72
521.21	624.85
521.57	634.85
521.93	644.68
522.29	655.17
522.65	665.72
523.01	676.14
523.37	686.45
523.73	697.36
524.09	708.00
524.45	718.83
524.81	730.19
525.17	741.78
525.53	753.20
525.89	764.91
526.25	776.68
526.61	788.06
526.97	799.62
527.33	811.55
527.68	823.63
528.04	835.89
528.40	848.04
528.76	860.33
529.12	872.92
529.48	885.80
529.84	898.09
530.20	910.28
530.56	923.16
530.91	936.68
531.27	949.37
531.63	962.19
531.99	975.14
532.35	987.96
532.71	1000.46
533.07	1013.46
533.42	1026.45
533.78	1039.26
534.14	1052.40
534.50	1065.03
534.86	1077.67
535.21	1090.38
535.57	1103.39
535.93	1116.17
536.29	1128.77
536.65	1141.24
537.00	1153.90
537.36	1166.82
537.72	1179.51
538.08	1191.78
538.44	1203.59
538.79	1215.96
539.15	1228.12
539.51	1240.74
539.87	1253.24
540.22	1265.86
540.58	1278.24
540.94	1290.49
541.29	1302.44
541.65	1314.20
542.01	1326.90
542.37	1338.94
542.72	1350.62
543.08	1362.09
543.44	1374.19
543.79	1385.16
544.15	1396.62
544.51	1408.05
544.87	1419.16
545.22	1430.35
545.58	1441.28
545.94	1451.66
546.29	1462.30
546.65	1472.93
547.01	1483.30
547.36	1493.16
547.72	1502.81
548.07	1512.53
548.43	1521.61
548.79	1530.88
549.14	1540.09
549.50	1548.17
549.86	1556.75
550.21	1565.39
550.57	1574.01
550.92	1582.20
551.28	1591.03
551.64	1599.10
551.99	1607.20
552.35	1615.05
552.70	1622.82
553.06	1630.88
553.41	1639.20
553.77	1647.09
554.13	1654.70
554.48	1661.83
554.84	1669.57
555.19	1676.74
555.55	1683.88
555.90	1690.90
556.26	1698.13
556.61	1705.21
556.97	1711.69
557.32	1718.31
557.68	1725.02
558.03	1731.46
558.39	1737.53
558.74	1744.22
559.10	1751.03
559.45	1757.36
559.81	1764.17
560.16	1769.94
560.52	1775.50
560.87	1781.46
561.23	1786.17
561.58	1791.99
561.94	1797.45
562.29	1802.01
562.64	1806.61
563.00	1810.72
563.35	1816.17
563.71	1821.29
564.06	1826.18
564.42	1831.40
564.77	1835.87
565.12	1840.22
565.48	1845.04
565.83	1848.99
566.19	1852.70
566.54	1855.65
566.89	1858.61
567.25	1861.51
567.60	1865.34
567.96	1868.54
568.31	1871.12
568.66	1874.34
569.02	1876.96
569.37	1878.84
569.72	1881.05
570.08	1883.54
570.43	1886.21
570.78	1887.71
571.14	1888.46
571.49	1889.48
571.84	1891.32
572.20	1892.41
572.55	1893.32
572.90	1893.24
573.26	1894.42
573.61	1895.12
573.96	1895.65
574.31	1895.09
574.67	1894.18
575.02	1893.19
575.37	1893.04
575.72	1892.42
576.08	1892.12
576.43	1890.80
576.78	1890.29
577.13	1889.87
577.49	1889.36
577.84	1888.06
578.19	1887.06
578.54	1886.02
578.90	1884.55
579.25	1882.36
579.60	1880.24
579.95	1878.32
580.30	1876.36
580.66	1873.60
581.01	1870.69
581.36	1867.93
581.71	1866.14
582.06	1864.08
582.42	1861.68
582.77	1858.46
583.12	1855.47
583.47	1852.78
583.82	1850.64
584.17	1847.60
584.53	1844.89
584.88	1841.63
585.23	1838.69
585.58	1835.50
585.93	1832.47
586.28	1829.55
586.63	1826.54
586.98	1823.97
587.34	1820.55
587.69	1817.43
588.04	1814.38
588.39	1811.33
588.74	1807.41
589.09	1803.58
589.44	1799.58
589.79	1795.78
590.14	1792.60
590.49	1788.91
590.84	1784.41
591.19	1780.26
591.54	1775.78
591.89	1770.22
592.25	1765.56
592.60	1760.25
592.95	1755.20
593.30	1750.26
593.65	1745.38
594.00	1740.00
594.35	1735.36
594.70	1730.22
595.05	1725.40
595.40	1720.10
595.75	1714.70
596.10	1710.39
596.45	1706.19
596.80	1702.18
597.15	1697.49
597.50	1692.36
597.85	1687.84
598.19	1683.80
598.54	1678.77
598.89	1674.56
599.24	1670.88
599.59	1666.59
599.94	1662.05
600.29	1657.30
600.64	1652.29
600.99	1646.45
601.34	1641.79
601.69	1636.26
602.04	1631.52
602.39	1626.46
602.74	1621.55
603.08	1617.05
603.43	1612.49
603.78	1606.57
604.13	1601.02
604.48	1595.88
604.83	1590.78
605.18	1585.38
605.53	1579.05
605.87	1572.92
606.22	1567.06
606.57	1560.60
606.92	1554.63
607.27	1549.42
607.62	1544.08
607.96	1538.84
608.31	1533.77
608.66	1527.63
609.01	1521.49
609.36	1515.00
609.70	1508.26
610.05	1501.97
610.40	1495.52
610.75	1488.51
611.10	1482.32
611.44	1474.97
611.79	1468.34
612.14	1461.75
612.49	1454.54
612.83	1447.68
613.18	1441.00
613.53	1434.52
613.88	1427.86
614.22	1420.95
614.57	1413.63
614.92	1406.48
615.27	1399.97
615.61	1393.08
615.96	1386.72
616.31	1380.61
616.65	1374.82
617.00	1368.90
617.35	1362.74
617.70	1355.92
618.04	1349.40
618.39	1343.08
618.74	1337.44
619.08	1330.82
619.43	1324.17
619.78	1318.22
620.12	1311.76
620.47	1305.53
620.82	1298.34
621.16	1292.10
621.51	1286.05
621.85	1279.92
622.20	1273.59
622.55	1267.00
622.89	1261.01
623.24	1254.80
623.59	1248.55
623.93	1241.84
624.28	1235.34
624.62	1228.81
624.97	1222.67
625.32	1216.80
625.66	1210.87
626.01	1204.50
626.35	1198.09
626.70	1192.02
627.04	1185.83
627.39	1179.81
627.73	1173.57
628.08	1167.81
628.43	1161.72
628.77	1155.37
629.12	1148.88
629.46	1142.50
629.81	1135.66
630.15	1129.03
630.50	1122.55
630.84	1115.55
631.19	1108.88
631.53	1102.19
631.88	1095.30
632.22	1088.67
632.57	1082.40
632.91	1075.44
633.26	1069.11
633.60	1062.81
633.95	1056.40
634.29	1050.06
634.64	1043.94
634.98	1037.71
635.32	1031.93
635.67	1026.24
636.01	1020.53
636.36	1014.73
636.70	1009.23
637.05	1003.90
637.39	998.67
637.73	993.18
638.08	988.67
638.42	983.70
638.77	978.66
639.11	973.46
639.45	968.21
639.80	962.53
640.14	957.32
640.49	951.86
640.83	946.50
641.17	941.03
641.52	935.70
641.86	930.29
642.20	925.29
642.55	919.99
642.89	914.27
643.23	908.48
643.58	903.58
643.92	898.10
644.26	892.71
644.61	887.49
644.95	882.29
645.29	876.00
645.64	870.29
645.98	864.81
646.32	859.68
646.66	854.20
647.01	849.06
647.35	843.83
647.69	838.68
648.04	833.68
648.38	828.23
648.72	822.72
649.06	817.59
649.41	812.23
649.75	806.59
650.09	801.37
650.43	796.11
650.78	790.09
651.12	784.87
651.46	779.72
651.80	774.33
652.14	769.18
652.49	764.31
652.83	759.50
653.17	754.24
653.51	749.02
653.85	744.14
654.20	738.86
654.54	733.53
654.88	728.47
655.22	723.38
655.56	718.39
655.90	713.61
656.25	708.78
656.59	704.11
656.93	699.38
657.27	694.74
657.61	689.77
657.95	685.94
658.29	681.41
658.64	676.72
658.98	672.01
659.32	667.23
659.66	662.53
660.00	658.07
660.34	653.92
660.68	649.50
661.02	644.80
661.36	640.50
661.70	636.63
662.05	632.60
662.39	628.60
662.73	624.71
663.07	620.88
663.41	617.06
663.75	613.04
664.09	609.34
664.43	605.24
664.77	601.76
665.11	597.83
665.45	593.98
665.79	590.14
666.13	586.31
666.47	582.69
666.81	579.02
667.15	574.94
667.49	571.21
667.83	567.96
668.17	564.55
668.51	560.87
668.85	557.19
669.19	553.77
669.53	550.33
669.87	546.82
670.21	543.50
670.55	540.06
670.89	536.97
671.23	533.74
671.57	530.82
671.91	527.74
672.25	524.53
672.58	521.47
672.92	518.57
673.26	515.95
673.60	513.04
673.94	510.24
674.28	507.60
674.62	504.97
674.96	501.98
675.30	499.32
675.64	496.71
675.97	494.22
676.31	491.39
676.65	488.90
676.99	486.58
677.33	483.69
677.67	481.08
678.01	478.31
678.34	475.79
678.68	473.18
679.02	470.61
679.36	468.10
679.70	465.69
680.04	463.25
680.37	460.50
680.71	458.01
681.05	455.79
681.39	453.62
681.73	451.23
682.06	449.09
682.40	447.09
682.74	444.89
683.08	442.67
683.42	440.46
683.75	438.07
684.09	435.58
684.43	433.47
684.77	431.45
685.10	429.26
685.44	427.03
685.78	424.99
686.12	422.89
686.45	420.71
686.79	418.43
687.13	416.48
687.46	414.51
687.80	412.69
688.14	410.55
688.48	408.45
688.81	406.44
689.15	404.50
689.49	402.40
689.82	400.67
690.16	398.61
690.50	396.76
690.83	394.87
691.17	393.03
691.51	391.17
691.84	389.40
692.18	387.65
692.52	385.85
692.85	384.05
693.19	382.22
693.52	380.47
693.86	378.84
694.20	377.17
694.53	375.62
694.87	373.75
695.21	371.97
695.54	370.34
695.88	368.54
696.21	366.72
696.55	365.16
696.88	363.31
697.22	361.86
697.56	360.30
697.89	358.73
698.23	357.29
698.56	355.78
698.90	354.22
699.23	352.54
699.57	350.91
699.90	349.28
700.24	347.76
700.58	346.26
700.91	344.80
701.25	343.36
701.58	341.89
701.92	340.58
702.25	339.29
702.59	337.73
702.92	336.46
703.26	335.19
703.59	333.89
703.93	332.80
704.26	331.47
704.60	330.20
704.93	328.97
705.26	327.69
705.60	326.63
705.93	325.39
706.27	324.35
706.60	323.44
706.94	322.43
707.27	321.32
707.61	320.22
707.94	319.23
708.27	317.99
708.61	316.87
708.94	315.72
709.28	314.67
709.61	313.83
709.94	312.85
710.28	311.92
710.61	310.93
710.95	309.78
711.28	308.89
711.61	307.88
711.95	307.02
712.28	306.06
712.61	304.98
712.95	304.06
713.28	303.33
713.61	302.26
713.95	301.29
714.28	300.44
714.61	299.49
714.95	298.56
715.28	297.77
715.61	296.86
715.95	296.08
716.28	295.26
716.61	294.44
716.95	293.61
717.28	292.86
717.61	292.15
717.94	291.37
718.28	290.54
718.61	289.85
718.94	289.03
719.27	288.39
719.61	287.93
719.94	287.28
720.27	286.47
720.60	285.87
720.94	285.29
721.27	284.70
721.60	284.24
721.93	283.62
722.27	283.08
722.60	282.57
722.93	281.99
723.26	281.53
723.59	281.03
723.93	280.72
724.26	280.16
724.59	279.49
724.92	278.97
725.25	278.39
725.59	277.82
725.92	277.32
726.25	276.86
726.58	276.35
726.91	275.79
727.24	275.22
727.57	274.77
727.91	274.26
728.24	273.76
728.57	273.33
728.90	272.91
729.23	272.38
729.56	272.05
729.89	271.64
730.22	271.08
730.55	270.51
730.89	269.97
731.22	269.50
731.55	269.06
731.88	268.79
732.21	268.40
732.54	268.04
732.87	267.65
733.20	267.13
733.53	266.72
733.86	266.44
734.19	266.05
734.52	265.68
734.85	265.30
735.18	264.88
735.51	264.59
735.84	264.29
736.17	264.02
736.50	263.52
736.83	263.30
737.16	262.92
737.49	262.57
737.82	262.07
738.15	261.78
738.48	261.43
738.81	260.90
739.14	260.51
739.47	260.04
739.80	259.70
740.13	259.42
740.46	258.92
740.79	258.53
741.12	258.27
741.45	257.91
741.78	257.59
742.11	257.23
742.44	256.76
742.77	256.34
743.10	255.87
743.43	255.41
743.75	254.91
744.08	254.88
744.41	254.61
744.74	254.30
745.07	253.88
745.40	253.59
745.73	253.42
746.06	253.20
746.39	253.01
746.71	252.73
747.04	252.39
747.37	252.06
747.70	251.70
748.03	251.36
748.36	251.03
748.68	250.63
749.01	250.44
749.34	250.14
749.67	249.89
750.00	249.70
750.33	249.61
750.65	249.41
750.98	248.88
751.31	248.53
751.64	248.35
751.97	248.20
752.29	247.94
752.62	247.60
752.95	247.36
753.28	247.13
753.60	246.83
753.93	246.60
754.26	246.40
754.59	246.20
754.91	245.94
755.24	245.70
755.57	245.56
755.90	245.33
756.22	245.10
756.55	244.88
756.88	244.50
757.20	244.17
757.53	243.88
757.86	243.75
758.19	243.68
758.51	243.46
758.84	243.27
759.17	243.13
759.49	242.99
759.82	242.84
760.15	242.63
760.47	242.52
760.80	242.35
761.13	242.21
761.45	242.12
761.78	241.99
762.11	241.84
762.43	241.57
762.76	241.41
763.08	241.34
763.41	241.17
763.74	241.16
764.06	240.99
764.39	240.85
764.71	240.71
765.04	240.61
765.37	240.48
765.69	240.30
766.02	240.12
766.34	240.00
766.67	239.83
767.00	239.73
767.32	239.84
767.65	239.98
767.97	239.86
768.30	239.68
768.62	239.60
768.95	239.56
769.27	239.60
769.60	239.47
769.92	239.42
770.25	239.35
770.57	239.29
770.90	239.33
771.22	239.30
771.55	239.23
771.87	239.09
772.20	238.99
772.52	239.10
772.85	239.29
773.17	239.22
773.50	239.17
773.82	239.04
774.15	238.79
774.47	238.53
774.80	238.45
775.12	238.34
775.45	238.23
775.77	238.16
776.09	238.10
776.42	238.12
776.74	238.08
777.07	237.96
777.39	237.81
777.72	237.67
778.04	237.58
778.36	237.40
778.69	237.36
779.01	237.30
779.33	237.10
779.66	236.75
779.98	236.51
780.31	236.37
780.63	236.38
780.95	236.27
781.28	236.13
781.60	236.01
781.92	235.99
782.25	235.86
782.57	235.80
782.89	235.57
783.22	235.33
783.54	235.11
783.86	234.99
784.19	234.95
784.51	234.92
784.83	234.85
785.16	234.73
785.48	234.58
785.80	234.53
786.12	234.31
786.45	234.24
786.77	234.28
787.09	234.26
787.42	234.06
787.74	233.96
788.06	233.91
788.38	233.82
788.71	233.72
789.03	233.71
789.35	233.60
789.67	233.56
789.99	233.52
790.32	233.45
790.64	233.41
790.96	233.48
791.28	233.36
791.61	233.14
791.93	233.19
792.25	233.14
792.57	233.15
792.89	233.04
793.21	233.08
793.54	233.03
793.86	232.90
794.18	232.82
794.50	232.71
794.82	232.61
795.14	232.64
795.47	232.64
795.79	232.66
796.11	232.55
796.43	232.53
796.75	232.55
797.07	232.56
797.39	232.43
797.71	232.27
798.04	232.19
798.36	232.30
798.68	232.27
799.00	232.29
799.32	232.17
799.64	232.35
799.96	232.24
800.28	232.27
800.60	232.23
800.92	232.31
801.24	232.35
801.56	232.51
801.89	232.43
802.21	232.46
802.53	232.35
802.85	232.40
803.17	232.64
803.49	232.55
803.81	232.51
804.13	232.55
804.45	232.42
804.77	232.51
805.09	232.54
805.41	232.49
805.73	232.49
806.05	232.41
806.37	232.36
806.69	232.37
807.01	232.34
807.33	232.32
807.65	232.22
807.97	232.34
808.28	232.23
808.60	232.26
808.92	232.14
809.24	232.28
809.56	232.17
809.88	231.94
810.20	232.02
810.52	231.97
810.84	232.06
811.16	232.24
811.48	232.20
811.80	232.18
812.12	232.16
812.43	232.15
812.75	232.26
813.07	232.22
813.39	232.20
813.71	232.16
814.03	232.25
814.35	232.26
814.67	232.12
814.98	232.16
815.30	232.10
815.62	232.01
815.94	231.93
816.26	232.01
816.58	231.95
816.89	231.87
817.21	231.95
817.53	231.91
817.85	231.73
818.17	231.74
818.48	231.61
818.80	231.61
819.12	231.56
819.44	231.43
819.76	231.34
820.07	231.30
820.39	231.22
820.71	231.09
821.03	231.16
821.34	231.11
821.66	231.05
821.98	231.04
822.30	231.03
822.61	231.05
822.93	231.00
823.25	230.94
823.57	230.84
823.88	230.70
824.20	230.59
824.52	230.54
824.83	230.39
825.15	230.28
825.47	230.17
825.79	230.08
826.10	230.02
826.42	230.01
826.74	229.96
827.05	229.92
827.37	229.90
827.69	229.70
828.00	229.63
828.32	229.53
828.64	229.40
828.95	229.51
829.27	229.34
829.58	229.24
829.90	229.19
830.22	229.20
830.53	229.15
830.85	229.10
831.17	229.08
831.48	229.15
831.80	229.16
832.11	229.16
832.43	229.13
832.75	229.18
833.06	229.19
833.38	229.00
833.69	229.00
834.01	229.00
834.32	228.97
834.64	228.92
834.96	228.87
835.27	228.89
835.59	228.71
835.90	228.70
836.22	228.73
836.53	228.70
836.85	228.60
837.16	228.76
837.48	228.79
837.79	228.82
838.11	228.69
838.42	228.74
838.74	228.78
839.05	228.67
839.37	228.60
839.68	228.52
840.00	228.65
840.31	228.65
840.63	228.68
840.94	228.78
841.26	228.76
841.57	228.84
841.88	228.94
842.20	228.90
842.51	228.90
842.83	228.88
843.14	229.11
843.46	229.20
843.77	229.22
844.08	229.30
844.40	229.26
844.71	229.35
845.03	229.34
845.34	229.34
845.65	229.47
845.97	229.41
846.28	229.46
846.60	229.40
846.91	229.47
847.22	229.39
847.54	229.43
847.85	229.54
848.16	229.51
848.48	229.49
848.79	229.72
849.10	229.78
849.42	229.92
849.73	229.76
850.04	229.80
850.36	229.70
850.67	229.72
850.98	229.84
851.30	229.88
851.61	229.92
851.92	229.98
852.23	230.11
852.55	230.19
852.86	230.25
853.17	230.39
853.49	230.50
853.80	230.50
854.11	230.48
854.42	230.46
854.74	230.40
855.05	230.34
855.36	230.20
855.67	230.22
855.99	230.12
856.30	230.37
856.61	230.29
856.92	230.23
857.23	230.18
857.55	230.09
857.86	230.04
858.17	230.06
858.48	229.95
858.79	229.78
859.11	229.71
859.42	229.69
859.73	229.60
860.04	229.42
860.35	229.40
860.66	229.37
860.98	229.42
861.29	229.36
861.60	229.30
861.91	229.30
862.22	229.29
862.53	229.22
862.84	229.00
863.16	228.98
863.47	228.95
863.78	228.85
864.09	228.85
864.40	228.86
864.71	228.87
865.02	228.90
865.33	228.80
865.64	228.78
865.95	228.68
866.27	228.78
866.58	228.82
866.89	228.77
867.20	228.66
867.51	228.51
867.82	228.51
868.13	228.56
868.44	228.43
868.75	228.43
869.06	228.41
869.37	228.35
869.68	228.31
869.99	228.34
870.30	228.31
870.61	228.17
870.92	228.08
871.23	227.90
871.54	227.90
871.85	228.01
872.16	228.04
872.47	228.05
872.78	227.92
873.09	227.96
873.40	227.90
873.71	227.95
874.02	227.89
874.33	227.88
874.64	227.89
874.95	227.95
875.26	227.80
875.56	227.80
875.87	227.77
876.18	227.83
876.49	227.95
876.80	227.97
877.11	228.00
877.42	228.04
877.73	228.08
878.04	228.10
878.35	228.07
878.66	228.07
878.96	228.07
879.27	228.11
879.58	228.08
879.89	228.09
880.20	228.09
880.51	228.13
880.82	228.20
881.12	228.22
881.43	228.27
881.74	228.31
882.05	228.36
882.36	228.49
882.67	228.46
882.97	228.34
883.28	228.42
883.59	228.46
883.90	228.47
884.21	228.57
884.51	228.48
884.82	228.46
885.13	228.55
885.44	228.56
885.74	228.56
886.05	228.52
886.36	228.64
886.67	228.72
886.98	228.86
887.28	228.90
887.59	229.00
887.90	228.94
888.20	228.95
888.51	229.05
888.82	228.99
889.13	229.06
889.43	229.27
889.74	229.25
890.05	229.25
890.35	229.16
890.66	229.10
890.97	229.07
891.28	229.10
891.58	229.07
891.89	229.05
892.20	229.00
892.50	229.00
892.81	228.91
893.12	228.86
893.42	228.78
893.73	228.80
894.04	228.71
894.34	228.71
894.65	228.82
894.95	228.75
895.26	228.70
895.57	228.79
895.87	228.56
896.18	228.59
896.48	228.64
896.79	228.69
897.10	228.79
897.40	228.84
897.71	228.88
898.01	228.80
898.32	228.88
898.63	228.86
898.93	228.88
899.24	228.96
899.54	228.97
899.85	228.97
900.15	228.87
900.46	228.89
900.76	228.91
901.07	228.82
901.38	228.81
901.68	228.88
901.99	228.75
902.29	228.75
902.60	228.68
902.90	228.64
903.21	228.66
903.51	228.53
903.82	228.51
904.12	228.47
904.43	228.58
904.73	228.40
905.03	228.30
905.34	228.46
905.64	228.33
905.95	228.20
906.25	228.10
906.56	228.07
906.86	228.13
907.17	228.08
907.47	228.04
907.77	227.97
908.08	227.86
908.38	227.85
908.69	227.80
908.99	227.85
909.30	227.82
909.60	227.89
909.90	227.93
910.21	227.90
910.51	227.88
910.81	227.80
911.12	227.90
911.42	227.96
911.73	227.69
912.03	227.69
912.33	227.82
912.64	227.79
912.94	227.74
913.24	227.63
913.55	227.78
913.85	227.71
914.15	227.82
914.46	227.94
914.76	227.92
915.06	228.00
915.37	227.89
915.67	227.82
915.97	227.70
916.27	227.69
916.58	227.71
916.88	227.74
917.18	227.77
917.49	227.75
917.79	227.93
918.09	228.02
918.39	228.18
918.70	228.17
919.00	228.19
919.30	228.39
919.60	228.40
919.91	228.31
920.21	228.30
920.51	228.17
920.81	228.07
921.12	228.27
921.42	228.28
921.72	228.43
922.02	228.52
922.32	228.63
922.63	228.63
922.93	228.78
923.23	228.82
923.53	228.85
923.83	228.82
924.13	228.77
924.44	228.74
924.74	228.75
925.04	228.81
925.34	228.89
925.64	228.87
925.94	228.85
926.24	228.96
926.55	228.93
926.85	229.06
927.15	229.20
927.45	229.00
927.75	228.95
928.05	228.89
928.35	228.92
928.65	228.95
928.95	228.86
929.26	228.79
929.56	228.78
929.86	228.72
930.16	228.69
930.46	228.63
930.76	228.76
931.06	228.68
931.36	228.55
931.66	228.58
931.96	228.53
932.26	228.52
932.56	228.41
932.86	228.53
933.16	228.39
933.46	228.34
933.76	228.34
934.06	228.33
934.36	228.36
934.66	228.30
934.96	228.24
935.26	228.35
935.56	228.29
935.86	228.30
936.16	228.20
936.46	228.23
936.76	228.18
937.06	228.04
937.36	228.01
937.66	228.04
937.96	227.98
938.26	227.86
938.56	227.78
938.86	227.79
939.16	227.78
939.46	227.80
939.76	227.64
940.06	227.56
940.35	227.51
940.65	227.34
940.95	227.38
941.25	227.27
941.55	227.19
941.85	227.12
942.15	227.07
942.45	227.20
942.75	227.12
943.04	227.09
943.34	227.20
943.64	227.30
943.94	227.25
944.24	227.14
944.54	227.18
944.84	227.30
945.13	227.21
945.43	227.18
945.73	227.14
946.03	227.22
946.33	227.21
946.62	227.26
946.92	227.37
947.22	227.32
947.52	227.40
947.82	227.45
948.11	227.53
948.41	227.52
948.71	227.41
949.01	227.51
949.31	227.51
949.60	227.36
949.90	227.36
950.20	227.39
950.50	227.51
950.79	227.54
951.09	227.51
951.39	227.53
951.69	227.54
951.98	227.63
952.28	227.68
952.58	227.80
952.87	227.77
953.17	227.78
953.47	227.79
953.76	227.89
954.06	227.81
954.36	227.86
954.66	227.91
954.95	228.04
955.25	228.13
955.55	228.24
955.84	228.29
956.14	228.28
956.44	228.43
956.73	228.49
957.03	228.58
957.32	228.66
957.62	228.70
957.92	228.84
958.21	228.91
958.51	229.09
958.81	229.10
959.10	229.18
959.40	229.22
959.69	229.42
959.99	229.32
960.29	229.44
960.58	229.35
960.88	229.39
961.17	229.37
961.47	229.33
961.76	229.28
962.06	229.38
962.36	229.43
962.65	229.49
962.95	229.55
963.24	229.54
963.54	229.52
963.83	229.71
964.13	229.63
964.42	229.59
964.72	229.53
965.01	229.56
965.31	229.53
965.60	229.49
965.90	229.55
966.19	229.59
966.49	229.61
966.78	229.71
967.08	229.58
967.37	229.65
967.67	229.58
967.96	229.67
968.26	229.59
968.55	229.57
968.85	229.52
969.14	229.42
969.43	229.36
969.73	229.30
970.02	229.09
970.32	229.07
970.61	228.92
970.91	228.78
971.20	228.74
971.49	228.73
971.79	228.81
972.08	228.60
972.38	228.56
972.67	228.53
972.96	228.41
973.26	228.49
973.55	228.48
973.85	228.57
974.14	228.44
974.43	228.40
974.73	228.33
975.02	228.14
975.31	228.14
975.61	228.13
975.90	228.02
976.19	228.07
976.49	228.01
976.78	228.10
977.07	228.11
977.37	228.02
977.66	227.90
977.95	227.80
978.24	227.74
978.54	227.81
978.83	227.73
979.12	227.75
979.42	227.80
979.71	227.72
980.00	227.70
980.29	227.75
980.59	227.78
980.88	227.81
981.17	227.79
981.46	227.81
981.76	227.85
982.05	228.01
982.34	227.96
982.63	228.00
982.93	227.97
983.22	228.02
983.51	228.14
983.80	228.31
984.09	228.39
984.39	228.47
984.68	228.41
984.97	228.45
985.26	228.33
985.55	228.24
985.85	228.22
986.14	228.26
986.43	228.29
986.72	228.30
987.01	228.21
987.30	228.27
987.59	228.22
987.89	228.22
988.18	228.16
988.47	228.15
988.76	228.19
989.05	228.29
989.34	228.30
989.63	228.31
989.92	228.28
990.22	228.29
990.51	228.27
990.80	228.30
991.09	228.38
991.38	228.59
991.67	228.70
991.96	228.75
992.25	228.79
992.54	228.85
992.83	228.90
993.12	228.99
993.41	229.07
993.70	229.18
993.99	229.26
994.28	229.33
994.58	229.41
994.87	229.35
995.16	229.28
995.45	229.24
995.74	229.16
996.03	229.29
996.32	229.32
996.61	229.40
996.90	229.32
997.19	229.30
997.48	229.41
997.77	229.45
998.06	229.47
998.34	229.35
998.63	229.32
998.92	229.29
999.21	229.26
999.50	229.28
999.79	229.27
1000.08	229.25
1000.37	229.24
1000.66	229.24
1000.95	229.28
1001.24	229.36
1001.53	229.46
1001.82	229.53
1002.11	229.46
1002.40	229.37
1002.68	229.41
1002.97	229.59
1003.26	229.57
1003.55	229.41
1003.84	229.35
1004.13	229.35
1004.42	229.26
1004.71	229.20
1004.99	229.26
1005.28	229.31
1005.57	229.20
1005.86	229.13
1006.15	229.10
1006.44	229.00
1006.72	228.97
1007.01	228.95
1007.30	228.90
1007.59	228.81
1007.88	228.72
1008.17	228.75
1008.45	228.70
1008.74	228.54
1009.03	228.38
1009.32	228.29
1009.60	228.30
1009.89	228.23
1010.18	228.17
1010.47	228.28
1010.76	228.27
1011.04	228.13
1011.33	228.09
1011.62	228.05
1011.91	227.99
1012.19	227.86
1012.48	227.83
1012.77	227.87
1013.05	227.89
1013.34	227.88
1013.63	227.83
1013.92	227.86
1014.20	227.75
1014.49	227.85
1014.78	227.90
1015.06	227.86
1015.35	227.87
1015.64	227.87
1015.92	227.85
1016.21	227.76
1016.50	227.78
1016.78	227.75
1017.07	227.79
1017.36	227.78
1017.64	227.86
1017.93	227.90
1018.22	227.91
1018.50	227.94
1018.79	227.86
1019.08	227.79
1019.36	227.78
1019.65	227.72
1019.93	227.73
1020.22	227.74
1020.51	227.77
1020.79	227.74
1021.08	226.80
1021.36	227.30
1021.65	227.20
1021.94	227.30
1022.22	228.00
1022.51	226.90
1022.79	228.50
1023.08	227.80
1023.36	229.50
1023.65	228.00
>>>>>End Processed Spectral Data<<<<<
