SpectraSuite Data File
++++++++++++++++++++++++++++++++++++
Date: Fri Feb 01 14:33:52 EST 2013
User: group
Dark Spectrum Present: No
Reference Spectrum Present: No
Number of Sampled Component Spectra: 1
Spectrometers: USB2E7196
Integration Time (usec): 70000 (USB2E7196)
Spectra Averaged: 10 (USB2E7196)
Boxcar Smoothing: 10 (USB2E7196)
Correct for Electrical Dark: No (USB2E7196)
Strobe/Lamp Enabled: No (USB2E7196)
Correct for Detector Non-linearity: No (USB2E7196)
Correct for Stray Light: No (USB2E7196)
Number of Pixels in Processed Spectrum: 2048
>>>>>Begin Processed Spectral Data<<<<<
339.09	0.00
339.48	215.20
339.86	219.10
340.24	219.80
340.63	221.20
341.01	224.40
341.39	224.20
341.78	223.70
342.16	224.80
342.54	226.30
342.93	215.05
343.31	225.93
343.69	226.51
344.07	226.97
344.46	227.41
344.84	227.81
345.22	228.09
345.60	228.27
345.99	228.49
346.37	228.72
346.75	228.84
347.13	228.93
347.52	228.89
347.90	228.87
348.28	228.87
348.66	228.91
349.05	228.86
349.43	228.86
349.81	228.83
350.19	228.88
350.57	228.87
350.96	228.97
351.34	229.03
351.72	229.11
352.10	229.13
352.48	229.11
352.87	229.09
353.25	229.16
353.63	229.28
354.01	229.37
354.39	229.41
354.77	229.50
355.15	229.66
355.54	229.72
355.92	229.73
356.30	229.86
356.68	230.05
357.06	230.23
357.44	230.27
357.82	230.31
358.20	230.38
358.58	230.52
358.97	230.63
359.35	230.72
359.73	230.77
360.11	230.69
360.49	230.73
360.87	230.80
361.25	230.83
361.63	230.85
362.01	230.86
362.39	230.87
362.77	230.95
363.15	230.91
363.53	230.99
363.91	231.10
364.29	231.05
364.67	230.87
365.05	230.74
365.43	230.91
365.81	230.98
366.19	231.12
366.57	231.16
366.95	231.00
367.33	230.91
367.71	230.92
368.09	231.08
368.47	231.12
368.85	231.07
369.23	231.03
369.61	230.96
369.99	231.08
370.37	230.98
370.75	231.01
371.13	231.00
371.51	230.90
371.89	230.84
372.27	230.90
372.65	230.92
373.03	230.87
373.41	230.66
373.78	230.66
374.16	230.38
374.54	230.24
374.92	230.22
375.30	230.22
375.68	230.10
376.06	230.17
376.44	230.11
376.82	230.11
377.19	230.01
377.57	229.98
377.95	229.71
378.33	229.78
378.71	229.55
379.09	229.43
379.47	229.41
379.84	229.34
380.22	229.19
380.60	228.99
380.98	228.89
381.36	228.79
381.73	228.56
382.11	228.49
382.49	228.52
382.87	228.42
383.25	228.35
383.62	228.50
384.00	228.25
384.38	228.08
384.76	227.98
385.13	228.00
385.51	227.90
385.89	227.85
386.27	227.73
386.64	227.70
387.02	227.69
387.40	227.60
387.78	227.57
388.15	227.60
388.53	227.59
388.91	227.67
389.29	227.69
389.66	227.80
390.04	227.88
390.42	227.80
390.79	227.74
391.17	227.74
391.55	227.57
391.92	227.54
392.30	227.66
392.68	227.70
393.05	227.69
393.43	227.70
393.81	227.72
394.18	227.70
394.56	227.67
394.94	227.70
395.31	227.75
395.69	227.80
396.06	227.82
396.44	227.94
396.82	227.97
397.19	228.07
397.57	228.09
397.95	228.18
398.32	228.34
398.70	228.41
399.07	228.52
399.45	228.65
399.82	228.95
400.20	229.02
400.58	229.19
400.95	229.27
401.33	229.64
401.70	230.02
402.08	230.28
402.45	230.41
402.83	230.70
403.20	231.04
403.58	231.30
403.95	231.62
404.33	231.92
404.71	232.28
405.08	232.79
405.46	233.13
405.83	233.54
406.21	233.89
406.58	234.43
406.96	234.87
407.33	235.41
407.70	235.82
408.08	236.65
408.45	237.22
408.83	237.86
409.20	238.42
409.58	238.93
409.95	239.67
410.33	240.64
410.70	241.51
411.08	242.38
411.45	243.37
411.82	244.26
412.20	245.34
412.57	246.59
412.95	247.69
413.32	249.04
413.69	250.41
414.07	251.89
414.44	253.50
414.82	255.13
415.19	256.95
415.56	258.88
415.94	260.73
416.31	263.00
416.68	265.24
417.06	267.74
417.43	270.22
417.81	273.02
418.18	275.79
418.55	278.70
418.93	281.81
419.30	285.14
419.67	288.63
420.04	292.19
420.42	295.92
420.79	300.05
421.16	304.26
421.54	308.52
421.91	312.89
422.28	317.57
422.66	322.61
423.03	327.60
423.40	332.65
423.77	338.10
424.15	343.65
424.52	349.40
424.89	355.62
425.26	361.70
425.64	367.33
426.01	373.72
426.38	380.44
426.75	387.11
427.13	393.93
427.50	401.19
427.87	408.92
428.24	416.37
428.61	423.63
428.99	431.57
429.36	440.46
429.73	449.00
430.10	457.38
430.47	465.94
430.85	474.74
431.22	484.14
431.59	493.77
431.96	503.11
432.33	513.60
432.70	523.68
433.08	535.76
433.45	546.72
433.82	557.51
434.19	569.93
434.56	581.98
434.93	593.50
435.30	605.21
435.68	617.86
436.05	630.46
436.42	642.84
436.79	654.13
437.16	666.47
437.53	679.46
437.90	692.32
438.27	704.87
438.64	717.88
439.01	730.09
439.38	741.10
439.75	751.65
440.13	763.55
440.50	775.04
440.87	784.59
441.24	794.78
441.61	806.07
441.98	814.07
442.35	823.68
442.72	833.54
443.09	842.76
443.46	848.74
443.83	852.95
444.20	856.91
444.57	862.61
444.94	865.72
445.31	869.25
445.68	872.39
446.05	874.80
446.42	874.96
446.79	874.90
447.16	874.95
447.53	875.38
447.90	872.39
448.27	869.06
448.64	863.37
449.01	860.26
449.37	852.97
449.74	846.04
450.11	837.54
450.48	827.94
450.85	818.37
451.22	810.32
451.59	802.60
451.96	795.38
452.33	784.71
452.70	775.31
453.07	763.57
453.43	752.12
453.80	740.82
454.17	730.00
454.54	719.72
454.91	708.54
455.28	697.69
455.65	687.46
456.02	676.97
456.38	668.20
456.75	656.85
457.12	647.67
457.49	638.46
457.86	629.51
458.23	621.96
458.59	613.33
458.96	604.50
459.33	596.98
459.70	589.27
460.07	583.14
460.43	575.76
460.80	569.03
461.17	562.91
461.54	556.52
461.91	550.48
462.27	544.18
462.64	538.91
463.01	532.99
463.38	527.22
463.74	521.69
464.11	516.79
464.48	512.24
464.85	507.47
465.21	503.77
465.58	499.80
465.95	494.97
466.32	491.10
466.68	487.20
467.05	483.34
467.42	479.43
467.78	475.34
468.15	471.51
468.52	468.53
468.88	464.80
469.25	461.43
469.62	458.79
469.98	455.88
470.35	453.00
470.72	450.40
471.08	447.51
471.45	445.12
471.82	442.71
472.18	440.25
472.55	438.26
472.92	435.90
473.28	433.84
473.65	432.00
474.02	430.03
474.38	428.51
474.75	426.89
475.11	425.37
475.48	424.39
475.85	423.40
476.21	422.55
476.58	421.67
476.94	420.92
477.31	419.98
477.67	419.20
478.04	418.55
478.41	417.98
478.77	417.84
479.14	417.16
479.50	416.86
479.87	416.99
480.23	417.12
480.60	417.12
480.96	417.08
481.33	417.34
481.69	417.57
482.06	417.72
482.42	417.93
482.79	418.06
483.15	418.62
483.52	419.40
483.88	420.00
484.25	420.67
484.61	421.67
484.98	422.55
485.34	423.93
485.71	425.11
486.07	426.47
486.44	427.58
486.80	429.50
487.17	431.23
487.53	433.04
487.90	434.90
488.26	437.07
488.62	439.30
488.99	441.34
489.35	443.80
489.72	446.33
490.08	449.21
490.44	452.02
490.81	454.84
491.17	457.71
491.54	460.81
491.90	463.93
492.26	467.21
492.63	470.76
492.99	474.08
493.36	477.92
493.72	481.92
494.08	486.00
494.45	489.91
494.81	493.99
495.17	497.93
495.54	502.20
495.90	506.56
496.26	511.13
496.63	515.90
496.99	520.64
497.35	525.65
497.72	530.64
498.08	535.89
498.44	541.06
498.80	546.69
499.17	552.10
499.53	557.67
499.89	563.21
500.26	568.64
500.62	574.10
500.98	579.82
501.34	585.46
501.71	591.41
502.07	597.31
502.43	603.25
502.79	609.45
503.16	615.36
503.52	621.44
503.88	627.17
504.24	633.22
504.60	639.36
504.97	645.34
505.33	651.25
505.69	657.66
506.05	663.77
506.41	669.53
506.78	675.55
507.14	681.49
507.50	687.53
507.86	694.10
508.22	700.18
508.59	706.06
508.95	712.12
509.31	717.94
509.67	724.10
510.03	729.99
510.39	735.34
510.75	741.47
511.12	747.26
511.48	753.18
511.84	758.98
512.20	764.50
512.56	770.33
512.92	776.12
513.28	781.42
513.64	786.57
514.00	791.68
514.37	796.82
514.73	802.02
515.09	806.77
515.45	811.30
515.81	816.48
516.17	821.32
516.53	826.03
516.89	830.46
517.25	834.51
517.61	838.96
517.97	843.59
518.33	847.44
518.69	851.50
519.05	855.65
519.41	859.54
519.77	863.88
520.13	867.80
520.49	871.46
520.85	875.06
521.21	878.95
521.57	883.12
521.93	886.40
522.29	890.17
522.65	893.68
523.01	896.79
523.37	899.70
523.73	902.86
524.09	906.05
524.45	909.41
524.81	912.59
525.17	916.17
525.53	919.30
525.89	922.68
526.25	925.70
526.61	928.26
526.97	931.36
527.33	934.20
527.68	937.02
528.04	939.90
528.40	942.77
528.76	945.85
529.12	948.45
529.48	951.67
529.84	954.10
530.20	957.00
530.56	960.33
530.91	963.70
531.27	966.89
531.63	969.56
531.99	972.38
532.35	975.33
532.71	977.40
533.07	980.24
533.42	982.83
533.78	985.55
534.14	988.64
534.50	991.10
534.86	993.79
535.21	995.99
535.57	998.78
535.93	1001.41
536.29	1003.82
536.65	1006.12
537.00	1008.29
537.36	1011.14
537.72	1013.75
538.08	1015.83
538.44	1017.96
538.79	1019.99
539.15	1022.51
539.51	1024.90
539.87	1027.46
540.22	1030.30
540.58	1033.16
540.94	1035.57
541.29	1037.73
541.65	1039.91
542.01	1042.92
542.37	1045.20
542.72	1047.68
543.08	1049.89
543.44	1052.19
543.79	1054.14
544.15	1056.59
544.51	1059.47
544.87	1061.62
545.22	1064.17
545.58	1066.74
545.94	1068.61
546.29	1071.03
546.65	1073.00
547.01	1074.97
547.36	1076.74
547.72	1078.42
548.07	1079.79
548.43	1081.65
548.79	1083.75
549.14	1085.56
549.50	1086.79
549.86	1088.17
550.21	1089.88
550.57	1091.94
550.92	1093.75
551.28	1095.36
551.64	1096.92
551.99	1098.36
552.35	1100.07
552.70	1101.08
553.06	1102.72
553.41	1104.68
553.77	1106.12
554.13	1107.67
554.48	1109.15
554.84	1110.96
555.19	1112.59
555.55	1114.49
555.90	1115.59
556.26	1116.88
556.61	1118.57
556.97	1120.09
557.32	1121.83
557.68	1123.47
558.03	1124.65
558.39	1125.89
558.74	1128.10
559.10	1129.71
559.45	1131.10
559.81	1132.70
560.16	1134.29
560.52	1135.17
560.87	1136.85
561.23	1137.96
561.58	1139.60
561.94	1141.06
562.29	1141.93
562.64	1142.81
563.00	1143.59
563.35	1145.42
563.71	1147.38
564.06	1148.64
564.42	1149.74
564.77	1150.80
565.12	1151.88
565.48	1153.00
565.83	1153.77
566.19	1154.22
566.54	1155.00
566.89	1155.80
567.25	1156.40
567.60	1157.61
567.96	1158.86
568.31	1159.30
568.66	1159.82
569.02	1159.96
569.37	1160.28
569.72	1160.95
570.08	1161.70
570.43	1162.01
570.78	1161.99
571.14	1161.20
571.49	1161.24
571.84	1161.49
572.20	1161.28
572.55	1161.07
572.90	1160.68
573.26	1160.64
573.61	1160.68
573.96	1159.96
574.31	1159.04
574.67	1158.04
575.02	1156.74
575.37	1155.72
575.72	1154.36
576.08	1153.63
576.43	1152.80
576.78	1151.79
577.13	1150.84
577.49	1149.72
577.84	1148.61
578.19	1147.60
578.54	1146.48
578.90	1144.99
579.25	1143.09
579.60	1141.45
579.95	1139.78
580.30	1137.76
580.66	1136.30
581.01	1134.03
581.36	1132.52
581.71	1130.96
582.06	1129.40
582.42	1127.67
582.77	1125.55
583.12	1123.70
583.47	1122.11
583.82	1120.00
584.17	1118.07
584.53	1115.71
584.88	1113.65
585.23	1111.55
585.58	1109.10
585.93	1107.20
586.28	1105.23
586.63	1103.45
586.98	1101.67
587.34	1099.93
587.69	1097.91
588.04	1095.37
588.39	1093.22
588.74	1090.50
589.09	1088.39
589.44	1085.63
589.79	1083.39
590.14	1081.36
590.49	1079.18
590.84	1076.27
591.19	1073.99
591.54	1071.18
591.89	1068.19
592.25	1065.53
592.60	1062.36
592.95	1059.66
593.30	1056.53
593.65	1053.21
594.00	1050.10
594.35	1047.41
594.70	1043.80
595.05	1040.86
595.40	1037.70
595.75	1034.62
596.10	1031.89
596.45	1028.82
596.80	1026.17
597.15	1023.15
597.50	1019.89
597.85	1017.01
598.19	1014.05
598.54	1011.36
598.89	1008.40
599.24	1006.14
599.59	1003.07
599.94	1000.52
600.29	997.34
600.64	994.47
600.99	991.28
601.34	988.18
601.69	984.80
602.04	981.61
602.39	978.56
602.74	975.87
603.08	973.24
603.43	970.40
603.78	967.05
604.13	963.91
604.48	960.70
604.83	957.60
605.18	954.33
605.53	950.93
605.87	946.93
606.22	943.80
606.57	940.05
606.92	936.74
607.27	933.46
607.62	930.50
607.96	927.26
608.31	924.33
608.66	920.93
609.01	917.07
609.36	913.54
609.70	909.36
610.05	905.21
610.40	901.21
610.75	897.05
611.10	893.20
611.44	888.93
611.79	885.21
612.14	881.25
612.49	876.85
612.83	873.16
613.18	869.55
613.53	865.66
613.88	861.66
614.22	857.72
614.57	853.41
614.92	849.12
615.27	845.12
615.61	840.90
615.96	836.84
616.31	833.55
616.65	830.54
617.00	827.26
617.35	823.97
617.70	820.20
618.04	816.78
618.39	813.20
618.74	809.87
619.08	805.95
619.43	802.47
619.78	799.30
620.12	795.60
620.47	791.96
620.82	788.11
621.16	784.60
621.51	781.13
621.85	777.87
622.20	774.41
622.55	771.05
622.89	767.74
623.24	764.76
623.59	761.27
623.93	757.60
624.28	754.30
624.62	750.87
624.97	747.50
625.32	744.23
625.66	741.05
626.01	738.01
626.35	734.81
626.70	731.68
627.04	728.44
627.39	724.91
627.73	721.53
628.08	718.44
628.43	715.18
628.77	711.91
629.12	708.49
629.46	705.09
629.81	701.56
630.15	698.17
630.50	694.50
630.84	690.92
631.19	687.45
631.53	684.24
631.88	680.64
632.22	677.01
632.57	673.59
632.91	670.25
633.26	666.75
633.60	663.34
633.95	659.81
634.29	656.59
634.64	653.86
634.98	650.68
635.32	647.92
635.67	644.92
636.01	641.80
636.36	638.85
636.70	636.15
637.05	633.30
637.39	630.52
637.73	627.70
638.08	625.11
638.42	622.30
638.77	619.38
639.11	616.64
639.45	613.98
639.80	611.20
640.14	608.41
640.49	605.74
640.83	602.92
641.17	600.18
641.52	597.36
641.86	594.29
642.20	591.76
642.55	588.61
642.89	585.73
643.23	582.88
643.58	580.45
643.92	577.43
644.26	574.82
644.61	572.47
644.95	569.89
645.29	566.79
645.64	564.03
645.98	561.32
646.32	558.67
646.66	556.16
647.01	553.52
647.35	550.82
647.69	548.07
648.04	545.68
648.38	542.93
648.72	540.07
649.06	537.40
649.41	534.75
649.75	532.13
650.09	529.55
650.43	526.92
650.78	524.13
651.12	521.60
651.46	518.92
651.80	516.06
652.14	513.49
652.49	511.02
652.83	508.59
653.17	506.02
653.51	503.35
653.85	500.82
654.20	498.32
654.54	495.75
654.88	493.17
655.22	490.33
655.56	487.85
655.90	485.71
656.25	483.47
656.59	481.09
656.93	478.72
657.27	476.53
657.61	474.10
657.95	471.85
658.29	469.63
658.64	467.44
658.98	464.97
659.32	462.51
659.66	460.30
660.00	457.95
660.34	455.80
660.68	453.85
661.02	451.69
661.36	449.47
661.70	447.34
662.05	445.34
662.39	443.56
662.73	441.55
663.07	439.50
663.41	437.60
663.75	435.44
664.09	433.50
664.43	431.43
664.77	429.81
665.11	427.77
665.45	425.80
665.79	423.91
666.13	422.19
666.47	420.51
666.81	418.58
667.15	416.65
667.49	414.78
667.83	413.14
668.17	411.35
668.51	409.54
668.85	407.82
669.19	406.24
669.53	404.60
669.87	403.00
670.21	401.30
670.55	399.71
670.89	398.39
671.23	396.86
671.57	395.44
671.91	393.77
672.25	392.37
672.58	390.97
672.92	389.47
673.26	388.19
673.60	386.73
673.94	385.49
674.28	384.22
674.62	383.01
674.96	381.46
675.30	380.18
675.64	379.00
675.97	377.72
676.31	376.25
676.65	374.89
676.99	373.61
677.33	372.26
677.67	370.84
678.01	369.27
678.34	368.10
678.68	366.78
679.02	365.51
679.36	364.16
679.70	362.83
680.04	361.46
680.37	360.15
680.71	358.87
681.05	357.63
681.39	356.56
681.73	355.34
682.06	354.18
682.40	353.07
682.74	351.80
683.08	350.68
683.42	349.57
683.75	348.46
684.09	347.24
684.43	346.10
684.77	345.04
685.10	344.06
685.44	342.83
685.78	341.78
686.12	340.72
686.45	339.50
686.79	338.50
687.13	337.60
687.46	336.40
687.80	335.30
688.14	334.12
688.48	333.10
688.81	331.86
689.15	330.93
689.49	329.67
689.82	328.83
690.16	327.71
690.50	326.62
690.83	325.58
691.17	324.65
691.51	323.80
691.84	322.80
692.18	321.68
692.52	320.63
692.85	319.56
693.19	318.51
693.52	317.71
693.86	316.60
694.20	315.62
694.53	314.65
694.87	313.79
695.21	313.03
695.54	311.94
695.88	311.15
696.21	310.00
696.55	309.11
696.88	308.03
697.22	307.19
697.56	306.43
697.89	305.56
698.23	304.82
698.56	303.83
698.90	302.99
699.23	302.25
699.57	301.40
699.90	300.60
700.24	299.80
700.58	298.98
700.91	298.24
701.25	297.44
701.58	296.80
701.92	296.10
702.25	295.32
702.59	294.70
702.92	293.92
703.26	293.25
703.59	292.60
703.93	292.12
704.26	291.42
704.60	290.71
704.93	290.06
705.26	289.26
705.60	288.63
705.93	287.83
706.27	287.17
706.60	286.66
706.94	286.12
707.27	285.40
707.61	284.86
707.94	284.46
708.27	283.77
708.61	283.10
708.94	282.43
709.28	281.81
709.61	281.12
709.94	280.54
710.28	279.99
710.61	279.48
710.95	278.70
711.28	278.48
711.61	277.91
711.95	277.40
712.28	276.80
712.61	276.30
712.95	275.93
713.28	275.53
713.61	274.89
713.95	274.32
714.28	274.00
714.61	273.40
714.95	272.83
715.28	272.38
715.61	271.89
715.95	271.45
716.28	271.03
716.61	270.62
716.95	270.14
717.28	269.80
717.61	269.41
717.94	268.91
718.28	268.23
718.61	267.84
718.94	267.35
719.27	267.05
719.61	266.63
719.94	266.32
720.27	265.85
720.60	265.55
720.94	265.23
721.27	264.84
721.60	264.48
721.93	264.02
722.27	263.75
722.60	263.51
722.93	263.15
723.26	262.92
723.59	262.59
723.93	262.30
724.26	261.97
724.59	261.59
724.92	261.24
725.25	261.00
725.59	260.64
725.92	260.43
726.25	260.03
726.58	259.69
726.91	259.28
727.24	258.99
727.57	258.76
727.91	258.40
728.24	258.15
728.57	257.94
728.90	257.71
729.23	257.33
729.56	257.01
729.89	256.85
730.22	256.37
730.55	256.08
730.89	255.80
731.22	255.47
731.55	255.12
731.88	255.07
732.21	254.69
732.54	254.32
732.87	254.07
733.20	253.80
733.53	253.58
733.86	253.28
734.19	253.06
734.52	252.66
734.85	252.49
735.18	252.16
735.51	251.89
735.84	251.71
736.17	251.55
736.50	251.28
736.83	251.04
737.16	250.84
737.49	250.50
737.82	250.21
738.15	250.03
738.48	249.90
738.81	249.65
739.14	249.47
739.47	249.32
739.80	249.06
740.13	248.87
740.46	248.66
740.79	248.52
741.12	248.23
741.45	248.09
741.78	247.79
742.11	247.57
742.44	247.39
742.77	247.17
743.10	246.94
743.43	246.63
743.75	246.24
744.08	246.35
744.41	246.21
744.74	246.13
745.07	245.85
745.40	245.71
745.73	245.66
746.06	245.45
746.39	245.36
746.71	245.16
747.04	244.96
747.37	244.75
747.70	244.56
748.03	244.47
748.36	244.22
748.68	244.12
749.01	243.85
749.34	243.57
749.67	243.36
750.00	243.14
750.33	243.21
750.65	243.20
750.98	242.78
751.31	242.62
751.64	242.40
751.97	242.45
752.29	242.24
752.62	241.89
752.95	241.68
753.28	241.51
753.60	241.48
753.93	241.48
754.26	241.34
754.59	241.14
754.91	240.89
755.24	240.81
755.57	240.70
755.90	240.66
756.22	240.52
756.55	240.40
756.88	240.30
757.20	239.90
757.53	239.69
757.86	239.53
758.19	239.49
758.51	239.41
758.84	239.17
759.17	239.04
759.49	238.93
759.82	239.03
760.15	238.87
760.47	238.65
760.80	238.51
761.13	238.51
761.45	238.42
761.78	238.36
762.11	238.27
762.43	238.20
762.76	238.10
763.08	238.08
763.41	238.00
763.74	237.96
764.06	237.99
764.39	237.89
764.71	237.82
765.04	237.75
765.37	237.62
765.69	237.47
766.02	237.34
766.34	237.29
766.67	237.09
767.00	237.01
767.32	236.99
767.65	236.97
767.97	236.86
768.30	236.70
768.62	236.57
768.95	236.41
769.27	236.24
769.60	236.22
769.92	236.10
770.25	235.93
770.57	235.78
770.90	235.70
771.22	235.60
771.55	235.56
771.87	235.42
772.20	235.34
772.52	235.50
772.85	235.52
773.17	235.40
773.50	235.39
773.82	235.34
774.15	235.20
774.47	234.96
774.80	234.79
775.12	234.73
775.45	234.78
775.77	234.84
776.09	234.80
776.42	234.62
776.74	234.61
777.07	234.57
777.39	234.53
777.72	234.47
778.04	234.37
778.36	234.10
778.69	234.01
779.01	233.90
779.33	233.67
779.66	233.46
779.98	233.36
780.31	233.16
780.63	233.11
780.95	233.14
781.28	233.15
781.60	233.16
781.92	233.19
782.25	232.93
782.57	232.86
782.89	232.76
783.22	232.76
783.54	232.67
783.86	232.58
784.19	232.40
784.51	232.36
784.83	232.25
785.16	232.38
785.48	232.38
785.80	232.44
786.12	232.44
786.45	232.49
786.77	232.46
787.09	232.41
787.42	232.31
787.74	232.19
788.06	232.15
788.38	232.08
788.71	232.04
789.03	232.15
789.35	232.07
789.67	231.99
789.99	232.02
790.32	232.06
790.64	232.07
790.96	232.33
791.28	232.24
791.61	232.36
791.93	232.34
792.25	232.32
792.57	232.32
792.89	232.27
793.21	232.22
793.54	232.14
793.86	232.17
794.18	232.13
794.50	232.17
794.82	232.03
795.14	232.01
795.47	231.92
795.79	231.89
796.11	231.85
796.43	231.79
796.75	231.79
797.07	231.75
797.39	231.70
797.71	231.41
798.04	231.53
798.36	231.49
798.68	231.43
799.00	231.41
799.32	231.41
799.64	231.37
799.96	231.35
800.28	231.34
800.60	231.26
800.92	231.38
801.24	231.32
801.56	231.41
801.89	231.34
802.21	231.35
802.53	231.31
802.85	231.42
803.17	231.55
803.49	231.41
803.81	231.36
804.13	231.32
804.45	231.40
804.77	231.24
805.09	231.20
805.41	231.24
805.73	231.20
806.05	231.02
806.37	231.05
806.69	230.96
807.01	230.96
807.33	231.02
807.65	230.96
807.97	231.00
808.28	230.89
808.60	230.87
808.92	230.86
809.24	230.90
809.56	230.73
809.88	230.64
810.20	230.66
810.52	230.55
810.84	230.48
811.16	230.41
811.48	230.44
811.80	230.45
812.12	230.40
812.43	230.40
812.75	230.44
813.07	230.29
813.39	230.20
813.71	230.26
814.03	230.21
814.35	230.09
814.67	230.04
814.98	230.06
815.30	230.16
815.62	230.12
815.94	230.10
816.26	230.18
816.58	230.21
816.89	230.10
817.21	230.07
817.53	230.06
817.85	230.03
818.17	229.96
818.48	229.93
818.80	229.86
819.12	229.82
819.44	229.86
819.76	229.92
820.07	230.01
820.39	229.91
820.71	229.82
821.03	229.89
821.34	229.86
821.66	229.90
821.98	229.86
822.30	229.90
822.61	229.86
822.93	229.75
823.25	229.63
823.57	229.64
823.88	229.75
824.20	229.79
824.52	229.77
824.83	229.86
825.15	229.73
825.47	229.78
825.79	229.73
826.10	229.61
826.42	229.51
826.74	229.54
827.05	229.54
827.37	229.59
827.69	229.52
828.00	229.48
828.32	229.41
828.64	229.37
828.95	229.41
829.27	229.37
829.58	229.42
829.90	229.57
830.22	229.64
830.53	229.60
830.85	229.62
831.17	229.62
831.48	229.51
831.80	229.60
832.11	229.53
832.43	229.54
832.75	229.56
833.06	229.69
833.38	229.65
833.69	229.59
834.01	229.53
834.32	229.56
834.64	229.51
834.96	229.53
835.27	229.55
835.59	229.48
835.90	229.44
836.22	229.38
836.53	229.30
836.85	229.29
837.16	229.45
837.48	229.46
837.79	229.53
838.11	229.62
838.42	229.66
838.74	229.73
839.05	229.76
839.37	229.78
839.68	229.69
840.00	229.68
840.31	229.74
840.63	229.72
840.94	229.66
841.26	229.71
841.57	229.75
841.88	229.78
842.20	229.62
842.51	229.63
842.83	229.74
843.14	229.83
843.46	229.78
843.77	229.68
844.08	229.67
844.40	229.69
844.71	229.62
845.03	229.54
845.34	229.50
845.65	229.40
845.97	229.30
846.28	229.32
846.60	229.22
846.91	229.22
847.22	229.38
847.54	229.33
847.85	229.28
848.16	229.16
848.48	229.06
848.79	229.21
849.10	229.23
849.42	229.07
849.73	228.92
850.04	228.93
850.36	228.82
850.67	228.76
850.98	228.66
851.30	228.69
851.61	228.72
851.92	228.73
852.23	228.80
852.55	228.94
852.86	228.92
853.17	229.07
853.49	229.07
853.80	228.95
854.11	228.95
854.42	228.98
854.74	228.92
855.05	228.89
855.36	228.76
855.67	228.76
855.99	228.78
856.30	228.96
856.61	228.89
856.92	228.93
857.23	228.93
857.55	228.92
857.86	228.86
858.17	228.75
858.48	228.66
858.79	228.58
859.11	228.50
859.42	228.43
859.73	228.35
860.04	228.28
860.35	228.19
860.66	228.12
860.98	228.00
861.29	228.05
861.60	228.07
861.91	228.12
862.22	227.99
862.53	227.98
862.84	227.72
863.16	227.82
863.47	227.76
863.78	227.68
864.09	227.69
864.40	227.69
864.71	227.75
865.02	227.75
865.33	227.76
865.64	227.70
865.95	227.70
866.27	227.80
866.58	227.84
866.89	227.91
867.20	227.98
867.51	228.11
867.82	228.16
868.13	228.20
868.44	228.16
868.75	228.34
869.06	228.40
869.37	228.41
869.68	228.37
869.99	228.47
870.30	228.54
870.61	228.60
870.92	228.59
871.23	228.60
871.54	228.70
871.85	228.74
872.16	228.83
872.47	228.97
872.78	228.79
873.09	228.84
873.40	228.81
873.71	228.87
874.02	228.92
874.33	228.99
874.64	229.01
874.95	229.14
875.26	229.04
875.56	229.04
875.87	229.16
876.18	229.17
876.49	229.28
876.80	229.26
877.11	229.23
877.42	229.37
877.73	229.39
878.04	229.37
878.35	229.42
878.66	229.48
878.96	229.39
879.27	229.46
879.58	229.43
879.89	229.46
880.20	229.51
880.51	229.48
880.82	229.37
881.12	229.38
881.43	229.23
881.74	229.30
882.05	229.21
882.36	229.11
882.67	229.12
882.97	229.04
883.28	229.05
883.59	229.09
883.90	228.99
884.21	229.07
884.51	228.98
884.82	228.90
885.13	228.77
885.44	228.76
885.74	228.81
886.05	228.70
886.36	228.73
886.67	228.55
886.98	228.61
887.28	228.68
887.59	228.63
887.90	228.70
888.20	228.69
888.51	228.73
888.82	228.80
889.13	228.79
889.43	228.87
889.74	228.87
890.05	228.82
890.35	228.73
890.66	228.57
890.97	228.64
891.28	228.62
891.58	228.67
891.89	228.74
892.20	228.65
892.50	228.69
892.81	228.64
893.12	228.71
893.42	228.48
893.73	228.38
894.04	228.38
894.34	228.37
894.65	228.29
894.95	228.23
895.26	228.15
895.57	228.20
895.87	228.01
896.18	228.02
896.48	227.97
896.79	227.95
897.10	228.08
897.40	227.95
897.71	227.95
898.01	227.88
898.32	227.88
898.63	227.84
898.93	227.89
899.24	227.92
899.54	227.91
899.85	227.98
900.15	227.98
900.46	227.89
900.76	227.86
901.07	227.78
901.38	227.81
901.68	227.89
901.99	227.85
902.29	227.75
902.60	227.79
902.90	227.66
903.21	227.75
903.51	227.55
903.82	227.60
904.12	227.64
904.43	227.61
904.73	227.50
905.03	227.56
905.34	227.73
905.64	227.65
905.95	227.68
906.25	227.70
906.56	227.75
906.86	227.78
907.17	227.79
907.47	227.79
907.77	227.79
908.08	227.70
908.38	227.68
908.69	227.71
908.99	227.73
909.30	227.85
909.60	227.89
909.90	228.09
910.21	228.08
910.51	228.04
910.81	228.08
911.12	228.15
911.42	228.16
911.73	227.98
912.03	228.04
912.33	228.14
912.64	228.21
912.94	228.25
913.24	228.25
913.55	228.31
913.85	228.42
914.15	228.48
914.46	228.58
914.76	228.64
915.06	228.73
915.37	228.66
915.67	228.69
915.97	228.65
916.27	228.65
916.58	228.65
916.88	228.73
917.18	228.86
917.49	229.01
917.79	229.00
918.09	229.06
918.39	229.09
918.70	229.10
919.00	229.09
919.30	229.21
919.60	229.25
919.91	229.27
920.21	229.30
920.51	229.15
920.81	229.18
921.12	229.20
921.42	229.16
921.72	229.16
922.02	229.10
922.32	229.19
922.63	229.22
922.93	229.39
923.23	229.33
923.53	229.19
923.83	229.03
924.13	229.06
924.44	228.98
924.74	229.00
925.04	228.93
925.34	228.91
925.64	228.77
925.94	228.74
926.24	228.72
926.55	228.64
926.85	228.80
927.15	228.79
927.45	228.64
927.75	228.63
928.05	228.59
928.35	228.58
928.65	228.65
928.95	228.58
929.26	228.38
929.56	228.50
929.86	228.50
930.16	228.47
930.46	228.43
930.76	228.54
931.06	228.46
931.36	228.41
931.66	228.35
931.96	228.38
932.26	228.35
932.56	228.25
932.86	228.32
933.16	228.33
933.46	228.24
933.76	228.29
934.06	228.46
934.36	228.53
934.66	228.54
934.96	228.41
935.26	228.35
935.56	228.40
935.86	228.27
936.16	228.30
936.46	228.27
936.76	228.30
937.06	228.24
937.36	228.30
937.66	228.29
937.96	228.32
938.26	228.27
938.56	228.30
938.86	228.43
939.16	228.52
939.46	228.49
939.76	228.52
940.06	228.56
940.35	228.49
940.65	228.45
940.95	228.56
941.25	228.53
941.55	228.59
941.85	228.61
942.15	228.73
942.45	228.84
942.75	228.90
943.04	228.86
943.34	228.93
943.64	228.84
943.94	228.86
944.24	228.90
944.54	228.84
944.84	228.73
945.13	228.70
945.43	228.53
945.73	228.47
946.03	228.42
946.33	228.42
946.62	228.30
946.92	228.37
947.22	228.25
947.52	228.31
947.82	228.39
948.11	228.41
948.41	228.30
948.71	228.17
949.01	228.29
949.31	228.36
949.60	228.39
949.90	228.51
950.20	228.57
950.50	228.59
950.79	228.79
951.09	228.93
951.39	228.90
951.69	228.91
951.98	229.08
952.28	229.16
952.58	229.10
952.87	229.22
953.17	229.29
953.47	229.41
953.76	229.45
954.06	229.39
954.36	229.40
954.66	229.38
954.95	229.48
955.25	229.47
955.55	229.46
955.84	229.40
956.14	229.40
956.44	229.39
956.73	229.35
957.03	229.27
957.32	229.25
957.62	229.23
957.92	229.33
958.21	229.19
958.51	229.38
958.81	229.28
959.10	229.24
959.40	229.18
959.69	229.12
959.99	229.01
960.29	228.92
960.58	228.87
960.88	228.94
961.17	228.89
961.47	228.82
961.76	228.80
962.06	228.82
962.36	228.83
962.65	228.84
962.95	228.88
963.24	228.86
963.54	228.89
963.83	229.00
964.13	229.02
964.42	229.11
964.72	228.96
965.01	229.07
965.31	229.05
965.60	229.10
965.90	229.24
966.19	229.20
966.49	229.29
966.78	229.24
967.08	229.23
967.37	229.19
967.67	229.15
967.96	229.21
968.26	229.26
968.55	229.19
968.85	229.16
969.14	229.06
969.43	229.08
969.73	229.11
970.02	229.01
970.32	228.93
970.61	228.97
970.91	228.92
971.20	228.96
971.49	228.89
971.79	228.82
972.08	228.70
972.38	228.73
972.67	228.79
972.96	228.90
973.26	228.84
973.55	228.89
973.85	228.80
974.14	228.72
974.43	228.56
974.73	228.51
975.02	228.44
975.31	228.43
975.61	228.27
975.90	228.16
976.19	228.17
976.49	228.18
976.78	228.03
977.07	227.98
977.37	227.86
977.66	227.89
977.95	227.90
978.24	227.88
978.54	227.88
978.83	227.85
979.12	227.84
979.42	227.93
979.71	227.84
980.00	227.89
980.29	227.86
980.59	227.93
980.88	227.95
981.17	227.95
981.46	227.98
981.76	228.15
982.05	228.14
982.34	228.09
982.63	228.10
982.93	228.12
983.22	228.20
983.51	228.36
983.80	228.51
984.09	228.54
984.39	228.39
984.68	228.43
984.97	228.29
985.26	228.17
985.55	228.15
985.85	228.22
986.14	228.26
986.43	228.38
986.72	228.33
987.01	228.28
987.30	228.31
987.59	228.32
987.89	228.28
988.18	228.30
988.47	228.35
988.76	228.37
989.05	228.31
989.34	228.27
989.63	228.27
989.92	228.15
990.22	228.04
990.51	228.13
990.80	228.18
991.09	228.34
991.38	228.40
991.67	228.39
991.96	228.45
992.25	228.53
992.54	228.42
992.83	228.41
993.12	228.36
993.41	228.41
993.70	228.40
993.99	228.55
994.28	228.60
994.58	228.66
994.87	228.64
995.16	228.75
995.45	228.69
995.74	228.62
996.03	228.61
996.32	228.72
996.61	228.89
996.90	228.78
997.19	228.73
997.48	228.71
997.77	228.74
998.06	228.75
998.34	228.68
998.63	228.75
998.92	228.77
999.21	228.90
999.50	228.99
999.79	229.00
1000.08	228.93
1000.37	228.85
1000.66	228.80
1000.95	228.83
1001.24	228.82
1001.53	228.86
1001.82	228.85
1002.11	228.87
1002.40	228.80
1002.68	228.75
1002.97	228.99
1003.26	228.97
1003.55	228.95
1003.84	228.93
1004.13	228.92
1004.42	228.96
1004.71	228.90
1004.99	228.93
1005.28	228.97
1005.57	228.88
1005.86	228.87
1006.15	228.78
1006.44	228.77
1006.72	228.71
1007.01	228.62
1007.30	228.51
1007.59	228.59
1007.88	228.57
1008.17	228.60
1008.45	228.62
1008.74	228.50
1009.03	228.26
1009.32	228.20
1009.60	228.25
1009.89	228.23
1010.18	228.12
1010.47	228.06
1010.76	228.04
1011.04	228.03
1011.33	228.03
1011.62	228.05
1011.91	228.05
1012.19	228.12
1012.48	228.19
1012.77	228.31
1013.05	228.39
1013.34	228.42
1013.63	228.34
1013.92	228.35
1014.20	228.30
1014.49	228.25
1014.78	228.30
1015.06	228.32
1015.35	228.31
1015.64	228.29
1015.92	228.29
1016.21	228.29
1016.50	228.27
1016.78	228.32
1017.07	228.25
1017.36	228.20
1017.64	228.16
1017.93	228.22
1018.22	228.13
1018.50	228.06
1018.79	228.05
1019.08	228.00
1019.36	228.03
1019.65	228.03
1019.93	228.07
1020.22	228.01
1020.51	228.08
1020.79	228.02
1021.08	227.70
1021.36	227.50
1021.65	229.80
1021.94	227.90
1022.22	228.00
1022.51	227.80
1022.79	229.10
1023.08	226.60
1023.36	228.80
1023.65	227.20
>>>>>End Processed Spectral Data<<<<<
