SpectraSuite Data File
++++++++++++++++++++++++++++++++++++
Date: Fri Feb 01 14:41:07 EST 2013
User: group
Dark Spectrum Present: No
Reference Spectrum Present: No
Number of Sampled Component Spectra: 1
Spectrometers: USB2E7196
Integration Time (usec): 70000 (USB2E7196)
Spectra Averaged: 10 (USB2E7196)
Boxcar Smoothing: 10 (USB2E7196)
Correct for Electrical Dark: No (USB2E7196)
Strobe/Lamp Enabled: No (USB2E7196)
Correct for Detector Non-linearity: No (USB2E7196)
Correct for Stray Light: No (USB2E7196)
Number of Pixels in Processed Spectrum: 2048
>>>>>Begin Processed Spectral Data<<<<<
339.09	0.00
339.48	216.50
339.86	218.30
340.24	218.30
340.63	220.50
341.01	224.90
341.39	222.60
341.78	225.30
342.16	225.90
342.54	228.30
342.93	214.80
343.31	225.57
343.69	226.08
344.07	226.50
344.46	226.99
344.84	227.38
345.22	227.60
345.60	227.88
345.99	228.00
346.37	228.12
346.75	228.14
347.13	228.20
347.52	228.16
347.90	228.26
348.28	228.24
348.66	228.32
349.05	228.36
349.43	228.39
349.81	228.55
350.19	228.58
350.57	228.64
350.96	228.72
351.34	228.90
351.72	229.00
352.10	229.14
352.48	229.24
352.87	229.24
353.25	229.27
353.63	229.30
354.01	229.31
354.39	229.41
354.77	229.37
355.15	229.58
355.54	229.64
355.92	229.66
356.30	229.81
356.68	229.98
357.06	229.89
357.44	229.94
357.82	229.94
358.20	229.98
358.58	230.14
358.97	230.12
359.35	230.17
359.73	230.31
360.11	230.31
360.49	230.26
360.87	230.38
361.25	230.44
361.63	230.47
362.01	230.63
362.39	230.65
362.77	230.78
363.15	230.70
363.53	230.74
363.91	230.87
364.29	230.90
364.67	230.65
365.05	230.67
365.43	230.73
365.81	230.82
366.19	230.90
366.57	231.00
366.95	231.10
367.33	231.01
367.71	230.88
368.09	230.90
368.47	230.96
368.85	230.84
369.23	230.92
369.61	230.87
369.99	230.85
370.37	230.80
370.75	230.83
371.13	230.70
371.51	230.60
371.89	230.36
372.27	230.25
372.65	230.30
373.03	230.31
373.41	230.28
373.78	230.10
374.16	229.87
374.54	229.63
374.92	229.51
375.30	229.53
375.68	229.46
376.06	229.47
376.44	229.33
376.82	229.34
377.19	229.17
377.57	229.15
377.95	229.01
378.33	228.93
378.71	228.77
379.09	228.68
379.47	228.65
379.84	228.66
380.22	228.65
380.60	228.56
380.98	228.44
381.36	228.35
381.73	228.28
382.11	228.36
382.49	228.31
382.87	228.10
383.25	227.98
383.62	228.12
384.00	227.90
384.38	227.82
384.76	227.78
385.13	227.72
385.51	227.59
385.89	227.45
386.27	227.40
386.64	227.38
387.02	227.40
387.40	227.25
387.78	227.28
388.15	227.25
388.53	227.11
388.91	227.15
389.29	227.20
389.66	227.22
390.04	227.18
390.42	227.15
390.79	227.24
391.17	227.29
391.55	227.04
391.92	227.06
392.30	227.18
392.68	227.17
393.05	227.19
393.43	227.22
393.81	227.37
394.18	227.35
394.56	227.36
394.94	227.40
395.31	227.47
395.69	227.55
396.06	227.57
396.44	227.76
396.82	227.77
397.19	227.77
397.57	227.81
397.95	227.92
398.32	227.97
398.70	228.18
399.07	228.25
399.45	228.46
399.82	228.63
400.20	228.70
400.58	228.75
400.95	228.83
401.33	229.13
401.70	229.33
402.08	229.43
402.45	229.66
402.83	229.80
403.20	229.98
403.58	229.99
403.95	230.13
404.33	230.21
404.71	230.33
405.08	230.77
405.46	230.97
405.83	231.15
406.21	231.30
406.58	231.33
406.96	231.57
407.33	231.71
407.70	231.97
408.08	232.31
408.45	232.63
408.83	232.90
409.20	233.06
409.58	233.09
409.95	233.44
410.33	233.63
410.70	233.95
411.08	234.19
411.45	234.62
411.82	234.90
412.20	235.27
412.57	235.80
412.95	235.93
413.32	236.35
413.69	236.63
414.07	237.19
414.44	237.67
414.82	238.14
415.19	238.74
415.56	239.28
415.94	239.61
416.31	240.33
416.68	241.03
417.06	241.74
417.43	242.72
417.81	243.55
418.18	244.46
418.55	245.37
418.93	246.35
419.30	247.29
419.67	248.29
420.04	249.44
420.42	250.42
420.79	251.75
421.16	253.08
421.54	254.61
421.91	255.90
422.28	257.41
422.66	258.83
423.03	260.28
423.40	261.83
423.77	263.57
424.15	265.00
424.52	266.60
424.89	268.38
425.26	270.03
425.64	271.62
426.01	273.39
426.38	275.26
426.75	277.11
427.13	279.06
427.50	281.14
427.87	283.20
428.24	285.36
428.61	287.28
428.99	289.55
429.36	291.83
429.73	294.25
430.10	296.47
430.47	298.72
430.85	301.14
431.22	303.69
431.59	306.43
431.96	309.06
432.33	311.90
432.70	314.64
433.08	317.70
433.45	320.68
433.82	323.54
434.19	326.76
434.56	330.03
434.93	333.11
435.30	335.97
435.68	339.19
436.05	342.54
436.42	345.72
436.79	348.56
437.16	351.53
437.53	354.59
437.90	357.81
438.27	360.96
438.64	364.22
439.01	367.08
439.38	369.58
439.75	371.95
440.13	374.75
440.50	377.27
440.87	379.56
441.24	381.76
441.61	384.40
441.98	386.13
442.35	388.18
442.72	390.21
443.09	392.56
443.46	393.63
443.83	394.18
444.20	394.74
444.57	395.56
444.94	395.85
445.31	396.23
445.68	396.84
446.05	396.99
446.42	396.57
446.79	396.09
447.16	395.37
447.53	395.09
447.90	393.73
448.27	392.54
448.64	390.72
449.01	389.43
449.37	387.04
449.74	384.90
450.11	382.48
450.48	379.59
450.85	376.57
451.22	374.01
451.59	371.70
451.96	369.62
452.33	366.71
452.70	364.08
453.07	360.92
453.43	357.42
453.80	354.33
454.17	351.20
454.54	348.20
454.91	345.33
455.28	342.25
455.65	339.52
456.02	336.86
456.38	334.37
456.75	331.32
457.12	328.70
457.49	326.13
457.86	323.53
458.23	321.50
458.59	319.13
458.96	316.93
459.33	314.75
459.70	312.52
460.07	310.72
460.43	308.69
460.80	306.79
461.17	305.13
461.54	303.30
461.91	301.63
462.27	299.90
462.64	298.28
463.01	296.79
463.38	295.18
463.74	293.28
464.11	291.80
464.48	290.56
464.85	289.29
465.21	288.18
465.58	287.05
465.95	285.82
466.32	284.72
466.68	283.57
467.05	282.52
467.42	281.44
467.78	280.30
468.15	279.37
468.52	278.53
468.88	277.32
469.25	276.41
469.62	275.63
469.98	274.87
470.35	274.19
470.72	273.32
471.08	272.50
471.45	271.94
471.82	271.20
472.18	270.51
472.55	269.91
472.92	269.28
473.28	268.59
473.65	267.90
474.02	267.30
474.38	266.84
474.75	266.31
475.11	265.71
475.48	265.33
475.85	264.89
476.21	264.59
476.58	264.33
476.94	264.01
477.31	263.64
477.67	263.32
478.04	263.00
478.41	262.80
478.77	262.68
479.14	262.59
479.50	262.52
479.87	262.38
480.23	262.33
480.60	262.23
480.96	262.19
481.33	262.16
481.69	262.13
482.06	262.18
482.42	262.19
482.79	262.30
483.15	262.43
483.52	262.55
483.88	262.70
484.25	262.82
484.61	262.95
484.98	263.18
485.34	263.57
485.71	263.87
486.07	264.16
486.44	264.53
486.80	264.88
487.17	265.24
487.53	265.72
487.90	266.22
488.26	266.85
488.62	267.52
488.99	268.20
489.35	268.91
489.72	269.61
490.08	270.46
490.44	271.28
490.81	272.12
491.17	273.12
491.54	274.06
491.90	275.07
492.26	276.28
492.63	277.38
492.99	278.34
493.36	279.73
493.72	281.15
494.08	282.44
494.45	284.00
494.81	285.66
495.17	287.51
495.54	289.30
495.90	291.21
496.26	293.16
496.63	295.23
496.99	297.50
497.35	299.84
497.72	302.23
498.08	304.70
498.44	307.40
498.80	310.21
499.17	313.08
499.53	316.19
499.89	319.38
500.26	322.94
500.62	326.63
500.98	330.34
501.34	334.23
501.71	338.34
502.07	342.36
502.43	346.65
502.79	351.11
503.16	355.77
503.52	360.47
503.88	365.38
504.24	370.60
504.60	376.02
504.97	381.66
505.33	387.49
505.69	393.75
506.05	400.07
506.41	406.33
506.78	412.91
507.14	419.74
507.50	426.90
507.86	434.18
508.22	441.66
508.59	449.33
508.95	457.35
509.31	465.58
509.67	474.10
510.03	482.81
510.39	491.50
510.75	500.66
511.12	510.12
511.48	519.98
511.84	529.97
512.20	539.97
512.56	550.40
512.92	561.05
513.28	571.81
513.64	582.85
514.00	594.34
514.37	606.06
514.73	617.76
515.09	629.28
515.45	641.33
515.81	653.72
516.17	666.15
516.53	678.85
516.89	691.51
517.25	704.66
517.61	717.84
517.97	731.10
518.33	744.25
518.69	757.69
519.05	771.56
519.41	785.50
519.77	800.05
520.13	814.43
520.49	828.90
520.85	843.73
521.21	858.52
521.57	873.90
521.93	888.64
522.29	904.30
522.65	919.94
523.01	935.48
523.37	950.81
523.73	966.83
524.09	982.69
524.45	998.98
524.81	1015.18
525.17	1031.80
525.53	1048.59
525.89	1065.64
526.25	1083.00
526.61	1099.39
526.97	1116.30
527.33	1132.91
527.68	1149.93
528.04	1166.88
528.40	1184.14
528.76	1202.32
529.12	1219.65
529.48	1237.57
529.84	1254.39
530.20	1272.26
530.56	1290.08
530.91	1308.86
531.27	1326.90
531.63	1344.52
531.99	1361.81
532.35	1379.16
532.71	1396.16
533.07	1413.86
533.42	1431.49
533.78	1448.90
534.14	1466.81
534.50	1483.73
534.86	1501.27
535.21	1518.09
535.57	1535.86
535.93	1552.54
536.29	1568.61
536.65	1585.29
537.00	1601.56
537.36	1618.74
537.72	1634.91
538.08	1650.82
538.44	1666.05
538.79	1681.72
539.15	1697.40
539.51	1713.66
539.87	1729.94
540.22	1745.95
540.58	1761.91
540.94	1777.00
541.29	1791.70
541.65	1806.27
542.01	1821.76
542.37	1836.74
542.72	1851.56
543.08	1865.60
543.44	1880.11
543.79	1893.29
544.15	1907.05
544.51	1921.47
544.87	1934.92
545.22	1948.07
545.58	1961.34
545.94	1973.23
546.29	1985.67
546.65	1998.01
547.01	2010.19
547.36	2021.72
547.72	2032.81
548.07	2043.81
548.43	2055.13
548.79	2066.27
549.14	2077.11
549.50	2087.05
549.86	2096.57
550.21	2106.27
550.57	2116.45
550.92	2125.92
551.28	2135.79
551.64	2144.48
551.99	2153.34
552.35	2161.85
552.70	2171.06
553.06	2180.15
553.41	2189.94
553.77	2198.46
554.13	2207.26
554.48	2215.58
554.84	2223.62
555.19	2231.66
555.55	2239.24
555.90	2246.16
556.26	2252.96
556.61	2259.96
556.97	2267.04
557.32	2274.21
557.68	2281.28
558.03	2287.87
558.39	2294.70
558.74	2301.82
559.10	2308.88
559.45	2314.92
559.81	2322.14
560.16	2328.02
560.52	2333.30
560.87	2339.38
561.23	2344.17
561.58	2349.32
561.94	2354.28
562.29	2358.73
562.64	2363.38
563.00	2367.78
563.35	2373.84
563.71	2379.36
564.06	2384.75
564.42	2389.65
564.77	2394.59
565.12	2399.48
565.48	2403.30
565.83	2406.31
566.19	2409.99
566.54	2412.80
566.89	2416.11
567.25	2418.58
567.60	2421.97
567.96	2424.82
568.31	2426.48
568.66	2429.12
569.02	2431.63
569.37	2433.01
569.72	2434.98
570.08	2436.64
570.43	2438.22
570.78	2438.72
571.14	2438.61
571.49	2438.91
571.84	2439.97
572.20	2439.35
572.55	2438.23
572.90	2437.73
573.26	2437.96
573.61	2437.07
573.96	2436.31
574.31	2434.54
574.67	2432.31
575.02	2429.78
575.37	2427.64
575.72	2424.82
576.08	2423.07
576.43	2420.47
576.78	2419.13
577.13	2417.12
577.49	2414.76
577.84	2411.64
578.19	2408.39
578.54	2405.65
578.90	2401.54
579.25	2396.83
579.60	2393.12
579.95	2388.92
580.30	2384.49
580.66	2379.87
581.01	2375.18
581.36	2370.94
581.71	2366.95
582.06	2362.91
582.42	2358.19
582.77	2353.36
583.12	2349.13
583.47	2344.46
583.82	2339.76
584.17	2334.27
584.53	2329.16
584.88	2324.42
585.23	2319.84
585.58	2315.14
585.93	2310.38
586.28	2306.31
586.63	2301.78
586.98	2296.83
587.34	2292.45
587.69	2287.93
588.04	2283.38
588.39	2278.91
588.74	2272.67
589.09	2266.52
589.44	2259.79
589.79	2254.35
590.14	2249.44
590.49	2244.32
590.84	2237.90
591.19	2231.81
591.54	2224.91
591.89	2217.40
592.25	2210.87
592.60	2203.22
592.95	2196.07
593.30	2188.76
593.65	2180.96
594.00	2173.60
594.35	2166.84
594.70	2159.04
595.05	2151.70
595.40	2143.65
595.75	2135.25
596.10	2128.74
596.45	2122.27
596.80	2116.98
597.15	2110.56
597.50	2102.88
597.85	2095.90
598.19	2089.66
598.54	2083.00
598.89	2076.47
599.24	2071.10
599.59	2064.55
599.94	2058.48
600.29	2051.83
600.64	2045.14
600.99	2037.79
601.34	2031.24
601.69	2023.93
602.04	2017.77
602.39	2010.90
602.74	2005.00
603.08	1998.98
603.43	1992.40
603.78	1985.76
604.13	1978.14
604.48	1970.58
604.83	1963.85
605.18	1956.70
605.53	1948.60
605.87	1940.32
606.22	1933.00
606.57	1924.87
606.92	1916.99
607.27	1909.95
607.62	1902.59
607.96	1895.26
608.31	1888.64
608.66	1880.21
609.01	1872.22
609.36	1863.53
609.70	1854.42
610.05	1845.07
610.40	1836.51
610.75	1827.64
611.10	1818.51
611.44	1809.31
611.79	1801.26
612.14	1792.39
612.49	1782.60
612.83	1773.58
613.18	1764.78
613.53	1755.98
613.88	1746.74
614.22	1737.72
614.57	1727.91
614.92	1718.37
615.27	1709.56
615.61	1699.98
615.96	1691.51
616.31	1683.33
616.65	1675.75
617.00	1668.14
617.35	1660.05
617.70	1651.11
618.04	1642.34
618.39	1634.10
618.74	1625.76
619.08	1616.41
619.43	1608.12
619.78	1600.30
620.12	1592.06
620.47	1583.73
620.82	1575.15
621.16	1566.83
621.51	1558.71
621.85	1550.52
622.20	1541.76
622.55	1533.23
622.89	1525.49
623.24	1517.58
623.59	1509.33
623.93	1500.73
624.28	1492.39
624.62	1483.92
624.97	1476.41
625.32	1468.38
625.66	1460.64
626.01	1452.82
626.35	1445.04
626.70	1436.84
627.04	1429.08
627.39	1420.88
627.73	1413.07
628.08	1405.09
628.43	1397.46
628.77	1389.34
629.12	1381.11
629.46	1373.49
629.81	1364.79
630.15	1356.03
630.50	1347.44
630.84	1338.60
631.19	1330.10
631.53	1321.68
631.88	1313.36
632.22	1304.68
632.57	1297.18
632.91	1288.74
633.26	1280.71
633.60	1272.34
633.95	1264.20
634.29	1256.21
634.64	1248.71
634.98	1240.84
635.32	1233.40
635.67	1226.04
636.01	1218.69
636.36	1211.49
636.70	1204.07
637.05	1197.29
637.39	1190.70
637.73	1183.60
638.08	1176.94
638.42	1170.19
638.77	1163.51
639.11	1156.64
639.45	1149.60
639.80	1142.32
640.14	1135.24
640.49	1128.20
640.83	1121.26
641.17	1114.39
641.52	1107.20
641.86	1100.19
642.20	1093.34
642.55	1086.21
642.89	1078.76
643.23	1071.35
643.58	1064.79
643.92	1057.90
644.26	1050.87
644.61	1044.03
644.95	1037.04
645.29	1029.57
645.64	1022.31
645.98	1015.49
646.32	1008.95
646.66	1002.07
647.01	994.99
647.35	988.36
647.69	981.65
648.04	975.24
648.38	968.14
648.72	961.07
649.06	954.02
649.41	947.48
649.75	940.63
650.09	933.70
650.43	927.09
650.78	919.69
651.12	912.93
651.46	906.39
651.80	899.54
652.14	893.36
652.49	886.93
652.83	880.75
653.17	873.95
653.51	867.06
653.85	860.63
654.20	854.60
654.54	847.84
654.88	841.44
655.22	834.92
655.56	828.77
655.90	823.07
656.25	817.32
656.59	811.20
656.93	805.44
657.27	799.88
657.61	793.75
657.95	788.38
658.29	782.81
658.64	776.93
658.98	771.13
659.32	764.94
659.66	759.60
660.00	753.71
660.34	748.18
660.68	742.90
661.02	737.60
661.36	732.32
661.70	727.22
662.05	722.11
662.39	717.07
662.73	712.10
663.07	707.00
663.41	702.10
663.75	697.03
664.09	692.02
664.43	687.13
664.77	682.50
665.11	677.73
665.45	673.10
665.79	668.51
666.13	663.83
666.47	659.30
666.81	654.41
667.15	649.70
667.49	645.16
667.83	640.84
668.17	636.36
668.51	631.76
668.85	627.27
669.19	623.04
669.53	618.78
669.87	614.44
670.21	610.43
670.55	606.18
670.89	602.47
671.23	598.65
671.57	594.74
671.91	591.05
672.25	586.99
672.58	583.15
672.92	579.37
673.26	575.76
673.60	572.47
673.94	569.19
674.28	565.99
674.62	562.60
674.96	558.95
675.30	555.72
675.64	552.29
675.97	549.17
676.31	545.85
676.65	542.65
676.99	539.80
677.33	536.35
677.67	533.23
678.01	529.65
678.34	526.30
678.68	523.24
679.02	519.96
679.36	516.98
679.70	513.77
680.04	510.78
680.37	507.59
680.71	504.41
681.05	501.39
681.39	498.49
681.73	495.70
682.06	493.25
682.40	490.56
682.74	487.75
683.08	485.01
683.42	482.23
683.75	479.49
684.09	476.56
684.43	473.98
684.77	471.19
685.10	468.54
685.44	465.90
685.78	463.35
686.12	460.75
686.45	458.13
686.79	455.63
687.13	453.08
687.46	450.75
687.80	448.20
688.14	445.71
688.48	443.18
688.81	440.65
689.15	438.04
689.49	435.59
689.82	433.30
690.16	430.70
690.50	428.37
690.83	426.02
691.17	423.72
691.51	421.53
691.84	419.44
692.18	417.25
692.52	415.07
692.85	412.89
693.19	410.72
693.52	408.59
693.86	406.33
694.20	404.29
694.53	402.21
694.87	400.10
695.21	398.09
695.54	395.98
695.88	394.06
696.21	392.00
696.55	389.92
696.88	388.02
697.22	386.25
697.56	384.30
697.89	382.50
698.23	380.65
698.56	378.71
698.90	376.88
699.23	374.94
699.57	373.09
699.90	371.10
700.24	369.24
700.58	367.42
700.91	365.95
701.25	364.19
701.58	362.63
701.92	360.90
702.25	359.35
702.59	357.81
702.92	356.18
703.26	354.64
703.59	353.14
703.93	351.69
704.26	350.26
704.60	348.75
704.93	347.16
705.26	345.70
705.60	344.33
705.93	343.00
706.27	341.67
706.60	340.35
706.94	339.09
707.27	337.79
707.61	336.57
707.94	335.17
708.27	333.76
708.61	332.34
708.94	331.23
709.28	329.93
709.61	328.70
709.94	327.47
710.28	326.36
710.61	325.19
710.95	323.74
711.28	322.64
711.61	321.52
711.95	320.39
712.28	319.21
712.61	318.02
712.95	316.95
713.28	316.05
713.61	314.91
713.95	313.85
714.28	312.80
714.61	311.79
714.95	310.72
715.28	309.84
715.61	308.80
715.95	307.88
716.28	307.11
716.61	306.32
716.95	305.40
717.28	304.47
717.61	303.59
717.94	302.87
718.28	301.78
718.61	300.98
718.94	300.18
719.27	299.41
719.61	298.67
719.94	297.90
720.27	297.04
720.60	296.14
720.94	295.40
721.27	294.83
721.60	294.08
721.93	293.50
722.27	292.87
722.60	292.20
722.93	291.64
723.26	290.83
723.59	290.04
723.93	289.40
724.26	288.71
724.59	288.04
724.92	287.36
725.25	286.84
725.59	286.28
725.92	285.70
726.25	284.96
726.58	284.38
726.91	283.57
727.24	282.97
727.57	282.62
727.91	282.02
728.24	281.45
728.57	280.89
728.90	280.29
729.23	279.59
729.56	279.17
729.89	278.55
730.22	278.00
730.55	277.35
730.89	276.85
731.22	276.30
731.55	275.79
731.88	275.31
732.21	274.81
732.54	274.20
732.87	273.58
733.20	273.20
733.53	272.65
733.86	272.32
734.19	271.74
734.52	271.16
734.85	270.76
735.18	270.23
735.51	269.92
735.84	269.33
736.17	269.00
736.50	268.43
736.83	268.08
737.16	267.70
737.49	267.36
737.82	266.89
738.15	266.53
738.48	266.06
738.81	265.62
739.14	265.10
739.47	264.57
739.80	264.18
740.13	263.82
740.46	263.43
740.79	262.96
741.12	262.69
741.45	262.28
741.78	261.87
742.11	261.56
742.44	261.01
742.77	260.81
743.10	260.38
743.43	259.97
743.75	259.41
744.08	259.15
744.41	258.76
744.74	258.38
745.07	257.98
745.40	257.65
745.73	257.36
746.06	257.13
746.39	256.84
746.71	256.53
747.04	256.09
747.37	255.73
747.70	255.40
748.03	254.96
748.36	254.68
748.68	254.40
749.01	254.01
749.34	253.77
749.67	253.35
750.00	253.06
750.33	252.90
750.65	252.70
750.98	252.18
751.31	252.00
751.64	251.65
751.97	251.37
752.29	251.14
752.62	250.75
752.95	250.43
753.28	250.20
753.60	249.84
753.93	249.53
754.26	249.46
754.59	249.14
754.91	248.87
755.24	248.65
755.57	248.28
755.90	247.95
756.22	247.60
756.55	247.30
756.88	246.94
757.20	246.65
757.53	246.37
757.86	246.26
758.19	245.97
758.51	245.82
758.84	245.56
759.17	245.30
759.49	245.20
759.82	245.01
760.15	244.92
760.47	244.81
760.80	244.78
761.13	244.40
761.45	244.27
761.78	244.15
762.11	244.04
762.43	243.84
762.76	243.69
763.08	243.58
763.41	243.48
763.74	243.43
764.06	243.20
764.39	243.04
764.71	242.76
765.04	242.58
765.37	242.42
765.69	242.22
766.02	242.03
766.34	241.80
766.67	241.64
767.00	241.44
767.32	241.42
767.65	241.33
767.97	241.23
768.30	241.03
768.62	240.78
768.95	240.49
769.27	240.42
769.60	240.41
769.92	240.23
770.25	240.08
770.57	239.91
770.90	239.75
771.22	239.53
771.55	239.49
771.87	239.26
772.20	239.09
772.52	239.23
772.85	239.30
773.17	239.21
773.50	239.10
773.82	238.98
774.15	238.83
774.47	238.66
774.80	238.42
775.12	238.35
775.45	238.38
775.77	238.35
776.09	238.20
776.42	238.02
776.74	237.97
777.07	237.94
777.39	237.82
777.72	237.87
778.04	237.80
778.36	237.67
778.69	237.63
779.01	237.53
779.33	237.17
779.66	236.80
779.98	236.68
780.31	236.67
780.63	236.69
780.95	236.56
781.28	236.40
781.60	236.27
781.92	236.22
782.25	236.07
782.57	235.96
782.89	235.91
783.22	235.86
783.54	235.75
783.86	235.66
784.19	235.57
784.51	235.43
784.83	235.30
785.16	235.25
785.48	235.16
785.80	235.12
786.12	235.13
786.45	235.15
786.77	235.10
787.09	234.92
787.42	234.79
787.74	234.79
788.06	234.78
788.38	234.82
788.71	234.76
789.03	234.77
789.35	234.82
789.67	234.73
789.99	234.65
790.32	234.55
790.64	234.60
790.96	234.77
791.28	234.70
791.61	234.70
791.93	234.62
792.25	234.61
792.57	234.67
792.89	234.57
793.21	234.49
793.54	234.42
793.86	234.32
794.18	234.25
794.50	234.15
794.82	234.11
795.14	234.10
795.47	234.05
795.79	233.94
796.11	233.79
796.43	233.76
796.75	233.72
797.07	233.67
797.39	233.52
797.71	233.30
798.04	233.21
798.36	233.19
798.68	233.19
799.00	233.15
799.32	233.04
799.64	233.02
799.96	233.07
800.28	233.11
800.60	233.09
800.92	233.00
801.24	232.90
801.56	232.71
801.89	232.63
802.21	232.60
802.53	232.56
802.85	232.50
803.17	232.60
803.49	232.47
803.81	232.48
804.13	232.38
804.45	232.30
804.77	232.35
805.09	232.29
805.41	232.20
805.73	232.06
806.05	231.96
806.37	231.96
806.69	231.84
807.01	231.72
807.33	231.77
807.65	231.67
807.97	231.60
808.28	231.63
808.60	231.66
808.92	231.56
809.24	231.67
809.56	231.65
809.88	231.42
810.20	231.39
810.52	231.40
810.84	231.37
811.16	231.40
811.48	231.25
811.80	231.35
812.12	231.37
812.43	231.37
812.75	231.37
813.07	231.27
813.39	231.27
813.71	231.14
814.03	231.05
814.35	231.07
814.67	231.09
814.98	231.14
815.30	230.95
815.62	230.90
815.94	230.71
816.26	230.70
816.58	230.68
816.89	230.68
817.21	230.64
817.53	230.61
817.85	230.56
818.17	230.61
818.48	230.42
818.80	230.36
819.12	230.38
819.44	230.34
819.76	230.29
820.07	230.25
820.39	230.29
820.71	230.30
821.03	230.33
821.34	230.31
821.66	230.33
821.98	230.38
822.30	230.35
822.61	230.50
822.93	230.45
823.25	230.45
823.57	230.45
823.88	230.39
824.20	230.45
824.52	230.41
824.83	230.42
825.15	230.42
825.47	230.51
825.79	230.52
826.10	230.46
826.42	230.55
826.74	230.61
827.05	230.63
827.37	230.60
827.69	230.49
828.00	230.46
828.32	230.34
828.64	230.44
828.95	230.56
829.27	230.52
829.58	230.61
829.90	230.63
830.22	230.72
830.53	230.67
830.85	230.57
831.17	230.49
831.48	230.41
831.80	230.45
832.11	230.32
832.43	230.29
832.75	230.28
833.06	230.30
833.38	230.25
833.69	230.22
834.01	230.20
834.32	230.13
834.64	230.16
834.96	230.25
835.27	230.06
835.59	230.01
835.90	229.91
836.22	229.92
836.53	229.98
836.85	229.86
837.16	230.14
837.48	230.14
837.79	230.17
838.11	230.20
838.42	230.23
838.74	230.31
839.05	230.28
839.37	230.37
839.68	230.24
840.00	230.20
840.31	230.21
840.63	230.20
840.94	230.26
841.26	230.22
841.57	230.17
841.88	230.28
842.20	230.22
842.51	230.21
842.83	230.11
843.14	230.19
843.46	230.18
843.77	229.92
844.08	229.90
844.40	229.83
844.71	229.84
845.03	229.80
845.34	229.80
845.65	229.79
845.97	229.83
846.28	229.94
846.60	229.99
846.91	229.89
847.22	229.94
847.54	229.96
847.85	230.00
848.16	229.81
848.48	229.71
848.79	229.72
849.10	229.68
849.42	229.64
849.73	229.50
850.04	229.45
850.36	229.44
850.67	229.49
850.98	229.55
851.30	229.52
851.61	229.46
851.92	229.30
852.23	229.31
852.55	229.18
852.86	229.08
853.17	229.04
853.49	229.09
853.80	229.11
854.11	229.10
854.42	229.06
854.74	229.14
855.05	229.20
855.36	229.23
855.67	229.17
855.99	229.06
856.30	229.20
856.61	229.27
856.92	229.24
857.23	229.24
857.55	229.22
857.86	229.20
858.17	229.14
858.48	229.23
858.79	229.22
859.11	229.24
859.42	229.33
859.73	229.32
860.04	229.38
860.35	229.25
860.66	229.27
860.98	229.28
861.29	229.34
861.60	229.35
861.91	229.30
862.22	229.30
862.53	229.42
862.84	229.20
863.16	229.24
863.47	229.20
863.78	229.08
864.09	229.25
864.40	229.21
864.71	229.25
865.02	229.26
865.33	229.20
865.64	229.24
865.95	229.26
866.27	229.36
866.58	229.23
866.89	229.31
867.20	229.31
867.51	229.31
867.82	229.29
868.13	229.17
868.44	229.18
868.75	229.29
869.06	229.22
869.37	229.33
869.68	229.25
869.99	229.39
870.30	229.58
870.61	229.43
870.92	229.36
871.23	229.37
871.54	229.35
871.85	229.44
872.16	229.50
872.47	229.48
872.78	229.34
873.09	229.53
873.40	229.49
873.71	229.53
874.02	229.53
874.33	229.50
874.64	229.63
874.95	229.56
875.26	229.47
875.56	229.50
875.87	229.46
876.18	229.39
876.49	229.60
876.80	229.62
877.11	229.68
877.42	229.77
877.73	229.81
878.04	229.84
878.35	229.88
878.66	229.76
878.96	229.72
879.27	229.74
879.58	229.75
879.89	229.79
880.20	229.77
880.51	229.76
880.82	229.77
881.12	229.75
881.43	229.83
881.74	229.82
882.05	229.84
882.36	229.77
882.67	229.85
882.97	229.61
883.28	229.46
883.59	229.39
883.90	229.40
884.21	229.40
884.51	229.38
884.82	229.29
885.13	229.29
885.44	229.34
885.74	229.28
886.05	229.11
886.36	229.14
886.67	229.05
886.98	229.08
887.28	229.10
887.59	229.03
887.90	229.04
888.20	229.07
888.51	229.08
888.82	229.17
889.13	229.10
889.43	229.22
889.74	229.19
890.05	229.13
890.35	229.14
890.66	229.12
890.97	229.06
891.28	229.10
891.58	229.11
891.89	228.98
892.20	228.95
892.50	228.96
892.81	228.86
893.12	228.87
893.42	228.86
893.73	228.79
894.04	228.88
894.34	228.83
894.65	228.82
894.95	228.81
895.26	228.74
895.57	228.90
895.87	228.61
896.18	228.71
896.48	228.89
896.79	228.83
897.10	228.86
897.40	228.81
897.71	228.77
898.01	228.70
898.32	228.70
898.63	228.79
898.93	228.80
899.24	228.77
899.54	228.82
899.85	228.74
900.15	228.75
900.46	228.70
900.76	228.70
901.07	228.56
901.38	228.56
901.68	228.56
901.99	228.40
902.29	228.45
902.60	228.28
902.90	228.10
903.21	228.05
903.51	227.94
903.82	228.05
904.12	228.08
904.43	228.10
904.73	228.16
905.03	228.14
905.34	228.31
905.64	228.39
905.95	228.19
906.25	228.16
906.56	228.20
906.86	228.06
907.17	228.19
907.47	228.33
907.77	228.28
908.08	228.24
908.38	228.33
908.69	228.39
908.99	228.56
909.30	228.58
909.60	228.61
909.90	228.63
910.21	228.66
910.51	228.62
910.81	228.64
911.12	228.65
911.42	228.59
911.73	228.44
912.03	228.38
912.33	228.60
912.64	228.72
912.94	228.69
913.24	228.78
913.55	228.63
913.85	228.67
914.15	228.74
914.46	228.81
914.76	228.76
915.06	228.75
915.37	228.69
915.67	228.70
915.97	228.79
916.27	228.80
916.58	228.75
916.88	228.69
917.18	228.67
917.49	228.78
917.79	228.81
918.09	228.88
918.39	228.91
918.70	228.86
919.00	228.88
919.30	228.93
919.60	228.98
919.91	229.05
920.21	229.01
920.51	229.01
920.81	228.93
921.12	229.01
921.42	229.00
921.72	229.10
922.02	229.11
922.32	228.96
922.63	228.98
922.93	229.06
923.23	229.17
923.53	229.20
923.83	229.12
924.13	229.18
924.44	229.11
924.74	229.26
925.04	229.30
925.34	229.20
925.64	229.20
925.94	229.11
926.24	229.11
926.55	229.01
926.85	229.03
927.15	228.99
927.45	228.94
927.75	228.99
928.05	228.84
928.35	228.80
928.65	228.92
928.95	229.06
929.26	228.98
929.56	229.00
929.86	229.10
930.16	229.07
930.46	229.03
930.76	229.02
931.06	228.77
931.36	228.69
931.66	228.71
931.96	228.68
932.26	228.70
932.56	228.63
932.86	228.63
933.16	228.56
933.46	228.57
933.76	228.59
934.06	228.63
934.36	228.72
934.66	228.80
934.96	228.83
935.26	228.71
935.56	228.57
935.86	228.46
936.16	228.22
936.46	228.13
936.76	228.09
937.06	228.04
937.36	228.11
937.66	228.06
937.96	227.98
938.26	227.91
938.56	227.91
938.86	227.88
939.16	227.89
939.46	227.96
939.76	227.97
940.06	227.90
940.35	227.73
940.65	227.62
940.95	227.50
941.25	227.35
941.55	227.25
941.85	227.27
942.15	227.35
942.45	227.45
942.75	227.49
943.04	227.47
943.34	227.48
943.64	227.44
943.94	227.42
944.24	227.41
944.54	227.48
944.84	227.52
945.13	227.50
945.43	227.60
945.73	227.58
946.03	227.57
946.33	227.51
946.62	227.62
946.92	227.61
947.22	227.69
947.52	227.79
947.82	227.84
948.11	227.90
948.41	227.88
948.71	227.84
949.01	227.82
949.31	227.82
949.60	227.87
949.90	227.95
950.20	227.93
950.50	228.00
950.79	227.93
951.09	227.89
951.39	227.92
951.69	227.83
951.98	227.87
952.28	227.93
952.58	227.97
952.87	227.91
953.17	227.95
953.47	227.97
953.76	227.94
954.06	227.99
954.36	228.03
954.66	228.03
954.95	228.09
955.25	228.09
955.55	228.18
955.84	228.12
956.14	228.15
956.44	228.23
956.73	228.22
957.03	228.29
957.32	228.35
957.62	228.40
957.92	228.42
958.21	228.44
958.51	228.61
958.81	228.61
959.10	228.66
959.40	228.78
959.69	228.89
959.99	228.87
960.29	228.83
960.58	228.86
960.88	228.94
961.17	228.97
961.47	229.07
961.76	229.13
962.06	229.14
962.36	229.19
962.65	229.23
962.95	229.19
963.24	229.12
963.54	229.07
963.83	229.00
964.13	228.99
964.42	228.90
964.72	228.87
965.01	228.95
965.31	228.99
965.60	228.87
965.90	228.88
966.19	228.84
966.49	228.90
966.78	228.78
967.08	228.71
967.37	228.70
967.67	228.63
967.96	228.55
968.26	228.55
968.55	228.48
968.85	228.38
969.14	228.42
969.43	228.40
969.73	228.50
970.02	228.43
970.32	228.50
970.61	228.43
970.91	228.26
971.20	228.12
971.49	228.01
971.79	228.05
972.08	227.89
972.38	227.84
972.67	227.75
972.96	227.79
973.26	227.68
973.55	227.81
973.85	227.82
974.14	227.80
974.43	227.82
974.73	227.92
975.02	228.03
975.31	228.02
975.61	228.02
975.90	227.97
976.19	228.03
976.49	228.00
976.78	227.94
977.07	228.06
977.37	228.14
977.66	228.10
977.95	228.04
978.24	228.11
978.54	228.28
978.83	228.30
979.12	228.40
979.42	228.47
979.71	228.31
980.00	228.27
980.29	228.28
980.59	228.22
980.88	228.17
981.17	228.13
981.46	228.08
981.76	227.99
982.05	227.97
982.34	228.08
982.63	228.10
982.93	228.24
983.22	228.21
983.51	228.21
983.80	228.33
984.09	228.40
984.39	228.38
984.68	228.32
984.97	228.40
985.26	228.20
985.55	228.33
985.85	228.26
986.14	228.33
986.43	228.35
986.72	228.36
987.01	228.22
987.30	228.24
987.59	228.30
987.89	228.33
988.18	228.39
988.47	228.32
988.76	228.32
989.05	228.30
989.34	228.25
989.63	228.28
989.92	228.30
990.22	228.32
990.51	228.40
990.80	228.37
991.09	228.29
991.38	228.40
991.67	228.25
991.96	228.26
992.25	228.21
992.54	228.22
992.83	228.23
993.12	228.27
993.41	228.27
993.70	228.25
993.99	228.39
994.28	228.40
994.58	228.45
994.87	228.44
995.16	228.46
995.45	228.42
995.74	228.39
996.03	228.28
996.32	228.34
996.61	228.30
996.90	228.32
997.19	228.28
997.48	228.25
997.77	228.18
998.06	228.21
998.34	228.20
998.63	228.18
998.92	228.18
999.21	228.23
999.50	228.27
999.79	228.24
1000.08	228.25
1000.37	228.18
1000.66	228.08
1000.95	228.20
1001.24	228.21
1001.53	228.14
1001.82	228.19
1002.11	228.17
1002.40	227.99
1002.68	227.99
1002.97	228.14
1003.26	228.24
1003.55	228.33
1003.84	228.47
1004.13	228.54
1004.42	228.59
1004.71	228.64
1004.99	228.70
1005.28	228.71
1005.57	228.70
1005.86	228.69
1006.15	228.56
1006.44	228.55
1006.72	228.65
1007.01	228.55
1007.30	228.40
1007.59	228.40
1007.88	228.34
1008.17	228.35
1008.45	228.51
1008.74	228.42
1009.03	228.26
1009.32	228.21
1009.60	228.11
1009.89	228.14
1010.18	228.02
1010.47	228.01
1010.76	228.00
1011.04	227.95
1011.33	227.92
1011.62	227.89
1011.91	227.94
1012.19	228.00
1012.48	228.03
1012.77	227.98
1013.05	228.04
1013.34	228.13
1013.63	228.18
1013.92	228.19
1014.20	228.28
1014.49	228.22
1014.78	228.20
1015.06	228.14
1015.35	228.17
1015.64	228.22
1015.92	228.20
1016.21	228.20
1016.50	228.19
1016.78	228.17
1017.07	228.12
1017.36	228.20
1017.64	228.14
1017.93	228.20
1018.22	228.32
1018.50	228.34
1018.79	228.38
1019.08	228.33
1019.36	228.33
1019.65	228.34
1019.93	228.43
1020.22	228.45
1020.51	228.58
1020.79	228.68
1021.08	230.20
1021.36	228.70
1021.65	228.80
1021.94	229.30
1022.22	228.00
1022.51	227.70
1022.79	229.60
1023.08	229.30
1023.36	231.70
1023.65	228.70
>>>>>End Processed Spectral Data<<<<<
