SpectraSuite Data File
++++++++++++++++++++++++++++++++++++
Date: Fri Feb 01 14:41:10 EST 2013
User: group
Dark Spectrum Present: No
Reference Spectrum Present: No
Number of Sampled Component Spectra: 1
Spectrometers: USB2E7196
Integration Time (usec): 70000 (USB2E7196)
Spectra Averaged: 10 (USB2E7196)
Boxcar Smoothing: 10 (USB2E7196)
Correct for Electrical Dark: No (USB2E7196)
Strobe/Lamp Enabled: No (USB2E7196)
Correct for Detector Non-linearity: No (USB2E7196)
Correct for Stray Light: No (USB2E7196)
Number of Pixels in Processed Spectrum: 2048
>>>>>Begin Processed Spectral Data<<<<<
339.09	0.00
339.48	217.40
339.86	217.60
340.24	218.40
340.63	219.60
341.01	224.10
341.39	223.00
341.78	224.80
342.16	224.60
342.54	226.40
342.93	214.50
343.31	225.33
343.69	225.77
344.07	226.21
344.46	226.68
344.84	227.07
345.22	227.27
345.60	227.54
345.99	227.75
346.37	227.92
346.75	228.11
347.13	228.32
347.52	228.32
347.90	228.46
348.28	228.53
348.66	228.55
349.05	228.47
349.43	228.56
349.81	228.65
350.19	228.72
350.57	228.72
350.96	228.84
351.34	228.92
351.72	229.10
352.10	229.32
352.48	229.39
352.87	229.51
353.25	229.62
353.63	229.63
354.01	229.68
354.39	229.78
354.77	229.78
355.15	229.75
355.54	229.85
355.92	229.88
356.30	229.97
356.68	230.14
357.06	230.19
357.44	230.33
357.82	230.39
358.20	230.57
358.58	230.61
358.97	230.70
359.35	230.78
359.73	230.86
360.11	230.80
360.49	230.89
360.87	230.88
361.25	230.95
361.63	231.13
362.01	231.09
362.39	231.12
362.77	231.16
363.15	231.29
363.53	231.23
363.91	231.21
364.29	231.27
364.67	231.05
365.05	231.06
365.43	231.00
365.81	230.93
366.19	230.80
366.57	230.82
366.95	230.83
367.33	230.85
367.71	230.82
368.09	230.84
368.47	230.75
368.85	230.72
369.23	230.70
369.61	230.55
369.99	230.70
370.37	230.65
370.75	230.59
371.13	230.46
371.51	230.37
371.89	230.30
372.27	230.23
372.65	230.27
373.03	230.35
373.41	230.33
373.78	230.35
374.16	230.29
374.54	230.24
374.92	230.15
375.30	230.02
375.68	229.93
376.06	229.87
376.44	229.71
376.82	229.73
377.19	229.66
377.57	229.58
377.95	229.40
378.33	229.29
378.71	229.17
379.09	229.07
379.47	229.05
379.84	228.91
380.22	228.85
380.60	228.76
380.98	228.49
381.36	228.40
381.73	228.27
382.11	228.34
382.49	228.25
382.87	228.17
383.25	228.11
383.62	228.32
384.00	228.25
384.38	228.30
384.76	228.26
385.13	228.28
385.51	228.32
385.89	228.19
386.27	228.18
386.64	228.22
387.02	228.22
387.40	228.11
387.78	228.12
388.15	228.04
388.53	227.96
388.91	228.06
389.29	228.00
389.66	228.05
390.04	228.08
390.42	228.16
390.79	228.17
391.17	228.12
391.55	227.88
391.92	227.88
392.30	227.88
392.68	227.83
393.05	227.84
393.43	227.73
393.81	227.84
394.18	227.80
394.56	227.80
394.94	227.87
395.31	227.94
395.69	228.09
396.06	228.22
396.44	228.29
396.82	228.28
397.19	228.43
397.57	228.36
397.95	228.32
398.32	228.36
398.70	228.41
399.07	228.61
399.45	228.62
399.82	228.60
400.20	228.73
400.58	228.72
400.95	228.67
401.33	228.87
401.70	229.17
402.08	229.47
402.45	229.56
402.83	229.64
403.20	229.77
403.58	229.74
403.95	229.86
404.33	230.10
404.71	230.24
405.08	230.48
405.46	230.65
405.83	230.81
406.21	230.87
406.58	231.15
406.96	231.34
407.33	231.57
407.70	231.86
408.08	232.19
408.45	232.54
408.83	232.89
409.20	233.10
409.58	233.21
409.95	233.48
410.33	233.82
410.70	234.20
411.08	234.60
411.45	235.05
411.82	235.36
412.20	235.69
412.57	236.30
412.95	236.61
413.32	237.15
413.69	237.57
414.07	238.13
414.44	238.63
414.82	239.23
415.19	239.88
415.56	240.44
415.94	240.99
416.31	241.72
416.68	242.35
417.06	243.28
417.43	244.03
417.81	244.76
418.18	245.70
418.55	246.64
418.93	247.58
419.30	248.68
419.67	249.88
420.04	250.98
420.42	251.91
420.79	253.18
421.16	254.45
421.54	255.86
421.91	257.17
422.28	258.53
422.66	259.91
423.03	261.36
423.40	262.97
423.77	264.65
424.15	266.23
424.52	268.02
424.89	269.77
425.26	271.55
425.64	273.16
426.01	274.90
426.38	276.71
426.75	278.69
427.13	280.63
427.50	282.53
427.87	284.59
428.24	286.75
428.61	288.79
428.99	291.03
429.36	293.33
429.73	295.75
430.10	298.17
430.47	300.54
430.85	303.02
431.22	305.51
431.59	308.18
431.96	310.73
432.33	313.44
432.70	316.14
433.08	319.30
433.45	322.40
433.82	325.35
434.19	328.60
434.56	331.77
434.93	334.72
435.30	337.89
435.68	341.28
436.05	344.50
436.42	347.48
436.79	350.41
437.16	353.64
437.53	356.69
437.90	359.83
438.27	363.04
438.64	366.17
439.01	369.22
439.38	371.80
439.75	374.15
440.13	376.90
440.50	379.65
440.87	381.77
441.24	383.82
441.61	386.28
441.98	388.02
442.35	390.00
442.72	392.08
443.09	393.91
443.46	394.93
443.83	395.47
444.20	396.32
444.57	397.06
444.94	397.24
445.31	397.80
445.68	398.21
446.05	398.21
446.42	397.75
446.79	397.22
447.16	396.62
447.53	396.26
447.90	394.96
448.27	393.53
448.64	391.72
449.01	390.39
449.37	388.07
449.74	385.91
450.11	383.46
450.48	380.65
450.85	377.85
451.22	375.29
451.59	373.08
451.96	370.65
452.33	367.82
452.70	365.17
453.07	361.86
453.43	358.46
453.80	355.30
454.17	352.17
454.54	349.20
454.91	346.08
455.28	343.18
455.65	340.30
456.02	337.64
456.38	335.14
456.75	332.22
457.12	329.70
457.49	327.10
457.86	324.38
458.23	322.33
458.59	319.92
458.96	317.69
459.33	315.52
459.70	313.50
460.07	311.68
460.43	309.56
460.80	307.70
461.17	306.08
461.54	304.30
461.91	302.76
462.27	300.99
462.64	299.61
463.01	297.93
463.38	296.45
463.74	294.64
464.11	293.18
464.48	291.92
464.85	290.60
465.21	289.62
465.58	288.58
465.95	287.16
466.32	286.11
466.68	285.03
467.05	283.99
467.42	282.86
467.78	281.74
468.15	280.75
468.52	279.87
468.88	278.77
469.25	277.70
469.62	276.81
469.98	276.03
470.35	275.11
470.72	274.44
471.08	273.75
471.45	273.09
471.82	272.46
472.18	271.71
472.55	271.01
472.92	270.18
473.28	269.55
473.65	268.98
474.02	268.47
474.38	267.86
474.75	267.33
475.11	266.85
475.48	266.40
475.85	266.05
476.21	265.60
476.58	265.20
476.94	264.91
477.31	264.58
477.67	264.30
478.04	264.03
478.41	263.63
478.77	263.44
479.14	263.10
479.50	262.92
479.87	262.75
480.23	262.69
480.60	262.57
480.96	262.53
481.33	262.42
481.69	262.15
482.06	262.13
482.42	262.18
482.79	262.11
483.15	262.22
483.52	262.36
483.88	262.49
484.25	262.59
484.61	262.79
484.98	263.00
485.34	263.23
485.71	263.50
486.07	263.82
486.44	264.03
486.80	264.39
487.17	264.76
487.53	265.34
487.90	265.80
488.26	266.45
488.62	266.97
488.99	267.60
489.35	268.31
489.72	269.08
490.08	269.80
490.44	270.65
490.81	271.55
491.17	272.52
491.54	273.50
491.90	274.59
492.26	275.66
492.63	276.92
492.99	278.23
493.36	279.64
493.72	281.15
494.08	282.72
494.45	284.44
494.81	286.22
495.17	287.97
495.54	290.05
495.90	292.07
496.26	294.25
496.63	296.53
496.99	298.89
497.35	301.36
497.72	303.99
498.08	306.78
498.44	309.65
498.80	312.52
499.17	315.74
499.53	319.02
499.89	322.69
500.26	326.28
500.62	329.90
500.98	333.90
501.34	337.99
501.71	342.30
502.07	346.80
502.43	351.33
502.79	356.14
503.16	360.91
503.52	366.04
503.88	371.40
504.24	376.93
504.60	382.78
504.97	388.87
505.33	395.00
505.69	401.40
506.05	407.92
506.41	414.76
506.78	421.67
507.14	429.02
507.50	436.28
507.86	443.90
508.22	451.77
508.59	459.57
508.95	467.92
509.31	476.40
509.67	485.21
510.03	494.19
510.39	503.40
510.75	512.99
511.12	522.82
511.48	532.95
511.84	543.08
512.20	553.41
512.56	564.08
512.92	575.28
513.28	586.56
513.64	598.03
514.00	609.95
514.37	621.75
514.73	633.83
515.09	646.13
515.45	658.91
515.81	671.53
516.17	684.83
516.53	698.14
516.89	711.56
517.25	725.01
517.61	739.04
517.97	752.83
518.33	766.92
518.69	781.10
519.05	795.46
519.41	810.16
519.77	825.06
520.13	840.22
520.49	855.23
520.85	870.30
521.21	885.46
521.57	901.38
521.93	916.98
522.29	933.05
522.65	948.82
523.01	964.33
523.37	980.25
523.73	996.50
524.09	1012.55
524.45	1029.01
524.81	1045.80
525.17	1062.55
525.53	1079.75
525.89	1096.77
526.25	1114.10
526.61	1131.03
526.97	1148.44
527.33	1165.90
527.68	1183.46
528.04	1200.90
528.40	1218.62
528.76	1236.88
529.12	1254.04
529.48	1272.04
529.84	1289.26
530.20	1307.63
530.56	1326.50
530.91	1345.43
531.27	1363.44
531.63	1381.90
531.99	1399.95
532.35	1417.62
532.71	1435.33
533.07	1453.57
533.42	1471.30
533.78	1489.24
534.14	1507.41
534.50	1524.42
534.86	1542.09
535.21	1558.94
535.57	1576.34
535.93	1593.73
536.29	1610.60
536.65	1627.85
537.00	1644.70
537.36	1662.37
537.72	1678.69
538.08	1694.61
538.44	1710.27
538.79	1726.64
539.15	1742.68
539.51	1759.19
539.87	1775.55
540.22	1791.36
540.58	1807.33
540.94	1823.24
541.29	1838.38
541.65	1853.56
542.01	1869.61
542.37	1884.50
542.72	1899.64
543.08	1914.18
543.44	1929.06
543.79	1943.10
544.15	1957.30
544.51	1971.67
544.87	1985.51
545.22	1999.37
545.58	2012.76
545.94	2025.50
546.29	2038.41
546.65	2050.53
547.01	2062.70
547.36	2074.68
547.72	2086.40
548.07	2097.65
548.43	2108.89
548.79	2119.69
549.14	2130.59
549.50	2140.57
549.86	2150.72
550.21	2161.15
550.57	2171.82
550.92	2181.27
551.28	2190.53
551.64	2199.49
551.99	2208.62
552.35	2217.17
552.70	2226.01
553.06	2235.59
553.41	2245.54
553.77	2254.20
554.13	2263.30
554.48	2271.61
554.84	2279.71
555.19	2288.11
555.55	2295.99
555.90	2303.34
556.26	2311.30
556.61	2318.42
556.97	2325.94
557.32	2333.51
557.68	2340.50
558.03	2346.60
558.39	2353.12
558.74	2361.22
559.10	2367.99
559.45	2374.22
559.81	2381.34
560.16	2387.19
560.52	2392.48
560.87	2398.06
561.23	2402.76
561.58	2407.92
561.94	2412.91
562.29	2417.55
562.64	2421.44
563.00	2425.38
563.35	2430.67
563.71	2435.69
564.06	2441.03
564.42	2445.75
564.77	2449.89
565.12	2454.25
565.48	2458.97
565.83	2462.47
566.19	2465.27
566.54	2468.32
566.89	2471.20
567.25	2473.68
567.60	2476.89
567.96	2479.25
568.31	2481.30
568.66	2483.73
569.02	2485.78
569.37	2487.32
569.72	2489.16
570.08	2491.13
570.43	2492.97
570.78	2493.20
571.14	2493.16
571.49	2493.13
571.84	2493.75
572.20	2493.80
572.55	2492.86
572.90	2491.57
573.26	2491.37
573.61	2490.38
573.96	2489.29
574.31	2487.28
574.67	2484.56
575.02	2482.78
575.37	2480.77
575.72	2477.45
576.08	2475.36
576.43	2472.88
576.78	2470.33
577.13	2467.99
577.49	2465.47
577.84	2462.02
578.19	2458.53
578.54	2454.79
578.90	2450.80
579.25	2445.86
579.60	2441.13
579.95	2436.70
580.30	2432.50
580.66	2427.66
581.01	2422.77
581.36	2418.55
581.71	2415.12
582.06	2411.28
582.42	2405.63
582.77	2400.83
583.12	2396.64
583.47	2391.90
583.82	2387.16
584.17	2382.21
584.53	2377.00
584.88	2372.09
585.23	2367.16
585.58	2362.49
585.93	2357.78
586.28	2353.25
586.63	2348.97
586.98	2344.35
587.34	2339.74
587.69	2334.60
588.04	2329.84
588.39	2325.01
588.74	2318.69
589.09	2312.23
589.44	2305.30
589.79	2300.14
590.14	2295.12
590.49	2289.01
590.84	2282.73
591.19	2276.49
591.54	2269.01
591.89	2261.28
592.25	2253.86
592.60	2246.55
592.95	2239.51
593.30	2232.20
593.65	2224.39
594.00	2216.33
594.35	2209.68
594.70	2201.77
595.05	2194.78
595.40	2186.44
595.75	2178.76
596.10	2172.16
596.45	2165.50
596.80	2159.62
597.15	2152.64
597.50	2144.60
597.85	2138.04
598.19	2131.34
598.54	2124.42
598.89	2118.30
599.24	2112.82
599.59	2106.24
599.94	2100.31
600.29	2093.35
600.64	2086.43
600.99	2078.51
601.34	2071.79
601.69	2063.88
602.04	2057.07
602.39	2050.00
602.74	2044.27
603.08	2037.68
603.43	2030.82
603.78	2023.70
604.13	2016.28
604.48	2008.66
604.83	2001.51
605.18	1993.97
605.53	1985.76
605.87	1977.15
606.22	1969.44
606.57	1960.82
606.92	1952.98
607.27	1944.79
607.62	1937.16
607.96	1929.42
608.31	1922.93
608.66	1914.37
609.01	1906.13
609.36	1896.97
609.70	1887.11
610.05	1877.33
610.40	1868.08
610.75	1859.07
611.10	1849.98
611.44	1840.04
611.79	1831.40
612.14	1822.27
612.49	1812.60
612.83	1803.35
613.18	1794.39
613.53	1785.41
613.88	1776.00
614.22	1766.79
614.57	1757.11
614.92	1747.69
615.27	1738.74
615.61	1728.83
615.96	1720.26
616.31	1711.98
616.65	1704.35
617.00	1696.56
617.35	1688.40
617.70	1679.71
618.04	1670.36
618.39	1661.57
618.74	1653.61
619.08	1644.84
619.43	1636.18
619.78	1628.20
620.12	1620.12
620.47	1611.89
620.82	1603.10
621.16	1595.04
621.51	1586.44
621.85	1577.94
622.20	1569.24
622.55	1560.42
622.89	1552.41
623.24	1544.52
623.59	1536.12
623.93	1527.89
624.28	1519.58
624.62	1511.20
624.97	1503.63
625.32	1496.08
625.66	1488.28
626.01	1480.30
626.35	1472.04
626.70	1464.03
627.04	1456.02
627.39	1447.57
627.73	1439.35
628.08	1431.42
628.43	1423.47
628.77	1415.80
629.12	1407.36
629.46	1399.22
629.81	1390.72
630.15	1381.81
630.50	1373.08
630.84	1364.00
631.19	1354.72
631.53	1346.30
631.88	1337.54
632.22	1328.05
632.57	1319.17
632.91	1310.73
633.26	1302.29
633.60	1293.63
633.95	1285.37
634.29	1277.00
634.64	1269.42
634.98	1261.09
635.32	1253.13
635.67	1245.54
636.01	1237.71
636.36	1229.87
636.70	1222.95
637.05	1215.87
637.39	1209.17
637.73	1201.72
638.08	1195.23
638.42	1188.61
638.77	1181.61
639.11	1174.61
639.45	1168.02
639.80	1160.97
640.14	1153.56
640.49	1146.19
640.83	1139.10
641.17	1132.12
641.52	1124.63
641.86	1117.14
642.20	1110.43
642.55	1103.38
642.89	1096.10
643.23	1088.44
643.58	1082.41
643.92	1074.77
644.26	1067.73
644.61	1060.65
644.95	1053.52
645.29	1045.67
645.64	1038.13
645.98	1030.97
646.32	1024.17
646.66	1017.06
647.01	1010.16
647.35	1003.35
647.69	996.55
648.04	990.24
648.38	982.76
648.72	975.72
649.06	968.67
649.41	961.55
649.75	954.40
650.09	947.42
650.43	940.82
650.78	933.45
651.12	926.48
651.46	919.84
651.80	913.07
652.14	906.92
652.49	900.75
652.83	894.66
653.17	887.74
653.51	881.02
653.85	874.36
654.20	867.96
654.54	861.35
654.88	854.84
655.22	847.83
655.56	841.66
655.90	835.60
656.25	829.44
656.59	823.56
656.93	817.71
657.27	811.83
657.61	805.68
657.95	799.76
658.29	794.29
658.64	788.12
658.98	782.10
659.32	775.83
659.66	769.69
660.00	763.79
660.34	758.23
660.68	752.27
661.02	746.56
661.36	741.16
661.70	735.83
662.05	730.78
662.39	725.78
662.73	720.66
663.07	715.76
663.41	710.90
663.75	705.75
664.09	700.74
664.43	695.66
664.77	691.00
665.11	686.47
665.45	681.62
665.79	677.08
666.13	672.31
666.47	667.50
666.81	662.71
667.15	657.76
667.49	653.31
667.83	649.33
668.17	644.89
668.51	640.21
668.85	635.67
669.19	631.19
669.53	626.83
669.87	622.36
670.21	618.18
670.55	613.94
670.89	610.00
671.23	606.00
671.57	601.81
671.91	597.74
672.25	593.52
672.58	589.73
672.92	585.83
673.26	582.39
673.60	578.87
673.94	575.37
674.28	572.17
674.62	568.74
674.96	564.88
675.30	561.67
675.64	558.43
675.97	555.14
676.31	551.98
676.65	548.72
676.99	545.81
677.33	542.30
677.67	539.10
678.01	535.58
678.34	532.17
678.68	528.99
679.02	525.64
679.36	522.57
679.70	519.31
680.04	516.10
680.37	512.90
680.71	509.73
681.05	506.94
681.39	503.75
681.73	500.70
682.06	498.03
682.40	495.14
682.74	492.19
683.08	489.40
683.42	486.43
683.75	483.49
684.09	480.29
684.43	477.61
684.77	474.80
685.10	472.19
685.44	469.60
685.78	466.84
686.12	464.30
686.45	461.62
686.79	458.98
687.13	456.38
687.46	453.60
687.80	450.87
688.14	448.07
688.48	445.76
688.81	443.19
689.15	440.66
689.49	438.15
689.82	435.74
690.16	433.25
690.50	430.87
690.83	428.58
691.17	426.35
691.51	424.06
691.84	421.71
692.18	419.36
692.52	416.91
692.85	414.85
693.19	412.60
693.52	410.40
693.86	408.07
694.20	406.00
694.53	403.96
694.87	401.92
695.21	399.88
695.54	397.70
695.88	395.62
696.21	393.56
696.55	391.62
696.88	389.71
697.22	387.86
697.56	385.90
697.89	383.94
698.23	382.00
698.56	380.09
698.90	378.26
699.23	376.27
699.57	374.59
699.90	372.73
700.24	370.99
700.58	369.17
700.91	367.49
701.25	365.86
701.58	364.30
701.92	362.85
702.25	361.32
702.59	359.76
702.92	358.15
703.26	356.63
703.59	354.96
703.93	353.59
704.26	352.09
704.60	350.65
704.93	349.29
705.26	347.78
705.60	346.45
705.93	345.08
706.27	343.88
706.60	342.66
706.94	341.39
707.27	340.09
707.61	338.86
707.94	337.79
708.27	336.34
708.61	334.91
708.94	333.66
709.28	332.32
709.61	331.15
709.94	330.06
710.28	328.86
710.61	327.76
710.95	326.33
711.28	325.19
711.61	324.06
711.95	322.89
712.28	321.89
712.61	320.80
712.95	319.80
713.28	318.80
713.61	317.50
713.95	316.36
714.28	315.29
714.61	314.20
714.95	312.96
715.28	311.96
715.61	311.00
715.95	309.96
716.28	309.09
716.61	308.10
716.95	307.15
717.28	306.20
717.61	305.20
717.94	304.40
718.28	303.38
718.61	302.44
718.94	301.53
719.27	300.68
719.61	299.83
719.94	298.94
720.27	297.99
720.60	297.27
720.94	296.53
721.27	295.75
721.60	295.16
721.93	294.52
722.27	293.84
722.60	293.05
722.93	292.33
723.26	291.61
723.59	290.81
723.93	290.16
724.26	289.39
724.59	288.82
724.92	288.13
725.25	287.63
725.59	286.92
725.92	286.29
726.25	285.54
726.58	284.71
726.91	284.09
727.24	283.59
727.57	283.00
727.91	282.29
728.24	281.66
728.57	280.84
728.90	280.16
729.23	279.50
729.56	279.02
729.89	278.45
730.22	277.90
730.55	277.31
730.89	276.65
731.22	276.06
731.55	275.40
731.88	274.70
732.21	273.96
732.54	273.41
732.87	272.79
733.20	272.40
733.53	272.02
733.86	271.45
734.19	270.70
734.52	270.29
734.85	269.89
735.18	269.34
735.51	269.09
735.84	268.67
736.17	268.26
736.50	267.65
736.83	267.43
737.16	266.91
737.49	266.47
737.82	265.98
738.15	265.52
738.48	265.08
738.81	264.80
739.14	264.41
739.47	264.00
739.80	263.56
740.13	263.10
740.46	262.78
740.79	262.28
741.12	262.03
741.45	261.52
741.78	261.11
742.11	260.81
742.44	260.23
742.77	259.83
743.10	259.35
743.43	259.00
743.75	258.36
744.08	258.20
744.41	257.98
744.74	257.70
745.07	257.37
745.40	257.10
745.73	256.80
746.06	256.45
746.39	256.10
746.71	255.78
747.04	255.40
747.37	254.88
747.70	254.69
748.03	254.42
748.36	254.11
748.68	253.83
749.01	253.47
749.34	253.24
749.67	253.04
750.00	252.90
750.33	252.75
750.65	252.49
750.98	252.07
751.31	251.78
751.64	251.48
751.97	251.46
752.29	251.22
752.62	250.89
752.95	250.67
753.28	250.48
753.60	250.26
753.93	250.10
754.26	250.05
754.59	249.81
754.91	249.48
755.24	249.24
755.57	249.04
755.90	248.87
756.22	248.48
756.55	248.22
756.88	247.95
757.20	247.68
757.53	247.49
757.86	247.37
758.19	247.10
758.51	246.95
758.84	246.64
759.17	246.39
759.49	246.12
759.82	246.02
760.15	245.89
760.47	245.75
760.80	245.56
761.13	245.30
761.45	245.13
761.78	244.96
762.11	244.68
762.43	244.47
762.76	244.42
763.08	244.43
763.41	244.14
763.74	243.94
764.06	243.80
764.39	243.63
764.71	243.39
765.04	243.24
765.37	243.05
765.69	242.81
766.02	242.56
766.34	242.48
766.67	242.20
767.00	242.11
767.32	242.02
767.65	241.91
767.97	241.70
768.30	241.63
768.62	241.53
768.95	241.48
769.27	241.34
769.60	241.09
769.92	240.96
770.25	240.82
770.57	240.65
770.90	240.48
771.22	240.32
771.55	240.26
771.87	240.08
772.20	239.81
772.52	239.90
772.85	239.98
773.17	239.82
773.50	239.67
773.82	239.40
774.15	239.25
774.47	239.02
774.80	238.92
775.12	238.59
775.45	238.41
775.77	238.22
776.09	238.10
776.42	237.99
776.74	237.80
777.07	237.74
777.39	237.67
777.72	237.51
778.04	237.32
778.36	237.12
778.69	236.97
779.01	236.96
779.33	236.69
779.66	236.47
779.98	236.29
780.31	236.16
780.63	236.10
780.95	235.99
781.28	235.89
781.60	235.78
781.92	235.72
782.25	235.58
782.57	235.46
782.89	235.30
783.22	235.15
783.54	235.14
783.86	235.00
784.19	234.85
784.51	234.80
784.83	234.84
785.16	234.74
785.48	234.60
785.80	234.59
786.12	234.47
786.45	234.34
786.77	234.35
787.09	234.34
787.42	234.28
787.74	234.18
788.06	234.10
788.38	234.00
788.71	233.92
789.03	234.00
789.35	234.02
789.67	233.98
789.99	233.92
790.32	233.80
790.64	233.87
790.96	234.09
791.28	234.00
791.61	233.95
791.93	233.87
792.25	233.93
792.57	234.02
792.89	234.02
793.21	234.16
793.54	234.20
793.86	234.17
794.18	234.10
794.50	234.12
794.82	234.20
795.14	234.26
795.47	234.27
795.79	234.08
796.11	234.09
796.43	234.10
796.75	234.13
797.07	234.15
797.39	234.04
797.71	233.88
798.04	233.84
798.36	233.80
798.68	233.87
799.00	233.88
799.32	233.71
799.64	233.71
799.96	233.60
800.28	233.57
800.60	233.57
800.92	233.54
801.24	233.42
801.56	233.25
801.89	233.16
802.21	233.14
802.53	233.29
802.85	233.30
803.17	233.32
803.49	233.28
803.81	233.21
804.13	233.16
804.45	233.07
804.77	233.13
805.09	232.99
805.41	232.82
805.73	232.72
806.05	232.61
806.37	232.54
806.69	232.53
807.01	232.41
807.33	232.30
807.65	232.23
807.97	232.30
808.28	232.37
808.60	232.30
808.92	232.30
809.24	232.25
809.56	232.24
809.88	232.11
810.20	232.05
810.52	232.02
810.84	231.97
811.16	231.95
811.48	231.83
811.80	231.92
812.12	231.96
812.43	231.91
812.75	231.85
813.07	231.80
813.39	231.63
813.71	231.62
814.03	231.70
814.35	231.72
814.67	231.70
814.98	231.62
815.30	231.55
815.62	231.41
815.94	231.28
816.26	231.16
816.58	231.11
816.89	231.07
817.21	230.99
817.53	230.98
817.85	230.88
818.17	230.77
818.48	230.67
818.80	230.56
819.12	230.51
819.44	230.36
819.76	230.28
820.07	230.25
820.39	230.12
820.71	230.02
821.03	229.84
821.34	229.65
821.66	229.60
821.98	229.64
822.30	229.66
822.61	229.73
822.93	229.69
823.25	229.61
823.57	229.43
823.88	229.39
824.20	229.38
824.52	229.39
824.83	229.35
825.15	229.32
825.47	229.32
825.79	229.31
826.10	229.39
826.42	229.35
826.74	229.36
827.05	229.32
827.37	229.29
827.69	229.34
828.00	229.40
828.32	229.35
828.64	229.33
828.95	229.40
829.27	229.34
829.58	229.27
829.90	229.36
830.22	229.47
830.53	229.44
830.85	229.39
831.17	229.29
831.48	229.44
831.80	229.41
832.11	229.36
832.43	229.35
832.75	229.43
833.06	229.53
833.38	229.55
833.69	229.65
834.01	229.71
834.32	229.81
834.64	229.80
834.96	229.85
835.27	229.87
835.59	229.80
835.90	229.73
836.22	229.80
836.53	229.76
836.85	229.77
837.16	229.98
837.48	230.10
837.79	230.16
838.11	230.12
838.42	230.12
838.74	230.19
839.05	230.15
839.37	230.10
839.68	230.03
840.00	230.05
840.31	230.04
840.63	230.00
840.94	229.96
841.26	229.92
841.57	229.92
841.88	230.00
842.20	229.98
842.51	230.01
842.83	230.00
843.14	230.14
843.46	230.07
843.77	229.92
844.08	229.87
844.40	229.90
844.71	229.86
845.03	229.78
845.34	229.80
845.65	229.88
845.97	229.96
846.28	230.01
846.60	229.99
846.91	230.02
847.22	230.05
847.54	230.03
847.85	230.08
848.16	230.07
848.48	229.97
848.79	230.01
849.10	230.00
849.42	230.00
849.73	229.80
850.04	229.93
850.36	229.86
850.67	229.85
850.98	229.81
851.30	229.76
851.61	229.77
851.92	229.75
852.23	229.80
852.55	229.72
852.86	229.64
853.17	229.54
853.49	229.49
853.80	229.37
854.11	229.34
854.42	229.25
854.74	229.16
855.05	229.17
855.36	229.12
855.67	229.10
855.99	229.08
856.30	229.29
856.61	229.22
856.92	229.23
857.23	229.13
857.55	229.10
857.86	228.97
858.17	228.98
858.48	228.97
858.79	228.86
859.11	228.86
859.42	228.92
859.73	228.95
860.04	228.88
860.35	228.90
860.66	228.76
860.98	228.73
861.29	228.74
861.60	228.71
861.91	228.70
862.22	228.67
862.53	228.60
862.84	228.42
863.16	228.39
863.47	228.39
863.78	228.35
864.09	228.30
864.40	228.42
864.71	228.47
865.02	228.43
865.33	228.40
865.64	228.37
865.95	228.21
866.27	228.42
866.58	228.43
866.89	228.43
867.20	228.44
867.51	228.43
867.82	228.45
868.13	228.50
868.44	228.49
868.75	228.53
869.06	228.64
869.37	228.70
869.68	228.63
869.99	228.70
870.30	228.82
870.61	228.84
870.92	228.80
871.23	228.79
871.54	228.84
871.85	229.05
872.16	229.00
872.47	229.01
872.78	228.90
873.09	228.98
873.40	229.05
873.71	229.10
874.02	229.25
874.33	229.23
874.64	229.23
874.95	229.30
875.26	229.36
875.56	229.27
875.87	229.15
876.18	229.15
876.49	229.34
876.80	229.33
877.11	229.45
877.42	229.50
877.73	229.48
878.04	229.44
878.35	229.28
878.66	229.38
878.96	229.51
879.27	229.43
879.58	229.41
879.89	229.40
880.20	229.58
880.51	229.49
880.82	229.57
881.12	229.47
881.43	229.37
881.74	229.23
882.05	229.15
882.36	229.20
882.67	229.29
882.97	229.04
883.28	228.99
883.59	228.81
883.90	228.80
884.21	228.77
884.51	228.78
884.82	228.83
885.13	228.75
885.44	228.63
885.74	228.61
886.05	228.51
886.36	228.46
886.67	228.28
886.98	228.40
887.28	228.40
887.59	228.38
887.90	228.36
888.20	228.35
888.51	228.36
888.82	228.30
889.13	228.31
889.43	228.50
889.74	228.45
890.05	228.51
890.35	228.53
890.66	228.54
890.97	228.42
891.28	228.32
891.58	228.26
891.89	228.28
892.20	228.28
892.50	228.20
892.81	228.24
893.12	228.12
893.42	227.96
893.73	227.95
894.04	228.06
894.34	228.07
894.65	228.07
894.95	228.04
895.26	227.94
895.57	227.96
895.87	227.74
896.18	227.73
896.48	227.72
896.79	227.63
897.10	227.64
897.40	227.70
897.71	227.70
898.01	227.68
898.32	227.70
898.63	227.68
898.93	227.79
899.24	227.77
899.54	227.84
899.85	227.80
900.15	227.72
900.46	227.70
900.76	227.78
901.07	227.79
901.38	227.90
901.68	228.01
901.99	227.84
902.29	227.82
902.60	227.88
902.90	227.96
903.21	228.00
903.51	227.96
903.82	228.06
904.12	228.00
904.43	228.09
904.73	228.11
905.03	228.16
905.34	228.45
905.64	228.45
905.95	228.41
906.25	228.45
906.56	228.50
906.86	228.58
907.17	228.48
907.47	228.56
907.77	228.59
908.08	228.58
908.38	228.76
908.69	228.77
908.99	228.80
909.30	228.77
909.60	228.71
909.90	228.79
910.21	228.74
910.51	228.85
910.81	228.92
911.12	228.86
911.42	229.01
911.73	228.78
912.03	228.84
912.33	228.97
912.64	228.96
912.94	228.95
913.24	228.88
913.55	228.89
913.85	228.88
914.15	228.94
914.46	229.07
914.76	229.09
915.06	229.14
915.37	229.17
915.67	229.18
915.97	229.34
916.27	229.37
916.58	229.35
916.88	229.33
917.18	229.22
917.49	229.41
917.79	229.20
918.09	229.20
918.39	229.20
918.70	229.17
919.00	229.27
919.30	229.40
919.60	229.36
919.91	229.34
920.21	229.33
920.51	229.22
920.81	229.08
921.12	228.99
921.42	228.97
921.72	228.89
922.02	228.85
922.32	228.80
922.63	228.73
922.93	228.72
923.23	228.68
923.53	228.68
923.83	228.51
924.13	228.63
924.44	228.62
924.74	228.59
925.04	228.63
925.34	228.61
925.64	228.44
925.94	228.40
926.24	228.53
926.55	228.44
926.85	228.44
927.15	228.48
927.45	228.48
927.75	228.39
928.05	228.40
928.35	228.37
928.65	228.31
928.95	228.23
929.26	228.21
929.56	228.29
929.86	228.32
930.16	228.27
930.46	228.18
930.76	228.09
931.06	228.05
931.36	227.97
931.66	227.92
931.96	227.96
932.26	227.98
932.56	227.87
932.86	227.89
933.16	227.88
933.46	227.86
933.76	227.83
934.06	227.92
934.36	227.98
934.66	227.95
934.96	227.88
935.26	228.04
935.56	228.10
935.86	228.04
936.16	227.91
936.46	227.91
936.76	227.83
937.06	227.84
937.36	227.84
937.66	227.84
937.96	227.82
938.26	227.84
938.56	227.78
938.86	227.83
939.16	227.90
939.46	227.94
939.76	227.99
940.06	228.05
940.35	228.01
940.65	227.91
940.95	228.00
941.25	228.13
941.55	228.07
941.85	228.06
942.15	228.11
942.45	228.22
942.75	228.30
943.04	228.39
943.34	228.51
943.64	228.64
943.94	228.68
944.24	228.70
944.54	228.75
944.84	228.80
945.13	228.84
945.43	228.88
945.73	228.88
946.03	228.89
946.33	228.84
946.62	228.91
946.92	229.05
947.22	229.03
947.52	229.00
947.82	229.09
948.11	229.08
948.41	229.02
948.71	229.12
949.01	229.09
949.31	229.21
949.60	229.11
949.90	229.10
950.20	229.13
950.50	229.14
950.79	229.10
951.09	229.20
951.39	229.15
951.69	229.10
951.98	229.15
952.28	229.12
952.58	229.12
952.87	229.00
953.17	229.00
953.47	228.97
953.76	229.01
954.06	228.94
954.36	228.89
954.66	228.94
954.95	229.03
955.25	229.11
955.55	228.96
955.84	229.00
956.14	228.95
956.44	228.93
956.73	228.93
957.03	228.93
957.32	228.98
957.62	228.89
957.92	228.97
958.21	228.98
958.51	229.18
958.81	229.18
959.10	229.19
959.40	229.19
959.69	229.18
959.99	229.16
960.29	229.11
960.58	229.07
960.88	229.13
961.17	228.96
961.47	229.02
961.76	228.98
962.06	228.90
962.36	228.84
962.65	228.80
962.95	228.80
963.24	228.76
963.54	228.67
963.83	228.71
964.13	228.63
964.42	228.59
964.72	228.43
965.01	228.37
965.31	228.41
965.60	228.33
965.90	228.38
966.19	228.32
966.49	228.40
966.78	228.44
967.08	228.41
967.37	228.44
967.67	228.31
967.96	228.46
968.26	228.46
968.55	228.49
968.85	228.51
969.14	228.46
969.43	228.50
969.73	228.42
970.02	228.41
970.32	228.41
970.61	228.34
970.91	228.35
971.20	228.40
971.49	228.44
971.79	228.48
972.08	228.43
972.38	228.46
972.67	228.36
972.96	228.34
973.26	228.29
973.55	228.32
973.85	228.28
974.14	228.16
974.43	228.29
974.73	228.33
975.02	228.32
975.31	228.35
975.61	228.28
975.90	228.32
976.19	228.39
976.49	228.43
976.78	228.36
977.07	228.36
977.37	228.32
977.66	228.37
977.95	228.33
978.24	228.41
978.54	228.53
978.83	228.54
979.12	228.59
979.42	228.62
979.71	228.61
980.00	228.71
980.29	228.81
980.59	228.81
980.88	228.77
981.17	228.75
981.46	228.71
981.76	228.76
982.05	228.79
982.34	228.76
982.63	228.78
982.93	228.90
983.22	228.98
983.51	229.06
983.80	229.02
984.09	229.08
984.39	229.05
984.68	228.91
984.97	229.03
985.26	229.00
985.55	229.05
985.85	229.03
986.14	229.10
986.43	229.20
986.72	229.10
987.01	229.12
987.30	229.10
987.59	229.15
987.89	229.17
988.18	229.19
988.47	229.11
988.76	229.03
989.05	228.91
989.34	228.83
989.63	228.76
989.92	228.72
990.22	228.69
990.51	228.67
990.80	228.65
991.09	228.56
991.38	228.48
991.67	228.44
991.96	228.42
992.25	228.26
992.54	228.07
992.83	228.01
993.12	227.95
993.41	228.01
993.70	228.09
993.99	228.16
994.28	228.05
994.58	228.11
994.87	228.06
995.16	228.06
995.45	227.98
995.74	227.95
996.03	227.82
996.32	227.74
996.61	227.82
996.90	227.89
997.19	227.80
997.48	227.88
997.77	227.80
998.06	227.78
998.34	227.83
998.63	227.83
998.92	227.96
999.21	227.93
999.50	227.87
999.79	227.77
1000.08	227.77
1000.37	227.76
1000.66	227.68
1000.95	227.81
1001.24	227.83
1001.53	227.79
1001.82	227.70
1002.11	227.78
1002.40	227.89
1002.68	227.82
1002.97	227.93
1003.26	227.99
1003.55	227.98
1003.84	227.95
1004.13	227.93
1004.42	227.86
1004.71	227.78
1004.99	227.80
1005.28	227.91
1005.57	227.90
1005.86	227.87
1006.15	227.80
1006.44	227.88
1006.72	227.96
1007.01	227.90
1007.30	228.01
1007.59	228.11
1007.88	228.20
1008.17	228.22
1008.45	228.23
1008.74	228.24
1009.03	228.12
1009.32	228.17
1009.60	228.13
1009.89	228.13
1010.18	228.10
1010.47	228.18
1010.76	228.31
1011.04	228.28
1011.33	228.25
1011.62	228.29
1011.91	228.32
1012.19	228.37
1012.48	228.37
1012.77	228.38
1013.05	228.53
1013.34	228.43
1013.63	228.39
1013.92	228.52
1014.20	228.58
1014.49	228.55
1014.78	228.43
1015.06	228.46
1015.35	228.53
1015.64	228.59
1015.92	228.70
1016.21	228.80
1016.50	228.84
1016.78	228.81
1017.07	228.73
1017.36	228.76
1017.64	228.80
1017.93	228.83
1018.22	228.80
1018.50	228.80
1018.79	228.90
1019.08	228.80
1019.36	228.95
1019.65	229.01
1019.93	229.01
1020.22	229.04
1020.51	229.12
1020.79	229.26
1021.08	228.20
1021.36	228.90
1021.65	230.70
1021.94	229.70
1022.22	229.90
1022.51	229.00
1022.79	230.00
1023.08	229.50
1023.36	230.40
1023.65	229.50
>>>>>End Processed Spectral Data<<<<<
