SpectraSuite Data File
++++++++++++++++++++++++++++++++++++
Date: Fri Feb 01 14:36:43 EST 2013
User: group
Dark Spectrum Present: No
Reference Spectrum Present: No
Number of Sampled Component Spectra: 1
Spectrometers: USB2E7196
Integration Time (usec): 70000 (USB2E7196)
Spectra Averaged: 10 (USB2E7196)
Boxcar Smoothing: 10 (USB2E7196)
Correct for Electrical Dark: No (USB2E7196)
Strobe/Lamp Enabled: No (USB2E7196)
Correct for Detector Non-linearity: No (USB2E7196)
Correct for Stray Light: No (USB2E7196)
Number of Pixels in Processed Spectrum: 2048
>>>>>Begin Processed Spectral Data<<<<<
339.09	0.00
339.48	215.40
339.86	218.30
340.24	218.50
340.63	218.90
341.01	226.10
341.39	222.80
341.78	225.90
342.16	225.90
342.54	225.80
342.93	214.38
343.31	225.20
343.69	225.83
344.07	226.24
344.46	226.68
344.84	227.05
345.22	227.13
345.60	227.32
345.99	227.44
346.37	227.58
346.75	227.65
347.13	227.70
347.52	227.73
347.90	227.87
348.28	227.97
348.66	228.01
349.05	228.04
349.43	228.07
349.81	228.12
350.19	228.21
350.57	228.21
350.96	228.14
351.34	228.25
351.72	228.22
352.10	228.32
352.48	228.38
352.87	228.48
353.25	228.49
353.63	228.55
354.01	228.58
354.39	228.53
354.77	228.60
355.15	228.76
355.54	228.85
355.92	228.85
356.30	228.86
356.68	229.02
357.06	229.05
357.44	229.09
357.82	229.17
358.20	229.25
358.58	229.33
358.97	229.47
359.35	229.49
359.73	229.57
360.11	229.53
360.49	229.57
360.87	229.70
361.25	229.73
361.63	229.86
362.01	229.94
362.39	229.93
362.77	230.06
363.15	230.03
363.53	230.03
363.91	230.11
364.29	230.22
364.67	230.05
365.05	230.08
365.43	230.10
365.81	230.08
366.19	230.13
366.57	230.27
366.95	230.26
367.33	230.30
367.71	230.30
368.09	230.43
368.47	230.44
368.85	230.35
369.23	230.44
369.61	230.40
369.99	230.39
370.37	230.50
370.75	230.54
371.13	230.52
371.51	230.42
371.89	230.43
372.27	230.36
372.65	230.32
373.03	230.25
373.41	230.19
373.78	230.19
374.16	229.98
374.54	229.75
374.92	229.64
375.30	229.52
375.68	229.43
376.06	229.30
376.44	229.25
376.82	229.20
377.19	229.00
377.57	228.96
377.95	228.86
378.33	228.78
378.71	228.49
379.09	228.44
379.47	228.36
379.84	228.20
380.22	228.14
380.60	228.09
380.98	228.07
381.36	228.00
381.73	227.85
382.11	227.83
382.49	227.84
382.87	227.81
383.25	227.72
383.62	227.84
384.00	227.80
384.38	227.66
384.76	227.60
385.13	227.68
385.51	227.60
385.89	227.48
386.27	227.46
386.64	227.46
387.02	227.34
387.40	227.34
387.78	227.30
388.15	227.26
388.53	227.19
388.91	227.12
389.29	227.12
389.66	227.28
390.04	227.25
390.42	227.16
390.79	227.01
391.17	227.00
391.55	226.80
391.92	226.71
392.30	226.70
392.68	226.68
393.05	226.71
393.43	226.70
393.81	226.71
394.18	226.64
394.56	226.71
394.94	226.90
395.31	226.88
395.69	226.91
396.06	226.94
396.44	226.99
396.82	226.98
397.19	227.05
397.57	226.98
397.95	227.09
398.32	227.14
398.70	227.37
399.07	227.41
399.45	227.49
399.82	227.63
400.20	227.81
400.58	227.90
400.95	227.92
401.33	228.03
401.70	228.31
402.08	228.48
402.45	228.63
402.83	228.67
403.20	228.83
403.58	229.07
403.95	229.22
404.33	229.40
404.71	229.59
405.08	229.91
405.46	230.15
405.83	230.32
406.21	230.67
406.58	230.85
406.96	231.22
407.33	231.57
407.70	231.91
408.08	232.33
408.45	232.72
408.83	233.11
409.20	233.58
409.58	233.93
409.95	234.42
410.33	234.89
410.70	235.32
411.08	235.90
411.45	236.50
411.82	237.01
412.20	237.70
412.57	238.52
412.95	239.06
413.32	239.67
413.69	240.44
414.07	241.14
414.44	242.10
414.82	242.94
415.19	243.94
415.56	244.97
415.94	245.97
416.31	247.19
416.68	248.38
417.06	249.70
417.43	251.00
417.81	252.58
418.18	254.00
418.55	255.65
418.93	257.27
419.30	258.93
419.67	260.87
420.04	262.80
420.42	264.71
420.79	267.16
421.16	269.51
421.54	272.03
421.91	274.48
422.28	276.98
422.66	279.75
423.03	282.39
423.40	285.19
423.77	288.21
424.15	291.07
424.52	294.24
424.89	297.56
425.26	300.84
425.64	303.92
426.01	307.42
426.38	310.94
426.75	314.62
427.13	318.36
427.50	322.35
427.87	326.41
428.24	330.41
428.61	334.09
428.99	338.36
429.36	342.83
429.73	347.34
430.10	351.71
430.47	356.31
430.85	361.05
431.22	365.90
431.59	371.13
431.96	376.29
432.33	381.81
432.70	387.09
433.08	393.50
433.45	399.33
433.82	405.08
434.19	411.66
434.56	417.94
434.93	424.01
435.30	430.07
435.68	436.81
436.05	443.55
436.42	450.12
436.79	456.23
437.16	462.66
437.53	469.38
437.90	476.16
438.27	482.84
438.64	489.77
439.01	496.14
439.38	501.77
439.75	507.16
440.13	513.50
440.50	519.68
440.87	524.54
441.24	529.82
441.61	535.72
441.98	540.12
442.35	544.95
442.72	549.99
443.09	554.81
443.46	557.94
443.83	560.13
444.20	562.22
444.57	565.14
444.94	566.65
445.31	568.62
445.68	570.24
446.05	571.17
446.42	571.11
446.79	571.02
447.16	571.03
447.53	571.32
447.90	569.63
448.27	567.80
448.64	564.88
449.01	563.03
449.37	559.14
449.74	555.38
450.11	550.92
450.48	545.85
450.85	540.89
451.22	536.55
451.59	532.49
451.96	528.68
452.33	523.04
452.70	518.31
453.07	512.07
453.43	506.10
453.80	500.22
454.17	494.32
454.54	488.82
454.91	482.70
455.28	476.70
455.65	471.14
456.02	465.63
456.38	460.84
456.75	454.70
457.12	449.74
457.49	444.73
457.86	440.00
458.23	436.06
458.59	431.31
458.96	426.50
459.33	422.32
459.70	418.02
460.07	414.57
460.43	410.59
460.80	406.90
461.17	403.55
461.54	400.12
461.91	396.90
462.27	393.75
462.64	390.95
463.01	387.97
463.38	384.83
463.74	381.66
464.11	379.13
464.48	376.74
464.85	374.15
465.21	372.06
465.58	370.00
465.95	367.38
466.32	365.36
466.68	363.26
467.05	361.12
467.42	359.00
467.78	356.80
468.15	354.69
468.52	353.22
468.88	351.18
469.25	349.32
469.62	347.89
469.98	346.20
470.35	344.59
470.72	343.04
471.08	341.58
471.45	340.30
471.82	338.79
472.18	337.29
472.55	336.17
472.92	334.90
473.28	333.60
473.65	332.37
474.02	331.09
474.38	330.10
474.75	329.03
475.11	328.10
475.48	327.31
475.85	326.59
476.21	325.65
476.58	324.93
476.94	324.28
477.31	323.52
477.67	322.98
478.04	322.45
478.41	321.96
478.77	321.67
479.14	321.25
479.50	320.97
479.87	320.70
480.23	320.36
480.60	320.05
480.96	319.83
481.33	319.87
481.69	319.72
482.06	319.52
482.42	319.45
482.79	319.30
483.15	319.32
483.52	319.47
483.88	319.60
484.25	319.70
484.61	319.93
484.98	320.21
485.34	320.41
485.71	320.74
486.07	321.02
486.44	321.18
486.80	321.51
487.17	321.82
487.53	322.51
487.90	323.08
488.26	323.88
488.62	324.47
488.99	324.96
489.35	325.61
489.72	326.43
490.08	327.36
490.44	328.16
490.81	329.05
491.17	329.80
491.54	330.63
491.90	331.45
492.26	332.42
492.63	333.44
492.99	334.23
493.36	335.30
493.72	336.35
494.08	337.37
494.45	338.51
494.81	339.81
495.17	340.96
495.54	341.97
495.90	342.96
496.26	344.12
496.63	345.34
496.99	346.65
497.35	347.87
497.72	349.01
498.08	350.24
498.44	351.35
498.80	352.78
499.17	354.30
499.53	355.52
499.89	356.67
500.26	357.86
500.62	359.11
500.98	360.44
501.34	361.80
501.71	363.00
502.07	364.15
502.43	365.18
502.79	366.14
503.16	367.30
503.52	368.39
503.88	369.45
504.24	370.60
504.60	371.49
504.97	372.37
505.33	373.43
505.69	374.54
506.05	375.58
506.41	376.32
506.78	376.83
507.14	377.66
507.50	378.53
507.86	379.30
508.22	380.19
508.59	380.61
508.95	381.06
509.31	381.90
509.67	382.55
510.03	382.99
510.39	383.56
510.75	384.21
511.12	384.64
511.48	385.14
511.84	385.41
512.20	385.88
512.56	386.41
512.92	386.71
513.28	386.82
513.64	386.97
514.00	387.20
514.37	387.46
514.73	387.74
515.09	387.90
515.45	388.02
515.81	388.16
516.17	388.30
516.53	388.45
516.89	388.28
517.25	388.30
517.61	388.66
517.97	388.79
518.33	388.66
518.69	388.95
519.05	389.21
519.41	389.41
519.77	389.72
520.13	389.83
520.49	389.92
520.85	390.11
521.21	390.42
521.57	390.66
521.93	390.87
522.29	391.34
522.65	391.62
523.01	391.87
523.37	392.20
523.73	392.76
524.09	393.33
524.45	393.92
524.81	394.63
525.17	395.29
525.53	395.96
525.89	396.83
526.25	397.50
526.61	398.11
526.97	399.03
527.33	399.91
527.68	401.21
528.04	402.45
528.40	403.76
528.76	405.04
529.12	406.56
529.48	408.14
529.84	409.47
530.20	411.06
530.56	412.92
530.91	414.80
531.27	416.67
531.63	418.59
531.99	420.55
532.35	422.55
532.71	424.62
533.07	426.90
533.42	429.26
533.78	431.54
534.14	434.11
534.50	436.50
534.86	438.96
535.21	441.22
535.57	443.87
535.93	446.59
536.29	449.45
536.65	452.14
537.00	455.01
537.36	457.99
537.72	461.06
538.08	464.11
538.44	467.08
538.79	470.17
539.15	473.37
539.51	476.73
539.87	480.12
540.22	483.52
540.58	487.04
540.94	490.32
541.29	493.68
541.65	497.08
542.01	500.89
542.37	504.65
542.72	508.40
543.08	512.07
543.44	515.92
543.79	519.39
544.15	523.28
544.51	527.29
544.87	531.22
545.22	535.20
545.58	539.11
545.94	543.07
546.29	547.15
546.65	551.10
547.01	555.04
547.36	558.94
547.72	562.95
548.07	566.92
548.43	571.19
548.79	575.57
549.14	579.60
549.50	583.53
549.86	587.63
550.21	591.76
550.57	596.09
550.92	600.15
551.28	604.43
551.64	608.42
551.99	612.65
552.35	616.90
552.70	620.93
553.06	625.29
553.41	629.72
553.77	633.97
554.13	638.28
554.48	642.69
554.84	647.14
555.19	651.55
555.55	655.84
555.90	660.18
556.26	664.44
556.61	668.83
556.97	673.00
557.32	677.22
557.68	681.69
558.03	686.09
558.39	690.26
558.74	694.61
559.10	698.87
559.45	703.06
559.81	707.44
560.16	711.73
560.52	715.79
560.87	719.82
561.23	723.72
561.58	728.13
561.94	732.29
562.29	736.02
562.64	739.59
563.00	743.55
563.35	747.33
563.71	751.03
564.06	755.09
564.42	759.00
564.77	762.75
565.12	766.34
565.48	770.06
565.83	773.70
566.19	777.59
566.54	781.29
566.89	784.64
567.25	788.01
567.60	792.04
567.96	795.60
568.31	799.00
568.66	802.41
569.02	805.33
569.37	808.22
569.72	811.30
570.08	814.53
570.43	817.58
570.78	820.48
571.14	823.56
571.49	826.24
571.84	829.14
572.20	831.72
572.55	834.37
572.90	836.57
573.26	839.25
573.61	841.40
573.96	843.68
574.31	845.71
574.67	847.56
575.02	848.91
575.37	850.53
575.72	851.81
576.08	853.54
576.43	855.15
576.78	856.71
577.13	858.45
577.49	860.20
577.84	861.72
578.19	863.38
578.54	864.43
578.90	865.38
579.25	866.39
579.60	867.42
579.95	868.28
580.30	868.90
580.66	869.51
581.01	870.29
581.36	870.93
581.71	871.92
582.06	872.70
582.42	873.03
582.77	873.66
583.12	874.57
583.47	875.24
583.82	875.88
584.17	876.52
584.53	876.95
584.88	877.04
585.23	877.31
585.58	877.48
585.93	877.74
586.28	878.10
586.63	878.25
586.98	878.66
587.34	878.75
587.69	879.14
588.04	879.31
588.39	879.34
588.74	879.00
589.09	878.80
589.44	878.45
589.79	878.47
590.14	878.40
590.49	877.93
590.84	877.50
591.19	877.27
591.54	876.43
591.89	875.35
592.25	874.87
592.60	873.59
592.95	872.60
593.30	871.63
593.65	870.78
594.00	869.85
594.35	869.12
594.70	868.04
595.05	867.09
595.40	865.87
595.75	864.51
596.10	863.62
596.45	862.40
596.80	861.67
597.15	860.64
597.50	859.09
597.85	858.22
598.19	857.00
598.54	855.76
598.89	854.85
599.24	854.30
599.59	852.90
599.94	852.08
600.29	850.54
600.64	849.40
600.99	847.87
601.34	846.64
601.69	844.70
602.04	843.29
602.39	841.97
602.74	840.71
603.08	839.54
603.43	838.48
603.78	837.06
604.13	835.22
604.48	833.58
604.83	832.37
605.18	830.65
605.53	828.65
605.87	826.56
606.22	824.97
606.57	822.86
606.92	821.17
607.27	819.55
607.62	818.36
607.96	816.71
608.31	815.29
608.66	813.06
609.01	811.44
609.36	809.25
609.70	806.64
610.05	804.30
610.40	802.23
610.75	799.63
611.10	797.30
611.44	794.77
611.79	792.57
612.14	790.01
612.49	787.37
612.83	785.20
613.18	782.80
613.53	780.40
613.88	777.93
614.22	775.33
614.57	772.49
614.92	769.66
615.27	767.06
615.61	764.26
615.96	761.80
616.31	759.06
616.65	757.04
617.00	754.93
617.35	752.62
617.70	749.97
618.04	747.38
618.39	744.93
618.74	742.77
619.08	739.97
619.43	737.58
619.78	735.41
620.12	732.85
620.47	730.32
620.82	727.72
621.16	725.26
621.51	722.93
621.85	720.26
622.20	717.89
622.55	715.29
622.89	712.94
623.24	710.79
623.59	708.49
623.93	706.18
624.28	703.63
624.62	701.12
624.97	698.67
625.32	696.38
625.66	693.90
626.01	691.36
626.35	689.13
626.70	686.70
627.04	684.19
627.39	681.66
627.73	679.08
628.08	676.78
628.43	674.32
628.77	671.67
629.12	669.22
629.46	666.41
629.81	663.65
630.15	660.87
630.50	658.20
630.84	655.23
631.19	652.10
631.53	649.34
631.88	646.47
632.22	643.61
632.57	640.95
632.91	638.13
633.26	635.50
633.60	632.58
633.95	629.57
634.29	627.06
634.64	624.69
634.98	622.16
635.32	619.31
635.67	616.92
636.01	614.53
636.36	612.14
636.70	609.83
637.05	607.62
637.39	605.40
637.73	602.72
638.08	600.69
638.42	598.43
638.77	596.28
639.11	593.95
639.45	591.61
639.80	589.30
640.14	587.12
640.49	584.63
640.83	582.46
641.17	580.27
641.52	577.83
641.86	575.46
642.20	573.15
642.55	570.50
642.89	568.03
643.23	565.47
643.58	563.34
643.92	560.91
644.26	558.48
644.61	556.10
644.95	553.94
645.29	551.33
645.64	548.89
645.98	546.44
646.32	544.23
646.66	542.10
647.01	539.62
647.35	537.29
647.69	534.90
648.04	532.74
648.38	530.50
648.72	527.81
649.06	525.24
649.41	522.92
649.75	520.72
650.09	518.28
650.43	515.93
650.78	513.33
651.12	510.96
651.46	508.70
651.80	506.29
652.14	503.92
652.49	501.75
652.83	499.62
653.17	497.20
653.51	494.88
653.85	492.43
654.20	490.22
654.54	487.80
654.88	485.59
655.22	483.02
655.56	480.68
655.90	478.70
656.25	476.51
656.59	474.20
656.93	472.07
657.27	470.00
657.61	467.72
657.95	465.75
658.29	463.71
658.64	461.46
658.98	459.32
659.32	457.13
659.66	455.10
660.00	453.02
660.34	451.00
660.68	448.80
661.02	446.79
661.36	444.85
661.70	443.03
662.05	441.16
662.39	439.48
662.73	437.71
663.07	435.95
663.41	434.14
663.75	432.40
664.09	430.57
664.43	428.64
664.77	427.06
665.11	425.16
665.45	423.23
665.79	421.50
666.13	419.74
666.47	418.02
666.81	416.11
667.15	414.21
667.49	412.48
667.83	410.92
668.17	409.20
668.51	407.51
668.85	405.70
669.19	404.03
669.53	402.23
669.87	400.31
670.21	398.50
670.55	396.94
670.89	395.48
671.23	393.97
671.57	392.47
671.91	390.83
672.25	389.35
672.58	388.00
672.92	386.56
673.26	385.13
673.60	383.70
673.94	382.44
674.28	381.15
674.62	379.89
674.96	378.45
675.30	377.17
675.64	375.78
675.97	374.46
676.31	373.21
676.65	371.96
676.99	370.95
677.33	369.69
677.67	368.37
678.01	366.84
678.34	365.46
678.68	364.28
679.02	363.13
679.36	361.81
679.70	360.47
680.04	359.30
680.37	358.10
680.71	357.07
681.05	355.86
681.39	354.80
681.73	353.63
682.06	352.57
682.40	351.43
682.74	350.24
683.08	349.11
683.42	347.99
683.75	346.91
684.09	345.70
684.43	344.60
684.77	343.53
685.10	342.50
685.44	341.50
685.78	340.39
686.12	339.27
686.45	338.23
686.79	337.18
687.13	336.14
687.46	334.85
687.80	333.54
688.14	332.38
688.48	331.27
688.81	330.01
689.15	329.10
689.49	328.03
689.82	327.14
690.16	326.12
690.50	325.10
690.83	324.09
691.17	323.04
691.51	321.99
691.84	321.10
692.18	320.20
692.52	319.14
692.85	318.10
693.19	317.11
693.52	316.17
693.86	315.27
694.20	314.21
694.53	313.36
694.87	312.42
695.21	311.48
695.54	310.48
695.88	309.70
696.21	308.60
696.55	307.73
696.88	306.72
697.22	305.83
697.56	305.01
697.89	304.23
698.23	303.42
698.56	302.56
698.90	301.70
699.23	300.88
699.57	300.05
699.90	299.27
700.24	298.42
700.58	297.60
700.91	296.87
701.25	296.30
701.58	295.76
701.92	295.14
702.25	294.40
702.59	293.57
702.92	292.88
703.26	292.28
703.59	291.61
703.93	291.21
704.26	290.73
704.60	290.03
704.93	289.30
705.26	288.68
705.60	288.05
705.93	287.45
706.27	286.89
706.60	286.44
706.94	285.93
707.27	285.32
707.61	284.76
707.94	284.22
708.27	283.54
708.61	282.79
708.94	282.18
709.28	281.70
709.61	281.28
709.94	280.76
710.28	280.00
710.61	279.56
710.95	278.73
711.28	278.37
711.61	277.79
711.95	277.18
712.28	276.59
712.61	276.24
712.95	275.70
713.28	275.20
713.61	274.50
713.95	273.88
714.28	273.37
714.61	273.04
714.95	272.48
715.28	272.03
715.61	271.56
715.95	271.18
716.28	270.77
716.61	270.27
716.95	269.82
717.28	269.49
717.61	268.92
717.94	268.61
718.28	267.88
718.61	267.50
718.94	267.22
719.27	266.84
719.61	266.25
719.94	265.85
720.27	265.33
720.60	265.01
720.94	264.74
721.27	264.35
721.60	263.72
721.93	263.36
722.27	263.07
722.60	262.71
722.93	262.26
723.26	261.84
723.59	261.43
723.93	261.08
724.26	260.86
724.59	260.50
724.92	260.15
725.25	259.94
725.59	259.68
725.92	259.31
726.25	259.12
726.58	258.91
726.91	258.64
727.24	258.43
727.57	258.10
727.91	257.72
728.24	257.50
728.57	257.29
728.90	257.07
729.23	256.66
729.56	256.58
729.89	256.40
730.22	256.14
730.55	255.92
730.89	255.65
731.22	255.23
731.55	254.93
731.88	254.65
732.21	254.40
732.54	254.07
732.87	253.76
733.20	253.40
733.53	253.15
733.86	252.89
734.19	252.64
734.52	252.45
734.85	252.31
735.18	252.07
735.51	251.84
735.84	251.62
736.17	251.51
736.50	251.07
736.83	251.05
737.16	250.86
737.49	250.69
737.82	250.43
738.15	250.27
738.48	250.16
738.81	249.91
739.14	249.58
739.47	249.35
739.80	249.22
740.13	249.03
740.46	248.83
740.79	248.60
741.12	248.29
741.45	247.99
741.78	247.78
742.11	247.58
742.44	247.39
742.77	247.12
743.10	246.81
743.43	246.66
743.75	246.17
744.08	246.18
744.41	245.90
744.74	245.70
745.07	245.48
745.40	245.17
745.73	245.11
746.06	244.96
746.39	244.82
746.71	244.60
747.04	244.39
747.37	244.22
747.70	244.03
748.03	243.98
748.36	243.95
748.68	243.68
749.01	243.45
749.34	243.20
749.67	243.10
750.00	242.97
750.33	242.92
750.65	242.83
750.98	242.42
751.31	242.33
751.64	242.26
751.97	242.25
752.29	242.12
752.62	241.91
752.95	241.83
753.28	241.58
753.60	241.51
753.93	241.35
754.26	241.17
754.59	241.05
754.91	240.73
755.24	240.60
755.57	240.55
755.90	240.41
756.22	240.39
756.55	240.19
756.88	240.03
757.20	239.80
757.53	239.63
757.86	239.43
758.19	239.38
758.51	239.17
758.84	239.01
759.17	238.88
759.49	238.74
759.82	238.73
760.15	238.67
760.47	238.53
760.80	238.49
761.13	238.44
761.45	238.25
761.78	238.31
762.11	238.06
762.43	237.95
762.76	237.97
763.08	237.80
763.41	237.72
763.74	237.62
764.06	237.51
764.39	237.45
764.71	237.51
765.04	237.40
765.37	237.36
765.69	237.31
766.02	237.18
766.34	237.07
766.67	236.85
767.00	236.79
767.32	236.86
767.65	236.91
767.97	236.81
768.30	236.82
768.62	236.79
768.95	236.80
769.27	236.71
769.60	236.60
769.92	236.50
770.25	236.47
770.57	236.35
770.90	236.30
771.22	236.21
771.55	236.09
771.87	235.96
772.20	235.90
772.52	235.89
772.85	236.18
773.17	236.09
773.50	235.95
773.82	235.91
774.15	235.62
774.47	235.53
774.80	235.47
775.12	235.30
775.45	235.19
775.77	235.11
776.09	234.87
776.42	234.79
776.74	234.87
777.07	234.74
777.39	234.72
777.72	234.64
778.04	234.64
778.36	234.60
778.69	234.62
779.01	234.57
779.33	234.35
779.66	234.01
779.98	233.92
780.31	233.91
780.63	233.84
780.95	233.80
781.28	233.66
781.60	233.55
781.92	233.50
782.25	233.50
782.57	233.44
782.89	233.42
783.22	233.29
783.54	233.10
783.86	233.05
784.19	233.10
784.51	233.07
784.83	232.96
785.16	232.86
785.48	232.76
785.80	232.63
786.12	232.45
786.45	232.37
786.77	232.31
787.09	232.34
787.42	232.20
787.74	232.28
788.06	232.23
788.38	232.18
788.71	232.14
789.03	231.98
789.35	231.83
789.67	231.83
789.99	231.82
790.32	231.81
790.64	231.80
790.96	231.76
791.28	231.75
791.61	231.67
791.93	231.59
792.25	231.45
792.57	231.54
792.89	231.60
793.21	231.63
793.54	231.62
793.86	231.43
794.18	231.45
794.50	231.30
794.82	231.23
795.14	231.21
795.47	231.28
795.79	231.31
796.11	231.37
796.43	231.34
796.75	231.34
797.07	231.32
797.39	231.27
797.71	231.19
798.04	231.10
798.36	231.11
798.68	231.22
799.00	231.37
799.32	231.30
799.64	231.38
799.96	231.27
800.28	231.26
800.60	231.34
800.92	231.44
801.24	231.37
801.56	231.43
801.89	231.48
802.21	231.38
802.53	231.27
802.85	231.26
803.17	231.28
803.49	231.26
803.81	231.25
804.13	231.14
804.45	231.07
804.77	231.01
805.09	231.01
805.41	230.84
805.73	230.66
806.05	230.65
806.37	230.60
806.69	230.61
807.01	230.61
807.33	230.57
807.65	230.35
807.97	230.50
808.28	230.35
808.60	230.37
808.92	230.36
809.24	230.49
809.56	230.49
809.88	230.56
810.20	230.60
810.52	230.50
810.84	230.52
811.16	230.50
811.48	230.54
811.80	230.52
812.12	230.62
812.43	230.66
812.75	230.67
813.07	230.67
813.39	230.70
813.71	230.66
814.03	230.64
814.35	230.70
814.67	230.64
814.98	230.62
815.30	230.47
815.62	230.41
815.94	230.28
816.26	230.30
816.58	230.14
816.89	230.03
817.21	230.03
817.53	230.11
817.85	230.15
818.17	230.11
818.48	229.98
818.80	229.89
819.12	229.86
819.44	229.77
819.76	229.72
820.07	229.74
820.39	229.72
820.71	229.71
821.03	229.66
821.34	229.62
821.66	229.67
821.98	229.77
822.30	229.73
822.61	229.81
822.93	229.70
823.25	229.67
823.57	229.65
823.88	229.73
824.20	229.60
824.52	229.51
824.83	229.45
825.15	229.54
825.47	229.50
825.79	229.46
826.10	229.36
826.42	229.20
826.74	229.08
827.05	229.06
827.37	228.97
827.69	228.95
828.00	228.87
828.32	228.90
828.64	228.78
828.95	228.92
829.27	228.81
829.58	228.83
829.90	228.92
830.22	228.94
830.53	228.86
830.85	228.91
831.17	228.90
831.48	228.90
831.80	228.81
832.11	228.81
832.43	228.75
832.75	228.73
833.06	228.87
833.38	228.90
833.69	228.79
834.01	228.75
834.32	228.80
834.64	228.80
834.96	228.75
835.27	228.73
835.59	228.65
835.90	228.61
836.22	228.58
836.53	228.46
836.85	228.48
837.16	228.76
837.48	228.73
837.79	228.75
838.11	228.70
838.42	228.69
838.74	228.74
839.05	228.88
839.37	228.88
839.68	228.85
840.00	228.82
840.31	228.95
840.63	228.93
840.94	228.96
841.26	228.99
841.57	229.02
841.88	229.07
842.20	228.94
842.51	229.00
842.83	229.03
843.14	229.22
843.46	229.19
843.77	229.02
844.08	229.06
844.40	229.05
844.71	229.04
845.03	229.11
845.34	229.08
845.65	229.05
845.97	229.05
846.28	229.11
846.60	229.04
846.91	229.09
847.22	229.10
847.54	229.03
847.85	229.00
848.16	228.99
848.48	228.93
848.79	229.15
849.10	229.07
849.42	229.25
849.73	229.10
850.04	229.04
850.36	228.96
850.67	228.90
850.98	228.87
851.30	228.91
851.61	228.86
851.92	228.88
852.23	228.83
852.55	228.93
852.86	228.87
853.17	228.92
853.49	228.89
853.80	228.94
854.11	228.95
854.42	228.93
854.74	228.90
855.05	228.88
855.36	228.65
855.67	228.66
855.99	228.48
856.30	228.63
856.61	228.74
856.92	228.77
857.23	228.80
857.55	228.72
857.86	228.70
858.17	228.76
858.48	228.70
858.79	228.66
859.11	228.66
859.42	228.60
859.73	228.55
860.04	228.49
860.35	228.51
860.66	228.49
860.98	228.45
861.29	228.39
861.60	228.31
861.91	228.42
862.22	228.50
862.53	228.38
862.84	228.13
863.16	228.09
863.47	227.98
863.78	227.99
864.09	228.04
864.40	228.00
864.71	227.92
865.02	227.88
865.33	227.82
865.64	227.78
865.95	227.83
866.27	228.09
866.58	228.14
866.89	228.06
867.20	228.02
867.51	228.02
867.82	227.94
868.13	228.08
868.44	228.00
868.75	227.96
869.06	228.00
869.37	228.09
869.68	228.02
869.99	228.10
870.30	228.04
870.61	228.04
870.92	228.08
871.23	228.15
871.54	228.18
871.85	228.26
872.16	228.25
872.47	228.18
872.78	227.87
873.09	227.88
873.40	227.96
873.71	227.99
874.02	227.98
874.33	228.08
874.64	228.00
874.95	228.07
875.26	228.01
875.56	228.06
875.87	227.96
876.18	227.97
876.49	228.04
876.80	228.06
877.11	228.06
877.42	228.07
877.73	228.00
878.04	227.96
878.35	228.05
878.66	227.99
878.96	227.97
879.27	228.02
879.58	228.04
879.89	228.02
880.20	228.08
880.51	228.02
880.82	228.02
881.12	228.09
881.43	228.09
881.74	228.10
882.05	228.18
882.36	228.31
882.67	228.35
882.97	228.18
883.28	228.12
883.59	228.04
883.90	228.06
884.21	228.13
884.51	228.12
884.82	227.94
885.13	228.01
885.44	228.06
885.74	228.10
886.05	228.10
886.36	228.04
886.67	227.92
886.98	228.04
887.28	228.01
887.59	227.98
887.90	227.94
888.20	227.93
888.51	227.89
888.82	227.80
889.13	227.87
889.43	228.10
889.74	228.13
890.05	228.20
890.35	228.19
890.66	228.24
890.97	228.28
891.28	228.36
891.58	228.32
891.89	228.33
892.20	228.35
892.50	228.25
892.81	228.28
893.12	228.28
893.42	228.29
893.73	228.35
894.04	228.36
894.34	228.37
894.65	228.33
894.95	228.33
895.26	228.42
895.57	228.43
895.87	228.11
896.18	228.12
896.48	228.12
896.79	228.14
897.10	228.12
897.40	228.14
897.71	228.11
898.01	228.17
898.32	228.12
898.63	228.03
898.93	228.05
899.24	228.03
899.54	228.06
899.85	228.04
900.15	227.91
900.46	227.86
900.76	227.86
901.07	227.82
901.38	227.82
901.68	227.76
901.99	227.66
902.29	227.71
902.60	227.75
902.90	227.77
903.21	227.69
903.51	227.61
903.82	227.63
904.12	227.66
904.43	227.63
904.73	227.71
905.03	227.78
905.34	227.90
905.64	227.88
905.95	227.88
906.25	227.83
906.56	227.89
906.86	227.94
907.17	227.93
907.47	228.01
907.77	227.97
908.08	227.88
908.38	227.99
908.69	228.02
908.99	228.05
909.30	228.09
909.60	228.10
909.90	228.08
910.21	228.05
910.51	228.00
910.81	228.02
911.12	228.00
911.42	228.04
911.73	227.97
912.03	228.01
912.33	228.14
912.64	228.16
912.94	228.20
913.24	228.18
913.55	228.18
913.85	228.19
914.15	228.29
914.46	228.36
914.76	228.34
915.06	228.30
915.37	228.29
915.67	228.25
915.97	228.28
916.27	228.24
916.58	228.27
916.88	228.32
917.18	228.27
917.49	228.35
917.79	228.27
918.09	228.27
918.39	228.31
918.70	228.20
919.00	228.20
919.30	228.22
919.60	228.19
919.91	228.15
920.21	228.21
920.51	228.12
920.81	228.15
921.12	228.12
921.42	228.23
921.72	228.20
922.02	228.20
922.32	228.20
922.63	228.18
922.93	228.22
923.23	228.19
923.53	228.18
923.83	228.08
924.13	228.09
924.44	228.21
924.74	228.22
925.04	228.34
925.34	228.33
925.64	228.27
925.94	228.31
926.24	228.49
926.55	228.40
926.85	228.47
927.15	228.39
927.45	228.36
927.75	228.35
928.05	228.34
928.35	228.33
928.65	228.40
928.95	228.50
929.26	228.50
929.56	228.54
929.86	228.65
930.16	228.71
930.46	228.69
930.76	228.56
931.06	228.44
931.36	228.38
931.66	228.38
931.96	228.44
932.26	228.38
932.56	228.26
932.86	228.21
933.16	228.21
933.46	228.26
933.76	228.30
934.06	228.31
934.36	228.44
934.66	228.43
934.96	228.42
935.26	228.41
935.56	228.45
935.86	228.38
936.16	228.29
936.46	228.23
936.76	228.35
937.06	228.37
937.36	228.41
937.66	228.46
937.96	228.39
938.26	228.26
938.56	228.32
938.86	228.33
939.16	228.51
939.46	228.54
939.76	228.52
940.06	228.45
940.35	228.46
940.65	228.28
940.95	228.28
941.25	228.16
941.55	228.22
941.85	228.14
942.15	228.19
942.45	228.30
942.75	228.22
943.04	228.21
943.34	228.23
943.64	228.20
943.94	228.08
944.24	228.11
944.54	228.25
944.84	228.26
945.13	228.27
945.43	228.15
945.73	228.07
946.03	228.01
946.33	228.01
946.62	227.96
946.92	227.93
947.22	228.01
947.52	228.09
947.82	227.99
948.11	227.99
948.41	227.93
948.71	227.88
949.01	227.98
949.31	227.93
949.60	227.94
949.90	227.97
950.20	228.05
950.50	228.10
950.79	227.96
951.09	228.00
951.39	227.99
951.69	228.03
951.98	228.04
952.28	228.12
952.58	228.10
952.87	228.10
953.17	228.24
953.47	228.15
953.76	228.14
954.06	228.22
954.36	228.18
954.66	228.25
954.95	228.25
955.25	228.20
955.55	228.16
955.84	228.08
956.14	228.07
956.44	228.08
956.73	228.08
957.03	228.15
957.32	228.08
957.62	228.10
957.92	228.09
958.21	228.16
958.51	228.38
958.81	228.43
959.10	228.31
959.40	228.30
959.69	228.30
959.99	228.30
960.29	228.24
960.58	228.32
960.88	228.44
961.17	228.50
961.47	228.54
961.76	228.47
962.06	228.53
962.36	228.55
962.65	228.54
962.95	228.53
963.24	228.50
963.54	228.44
963.83	228.46
964.13	228.51
964.42	228.29
964.72	228.14
965.01	228.06
965.31	228.15
965.60	228.08
965.90	228.25
966.19	228.19
966.49	228.20
966.78	228.16
967.08	228.07
967.37	227.95
967.67	227.91
967.96	227.92
968.26	227.90
968.55	227.92
968.85	227.88
969.14	227.80
969.43	227.85
969.73	227.94
970.02	227.80
970.32	227.69
970.61	227.81
970.91	227.79
971.20	227.86
971.49	227.85
971.79	227.91
972.08	227.73
972.38	227.77
972.67	227.77
972.96	227.74
973.26	227.60
973.55	227.70
973.85	227.67
974.14	227.82
974.43	227.84
974.73	227.72
975.02	227.69
975.31	227.78
975.61	227.78
975.90	227.71
976.19	227.82
976.49	227.79
976.78	227.75
977.07	227.63
977.37	227.63
977.66	227.67
977.95	227.61
978.24	227.63
978.54	227.81
978.83	227.77
979.12	227.80
979.42	227.92
979.71	227.95
980.00	227.89
980.29	227.84
980.59	227.76
980.88	227.78
981.17	227.74
981.46	227.71
981.76	227.65
982.05	227.69
982.34	227.67
982.63	227.70
982.93	227.73
983.22	227.92
983.51	227.93
983.80	227.95
984.09	228.00
984.39	227.95
984.68	227.87
984.97	227.93
985.26	227.94
985.55	227.96
985.85	227.81
986.14	227.96
986.43	228.00
986.72	228.07
987.01	228.20
987.30	228.23
987.59	228.26
987.89	228.30
988.18	228.28
988.47	228.23
988.76	228.23
989.05	228.34
989.34	228.30
989.63	228.41
989.92	228.35
990.22	228.33
990.51	228.36
990.80	228.30
991.09	228.29
991.38	228.36
991.67	228.37
991.96	228.42
992.25	228.43
992.54	228.40
992.83	228.32
993.12	228.25
993.41	228.37
993.70	228.44
993.99	228.53
994.28	228.50
994.58	228.67
994.87	228.66
995.16	228.59
995.45	228.52
995.74	228.47
996.03	228.53
996.32	228.54
996.61	228.66
996.90	228.73
997.19	228.79
997.48	228.78
997.77	228.74
998.06	228.75
998.34	228.71
998.63	228.72
998.92	228.83
999.21	228.90
999.50	228.87
999.79	228.79
1000.08	228.76
1000.37	228.85
1000.66	228.77
1000.95	228.95
1001.24	228.91
1001.53	228.91
1001.82	228.89
1002.11	228.90
1002.40	228.98
1002.68	228.96
1002.97	229.04
1003.26	228.99
1003.55	228.89
1003.84	228.93
1004.13	228.95
1004.42	229.05
1004.71	229.02
1004.99	228.99
1005.28	229.03
1005.57	229.00
1005.86	228.90
1006.15	228.87
1006.44	228.84
1006.72	228.93
1007.01	228.76
1007.30	228.76
1007.59	228.80
1007.88	228.81
1008.17	228.76
1008.45	228.68
1008.74	228.65
1009.03	228.54
1009.32	228.57
1009.60	228.56
1009.89	228.52
1010.18	228.46
1010.47	228.37
1010.76	228.40
1011.04	228.41
1011.33	228.34
1011.62	228.31
1011.91	228.40
1012.19	228.31
1012.48	228.28
1012.77	228.22
1013.05	228.30
1013.34	228.41
1013.63	228.34
1013.92	228.28
1014.20	228.31
1014.49	228.31
1014.78	228.38
1015.06	228.23
1015.35	228.15
1015.64	228.23
1015.92	228.23
1016.21	228.30
1016.50	228.24
1016.78	228.22
1017.07	228.31
1017.36	228.24
1017.64	228.25
1017.93	228.23
1018.22	228.33
1018.50	228.33
1018.79	228.23
1019.08	228.19
1019.36	228.22
1019.65	228.15
1019.93	228.11
1020.22	228.11
1020.51	228.12
1020.79	228.00
1021.08	228.20
1021.36	227.90
1021.65	226.90
1021.94	228.40
1022.22	230.00
1022.51	226.20
1022.79	226.90
1023.08	228.60
1023.36	228.80
1023.65	227.40
>>>>>End Processed Spectral Data<<<<<
