SpectraSuite Data File
++++++++++++++++++++++++++++++++++++
Date: Fri Feb 01 14:36:42 EST 2013
User: group
Dark Spectrum Present: No
Reference Spectrum Present: No
Number of Sampled Component Spectra: 1
Spectrometers: USB2E7196
Integration Time (usec): 70000 (USB2E7196)
Spectra Averaged: 10 (USB2E7196)
Boxcar Smoothing: 10 (USB2E7196)
Correct for Electrical Dark: No (USB2E7196)
Strobe/Lamp Enabled: No (USB2E7196)
Correct for Detector Non-linearity: No (USB2E7196)
Correct for Stray Light: No (USB2E7196)
Number of Pixels in Processed Spectrum: 2048
>>>>>Begin Processed Spectral Data<<<<<
339.09	0.00
339.48	218.20
339.86	218.80
340.24	221.10
340.63	221.40
341.01	224.60
341.39	222.70
341.78	224.30
342.16	225.70
342.54	227.60
342.93	215.34
343.31	226.30
343.69	226.87
344.07	227.30
344.46	227.67
344.84	228.02
345.22	228.16
345.60	228.37
345.99	228.53
346.37	228.70
346.75	228.83
347.13	229.02
347.52	229.00
347.90	229.10
348.28	229.06
348.66	229.08
349.05	229.03
349.43	229.06
349.81	229.04
350.19	229.15
350.57	229.15
350.96	229.08
351.34	229.07
351.72	228.98
352.10	229.00
352.48	229.00
352.87	229.07
353.25	229.08
353.63	229.18
354.01	229.20
354.39	229.21
354.77	229.19
355.15	229.23
355.54	229.28
355.92	229.18
356.30	229.27
356.68	229.36
357.06	229.44
357.44	229.51
357.82	229.51
358.20	229.50
358.58	229.50
358.97	229.60
359.35	229.65
359.73	229.70
360.11	229.83
360.49	229.90
360.87	229.89
361.25	229.98
361.63	230.09
362.01	230.21
362.39	230.24
362.77	230.25
363.15	230.21
363.53	230.22
363.91	230.27
364.29	230.21
364.67	230.07
365.05	230.11
365.43	229.94
365.81	230.02
366.19	230.07
366.57	230.21
366.95	230.13
367.33	230.05
367.71	230.09
368.09	230.01
368.47	229.98
368.85	229.85
369.23	229.81
369.61	229.74
369.99	229.70
370.37	229.69
370.75	229.69
371.13	229.56
371.51	229.40
371.89	229.47
372.27	229.49
372.65	229.45
373.03	229.31
373.41	229.32
373.78	229.19
374.16	229.03
374.54	228.86
374.92	228.86
375.30	228.74
375.68	228.65
376.06	228.58
376.44	228.44
376.82	228.53
377.19	228.55
377.57	228.40
377.95	228.22
378.33	228.10
378.71	227.97
379.09	227.97
379.47	228.05
379.84	227.90
380.22	227.81
380.60	227.70
380.98	227.55
381.36	227.53
381.73	227.45
382.11	227.36
382.49	227.28
382.87	227.06
383.25	227.04
383.62	227.10
384.00	227.01
384.38	226.99
384.76	226.85
385.13	226.72
385.51	226.70
385.89	226.71
386.27	226.67
386.64	226.67
387.02	226.55
387.40	226.39
387.78	226.37
388.15	226.30
388.53	226.21
388.91	226.19
389.29	226.17
389.66	226.19
390.04	226.13
390.42	226.08
390.79	226.08
391.17	226.00
391.55	225.86
391.92	225.88
392.30	225.83
392.68	225.85
393.05	225.96
393.43	225.94
393.81	225.99
394.18	226.04
394.56	225.97
394.94	226.10
395.31	226.15
395.69	226.18
396.06	226.25
396.44	226.32
396.82	226.49
397.19	226.58
397.57	226.62
397.95	226.70
398.32	226.82
398.70	226.94
399.07	227.10
399.45	227.15
399.82	227.16
400.20	227.22
400.58	227.35
400.95	227.30
401.33	227.41
401.70	227.60
402.08	227.69
402.45	227.91
402.83	228.13
403.20	228.26
403.58	228.37
403.95	228.67
404.33	228.87
404.71	229.02
405.08	229.37
405.46	229.62
405.83	229.85
406.21	230.14
406.58	230.45
406.96	230.74
407.33	231.04
407.70	231.36
408.08	231.89
408.45	232.20
408.83	232.66
409.20	233.05
409.58	233.31
409.95	233.72
410.33	234.19
410.70	234.55
411.08	235.08
411.45	235.76
411.82	236.26
412.20	237.02
412.57	237.78
412.95	238.31
413.32	239.13
413.69	239.91
414.07	240.71
414.44	241.68
414.82	242.57
415.19	243.62
415.56	244.80
415.94	245.80
416.31	247.02
416.68	248.21
417.06	249.71
417.43	251.15
417.81	252.67
418.18	254.09
418.55	255.77
418.93	257.46
419.30	259.07
419.67	260.89
420.04	262.70
420.42	264.57
420.79	266.91
421.16	269.24
421.54	271.83
421.91	274.28
422.28	276.74
422.66	279.45
423.03	282.17
423.40	284.86
423.77	287.89
424.15	290.89
424.52	294.11
424.89	297.48
425.26	300.57
425.64	303.64
426.01	307.13
426.38	310.60
426.75	314.24
427.13	318.07
427.50	321.97
427.87	326.18
428.24	330.42
428.61	334.20
428.99	338.36
429.36	342.90
429.73	347.49
430.10	351.91
430.47	356.54
430.85	361.21
431.22	366.19
431.59	371.51
431.96	376.58
432.33	382.04
432.70	387.38
433.08	393.82
433.45	399.67
433.82	405.62
434.19	412.47
434.56	418.80
434.93	424.90
435.30	431.10
435.68	437.63
436.05	444.35
436.42	450.82
436.79	456.85
437.16	463.20
437.53	470.12
437.90	476.91
438.27	483.64
438.64	490.58
439.01	496.99
439.38	502.54
439.75	508.01
440.13	514.26
440.50	520.18
440.87	524.97
441.24	530.36
441.61	536.00
441.98	540.20
442.35	545.36
442.72	550.52
443.09	555.43
443.46	558.79
443.83	560.84
444.20	562.93
444.57	565.77
444.94	567.45
445.31	568.85
445.68	570.66
446.05	571.64
446.42	571.70
446.79	571.57
447.16	571.62
447.53	571.72
447.90	570.01
448.27	568.21
448.64	565.42
449.01	563.63
449.37	559.92
449.74	555.96
450.11	551.27
450.48	546.10
450.85	540.91
451.22	536.49
451.59	532.37
451.96	528.65
452.33	523.10
452.70	518.03
453.07	512.04
453.43	505.78
453.80	499.88
454.17	493.93
454.54	488.47
454.91	482.33
455.28	476.46
455.65	471.16
456.02	465.62
456.38	460.92
456.75	454.86
457.12	449.81
457.49	445.06
457.86	440.40
458.23	436.31
458.59	431.74
458.96	426.94
459.33	422.78
459.70	418.52
460.07	415.09
460.43	411.24
460.80	407.45
461.17	404.18
461.54	400.60
461.91	397.42
462.27	394.02
462.64	391.18
463.01	388.17
463.38	385.05
463.74	381.95
464.11	379.32
464.48	376.96
464.85	374.48
465.21	372.33
465.58	370.22
465.95	367.67
466.32	365.57
466.68	363.50
467.05	361.45
467.42	359.32
467.78	357.12
468.15	355.17
468.52	353.68
468.88	351.78
469.25	349.97
469.62	348.45
469.98	346.95
470.35	345.39
470.72	343.79
471.08	342.13
471.45	340.95
471.82	339.64
472.18	338.26
472.55	337.01
472.92	335.80
473.28	334.49
473.65	333.34
474.02	332.19
474.38	331.26
474.75	330.45
475.11	329.50
475.48	328.72
475.85	327.89
476.21	327.21
476.58	326.53
476.94	326.10
477.31	325.55
477.67	324.89
478.04	324.55
478.41	324.28
478.77	324.04
479.14	323.49
479.50	323.00
479.87	322.59
480.23	322.42
480.60	322.02
480.96	321.77
481.33	321.61
481.69	321.50
482.06	321.23
482.42	321.06
482.79	321.05
483.15	321.12
483.52	321.22
483.88	321.22
484.25	321.15
484.61	321.13
484.98	321.17
485.34	321.45
485.71	321.58
486.07	321.87
486.44	322.06
486.80	322.41
487.17	322.88
487.53	323.44
487.90	323.80
488.26	324.44
488.62	325.13
488.99	325.69
489.35	326.30
489.72	327.00
490.08	327.50
490.44	328.22
490.81	328.95
491.17	329.56
491.54	330.43
491.90	331.26
492.26	332.25
492.63	333.08
492.99	333.99
493.36	335.15
493.72	336.06
494.08	337.05
494.45	338.18
494.81	339.31
495.17	340.49
495.54	341.68
495.90	342.83
496.26	344.05
496.63	345.26
496.99	346.40
497.35	347.67
497.72	349.16
498.08	350.45
498.44	351.71
498.80	353.23
499.17	354.51
499.53	355.84
499.89	357.09
500.26	358.47
500.62	359.81
500.98	361.07
501.34	362.37
501.71	363.72
502.07	364.90
502.43	366.10
502.79	367.10
503.16	368.20
503.52	369.40
503.88	370.24
504.24	371.33
504.60	372.45
504.97	373.55
505.33	374.50
505.69	375.50
506.05	376.45
506.41	377.31
506.78	378.09
507.14	378.89
507.50	379.67
507.86	380.52
508.22	381.17
508.59	381.59
508.95	382.29
509.31	382.94
509.67	383.60
510.03	384.16
510.39	384.83
510.75	385.31
511.12	385.71
511.48	386.30
511.84	386.72
512.20	386.96
512.56	387.30
512.92	387.61
513.28	387.82
513.64	388.14
514.00	388.34
514.37	388.51
514.73	388.96
515.09	389.09
515.45	389.28
515.81	389.36
516.17	389.58
516.53	389.62
516.89	389.70
517.25	389.73
517.61	389.82
517.97	389.91
518.33	390.08
518.69	390.12
519.05	390.14
519.41	390.38
519.77	390.73
520.13	390.85
520.49	390.96
520.85	391.06
521.21	391.36
521.57	391.68
521.93	392.02
522.29	392.27
522.65	392.68
523.01	392.92
523.37	393.31
523.73	393.95
524.09	394.42
524.45	394.96
524.81	395.66
525.17	396.50
525.53	397.35
525.89	398.04
526.25	399.03
526.61	399.94
526.97	400.78
527.33	401.70
527.68	402.75
528.04	403.97
528.40	405.26
528.76	406.56
529.12	407.77
529.48	409.21
529.84	410.42
530.20	411.83
530.56	413.63
530.91	415.61
531.27	417.38
531.63	419.10
531.99	421.02
532.35	422.88
532.71	424.79
533.07	426.88
533.42	429.25
533.78	431.54
534.14	433.84
534.50	436.22
534.86	438.83
535.21	441.37
535.57	443.84
535.93	446.48
536.29	449.10
536.65	452.07
537.00	454.96
537.36	457.96
537.72	461.05
538.08	463.99
538.44	467.01
538.79	470.03
539.15	473.25
539.51	476.56
539.87	480.04
540.22	483.47
540.58	486.89
540.94	490.34
541.29	493.59
541.65	497.32
542.01	501.07
542.37	504.68
542.72	508.43
543.08	512.24
543.44	516.09
543.79	519.67
544.15	523.36
544.51	527.34
544.87	531.39
545.22	535.51
545.58	539.45
545.94	543.24
546.29	547.30
546.65	551.72
547.01	555.62
547.36	559.82
547.72	563.83
548.07	567.97
548.43	571.91
548.79	576.32
549.14	580.35
549.50	584.41
549.86	588.55
550.21	592.67
550.57	597.04
550.92	601.27
551.28	605.69
551.64	610.09
551.99	614.27
552.35	618.41
552.70	622.63
553.06	627.07
553.41	631.59
553.77	635.99
554.13	640.18
554.48	644.72
554.84	648.92
555.19	653.31
555.55	657.57
555.90	662.10
556.26	666.19
556.61	670.70
556.97	674.93
557.32	679.25
557.68	683.69
558.03	687.99
558.39	692.23
558.74	696.55
559.10	700.88
559.45	705.19
559.81	709.78
560.16	713.83
560.52	717.98
560.87	721.99
561.23	725.82
561.58	729.92
561.94	733.75
562.29	737.55
562.64	741.26
563.00	745.13
563.35	748.93
563.71	753.14
564.06	757.09
564.42	760.75
564.77	764.63
565.12	768.46
565.48	772.29
565.83	775.52
566.19	779.18
566.54	782.68
566.89	786.02
567.25	789.17
567.60	792.79
567.96	796.17
568.31	799.64
568.66	803.00
569.02	805.95
569.37	809.17
569.72	812.57
570.08	815.59
570.43	818.56
570.78	821.39
571.14	824.07
571.49	826.53
571.84	829.74
572.20	832.50
572.55	835.00
572.90	836.93
573.26	839.89
573.61	842.31
573.96	844.41
574.31	846.46
574.67	848.14
575.02	849.83
575.37	851.48
575.72	852.77
576.08	854.52
576.43	856.29
576.78	858.16
577.13	859.65
577.49	861.40
577.84	862.78
578.19	864.22
578.54	865.40
578.90	866.61
579.25	867.29
579.60	867.86
579.95	868.60
580.30	869.42
580.66	869.99
581.01	870.66
581.36	871.32
581.71	872.01
582.06	873.21
582.42	873.76
582.77	874.30
583.12	874.92
583.47	875.36
583.82	875.97
584.17	876.09
584.53	876.25
584.88	876.34
585.23	876.79
585.58	877.00
585.93	877.19
586.28	877.57
586.63	877.98
586.98	878.08
587.34	878.34
587.69	878.79
588.04	878.80
588.39	878.76
588.74	878.47
589.09	878.45
589.44	877.91
589.79	877.64
590.14	877.73
590.49	877.48
590.84	877.02
591.19	876.48
591.54	875.64
591.89	874.76
592.25	874.14
592.60	873.07
592.95	872.05
593.30	870.97
593.65	869.81
594.00	868.76
594.35	868.42
594.70	867.09
595.05	865.85
595.40	864.78
595.75	863.68
596.10	862.85
596.45	862.01
596.80	861.03
597.15	860.26
597.50	858.69
597.85	857.76
598.19	856.78
598.54	855.78
598.89	854.87
599.24	854.14
599.59	852.88
599.94	852.07
600.29	850.83
600.64	849.68
600.99	847.87
601.34	846.65
601.69	844.83
602.04	843.47
602.39	842.01
602.74	840.90
603.08	839.65
603.43	838.30
603.78	836.46
604.13	835.06
604.48	833.36
604.83	832.18
605.18	830.71
605.53	828.88
605.87	826.44
606.22	824.64
606.57	822.89
606.92	821.08
607.27	819.43
607.62	818.02
607.96	816.36
608.31	815.27
608.66	813.02
609.01	810.88
609.36	808.83
609.70	806.66
610.05	804.17
610.40	801.81
610.75	799.51
611.10	797.28
611.44	794.60
611.79	792.54
612.14	789.84
612.49	787.10
612.83	784.70
613.18	782.90
613.53	780.35
613.88	777.67
614.22	775.28
614.57	772.11
614.92	769.39
615.27	767.02
615.61	763.99
615.96	761.53
616.31	759.23
616.65	757.16
617.00	754.75
617.35	752.55
617.70	750.02
618.04	747.33
618.39	744.87
618.74	742.75
619.08	739.58
619.43	737.33
619.78	734.93
620.12	732.44
620.47	729.59
620.82	726.93
621.16	724.36
621.51	721.94
621.85	719.63
622.20	717.08
622.55	714.33
622.89	712.04
623.24	709.77
623.59	707.13
623.93	704.68
624.28	702.52
624.62	699.94
624.97	697.68
625.32	695.40
625.66	692.95
626.01	690.14
626.35	687.90
626.70	685.28
627.04	682.90
627.39	680.30
627.73	677.86
628.08	675.50
628.43	672.96
628.77	670.20
629.12	667.55
629.46	664.96
629.81	662.28
630.15	659.68
630.50	656.91
630.84	654.14
631.19	651.16
631.53	648.19
631.88	645.20
632.22	642.14
632.57	639.53
632.91	636.79
633.26	634.20
633.60	631.58
633.95	628.93
634.29	626.19
634.64	623.86
634.98	621.20
635.32	618.58
635.67	616.33
636.01	613.99
636.36	611.50
636.70	609.15
637.05	606.92
637.39	604.50
637.73	602.32
638.08	600.34
638.42	598.18
638.77	595.96
639.11	593.70
639.45	591.41
639.80	588.84
640.14	586.54
640.49	584.11
640.83	581.82
641.17	579.53
641.52	577.38
641.86	574.76
642.20	572.82
642.55	570.57
642.89	568.16
643.23	565.85
643.58	563.71
643.92	561.22
644.26	558.71
644.61	556.46
644.95	554.06
645.29	551.37
645.64	548.90
645.98	546.52
646.32	544.26
646.66	541.91
647.01	539.53
647.35	537.30
647.69	535.13
648.04	532.94
648.38	530.66
648.72	528.07
649.06	525.67
649.41	523.09
649.75	520.71
650.09	518.53
650.43	516.11
650.78	513.50
651.12	511.30
651.46	509.12
651.80	506.80
652.14	504.46
652.49	502.36
652.83	500.13
653.17	497.90
653.51	495.59
653.85	493.38
654.20	491.35
654.54	488.81
654.88	486.47
655.22	484.07
655.56	481.62
655.90	479.31
656.25	477.41
656.59	475.17
656.93	473.24
657.27	470.94
657.61	468.78
657.95	467.20
658.29	464.97
658.64	462.85
658.98	460.60
659.32	458.40
659.66	456.42
660.00	454.28
660.34	452.09
660.68	450.06
661.02	447.83
661.36	445.76
661.70	443.92
662.05	442.16
662.39	440.31
662.73	438.57
663.07	436.92
663.41	434.89
663.75	433.15
664.09	431.26
664.43	429.15
664.77	427.49
665.11	425.27
665.45	423.50
665.79	421.67
666.13	419.90
666.47	418.07
666.81	415.95
667.15	414.06
667.49	412.31
667.83	410.66
668.17	409.00
668.51	407.22
668.85	405.42
669.19	403.70
669.53	401.94
669.87	400.12
670.21	398.53
670.55	396.83
670.89	395.36
671.23	393.70
671.57	392.31
671.91	390.67
672.25	389.15
672.58	387.76
672.92	386.27
673.26	384.96
673.60	383.68
673.94	382.51
674.28	381.36
674.62	380.22
674.96	378.74
675.30	377.51
675.64	376.21
675.97	374.99
676.31	373.60
676.65	372.35
676.99	371.17
677.33	369.73
677.67	368.59
678.01	367.05
678.34	365.80
678.68	364.56
679.02	363.35
679.36	362.09
679.70	360.90
680.04	359.65
680.37	358.36
680.71	357.03
681.05	355.88
681.39	354.53
681.73	353.33
682.06	352.22
682.40	351.04
682.74	350.00
683.08	349.04
683.42	347.78
683.75	346.74
684.09	345.64
684.43	344.60
684.77	343.46
685.10	342.49
685.44	341.47
685.78	340.37
686.12	339.32
686.45	338.42
686.79	337.36
687.13	336.41
687.46	335.31
687.80	334.37
688.14	333.13
688.48	332.12
688.81	330.95
689.15	329.98
689.49	329.02
689.82	327.86
690.16	326.79
690.50	326.04
690.83	325.00
691.17	324.01
691.51	322.91
691.84	321.95
692.18	320.97
692.52	319.85
692.85	318.95
693.19	318.04
693.52	317.00
693.86	315.87
694.20	314.86
694.53	313.99
694.87	312.98
695.21	312.19
695.54	311.24
695.88	310.35
696.21	309.50
696.55	308.56
696.88	307.80
697.22	306.95
697.56	306.07
697.89	305.29
698.23	304.26
698.56	303.46
698.90	302.68
699.23	301.80
699.57	301.10
699.90	300.07
700.24	299.15
700.58	298.26
700.91	297.50
701.25	296.85
701.58	296.30
701.92	295.65
702.25	294.86
702.59	294.25
702.92	293.66
703.26	292.93
703.59	292.36
703.93	291.80
704.26	291.10
704.60	290.32
704.93	289.45
705.26	289.06
705.60	288.48
705.93	287.83
706.27	287.27
706.60	286.74
706.94	286.30
707.27	285.68
707.61	285.18
707.94	284.72
708.27	283.96
708.61	283.13
708.94	282.60
709.28	282.04
709.61	281.52
709.94	280.95
710.28	280.45
710.61	279.86
710.95	279.16
711.28	278.67
711.61	278.13
711.95	277.77
712.28	277.10
712.61	276.62
712.95	276.15
713.28	275.71
713.61	275.07
713.95	274.56
714.28	274.10
714.61	273.61
714.95	273.08
715.28	272.47
715.61	272.06
715.95	271.52
716.28	271.13
716.61	270.62
716.95	270.17
717.28	269.62
717.61	269.20
717.94	268.78
718.28	268.20
718.61	267.91
718.94	267.45
719.27	266.99
719.61	266.49
719.94	266.08
720.27	265.54
720.60	265.26
720.94	264.93
721.27	264.51
721.60	264.22
721.93	263.77
722.27	263.70
722.60	263.30
722.93	262.89
723.26	262.54
723.59	262.18
723.93	261.87
724.26	261.62
724.59	261.32
724.92	261.00
725.25	260.70
725.59	260.22
725.92	259.89
726.25	259.61
726.58	259.31
726.91	259.04
727.24	258.85
727.57	258.58
727.91	258.17
728.24	257.90
728.57	257.53
728.90	257.31
729.23	256.90
729.56	256.69
729.89	256.42
730.22	256.04
730.55	255.71
730.89	255.37
731.22	254.99
731.55	254.66
731.88	254.30
732.21	254.02
732.54	253.82
732.87	253.46
733.20	253.18
733.53	252.83
733.86	252.48
734.19	252.16
734.52	251.75
734.85	251.59
735.18	251.27
735.51	251.17
735.84	250.91
736.17	250.72
736.50	250.34
736.83	250.37
737.16	250.10
737.49	249.83
737.82	249.52
738.15	249.26
738.48	248.84
738.81	248.62
739.14	248.36
739.47	247.97
739.80	247.80
740.13	247.68
740.46	247.52
740.79	247.25
741.12	247.02
741.45	246.90
741.78	246.58
742.11	246.45
742.44	246.04
742.77	245.85
743.10	245.55
743.43	245.29
743.75	244.68
744.08	244.85
744.41	244.70
744.74	244.53
745.07	244.34
745.40	244.16
745.73	244.06
746.06	244.00
746.39	244.01
746.71	243.84
747.04	243.61
747.37	243.40
747.70	243.23
748.03	243.06
748.36	242.87
748.68	242.78
749.01	242.60
749.34	242.50
749.67	242.27
750.00	242.12
750.33	242.23
750.65	242.22
750.98	241.72
751.31	241.63
751.64	241.40
751.97	241.42
752.29	241.47
752.62	241.31
752.95	241.04
753.28	240.90
753.60	240.84
753.93	240.78
754.26	240.73
754.59	240.64
754.91	240.50
755.24	240.34
755.57	240.14
755.90	239.94
756.22	239.79
756.55	239.70
756.88	239.49
757.20	239.23
757.53	239.04
757.86	238.98
758.19	238.89
758.51	238.83
758.84	238.63
759.17	238.52
759.49	238.47
759.82	238.54
760.15	238.48
760.47	238.41
760.80	238.15
761.13	238.09
761.45	237.97
761.78	237.92
762.11	237.90
762.43	237.96
762.76	237.98
763.08	237.95
763.41	237.92
763.74	237.99
764.06	238.01
764.39	237.93
764.71	237.92
765.04	237.82
765.37	237.78
765.69	237.71
766.02	237.62
766.34	237.55
766.67	237.43
767.00	237.45
767.32	237.35
767.65	237.43
767.97	237.39
768.30	237.34
768.62	237.24
768.95	237.08
769.27	236.80
769.60	236.67
769.92	236.61
770.25	236.46
770.57	236.32
770.90	236.19
771.22	236.20
771.55	236.04
771.87	235.85
772.20	235.73
772.52	235.79
772.85	235.90
773.17	235.75
773.50	235.59
773.82	235.35
774.15	235.17
774.47	235.05
774.80	234.94
775.12	234.86
775.45	234.80
775.77	234.70
776.09	234.77
776.42	234.67
776.74	234.65
777.07	234.57
777.39	234.49
777.72	234.43
778.04	234.37
778.36	234.38
778.69	234.33
779.01	234.32
779.33	234.10
779.66	233.86
779.98	233.67
780.31	233.56
780.63	233.56
780.95	233.53
781.28	233.48
781.60	233.37
781.92	233.25
782.25	233.24
782.57	233.28
782.89	233.18
783.22	233.16
783.54	233.09
783.86	233.13
784.19	233.05
784.51	232.99
784.83	232.85
785.16	232.71
785.48	232.68
785.80	232.58
786.12	232.53
786.45	232.37
786.77	232.41
787.09	232.32
787.42	232.25
787.74	232.27
788.06	232.17
788.38	232.07
788.71	232.05
789.03	231.99
789.35	231.99
789.67	231.86
789.99	231.82
790.32	231.69
790.64	231.61
790.96	231.77
791.28	231.65
791.61	231.66
791.93	231.60
792.25	231.59
792.57	231.76
792.89	231.49
793.21	231.59
793.54	231.55
793.86	231.53
794.18	231.56
794.50	231.40
794.82	231.36
795.14	231.45
795.47	231.47
795.79	231.44
796.11	231.30
796.43	231.33
796.75	231.30
797.07	231.23
797.39	231.20
797.71	231.03
798.04	231.15
798.36	231.20
798.68	231.17
799.00	231.25
799.32	231.10
799.64	231.34
799.96	231.27
800.28	231.33
800.60	231.37
800.92	231.32
801.24	231.37
801.56	231.38
801.89	231.35
802.21	231.36
802.53	231.25
802.85	231.27
803.17	231.33
803.49	231.32
803.81	231.32
804.13	231.32
804.45	231.29
804.77	231.19
805.09	231.10
805.41	231.16
805.73	230.99
806.05	230.99
806.37	230.98
806.69	230.91
807.01	230.78
807.33	230.83
807.65	230.71
807.97	230.72
808.28	230.71
808.60	230.63
808.92	230.64
809.24	230.77
809.56	230.66
809.88	230.43
810.20	230.36
810.52	230.35
810.84	230.31
811.16	230.25
811.48	230.26
811.80	230.28
812.12	230.19
812.43	230.23
812.75	230.11
813.07	230.02
813.39	230.08
813.71	230.08
814.03	229.90
814.35	229.92
814.67	229.83
814.98	229.72
815.30	229.70
815.62	229.57
815.94	229.36
816.26	229.50
816.58	229.61
816.89	229.63
817.21	229.57
817.53	229.46
817.85	229.61
818.17	229.52
818.48	229.44
818.80	229.44
819.12	229.35
819.44	229.33
819.76	229.34
820.07	229.26
820.39	229.18
820.71	229.30
821.03	229.27
821.34	229.30
821.66	229.36
821.98	229.33
822.30	229.27
822.61	229.49
822.93	229.40
823.25	229.30
823.57	229.23
823.88	229.27
824.20	229.32
824.52	229.27
824.83	229.27
825.15	229.30
825.47	229.31
825.79	229.40
826.10	229.40
826.42	229.40
826.74	229.41
827.05	229.44
827.37	229.46
827.69	229.43
828.00	229.34
828.32	229.32
828.64	229.33
828.95	229.43
829.27	229.22
829.58	229.26
829.90	229.23
830.22	229.28
830.53	229.20
830.85	229.17
831.17	229.00
831.48	228.88
831.80	228.81
832.11	228.72
832.43	228.63
832.75	228.64
833.06	228.76
833.38	228.71
833.69	228.77
834.01	228.72
834.32	228.73
834.64	228.75
834.96	228.80
835.27	228.79
835.59	228.73
835.90	228.81
836.22	228.80
836.53	228.81
836.85	228.78
837.16	228.95
837.48	228.93
837.79	229.09
838.11	229.17
838.42	229.11
838.74	229.19
839.05	229.21
839.37	229.11
839.68	228.94
840.00	228.90
840.31	228.92
840.63	228.85
840.94	228.83
841.26	228.81
841.57	228.70
841.88	228.64
842.20	228.61
842.51	228.58
842.83	228.53
843.14	228.78
843.46	228.84
843.77	228.71
844.08	228.79
844.40	228.72
844.71	228.76
845.03	228.76
845.34	228.76
845.65	228.76
845.97	228.76
846.28	228.78
846.60	228.88
846.91	228.80
847.22	228.82
847.54	228.82
847.85	228.86
848.16	228.89
848.48	228.88
848.79	228.84
849.10	228.85
849.42	228.80
849.73	228.55
850.04	228.43
850.36	228.36
850.67	228.32
850.98	228.20
851.30	228.13
851.61	228.08
851.92	228.05
852.23	228.09
852.55	228.10
852.86	227.95
853.17	227.89
853.49	227.90
853.80	227.92
854.11	227.86
854.42	227.80
854.74	227.82
855.05	227.81
855.36	227.80
855.67	227.73
855.99	227.70
856.30	227.84
856.61	227.80
856.92	227.78
857.23	227.84
857.55	227.93
857.86	227.85
858.17	228.02
858.48	227.95
858.79	227.91
859.11	228.00
859.42	228.18
859.73	228.15
860.04	228.20
860.35	228.11
860.66	228.17
860.98	228.33
861.29	228.33
861.60	228.21
861.91	228.35
862.22	228.39
862.53	228.38
862.84	228.25
863.16	228.44
863.47	228.40
863.78	228.31
864.09	228.36
864.40	228.47
864.71	228.36
865.02	228.41
865.33	228.44
865.64	228.45
865.95	228.38
866.27	228.56
866.58	228.47
866.89	228.62
867.20	228.56
867.51	228.48
867.82	228.50
868.13	228.72
868.44	228.58
868.75	228.71
869.06	228.85
869.37	228.95
869.68	228.85
869.99	229.01
870.30	229.06
870.61	229.00
870.92	228.99
871.23	229.04
871.54	229.06
871.85	229.11
872.16	229.11
872.47	229.12
872.78	229.00
873.09	229.08
873.40	228.88
873.71	228.92
874.02	228.86
874.33	228.86
874.64	228.84
874.95	228.82
875.26	228.68
875.56	228.63
875.87	228.50
876.18	228.40
876.49	228.59
876.80	228.64
877.11	228.60
877.42	228.60
877.73	228.69
878.04	228.65
878.35	228.53
878.66	228.57
878.96	228.55
879.27	228.48
879.58	228.50
879.89	228.67
880.20	228.72
880.51	228.79
880.82	228.70
881.12	228.63
881.43	228.69
881.74	228.69
882.05	228.70
882.36	228.80
882.67	228.88
882.97	228.61
883.28	228.54
883.59	228.46
883.90	228.49
884.21	228.39
884.51	228.48
884.82	228.42
885.13	228.42
885.44	228.42
885.74	228.40
886.05	228.36
886.36	228.32
886.67	228.22
886.98	228.27
887.28	228.39
887.59	228.45
887.90	228.32
888.20	228.30
888.51	228.31
888.82	228.21
889.13	228.21
889.43	228.34
889.74	228.37
890.05	228.47
890.35	228.40
890.66	228.41
890.97	228.29
891.28	228.43
891.58	228.25
891.89	228.26
892.20	228.29
892.50	228.20
892.81	228.21
893.12	228.28
893.42	228.10
893.73	228.00
894.04	228.04
894.34	228.20
894.65	228.27
894.95	228.25
895.26	228.18
895.57	228.29
895.87	228.13
896.18	228.13
896.48	228.17
896.79	228.25
897.10	228.26
897.40	228.40
897.71	228.33
898.01	228.45
898.32	228.52
898.63	228.50
898.93	228.54
899.24	228.51
899.54	228.48
899.85	228.56
900.15	228.53
900.46	228.53
900.76	228.52
901.07	228.36
901.38	228.29
901.68	228.43
901.99	228.33
902.29	228.29
902.60	228.21
902.90	228.15
903.21	228.05
903.51	228.05
903.82	228.01
904.12	228.00
904.43	227.95
904.73	228.02
905.03	227.99
905.34	228.20
905.64	228.20
905.95	228.19
906.25	228.21
906.56	228.30
906.86	228.27
907.17	228.30
907.47	228.40
907.77	228.43
908.08	228.38
908.38	228.48
908.69	228.53
908.99	228.60
909.30	228.65
909.60	228.71
909.90	228.68
910.21	228.56
910.51	228.55
910.81	228.57
911.12	228.40
911.42	228.47
911.73	228.32
912.03	228.27
912.33	228.27
912.64	228.22
912.94	228.21
913.24	228.11
913.55	228.11
913.85	227.97
914.15	228.02
914.46	228.04
914.76	228.00
915.06	228.03
915.37	228.02
915.67	227.99
915.97	227.90
916.27	227.82
916.58	227.84
916.88	227.89
917.18	227.89
917.49	228.01
917.79	227.93
918.09	227.89
918.39	227.99
918.70	228.02
919.00	228.02
919.30	227.97
919.60	228.08
919.91	227.91
920.21	228.06
920.51	227.98
920.81	228.00
921.12	228.00
921.42	227.89
921.72	227.86
922.02	227.85
922.32	227.95
922.63	228.02
922.93	228.17
923.23	228.04
923.53	228.08
923.83	227.91
924.13	227.94
924.44	227.99
924.74	228.03
925.04	228.00
925.34	228.06
925.64	228.02
925.94	228.01
926.24	228.18
926.55	228.09
926.85	228.07
927.15	228.10
927.45	228.02
927.75	228.05
928.05	228.08
928.35	228.08
928.65	228.16
928.95	228.11
929.26	228.04
929.56	228.16
929.86	228.15
930.16	228.26
930.46	228.26
930.76	228.17
931.06	228.09
931.36	228.02
931.66	227.95
931.96	228.03
932.26	227.96
932.56	227.83
932.86	227.94
933.16	227.98
933.46	227.95
933.76	227.95
934.06	228.12
934.36	228.17
934.66	228.07
934.96	228.02
935.26	228.03
935.56	228.06
935.86	228.04
936.16	227.97
936.46	227.84
936.76	227.83
937.06	227.82
937.36	227.84
937.66	227.89
937.96	227.87
938.26	227.74
938.56	227.70
938.86	227.73
939.16	227.67
939.46	227.76
939.76	227.66
940.06	227.57
940.35	227.38
940.65	227.22
940.95	227.35
941.25	227.28
941.55	227.30
941.85	227.21
942.15	227.20
942.45	227.34
942.75	227.45
943.04	227.46
943.34	227.52
943.64	227.55
943.94	227.60
944.24	227.62
944.54	227.74
944.84	227.73
945.13	227.70
945.43	227.72
945.73	227.67
946.03	227.63
946.33	227.76
946.62	227.80
946.92	227.90
947.22	227.89
947.52	227.92
947.82	228.06
948.11	228.16
948.41	228.11
948.71	228.00
949.01	227.96
949.31	228.03
949.60	228.05
949.90	228.00
950.20	227.84
950.50	228.01
950.79	228.05
951.09	228.15
951.39	228.23
951.69	228.20
951.98	228.20
952.28	228.33
952.58	228.32
952.87	228.38
953.17	228.37
953.47	228.29
953.76	228.28
954.06	228.20
954.36	228.11
954.66	228.16
954.95	228.22
955.25	228.19
955.55	228.04
955.84	228.00
956.14	227.91
956.44	228.07
956.73	227.99
957.03	227.87
957.32	227.81
957.62	227.80
957.92	227.89
958.21	227.85
958.51	227.99
958.81	227.91
959.10	227.84
959.40	227.82
959.69	227.78
959.99	227.83
960.29	227.76
960.58	227.74
960.88	227.76
961.17	227.68
961.47	227.77
961.76	227.81
962.06	227.78
962.36	227.81
962.65	227.79
962.95	227.71
963.24	227.66
963.54	227.73
963.83	227.67
964.13	227.60
964.42	227.51
964.72	227.40
965.01	227.51
965.31	227.57
965.60	227.55
965.90	227.87
966.19	227.74
966.49	227.76
966.78	227.67
967.08	227.74
967.37	227.79
967.67	227.73
967.96	227.73
968.26	227.82
968.55	227.90
968.85	227.90
969.14	227.90
969.43	227.98
969.73	227.95
970.02	228.09
970.32	228.13
970.61	228.22
970.91	228.12
971.20	228.04
971.49	228.06
971.79	228.09
972.08	227.79
972.38	227.94
972.67	227.94
972.96	228.12
973.26	228.05
973.55	228.19
973.85	228.22
974.14	228.21
974.43	228.23
974.73	228.22
975.02	228.17
975.31	228.26
975.61	228.32
975.90	228.40
976.19	228.29
976.49	228.34
976.78	228.36
977.07	228.41
977.37	228.47
977.66	228.52
977.95	228.57
978.24	228.70
978.54	228.66
978.83	228.71
979.12	228.68
979.42	228.72
979.71	228.61
980.00	228.58
980.29	228.64
980.59	228.63
980.88	228.64
981.17	228.80
981.46	228.71
981.76	228.77
982.05	228.74
982.34	228.78
982.63	228.78
982.93	228.82
983.22	228.97
983.51	229.02
983.80	229.00
984.09	228.90
984.39	228.80
984.68	228.77
984.97	228.73
985.26	228.83
985.55	228.75
985.85	228.69
986.14	228.68
986.43	228.81
986.72	228.75
987.01	228.69
987.30	228.65
987.59	228.67
987.89	228.66
988.18	228.58
988.47	228.57
988.76	228.40
989.05	228.31
989.34	228.30
989.63	228.26
989.92	228.19
990.22	228.30
990.51	228.29
990.80	228.36
991.09	228.37
991.38	228.25
991.67	228.30
991.96	228.33
992.25	228.47
992.54	228.30
992.83	228.30
993.12	228.33
993.41	228.24
993.70	228.24
993.99	228.20
994.28	228.27
994.58	228.30
994.87	228.31
995.16	228.41
995.45	228.24
995.74	228.22
996.03	228.25
996.32	228.27
996.61	228.30
996.90	228.20
997.19	228.20
997.48	228.20
997.77	228.14
998.06	228.13
998.34	227.90
998.63	227.93
998.92	227.91
999.21	227.92
999.50	228.00
999.79	228.05
1000.08	228.09
1000.37	228.07
1000.66	228.02
1000.95	228.10
1001.24	228.11
1001.53	228.16
1001.82	228.13
1002.11	228.05
1002.40	228.00
1002.68	228.13
1002.97	228.24
1003.26	228.15
1003.55	228.20
1003.84	228.30
1004.13	228.37
1004.42	228.49
1004.71	228.49
1004.99	228.47
1005.28	228.51
1005.57	228.46
1005.86	228.39
1006.15	228.35
1006.44	228.29
1006.72	228.31
1007.01	228.26
1007.30	228.22
1007.59	228.14
1007.88	228.19
1008.17	228.39
1008.45	228.41
1008.74	228.33
1009.03	228.26
1009.32	228.38
1009.60	228.33
1009.89	228.34
1010.18	228.30
1010.47	228.34
1010.76	228.45
1011.04	228.56
1011.33	228.49
1011.62	228.56
1011.91	228.60
1012.19	228.52
1012.48	228.57
1012.77	228.60
1013.05	228.76
1013.34	228.78
1013.63	228.81
1013.92	228.80
1014.20	228.65
1014.49	228.56
1014.78	228.53
1015.06	228.42
1015.35	228.42
1015.64	228.41
1015.92	228.33
1016.21	228.28
1016.50	228.24
1016.78	228.14
1017.07	228.11
1017.36	228.15
1017.64	228.16
1017.93	228.10
1018.22	228.16
1018.50	228.19
1018.79	228.14
1019.08	228.13
1019.36	228.03
1019.65	228.11
1019.93	228.17
1020.22	228.17
1020.51	228.26
1020.79	228.24
1021.08	227.90
1021.36	228.70
1021.65	227.80
1021.94	230.20
1022.22	227.20
1022.51	229.00
1022.79	229.20
1023.08	227.30
1023.36	229.20
1023.65	227.50
>>>>>End Processed Spectral Data<<<<<
