SpectraSuite Data File
++++++++++++++++++++++++++++++++++++
Date: Fri Feb 01 14:35:08 EST 2013
User: group
Dark Spectrum Present: No
Reference Spectrum Present: No
Number of Sampled Component Spectra: 1
Spectrometers: USB2E7196
Integration Time (usec): 70000 (USB2E7196)
Spectra Averaged: 10 (USB2E7196)
Boxcar Smoothing: 10 (USB2E7196)
Correct for Electrical Dark: No (USB2E7196)
Strobe/Lamp Enabled: No (USB2E7196)
Correct for Detector Non-linearity: No (USB2E7196)
Correct for Stray Light: No (USB2E7196)
Number of Pixels in Processed Spectrum: 2048
>>>>>Begin Processed Spectral Data<<<<<
339.09	0.00
339.48	216.90
339.86	216.70
340.24	218.70
340.63	220.40
341.01	224.70
341.39	222.10
341.78	225.70
342.16	228.50
342.54	227.00
342.93	215.02
343.31	225.81
343.69	226.26
344.07	226.75
344.46	227.15
344.84	227.60
345.22	227.74
345.60	228.10
345.99	228.18
346.37	228.18
346.75	228.16
347.13	228.20
347.52	228.19
347.90	228.28
348.28	228.30
348.66	228.31
349.05	228.36
349.43	228.44
349.81	228.33
350.19	228.41
350.57	228.58
350.96	228.66
351.34	228.88
351.72	229.05
352.10	229.21
352.48	229.31
352.87	229.29
353.25	229.36
353.63	229.38
354.01	229.51
354.39	229.64
354.77	229.82
355.15	229.94
355.54	229.97
355.92	229.97
356.30	230.08
356.68	230.39
357.06	230.46
357.44	230.47
357.82	230.61
358.20	230.67
358.58	230.69
358.97	230.65
359.35	230.68
359.73	230.73
360.11	230.79
360.49	230.86
360.87	230.94
361.25	230.96
361.63	231.09
362.01	231.03
362.39	231.03
362.77	231.12
363.15	231.06
363.53	231.15
363.91	231.14
364.29	231.09
364.67	230.81
365.05	230.84
365.43	230.86
365.81	230.88
366.19	230.81
366.57	230.81
366.95	230.86
367.33	230.86
367.71	230.79
368.09	230.72
368.47	230.69
368.85	230.49
369.23	230.57
369.61	230.38
369.99	230.45
370.37	230.44
370.75	230.42
371.13	230.40
371.51	230.34
371.89	230.23
372.27	230.13
372.65	230.14
373.03	229.97
373.41	229.86
373.78	229.77
374.16	229.72
374.54	229.63
374.92	229.56
375.30	229.41
375.68	229.30
376.06	229.22
376.44	229.06
376.82	229.22
377.19	229.13
377.57	228.98
377.95	228.81
378.33	228.58
378.71	228.28
379.09	228.22
379.47	228.10
379.84	228.06
380.22	228.00
380.60	227.88
380.98	227.75
381.36	227.60
381.73	227.53
382.11	227.41
382.49	227.32
382.87	227.15
383.25	227.07
383.62	227.32
384.00	227.19
384.38	227.11
384.76	227.05
385.13	227.02
385.51	227.04
385.89	227.01
386.27	227.02
386.64	227.08
387.02	227.02
387.40	227.00
387.78	227.06
388.15	227.11
388.53	227.01
388.91	227.05
389.29	227.10
389.66	227.04
390.04	227.08
390.42	227.16
390.79	227.19
391.17	227.19
391.55	226.93
391.92	226.93
392.30	227.05
392.68	226.97
393.05	226.99
393.43	227.05
393.81	227.05
394.18	227.13
394.56	227.16
394.94	227.25
395.31	227.41
395.69	227.35
396.06	227.41
396.44	227.58
396.82	227.76
397.19	227.95
397.57	228.05
397.95	228.10
398.32	228.16
398.70	228.42
399.07	228.62
399.45	228.73
399.82	228.90
400.20	229.00
400.58	229.16
400.95	229.23
401.33	229.45
401.70	229.81
402.08	230.03
402.45	230.25
402.83	230.50
403.20	230.65
403.58	230.96
403.95	231.19
404.33	231.48
404.71	231.63
405.08	231.99
405.46	232.38
405.83	232.80
406.21	233.06
406.58	233.39
406.96	233.69
407.33	234.20
407.70	234.66
408.08	235.29
408.45	235.90
408.83	236.46
409.20	236.94
409.58	237.40
409.95	238.00
410.33	238.66
410.70	239.25
411.08	239.96
411.45	240.75
411.82	241.53
412.20	242.38
412.57	243.36
412.95	244.09
413.32	245.05
413.69	246.06
414.07	247.25
414.44	248.38
414.82	249.70
415.19	251.00
415.56	252.52
415.94	254.09
416.31	255.80
416.68	257.46
417.06	259.47
417.43	261.22
417.81	263.26
418.18	265.48
418.55	267.77
418.93	270.22
419.30	272.74
419.67	275.41
420.04	278.10
420.42	281.03
420.79	284.40
421.16	287.69
421.54	291.14
421.91	294.80
422.28	298.40
422.66	302.25
423.03	306.10
423.40	310.07
423.77	314.09
424.15	318.35
424.52	322.93
424.89	327.75
425.26	332.43
425.64	336.91
426.01	341.77
426.38	346.83
426.75	352.07
427.13	357.38
427.50	363.03
427.87	369.02
428.24	374.92
428.61	380.41
428.99	386.51
429.36	393.37
429.73	399.78
430.10	406.41
430.47	412.96
430.85	419.86
431.22	427.05
431.59	434.71
431.96	442.04
432.33	450.08
432.70	458.01
433.08	467.47
433.45	476.20
433.82	484.81
434.19	494.60
434.56	503.98
434.93	512.99
435.30	521.84
435.68	531.64
436.05	541.42
436.42	551.12
436.79	559.93
437.16	569.20
437.53	579.38
437.90	589.31
438.27	599.17
438.64	609.57
439.01	618.95
439.38	627.56
439.75	635.46
440.13	644.81
440.50	653.66
440.87	660.92
441.24	668.70
441.61	677.17
441.98	683.36
442.35	690.77
442.72	698.15
443.09	705.48
443.46	710.25
443.83	713.49
444.20	716.54
444.57	720.89
444.94	723.59
445.31	725.87
445.68	728.38
446.05	730.12
446.42	730.03
446.79	729.99
447.16	729.75
447.53	730.30
447.90	728.00
448.27	725.32
448.64	721.07
449.01	718.45
449.37	713.01
449.74	707.78
450.11	701.00
450.48	693.67
450.85	686.39
451.22	680.24
451.59	674.27
451.96	668.80
452.33	660.77
452.70	653.53
453.07	644.95
453.43	635.96
453.80	627.47
454.17	619.01
454.54	611.01
454.91	602.36
455.28	593.72
455.65	585.60
456.02	577.56
456.38	570.93
456.75	562.11
457.12	554.86
457.49	547.59
457.86	540.80
458.23	535.02
458.59	528.30
458.96	521.24
459.33	515.20
459.70	509.20
460.07	504.36
460.43	498.55
460.80	493.05
461.17	488.40
461.54	483.40
461.91	478.76
462.27	474.07
462.64	470.02
463.01	465.36
463.38	460.86
463.74	456.49
464.11	452.56
464.48	449.16
464.85	445.41
465.21	442.52
465.58	439.57
465.95	435.89
466.32	432.68
466.68	429.74
467.05	426.81
467.42	423.46
467.78	420.20
468.15	417.18
468.52	414.91
468.88	412.05
469.25	409.25
469.62	407.01
469.98	404.71
470.35	402.67
470.72	400.67
471.08	398.51
471.45	396.59
471.82	394.54
472.18	392.48
472.55	390.98
472.92	389.13
473.28	387.30
473.65	385.59
474.02	384.08
474.38	382.68
474.75	381.37
475.11	380.14
475.48	379.13
475.85	378.29
476.21	377.39
476.58	376.37
476.94	375.74
477.31	375.03
477.67	374.16
478.04	373.15
478.41	372.80
478.77	372.42
479.14	371.80
479.50	371.44
479.87	371.32
480.23	371.11
480.60	370.83
480.96	370.67
481.33	370.78
481.69	370.88
482.06	371.02
482.42	371.09
482.79	371.20
483.15	371.61
483.52	372.12
483.88	372.51
484.25	373.04
484.61	373.69
484.98	374.22
485.34	375.10
485.71	376.04
486.07	376.91
486.44	377.64
486.80	378.68
487.17	379.90
487.53	380.95
487.90	382.20
488.26	383.58
488.62	385.02
488.99	386.45
489.35	387.80
489.72	389.37
490.08	391.12
490.44	392.83
490.81	394.65
491.17	396.23
491.54	398.09
491.90	400.06
492.26	402.05
492.63	404.21
492.99	406.47
493.36	408.76
493.72	411.26
494.08	413.71
494.45	416.26
494.81	418.70
495.17	421.32
495.54	423.97
495.90	426.84
496.26	429.72
496.63	432.72
496.99	435.79
497.35	438.87
497.72	441.97
498.08	445.10
498.44	448.15
498.80	451.70
499.17	454.96
499.53	458.08
499.89	461.29
500.26	464.50
500.62	467.77
500.98	471.19
501.34	474.35
501.71	477.88
502.07	481.11
502.43	484.55
502.79	488.06
503.16	491.29
503.52	494.69
503.88	497.68
504.24	500.78
504.60	504.04
504.97	507.29
505.33	510.55
505.69	514.05
506.05	517.30
506.41	520.23
506.78	523.53
507.14	526.68
507.50	529.88
507.86	533.13
508.22	536.32
508.59	539.23
508.95	542.24
509.31	545.12
509.67	548.20
510.03	551.10
510.39	553.91
510.75	556.89
511.12	559.57
511.48	562.35
511.84	565.09
512.20	567.61
512.56	570.04
512.92	572.49
513.28	574.81
513.64	577.28
514.00	579.49
514.37	581.49
514.73	583.70
515.09	585.72
515.45	587.54
515.81	589.37
516.17	591.32
516.53	593.01
516.89	594.65
517.25	596.31
517.61	597.98
517.97	599.33
518.33	600.53
518.69	602.00
519.05	603.54
519.41	604.89
519.77	606.49
520.13	608.01
520.49	609.25
520.85	610.47
521.21	611.50
521.57	613.00
521.93	614.14
522.29	615.54
522.65	616.76
523.01	618.00
523.37	618.74
523.73	619.95
524.09	621.26
524.45	622.57
524.81	623.88
525.17	625.10
525.53	626.66
525.89	628.08
526.25	629.09
526.61	630.18
526.97	631.54
527.33	632.96
527.68	634.21
528.04	635.58
528.40	636.88
528.76	638.70
529.12	640.50
529.48	642.18
529.84	643.51
530.20	645.09
530.56	646.84
530.91	649.08
531.27	650.88
531.63	652.51
531.99	654.27
532.35	656.09
532.71	657.93
533.07	659.69
533.42	661.83
533.78	663.99
534.14	666.33
534.50	668.33
534.86	670.23
535.21	672.18
535.57	674.47
535.93	676.73
536.29	678.55
536.65	680.44
537.00	682.78
537.36	685.35
537.72	687.73
538.08	690.12
538.44	692.45
538.79	694.69
539.15	697.16
539.51	699.83
539.87	702.61
540.22	705.20
540.58	708.13
540.94	710.48
541.29	713.31
541.65	715.98
542.01	718.95
542.37	721.78
542.72	724.54
543.08	727.48
543.44	730.40
543.79	733.22
544.15	736.00
544.51	739.40
544.87	742.20
545.22	745.06
545.58	747.96
545.94	750.83
546.29	753.87
546.65	756.83
547.01	759.66
547.36	762.38
547.72	765.36
548.07	768.00
548.43	771.19
548.79	774.38
549.14	777.38
549.50	780.13
549.86	783.16
550.21	786.26
550.57	789.26
550.92	792.18
551.28	795.27
551.64	798.52
551.99	801.14
552.35	804.08
552.70	807.17
553.06	810.53
553.41	813.75
553.77	816.89
554.13	820.17
554.48	823.39
554.84	826.40
555.19	829.55
555.55	832.85
555.90	835.70
556.26	838.54
556.61	841.47
556.97	844.51
557.32	847.42
557.68	850.34
558.03	853.18
558.39	856.32
558.74	859.57
559.10	862.58
559.45	865.61
559.81	868.87
560.16	871.76
560.52	874.36
560.87	877.22
561.23	879.98
561.58	883.01
561.94	885.67
562.29	888.44
562.64	890.95
563.00	893.56
563.35	896.65
563.71	899.70
564.06	902.34
564.42	905.19
564.77	908.13
565.12	911.10
565.48	913.99
565.83	916.16
566.19	918.61
566.54	920.72
566.89	922.90
567.25	925.39
567.60	927.88
567.96	930.40
568.31	932.68
568.66	934.94
569.02	937.05
569.37	939.47
569.72	941.70
570.08	943.59
570.43	945.34
570.78	946.83
571.14	947.84
571.49	949.70
571.84	951.36
572.20	952.51
572.55	953.93
572.90	954.93
573.26	956.68
573.61	957.81
573.96	959.10
574.31	960.01
574.67	960.44
575.02	960.93
575.37	961.43
575.72	961.86
576.08	962.56
576.43	962.76
576.78	963.17
577.13	963.80
577.49	964.68
577.84	965.24
578.19	965.89
578.54	966.47
578.90	966.42
579.25	966.46
579.60	966.35
579.95	966.05
580.30	966.02
580.66	965.69
581.01	965.38
581.36	965.17
581.71	965.12
582.06	965.00
582.42	964.73
582.77	964.69
583.12	964.39
583.47	963.94
583.82	963.60
584.17	962.87
584.53	962.10
584.88	961.18
585.23	960.34
585.58	959.50
585.93	958.90
586.28	958.30
586.63	957.54
586.98	956.90
587.34	956.44
587.69	955.69
588.04	954.72
588.39	953.95
588.74	952.60
589.09	951.34
589.44	949.90
589.79	948.76
590.14	947.21
590.49	945.93
590.84	944.38
591.19	943.19
591.54	941.34
591.89	939.43
592.25	938.06
592.60	936.28
592.95	934.60
593.30	932.74
593.65	930.90
594.00	929.05
594.35	927.84
594.70	925.52
595.05	923.60
595.40	921.75
595.75	919.79
596.10	918.08
596.45	916.65
596.80	915.28
597.15	913.64
597.50	911.64
597.85	909.90
598.19	908.42
598.54	906.42
598.89	905.13
599.24	903.72
599.59	901.57
599.94	899.79
600.29	897.60
600.64	895.65
600.99	893.60
601.34	891.54
601.69	889.00
602.04	887.10
602.39	884.86
602.74	883.01
603.08	880.90
603.43	879.17
603.78	876.77
604.13	874.48
604.48	872.00
604.83	869.94
605.18	867.67
605.53	865.16
605.87	862.44
606.22	859.69
606.57	856.99
606.92	854.73
607.27	852.46
607.62	850.48
607.96	848.08
608.31	845.60
608.66	842.89
609.01	840.09
609.36	837.13
609.70	834.13
610.05	831.01
610.40	828.45
610.75	825.31
611.10	822.20
611.44	819.08
611.79	816.36
612.14	813.45
612.49	810.16
612.83	806.77
613.18	803.91
613.53	801.08
613.88	797.98
614.22	794.67
614.57	791.29
614.92	787.95
615.27	784.80
615.61	781.89
615.96	778.88
616.31	776.05
616.65	773.57
617.00	770.98
617.35	768.25
617.70	764.89
618.04	761.85
618.39	759.26
618.74	756.37
619.08	753.25
619.43	750.40
619.78	747.53
620.12	744.75
620.47	742.14
620.82	739.03
621.16	736.16
621.51	733.50
621.85	730.75
622.20	727.85
622.55	725.02
622.89	722.03
623.24	719.16
623.59	716.24
623.93	713.43
624.28	710.66
624.62	707.75
624.97	705.13
625.32	702.55
625.66	699.68
626.01	697.05
626.35	694.45
626.70	691.75
627.04	689.17
627.39	686.44
627.73	683.27
628.08	680.81
628.43	678.07
628.77	675.21
629.12	672.23
629.46	669.45
629.81	666.26
630.15	663.22
630.50	660.40
630.84	657.52
631.19	654.47
631.53	651.63
631.88	648.68
632.22	645.57
632.57	642.85
632.91	639.78
633.26	636.75
633.60	633.77
633.95	630.62
634.29	627.79
634.64	625.07
634.98	622.27
635.32	619.45
635.67	616.88
636.01	614.26
636.36	611.85
636.70	609.26
637.05	606.99
637.39	604.77
637.73	602.36
638.08	599.97
638.42	597.67
638.77	595.08
639.11	592.60
639.45	590.25
639.80	587.36
640.14	584.99
640.49	582.48
640.83	579.94
641.17	577.59
641.52	575.03
641.86	572.46
642.20	570.24
642.55	567.77
642.89	565.38
643.23	562.85
643.58	560.65
643.92	558.19
644.26	555.68
644.61	553.23
644.95	550.94
645.29	548.16
645.64	545.44
645.98	543.06
646.32	540.68
646.66	538.30
647.01	535.90
647.35	533.63
647.69	531.37
648.04	529.28
648.38	526.78
648.72	524.31
649.06	521.89
649.41	519.52
649.75	516.89
650.09	514.35
650.43	512.09
650.78	509.25
651.12	506.60
651.46	504.38
651.80	502.01
652.14	499.63
652.49	497.64
652.83	495.43
653.17	492.89
653.51	490.61
653.85	488.30
654.20	486.07
654.54	483.62
654.88	481.21
655.22	478.60
655.56	476.32
655.90	474.11
656.25	471.99
656.59	469.59
656.93	467.64
657.27	465.48
657.61	463.00
657.95	461.15
658.29	459.11
658.64	456.86
658.98	454.51
659.32	452.32
659.66	450.33
660.00	448.22
660.34	446.30
660.68	444.06
661.02	441.88
661.36	440.13
661.70	438.16
662.05	436.23
662.39	434.52
662.73	432.81
663.07	431.02
663.41	429.24
663.75	427.50
664.09	425.67
664.43	423.90
664.77	422.25
665.11	420.31
665.45	418.67
665.79	416.95
666.13	415.39
666.47	413.60
666.81	411.54
667.15	409.63
667.49	407.80
667.83	406.26
668.17	404.68
668.51	402.69
668.85	401.14
669.19	399.60
669.53	398.00
669.87	396.28
670.21	394.80
670.55	393.32
670.89	391.95
671.23	390.43
671.57	388.90
671.91	387.54
672.25	386.18
672.58	384.80
672.92	383.30
673.26	381.99
673.60	380.58
673.94	379.34
674.28	378.09
674.62	377.04
674.96	375.80
675.30	374.65
675.64	373.47
675.97	372.16
676.31	370.95
676.65	369.65
676.99	368.59
677.33	367.11
677.67	365.77
678.01	364.35
678.34	363.05
678.68	361.72
679.02	360.46
679.36	359.19
679.70	357.94
680.04	356.80
680.37	355.43
680.71	354.25
681.05	353.19
681.39	352.14
681.73	350.88
682.06	349.79
682.40	348.64
682.74	347.56
683.08	346.58
683.42	345.30
683.75	344.15
684.09	342.89
684.43	341.84
684.77	340.85
685.10	339.95
685.44	338.96
685.78	337.91
686.12	336.89
686.45	335.93
686.79	334.84
687.13	333.87
687.46	332.84
687.80	331.84
688.14	330.63
688.48	329.53
688.81	328.56
689.15	327.48
689.49	326.35
689.82	325.33
690.16	324.10
690.50	323.21
690.83	322.17
691.17	321.15
691.51	320.26
691.84	319.23
692.18	318.20
692.52	317.14
692.85	316.27
693.19	315.30
693.52	314.37
693.86	313.44
694.20	312.53
694.53	311.66
694.87	310.70
695.21	309.84
695.54	308.98
695.88	308.11
696.21	307.21
696.55	306.47
696.88	305.55
697.22	304.85
697.56	303.94
697.89	303.23
698.23	302.42
698.56	301.76
698.90	300.91
699.23	299.97
699.57	299.10
699.90	298.32
700.24	297.44
700.58	296.64
700.91	295.90
701.25	295.21
701.58	294.54
701.92	293.85
702.25	293.12
702.59	292.41
702.92	291.72
703.26	291.05
703.59	290.29
703.93	289.85
704.26	289.13
704.60	288.61
704.93	287.86
705.26	287.17
705.60	286.43
705.93	285.97
706.27	285.50
706.60	285.08
706.94	284.49
707.27	283.97
707.61	283.43
707.94	282.89
708.27	282.22
708.61	281.46
708.94	280.86
709.28	280.41
709.61	279.98
709.94	279.43
710.28	278.84
710.61	278.22
710.95	277.38
711.28	276.95
711.61	276.43
711.95	276.06
712.28	275.62
712.61	275.03
712.95	274.50
713.28	274.03
713.61	273.48
713.95	273.01
714.28	272.62
714.61	272.16
714.95	271.70
715.28	271.24
715.61	270.96
715.95	270.46
716.28	270.05
716.61	269.54
716.95	269.10
717.28	268.66
717.61	268.35
717.94	268.07
718.28	267.65
718.61	267.18
718.94	266.66
719.27	266.32
719.61	265.96
719.94	265.57
720.27	265.12
720.60	264.69
720.94	264.36
721.27	264.08
721.60	263.67
721.93	263.24
722.27	262.89
722.60	262.52
722.93	262.28
723.26	261.87
723.59	261.51
723.93	261.15
724.26	260.92
724.59	260.62
724.92	260.35
725.25	260.01
725.59	259.78
725.92	259.47
726.25	259.19
726.58	258.90
726.91	258.56
727.24	258.31
727.57	258.08
727.91	257.72
728.24	257.34
728.57	256.99
728.90	256.71
729.23	256.50
729.56	256.26
729.89	255.91
730.22	255.67
730.55	255.42
730.89	255.19
731.22	254.88
731.55	254.56
731.88	254.23
732.21	253.86
732.54	253.49
732.87	253.22
733.20	252.94
733.53	252.63
733.86	252.47
734.19	252.13
734.52	251.87
734.85	251.79
735.18	251.47
735.51	251.22
735.84	251.06
736.17	250.80
736.50	250.50
736.83	250.60
737.16	250.26
737.49	250.00
737.82	249.69
738.15	249.41
738.48	249.26
738.81	249.00
739.14	248.83
739.47	248.58
739.80	248.37
740.13	248.21
740.46	247.97
740.79	247.70
741.12	247.54
741.45	247.26
741.78	246.98
742.11	246.87
742.44	246.76
742.77	246.55
743.10	246.25
743.43	246.11
743.75	245.66
744.08	245.80
744.41	245.63
744.74	245.43
745.07	245.24
745.40	245.03
745.73	244.90
746.06	244.81
746.39	244.75
746.71	244.61
747.04	244.30
747.37	244.18
747.70	244.04
748.03	243.76
748.36	243.71
748.68	243.59
749.01	243.38
749.34	243.32
749.67	243.24
750.00	243.16
750.33	243.13
750.65	242.99
750.98	242.56
751.31	242.40
751.64	242.31
751.97	242.24
752.29	242.15
752.62	242.00
752.95	241.85
753.28	241.76
753.60	241.69
753.93	241.68
754.26	241.60
754.59	241.33
754.91	241.23
755.24	241.08
755.57	240.79
755.90	240.62
756.22	240.46
756.55	240.41
756.88	240.24
757.20	239.91
757.53	239.70
757.86	239.63
758.19	239.51
758.51	239.40
758.84	239.29
759.17	239.16
759.49	239.02
759.82	238.91
760.15	238.75
760.47	238.60
760.80	238.40
761.13	238.34
761.45	238.28
761.78	238.24
762.11	238.15
762.43	238.08
762.76	238.01
763.08	237.81
763.41	237.61
763.74	237.46
764.06	237.42
764.39	237.36
764.71	237.32
765.04	237.27
765.37	237.23
765.69	237.06
766.02	236.93
766.34	236.77
766.67	236.67
767.00	236.56
767.32	236.59
767.65	236.58
767.97	236.40
768.30	236.45
768.62	236.38
768.95	236.33
769.27	236.23
769.60	236.17
769.92	236.09
770.25	235.86
770.57	235.80
770.90	235.69
771.22	235.49
771.55	235.29
771.87	235.20
772.20	235.06
772.52	235.16
772.85	235.31
773.17	235.16
773.50	234.96
773.82	234.81
774.15	234.56
774.47	234.49
774.80	234.42
775.12	234.19
775.45	233.95
775.77	233.82
776.09	233.87
776.42	233.75
776.74	233.70
777.07	233.69
777.39	233.54
777.72	233.45
778.04	233.36
778.36	233.28
778.69	233.13
779.01	233.02
779.33	232.71
779.66	232.34
779.98	232.32
780.31	232.29
780.63	232.23
780.95	232.30
781.28	232.15
781.60	232.07
781.92	232.06
782.25	232.06
782.57	231.95
782.89	231.84
783.22	231.85
783.54	231.83
783.86	231.85
784.19	231.87
784.51	231.90
784.83	231.90
785.16	231.86
785.48	231.96
785.80	231.95
786.12	232.04
786.45	232.02
786.77	232.00
787.09	231.90
787.42	231.95
787.74	231.96
788.06	231.85
788.38	231.84
788.71	231.78
789.03	231.85
789.35	231.92
789.67	231.88
789.99	231.93
790.32	231.74
790.64	231.69
790.96	231.94
791.28	231.88
791.61	231.94
791.93	232.00
792.25	231.90
792.57	232.10
792.89	232.09
793.21	232.16
793.54	232.25
793.86	232.30
794.18	232.33
794.50	232.10
794.82	232.18
795.14	232.18
795.47	232.31
795.79	232.25
796.11	232.22
796.43	232.25
796.75	232.24
797.07	232.39
797.39	232.41
797.71	232.25
798.04	232.28
798.36	232.30
798.68	232.31
799.00	232.33
799.32	232.19
799.64	232.15
799.96	232.11
800.28	232.17
800.60	232.17
800.92	232.22
801.24	232.22
801.56	232.33
801.89	232.25
802.21	232.19
802.53	232.23
802.85	232.20
803.17	232.17
803.49	232.01
803.81	231.97
804.13	231.92
804.45	231.82
804.77	231.75
805.09	231.68
805.41	231.55
805.73	231.45
806.05	231.29
806.37	231.32
806.69	231.31
807.01	231.14
807.33	231.20
807.65	231.03
807.97	231.07
808.28	230.91
808.60	230.90
808.92	230.74
809.24	230.82
809.56	230.73
809.88	230.64
810.20	230.63
810.52	230.66
810.84	230.59
811.16	230.54
811.48	230.50
811.80	230.45
812.12	230.41
812.43	230.43
812.75	230.46
813.07	230.37
813.39	230.25
813.71	230.14
814.03	229.94
814.35	229.80
814.67	229.77
814.98	229.66
815.30	229.60
815.62	229.56
815.94	229.33
816.26	229.35
816.58	229.28
816.89	229.25
817.21	229.02
817.53	228.95
817.85	228.95
818.17	228.96
818.48	228.79
818.80	228.82
819.12	228.73
819.44	228.60
819.76	228.46
820.07	228.41
820.39	228.47
820.71	228.50
821.03	228.55
821.34	228.47
821.66	228.47
821.98	228.36
822.30	228.39
822.61	228.45
822.93	228.42
823.25	228.40
823.57	228.35
823.88	228.44
824.20	228.51
824.52	228.49
824.83	228.40
825.15	228.59
825.47	228.47
825.79	228.49
826.10	228.49
826.42	228.57
826.74	228.61
827.05	228.62
827.37	228.68
827.69	228.70
828.00	228.70
828.32	228.80
828.64	228.96
828.95	229.11
829.27	229.08
829.58	229.15
829.90	229.19
830.22	229.28
830.53	229.27
830.85	229.23
831.17	229.18
831.48	229.30
831.80	229.26
832.11	229.39
832.43	229.37
832.75	229.39
833.06	229.52
833.38	229.50
833.69	229.51
834.01	229.52
834.32	229.62
834.64	229.70
834.96	229.67
835.27	229.64
835.59	229.61
835.90	229.69
836.22	229.72
836.53	229.79
836.85	229.76
837.16	230.00
837.48	230.12
837.79	230.28
838.11	230.20
838.42	230.27
838.74	230.38
839.05	230.47
839.37	230.58
839.68	230.39
840.00	230.40
840.31	230.47
840.63	230.54
840.94	230.44
841.26	230.48
841.57	230.46
841.88	230.46
842.20	230.39
842.51	230.28
842.83	230.20
843.14	230.32
843.46	230.39
843.77	230.16
844.08	230.00
844.40	229.89
844.71	229.91
845.03	229.82
845.34	229.75
845.65	229.71
845.97	229.67
846.28	229.74
846.60	229.78
846.91	229.72
847.22	229.69
847.54	229.61
847.85	229.55
848.16	229.54
848.48	229.53
848.79	229.48
849.10	229.42
849.42	229.35
849.73	229.11
850.04	228.90
850.36	228.86
850.67	228.88
850.98	228.88
851.30	228.83
851.61	228.83
851.92	228.70
852.23	228.78
852.55	228.81
852.86	228.77
853.17	228.66
853.49	228.59
853.80	228.53
854.11	228.68
854.42	228.65
854.74	228.58
855.05	228.50
855.36	228.44
855.67	228.43
855.99	228.40
856.30	228.62
856.61	228.70
856.92	228.59
857.23	228.51
857.55	228.48
857.86	228.38
858.17	228.34
858.48	228.36
858.79	228.09
859.11	227.98
859.42	227.87
859.73	227.96
860.04	227.98
860.35	227.86
860.66	227.78
860.98	227.72
861.29	227.76
861.60	227.72
861.91	227.73
862.22	227.68
862.53	227.67
862.84	227.49
863.16	227.49
863.47	227.56
863.78	227.63
864.09	227.62
864.40	227.64
864.71	227.68
865.02	227.72
865.33	227.81
865.64	227.84
865.95	227.94
866.27	227.99
866.58	227.96
866.89	228.03
867.20	228.02
867.51	228.11
867.82	228.17
868.13	228.33
868.44	228.33
868.75	228.53
869.06	228.60
869.37	228.68
869.68	228.70
869.99	228.71
870.30	228.76
870.61	228.85
870.92	228.92
871.23	228.90
871.54	228.85
871.85	228.95
872.16	228.98
872.47	228.95
872.78	229.00
873.09	229.07
873.40	229.16
873.71	229.19
874.02	229.17
874.33	229.10
874.64	229.06
874.95	229.09
875.26	229.06
875.56	229.06
875.87	229.07
876.18	229.07
876.49	229.30
876.80	229.27
877.11	229.33
877.42	229.40
877.73	229.47
878.04	229.49
878.35	229.40
878.66	229.40
878.96	229.44
879.27	229.33
879.58	229.43
879.89	229.39
880.20	229.40
880.51	229.44
880.82	229.53
881.12	229.53
881.43	229.62
881.74	229.54
882.05	229.52
882.36	229.58
882.67	229.57
882.97	229.36
883.28	229.30
883.59	229.19
883.90	229.22
884.21	229.20
884.51	229.22
884.82	229.17
885.13	229.23
885.44	229.26
885.74	229.34
886.05	229.16
886.36	229.15
886.67	229.09
886.98	229.02
887.28	228.99
887.59	228.91
887.90	228.86
888.20	228.92
888.51	228.95
888.82	228.81
889.13	228.82
889.43	228.90
889.74	228.84
890.05	228.72
890.35	228.62
890.66	228.56
890.97	228.54
891.28	228.50
891.58	228.49
891.89	228.45
892.20	228.27
892.50	228.32
892.81	228.25
893.12	228.22
893.42	228.18
893.73	228.10
894.04	228.13
894.34	228.01
894.65	227.86
894.95	227.72
895.26	227.71
895.57	227.72
895.87	227.55
896.18	227.59
896.48	227.60
896.79	227.57
897.10	227.46
897.40	227.40
897.71	227.52
898.01	227.45
898.32	227.43
898.63	227.40
898.93	227.41
899.24	227.36
899.54	227.34
899.85	227.24
900.15	227.25
900.46	227.30
900.76	227.35
901.07	227.40
901.38	227.37
901.68	227.29
901.99	227.18
902.29	227.23
902.60	227.27
902.90	227.34
903.21	227.31
903.51	227.48
903.82	227.52
904.12	227.47
904.43	227.47
904.73	227.43
905.03	227.55
905.34	227.74
905.64	227.88
905.95	227.88
906.25	227.92
906.56	227.94
906.86	227.90
907.17	227.99
907.47	228.04
907.77	228.22
908.08	228.26
908.38	228.33
908.69	228.41
908.99	228.43
909.30	228.46
909.60	228.57
909.90	228.56
910.21	228.63
910.51	228.64
910.81	228.68
911.12	228.82
911.42	228.79
911.73	228.58
912.03	228.56
912.33	228.58
912.64	228.63
912.94	228.72
913.24	228.73
913.55	228.68
913.85	228.74
914.15	228.73
914.46	228.86
914.76	228.86
915.06	228.88
915.37	228.88
915.67	228.78
915.97	228.80
916.27	228.78
916.58	228.76
916.88	228.80
917.18	228.76
917.49	228.81
917.79	228.80
918.09	228.81
918.39	228.87
918.70	229.02
919.00	229.01
919.30	229.02
919.60	228.97
919.91	228.94
920.21	228.83
920.51	228.81
920.81	228.79
921.12	228.89
921.42	228.80
921.72	228.86
922.02	229.01
922.32	228.95
922.63	228.92
922.93	229.04
923.23	229.13
923.53	229.12
923.83	229.04
924.13	229.14
924.44	229.11
924.74	229.05
925.04	228.88
925.34	228.80
925.64	228.70
925.94	228.73
926.24	228.85
926.55	228.90
926.85	228.86
927.15	228.72
927.45	228.62
927.75	228.60
928.05	228.55
928.35	228.44
928.65	228.50
928.95	228.43
929.26	228.29
929.56	228.17
929.86	228.17
930.16	228.08
930.46	227.90
930.76	227.84
931.06	227.70
931.36	227.72
931.66	227.81
931.96	227.76
932.26	227.75
932.56	227.58
932.86	227.52
933.16	227.43
933.46	227.44
933.76	227.45
934.06	227.43
934.36	227.45
934.66	227.40
934.96	227.40
935.26	227.44
935.56	227.36
935.86	227.33
936.16	227.31
936.46	227.38
936.76	227.49
937.06	227.50
937.36	227.55
937.66	227.55
937.96	227.53
938.26	227.50
938.56	227.39
938.86	227.40
939.16	227.45
939.46	227.58
939.76	227.59
940.06	227.55
940.35	227.51
940.65	227.46
940.95	227.49
941.25	227.51
941.55	227.47
941.85	227.45
942.15	227.51
942.45	227.52
942.75	227.50
943.04	227.60
943.34	227.71
943.64	227.76
943.94	227.68
944.24	227.70
944.54	227.82
944.84	227.97
945.13	227.95
945.43	227.91
945.73	227.85
946.03	227.98
946.33	228.00
946.62	228.15
946.92	228.08
947.22	228.10
947.52	228.07
947.82	228.14
948.11	228.20
948.41	228.26
948.71	228.29
949.01	228.32
949.31	228.25
949.60	228.15
949.90	228.21
950.20	228.38
950.50	228.45
950.79	228.46
951.09	228.57
951.39	228.71
951.69	228.78
951.98	228.96
952.28	228.81
952.58	228.91
952.87	228.81
953.17	228.93
953.47	229.04
953.76	229.09
954.06	229.11
954.36	229.15
954.66	229.14
954.95	229.21
955.25	229.18
955.55	229.22
955.84	229.32
956.14	229.35
956.44	229.31
956.73	229.29
957.03	229.21
957.32	229.13
957.62	229.01
957.92	229.02
958.21	228.88
958.51	229.10
958.81	228.99
959.10	229.03
959.40	229.06
959.69	229.07
959.99	228.95
960.29	228.93
960.58	228.84
960.88	228.90
961.17	228.86
961.47	228.87
961.76	228.73
962.06	228.73
962.36	228.59
962.65	228.59
962.95	228.55
963.24	228.53
963.54	228.53
963.83	228.55
964.13	228.65
964.42	228.60
964.72	228.46
965.01	228.49
965.31	228.41
965.60	228.40
965.90	228.43
966.19	228.35
966.49	228.30
966.78	228.30
967.08	228.22
967.37	228.19
967.67	227.98
967.96	228.03
968.26	227.90
968.55	227.93
968.85	227.70
969.14	227.64
969.43	227.61
969.73	227.50
970.02	227.46
970.32	227.25
970.61	227.17
970.91	227.03
971.20	226.91
971.49	226.76
971.79	226.69
972.08	226.48
972.38	226.58
972.67	226.58
972.96	226.61
973.26	226.47
973.55	226.54
973.85	226.65
974.14	226.70
974.43	226.74
974.73	226.72
975.02	226.75
975.31	226.77
975.61	226.72
975.90	226.71
976.19	226.67
976.49	226.68
976.78	226.78
977.07	226.90
977.37	227.02
977.66	227.15
977.95	227.19
978.24	227.18
978.54	227.21
978.83	227.20
979.12	227.20
979.42	227.26
979.71	227.14
980.00	227.09
980.29	227.03
980.59	227.12
980.88	227.26
981.17	227.42
981.46	227.41
981.76	227.54
982.05	227.73
982.34	227.79
982.63	227.89
982.93	227.83
983.22	227.83
983.51	227.90
983.80	227.96
984.09	227.97
984.39	228.16
984.68	228.13
984.97	228.25
985.26	228.40
985.55	228.45
985.85	228.58
986.14	228.74
986.43	228.84
986.72	228.77
987.01	228.84
987.30	228.76
987.59	228.87
987.89	228.92
988.18	228.74
988.47	228.78
988.76	228.77
989.05	228.86
989.34	228.96
989.63	228.97
989.92	229.07
990.22	229.10
990.51	229.01
990.80	229.04
991.09	229.00
991.38	228.90
991.67	228.95
991.96	228.94
992.25	228.94
992.54	228.92
992.83	229.05
993.12	228.96
993.41	229.10
993.70	229.07
993.99	229.07
994.28	229.22
994.58	229.34
994.87	229.32
995.16	229.32
995.45	229.29
995.74	229.18
996.03	229.10
996.32	229.09
996.61	229.20
996.90	229.20
997.19	229.19
997.48	229.22
997.77	229.14
998.06	229.09
998.34	229.00
998.63	228.99
998.92	228.91
999.21	228.84
999.50	228.77
999.79	228.68
1000.08	228.73
1000.37	228.70
1000.66	228.59
1000.95	228.66
1001.24	228.65
1001.53	228.55
1001.82	228.56
1002.11	228.45
1002.40	228.39
1002.68	228.26
1002.97	228.36
1003.26	228.30
1003.55	228.19
1003.84	228.16
1004.13	228.20
1004.42	228.16
1004.71	228.13
1004.99	227.93
1005.28	227.91
1005.57	227.88
1005.86	227.88
1006.15	227.72
1006.44	227.67
1006.72	227.64
1007.01	227.57
1007.30	227.53
1007.59	227.57
1007.88	227.55
1008.17	227.63
1008.45	227.62
1008.74	227.59
1009.03	227.47
1009.32	227.41
1009.60	227.49
1009.89	227.42
1010.18	227.30
1010.47	227.30
1010.76	227.20
1011.04	227.28
1011.33	227.38
1011.62	227.41
1011.91	227.43
1012.19	227.44
1012.48	227.34
1012.77	227.41
1013.05	227.51
1013.34	227.51
1013.63	227.42
1013.92	227.51
1014.20	227.51
1014.49	227.53
1014.78	227.50
1015.06	227.40
1015.35	227.47
1015.64	227.45
1015.92	227.63
1016.21	227.67
1016.50	227.72
1016.78	227.86
1017.07	227.96
1017.36	227.91
1017.64	227.95
1017.93	228.00
1018.22	228.07
1018.50	228.12
1018.79	228.10
1019.08	228.04
1019.36	228.15
1019.65	228.23
1019.93	228.22
1020.22	228.27
1020.51	228.42
1020.79	228.50
1021.08	228.70
1021.36	227.70
1021.65	228.50
1021.94	228.80
1022.22	229.80
1022.51	228.50
1022.79	228.90
1023.08	228.80
1023.36	231.20
1023.65	228.10
>>>>>End Processed Spectral Data<<<<<
