SpectraSuite Data File
++++++++++++++++++++++++++++++++++++
Date: Fri Feb 01 14:40:59 EST 2013
User: group
Dark Spectrum Present: No
Reference Spectrum Present: No
Number of Sampled Component Spectra: 1
Spectrometers: USB2E7196
Integration Time (usec): 70000 (USB2E7196)
Spectra Averaged: 10 (USB2E7196)
Boxcar Smoothing: 10 (USB2E7196)
Correct for Electrical Dark: No (USB2E7196)
Strobe/Lamp Enabled: No (USB2E7196)
Correct for Detector Non-linearity: No (USB2E7196)
Correct for Stray Light: No (USB2E7196)
Number of Pixels in Processed Spectrum: 2048
>>>>>Begin Processed Spectral Data<<<<<
339.09	0.00
339.48	216.10
339.86	216.70
340.24	218.90
340.63	218.60
341.01	224.20
341.39	223.10
341.78	223.80
342.16	225.30
342.54	226.40
342.93	214.61
343.31	225.48
343.69	226.06
344.07	226.58
344.46	227.05
344.84	227.57
345.22	227.81
345.60	228.01
345.99	228.26
346.37	228.44
346.75	228.48
347.13	228.44
347.52	228.55
347.90	228.68
348.28	228.72
348.66	228.77
349.05	228.70
349.43	228.80
349.81	228.80
350.19	228.90
350.57	229.06
350.96	229.02
351.34	229.14
351.72	229.21
352.10	229.37
352.48	229.43
352.87	229.42
353.25	229.48
353.63	229.69
354.01	229.74
354.39	229.89
354.77	230.00
355.15	230.16
355.54	230.17
355.92	230.25
356.30	230.35
356.68	230.63
357.06	230.74
357.44	230.71
357.82	230.77
358.20	230.88
358.58	230.88
358.97	231.07
359.35	231.10
359.73	231.19
360.11	231.25
360.49	231.27
360.87	231.35
361.25	231.40
361.63	231.47
362.01	231.54
362.39	231.45
362.77	231.48
363.15	231.45
363.53	231.53
363.91	231.55
364.29	231.50
364.67	231.27
365.05	231.26
365.43	231.23
365.81	231.09
366.19	231.10
366.57	231.19
366.95	231.13
367.33	231.16
367.71	231.18
368.09	231.13
368.47	231.08
368.85	231.05
369.23	231.00
369.61	230.90
369.99	230.90
370.37	230.93
370.75	231.02
371.13	231.04
371.51	230.96
371.89	230.92
372.27	230.85
372.65	230.88
373.03	230.75
373.41	230.76
373.78	230.73
374.16	230.57
374.54	230.29
374.92	230.10
375.30	230.00
375.68	229.81
376.06	229.70
376.44	229.60
376.82	229.47
377.19	229.39
377.57	229.27
377.95	229.05
378.33	228.91
378.71	228.70
379.09	228.66
379.47	228.60
379.84	228.45
380.22	228.37
380.60	228.22
380.98	228.15
381.36	228.06
381.73	228.06
382.11	228.00
382.49	228.00
382.87	227.94
383.25	227.82
383.62	227.95
384.00	227.86
384.38	227.85
384.76	227.88
385.13	227.92
385.51	227.90
385.89	227.83
386.27	227.82
386.64	227.69
387.02	227.60
387.40	227.49
387.78	227.45
388.15	227.45
388.53	227.36
388.91	227.30
389.29	227.25
389.66	227.18
390.04	227.20
390.42	227.29
390.79	227.37
391.17	227.34
391.55	227.22
391.92	227.24
392.30	227.28
392.68	227.21
393.05	227.17
393.43	227.20
393.81	227.33
394.18	227.35
394.56	227.46
394.94	227.59
395.31	227.68
395.69	227.75
396.06	227.81
396.44	227.95
396.82	228.10
397.19	228.30
397.57	228.36
397.95	228.39
398.32	228.40
398.70	228.50
399.07	228.65
399.45	228.64
399.82	228.71
400.20	228.76
400.58	228.90
400.95	228.92
401.33	228.97
401.70	229.07
402.08	229.24
402.45	229.44
402.83	229.52
403.20	229.61
403.58	229.80
403.95	229.94
404.33	230.12
404.71	230.25
405.08	230.53
405.46	230.71
405.83	230.97
406.21	231.14
406.58	231.31
406.96	231.57
407.33	231.90
407.70	232.18
408.08	232.60
408.45	232.81
408.83	233.18
409.20	233.48
409.58	233.70
409.95	233.92
410.33	234.23
410.70	234.47
411.08	234.82
411.45	235.15
411.82	235.50
412.20	235.80
412.57	236.30
412.95	236.50
413.32	236.99
413.69	237.30
414.07	237.73
414.44	238.13
414.82	238.50
415.19	239.12
415.56	239.69
415.94	240.19
416.31	240.96
416.68	241.60
417.06	242.37
417.43	243.03
417.81	243.86
418.18	244.61
418.55	245.46
418.93	246.43
419.30	247.31
419.67	248.15
420.04	249.16
420.42	250.01
420.79	251.37
421.16	252.55
421.54	253.90
421.91	255.23
422.28	256.75
422.66	258.19
423.03	259.51
423.40	260.89
423.77	262.48
424.15	264.02
424.52	265.58
424.89	267.31
425.26	268.96
425.64	270.60
426.01	272.36
426.38	274.27
426.75	276.02
427.13	277.94
427.50	279.93
427.87	281.93
428.24	283.99
428.61	285.70
428.99	287.70
429.36	289.93
429.73	292.19
430.10	294.28
430.47	296.43
430.85	298.63
431.22	301.06
431.59	303.64
431.96	306.05
432.33	308.82
432.70	311.37
433.08	314.64
433.45	317.34
433.82	320.13
434.19	323.17
434.56	326.13
434.93	329.02
435.30	332.01
435.68	335.21
436.05	338.26
436.42	341.32
436.79	344.35
437.16	347.27
437.53	350.27
437.90	353.25
438.27	356.30
438.64	359.44
439.01	362.21
439.38	364.62
439.75	366.89
440.13	369.54
440.50	372.00
440.87	373.96
441.24	376.16
441.61	378.49
441.98	380.26
442.35	382.20
442.72	384.31
443.09	386.28
443.46	387.21
443.83	387.94
444.20	388.47
444.57	389.25
444.94	389.60
445.31	390.02
445.68	390.59
446.05	390.69
446.42	390.38
446.79	390.03
447.16	389.45
447.53	389.11
447.90	387.90
448.27	386.63
448.64	384.79
449.01	383.52
449.37	381.51
449.74	379.35
450.11	377.08
450.48	374.32
450.85	371.48
451.22	369.28
451.59	367.17
451.96	365.10
452.33	362.38
452.70	359.74
453.07	356.66
453.43	353.40
453.80	350.52
454.17	347.54
454.54	344.57
454.91	341.70
455.28	338.71
455.65	335.93
456.02	333.50
456.38	331.16
456.75	328.30
457.12	325.71
457.49	323.36
457.86	320.89
458.23	318.77
458.59	316.70
458.96	314.44
459.33	312.39
459.70	310.36
460.07	308.62
460.43	306.79
460.80	305.06
461.17	303.47
461.54	301.67
461.91	300.04
462.27	298.48
462.64	296.96
463.01	295.49
463.38	293.97
463.74	292.34
464.11	291.04
464.48	289.85
464.85	288.61
465.21	287.41
465.58	286.38
465.95	285.13
466.32	283.94
466.68	282.91
467.05	281.75
467.42	280.69
467.78	279.53
468.15	278.59
468.52	277.72
468.88	276.59
469.25	275.63
469.62	274.84
469.98	274.10
470.35	273.31
470.72	272.45
471.08	271.69
471.45	270.79
471.82	270.04
472.18	269.26
472.55	268.71
472.92	268.14
473.28	267.45
473.65	266.86
474.02	266.19
474.38	265.68
474.75	265.09
475.11	264.55
475.48	264.10
475.85	263.65
476.21	263.21
476.58	262.84
476.94	262.56
477.31	262.21
477.67	261.87
478.04	261.64
478.41	261.53
478.77	261.45
479.14	261.25
479.50	261.11
479.87	261.02
480.23	260.74
480.60	260.58
480.96	260.46
481.33	260.39
481.69	260.31
482.06	260.22
482.42	260.30
482.79	260.31
483.15	260.38
483.52	260.38
483.88	260.41
484.25	260.55
484.61	260.66
484.98	260.76
485.34	260.99
485.71	261.15
486.07	261.33
486.44	261.38
486.80	261.64
487.17	261.92
487.53	262.29
487.90	262.80
488.26	263.37
488.62	263.84
488.99	264.44
489.35	265.14
489.72	265.78
490.08	266.55
490.44	267.22
490.81	267.90
491.17	268.79
491.54	269.62
491.90	270.61
492.26	271.61
492.63	272.59
492.99	273.67
493.36	274.80
493.72	276.18
494.08	277.55
494.45	278.99
494.81	280.50
495.17	281.99
495.54	283.63
495.90	285.27
496.26	287.08
496.63	288.94
496.99	291.01
497.35	293.22
497.72	295.46
498.08	297.70
498.44	300.14
498.80	302.69
499.17	305.46
499.53	308.25
499.89	311.23
500.26	314.46
500.62	317.71
500.98	321.19
501.34	324.72
501.71	328.43
502.07	332.25
502.43	336.25
502.79	340.36
503.16	344.66
503.52	349.06
503.88	353.62
504.24	358.38
504.60	363.20
504.97	368.18
505.33	373.46
505.69	379.19
506.05	385.03
506.41	390.89
506.78	396.98
507.14	403.18
507.50	409.70
507.86	416.38
508.22	423.31
508.59	430.25
508.95	437.39
509.31	444.92
509.67	452.76
510.03	460.84
510.39	469.04
510.75	477.45
511.12	486.07
511.48	494.92
511.84	503.82
512.20	513.01
512.56	522.55
512.92	532.27
513.28	542.28
513.64	552.20
514.00	562.31
514.37	573.00
514.73	583.56
515.09	594.11
515.45	605.24
515.81	616.46
516.17	628.10
516.53	640.00
516.89	651.84
517.25	663.74
517.61	675.75
517.97	687.96
518.33	700.10
518.69	712.73
519.05	725.88
519.41	739.08
519.77	752.73
520.13	766.30
520.49	779.60
520.85	793.10
521.21	807.00
521.57	821.41
521.93	835.15
522.29	849.79
522.65	864.10
523.01	878.35
523.37	892.84
523.73	907.40
524.09	921.88
524.45	936.49
524.81	952.06
525.17	967.47
525.53	982.88
525.89	998.83
526.25	1014.37
526.61	1029.65
526.97	1045.50
527.33	1061.15
527.68	1076.94
528.04	1092.80
528.40	1108.80
528.76	1125.72
529.12	1141.84
529.48	1158.44
529.84	1174.07
530.20	1191.07
530.56	1208.32
530.91	1225.35
531.27	1242.01
531.63	1258.74
531.99	1275.72
532.35	1291.66
532.71	1307.72
533.07	1324.19
533.42	1340.42
533.78	1357.07
534.14	1373.46
534.50	1389.51
534.86	1405.43
535.21	1421.26
535.57	1437.91
535.93	1454.22
536.29	1469.41
536.65	1485.20
537.00	1500.51
537.36	1516.94
537.72	1532.02
538.08	1546.91
538.44	1561.83
538.79	1577.24
539.15	1592.01
539.51	1607.15
539.87	1622.68
540.22	1637.91
540.58	1653.22
540.94	1668.10
541.29	1682.29
541.65	1697.05
542.01	1711.67
542.37	1726.07
542.72	1740.28
543.08	1754.28
543.44	1767.89
543.79	1781.04
544.15	1794.59
544.51	1808.71
544.87	1821.72
545.22	1834.81
545.58	1847.45
545.94	1859.16
546.29	1871.14
546.65	1883.35
547.01	1894.97
547.36	1906.42
547.72	1917.28
548.07	1928.25
548.43	1938.99
548.79	1949.73
549.14	1960.03
549.50	1969.71
549.86	1979.47
550.21	1989.11
550.57	1998.60
550.92	2008.25
551.28	2017.56
551.64	2026.20
551.99	2034.81
552.35	2043.79
552.70	2052.72
553.06	2061.62
553.41	2070.64
553.77	2079.22
554.13	2087.57
554.48	2095.94
554.84	2103.55
555.19	2111.82
555.55	2119.71
555.90	2126.90
556.26	2134.25
556.61	2141.24
556.97	2148.12
557.32	2155.37
557.68	2162.19
558.03	2169.21
558.39	2175.23
558.74	2182.90
559.10	2189.65
559.45	2196.03
559.81	2202.50
560.16	2208.14
560.52	2213.54
560.87	2220.14
561.23	2225.35
561.58	2231.18
561.94	2236.24
562.29	2240.99
562.64	2245.38
563.00	2249.40
563.35	2254.71
563.71	2260.35
564.06	2265.55
564.42	2270.30
564.77	2274.75
565.12	2279.73
565.48	2283.36
565.83	2287.31
566.19	2290.23
566.54	2293.23
566.89	2296.24
567.25	2298.89
567.60	2302.09
567.96	2305.09
568.31	2306.96
568.66	2309.25
569.02	2311.45
569.37	2312.94
569.72	2315.16
570.08	2317.13
570.43	2318.48
570.78	2319.05
571.14	2318.68
571.49	2319.21
571.84	2320.88
572.20	2320.43
572.55	2319.71
572.90	2319.21
573.26	2319.38
573.61	2319.08
573.96	2318.58
574.31	2316.98
574.67	2315.00
575.02	2313.08
575.37	2311.84
575.72	2309.47
576.08	2307.70
576.43	2305.32
576.78	2303.84
577.13	2302.43
577.49	2300.20
577.84	2298.35
578.19	2296.06
578.54	2293.48
578.90	2289.60
579.25	2284.76
579.60	2281.81
579.95	2278.60
580.30	2274.66
580.66	2270.70
581.01	2266.60
581.36	2263.04
581.71	2260.20
582.06	2256.93
582.42	2252.87
582.77	2248.38
583.12	2244.25
583.47	2240.23
583.82	2236.43
584.17	2231.77
584.53	2226.69
584.88	2222.20
585.23	2217.56
585.58	2213.27
585.93	2208.63
586.28	2204.58
586.63	2201.07
586.98	2196.70
587.34	2191.88
587.69	2187.65
588.04	2182.67
588.39	2177.92
588.74	2171.59
589.09	2165.43
589.44	2159.68
589.79	2154.60
590.14	2149.56
590.49	2144.87
590.84	2139.05
591.19	2133.29
591.54	2126.77
591.89	2119.75
592.25	2113.51
592.60	2106.59
592.95	2099.47
593.30	2092.90
593.65	2086.54
594.00	2079.40
594.35	2072.81
594.70	2065.47
595.05	2058.93
595.40	2051.75
595.75	2044.60
596.10	2038.98
596.45	2033.17
596.80	2027.34
597.15	2021.38
597.50	2015.04
597.85	2007.96
598.19	2001.74
598.54	1995.10
598.89	1989.11
599.24	1984.08
599.59	1977.98
599.94	1972.12
600.29	1966.27
600.64	1959.90
600.99	1952.67
601.34	1946.40
601.69	1939.57
602.04	1933.80
602.39	1927.31
602.74	1922.19
603.08	1916.18
603.43	1909.91
603.78	1903.07
604.13	1895.94
604.48	1888.45
604.83	1881.00
605.18	1874.58
605.53	1867.07
605.87	1858.86
606.22	1852.30
606.57	1844.59
606.92	1837.48
607.27	1830.16
607.62	1823.41
607.96	1816.56
608.31	1810.04
608.66	1802.55
609.01	1794.87
609.36	1786.83
609.70	1778.27
610.05	1768.89
610.40	1760.60
610.75	1752.39
611.10	1743.95
611.44	1735.39
611.79	1727.65
612.14	1719.50
612.49	1710.20
612.83	1701.69
613.18	1694.11
613.53	1685.19
613.88	1676.58
614.22	1667.84
614.57	1658.95
614.92	1650.10
615.27	1642.05
615.61	1633.35
615.96	1625.20
616.31	1617.57
616.65	1610.39
617.00	1602.74
617.35	1595.34
617.70	1587.00
618.04	1578.40
618.39	1570.57
618.74	1563.05
619.08	1554.50
619.43	1546.20
619.78	1538.92
620.12	1531.41
620.47	1523.50
620.82	1515.87
621.16	1508.01
621.51	1500.46
621.85	1493.03
622.20	1484.48
622.55	1476.10
622.89	1468.44
623.24	1460.53
623.59	1452.44
623.93	1444.29
624.28	1436.50
624.62	1428.74
624.97	1421.56
625.32	1414.42
625.66	1407.20
626.01	1399.42
626.35	1392.11
626.70	1384.79
627.04	1377.57
627.39	1369.74
627.73	1362.10
628.08	1354.29
628.43	1346.48
628.77	1338.73
629.12	1331.12
629.46	1323.92
629.81	1315.89
630.15	1307.73
630.50	1299.62
630.84	1291.50
631.19	1283.32
631.53	1275.52
631.88	1267.25
632.22	1259.14
632.57	1251.38
632.91	1242.97
633.26	1234.96
633.60	1226.67
633.95	1218.56
634.29	1210.67
634.64	1203.47
634.98	1195.99
635.32	1188.86
635.67	1182.17
636.01	1175.20
636.36	1168.02
636.70	1161.10
637.05	1154.57
637.39	1148.01
637.73	1141.33
638.08	1135.10
638.42	1128.88
638.77	1122.55
639.11	1115.91
639.45	1109.16
639.80	1102.20
640.14	1095.74
640.49	1089.07
640.83	1082.52
641.17	1076.15
641.52	1069.36
641.86	1062.85
642.20	1056.51
642.55	1049.70
642.89	1042.90
643.23	1035.83
643.58	1029.42
643.92	1022.64
644.26	1015.79
644.61	1009.77
644.95	1003.40
645.29	996.19
645.64	988.86
645.98	982.04
646.32	976.00
646.66	969.47
647.01	963.10
647.35	956.88
647.69	950.82
648.04	945.03
648.38	938.77
648.72	932.48
649.06	925.68
649.41	919.23
649.75	912.74
650.09	906.01
650.43	899.50
650.78	892.61
651.12	886.37
651.46	880.24
651.80	873.79
652.14	867.59
652.49	861.85
652.83	856.14
653.17	850.00
653.51	843.61
653.85	837.67
654.20	831.73
654.54	825.49
654.88	819.19
655.22	812.86
655.56	806.50
655.90	800.57
656.25	794.98
656.59	788.99
656.93	783.38
657.27	778.08
657.61	772.24
657.95	766.97
658.29	761.19
658.64	755.69
658.98	749.83
659.32	743.97
659.66	738.32
660.00	732.74
660.34	727.29
660.68	722.00
661.02	716.49
661.36	711.33
661.70	706.13
662.05	701.14
662.39	696.48
662.73	691.94
663.07	687.32
663.41	682.45
663.75	677.74
664.09	672.99
664.43	668.08
664.77	663.77
665.11	659.36
665.45	655.27
665.79	650.68
666.13	646.20
666.47	641.90
666.81	637.40
667.15	632.83
667.49	628.44
667.83	624.62
668.17	620.53
668.51	616.03
668.85	611.94
669.19	608.20
669.53	603.91
669.87	599.80
670.21	595.66
670.55	591.73
670.89	588.00
671.23	584.40
671.57	580.75
671.91	577.09
672.25	573.27
672.58	569.32
672.92	565.64
673.26	562.34
673.60	559.07
673.94	555.79
674.28	552.76
674.62	549.71
674.96	546.06
675.30	542.92
675.64	539.90
675.97	536.70
676.31	533.45
676.65	530.44
676.99	527.54
677.33	524.48
677.67	521.33
678.01	518.00
678.34	514.52
678.68	511.60
679.02	508.59
679.36	505.59
679.70	502.68
680.04	499.84
680.37	496.77
680.71	493.85
681.05	491.28
681.39	488.44
681.73	485.82
682.06	483.25
682.40	480.68
682.74	477.99
683.08	475.52
683.42	472.81
683.75	470.03
684.09	467.19
684.43	464.58
684.77	462.12
685.10	459.61
685.44	457.32
685.78	454.76
686.12	452.27
686.45	449.81
686.79	447.38
687.13	445.20
687.46	442.68
687.80	440.24
688.14	437.62
688.48	435.44
688.81	432.70
689.15	430.38
689.49	428.01
689.82	425.72
690.16	423.17
690.50	421.05
690.83	418.90
691.17	416.65
691.51	414.30
691.84	412.26
692.18	410.16
692.52	407.83
692.85	405.56
693.19	403.42
693.52	401.35
693.86	399.17
694.20	396.98
694.53	395.12
694.87	393.14
695.21	391.12
695.54	388.93
695.88	386.98
696.21	384.85
696.55	382.86
696.88	380.96
697.22	379.16
697.56	377.14
697.89	375.33
698.23	373.53
698.56	371.89
698.90	369.99
699.23	368.09
699.57	366.51
699.90	364.95
700.24	363.26
700.58	361.59
700.91	359.98
701.25	358.36
701.58	356.88
701.92	355.30
702.25	353.74
702.59	352.28
702.92	351.01
703.26	349.66
703.59	348.26
703.93	346.99
704.26	345.61
704.60	344.23
704.93	342.83
705.26	341.43
705.60	340.17
705.93	338.85
706.27	337.78
706.60	336.56
706.94	335.41
707.27	334.06
707.61	332.79
707.94	331.62
708.27	330.50
708.61	329.04
708.94	327.96
709.28	326.94
709.61	325.90
709.94	324.84
710.28	323.65
710.61	322.47
710.95	321.10
711.28	320.09
711.61	319.00
711.95	318.00
712.28	317.01
712.61	315.99
712.95	314.98
713.28	313.96
713.61	312.90
713.95	311.73
714.28	310.83
714.61	309.95
714.95	309.01
715.28	307.90
715.61	307.10
715.95	306.05
716.28	305.15
716.61	304.22
716.95	303.25
717.28	302.42
717.61	301.63
717.94	301.00
718.28	300.13
718.61	299.28
718.94	298.40
719.27	297.63
719.61	296.77
719.94	296.09
720.27	295.22
720.60	294.49
720.94	293.76
721.27	293.10
721.60	292.39
721.93	291.70
722.27	291.09
722.60	290.37
722.93	289.78
723.26	289.10
723.59	288.34
723.93	287.69
724.26	287.11
724.59	286.43
724.92	285.72
725.25	285.13
725.59	284.51
725.92	283.90
726.25	283.29
726.58	282.76
726.91	282.09
727.24	281.58
727.57	280.88
727.91	280.32
728.24	279.83
728.57	279.10
728.90	278.59
729.23	277.93
729.56	277.50
729.89	277.02
730.22	276.44
730.55	275.88
730.89	275.35
731.22	274.68
731.55	274.18
731.88	273.62
732.21	273.06
732.54	272.59
732.87	272.09
733.20	271.62
733.53	271.22
733.86	270.77
734.19	270.20
734.52	269.87
734.85	269.45
735.18	268.83
735.51	268.43
735.84	268.02
736.17	267.61
736.50	266.95
736.83	266.59
737.16	266.03
737.49	265.65
737.82	265.16
738.15	264.78
738.48	264.30
738.81	263.91
739.14	263.48
739.47	262.99
739.80	262.58
740.13	262.04
740.46	261.51
740.79	261.05
741.12	260.75
741.45	260.32
741.78	259.86
742.11	259.52
742.44	259.10
742.77	258.73
743.10	258.34
743.43	258.00
743.75	257.46
744.08	257.55
744.41	257.08
744.74	256.75
745.07	256.52
745.40	256.30
745.73	256.02
746.06	255.70
746.39	255.48
746.71	255.07
747.04	254.88
747.37	254.66
747.70	254.38
748.03	253.99
748.36	253.69
748.68	253.35
749.01	253.09
749.34	252.82
749.67	252.44
750.00	252.20
750.33	252.18
750.65	251.90
750.98	251.28
751.31	251.13
751.64	250.90
751.97	250.67
752.29	250.32
752.62	249.89
752.95	249.60
753.28	249.30
753.60	249.13
753.93	248.98
754.26	248.61
754.59	248.29
754.91	248.01
755.24	247.83
755.57	247.69
755.90	247.45
756.22	247.31
756.55	247.10
756.88	246.88
757.20	246.44
757.53	246.19
757.86	245.99
758.19	245.77
758.51	245.56
758.84	245.22
759.17	245.09
759.49	245.00
759.82	244.87
760.15	244.65
760.47	244.60
760.80	244.45
761.13	244.44
761.45	244.35
761.78	244.28
762.11	244.06
762.43	243.76
762.76	243.53
763.08	243.34
763.41	243.18
763.74	242.97
764.06	242.85
764.39	242.70
764.71	242.47
765.04	242.38
765.37	242.15
765.69	242.10
766.02	241.92
766.34	241.69
766.67	241.60
767.00	241.54
767.32	241.45
767.65	241.29
767.97	240.96
768.30	240.88
768.62	240.74
768.95	240.65
769.27	240.51
769.60	240.43
769.92	240.22
770.25	240.05
770.57	239.96
770.90	239.73
771.22	239.50
771.55	239.41
771.87	239.25
772.20	239.10
772.52	239.04
772.85	239.19
773.17	239.15
773.50	238.98
773.82	238.74
774.15	238.49
774.47	238.34
774.80	238.26
775.12	238.07
775.45	237.90
775.77	237.72
776.09	237.62
776.42	237.49
776.74	237.54
777.07	237.44
777.39	237.36
777.72	237.28
778.04	237.23
778.36	237.20
778.69	237.12
779.01	237.08
779.33	236.80
779.66	236.50
779.98	236.30
780.31	236.16
780.63	236.16
780.95	235.97
781.28	235.66
781.60	235.51
781.92	235.38
782.25	235.31
782.57	235.25
782.89	235.25
783.22	235.18
783.54	234.97
783.86	234.88
784.19	234.70
784.51	234.74
784.83	234.78
785.16	234.64
785.48	234.50
785.80	234.46
786.12	234.53
786.45	234.44
786.77	234.44
787.09	234.35
787.42	234.30
787.74	234.37
788.06	234.43
788.38	234.39
788.71	234.34
789.03	234.36
789.35	234.21
789.67	234.14
789.99	234.10
790.32	234.01
790.64	233.93
790.96	234.07
791.28	233.96
791.61	233.98
791.93	233.97
792.25	233.95
792.57	234.08
792.89	234.00
793.21	233.93
793.54	233.91
793.86	233.88
794.18	233.81
794.50	233.76
794.82	233.71
795.14	233.73
795.47	233.75
795.79	233.63
796.11	233.65
796.43	233.57
796.75	233.54
797.07	233.55
797.39	233.62
797.71	233.53
798.04	233.48
798.36	233.37
798.68	233.40
799.00	233.32
799.32	233.14
799.64	233.13
799.96	233.17
800.28	233.20
800.60	233.22
800.92	233.15
801.24	233.13
801.56	233.11
801.89	233.17
802.21	233.10
802.53	233.04
802.85	233.11
803.17	233.24
803.49	233.21
803.81	233.18
804.13	233.13
804.45	233.00
804.77	232.96
805.09	232.90
805.41	232.81
805.73	232.89
806.05	232.77
806.37	232.60
806.69	232.61
807.01	232.57
807.33	232.53
807.65	232.53
807.97	232.59
808.28	232.54
808.60	232.40
808.92	232.44
809.24	232.51
809.56	232.34
809.88	232.23
810.20	232.11
810.52	232.10
810.84	232.04
811.16	232.05
811.48	232.05
811.80	232.00
812.12	231.97
812.43	231.93
812.75	231.93
813.07	231.93
813.39	231.75
813.71	231.64
814.03	231.58
814.35	231.61
814.67	231.35
814.98	231.23
815.30	231.10
815.62	230.96
815.94	230.80
816.26	230.95
816.58	230.82
816.89	230.80
817.21	230.64
817.53	230.59
817.85	230.48
818.17	230.37
818.48	230.23
818.80	230.11
819.12	230.02
819.44	230.00
819.76	229.91
820.07	229.88
820.39	229.83
820.71	229.74
821.03	229.63
821.34	229.65
821.66	229.58
821.98	229.67
822.30	229.66
822.61	229.78
822.93	229.59
823.25	229.66
823.57	229.70
823.88	229.76
824.20	229.68
824.52	229.79
824.83	229.81
825.15	229.80
825.47	229.86
825.79	229.74
826.10	229.65
826.42	229.60
826.74	229.54
827.05	229.62
827.37	229.63
827.69	229.63
828.00	229.70
828.32	229.76
828.64	229.73
828.95	229.71
829.27	229.63
829.58	229.64
829.90	229.65
830.22	229.53
830.53	229.58
830.85	229.56
831.17	229.42
831.48	229.40
831.80	229.48
832.11	229.45
832.43	229.54
832.75	229.54
833.06	229.77
833.38	229.79
833.69	229.66
834.01	229.62
834.32	229.64
834.64	229.57
834.96	229.66
835.27	229.60
835.59	229.71
835.90	229.63
836.22	229.69
836.53	229.58
836.85	229.67
837.16	229.75
837.48	229.85
837.79	229.89
838.11	229.91
838.42	229.91
838.74	230.01
839.05	230.00
839.37	229.91
839.68	229.78
840.00	229.74
840.31	229.81
840.63	229.82
840.94	229.74
841.26	229.78
841.57	229.64
841.88	229.72
842.20	229.61
842.51	229.60
842.83	229.67
843.14	229.88
843.46	229.88
843.77	229.88
844.08	229.89
844.40	229.85
844.71	229.75
845.03	229.70
845.34	229.70
845.65	229.61
845.97	229.79
846.28	229.76
846.60	229.83
846.91	229.86
847.22	229.88
847.54	229.89
847.85	229.92
848.16	229.94
848.48	229.88
848.79	230.01
849.10	230.09
849.42	229.98
849.73	229.78
850.04	229.76
850.36	229.60
850.67	229.56
850.98	229.59
851.30	229.70
851.61	229.59
851.92	229.54
852.23	229.63
852.55	229.63
852.86	229.68
853.17	229.69
853.49	229.64
853.80	229.72
854.11	229.74
854.42	229.70
854.74	229.69
855.05	229.70
855.36	229.50
855.67	229.50
855.99	229.46
856.30	229.67
856.61	229.62
856.92	229.64
857.23	229.59
857.55	229.46
857.86	229.36
858.17	229.48
858.48	229.42
858.79	229.30
859.11	229.25
859.42	229.14
859.73	229.05
860.04	228.97
860.35	228.78
860.66	228.65
860.98	228.72
861.29	228.75
861.60	228.75
861.91	228.76
862.22	228.65
862.53	228.69
862.84	228.46
863.16	228.45
863.47	228.36
863.78	228.32
864.09	228.37
864.40	228.35
864.71	228.25
865.02	228.21
865.33	228.20
865.64	228.10
865.95	228.09
866.27	228.22
866.58	228.27
866.89	228.38
867.20	228.44
867.51	228.28
867.82	228.20
868.13	228.24
868.44	228.27
868.75	228.36
869.06	228.27
869.37	228.25
869.68	228.19
869.99	228.23
870.30	228.29
870.61	228.25
870.92	228.19
871.23	228.20
871.54	228.27
871.85	228.33
872.16	228.44
872.47	228.37
872.78	228.27
873.09	228.20
873.40	228.12
873.71	228.21
874.02	228.30
874.33	228.34
874.64	228.31
874.95	228.43
875.26	228.33
875.56	228.37
875.87	228.41
876.18	228.47
876.49	228.81
876.80	228.84
877.11	228.90
877.42	229.04
877.73	229.16
878.04	229.10
878.35	229.18
878.66	229.05
878.96	229.15
879.27	229.12
879.58	229.23
879.89	229.35
880.20	229.42
880.51	229.40
880.82	229.44
881.12	229.40
881.43	229.30
881.74	229.35
882.05	229.40
882.36	229.41
882.67	229.38
882.97	229.08
883.28	229.03
883.59	229.05
883.90	229.03
884.21	229.10
884.51	229.17
884.82	229.11
885.13	229.23
885.44	229.25
885.74	229.31
886.05	229.21
886.36	229.21
886.67	229.12
886.98	229.28
887.28	229.29
887.59	229.30
887.90	229.34
888.20	229.36
888.51	229.40
888.82	229.36
889.13	229.38
889.43	229.60
889.74	229.64
890.05	229.62
890.35	229.61
890.66	229.47
890.97	229.43
891.28	229.43
891.58	229.42
891.89	229.42
892.20	229.41
892.50	229.42
892.81	229.41
893.12	229.37
893.42	229.15
893.73	229.16
894.04	229.19
894.34	229.15
894.65	229.01
894.95	228.93
895.26	228.85
895.57	228.91
895.87	228.64
896.18	228.51
896.48	228.53
896.79	228.48
897.10	228.46
897.40	228.44
897.71	228.47
898.01	228.46
898.32	228.38
898.63	228.35
898.93	228.29
899.24	228.18
899.54	228.13
899.85	228.18
900.15	228.00
900.46	227.84
900.76	227.85
901.07	227.92
901.38	227.87
901.68	227.84
901.99	227.78
902.29	227.76
902.60	227.83
902.90	227.76
903.21	227.71
903.51	227.73
903.82	227.72
904.12	227.70
904.43	227.65
904.73	227.69
905.03	227.61
905.34	227.87
905.64	227.90
905.95	227.97
906.25	227.90
906.56	227.91
906.86	227.96
907.17	227.93
907.47	227.90
907.77	227.95
908.08	228.03
908.38	228.12
908.69	228.14
908.99	228.19
909.30	228.26
909.60	228.33
909.90	228.35
910.21	228.40
910.51	228.35
910.81	228.46
911.12	228.49
911.42	228.55
911.73	228.34
912.03	228.29
912.33	228.22
912.64	228.38
912.94	228.50
913.24	228.54
913.55	228.49
913.85	228.56
914.15	228.60
914.46	228.58
914.76	228.55
915.06	228.57
915.37	228.57
915.67	228.54
915.97	228.55
916.27	228.58
916.58	228.56
916.88	228.57
917.18	228.48
917.49	228.71
917.79	228.80
918.09	228.85
918.39	228.97
918.70	229.00
919.00	228.93
919.30	229.04
919.60	229.07
919.91	229.11
920.21	229.17
920.51	229.14
920.81	229.21
921.12	229.27
921.42	229.21
921.72	229.21
922.02	229.26
922.32	229.33
922.63	229.37
922.93	229.50
923.23	229.47
923.53	229.50
923.83	229.37
924.13	229.39
924.44	229.44
924.74	229.48
925.04	229.60
925.34	229.74
925.64	229.69
925.94	229.76
926.24	229.89
926.55	229.77
926.85	229.80
927.15	229.81
927.45	229.80
927.75	229.84
928.05	229.92
928.35	229.92
928.65	229.92
928.95	229.93
929.26	229.78
929.56	229.98
929.86	229.95
930.16	229.86
930.46	229.77
930.76	229.82
931.06	229.74
931.36	229.61
931.66	229.52
931.96	229.50
932.26	229.38
932.56	229.29
932.86	229.31
933.16	229.29
933.46	229.26
933.76	229.11
934.06	229.19
934.36	229.10
934.66	229.01
934.96	228.97
935.26	228.93
935.56	229.05
935.86	228.88
936.16	228.82
936.46	228.72
936.76	228.70
937.06	228.51
937.36	228.38
937.66	228.33
937.96	228.18
938.26	228.07
938.56	227.97
938.86	227.83
939.16	227.82
939.46	227.72
939.76	227.69
940.06	227.68
940.35	227.60
940.65	227.44
940.95	227.39
941.25	227.27
941.55	227.21
941.85	227.07
942.15	227.03
942.45	227.08
942.75	227.13
943.04	227.14
943.34	227.21
943.64	227.24
943.94	227.22
944.24	227.31
944.54	227.29
944.84	227.30
945.13	227.30
945.43	227.27
945.73	227.28
946.03	227.15
946.33	227.15
946.62	227.02
946.92	227.12
947.22	227.21
947.52	227.25
947.82	227.23
948.11	227.02
948.41	226.92
948.71	226.88
949.01	226.92
949.31	226.81
949.60	226.74
949.90	226.80
950.20	226.82
950.50	226.80
950.79	226.80
951.09	226.93
951.39	227.00
951.69	226.86
951.98	226.92
952.28	227.12
952.58	227.23
952.87	227.33
953.17	227.31
953.47	227.25
953.76	227.28
954.06	227.28
954.36	227.52
954.66	227.67
954.95	227.76
955.25	227.73
955.55	227.91
955.84	227.97
956.14	228.11
956.44	228.24
956.73	228.20
957.03	228.26
957.32	228.25
957.62	228.25
957.92	228.42
958.21	228.41
958.51	228.58
958.81	228.57
959.10	228.55
959.40	228.70
959.69	228.80
959.99	228.81
960.29	228.89
960.58	228.88
960.88	228.98
961.17	228.92
961.47	228.90
961.76	228.84
962.06	228.90
962.36	228.82
962.65	228.77
962.95	228.84
963.24	228.83
963.54	228.85
963.83	228.95
964.13	229.10
964.42	229.13
964.72	229.00
965.01	228.97
965.31	229.06
965.60	228.92
965.90	229.07
966.19	229.07
966.49	229.05
966.78	229.12
967.08	229.06
967.37	229.15
967.67	229.09
967.96	229.19
968.26	229.12
968.55	229.12
968.85	229.14
969.14	229.12
969.43	229.11
969.73	229.20
970.02	229.12
970.32	228.93
970.61	228.85
970.91	228.76
971.20	228.75
971.49	228.70
971.79	228.70
972.08	228.48
972.38	228.44
972.67	228.42
972.96	228.30
973.26	228.27
973.55	228.22
973.85	228.19
974.14	228.15
974.43	228.08
974.73	228.09
975.02	227.95
975.31	227.93
975.61	227.87
975.90	227.70
976.19	227.67
976.49	227.81
976.78	227.86
977.07	227.85
977.37	227.77
977.66	227.66
977.95	227.62
978.24	227.71
978.54	227.85
978.83	227.86
979.12	227.79
979.42	227.67
979.71	227.63
980.00	227.68
980.29	227.61
980.59	227.68
980.88	227.60
981.17	227.58
981.46	227.53
981.76	227.55
982.05	227.64
982.34	227.65
982.63	227.53
982.93	227.38
983.22	227.39
983.51	227.39
983.80	227.47
984.09	227.58
984.39	227.53
984.68	227.51
984.97	227.46
985.26	227.45
985.55	227.48
985.85	227.50
986.14	227.57
986.43	227.55
986.72	227.53
987.01	227.48
987.30	227.56
987.59	227.64
987.89	227.64
988.18	227.63
988.47	227.66
988.76	227.85
989.05	227.96
989.34	228.04
989.63	228.20
989.92	228.20
990.22	228.14
990.51	228.12
990.80	228.10
991.09	228.19
991.38	228.31
991.67	228.50
991.96	228.47
992.25	228.42
992.54	228.47
992.83	228.47
993.12	228.56
993.41	228.62
993.70	228.76
993.99	228.92
994.28	228.94
994.58	228.91
994.87	228.82
995.16	228.72
995.45	228.69
995.74	228.63
996.03	228.62
996.32	228.65
996.61	228.76
996.90	228.69
997.19	228.72
997.48	228.79
997.77	228.70
998.06	228.81
998.34	228.88
998.63	228.98
998.92	229.03
999.21	229.11
999.50	229.17
999.79	229.04
1000.08	228.99
1000.37	229.05
1000.66	229.18
1000.95	229.18
1001.24	229.40
1001.53	229.41
1001.82	229.41
1002.11	229.47
1002.40	229.50
1002.68	229.48
1002.97	229.68
1003.26	229.58
1003.55	229.54
1003.84	229.54
1004.13	229.53
1004.42	229.58
1004.71	229.48
1004.99	229.50
1005.28	229.49
1005.57	229.49
1005.86	229.48
1006.15	229.45
1006.44	229.41
1006.72	229.40
1007.01	229.32
1007.30	229.30
1007.59	229.25
1007.88	229.17
1008.17	229.14
1008.45	229.07
1008.74	229.01
1009.03	228.83
1009.32	228.90
1009.60	228.78
1009.89	228.74
1010.18	228.63
1010.47	228.65
1010.76	228.60
1011.04	228.56
1011.33	228.48
1011.62	228.48
1011.91	228.58
1012.19	228.59
1012.48	228.50
1012.77	228.43
1013.05	228.55
1013.34	228.51
1013.63	228.54
1013.92	228.55
1014.20	228.47
1014.49	228.47
1014.78	228.45
1015.06	228.30
1015.35	228.26
1015.64	228.30
1015.92	228.32
1016.21	228.33
1016.50	228.17
1016.78	228.20
1017.07	228.16
1017.36	228.06
1017.64	227.94
1017.93	227.77
1018.22	227.71
1018.50	227.68
1018.79	227.57
1019.08	227.44
1019.36	227.39
1019.65	227.33
1019.93	227.33
1020.22	227.38
1020.51	227.47
1020.79	227.44
1021.08	228.10
1021.36	227.00
1021.65	226.30
1021.94	227.70
1022.22	227.20
1022.51	227.50
1022.79	227.80
1023.08	227.50
1023.36	229.60
1023.65	227.10
>>>>>End Processed Spectral Data<<<<<
