SpectraSuite Data File
++++++++++++++++++++++++++++++++++++
Date: Fri Feb 01 14:39:23 EST 2013
User: group
Dark Spectrum Present: No
Reference Spectrum Present: No
Number of Sampled Component Spectra: 1
Spectrometers: USB2E7196
Integration Time (usec): 70000 (USB2E7196)
Spectra Averaged: 10 (USB2E7196)
Boxcar Smoothing: 10 (USB2E7196)
Correct for Electrical Dark: No (USB2E7196)
Strobe/Lamp Enabled: No (USB2E7196)
Correct for Detector Non-linearity: No (USB2E7196)
Correct for Stray Light: No (USB2E7196)
Number of Pixels in Processed Spectrum: 2048
>>>>>Begin Processed Spectral Data<<<<<
339.09	0.00
339.48	218.10
339.86	218.10
340.24	220.00
340.63	222.40
341.01	225.20
341.39	225.20
341.78	223.70
342.16	227.70
342.54	226.50
342.93	215.53
343.31	226.31
343.69	226.90
344.07	227.38
344.46	227.78
344.84	228.07
345.22	228.14
345.60	228.34
345.99	228.45
346.37	228.50
346.75	228.55
347.13	228.54
347.52	228.53
347.90	228.57
348.28	228.47
348.66	228.43
349.05	228.50
349.43	228.50
349.81	228.43
350.19	228.45
350.57	228.55
350.96	228.52
351.34	228.71
351.72	228.74
352.10	228.90
352.48	229.00
352.87	228.93
353.25	229.05
353.63	229.10
354.01	229.24
354.39	229.29
354.77	229.38
355.15	229.52
355.54	229.60
355.92	229.64
356.30	229.75
356.68	229.92
357.06	229.91
357.44	229.93
357.82	230.00
358.20	230.10
358.58	230.14
358.97	230.21
359.35	230.29
359.73	230.21
360.11	230.12
360.49	230.05
360.87	230.28
361.25	230.38
361.63	230.49
362.01	230.56
362.39	230.60
362.77	230.63
363.15	230.67
363.53	230.59
363.91	230.60
364.29	230.54
364.67	230.40
365.05	230.40
365.43	230.31
365.81	230.29
366.19	230.25
366.57	230.21
366.95	230.14
367.33	229.99
367.71	229.98
368.09	230.01
368.47	230.01
368.85	229.85
369.23	229.81
369.61	229.69
369.99	229.67
370.37	229.66
370.75	229.71
371.13	229.58
371.51	229.55
371.89	229.56
372.27	229.60
372.65	229.54
373.03	229.40
373.41	229.38
373.78	229.30
374.16	229.18
374.54	229.11
374.92	229.05
375.30	228.99
375.68	228.83
376.06	228.68
376.44	228.62
376.82	228.64
377.19	228.59
377.57	228.43
377.95	228.30
378.33	228.17
378.71	228.00
379.09	227.97
379.47	227.93
379.84	227.80
380.22	227.67
380.60	227.61
380.98	227.60
381.36	227.70
381.73	227.58
382.11	227.49
382.49	227.37
382.87	227.25
383.25	227.23
383.62	227.47
384.00	227.40
384.38	227.40
384.76	227.36
385.13	227.37
385.51	227.34
385.89	227.34
386.27	227.34
386.64	227.27
387.02	227.21
387.40	227.18
387.78	227.18
388.15	227.14
388.53	227.08
388.91	227.04
389.29	226.83
389.66	226.78
390.04	226.77
390.42	226.85
390.79	226.90
391.17	226.84
391.55	226.67
391.92	226.66
392.30	226.61
392.68	226.50
393.05	226.39
393.43	226.43
393.81	226.40
394.18	226.43
394.56	226.49
394.94	226.55
395.31	226.55
395.69	226.61
396.06	226.57
396.44	226.66
396.82	226.80
397.19	227.00
397.57	227.08
397.95	227.30
398.32	227.15
398.70	227.25
399.07	227.46
399.45	227.48
399.82	227.61
400.20	227.68
400.58	227.78
400.95	227.76
401.33	227.85
401.70	228.02
402.08	228.12
402.45	228.21
402.83	228.36
403.20	228.49
403.58	228.64
403.95	228.84
404.33	229.05
404.71	229.16
405.08	229.40
405.46	229.60
405.83	229.71
406.21	229.95
406.58	230.17
406.96	230.28
407.33	230.37
407.70	230.60
408.08	230.97
408.45	231.19
408.83	231.62
409.20	231.80
409.58	231.97
409.95	232.21
410.33	232.53
410.70	232.65
411.08	232.93
411.45	233.28
411.82	233.61
412.20	233.90
412.57	234.26
412.95	234.49
413.32	234.95
413.69	235.23
414.07	235.82
414.44	236.30
414.82	236.86
415.19	237.56
415.56	238.12
415.94	238.70
416.31	239.38
416.68	239.97
417.06	240.72
417.43	241.53
417.81	242.29
418.18	243.00
418.55	243.92
418.93	244.80
419.30	245.65
419.67	246.59
420.04	247.64
420.42	248.70
420.79	249.98
421.16	251.13
421.54	252.48
421.91	253.64
422.28	254.84
422.66	256.10
423.03	257.61
423.40	258.94
423.77	260.31
424.15	261.86
424.52	263.40
424.89	265.24
425.26	266.79
425.64	268.30
426.01	269.98
426.38	271.70
426.75	273.74
427.13	275.50
427.50	277.43
427.87	279.41
428.24	281.39
428.61	283.25
428.99	285.47
429.36	287.70
429.73	289.98
430.10	292.29
430.47	294.65
430.85	296.77
431.22	299.39
431.59	302.11
431.96	304.57
432.33	307.20
432.70	309.82
433.08	313.13
433.45	316.07
433.82	318.95
434.19	322.30
434.56	325.30
434.93	328.27
435.30	331.18
435.68	334.47
436.05	337.86
436.42	341.11
436.79	344.04
437.16	347.05
437.53	350.32
437.90	353.45
438.27	356.70
438.64	359.98
439.01	363.01
439.38	365.78
439.75	368.43
440.13	371.51
440.50	374.31
440.87	376.47
441.24	378.83
441.61	381.61
441.98	383.52
442.35	385.83
442.72	388.35
443.09	390.81
443.46	392.19
443.83	393.00
444.20	393.65
444.57	394.65
444.94	395.30
445.31	396.06
445.68	396.89
446.05	397.02
446.42	396.92
446.79	396.79
447.16	396.28
447.53	396.18
447.90	395.09
448.27	393.89
448.64	392.18
449.01	391.22
449.37	389.10
449.74	387.10
450.11	384.74
450.48	382.02
450.85	379.24
451.22	376.81
451.59	374.57
451.96	372.56
452.33	369.81
452.70	367.29
453.07	364.12
453.43	360.89
453.80	358.10
454.17	355.10
454.54	352.14
454.91	349.18
455.28	346.15
455.65	343.35
456.02	340.80
456.38	338.59
456.75	335.47
457.12	333.01
457.49	330.42
457.86	327.94
458.23	325.92
458.59	323.65
458.96	321.39
459.33	319.36
459.70	317.38
460.07	315.65
460.43	313.69
460.80	311.86
461.17	310.27
461.54	308.51
461.91	306.78
462.27	305.07
462.64	303.50
463.01	301.93
463.38	300.46
463.74	298.68
464.11	297.04
464.48	295.97
464.85	294.63
465.21	293.68
465.58	292.60
465.95	291.24
466.32	290.03
466.68	288.87
467.05	287.76
467.42	286.57
467.78	285.51
468.15	284.57
468.52	283.79
468.88	282.50
469.25	281.44
469.62	280.73
469.98	279.88
470.35	279.07
470.72	278.28
471.08	277.34
471.45	276.74
471.82	276.07
472.18	275.26
472.55	274.52
472.92	273.67
473.28	272.95
473.65	272.25
474.02	271.73
474.38	271.18
474.75	270.52
475.11	269.90
475.48	269.32
475.85	268.68
476.21	268.07
476.58	267.78
476.94	267.30
477.31	266.96
477.67	266.51
478.04	266.17
478.41	265.75
478.77	265.66
479.14	265.20
479.50	265.00
479.87	264.72
480.23	264.64
480.60	264.35
480.96	264.01
481.33	263.86
481.69	263.51
482.06	263.25
482.42	263.10
482.79	262.97
483.15	262.74
483.52	262.67
483.88	262.52
484.25	262.43
484.61	262.37
484.98	262.14
485.34	262.09
485.71	262.11
486.07	262.14
486.44	261.96
486.80	261.98
487.17	261.95
487.53	262.15
487.90	262.10
488.26	262.32
488.62	262.51
488.99	262.61
489.35	262.86
489.72	263.10
490.08	263.28
490.44	263.37
490.81	263.69
491.17	263.79
491.54	264.02
491.90	264.24
492.26	264.53
492.63	264.85
492.99	265.05
493.36	265.27
493.72	265.46
494.08	265.72
494.45	266.10
494.81	266.49
495.17	266.65
495.54	267.04
495.90	267.30
496.26	267.63
496.63	268.08
496.99	268.49
497.35	268.92
497.72	269.42
498.08	269.89
498.44	270.15
498.80	270.83
499.17	271.34
499.53	271.76
499.89	272.31
500.26	272.87
500.62	273.59
500.98	274.28
501.34	274.97
501.71	275.80
502.07	276.56
502.43	277.32
502.79	278.09
503.16	278.86
503.52	279.70
503.88	280.50
504.24	281.40
504.60	282.22
504.97	283.20
505.33	284.14
505.69	285.20
506.05	286.41
506.41	287.42
506.78	288.64
507.14	289.88
507.50	291.12
507.86	292.50
508.22	293.87
508.59	295.22
508.95	296.72
509.31	298.18
509.67	299.70
510.03	301.32
510.39	303.13
510.75	304.95
511.12	306.92
511.48	308.88
511.84	310.97
512.20	313.12
512.56	315.14
512.92	317.32
513.28	319.84
513.64	322.20
514.00	324.70
514.37	327.30
514.73	329.94
515.09	332.72
515.45	335.50
515.81	338.42
516.17	341.53
516.53	344.63
516.89	347.72
517.25	350.95
517.61	354.24
517.97	357.61
518.33	361.14
518.69	364.67
519.05	368.35
519.41	372.00
519.77	376.06
520.13	380.27
520.49	384.45
520.85	388.52
521.21	392.99
521.57	397.47
521.93	401.64
522.29	406.29
522.65	411.02
523.01	415.69
523.37	420.41
523.73	425.11
524.09	430.22
524.45	435.28
524.81	440.58
525.17	446.07
525.53	451.39
525.89	456.86
526.25	462.56
526.61	468.29
526.97	473.99
527.33	479.91
527.68	485.81
528.04	491.90
528.40	498.01
528.76	504.34
529.12	510.69
529.48	517.46
529.84	524.04
530.20	530.45
530.56	537.42
530.91	544.40
531.27	551.58
531.63	558.57
531.99	565.60
532.35	572.55
532.71	579.31
533.07	586.61
533.42	593.86
533.78	601.20
534.14	608.72
534.50	616.00
534.86	623.11
535.21	630.56
535.57	638.18
535.93	645.93
536.29	653.34
536.65	661.10
537.00	668.57
537.36	676.24
537.72	684.10
538.08	691.69
538.44	699.27
538.79	707.03
539.15	714.28
539.51	722.38
539.87	730.26
540.22	738.24
540.58	746.04
540.94	754.01
541.29	761.53
541.65	768.98
542.01	776.95
542.37	784.99
542.72	792.80
543.08	800.67
543.44	808.47
543.79	816.02
544.15	823.77
544.51	831.77
544.87	839.29
545.22	846.86
545.58	854.45
545.94	861.87
546.29	869.30
546.65	877.31
547.01	884.52
547.36	891.92
547.72	898.91
548.07	906.33
548.43	913.17
548.79	920.53
549.14	927.65
549.50	934.68
549.86	941.49
550.21	948.48
550.57	955.25
550.92	961.87
551.28	968.44
551.64	974.53
551.99	981.15
552.35	987.80
552.70	994.23
553.06	1000.83
553.41	1007.50
553.77	1013.77
554.13	1020.09
554.48	1026.45
554.84	1032.42
555.19	1039.00
555.55	1045.04
555.90	1051.00
556.26	1057.08
556.61	1063.11
556.97	1068.63
557.32	1074.34
557.68	1079.98
558.03	1085.50
558.39	1091.11
558.74	1097.53
559.10	1103.71
559.45	1109.00
559.81	1114.74
560.16	1119.96
560.52	1125.02
560.87	1130.66
561.23	1135.41
561.58	1140.54
561.94	1145.24
562.29	1150.01
562.64	1154.50
563.00	1158.87
563.35	1164.00
563.71	1168.75
564.06	1173.37
564.42	1178.35
564.77	1182.95
565.12	1187.48
565.48	1192.04
565.83	1196.22
566.19	1199.95
566.54	1203.51
566.89	1207.54
567.25	1211.45
567.60	1215.55
567.96	1219.32
568.31	1222.39
568.66	1226.31
569.02	1229.80
569.37	1233.08
569.72	1236.31
570.08	1239.47
570.43	1242.61
570.78	1245.45
571.14	1247.80
571.49	1250.78
571.84	1253.81
572.20	1256.20
572.55	1258.44
572.90	1260.56
573.26	1262.74
573.61	1264.61
573.96	1266.51
574.31	1267.71
574.67	1268.64
575.02	1269.68
575.37	1270.88
575.72	1271.68
576.08	1272.72
576.43	1273.42
576.78	1274.34
577.13	1275.69
577.49	1276.61
577.84	1277.16
578.19	1277.60
578.54	1278.13
578.90	1277.84
579.25	1277.39
579.60	1277.26
579.95	1277.29
580.30	1276.79
580.66	1276.20
581.01	1275.74
581.36	1275.43
581.71	1275.69
582.06	1275.30
582.42	1274.73
582.77	1273.88
583.12	1273.28
583.47	1272.60
583.82	1272.12
584.17	1271.32
584.53	1270.19
584.88	1269.22
585.23	1268.74
585.58	1267.80
585.93	1266.87
586.28	1266.16
586.63	1265.46
586.98	1264.80
587.34	1263.83
587.69	1262.93
588.04	1262.09
588.39	1261.08
588.74	1259.32
589.09	1257.52
589.44	1255.93
589.79	1254.46
590.14	1253.65
590.49	1252.55
590.84	1251.06
591.19	1249.23
591.54	1247.11
591.89	1244.71
592.25	1242.59
592.60	1240.03
592.95	1237.57
593.30	1235.36
593.65	1233.21
594.00	1230.38
594.35	1228.10
594.70	1224.98
595.05	1222.59
595.40	1220.05
595.75	1217.18
596.10	1215.10
596.45	1212.94
596.80	1210.90
597.15	1208.98
597.50	1205.86
597.85	1203.19
598.19	1200.91
598.54	1198.21
598.89	1196.19
599.24	1194.44
599.59	1192.32
599.94	1190.29
600.29	1187.98
600.64	1185.41
600.99	1182.37
601.34	1179.99
601.69	1177.11
602.04	1174.59
602.39	1171.71
602.74	1169.08
603.08	1166.78
603.43	1164.39
603.78	1161.38
604.13	1158.44
604.48	1155.19
604.83	1152.47
605.18	1149.27
605.53	1145.66
605.87	1142.02
606.22	1138.85
606.57	1135.27
606.92	1132.01
607.27	1128.40
607.62	1125.14
607.96	1121.94
608.31	1118.89
608.66	1115.20
609.01	1111.40
609.36	1107.53
609.70	1103.46
610.05	1099.46
610.40	1095.73
610.75	1091.75
611.10	1088.00
611.44	1083.74
611.79	1079.69
612.14	1075.63
612.49	1071.37
612.83	1067.20
613.18	1063.56
613.53	1059.54
613.88	1055.05
614.22	1050.73
614.57	1046.41
614.92	1042.05
615.27	1037.79
615.61	1033.55
615.96	1029.57
616.31	1025.71
616.65	1022.45
617.00	1018.84
617.35	1014.67
617.70	1010.27
618.04	1005.63
618.39	1001.17
618.74	997.30
619.08	993.15
619.43	989.07
619.78	985.39
620.12	981.63
620.47	977.28
620.82	972.68
621.16	968.82
621.51	964.85
621.85	960.92
622.20	956.73
622.55	952.71
622.89	948.56
623.24	944.63
623.59	940.74
623.93	936.53
624.28	932.58
624.62	929.05
624.97	925.26
625.32	921.56
625.66	917.96
626.01	913.91
626.35	909.84
626.70	905.85
627.04	901.75
627.39	897.57
627.73	893.62
628.08	889.94
628.43	886.10
628.77	881.97
629.12	877.77
629.46	873.70
629.81	869.31
630.15	865.12
630.50	860.65
630.84	856.13
631.19	851.65
631.53	847.47
631.88	842.87
632.22	838.46
632.57	834.45
632.91	829.85
633.26	825.58
633.60	821.71
633.95	817.60
634.29	813.67
634.64	809.78
634.98	805.88
635.32	801.91
635.67	797.85
636.01	794.16
636.36	790.47
636.70	787.02
637.05	783.34
637.39	779.82
637.73	776.23
638.08	772.93
638.42	769.60
638.77	765.96
639.11	762.23
639.45	758.48
639.80	754.69
640.14	751.32
640.49	747.83
640.83	743.86
641.17	740.09
641.52	736.32
641.86	732.54
642.20	729.14
642.55	725.48
642.89	722.00
643.23	718.30
643.58	714.67
643.92	710.73
644.26	707.15
644.61	703.66
644.95	700.03
645.29	695.80
645.64	691.79
645.98	688.05
646.32	684.57
646.66	680.91
647.01	676.99
647.35	673.42
647.69	669.76
648.04	666.31
648.38	662.57
648.72	658.90
649.06	655.07
649.41	651.39
649.75	647.53
650.09	643.83
650.43	640.03
650.78	636.11
651.12	632.45
651.46	628.89
651.80	625.21
652.14	621.92
652.49	618.69
652.83	615.42
653.17	611.77
653.51	608.11
653.85	604.60
654.20	601.32
654.54	597.30
654.88	593.81
655.22	590.16
655.56	586.76
655.90	583.32
656.25	580.20
656.59	576.76
656.93	573.79
657.27	570.48
657.61	566.97
657.95	563.91
658.29	560.80
658.64	557.70
658.98	554.31
659.32	550.82
659.66	547.67
660.00	544.53
660.34	541.29
660.68	538.29
661.02	535.48
661.36	532.73
661.70	530.22
662.05	527.19
662.39	524.67
662.73	521.97
663.07	519.32
663.41	516.50
663.75	513.75
664.09	510.83
664.43	508.25
664.77	505.76
665.11	503.17
665.45	500.57
665.79	497.80
666.13	495.16
666.47	492.70
666.81	489.88
667.15	487.02
667.49	484.95
667.83	482.55
668.17	479.91
668.51	477.21
668.85	474.65
669.19	472.37
669.53	469.78
669.87	467.22
670.21	464.78
670.55	462.39
670.89	460.20
671.23	458.04
671.57	455.76
671.91	453.48
672.25	451.24
672.58	449.09
672.92	446.95
673.26	445.04
673.60	442.93
673.94	441.01
674.28	439.32
674.62	437.24
674.96	435.25
675.30	433.39
675.64	431.40
675.97	429.40
676.31	427.45
676.65	425.66
676.99	423.89
677.33	421.98
677.67	420.04
678.01	418.04
678.34	416.15
678.68	414.35
679.02	412.46
679.36	410.62
679.70	408.80
680.04	406.99
680.37	405.18
680.71	403.30
681.05	401.74
681.39	399.90
681.73	398.19
682.06	396.43
682.40	394.74
682.74	393.20
683.08	391.69
683.42	390.11
683.75	388.44
684.09	386.97
684.43	385.45
684.77	383.88
685.10	382.20
685.44	380.58
685.78	379.10
686.12	377.65
686.45	376.15
686.79	374.56
687.13	373.08
687.46	371.57
687.80	370.27
688.14	368.66
688.48	367.30
688.81	365.70
689.15	364.32
689.49	362.82
689.82	361.41
690.16	359.91
690.50	358.54
690.83	357.26
691.17	355.73
691.51	354.37
691.84	353.11
692.18	351.84
692.52	350.41
692.85	348.92
693.19	347.58
693.52	346.23
693.86	344.97
694.20	343.65
694.53	342.28
694.87	340.94
695.21	339.64
695.54	338.22
695.88	336.88
696.21	335.54
696.55	334.29
696.88	333.05
697.22	331.97
697.56	330.72
697.89	329.35
698.23	328.17
698.56	326.99
698.90	325.89
699.23	324.63
699.57	323.62
699.90	322.52
700.24	321.41
700.58	320.29
700.91	319.27
701.25	318.23
701.58	317.27
701.92	316.22
702.25	315.21
702.59	314.21
702.92	313.25
703.26	312.30
703.59	311.24
703.93	310.34
704.26	309.34
704.60	308.48
704.93	307.67
705.26	306.67
705.60	305.66
705.93	304.68
706.27	303.96
706.60	303.09
706.94	302.24
707.27	301.40
707.61	300.52
707.94	299.68
708.27	298.77
708.61	297.87
708.94	297.14
709.28	296.42
709.61	295.58
709.94	294.80
710.28	294.15
710.61	293.53
710.95	292.67
711.28	292.08
711.61	291.26
711.95	290.66
712.28	290.07
712.61	289.43
712.95	288.71
713.28	288.08
713.61	287.42
713.95	286.64
714.28	286.00
714.61	285.39
714.95	284.78
715.28	284.16
715.61	283.51
715.95	282.79
716.28	282.17
716.61	281.70
716.95	281.12
717.28	280.38
717.61	279.80
717.94	279.28
718.28	278.55
718.61	277.98
718.94	277.45
719.27	276.79
719.61	276.24
719.94	275.73
720.27	275.15
720.60	274.56
720.94	274.20
721.27	273.74
721.60	273.31
721.93	272.75
722.27	272.32
722.60	271.91
722.93	271.42
723.26	270.95
723.59	270.46
723.93	270.13
724.26	269.90
724.59	269.50
724.92	269.00
725.25	268.55
725.59	268.20
725.92	267.64
726.25	267.43
726.58	267.11
726.91	266.75
727.24	266.45
727.57	266.11
727.91	265.60
728.24	265.19
728.57	264.80
728.90	264.50
729.23	264.06
729.56	263.73
729.89	263.35
730.22	262.93
730.55	262.55
730.89	262.17
731.22	261.70
731.55	261.39
731.88	261.09
732.21	260.85
732.54	260.38
732.87	260.14
733.20	259.72
733.53	259.46
733.86	259.11
734.19	258.69
734.52	258.23
734.85	258.06
735.18	257.73
735.51	257.51
735.84	257.26
736.17	256.96
736.50	256.60
736.83	256.56
737.16	256.30
737.49	255.98
737.82	255.61
738.15	255.38
738.48	255.06
738.81	254.88
739.14	254.58
739.47	254.49
739.80	254.10
740.13	253.85
740.46	253.35
740.79	253.12
741.12	252.80
741.45	252.59
741.78	252.23
742.11	251.88
742.44	251.47
742.77	251.17
743.10	250.89
743.43	250.67
743.75	250.23
744.08	250.19
744.41	249.89
744.74	249.70
745.07	249.37
745.40	249.06
745.73	248.73
746.06	248.42
746.39	248.01
746.71	247.67
747.04	247.36
747.37	247.15
747.70	246.97
748.03	246.82
748.36	246.64
748.68	246.35
749.01	246.23
749.34	246.08
749.67	245.80
750.00	245.69
750.33	245.43
750.65	245.23
750.98	244.81
751.31	244.61
751.64	244.34
751.97	244.24
752.29	244.04
752.62	243.77
752.95	243.52
753.28	243.31
753.60	243.17
753.93	243.05
754.26	242.86
754.59	242.45
754.91	242.23
755.24	242.05
755.57	241.94
755.90	241.73
756.22	241.53
756.55	241.40
756.88	241.14
757.20	240.95
757.53	240.70
757.86	240.55
758.19	240.41
758.51	240.32
758.84	240.09
759.17	240.03
759.49	239.98
759.82	239.96
760.15	239.81
760.47	239.70
760.80	239.50
761.13	239.56
761.45	239.59
761.78	239.46
762.11	239.34
762.43	239.21
762.76	239.18
763.08	239.14
763.41	239.05
763.74	238.95
764.06	238.82
764.39	238.70
764.71	238.66
765.04	238.48
765.37	238.35
765.69	238.25
766.02	238.08
766.34	237.93
766.67	237.73
767.00	237.82
767.32	237.88
767.65	238.00
767.97	237.82
768.30	237.66
768.62	237.56
768.95	237.42
769.27	237.36
769.60	237.20
769.92	237.04
770.25	236.86
770.57	236.75
770.90	236.68
771.22	236.68
771.55	236.51
771.87	236.56
772.20	236.45
772.52	236.57
772.85	236.64
773.17	236.56
773.50	236.50
773.82	236.39
774.15	236.20
774.47	235.96
774.80	235.87
775.12	235.85
775.45	235.72
775.77	235.60
776.09	235.46
776.42	235.48
776.74	235.44
777.07	235.45
777.39	235.34
777.72	235.28
778.04	235.17
778.36	235.17
778.69	235.06
779.01	235.00
779.33	234.76
779.66	234.58
779.98	234.50
780.31	234.54
780.63	234.48
780.95	234.46
781.28	234.36
781.60	234.19
781.92	234.10
782.25	234.10
782.57	234.17
782.89	234.12
783.22	233.95
783.54	233.90
783.86	233.80
784.19	233.80
784.51	233.80
784.83	233.71
785.16	233.60
785.48	233.51
785.80	233.40
786.12	233.29
786.45	233.16
786.77	233.13
787.09	233.03
787.42	232.93
787.74	232.84
788.06	232.75
788.38	232.74
788.71	232.67
789.03	232.53
789.35	232.46
789.67	232.40
789.99	232.43
790.32	232.25
790.64	232.32
790.96	232.36
791.28	232.18
791.61	232.11
791.93	232.01
792.25	231.90
792.57	232.04
792.89	232.03
793.21	232.05
793.54	231.92
793.86	231.83
794.18	231.75
794.50	231.60
794.82	231.60
795.14	231.63
795.47	231.60
795.79	231.70
796.11	231.60
796.43	231.50
796.75	231.43
797.07	231.55
797.39	231.40
797.71	231.21
798.04	231.24
798.36	231.25
798.68	231.20
799.00	231.25
799.32	231.21
799.64	231.16
799.96	231.09
800.28	231.19
800.60	231.22
800.92	231.23
801.24	231.21
801.56	231.27
801.89	231.20
802.21	231.20
802.53	231.09
802.85	231.18
803.17	231.33
803.49	231.29
803.81	231.12
804.13	231.07
804.45	231.10
804.77	231.11
805.09	231.12
805.41	231.17
805.73	231.10
806.05	230.90
806.37	230.91
806.69	230.99
807.01	230.89
807.33	230.71
807.65	230.60
807.97	230.72
808.28	230.61
808.60	230.70
808.92	230.66
809.24	230.83
809.56	230.80
809.88	230.70
810.20	230.73
810.52	230.79
810.84	230.84
811.16	230.83
811.48	230.76
811.80	230.78
812.12	230.75
812.43	230.84
812.75	230.92
813.07	230.91
813.39	230.92
813.71	230.90
814.03	230.97
814.35	231.01
814.67	231.03
814.98	231.04
815.30	231.01
815.62	231.02
815.94	230.82
816.26	230.84
816.58	230.72
816.89	230.71
817.21	230.67
817.53	230.62
817.85	230.51
818.17	230.41
818.48	230.31
818.80	230.40
819.12	230.36
819.44	230.33
819.76	230.31
820.07	230.26
820.39	230.24
820.71	230.30
821.03	230.26
821.34	230.13
821.66	230.15
821.98	229.95
822.30	229.90
822.61	230.00
822.93	229.83
823.25	229.84
823.57	229.71
823.88	229.85
824.20	229.83
824.52	229.90
824.83	229.88
825.15	229.83
825.47	229.81
825.79	229.76
826.10	229.72
826.42	229.62
826.74	229.56
827.05	229.48
827.37	229.37
827.69	229.26
828.00	229.24
828.32	229.13
828.64	229.20
828.95	229.28
829.27	229.21
829.58	229.21
829.90	229.23
830.22	229.24
830.53	229.01
830.85	228.97
831.17	228.94
831.48	228.96
831.80	228.85
832.11	228.71
832.43	228.65
832.75	228.57
833.06	228.71
833.38	228.70
833.69	228.70
834.01	228.69
834.32	228.69
834.64	228.60
834.96	228.58
835.27	228.56
835.59	228.46
835.90	228.35
836.22	228.45
836.53	228.35
836.85	228.37
837.16	228.59
837.48	228.57
837.79	228.60
838.11	228.70
838.42	228.82
838.74	228.87
839.05	228.93
839.37	228.87
839.68	228.73
840.00	228.61
840.31	228.62
840.63	228.68
840.94	228.70
841.26	228.70
841.57	228.74
841.88	228.78
842.20	228.76
842.51	228.82
842.83	228.73
843.14	228.94
843.46	228.96
843.77	228.82
844.08	228.87
844.40	228.87
844.71	228.82
845.03	228.82
845.34	228.77
845.65	228.70
845.97	228.79
846.28	228.80
846.60	228.93
846.91	228.95
847.22	228.98
847.54	229.04
847.85	229.12
848.16	229.23
848.48	229.09
848.79	229.18
849.10	229.14
849.42	229.14
849.73	228.95
850.04	228.83
850.36	228.80
850.67	228.91
850.98	228.87
851.30	228.81
851.61	228.79
851.92	228.87
852.23	228.94
852.55	228.93
852.86	228.97
853.17	228.95
853.49	229.06
853.80	229.09
854.11	229.09
854.42	229.10
854.74	229.04
855.05	229.19
855.36	229.09
855.67	229.19
855.99	229.27
856.30	229.55
856.61	229.58
856.92	229.62
857.23	229.55
857.55	229.48
857.86	229.62
858.17	229.60
858.48	229.50
858.79	229.53
859.11	229.56
859.42	229.50
859.73	229.51
860.04	229.40
860.35	229.34
860.66	229.39
860.98	229.51
861.29	229.54
861.60	229.47
861.91	229.49
862.22	229.40
862.53	229.29
862.84	229.07
863.16	229.15
863.47	229.15
863.78	229.09
864.09	229.03
864.40	228.93
864.71	228.95
865.02	228.98
865.33	228.92
865.64	228.83
865.95	228.81
866.27	228.91
866.58	228.81
866.89	228.76
867.20	228.57
867.51	228.35
867.82	228.26
868.13	228.30
868.44	228.29
868.75	228.29
869.06	228.25
869.37	228.18
869.68	228.09
869.99	228.01
870.30	228.11
870.61	228.21
870.92	228.22
871.23	228.18
871.54	228.06
871.85	228.08
872.16	228.11
872.47	228.16
872.78	227.94
873.09	228.06
873.40	228.05
873.71	228.10
874.02	228.12
874.33	228.09
874.64	228.05
874.95	228.05
875.26	228.04
875.56	228.07
875.87	228.09
876.18	228.02
876.49	228.19
876.80	228.05
877.11	228.02
877.42	227.99
877.73	228.02
878.04	228.21
878.35	228.23
878.66	228.26
878.96	228.20
879.27	228.24
879.58	228.29
879.89	228.39
880.20	228.45
880.51	228.53
880.82	228.62
881.12	228.55
881.43	228.53
881.74	228.52
882.05	228.59
882.36	228.63
882.67	228.69
882.97	228.54
883.28	228.48
883.59	228.56
883.90	228.66
884.21	228.66
884.51	228.59
884.82	228.59
885.13	228.60
885.44	228.70
885.74	228.78
886.05	228.71
886.36	228.70
886.67	228.69
886.98	228.75
887.28	228.66
887.59	228.67
887.90	228.69
888.20	228.73
888.51	228.84
888.82	228.84
889.13	228.93
889.43	229.18
889.74	229.19
890.05	229.06
890.35	229.03
890.66	229.11
890.97	229.16
891.28	229.11
891.58	229.16
891.89	229.12
892.20	229.09
892.50	229.09
892.81	229.03
893.12	228.93
893.42	228.85
893.73	228.95
894.04	229.00
894.34	229.01
894.65	228.89
894.95	228.75
895.26	228.74
895.57	228.80
895.87	228.53
896.18	228.67
896.48	228.75
896.79	228.71
897.10	228.70
897.40	228.71
897.71	228.72
898.01	228.68
898.32	228.66
898.63	228.66
898.93	228.68
899.24	228.71
899.54	228.78
899.85	228.73
900.15	228.68
900.46	228.71
900.76	228.76
901.07	228.84
901.38	228.82
901.68	228.88
901.99	228.76
902.29	228.87
902.60	228.73
902.90	228.70
903.21	228.58
903.51	228.53
903.82	228.53
904.12	228.52
904.43	228.51
904.73	228.48
905.03	228.45
905.34	228.57
905.64	228.49
905.95	228.49
906.25	228.42
906.56	228.37
906.86	228.37
907.17	228.33
907.47	228.32
907.77	228.31
908.08	228.27
908.38	228.32
908.69	228.21
908.99	228.39
909.30	228.44
909.60	228.53
909.90	228.50
910.21	228.32
910.51	228.27
910.81	228.27
911.12	228.30
911.42	228.28
911.73	228.09
912.03	228.16
912.33	228.18
912.64	228.31
912.94	228.29
913.24	228.18
913.55	228.04
913.85	228.01
914.15	228.07
914.46	228.08
914.76	228.07
915.06	228.05
915.37	228.02
915.67	227.96
915.97	228.01
916.27	227.95
916.58	228.02
916.88	228.06
917.18	228.05
917.49	228.22
917.79	228.19
918.09	228.30
918.39	228.39
918.70	228.33
919.00	228.32
919.30	228.41
919.60	228.44
919.91	228.55
920.21	228.64
920.51	228.50
920.81	228.40
921.12	228.36
921.42	228.28
921.72	228.25
922.02	228.34
922.32	228.46
922.63	228.56
922.93	228.68
923.23	228.66
923.53	228.62
923.83	228.47
924.13	228.50
924.44	228.47
924.74	228.40
925.04	228.45
925.34	228.41
925.64	228.47
925.94	228.47
926.24	228.56
926.55	228.50
926.85	228.59
927.15	228.70
927.45	228.72
927.75	228.86
928.05	228.92
928.35	228.87
928.65	228.76
928.95	228.71
929.26	228.61
929.56	228.68
929.86	228.72
930.16	228.69
930.46	228.59
930.76	228.54
931.06	228.60
931.36	228.61
931.66	228.60
931.96	228.56
932.26	228.59
932.56	228.41
932.86	228.44
933.16	228.44
933.46	228.29
933.76	228.23
934.06	228.22
934.36	228.20
934.66	228.16
934.96	228.11
935.26	228.09
935.56	228.15
935.86	228.15
936.16	228.13
936.46	228.03
936.76	228.07
937.06	228.10
937.36	228.02
937.66	227.98
937.96	227.91
938.26	227.77
938.56	227.70
938.86	227.80
939.16	227.70
939.46	227.65
939.76	227.76
940.06	227.66
940.35	227.66
940.65	227.53
940.95	227.45
941.25	227.40
941.55	227.37
941.85	227.32
942.15	227.24
942.45	227.25
942.75	227.32
943.04	227.32
943.34	227.30
943.64	227.26
943.94	227.20
944.24	227.20
944.54	227.23
944.84	227.29
945.13	227.22
945.43	227.33
945.73	227.42
946.03	227.38
946.33	227.50
946.62	227.44
946.92	227.49
947.22	227.59
947.52	227.62
947.82	227.67
948.11	227.69
948.41	227.68
948.71	227.69
949.01	227.69
949.31	227.74
949.60	227.74
949.90	227.79
950.20	227.90
950.50	227.90
950.79	228.03
951.09	228.00
951.39	228.02
951.69	228.00
951.98	228.00
952.28	228.09
952.58	228.08
952.87	228.14
953.17	228.11
953.47	228.15
953.76	228.16
954.06	228.12
954.36	228.06
954.66	228.10
954.95	228.10
955.25	228.11
955.55	228.23
955.84	228.23
956.14	228.25
956.44	228.29
956.73	228.30
957.03	228.20
957.32	228.26
957.62	228.24
957.92	228.18
958.21	228.12
958.51	228.23
958.81	228.30
959.10	228.32
959.40	228.40
959.69	228.47
959.99	228.47
960.29	228.51
960.58	228.50
960.88	228.52
961.17	228.60
961.47	228.69
961.76	228.51
962.06	228.59
962.36	228.59
962.65	228.51
962.95	228.60
963.24	228.58
963.54	228.57
963.83	228.60
964.13	228.62
964.42	228.56
964.72	228.39
965.01	228.52
965.31	228.53
965.60	228.41
965.90	228.50
966.19	228.45
966.49	228.50
966.78	228.55
967.08	228.55
967.37	228.46
967.67	228.37
967.96	228.51
968.26	228.46
968.55	228.42
968.85	228.40
969.14	228.40
969.43	228.44
969.73	228.35
970.02	228.40
970.32	228.40
970.61	228.48
970.91	228.49
971.20	228.31
971.49	228.17
971.79	228.31
972.08	228.07
972.38	228.17
972.67	228.18
972.96	228.30
973.26	228.23
973.55	228.29
973.85	228.29
974.14	228.32
974.43	228.27
974.73	228.33
975.02	228.27
975.31	228.25
975.61	228.26
975.90	228.30
976.19	228.21
976.49	228.22
976.78	228.24
977.07	228.28
977.37	228.34
977.66	228.46
977.95	228.40
978.24	228.48
978.54	228.47
978.83	228.35
979.12	228.25
979.42	228.23
979.71	228.27
980.00	228.29
980.29	228.19
980.59	228.17
980.88	228.16
981.17	228.16
981.46	228.05
981.76	227.94
982.05	228.12
982.34	228.18
982.63	228.14
982.93	228.17
983.22	228.18
983.51	228.06
983.80	228.09
984.09	228.10
984.39	228.07
984.68	228.00
984.97	228.08
985.26	228.00
985.55	228.05
985.85	227.89
986.14	227.89
986.43	227.86
986.72	227.98
987.01	227.97
987.30	227.98
987.59	228.01
987.89	228.02
988.18	227.89
988.47	227.83
988.76	227.82
989.05	227.78
989.34	227.71
989.63	227.84
989.92	227.78
990.22	227.72
990.51	227.65
990.80	227.65
991.09	227.65
991.38	227.75
991.67	227.75
991.96	227.89
992.25	227.91
992.54	227.99
992.83	227.93
993.12	228.00
993.41	228.07
993.70	228.25
993.99	228.25
994.28	228.30
994.58	228.37
994.87	228.34
995.16	228.35
995.45	228.43
995.74	228.34
996.03	228.36
996.32	228.44
996.61	228.53
996.90	228.53
997.19	228.50
997.48	228.45
997.77	228.40
998.06	228.38
998.34	228.38
998.63	228.39
998.92	228.41
999.21	228.34
999.50	228.43
999.79	228.27
1000.08	228.41
1000.37	228.26
1000.66	228.17
1000.95	228.32
1001.24	228.37
1001.53	228.41
1001.82	228.45
1002.11	228.53
1002.40	228.49
1002.68	228.58
1002.97	228.72
1003.26	228.74
1003.55	228.84
1003.84	228.93
1004.13	228.99
1004.42	228.92
1004.71	228.86
1004.99	228.80
1005.28	228.82
1005.57	228.86
1005.86	228.81
1006.15	228.74
1006.44	228.82
1006.72	228.98
1007.01	228.97
1007.30	228.98
1007.59	228.87
1007.88	228.89
1008.17	228.73
1008.45	228.67
1008.74	228.55
1009.03	228.45
1009.32	228.41
1009.60	228.30
1009.89	228.24
1010.18	228.16
1010.47	228.15
1010.76	228.15
1011.04	228.20
1011.33	228.24
1011.62	228.17
1011.91	228.33
1012.19	228.28
1012.48	228.27
1012.77	228.18
1013.05	228.19
1013.34	228.11
1013.63	228.17
1013.92	228.22
1014.20	228.29
1014.49	228.36
1014.78	228.34
1015.06	228.30
1015.35	228.33
1015.64	228.36
1015.92	228.49
1016.21	228.45
1016.50	228.44
1016.78	228.54
1017.07	228.48
1017.36	228.45
1017.64	228.40
1017.93	228.34
1018.22	228.42
1018.50	228.49
1018.79	228.44
1019.08	228.33
1019.36	228.44
1019.65	228.37
1019.93	228.36
1020.22	228.42
1020.51	228.55
1020.79	228.62
1021.08	228.00
1021.36	229.10
1021.65	227.40
1021.94	227.30
1022.22	230.10
1022.51	227.50
1022.79	229.90
1023.08	229.10
1023.36	231.00
1023.65	229.30
>>>>>End Processed Spectral Data<<<<<
