SpectraSuite Data File
++++++++++++++++++++++++++++++++++++
Date: Fri Feb 01 14:36:32 EST 2013
User: group
Dark Spectrum Present: No
Reference Spectrum Present: No
Number of Sampled Component Spectra: 1
Spectrometers: USB2E7196
Integration Time (usec): 70000 (USB2E7196)
Spectra Averaged: 10 (USB2E7196)
Boxcar Smoothing: 10 (USB2E7196)
Correct for Electrical Dark: No (USB2E7196)
Strobe/Lamp Enabled: No (USB2E7196)
Correct for Detector Non-linearity: No (USB2E7196)
Correct for Stray Light: No (USB2E7196)
Number of Pixels in Processed Spectrum: 2048
>>>>>Begin Processed Spectral Data<<<<<
339.09	0.00
339.48	215.80
339.86	218.40
340.24	220.40
340.63	220.10
341.01	227.10
341.39	223.90
341.78	225.90
342.16	226.00
342.54	226.10
342.93	215.24
343.31	226.09
343.69	226.70
344.07	226.98
344.46	227.43
344.84	227.80
345.22	227.85
345.60	228.04
345.99	228.21
346.37	228.22
346.75	228.27
347.13	228.31
347.52	228.34
347.90	228.38
348.28	228.33
348.66	228.40
349.05	228.30
349.43	228.38
349.81	228.30
350.19	228.28
350.57	228.38
350.96	228.41
351.34	228.48
351.72	228.40
352.10	228.69
352.48	228.71
352.87	228.82
353.25	228.93
353.63	228.94
354.01	228.90
354.39	229.15
354.77	229.28
355.15	229.37
355.54	229.44
355.92	229.40
356.30	229.50
356.68	229.58
357.06	229.68
357.44	229.56
357.82	229.62
358.20	229.62
358.58	229.73
358.97	229.81
359.35	229.89
359.73	230.15
360.11	230.16
360.49	230.19
360.87	230.16
361.25	230.15
361.63	230.30
362.01	230.38
362.39	230.31
362.77	230.30
363.15	230.31
363.53	230.27
363.91	230.42
364.29	230.32
364.67	230.13
365.05	230.15
365.43	230.31
365.81	230.30
366.19	230.48
366.57	230.45
366.95	230.32
367.33	230.30
367.71	230.18
368.09	230.17
368.47	230.17
368.85	230.25
369.23	230.32
369.61	230.30
369.99	230.35
370.37	230.38
370.75	230.48
371.13	230.35
371.51	230.32
371.89	230.21
372.27	230.38
372.65	230.39
373.03	230.29
373.41	230.14
373.78	230.11
374.16	229.95
374.54	229.85
374.92	229.96
375.30	229.87
375.68	229.74
376.06	229.62
376.44	229.47
376.82	229.38
377.19	229.21
377.57	229.02
377.95	228.90
378.33	228.77
378.71	228.60
379.09	228.56
379.47	228.49
379.84	228.44
380.22	228.34
380.60	228.16
380.98	228.16
381.36	228.07
381.73	227.94
382.11	227.91
382.49	227.80
382.87	227.63
383.25	227.54
383.62	227.71
384.00	227.75
384.38	227.76
384.76	227.67
385.13	227.70
385.51	227.71
385.89	227.70
386.27	227.62
386.64	227.53
387.02	227.50
387.40	227.47
387.78	227.38
388.15	227.18
388.53	227.16
388.91	227.11
389.29	227.15
389.66	227.12
390.04	226.96
390.42	226.99
390.79	226.91
391.17	226.97
391.55	226.69
391.92	226.62
392.30	226.46
392.68	226.45
393.05	226.36
393.43	226.31
393.81	226.25
394.18	226.27
394.56	226.34
394.94	226.46
395.31	226.48
395.69	226.59
396.06	226.68
396.44	226.78
396.82	226.72
397.19	226.84
397.57	226.86
397.95	227.09
398.32	227.08
398.70	227.33
399.07	227.35
399.45	227.44
399.82	227.41
400.20	227.56
400.58	227.62
400.95	227.71
401.33	227.99
401.70	228.24
402.08	228.40
402.45	228.53
402.83	228.64
403.20	228.73
403.58	228.83
403.95	229.04
404.33	229.21
404.71	229.51
405.08	229.80
405.46	230.05
405.83	230.20
406.21	230.43
406.58	230.60
406.96	230.88
407.33	231.25
407.70	231.70
408.08	232.25
408.45	232.63
408.83	233.10
409.20	233.40
409.58	233.73
409.95	234.16
410.33	234.64
410.70	235.13
411.08	235.80
411.45	236.35
411.82	236.96
412.20	237.63
412.57	238.43
412.95	238.98
413.32	239.68
413.69	240.46
414.07	241.23
414.44	242.15
414.82	243.09
415.19	244.11
415.56	245.19
415.94	246.10
416.31	247.38
416.68	248.60
417.06	250.03
417.43	251.36
417.81	252.86
418.18	254.31
418.55	256.00
418.93	257.73
419.30	259.60
419.67	261.53
420.04	263.55
420.42	265.57
420.79	268.00
421.16	270.51
421.54	273.06
421.91	275.77
422.28	278.34
422.66	281.25
423.03	284.17
423.40	286.97
423.77	290.06
424.15	293.14
424.52	296.36
424.89	299.83
425.26	303.17
425.64	306.36
426.01	309.87
426.38	313.54
426.75	317.24
427.13	321.16
427.50	325.00
427.87	329.15
428.24	333.43
428.61	337.40
428.99	341.88
429.36	346.59
429.73	351.29
430.10	356.03
430.47	360.84
430.85	365.69
431.22	370.97
431.59	376.46
431.96	381.78
432.33	387.65
432.70	393.42
433.08	400.11
433.45	406.30
433.82	412.69
434.19	419.49
434.56	426.21
434.93	432.50
435.30	439.02
435.68	446.20
436.05	453.03
436.42	459.83
436.79	466.05
437.16	472.71
437.53	479.80
437.90	486.80
438.27	493.62
438.64	500.80
439.01	507.43
439.38	513.48
439.75	519.13
440.13	525.39
440.50	531.51
440.87	536.60
441.24	542.04
441.61	547.79
441.98	552.21
442.35	557.42
442.72	562.80
443.09	567.93
443.46	571.28
443.83	573.50
444.20	575.71
444.57	578.74
444.94	580.51
445.31	582.26
445.68	584.12
446.05	585.35
446.42	585.38
446.79	585.30
447.16	585.13
447.53	585.33
447.90	583.72
448.27	581.96
448.64	579.10
449.01	577.32
449.37	573.56
449.74	569.95
450.11	565.20
450.48	559.98
450.85	554.86
451.22	550.35
451.59	546.19
451.96	542.33
452.33	536.42
452.70	531.36
453.07	525.22
453.43	518.72
453.80	512.35
454.17	506.27
454.54	500.50
454.91	494.44
455.28	488.35
455.65	482.72
456.02	476.88
456.38	471.92
456.75	465.65
457.12	460.46
457.49	455.18
457.86	450.27
458.23	446.04
458.59	441.06
458.96	435.93
459.33	431.67
459.70	427.20
460.07	423.88
460.43	419.76
460.80	415.71
461.17	412.27
461.54	408.82
461.91	405.52
462.27	402.06
462.64	398.88
463.01	395.68
463.38	392.43
463.74	389.28
464.11	386.58
464.48	384.09
464.85	381.41
465.21	379.33
465.58	377.06
465.95	374.35
466.32	372.19
466.68	370.07
467.05	367.90
467.42	365.56
467.78	363.19
468.15	361.03
468.52	359.41
468.88	357.22
469.25	355.22
469.62	353.56
469.98	351.95
470.35	350.45
470.72	348.75
471.08	347.16
471.45	345.67
471.82	344.15
472.18	342.50
472.55	341.30
472.92	339.92
473.28	338.63
473.65	337.33
474.02	336.05
474.38	334.96
474.75	333.87
475.11	332.94
475.48	332.14
475.85	331.30
476.21	330.46
476.58	329.98
476.94	329.48
477.31	328.90
477.67	328.27
478.04	327.71
478.41	327.37
478.77	327.08
479.14	326.58
479.50	326.25
479.87	326.13
480.23	325.81
480.60	325.38
480.96	325.00
481.33	324.96
481.69	324.90
482.06	324.67
482.42	324.60
482.79	324.54
483.15	324.59
483.52	324.80
483.88	324.93
484.25	325.02
484.61	325.18
484.98	325.24
485.34	325.49
485.71	325.86
486.07	326.19
486.44	326.52
486.80	327.03
487.17	327.44
487.53	328.08
487.90	328.63
488.26	329.47
488.62	330.37
488.99	330.98
489.35	331.66
489.72	332.62
490.08	333.51
490.44	334.32
490.81	335.21
491.17	336.04
491.54	337.08
491.90	338.06
492.26	338.93
492.63	340.18
492.99	341.31
493.36	342.40
493.72	343.56
494.08	344.71
494.45	345.98
494.81	347.32
495.17	348.47
495.54	349.82
495.90	351.17
496.26	352.39
496.63	353.81
496.99	355.30
497.35	356.78
497.72	358.30
498.08	359.72
498.44	361.03
498.80	362.50
499.17	363.90
499.53	365.26
499.89	366.84
500.26	368.10
500.62	369.44
500.98	370.91
501.34	372.24
501.71	373.72
502.07	375.00
502.43	376.27
502.79	377.68
503.16	379.05
503.52	380.30
503.88	381.40
504.24	382.66
504.60	383.83
504.97	384.99
505.33	385.90
505.69	387.20
506.05	388.37
506.41	389.51
506.78	390.45
507.14	391.40
507.50	392.30
507.86	393.25
508.22	394.18
508.59	394.89
508.95	395.69
509.31	396.44
509.67	397.29
510.03	397.91
510.39	398.50
510.75	399.09
511.12	399.70
511.48	400.23
511.84	400.62
512.20	400.95
512.56	401.34
512.92	401.82
513.28	402.05
513.64	402.27
514.00	402.48
514.37	402.76
514.73	402.92
515.09	402.96
515.45	403.23
515.81	403.48
516.17	403.79
516.53	404.09
516.89	404.12
517.25	404.19
517.61	404.39
517.97	404.60
518.33	404.59
518.69	404.42
519.05	404.71
519.41	404.97
519.77	405.43
520.13	405.51
520.49	405.59
520.85	405.82
521.21	406.20
521.57	406.36
521.93	406.46
522.29	406.88
522.65	407.40
523.01	407.64
523.37	407.92
523.73	408.13
524.09	408.45
524.45	408.99
524.81	409.43
525.17	410.14
525.53	410.71
525.89	411.43
526.25	412.37
526.61	413.01
526.97	413.87
527.33	414.57
527.68	415.68
528.04	416.76
528.40	417.82
528.76	419.14
529.12	420.57
529.48	422.01
529.84	423.31
530.20	424.87
530.56	426.84
530.91	428.57
531.27	430.28
531.63	432.06
531.99	433.95
532.35	435.96
532.71	437.79
533.07	439.80
533.42	442.07
533.78	444.26
534.14	446.76
534.50	449.00
534.86	451.56
535.21	453.84
535.57	456.53
535.93	459.18
536.29	461.84
536.65	464.49
537.00	467.30
537.36	470.31
537.72	473.02
538.08	475.60
538.44	478.58
538.79	481.75
539.15	484.83
539.51	487.94
539.87	491.35
540.22	494.54
540.58	498.08
540.94	501.35
541.29	504.78
541.65	508.18
542.01	511.86
542.37	515.41
542.72	519.04
543.08	522.59
543.44	526.37
543.79	529.91
544.15	533.60
544.51	537.66
544.87	541.59
545.22	545.65
545.58	549.65
545.94	553.33
546.29	557.38
546.65	561.48
547.01	565.30
547.36	569.25
547.72	573.43
548.07	577.38
548.43	581.46
548.79	585.65
549.14	589.55
549.50	593.44
549.86	597.42
550.21	601.66
550.57	605.95
550.92	609.99
551.28	613.97
551.64	618.24
551.99	622.19
552.35	626.30
552.70	630.42
553.06	634.63
553.41	639.11
553.77	643.43
554.13	647.49
554.48	651.92
554.84	656.05
555.19	660.27
555.55	664.64
555.90	668.75
556.26	672.83
556.61	676.93
556.97	681.08
557.32	685.13
557.68	689.14
558.03	693.27
558.39	697.32
558.74	701.43
559.10	705.49
559.45	709.59
559.81	713.60
560.16	717.36
560.52	721.16
560.87	724.99
561.23	728.60
561.58	732.72
561.94	736.49
562.29	740.10
562.64	743.61
563.00	747.07
563.35	750.85
563.71	754.67
564.06	758.87
564.42	762.47
564.77	766.28
565.12	770.12
565.48	773.83
565.83	777.38
566.19	781.21
566.54	784.56
566.89	787.97
567.25	791.16
567.60	794.92
567.96	798.33
568.31	801.86
568.66	804.98
569.02	808.12
569.37	811.13
569.72	814.36
570.08	817.33
570.43	820.38
570.78	823.11
571.14	825.75
571.49	828.19
571.84	831.18
572.20	833.48
572.55	835.86
572.90	838.01
573.26	840.44
573.61	842.50
573.96	844.91
574.31	846.73
574.67	848.51
575.02	849.96
575.37	851.57
575.72	852.75
576.08	854.47
576.43	855.89
576.78	857.40
577.13	859.06
577.49	860.65
577.84	862.05
578.19	863.45
578.54	864.84
578.90	866.08
579.25	866.86
579.60	868.13
579.95	868.96
580.30	869.85
580.66	870.48
581.01	871.33
581.36	871.62
581.71	872.38
582.06	873.35
582.42	874.18
582.77	874.72
583.12	875.33
583.47	875.96
583.82	876.60
584.17	876.88
584.53	876.90
584.88	877.22
585.23	877.27
585.58	877.47
585.93	877.55
586.28	877.85
586.63	878.12
586.98	878.12
587.34	878.30
587.69	878.35
588.04	878.40
588.39	878.30
588.74	877.94
589.09	877.66
589.44	877.25
589.79	876.87
590.14	876.61
590.49	876.52
590.84	876.05
591.19	875.63
591.54	875.24
591.89	874.26
592.25	873.66
592.60	872.71
592.95	871.90
593.30	870.96
593.65	869.78
594.00	868.75
594.35	868.25
594.70	866.92
595.05	865.74
595.40	864.53
595.75	863.12
596.10	862.65
596.45	862.03
596.80	861.28
597.15	860.30
597.50	859.34
597.85	858.13
598.19	857.04
598.54	855.74
598.89	854.68
599.24	853.94
599.59	852.87
599.94	852.13
600.29	850.66
600.64	849.36
600.99	847.74
601.34	846.68
601.69	844.63
602.04	843.40
602.39	841.82
602.74	840.63
603.08	839.52
603.43	838.22
603.78	836.63
604.13	834.98
604.48	833.20
604.83	831.74
605.18	830.03
605.53	828.10
605.87	826.16
606.22	824.25
606.57	822.38
606.92	820.36
607.27	818.25
607.62	816.99
607.96	815.37
608.31	813.79
608.66	811.56
609.01	809.73
609.36	807.59
609.70	805.20
610.05	802.57
610.40	800.31
610.75	797.62
611.10	795.20
611.44	792.47
611.79	790.42
612.14	787.57
612.49	784.71
612.83	782.10
613.18	779.59
613.53	777.34
613.88	774.70
614.22	772.03
614.57	769.31
614.92	766.37
615.27	763.62
615.61	760.94
615.96	758.32
616.31	755.95
616.65	753.81
617.00	751.87
617.35	749.61
617.70	746.94
618.04	744.34
618.39	741.75
618.74	739.40
619.08	736.50
619.43	734.28
619.78	732.29
620.12	730.17
620.47	727.66
620.82	724.77
621.16	722.34
621.51	719.96
621.85	717.50
622.20	714.90
622.55	712.38
622.89	709.89
623.24	707.55
623.59	705.00
623.93	702.39
624.28	700.01
624.62	697.75
624.97	695.38
625.32	693.14
625.66	690.82
626.01	688.34
626.35	685.96
626.70	683.44
627.04	680.93
627.39	678.04
627.73	675.50
628.08	672.93
628.43	670.39
628.77	667.76
629.12	665.37
629.46	662.89
629.81	660.00
630.15	657.18
630.50	654.38
630.84	651.37
631.19	648.29
631.53	645.32
631.88	642.26
632.22	639.33
632.57	636.73
632.91	633.91
633.26	631.33
633.60	628.49
633.95	625.74
634.29	623.18
634.64	620.88
634.98	618.34
635.32	616.13
635.67	613.76
636.01	611.55
636.36	609.06
636.70	606.66
637.05	604.53
637.39	602.56
637.73	600.21
638.08	598.39
638.42	596.55
638.77	594.28
639.11	592.19
639.45	589.99
639.80	587.38
640.14	585.13
640.49	582.62
640.83	580.50
641.17	578.34
641.52	575.88
641.86	573.36
642.20	571.30
642.55	568.94
642.89	566.72
643.23	564.15
643.58	561.87
643.92	559.48
644.26	557.00
644.61	554.73
644.95	552.47
645.29	549.84
645.64	547.14
645.98	544.86
646.32	542.36
646.66	540.09
647.01	537.80
647.35	535.40
647.69	533.29
648.04	531.16
648.38	528.78
648.72	526.31
649.06	524.13
649.41	521.63
649.75	519.26
650.09	516.75
650.43	514.20
650.78	511.60
651.12	509.24
651.46	507.20
651.80	504.82
652.14	502.70
652.49	500.54
652.83	498.49
653.17	496.11
653.51	493.96
653.85	491.70
654.20	489.33
654.54	486.96
654.88	484.74
655.22	482.26
655.56	479.81
655.90	477.84
656.25	475.49
656.59	473.25
656.93	471.03
657.27	468.81
657.61	466.78
657.95	465.07
658.29	462.91
658.64	460.61
658.98	458.42
659.32	456.00
659.66	453.76
660.00	451.68
660.34	449.62
660.68	447.52
661.02	445.55
661.36	443.74
661.70	441.97
662.05	440.01
662.39	438.18
662.73	436.36
663.07	434.33
663.41	432.52
663.75	430.72
664.09	428.77
664.43	427.06
664.77	425.26
665.11	423.39
665.45	421.70
665.79	419.98
666.13	418.06
666.47	416.46
666.81	414.61
667.15	412.58
667.49	410.90
667.83	409.36
668.17	407.51
668.51	405.73
668.85	404.01
669.19	402.26
669.53	400.57
669.87	399.04
670.21	397.47
670.55	395.89
670.89	394.52
671.23	393.03
671.57	391.58
671.91	390.23
672.25	388.69
672.58	387.14
672.92	385.59
673.26	384.25
673.60	382.88
673.94	381.69
674.28	380.58
674.62	379.28
674.96	377.94
675.30	376.68
675.64	375.40
675.97	373.92
676.31	372.64
676.65	371.34
676.99	370.13
677.33	368.78
677.67	367.52
678.01	366.00
678.34	364.78
678.68	363.54
679.02	362.18
679.36	360.95
679.70	359.83
680.04	358.65
680.37	357.40
680.71	356.00
681.05	354.77
681.39	353.56
681.73	352.32
682.06	351.18
682.40	350.13
682.74	349.00
683.08	348.00
683.42	346.91
683.75	345.79
684.09	344.50
684.43	343.43
684.77	342.24
685.10	341.10
685.44	339.97
685.78	338.64
686.12	337.64
686.45	336.48
686.79	335.40
687.13	334.49
687.46	333.58
687.80	332.68
688.14	331.54
688.48	330.63
688.81	329.62
689.15	328.60
689.49	327.36
689.82	326.48
690.16	325.42
690.50	324.37
690.83	323.50
691.17	322.50
691.51	321.42
691.84	320.57
692.18	319.65
692.52	318.61
692.85	317.69
693.19	316.90
693.52	316.10
693.86	315.15
694.20	314.09
694.53	313.07
694.87	312.14
695.21	311.19
695.54	310.20
695.88	309.26
696.21	308.34
696.55	307.61
696.88	306.65
697.22	305.82
697.56	305.07
697.89	304.18
698.23	303.45
698.56	302.78
698.90	301.89
699.23	301.10
699.57	300.41
699.90	299.67
700.24	298.61
700.58	297.69
700.91	296.85
701.25	296.17
701.58	295.55
701.92	294.78
702.25	294.02
702.59	293.21
702.92	292.63
703.26	291.95
703.59	291.27
703.93	290.70
704.26	290.10
704.60	289.37
704.93	288.68
705.26	288.06
705.60	287.37
705.93	286.84
706.27	286.30
706.60	285.70
706.94	285.12
707.27	284.52
707.61	283.93
707.94	283.35
708.27	282.77
708.61	282.07
708.94	281.56
709.28	281.14
709.61	280.57
709.94	279.96
710.28	279.40
710.61	278.84
710.95	278.19
711.28	277.65
711.61	277.13
711.95	276.63
712.28	276.05
712.61	275.56
712.95	275.12
713.28	274.62
713.61	274.15
713.95	273.60
714.28	273.19
714.61	272.66
714.95	272.22
715.28	271.71
715.61	271.20
715.95	270.70
716.28	270.27
716.61	269.90
716.95	269.38
717.28	268.87
717.61	268.46
717.94	268.03
718.28	267.55
718.61	267.09
718.94	266.61
719.27	266.21
719.61	265.90
719.94	265.46
720.27	265.00
720.60	264.62
720.94	264.35
721.27	264.11
721.60	263.69
721.93	263.43
722.27	263.17
722.60	262.87
722.93	262.49
723.26	262.27
723.59	261.84
723.93	261.61
724.26	261.33
724.59	260.97
724.92	260.59
725.25	260.21
725.59	259.99
725.92	259.69
726.25	259.36
726.58	258.93
726.91	258.53
727.24	258.32
727.57	258.02
727.91	257.69
728.24	257.37
728.57	257.16
728.90	256.70
729.23	256.33
729.56	256.08
729.89	255.92
730.22	255.49
730.55	255.35
730.89	255.09
731.22	254.94
731.55	254.78
731.88	254.55
732.21	254.38
732.54	254.11
732.87	253.96
733.20	253.84
733.53	253.74
733.86	253.57
734.19	253.26
734.52	252.91
734.85	252.78
735.18	252.52
735.51	252.45
735.84	252.32
736.17	252.13
736.50	251.86
736.83	251.76
737.16	251.54
737.49	251.23
737.82	250.94
738.15	250.66
738.48	250.37
738.81	250.09
739.14	249.86
739.47	249.55
739.80	249.23
740.13	248.82
740.46	248.47
740.79	248.27
741.12	247.99
741.45	247.73
741.78	247.30
742.11	246.94
742.44	246.58
742.77	246.30
743.10	245.96
743.43	245.68
743.75	245.20
744.08	245.24
744.41	245.00
744.74	244.84
745.07	244.52
745.40	244.36
745.73	244.32
746.06	244.07
746.39	243.86
746.71	243.74
747.04	243.60
747.37	243.45
747.70	243.28
748.03	243.12
748.36	243.03
748.68	242.92
749.01	242.78
749.34	242.70
749.67	242.60
750.00	242.44
750.33	242.36
750.65	242.31
750.98	241.86
751.31	241.73
751.64	241.58
751.97	241.56
752.29	241.40
752.62	241.12
752.95	241.00
753.28	240.89
753.60	240.74
753.93	240.71
754.26	240.60
754.59	240.40
754.91	240.20
755.24	240.11
755.57	239.93
755.90	239.90
756.22	239.76
756.55	239.57
756.88	239.47
757.20	239.33
757.53	239.24
757.86	239.26
758.19	239.24
758.51	239.15
758.84	239.00
759.17	238.85
759.49	238.81
759.82	238.85
760.15	238.80
760.47	238.70
760.80	238.51
761.13	238.40
761.45	238.26
761.78	238.17
762.11	237.96
762.43	237.96
762.76	237.76
763.08	237.61
763.41	237.60
763.74	237.47
764.06	237.33
764.39	237.17
764.71	236.95
765.04	236.73
765.37	236.59
765.69	236.37
766.02	236.23
766.34	236.17
766.67	235.93
767.00	235.90
767.32	235.83
767.65	235.88
767.97	235.72
768.30	235.65
768.62	235.59
768.95	235.59
769.27	235.42
769.60	235.42
769.92	235.30
770.25	235.16
770.57	235.10
770.90	235.00
771.22	234.87
771.55	234.85
771.87	234.86
772.20	234.70
772.52	234.86
772.85	235.09
773.17	234.95
773.50	234.85
773.82	234.76
774.15	234.70
774.47	234.53
774.80	234.56
775.12	234.57
775.45	234.54
775.77	234.53
776.09	234.60
776.42	234.53
776.74	234.64
777.07	234.57
777.39	234.54
777.72	234.54
778.04	234.43
778.36	234.30
778.69	234.24
779.01	234.28
779.33	234.11
779.66	233.90
779.98	233.86
780.31	233.84
780.63	233.80
780.95	233.65
781.28	233.60
781.60	233.49
781.92	233.38
782.25	233.30
782.57	233.19
782.89	233.11
783.22	233.00
783.54	232.79
783.86	232.73
784.19	232.68
784.51	232.72
784.83	232.71
785.16	232.77
785.48	232.70
785.80	232.66
786.12	232.46
786.45	232.22
786.77	232.15
787.09	232.10
787.42	231.98
787.74	231.98
788.06	231.84
788.38	231.83
788.71	231.82
789.03	231.85
789.35	231.80
789.67	231.66
789.99	231.70
790.32	231.64
790.64	231.64
790.96	231.72
791.28	231.62
791.61	231.58
791.93	231.50
792.25	231.46
792.57	231.57
792.89	231.59
793.21	231.75
793.54	231.76
793.86	231.72
794.18	231.69
794.50	231.68
794.82	231.69
795.14	231.65
795.47	231.64
795.79	231.57
796.11	231.54
796.43	231.47
796.75	231.41
797.07	231.47
797.39	231.58
797.71	231.40
798.04	231.30
798.36	231.21
798.68	231.20
799.00	231.09
799.32	230.95
799.64	231.03
799.96	231.02
800.28	231.03
800.60	231.03
800.92	231.03
801.24	231.00
801.56	231.07
801.89	230.93
802.21	230.96
802.53	230.88
802.85	230.89
803.17	231.03
803.49	231.03
803.81	231.00
804.13	230.89
804.45	230.83
804.77	230.90
805.09	231.00
805.41	230.97
805.73	231.05
806.05	230.97
806.37	230.90
806.69	230.85
807.01	230.87
807.33	230.94
807.65	230.81
807.97	230.93
808.28	230.88
808.60	230.90
808.92	230.77
809.24	230.92
809.56	230.90
809.88	230.82
810.20	230.82
810.52	230.76
810.84	230.67
811.16	230.71
811.48	230.68
811.80	230.69
812.12	230.72
812.43	230.70
812.75	230.79
813.07	230.80
813.39	230.68
813.71	230.58
814.03	230.51
814.35	230.50
814.67	230.37
814.98	230.35
815.30	230.50
815.62	230.43
815.94	230.31
816.26	230.38
816.58	230.30
816.89	230.22
817.21	230.22
817.53	230.27
817.85	230.33
818.17	230.25
818.48	230.25
818.80	230.21
819.12	230.07
819.44	229.95
819.76	229.83
820.07	229.94
820.39	229.87
820.71	229.80
821.03	229.80
821.34	229.78
821.66	229.71
821.98	229.54
822.30	229.53
822.61	229.57
822.93	229.45
823.25	229.48
823.57	229.42
823.88	229.38
824.20	229.33
824.52	229.20
824.83	229.21
825.15	229.07
825.47	228.90
825.79	228.96
826.10	228.90
826.42	228.87
826.74	228.81
827.05	228.81
827.37	228.77
827.69	228.75
828.00	228.66
828.32	228.64
828.64	228.59
828.95	228.69
829.27	228.61
829.58	228.52
829.90	228.50
830.22	228.53
830.53	228.45
830.85	228.40
831.17	228.30
831.48	228.23
831.80	228.30
832.11	228.41
832.43	228.34
832.75	228.30
833.06	228.42
833.38	228.30
833.69	228.22
834.01	228.20
834.32	228.16
834.64	228.20
834.96	228.34
835.27	228.39
835.59	228.25
835.90	228.32
836.22	228.41
836.53	228.39
836.85	228.44
837.16	228.74
837.48	228.76
837.79	229.07
838.11	229.06
838.42	229.08
838.74	229.10
839.05	229.22
839.37	229.28
839.68	229.06
840.00	229.07
840.31	229.23
840.63	229.20
840.94	229.24
841.26	229.27
841.57	229.12
841.88	229.07
842.20	229.00
842.51	228.93
842.83	228.97
843.14	229.14
843.46	229.15
843.77	228.93
844.08	228.86
844.40	228.68
844.71	228.77
845.03	228.73
845.34	228.75
845.65	228.70
845.97	228.73
846.28	228.87
846.60	228.99
846.91	228.90
847.22	228.94
847.54	228.98
847.85	228.92
848.16	228.93
848.48	229.00
848.79	229.23
849.10	229.35
849.42	229.32
849.73	229.16
850.04	229.12
850.36	229.07
850.67	229.16
850.98	229.19
851.30	229.20
851.61	229.28
851.92	229.23
852.23	229.24
852.55	229.27
852.86	229.31
853.17	229.27
853.49	229.36
853.80	229.42
854.11	229.48
854.42	229.54
854.74	229.59
855.05	229.59
855.36	229.49
855.67	229.35
855.99	229.33
856.30	229.58
856.61	229.58
856.92	229.60
857.23	229.54
857.55	229.51
857.86	229.47
858.17	229.43
858.48	229.35
858.79	229.33
859.11	229.31
859.42	229.28
859.73	229.27
860.04	229.18
860.35	229.11
860.66	229.00
860.98	228.97
861.29	228.83
861.60	228.80
861.91	228.75
862.22	228.75
862.53	228.67
862.84	228.38
863.16	228.35
863.47	228.20
863.78	228.18
864.09	228.14
864.40	228.06
864.71	227.98
865.02	228.03
865.33	227.95
865.64	227.87
865.95	227.73
866.27	227.77
866.58	227.74
866.89	227.70
867.20	227.76
867.51	227.74
867.82	227.83
868.13	227.79
868.44	227.82
868.75	227.76
869.06	227.73
869.37	227.78
869.68	227.68
869.99	227.88
870.30	227.92
870.61	228.00
870.92	228.01
871.23	228.18
871.54	228.14
871.85	228.22
872.16	228.27
872.47	228.37
872.78	228.32
873.09	228.41
873.40	228.39
873.71	228.26
874.02	228.28
874.33	228.25
874.64	228.30
874.95	228.29
875.26	228.43
875.56	228.33
875.87	228.25
876.18	228.33
876.49	228.50
876.80	228.50
877.11	228.40
877.42	228.54
877.73	228.38
878.04	228.36
878.35	228.25
878.66	228.21
878.96	228.19
879.27	228.22
879.58	228.24
879.89	228.30
880.20	228.37
880.51	228.35
880.82	228.44
881.12	228.53
881.43	228.60
881.74	228.58
882.05	228.75
882.36	228.84
882.67	228.82
882.97	228.50
883.28	228.58
883.59	228.57
883.90	228.47
884.21	228.54
884.51	228.61
884.82	228.73
885.13	228.80
885.44	228.84
885.74	228.76
886.05	228.80
886.36	228.85
886.67	228.94
886.98	229.12
887.28	229.06
887.59	229.09
887.90	228.98
888.20	228.94
888.51	228.97
888.82	229.14
889.13	229.18
889.43	229.45
889.74	229.46
890.05	229.47
890.35	229.50
890.66	229.53
890.97	229.58
891.28	229.54
891.58	229.49
891.89	229.50
892.20	229.52
892.50	229.45
892.81	229.40
893.12	229.33
893.42	229.20
893.73	229.23
894.04	229.17
894.34	229.14
894.65	229.13
894.95	229.05
895.26	228.89
895.57	228.98
895.87	228.79
896.18	228.72
896.48	228.74
896.79	228.76
897.10	228.75
897.40	228.70
897.71	228.73
898.01	228.80
898.32	228.75
898.63	228.77
898.93	228.70
899.24	228.70
899.54	228.65
899.85	228.60
900.15	228.52
900.46	228.58
900.76	228.59
901.07	228.55
901.38	228.50
901.68	228.42
901.99	228.30
902.29	228.30
902.60	228.26
902.90	228.27
903.21	228.18
903.51	228.19
903.82	228.20
904.12	228.12
904.43	228.07
904.73	228.11
905.03	228.04
905.34	228.30
905.64	228.31
905.95	228.25
906.25	228.19
906.56	228.25
906.86	228.14
907.17	228.10
907.47	228.16
907.77	228.13
908.08	228.16
908.38	228.13
908.69	228.09
908.99	228.09
909.30	228.08
909.60	228.15
909.90	228.14
910.21	228.00
910.51	227.97
910.81	227.92
911.12	227.80
911.42	227.80
911.73	227.62
912.03	227.63
912.33	227.62
912.64	227.63
912.94	227.50
913.24	227.52
913.55	227.62
913.85	227.61
914.15	227.72
914.46	227.73
914.76	227.70
915.06	227.70
915.37	227.71
915.67	227.65
915.97	227.61
916.27	227.59
916.58	227.69
916.88	227.67
917.18	227.76
917.49	228.03
917.79	228.15
918.09	228.16
918.39	228.21
918.70	228.31
919.00	228.32
919.30	228.49
919.60	228.43
919.91	228.40
920.21	228.39
920.51	228.45
920.81	228.56
921.12	228.70
921.42	228.75
921.72	228.74
922.02	228.81
922.32	228.89
922.63	228.84
922.93	229.04
923.23	229.19
923.53	229.18
923.83	228.99
924.13	228.95
924.44	228.97
924.74	229.08
925.04	229.09
925.34	229.19
925.64	229.09
925.94	229.14
926.24	229.35
926.55	229.30
926.85	229.30
927.15	229.16
927.45	229.18
927.75	229.18
928.05	229.18
928.35	229.18
928.65	229.25
928.95	229.26
929.26	229.01
929.56	228.84
929.86	228.81
930.16	228.83
930.46	228.85
930.76	228.78
931.06	228.59
931.36	228.49
931.66	228.40
931.96	228.51
932.26	228.52
932.56	228.30
932.86	228.24
933.16	228.13
933.46	228.15
933.76	228.09
934.06	228.10
934.36	228.16
934.66	228.12
934.96	228.03
935.26	227.98
935.56	228.10
935.86	228.23
936.16	228.21
936.46	228.11
936.76	228.05
937.06	228.06
937.36	227.98
937.66	228.01
937.96	227.94
938.26	227.89
938.56	227.74
938.86	227.80
939.16	227.95
939.46	227.99
939.76	227.99
940.06	227.85
940.35	227.75
940.65	227.62
940.95	227.62
941.25	227.50
941.55	227.52
941.85	227.51
942.15	227.49
942.45	227.43
942.75	227.35
943.04	227.34
943.34	227.28
943.64	227.27
943.94	227.15
944.24	227.20
944.54	227.09
944.84	227.16
945.13	227.09
945.43	227.04
945.73	226.99
946.03	226.88
946.33	226.97
946.62	226.99
946.92	227.09
947.22	227.06
947.52	227.10
947.82	227.14
948.11	227.08
948.41	227.04
948.71	227.12
949.01	227.23
949.31	227.30
949.60	227.33
949.90	227.40
950.20	227.48
950.50	227.52
950.79	227.52
951.09	227.53
951.39	227.59
951.69	227.61
951.98	227.76
952.28	227.81
952.58	227.72
952.87	227.79
953.17	227.86
953.47	227.94
953.76	227.99
954.06	227.96
954.36	227.99
954.66	228.01
954.95	228.06
955.25	228.21
955.55	228.20
955.84	228.24
956.14	228.29
956.44	228.40
956.73	228.41
957.03	228.55
957.32	228.68
957.62	228.60
957.92	228.69
958.21	228.70
958.51	228.93
958.81	228.98
959.10	229.07
959.40	229.03
959.69	228.96
959.99	229.04
960.29	229.10
960.58	229.04
960.88	229.13
961.17	229.12
961.47	229.04
961.76	229.15
962.06	229.16
962.36	229.20
962.65	229.19
962.95	229.19
963.24	229.20
963.54	229.23
963.83	229.33
964.13	229.24
964.42	229.18
964.72	229.10
965.01	229.30
965.31	229.25
965.60	229.17
965.90	229.40
966.19	229.36
966.49	229.43
966.78	229.56
967.08	229.59
967.37	229.58
967.67	229.52
967.96	229.50
968.26	229.56
968.55	229.59
968.85	229.59
969.14	229.57
969.43	229.50
969.73	229.37
970.02	229.27
970.32	229.27
970.61	229.24
970.91	229.20
971.20	229.10
971.49	229.03
971.79	229.13
972.08	228.96
972.38	228.96
972.67	228.85
972.96	228.68
973.26	228.53
973.55	228.62
973.85	228.59
974.14	228.50
974.43	228.47
974.73	228.30
975.02	228.31
975.31	228.23
975.61	228.25
975.90	228.21
976.19	228.20
976.49	228.20
976.78	228.25
977.07	228.16
977.37	228.11
977.66	228.08
977.95	227.94
978.24	227.90
978.54	227.90
978.83	227.71
979.12	227.78
979.42	227.73
979.71	227.53
980.00	227.58
980.29	227.50
980.59	227.32
980.88	227.52
981.17	227.42
981.46	227.40
981.76	227.38
982.05	227.51
982.34	227.50
982.63	227.44
982.93	227.39
983.22	227.36
983.51	227.32
983.80	227.40
984.09	227.50
984.39	227.51
984.68	227.47
984.97	227.61
985.26	227.61
985.55	227.71
985.85	227.78
986.14	227.75
986.43	227.85
986.72	227.93
987.01	227.78
987.30	227.85
987.59	227.96
987.89	227.95
988.18	227.88
988.47	227.85
988.76	227.86
989.05	227.86
989.34	227.96
989.63	228.04
989.92	227.96
990.22	227.97
990.51	228.00
990.80	228.01
991.09	228.09
991.38	228.12
991.67	228.06
991.96	228.14
992.25	228.20
992.54	228.16
992.83	228.11
993.12	228.10
993.41	228.19
993.70	228.23
993.99	228.26
994.28	228.31
994.58	228.48
994.87	228.51
995.16	228.48
995.45	228.39
995.74	228.38
996.03	228.50
996.32	228.58
996.61	228.52
996.90	228.49
997.19	228.51
997.48	228.60
997.77	228.69
998.06	228.70
998.34	228.70
998.63	228.79
998.92	229.00
999.21	229.07
999.50	229.03
999.79	228.98
1000.08	228.95
1000.37	228.92
1000.66	228.85
1000.95	228.90
1001.24	229.03
1001.53	229.08
1001.82	229.04
1002.11	228.96
1002.40	228.93
1002.68	228.98
1002.97	229.17
1003.26	229.07
1003.55	229.05
1003.84	229.08
1004.13	229.20
1004.42	229.13
1004.71	229.10
1004.99	229.03
1005.28	229.10
1005.57	228.98
1005.86	228.97
1006.15	229.00
1006.44	228.99
1006.72	229.04
1007.01	229.00
1007.30	228.89
1007.59	228.90
1007.88	228.93
1008.17	228.90
1008.45	228.84
1008.74	228.78
1009.03	228.62
1009.32	228.68
1009.60	228.53
1009.89	228.45
1010.18	228.23
1010.47	228.26
1010.76	228.21
1011.04	228.12
1011.33	228.08
1011.62	228.20
1011.91	228.18
1012.19	228.19
1012.48	228.17
1012.77	228.16
1013.05	228.15
1013.34	228.12
1013.63	228.12
1013.92	228.08
1014.20	228.10
1014.49	228.12
1014.78	228.10
1015.06	228.08
1015.35	228.02
1015.64	228.04
1015.92	228.03
1016.21	228.02
1016.50	227.91
1016.78	227.88
1017.07	227.87
1017.36	227.84
1017.64	227.80
1017.93	227.82
1018.22	227.80
1018.50	227.75
1018.79	227.67
1019.08	227.67
1019.36	227.72
1019.65	227.74
1019.93	227.82
1020.22	227.81
1020.51	227.89
1020.79	227.90
1021.08	227.90
1021.36	227.40
1021.65	227.10
1021.94	228.50
1022.22	228.20
1022.51	229.10
1022.79	229.30
1023.08	227.70
1023.36	230.20
1023.65	227.70
>>>>>End Processed Spectral Data<<<<<
