SpectraSuite Data File
++++++++++++++++++++++++++++++++++++
Date: Fri Feb 01 14:34:04 EST 2013
User: group
Dark Spectrum Present: No
Reference Spectrum Present: No
Number of Sampled Component Spectra: 1
Spectrometers: USB2E7196
Integration Time (usec): 70000 (USB2E7196)
Spectra Averaged: 10 (USB2E7196)
Boxcar Smoothing: 10 (USB2E7196)
Correct for Electrical Dark: No (USB2E7196)
Strobe/Lamp Enabled: No (USB2E7196)
Correct for Detector Non-linearity: No (USB2E7196)
Correct for Stray Light: No (USB2E7196)
Number of Pixels in Processed Spectrum: 2048
>>>>>Begin Processed Spectral Data<<<<<
339.09	0.00
339.48	218.40
339.86	218.60
340.24	218.70
340.63	221.00
341.01	225.60
341.39	223.10
341.78	226.00
342.16	226.10
342.54	226.10
342.93	215.22
343.31	226.15
343.69	226.56
344.07	226.97
344.46	227.43
344.84	227.83
345.22	227.97
345.60	228.19
345.99	228.26
346.37	228.36
346.75	228.44
347.13	228.57
347.52	228.64
347.90	228.79
348.28	228.82
348.66	228.85
349.05	228.75
349.43	228.86
349.81	228.90
350.19	229.02
350.57	229.11
350.96	229.31
351.34	229.30
351.72	229.45
352.10	229.56
352.48	229.63
352.87	229.63
353.25	229.67
353.63	229.81
354.01	229.94
354.39	230.00
354.77	230.18
355.15	230.26
355.54	230.27
355.92	230.28
356.30	230.35
356.68	230.60
357.06	230.74
357.44	230.80
357.82	230.80
358.20	230.80
358.58	230.78
358.97	230.62
359.35	230.68
359.73	230.73
360.11	230.83
360.49	230.86
360.87	230.92
361.25	231.02
361.63	231.10
362.01	231.09
362.39	231.10
362.77	231.05
363.15	231.01
363.53	231.11
363.91	231.02
364.29	230.98
364.67	230.86
365.05	230.76
365.43	230.80
365.81	230.90
366.19	230.94
366.57	231.00
366.95	231.02
367.33	230.99
367.71	230.91
368.09	230.88
368.47	230.87
368.85	230.84
369.23	230.77
369.61	230.64
369.99	230.66
370.37	230.66
370.75	230.75
371.13	230.65
371.51	230.54
371.89	230.58
372.27	230.50
372.65	230.41
373.03	230.42
373.41	230.32
373.78	230.22
374.16	230.07
374.54	229.96
374.92	229.87
375.30	229.85
375.68	229.75
376.06	229.64
376.44	229.52
376.82	229.50
377.19	229.54
377.57	229.50
377.95	229.40
378.33	229.42
378.71	229.26
379.09	229.19
379.47	229.17
379.84	229.00
380.22	229.04
380.60	228.86
380.98	228.83
381.36	228.78
381.73	228.70
382.11	228.70
382.49	228.67
382.87	228.60
383.25	228.50
383.62	228.74
384.00	228.80
384.38	228.76
384.76	228.66
385.13	228.59
385.51	228.53
385.89	228.48
386.27	228.39
386.64	228.33
387.02	228.30
387.40	228.19
387.78	228.16
388.15	228.03
388.53	227.91
388.91	227.74
389.29	227.66
389.66	227.64
390.04	227.55
390.42	227.53
390.79	227.51
391.17	227.53
391.55	227.24
391.92	227.17
392.30	227.23
392.68	227.20
393.05	227.19
393.43	227.17
393.81	227.24
394.18	227.33
394.56	227.37
394.94	227.47
395.31	227.55
395.69	227.65
396.06	227.78
396.44	227.97
396.82	228.13
397.19	228.28
397.57	228.36
397.95	228.61
398.32	228.62
398.70	228.73
399.07	228.88
399.45	229.09
399.82	229.15
400.20	229.20
400.58	229.42
400.95	229.45
401.33	229.75
401.70	229.94
402.08	229.97
402.45	230.14
402.83	230.44
403.20	230.64
403.58	230.83
403.95	231.13
404.33	231.46
404.71	231.67
405.08	232.13
405.46	232.55
405.83	232.90
406.21	233.35
406.58	233.71
406.96	234.19
407.33	234.65
407.70	235.17
408.08	235.87
408.45	236.45
408.83	237.16
409.20	237.75
409.58	238.42
409.95	239.24
410.33	240.08
410.70	240.68
411.08	241.57
411.45	242.66
411.82	243.69
412.20	244.86
412.57	246.23
412.95	247.27
413.32	248.45
413.69	249.72
414.07	251.09
414.44	252.65
414.82	254.28
415.19	256.08
415.56	257.97
415.94	259.88
416.31	262.06
416.68	264.21
417.06	266.67
417.43	269.09
417.81	271.72
418.18	274.38
418.55	277.51
418.93	280.61
419.30	283.71
419.67	286.73
420.04	290.11
420.42	293.70
420.79	297.74
421.16	301.90
421.54	306.00
421.91	310.45
422.28	315.10
422.66	319.87
423.03	324.58
423.40	329.53
423.77	334.67
424.15	339.95
424.52	345.50
424.89	351.49
425.26	357.36
425.64	362.82
426.01	368.89
426.38	375.23
426.75	381.72
427.13	388.35
427.50	395.60
427.87	402.70
428.24	409.82
428.61	416.76
428.99	424.17
429.36	432.50
429.73	440.68
430.10	448.84
430.47	456.97
430.85	465.40
431.22	474.35
431.59	483.89
431.96	492.90
432.33	503.02
432.70	512.69
433.08	523.87
433.45	534.48
433.82	545.23
434.19	556.87
434.56	568.40
434.93	579.53
435.30	590.67
435.68	602.99
436.05	615.20
436.42	627.13
436.79	638.12
437.16	649.67
437.53	662.01
437.90	674.16
438.27	686.28
438.64	698.90
439.01	710.73
439.38	721.17
439.75	731.20
440.13	742.62
440.50	753.61
440.87	762.53
441.24	772.16
441.61	782.54
441.98	790.27
442.35	799.57
442.72	808.78
443.09	817.70
443.46	823.50
443.83	827.46
444.20	831.34
444.57	836.39
444.94	839.45
445.31	842.36
445.68	845.33
446.05	847.53
446.42	847.58
446.79	847.30
447.16	847.31
447.53	847.59
447.90	844.54
448.27	841.40
448.64	836.65
449.01	833.58
449.37	826.83
449.74	820.56
450.11	811.90
450.48	802.86
450.85	793.78
451.22	786.22
451.59	778.85
451.96	771.87
452.33	762.20
452.70	753.54
453.07	742.57
453.43	731.57
453.80	720.73
454.17	710.23
454.54	700.49
454.91	689.53
455.28	679.02
455.65	669.18
456.02	658.88
456.38	650.51
456.75	639.64
457.12	630.60
457.49	621.48
457.86	613.06
458.23	605.73
458.59	597.25
458.96	588.73
459.33	581.40
459.70	573.90
460.07	567.90
460.43	560.91
460.80	554.58
461.17	548.70
461.54	542.59
461.91	537.02
462.27	531.08
462.64	526.07
463.01	520.70
463.38	515.19
463.74	510.07
464.11	505.07
464.48	500.87
464.85	496.27
465.21	492.83
465.58	489.29
465.95	484.81
466.32	481.01
466.68	477.26
467.05	473.59
467.42	469.86
467.78	465.97
468.15	462.30
468.52	459.56
468.88	456.02
469.25	452.80
469.62	450.20
469.98	447.42
470.35	444.77
470.72	442.19
471.08	439.70
471.45	437.42
471.82	435.21
472.18	432.70
472.55	430.93
472.92	428.80
473.28	426.90
473.65	425.02
474.02	423.36
474.38	421.71
474.75	420.28
475.11	418.73
475.48	417.58
475.85	416.55
476.21	415.47
476.58	414.62
476.94	414.02
477.31	413.18
477.67	412.20
478.04	411.54
478.41	411.06
478.77	410.54
479.14	409.91
479.50	409.63
479.87	409.63
480.23	409.61
480.60	409.40
480.96	409.18
481.33	409.37
481.69	409.60
482.06	409.66
482.42	409.63
482.79	410.06
483.15	410.65
483.52	411.42
483.88	412.08
484.25	412.78
484.61	413.50
484.98	414.32
485.34	415.57
485.71	416.90
486.07	418.21
486.44	419.47
486.80	421.22
487.17	422.64
487.53	424.33
487.90	426.15
488.26	428.03
488.62	429.96
488.99	431.97
489.35	433.99
489.72	436.36
490.08	439.18
490.44	441.75
490.81	444.23
491.17	446.61
491.54	449.32
491.90	452.10
492.26	455.14
492.63	458.33
492.99	461.43
493.36	464.56
493.72	468.05
494.08	471.62
494.45	475.20
494.81	479.05
495.17	483.07
495.54	486.88
495.90	491.10
496.26	495.47
496.63	499.66
496.99	504.01
497.35	508.62
497.72	512.89
498.08	517.49
498.44	522.50
498.80	527.73
499.17	532.86
499.53	537.90
499.89	543.03
500.26	548.01
500.62	553.20
500.98	558.64
501.34	563.90
501.71	569.36
502.07	574.56
502.43	579.99
502.79	585.32
503.16	590.92
503.52	596.35
503.88	601.59
504.24	607.04
504.60	612.79
504.97	618.31
505.33	624.12
505.69	630.16
506.05	635.64
506.41	640.86
506.78	646.41
507.14	652.07
507.50	657.56
507.86	663.35
508.22	668.94
508.59	674.33
508.95	679.80
509.31	685.28
509.67	690.95
510.03	696.43
510.39	701.67
510.75	706.85
511.12	712.30
511.48	717.50
511.84	722.63
512.20	727.54
512.56	732.71
512.92	737.72
513.28	742.39
513.64	746.83
514.00	751.62
514.37	756.07
514.73	760.40
515.09	764.80
515.45	768.99
515.81	773.22
516.17	777.51
516.53	781.81
516.89	785.87
517.25	789.79
517.61	793.56
517.97	797.38
518.33	800.92
518.69	804.19
519.05	808.01
519.41	811.79
519.77	815.70
520.13	819.26
520.49	822.40
520.85	825.68
521.21	829.23
521.57	832.75
521.93	835.61
522.29	838.91
522.65	841.96
523.01	844.59
523.37	847.06
523.73	849.77
524.09	852.44
524.45	855.09
524.81	857.90
525.17	860.82
525.53	863.77
525.89	866.75
526.25	869.70
526.61	871.72
526.97	874.40
527.33	876.66
527.68	879.03
528.04	881.64
528.40	883.94
528.76	886.62
529.12	889.19
529.48	892.35
529.84	894.68
530.20	897.22
530.56	900.24
530.91	903.68
531.27	906.60
531.63	909.16
531.99	911.67
532.35	913.90
532.71	916.02
533.07	918.38
533.42	920.87
533.78	923.28
534.14	926.20
534.50	928.31
534.86	930.74
535.21	932.73
535.57	935.24
535.93	937.76
536.29	940.02
536.65	942.24
537.00	944.30
537.36	946.89
537.72	949.12
538.08	951.41
538.44	953.29
538.79	955.19
539.15	957.36
539.51	960.03
539.87	962.82
540.22	965.42
540.58	968.29
540.94	970.40
541.29	972.81
541.65	974.98
542.01	977.81
542.37	980.16
542.72	982.79
543.08	985.02
543.44	987.66
543.79	989.50
544.15	991.70
544.51	994.33
544.87	997.01
545.22	999.47
545.58	1001.97
545.94	1004.07
546.29	1006.28
546.65	1008.40
547.01	1010.22
547.36	1011.99
547.72	1014.17
548.07	1015.87
548.43	1018.07
548.79	1020.23
549.14	1022.27
549.50	1023.95
549.86	1025.79
550.21	1027.71
550.57	1029.93
550.92	1031.48
551.28	1033.90
551.64	1035.94
551.99	1038.01
552.35	1039.54
552.70	1041.84
553.06	1043.76
553.41	1045.76
553.77	1047.95
554.13	1050.17
554.48	1052.30
554.84	1054.43
555.19	1056.30
555.55	1058.41
555.90	1060.26
556.26	1061.81
556.61	1063.84
556.97	1065.73
557.32	1067.75
557.68	1069.70
558.03	1071.44
558.39	1073.16
558.74	1075.12
559.10	1077.02
559.45	1078.62
559.81	1080.60
560.16	1081.77
560.52	1083.35
560.87	1085.35
561.23	1086.97
561.58	1088.61
561.94	1090.20
562.29	1091.51
562.64	1092.75
563.00	1094.04
563.35	1095.83
563.71	1097.90
564.06	1099.71
564.42	1101.34
564.77	1102.85
565.12	1104.52
565.48	1106.03
565.83	1107.40
566.19	1108.70
566.54	1109.84
566.89	1110.87
567.25	1112.04
567.60	1113.66
567.96	1114.63
568.31	1115.56
568.66	1116.66
569.02	1117.46
569.37	1118.17
569.72	1118.94
570.08	1119.88
570.43	1120.49
570.78	1120.99
571.14	1121.11
571.49	1121.21
571.84	1121.70
572.20	1122.00
572.55	1121.92
572.90	1122.07
573.26	1122.53
573.61	1122.34
573.96	1122.04
574.31	1121.57
574.67	1120.85
575.02	1119.80
575.37	1119.30
575.72	1118.12
576.08	1117.34
576.43	1116.52
576.78	1115.92
577.13	1115.30
577.49	1114.91
577.84	1114.27
578.19	1113.20
578.54	1112.25
578.90	1111.39
579.25	1109.51
579.60	1108.03
579.95	1106.63
580.30	1104.89
580.66	1103.10
581.01	1101.70
581.36	1100.24
581.71	1098.91
582.06	1097.65
582.42	1096.41
582.77	1094.71
583.12	1093.51
583.47	1091.77
583.82	1090.31
584.17	1088.25
584.53	1086.44
584.88	1084.16
585.23	1081.65
585.58	1079.63
585.93	1077.76
586.28	1076.07
586.63	1074.96
586.98	1073.41
587.34	1071.69
587.69	1069.74
588.04	1068.01
588.39	1066.16
588.74	1063.73
589.09	1061.50
589.44	1059.07
589.79	1056.71
590.14	1054.60
590.49	1052.22
590.84	1050.06
591.19	1047.99
591.54	1045.36
591.89	1042.59
592.25	1040.31
592.60	1037.75
592.95	1034.89
593.30	1031.78
593.65	1028.59
594.00	1025.50
594.35	1022.90
594.70	1019.84
595.05	1017.37
595.40	1014.27
595.75	1010.90
596.10	1008.62
596.45	1005.97
596.80	1003.63
597.15	1000.85
597.50	998.05
597.85	995.69
598.19	993.22
598.54	990.29
598.89	988.18
599.24	985.97
599.59	983.06
599.94	980.63
600.29	978.00
600.64	975.34
600.99	972.32
601.34	969.32
601.69	965.94
602.04	963.28
602.39	960.04
602.74	957.39
603.08	955.03
603.43	952.52
603.78	949.72
604.13	946.63
604.48	943.81
604.83	941.05
605.18	937.92
605.53	934.35
605.87	930.80
606.22	927.55
606.57	924.26
606.92	921.20
607.27	918.17
607.62	915.32
607.96	912.40
608.31	909.49
608.66	906.46
609.01	903.23
609.36	899.59
609.70	896.00
610.05	892.47
610.40	888.90
610.75	884.55
611.10	880.88
611.44	876.78
611.79	873.22
612.14	869.38
612.49	865.41
612.83	861.91
613.18	858.33
613.53	854.68
613.88	850.61
614.22	846.60
614.57	842.50
614.92	838.66
615.27	835.08
615.61	831.39
615.96	827.57
616.31	824.05
616.65	820.91
617.00	817.78
617.35	814.05
617.70	810.27
618.04	806.98
618.39	803.38
618.74	800.13
619.08	796.50
619.43	793.00
619.78	789.56
620.12	785.90
620.47	782.30
620.82	778.61
621.16	775.04
621.51	771.95
621.85	768.75
622.20	765.43
622.55	761.94
622.89	758.51
623.24	755.11
623.59	751.88
623.93	748.54
624.28	744.86
624.62	741.77
624.97	738.85
625.32	735.54
625.66	732.08
626.01	728.84
626.35	725.47
626.70	722.18
627.04	718.95
627.39	715.58
627.73	712.43
628.08	709.43
628.43	706.35
628.77	702.93
629.12	699.65
629.46	696.26
629.81	692.78
630.15	689.41
630.50	686.05
630.84	682.43
631.19	678.90
631.53	675.80
631.88	672.17
632.22	668.59
632.57	665.48
632.91	662.42
633.26	659.04
633.60	656.06
633.95	652.70
634.29	649.60
634.64	646.85
634.98	643.73
635.32	640.55
635.67	637.89
636.01	635.27
636.36	632.35
636.70	629.64
637.05	626.98
637.39	624.25
637.73	621.70
638.08	619.11
638.42	616.49
638.77	613.71
639.11	611.10
639.45	608.29
639.80	605.46
640.14	602.91
640.49	600.45
640.83	597.58
641.17	595.10
641.52	592.32
641.86	589.47
642.20	587.00
642.55	584.41
642.89	581.86
643.23	578.90
643.58	576.60
643.92	573.66
644.26	571.03
644.61	568.64
644.95	566.01
645.29	563.07
645.64	560.18
645.98	557.70
646.32	555.24
646.66	552.68
647.01	550.20
647.35	547.56
647.69	544.87
648.04	542.47
648.38	539.95
648.72	537.51
649.06	534.96
649.41	532.37
649.75	529.79
650.09	526.80
650.43	524.21
650.78	521.33
651.12	518.98
651.46	516.40
651.80	513.75
652.14	511.36
652.49	509.11
652.83	506.88
653.17	504.28
653.51	501.79
653.85	499.39
654.20	496.90
654.54	494.39
654.88	491.94
655.22	489.36
655.56	486.81
655.90	484.46
656.25	482.13
656.59	479.88
656.93	477.51
657.27	475.46
657.61	473.18
657.95	471.07
658.29	468.77
658.64	466.52
658.98	464.15
659.32	461.72
659.66	459.31
660.00	457.03
660.34	454.90
660.68	452.70
661.02	450.54
661.36	448.50
661.70	446.35
662.05	444.50
662.39	442.63
662.73	440.68
663.07	438.64
663.41	436.71
663.75	434.63
664.09	432.55
664.43	430.39
664.77	428.40
665.11	426.35
665.45	424.69
665.79	422.70
666.13	420.78
666.47	419.01
666.81	417.37
667.15	415.34
667.49	413.68
667.83	411.98
668.17	410.20
668.51	408.28
668.85	406.67
669.19	405.09
669.53	403.33
669.87	401.40
670.21	399.81
670.55	398.06
670.89	396.56
671.23	395.04
671.57	393.59
671.91	392.10
672.25	390.41
672.58	388.85
672.92	387.45
673.26	386.01
673.60	384.53
673.94	383.18
674.28	381.96
674.62	380.70
674.96	379.30
675.30	377.90
675.64	376.55
675.97	375.12
676.31	373.47
676.65	372.19
676.99	371.11
677.33	369.70
677.67	368.48
678.01	366.98
678.34	365.77
678.68	364.63
679.02	363.37
679.36	362.25
679.70	361.05
680.04	359.75
680.37	358.56
680.71	357.24
681.05	356.12
681.39	354.94
681.73	353.54
682.06	352.49
682.40	351.34
682.74	350.20
683.08	349.03
683.42	347.90
683.75	346.66
684.09	345.49
684.43	344.41
684.77	343.30
685.10	342.29
685.44	341.19
685.78	340.07
686.12	339.07
686.45	338.01
686.79	336.69
687.13	335.82
687.46	334.86
687.80	333.97
688.14	332.78
688.48	331.75
688.81	330.68
689.15	329.52
689.49	328.47
689.82	327.68
690.16	326.69
690.50	325.80
690.83	324.92
691.17	323.94
691.51	323.00
691.84	321.96
692.18	321.04
692.52	320.13
692.85	319.16
693.19	318.17
693.52	317.32
693.86	316.45
694.20	315.46
694.53	314.57
694.87	313.63
695.21	312.70
695.54	311.80
695.88	310.81
696.21	309.90
696.55	309.11
696.88	308.11
697.22	307.29
697.56	306.38
697.89	305.55
698.23	304.79
698.56	303.90
698.90	303.08
699.23	302.27
699.57	301.42
699.90	300.60
700.24	299.83
700.58	298.97
700.91	298.20
701.25	297.47
701.58	296.75
701.92	295.98
702.25	295.23
702.59	294.56
702.92	293.94
703.26	293.29
703.59	292.60
703.93	292.10
704.26	291.50
704.60	290.96
704.93	290.35
705.26	289.74
705.60	289.26
705.93	288.52
706.27	287.93
706.60	287.35
706.94	286.73
707.27	286.06
707.61	285.42
707.94	284.88
708.27	284.22
708.61	283.45
708.94	282.76
709.28	282.28
709.61	281.77
709.94	281.27
710.28	280.69
710.61	280.04
710.95	279.22
711.28	278.78
711.61	278.13
711.95	277.54
712.28	276.83
712.61	276.25
712.95	275.91
713.28	275.31
713.61	274.68
713.95	274.15
714.28	273.70
714.61	273.20
714.95	272.72
715.28	272.21
715.61	271.73
715.95	271.42
716.28	270.76
716.61	270.18
716.95	269.59
717.28	269.18
717.61	268.79
717.94	268.42
718.28	267.79
718.61	267.39
718.94	266.87
719.27	266.58
719.61	266.17
719.94	265.72
720.27	265.35
720.60	264.90
720.94	264.48
721.27	264.14
721.60	263.81
721.93	263.39
722.27	263.17
722.60	262.83
722.93	262.36
723.26	262.17
723.59	261.83
723.93	261.50
724.26	261.15
724.59	260.73
724.92	260.37
725.25	260.09
725.59	259.78
725.92	259.54
726.25	259.12
726.58	258.77
726.91	258.54
727.24	258.28
727.57	258.06
727.91	257.74
728.24	257.48
728.57	257.10
728.90	256.78
729.23	256.28
729.56	256.19
729.89	256.01
730.22	255.74
730.55	255.41
730.89	255.20
731.22	254.95
731.55	254.76
731.88	254.50
732.21	254.20
732.54	253.84
732.87	253.58
733.20	253.37
733.53	253.08
733.86	252.84
734.19	252.57
734.52	252.40
734.85	252.38
735.18	251.99
735.51	251.85
735.84	251.64
736.17	251.57
736.50	251.17
736.83	251.10
737.16	250.88
737.49	250.72
737.82	250.49
738.15	250.20
738.48	250.04
738.81	249.81
739.14	249.65
739.47	249.54
739.80	249.36
740.13	249.20
740.46	249.05
740.79	248.83
741.12	248.65
741.45	248.37
741.78	247.98
742.11	247.99
742.44	247.74
742.77	247.61
743.10	247.33
743.43	247.15
743.75	246.70
744.08	246.78
744.41	246.54
744.74	246.39
745.07	246.25
745.40	246.14
745.73	246.10
746.06	245.82
746.39	245.61
746.71	245.40
747.04	245.19
747.37	244.90
747.70	244.70
748.03	244.46
748.36	244.38
748.68	244.20
749.01	243.89
749.34	243.74
749.67	243.54
750.00	243.40
750.33	243.31
750.65	243.20
750.98	242.73
751.31	242.62
751.64	242.41
751.97	242.30
752.29	242.04
752.62	241.77
752.95	241.64
753.28	241.44
753.60	241.24
753.93	241.05
754.26	240.99
754.59	240.83
754.91	240.70
755.24	240.56
755.57	240.38
755.90	240.19
756.22	239.98
756.55	239.84
756.88	239.66
757.20	239.39
757.53	239.13
757.86	239.02
758.19	238.85
758.51	238.77
758.84	238.54
759.17	238.36
759.49	238.23
759.82	238.16
760.15	238.06
760.47	237.94
760.80	237.89
761.13	237.88
761.45	237.67
761.78	237.55
762.11	237.47
762.43	237.40
762.76	237.35
763.08	237.20
763.41	237.13
763.74	237.09
764.06	237.11
764.39	237.16
764.71	237.09
765.04	237.06
765.37	236.88
765.69	236.80
766.02	236.72
766.34	236.66
766.67	236.60
767.00	236.60
767.32	236.69
767.65	236.58
767.97	236.40
768.30	236.38
768.62	236.35
768.95	236.24
769.27	236.24
769.60	236.13
769.92	236.12
770.25	235.95
770.57	235.78
770.90	235.65
771.22	235.60
771.55	235.52
771.87	235.38
772.20	235.47
772.52	235.60
772.85	235.80
773.17	235.61
773.50	235.51
773.82	235.40
774.15	235.18
774.47	235.08
774.80	235.04
775.12	235.00
775.45	234.85
775.77	234.81
776.09	234.69
776.42	234.72
776.74	234.62
777.07	234.61
777.39	234.58
777.72	234.54
778.04	234.43
778.36	234.39
778.69	234.38
779.01	234.14
779.33	233.91
779.66	233.61
779.98	233.65
780.31	233.61
780.63	233.53
780.95	233.51
781.28	233.44
781.60	233.37
781.92	233.29
782.25	233.26
782.57	233.10
782.89	233.08
783.22	232.84
783.54	232.83
783.86	232.80
784.19	232.73
784.51	232.71
784.83	232.53
785.16	232.40
785.48	232.31
785.80	232.23
786.12	232.17
786.45	232.10
786.77	232.10
787.09	232.00
787.42	231.90
787.74	231.81
788.06	231.75
788.38	231.67
788.71	231.62
789.03	231.60
789.35	231.69
789.67	231.58
789.99	231.70
790.32	231.70
790.64	231.55
790.96	231.71
791.28	231.59
791.61	231.60
791.93	231.54
792.25	231.48
792.57	231.58
792.89	231.59
793.21	231.55
793.54	231.39
793.86	231.36
794.18	231.37
794.50	231.35
794.82	231.37
795.14	231.40
795.47	231.41
795.79	231.43
796.11	231.35
796.43	231.39
796.75	231.34
797.07	231.19
797.39	231.27
797.71	231.13
798.04	231.18
798.36	231.14
798.68	231.25
799.00	231.24
799.32	231.23
799.64	231.15
799.96	231.28
800.28	231.32
800.60	231.34
800.92	231.26
801.24	231.25
801.56	231.26
801.89	231.20
802.21	231.16
802.53	231.07
802.85	231.04
803.17	231.15
803.49	231.05
803.81	231.02
804.13	230.92
804.45	230.84
804.77	230.83
805.09	230.90
805.41	230.84
805.73	230.92
806.05	230.89
806.37	230.89
806.69	230.70
807.01	230.71
807.33	230.71
807.65	230.81
807.97	230.91
808.28	230.92
808.60	230.94
808.92	230.98
809.24	231.11
809.56	231.13
809.88	230.91
810.20	231.03
810.52	231.13
810.84	231.21
811.16	231.20
811.48	231.07
811.80	231.04
812.12	231.14
812.43	231.16
812.75	231.13
813.07	231.15
813.39	231.18
813.71	231.16
814.03	231.08
814.35	230.99
814.67	230.93
814.98	230.91
815.30	230.79
815.62	230.64
815.94	230.40
816.26	230.39
816.58	230.45
816.89	230.33
817.21	230.23
817.53	230.18
817.85	230.20
818.17	230.21
818.48	230.12
818.80	229.97
819.12	229.81
819.44	229.78
819.76	229.66
820.07	229.63
820.39	229.48
820.71	229.55
821.03	229.48
821.34	229.46
821.66	229.39
821.98	229.42
822.30	229.37
822.61	229.45
822.93	229.40
823.25	229.27
823.57	229.33
823.88	229.33
824.20	229.30
824.52	229.28
824.83	229.34
825.15	229.41
825.47	229.32
825.79	229.38
826.10	229.27
826.42	229.31
826.74	229.35
827.05	229.40
827.37	229.29
827.69	229.28
828.00	229.20
828.32	229.20
828.64	229.13
828.95	229.28
829.27	229.26
829.58	229.14
829.90	229.16
830.22	229.11
830.53	229.07
830.85	228.96
831.17	228.96
831.48	228.79
831.80	228.79
832.11	228.80
832.43	228.77
832.75	228.83
833.06	228.91
833.38	228.80
833.69	228.86
834.01	228.93
834.32	228.90
834.64	228.85
834.96	228.71
835.27	228.80
835.59	228.85
835.90	228.73
836.22	228.82
836.53	228.84
836.85	228.77
837.16	229.08
837.48	229.17
837.79	229.18
838.11	229.31
838.42	229.30
838.74	229.38
839.05	229.37
839.37	229.45
839.68	229.38
840.00	229.50
840.31	229.46
840.63	229.46
840.94	229.45
841.26	229.51
841.57	229.73
841.88	229.78
842.20	229.65
842.51	229.75
842.83	229.69
843.14	229.84
843.46	229.99
843.77	229.84
844.08	229.90
844.40	229.91
844.71	229.88
845.03	229.86
845.34	229.82
845.65	229.90
845.97	229.90
846.28	229.91
846.60	229.90
846.91	229.96
847.22	230.02
847.54	230.17
847.85	230.13
848.16	229.92
848.48	229.82
848.79	229.87
849.10	229.96
849.42	230.01
849.73	229.94
850.04	229.76
850.36	229.70
850.67	229.61
850.98	229.60
851.30	229.69
851.61	229.66
851.92	229.76
852.23	229.71
852.55	229.70
852.86	229.64
853.17	229.56
853.49	229.55
853.80	229.45
854.11	229.50
854.42	229.42
854.74	229.42
855.05	229.45
855.36	229.40
855.67	229.39
855.99	229.41
856.30	229.55
856.61	229.60
856.92	229.57
857.23	229.66
857.55	229.61
857.86	229.53
858.17	229.54
858.48	229.50
858.79	229.53
859.11	229.38
859.42	229.43
859.73	229.40
860.04	229.32
860.35	229.33
860.66	229.14
860.98	229.32
861.29	229.46
861.60	229.43
861.91	229.41
862.22	229.34
862.53	229.21
862.84	229.01
863.16	228.98
863.47	228.94
863.78	228.88
864.09	228.84
864.40	228.80
864.71	228.83
865.02	228.78
865.33	228.65
865.64	228.70
865.95	228.62
866.27	228.78
866.58	228.81
866.89	228.75
867.20	228.70
867.51	228.60
867.82	228.51
868.13	228.56
868.44	228.50
868.75	228.45
869.06	228.48
869.37	228.59
869.68	228.63
869.99	228.64
870.30	228.62
870.61	228.63
870.92	228.67
871.23	228.60
871.54	228.48
871.85	228.66
872.16	228.73
872.47	228.72
872.78	228.65
873.09	228.69
873.40	228.67
873.71	228.73
874.02	228.71
874.33	228.77
874.64	228.72
874.95	228.85
875.26	228.84
875.56	228.92
875.87	228.81
876.18	228.79
876.49	228.98
876.80	229.00
877.11	229.07
877.42	229.06
877.73	229.11
878.04	229.19
878.35	229.12
878.66	229.09
878.96	229.09
879.27	229.06
879.58	229.06
879.89	229.09
880.20	229.23
880.51	229.28
880.82	229.27
881.12	229.35
881.43	229.22
881.74	229.18
882.05	229.11
882.36	229.14
882.67	229.16
882.97	229.09
883.28	229.08
883.59	229.06
883.90	229.17
884.21	229.21
884.51	229.26
884.82	229.22
885.13	229.24
885.44	229.21
885.74	229.24
886.05	229.24
886.36	229.29
886.67	229.20
886.98	229.30
887.28	229.35
887.59	229.30
887.90	229.41
888.20	229.52
888.51	229.65
888.82	229.53
889.13	229.55
889.43	229.62
889.74	229.65
890.05	229.59
890.35	229.60
890.66	229.54
890.97	229.50
891.28	229.46
891.58	229.37
891.89	229.42
892.20	229.30
892.50	229.21
892.81	229.18
893.12	229.14
893.42	228.98
893.73	229.00
894.04	229.01
894.34	229.02
894.65	228.97
894.95	228.86
895.26	228.94
895.57	229.01
895.87	228.83
896.18	228.87
896.48	228.89
896.79	228.77
897.10	228.77
897.40	228.81
897.71	228.76
898.01	228.85
898.32	228.82
898.63	228.90
898.93	228.96
899.24	228.92
899.54	228.84
899.85	228.89
900.15	228.79
900.46	228.74
900.76	228.71
901.07	228.66
901.38	228.68
901.68	228.69
901.99	228.50
902.29	228.51
902.60	228.41
902.90	228.43
903.21	228.41
903.51	228.36
903.82	228.38
904.12	228.44
904.43	228.43
904.73	228.39
905.03	228.31
905.34	228.44
905.64	228.38
905.95	228.40
906.25	228.30
906.56	228.32
906.86	228.30
907.17	228.16
907.47	228.12
907.77	228.05
908.08	228.02
908.38	228.01
908.69	228.05
908.99	228.03
909.30	227.98
909.60	228.01
909.90	228.02
910.21	227.86
910.51	227.85
910.81	227.84
911.12	227.87
911.42	227.93
911.73	227.76
912.03	227.73
912.33	227.72
912.64	227.71
912.94	227.70
913.24	227.77
913.55	227.77
913.85	227.81
914.15	227.86
914.46	227.89
914.76	227.94
915.06	227.87
915.37	227.88
915.67	227.86
915.97	227.83
916.27	227.72
916.58	227.81
916.88	227.82
917.18	227.76
917.49	227.99
917.79	227.96
918.09	227.97
918.39	228.09
918.70	228.11
919.00	228.22
919.30	228.34
919.60	228.24
919.91	228.28
920.21	228.29
920.51	228.38
920.81	228.30
921.12	228.35
921.42	228.44
921.72	228.47
922.02	228.53
922.32	228.44
922.63	228.53
922.93	228.63
923.23	228.59
923.53	228.62
923.83	228.44
924.13	228.51
924.44	228.58
924.74	228.71
925.04	228.80
925.34	228.79
925.64	228.68
925.94	228.74
926.24	228.92
926.55	228.91
926.85	228.79
927.15	228.86
927.45	228.90
927.75	228.75
928.05	228.88
928.35	228.77
928.65	228.82
928.95	228.91
929.26	228.94
929.56	228.98
929.86	229.01
930.16	228.83
930.46	228.82
930.76	228.79
931.06	228.54
931.36	228.53
931.66	228.59
931.96	228.65
932.26	228.70
932.56	228.57
932.86	228.56
933.16	228.62
933.46	228.68
933.76	228.60
934.06	228.69
934.36	228.68
934.66	228.79
934.96	228.80
935.26	228.76
935.56	228.76
935.86	228.70
936.16	228.67
936.46	228.86
936.76	228.74
937.06	228.78
937.36	228.78
937.66	228.76
937.96	228.80
938.26	228.65
938.56	228.50
938.86	228.50
939.16	228.55
939.46	228.58
939.76	228.52
940.06	228.52
940.35	228.58
940.65	228.45
940.95	228.40
941.25	228.40
941.55	228.40
941.85	228.30
942.15	228.41
942.45	228.41
942.75	228.31
943.04	228.38
943.34	228.31
943.64	228.41
943.94	228.31
944.24	228.25
944.54	228.33
944.84	228.42
945.13	228.47
945.43	228.36
945.73	228.34
946.03	228.29
946.33	228.23
946.62	228.17
946.92	228.13
947.22	228.23
947.52	228.24
947.82	228.22
948.11	228.21
948.41	228.20
948.71	228.20
949.01	228.13
949.31	228.11
949.60	228.05
949.90	228.14
950.20	228.17
950.50	228.16
950.79	228.09
951.09	228.10
951.39	228.03
951.69	228.05
951.98	228.03
952.28	228.04
952.58	228.06
952.87	228.00
953.17	228.03
953.47	227.94
953.76	227.94
954.06	227.95
954.36	228.05
954.66	228.09
954.95	228.08
955.25	228.28
955.55	228.33
955.84	228.35
956.14	228.33
956.44	228.32
956.73	228.38
957.03	228.50
957.32	228.53
957.62	228.49
957.92	228.58
958.21	228.57
958.51	228.80
958.81	228.84
959.10	228.96
959.40	229.05
959.69	229.07
959.99	229.04
960.29	229.06
960.58	228.97
960.88	229.01
961.17	229.12
961.47	229.09
961.76	229.03
962.06	229.14
962.36	229.16
962.65	229.15
962.95	229.03
963.24	228.97
963.54	228.89
963.83	228.94
964.13	228.88
964.42	228.84
964.72	228.65
965.01	228.66
965.31	228.63
965.60	228.50
965.90	228.65
966.19	228.58
966.49	228.55
966.78	228.49
967.08	228.41
967.37	228.33
967.67	228.33
967.96	228.42
968.26	228.33
968.55	228.31
968.85	228.33
969.14	228.37
969.43	228.29
969.73	228.31
970.02	228.38
970.32	228.45
970.61	228.46
970.91	228.36
971.20	228.31
971.49	228.22
971.79	228.37
972.08	228.17
972.38	228.30
972.67	228.29
972.96	228.36
973.26	228.29
973.55	228.34
973.85	228.29
974.14	228.20
974.43	228.25
974.73	228.11
975.02	228.12
975.31	228.12
975.61	228.09
975.90	228.07
976.19	227.98
976.49	227.96
976.78	227.90
977.07	227.97
977.37	227.98
977.66	228.00
977.95	227.91
978.24	227.99
978.54	227.91
978.83	227.85
979.12	227.77
979.42	227.76
979.71	227.69
980.00	227.59
980.29	227.59
980.59	227.50
980.88	227.53
981.17	227.43
981.46	227.39
981.76	227.41
982.05	227.41
982.34	227.43
982.63	227.40
982.93	227.49
983.22	227.38
983.51	227.36
983.80	227.27
984.09	227.29
984.39	227.25
984.68	227.28
984.97	227.22
985.26	227.24
985.55	227.29
985.85	227.12
986.14	227.20
986.43	227.20
986.72	227.22
987.01	227.24
987.30	227.39
987.59	227.37
987.89	227.46
988.18	227.45
988.47	227.40
988.76	227.48
989.05	227.45
989.34	227.57
989.63	227.70
989.92	227.77
990.22	227.69
990.51	227.70
990.80	227.67
991.09	227.89
991.38	227.94
991.67	227.91
991.96	228.01
992.25	228.01
992.54	228.05
992.83	228.12
993.12	228.09
993.41	228.08
993.70	228.20
993.99	228.20
994.28	228.25
994.58	228.38
994.87	228.30
995.16	228.35
995.45	228.28
995.74	228.21
996.03	228.31
996.32	228.43
996.61	228.47
996.90	228.49
997.19	228.36
997.48	228.30
997.77	228.35
998.06	228.41
998.34	228.45
998.63	228.44
998.92	228.41
999.21	228.45
999.50	228.46
999.79	228.33
1000.08	228.30
1000.37	228.32
1000.66	228.23
1000.95	228.27
1001.24	228.23
1001.53	228.33
1001.82	228.30
1002.11	228.30
1002.40	228.39
1002.68	228.43
1002.97	228.58
1003.26	228.62
1003.55	228.68
1003.84	228.69
1004.13	228.74
1004.42	228.60
1004.71	228.64
1004.99	228.66
1005.28	228.73
1005.57	228.74
1005.86	228.78
1006.15	228.74
1006.44	228.67
1006.72	228.69
1007.01	228.70
1007.30	228.74
1007.59	228.69
1007.88	228.75
1008.17	228.62
1008.45	228.49
1008.74	228.41
1009.03	228.40
1009.32	228.36
1009.60	228.37
1009.89	228.25
1010.18	228.21
1010.47	228.31
1010.76	228.32
1011.04	228.20
1011.33	228.23
1011.62	228.18
1011.91	228.27
1012.19	228.27
1012.48	228.31
1012.77	228.33
1013.05	228.32
1013.34	228.31
1013.63	228.40
1013.92	228.34
1014.20	228.37
1014.49	228.40
1014.78	228.41
1015.06	228.24
1015.35	228.27
1015.64	228.29
1015.92	228.41
1016.21	228.49
1016.50	228.54
1016.78	228.57
1017.07	228.66
1017.36	228.61
1017.64	228.70
1017.93	228.72
1018.22	228.70
1018.50	228.73
1018.79	228.79
1019.08	228.71
1019.36	228.64
1019.65	228.62
1019.93	228.62
1020.22	228.67
1020.51	228.76
1020.79	228.78
1021.08	228.00
1021.36	228.60
1021.65	229.20
1021.94	227.20
1022.22	227.20
1022.51	229.50
1022.79	227.80
1023.08	228.50
1023.36	231.60
1023.65	228.40
>>>>>End Processed Spectral Data<<<<<
