SpectraSuite Data File
++++++++++++++++++++++++++++++++++++
Date: Fri Feb 01 14:36:39 EST 2013
User: group
Dark Spectrum Present: No
Reference Spectrum Present: No
Number of Sampled Component Spectra: 1
Spectrometers: USB2E7196
Integration Time (usec): 70000 (USB2E7196)
Spectra Averaged: 10 (USB2E7196)
Boxcar Smoothing: 10 (USB2E7196)
Correct for Electrical Dark: No (USB2E7196)
Strobe/Lamp Enabled: No (USB2E7196)
Correct for Detector Non-linearity: No (USB2E7196)
Correct for Stray Light: No (USB2E7196)
Number of Pixels in Processed Spectrum: 2048
>>>>>Begin Processed Spectral Data<<<<<
339.09	0.00
339.48	214.70
339.86	216.70
340.24	218.10
340.63	220.40
341.01	222.80
341.39	223.20
341.78	225.00
342.16	225.40
342.54	225.90
342.93	214.40
343.31	225.26
343.69	225.81
344.07	226.22
344.46	226.67
344.84	227.04
345.22	227.20
345.60	227.47
345.99	227.60
346.37	227.68
346.75	227.75
347.13	227.84
347.52	227.97
347.90	227.97
348.28	227.92
348.66	228.04
349.05	227.87
349.43	227.90
349.81	227.85
350.19	227.79
350.57	227.85
350.96	228.01
351.34	228.03
351.72	228.12
352.10	228.27
352.48	228.40
352.87	228.39
353.25	228.51
353.63	228.54
354.01	228.58
354.39	228.64
354.77	228.70
355.15	228.79
355.54	228.76
355.92	228.69
356.30	228.78
356.68	228.93
357.06	229.10
357.44	229.08
357.82	229.14
358.20	229.26
358.58	229.26
358.97	229.27
359.35	229.45
359.73	229.61
360.11	229.74
360.49	229.71
360.87	229.81
361.25	229.88
361.63	229.94
362.01	229.99
362.39	230.11
362.77	230.07
363.15	230.13
363.53	230.17
363.91	230.24
364.29	230.22
364.67	230.05
365.05	230.02
365.43	230.08
365.81	230.08
366.19	230.05
366.57	230.20
366.95	230.21
367.33	230.15
367.71	230.06
368.09	229.98
368.47	229.86
368.85	229.77
369.23	229.76
369.61	229.70
369.99	229.70
370.37	229.69
370.75	229.72
371.13	229.68
371.51	229.60
371.89	229.51
372.27	229.43
372.65	229.36
373.03	229.30
373.41	229.10
373.78	229.04
374.16	228.82
374.54	228.78
374.92	228.62
375.30	228.43
375.68	228.27
376.06	228.15
376.44	228.07
376.82	228.04
377.19	227.93
377.57	227.78
377.95	227.70
378.33	227.55
378.71	227.46
379.09	227.38
379.47	227.29
379.84	227.10
380.22	227.00
380.60	226.92
380.98	226.87
381.36	226.89
381.73	226.84
382.11	226.99
382.49	226.83
382.87	226.80
383.25	226.80
383.62	227.00
384.00	226.97
384.38	227.01
384.76	226.93
385.13	226.93
385.51	226.92
385.89	226.87
386.27	226.84
386.64	226.83
387.02	226.67
387.40	226.66
387.78	226.76
388.15	226.80
388.53	226.78
388.91	226.76
389.29	226.67
389.66	226.63
390.04	226.53
390.42	226.52
390.79	226.49
391.17	226.43
391.55	226.28
391.92	226.21
392.30	226.22
392.68	226.23
393.05	226.25
393.43	226.23
393.81	226.26
394.18	226.20
394.56	226.26
394.94	226.41
395.31	226.47
395.69	226.54
396.06	226.71
396.44	226.82
396.82	226.83
397.19	227.04
397.57	227.12
397.95	227.17
398.32	227.30
398.70	227.41
399.07	227.60
399.45	227.53
399.82	227.73
400.20	227.86
400.58	228.01
400.95	228.06
401.33	228.25
401.70	228.53
402.08	228.80
402.45	228.86
402.83	229.02
403.20	229.17
403.58	229.25
403.95	229.28
404.33	229.40
404.71	229.66
405.08	229.90
405.46	230.09
405.83	230.41
406.21	230.64
406.58	230.93
406.96	231.20
407.33	231.61
407.70	231.79
408.08	232.27
408.45	232.69
408.83	233.11
409.20	233.51
409.58	233.74
409.95	234.13
410.33	234.68
410.70	235.10
411.08	235.60
411.45	236.20
411.82	236.84
412.20	237.56
412.57	238.33
412.95	238.85
413.32	239.69
413.69	240.39
414.07	241.14
414.44	242.04
414.82	242.95
415.19	243.95
415.56	245.18
415.94	246.13
416.31	247.36
416.68	248.65
417.06	250.05
417.43	251.33
417.81	252.77
418.18	254.28
418.55	256.00
418.93	257.85
419.30	259.69
419.67	261.53
420.04	263.40
420.42	265.34
420.79	267.86
421.16	270.15
421.54	272.62
421.91	275.14
422.28	277.62
422.66	280.43
423.03	283.16
423.40	285.76
423.77	288.70
424.15	291.72
424.52	294.80
424.89	298.12
425.26	301.46
425.64	304.69
426.01	308.19
426.38	311.79
426.75	315.28
427.13	319.00
427.50	322.93
427.87	327.04
428.24	331.27
428.61	335.07
428.99	339.37
429.36	343.97
429.73	348.72
430.10	353.29
430.47	357.81
430.85	362.68
431.22	367.90
431.59	373.42
431.96	378.52
432.33	384.09
432.70	389.65
433.08	396.04
433.45	401.98
433.82	408.01
434.19	414.57
434.56	421.06
434.93	427.26
435.30	433.31
435.68	440.12
436.05	446.89
436.42	453.48
436.79	459.47
437.16	465.94
437.53	472.73
437.90	479.65
438.27	486.24
438.64	493.15
439.01	499.61
439.38	505.34
439.75	510.72
440.13	517.09
440.50	523.00
440.87	527.98
441.24	533.25
441.61	539.02
441.98	543.50
442.35	548.57
442.72	553.60
443.09	558.83
443.46	562.09
443.83	564.09
444.20	566.19
444.57	569.08
444.94	570.78
445.31	572.43
445.68	574.04
446.05	575.26
446.42	575.40
446.79	575.24
447.16	575.14
447.53	575.58
447.90	573.88
448.27	572.32
448.64	569.33
449.01	567.55
449.37	563.49
449.74	559.70
450.11	555.29
450.48	550.31
450.85	545.05
451.22	540.90
451.59	536.90
451.96	532.97
452.33	527.60
452.70	522.61
453.07	516.50
453.43	510.32
453.80	504.31
454.17	498.20
454.54	492.72
454.91	486.67
455.28	480.60
455.65	475.03
456.02	469.27
456.38	464.73
456.75	458.78
457.12	453.81
457.49	448.75
457.86	443.61
458.23	439.50
458.59	434.66
458.96	429.58
459.33	425.43
459.70	421.25
460.07	417.70
460.43	413.82
460.80	410.09
461.17	406.75
461.54	403.32
461.91	400.30
462.27	396.80
462.64	393.86
463.01	390.77
463.38	387.70
463.74	384.52
464.11	381.70
464.48	379.13
464.85	376.66
465.21	374.71
465.58	372.58
465.95	369.90
466.32	367.90
466.68	365.82
467.05	363.60
467.42	361.40
467.78	359.18
468.15	357.00
468.52	355.32
468.88	353.23
469.25	351.24
469.62	349.58
469.98	348.04
470.35	346.49
470.72	344.90
471.08	343.31
471.45	341.99
471.82	340.51
472.18	338.97
472.55	337.75
472.92	336.25
473.28	335.11
473.65	333.92
474.02	332.74
474.38	331.57
474.75	330.56
475.11	329.57
475.48	328.65
475.85	327.86
476.21	327.15
476.58	326.60
476.94	326.08
477.31	325.35
477.67	324.69
478.04	324.05
478.41	323.54
478.77	323.16
479.14	322.70
479.50	322.40
479.87	322.29
480.23	322.02
480.60	321.66
480.96	321.37
481.33	321.39
481.69	321.23
482.06	321.17
482.42	321.09
482.79	320.91
483.15	321.08
483.52	321.18
483.88	321.15
484.25	321.05
484.61	321.28
484.98	321.57
485.34	321.87
485.71	322.21
486.07	322.56
486.44	322.91
486.80	323.32
487.17	323.78
487.53	324.36
487.90	324.80
488.26	325.64
488.62	326.35
488.99	326.85
489.35	327.59
489.72	328.41
490.08	329.14
490.44	330.01
490.81	330.94
491.17	331.78
491.54	332.71
491.90	333.60
492.26	334.52
492.63	335.37
492.99	336.44
493.36	337.41
493.72	338.66
494.08	339.73
494.45	341.01
494.81	342.25
495.17	343.32
495.54	344.70
495.90	345.85
496.26	347.04
496.63	348.42
496.99	349.70
497.35	350.98
497.72	352.27
498.08	353.58
498.44	354.67
498.80	356.13
499.17	357.49
499.53	358.97
499.89	360.36
500.26	361.83
500.62	363.03
500.98	364.38
501.34	365.59
501.71	366.85
502.07	368.14
502.43	369.28
502.79	370.31
503.16	371.48
503.52	372.58
503.88	373.60
504.24	374.58
504.60	375.71
504.97	376.89
505.33	378.17
505.69	379.21
506.05	380.14
506.41	381.01
506.78	381.85
507.14	382.69
507.50	383.55
507.86	384.25
508.22	385.04
508.59	385.70
508.95	386.23
509.31	386.99
509.67	387.50
510.03	388.08
510.39	388.69
510.75	389.24
511.12	389.85
511.48	390.30
511.84	390.80
512.20	391.10
512.56	391.43
512.92	391.64
513.28	392.03
513.64	392.33
514.00	392.44
514.37	392.75
514.73	392.95
515.09	392.99
515.45	393.16
515.81	393.15
516.17	393.23
516.53	393.50
516.89	393.54
517.25	393.66
517.61	393.88
517.97	394.07
518.33	393.89
518.69	393.90
519.05	393.98
519.41	394.06
519.77	394.27
520.13	394.44
520.49	394.56
520.85	394.61
521.21	394.88
521.57	395.12
521.93	395.26
522.29	395.63
522.65	395.96
523.01	396.37
523.37	396.87
523.73	397.47
524.09	397.85
524.45	398.44
524.81	399.12
525.17	399.91
525.53	400.62
525.89	401.52
526.25	402.42
526.61	403.30
526.97	404.26
527.33	405.18
527.68	406.33
528.04	407.46
528.40	408.67
528.76	410.17
529.12	411.72
529.48	413.23
529.84	414.43
530.20	416.00
530.56	417.74
530.91	419.61
531.27	421.46
531.63	423.41
531.99	425.33
532.35	427.11
532.71	429.05
533.07	431.01
533.42	433.26
533.78	435.51
534.14	438.02
534.50	440.55
534.86	443.09
535.21	445.30
535.57	448.00
535.93	450.69
536.29	453.28
536.65	456.08
537.00	458.84
537.36	461.92
537.72	464.90
538.08	467.79
538.44	470.72
538.79	473.70
539.15	476.89
539.51	479.99
539.87	483.38
540.22	486.67
540.58	490.37
540.94	493.72
541.29	497.10
541.65	500.41
542.01	504.15
542.37	507.97
542.72	511.89
543.08	515.47
543.44	519.38
543.79	523.03
544.15	526.76
544.51	530.71
544.87	534.72
545.22	538.67
545.58	542.85
545.94	546.96
546.29	551.12
546.65	555.19
547.01	559.23
547.36	563.24
547.72	567.37
548.07	571.41
548.43	575.76
548.79	580.07
549.14	584.36
549.50	588.24
549.86	592.19
550.21	596.24
550.57	600.44
550.92	604.61
551.28	608.80
551.64	612.97
551.99	617.18
552.35	621.31
552.70	625.62
553.06	629.45
553.41	633.73
553.77	638.00
554.13	642.08
554.48	646.60
554.84	651.14
555.19	655.30
555.55	659.56
555.90	663.49
556.26	667.56
556.61	671.83
556.97	675.84
557.32	680.27
557.68	684.32
558.03	688.53
558.39	692.53
558.74	696.84
559.10	701.06
559.45	705.39
559.81	709.52
560.16	713.31
560.52	717.36
560.87	721.20
561.23	724.90
561.58	728.98
561.94	732.75
562.29	736.32
562.64	740.06
563.00	744.03
563.35	748.18
563.71	752.23
564.06	755.97
564.42	759.99
564.77	763.60
565.12	767.40
565.48	771.23
565.83	774.95
566.19	778.61
566.54	782.14
566.89	785.50
567.25	789.00
567.60	792.67
567.96	796.22
568.31	799.56
568.66	803.04
569.02	805.99
569.37	809.13
569.72	812.34
570.08	815.50
570.43	818.14
570.78	820.82
571.14	823.44
571.49	826.21
571.84	829.20
572.20	831.38
572.55	833.91
572.90	836.16
573.26	838.46
573.61	840.51
573.96	842.59
574.31	844.47
574.67	846.26
575.02	847.93
575.37	849.87
575.72	851.30
576.08	853.07
576.43	854.70
576.78	856.40
577.13	857.94
577.49	859.41
577.84	861.00
578.19	862.70
578.54	863.92
578.90	864.94
579.25	865.60
579.60	866.70
579.95	867.68
580.30	868.62
580.66	869.52
581.01	870.28
581.36	871.19
581.71	872.07
582.06	872.95
582.42	873.29
582.77	873.76
583.12	874.45
583.47	874.89
583.82	875.41
584.17	875.45
584.53	876.03
584.88	876.20
585.23	876.60
585.58	876.47
585.93	876.60
586.28	877.40
586.63	878.00
586.98	878.48
587.34	878.63
587.69	879.09
588.04	879.28
588.39	879.59
588.74	879.16
589.09	879.15
589.44	878.60
589.79	878.73
590.14	878.55
590.49	878.41
590.84	878.06
591.19	877.98
591.54	877.40
591.89	876.31
592.25	876.03
592.60	874.65
592.95	873.79
593.30	872.80
593.65	871.10
594.00	869.81
594.35	869.17
594.70	867.91
595.05	866.85
595.40	865.60
595.75	864.08
596.10	863.14
596.45	861.87
596.80	861.21
597.15	860.21
597.50	859.17
597.85	858.20
598.19	857.28
598.54	856.02
598.89	855.22
599.24	854.45
599.59	852.98
599.94	852.41
600.29	851.16
600.64	849.97
600.99	848.65
601.34	847.27
601.69	845.42
602.04	844.21
602.39	842.41
602.74	840.99
603.08	839.80
603.43	838.60
603.78	837.17
604.13	835.64
604.48	834.30
604.83	832.80
605.18	830.97
605.53	829.00
605.87	826.97
606.22	825.04
606.57	823.06
606.92	821.26
607.27	819.33
607.62	817.88
607.96	816.36
608.31	815.04
608.66	813.04
609.01	811.05
609.36	808.79
609.70	806.41
610.05	803.97
610.40	801.69
610.75	799.51
611.10	797.20
611.44	794.40
611.79	791.88
612.14	789.08
612.49	786.44
612.83	783.87
613.18	781.25
613.53	778.87
613.88	776.26
614.22	773.91
614.57	771.08
614.92	768.29
615.27	765.84
615.61	763.03
615.96	760.45
616.31	757.95
616.65	755.79
617.00	753.54
617.35	751.24
617.70	748.62
618.04	745.61
618.39	743.00
618.74	740.84
619.08	738.13
619.43	735.67
619.78	733.41
620.12	730.85
620.47	728.58
620.82	725.84
621.16	723.47
621.51	720.88
621.85	718.47
622.20	715.80
622.55	713.00
622.89	710.50
623.24	708.25
623.59	705.90
623.93	703.44
624.28	700.93
624.62	698.74
624.97	696.71
625.32	694.59
625.66	692.37
626.01	689.72
626.35	687.45
626.70	685.08
627.04	682.57
627.39	680.11
627.73	677.55
628.08	675.17
628.43	672.41
628.77	669.98
629.12	667.38
629.46	665.15
629.81	662.59
630.15	659.91
630.50	657.14
630.84	654.32
631.19	651.33
631.53	648.83
631.88	645.86
632.22	642.78
632.57	640.08
632.91	637.23
633.26	634.64
633.60	631.77
633.95	629.22
634.29	626.57
634.64	624.33
634.98	621.93
635.32	619.57
635.67	617.53
636.01	615.14
636.36	612.74
636.70	610.20
637.05	607.72
637.39	605.44
637.73	603.25
638.08	601.03
638.42	598.95
638.77	596.85
639.11	594.61
639.45	592.27
639.80	589.92
640.14	587.58
640.49	585.29
640.83	582.89
641.17	580.40
641.52	578.08
641.86	575.37
642.20	573.12
642.55	570.71
642.89	568.20
643.23	565.57
643.58	563.50
643.92	560.87
644.26	558.72
644.61	556.43
644.95	554.00
645.29	551.40
645.64	548.88
645.98	546.29
646.32	543.84
646.66	541.40
647.01	539.02
647.35	536.76
647.69	534.49
648.04	532.38
648.38	530.06
648.72	527.49
649.06	525.21
649.41	522.76
649.75	520.25
650.09	517.77
650.43	515.37
650.78	512.50
651.12	510.34
651.46	507.99
651.80	505.72
652.14	503.31
652.49	501.02
652.83	498.86
653.17	496.36
653.51	494.08
653.85	491.98
654.20	489.67
654.54	487.23
654.88	484.75
655.22	482.24
655.56	479.79
655.90	477.84
656.25	475.58
656.59	473.30
656.93	471.15
657.27	468.98
657.61	466.76
657.95	465.06
658.29	462.93
658.64	460.67
658.98	458.40
659.32	456.22
659.66	454.13
660.00	451.87
660.34	449.69
660.68	447.51
661.02	445.44
661.36	443.39
661.70	441.48
662.05	439.58
662.39	437.73
662.73	436.10
663.07	434.23
663.41	432.35
663.75	430.62
664.09	428.73
664.43	426.80
664.77	425.06
665.11	423.12
665.45	421.29
665.79	419.52
666.13	417.88
666.47	416.16
666.81	414.42
667.15	412.70
667.49	411.12
667.83	409.59
668.17	407.85
668.51	406.16
668.85	404.50
669.19	403.03
669.53	401.40
669.87	399.69
670.21	398.10
670.55	396.56
670.89	394.95
671.23	393.49
671.57	392.09
671.91	390.63
672.25	389.18
672.58	387.77
672.92	386.38
673.26	384.82
673.60	383.54
673.94	382.35
674.28	381.18
674.62	379.96
674.96	378.67
675.30	377.38
675.64	376.11
675.97	374.85
676.31	373.49
676.65	372.23
676.99	371.00
677.33	369.59
677.67	368.30
678.01	366.89
678.34	365.62
678.68	364.36
679.02	363.17
679.36	361.98
679.70	360.78
680.04	359.63
680.37	358.36
680.71	357.22
681.05	356.13
681.39	354.95
681.73	353.76
682.06	352.58
682.40	351.47
682.74	350.33
683.08	349.29
683.42	348.12
683.75	347.02
684.09	345.77
684.43	344.68
684.77	343.67
685.10	342.68
685.44	341.70
685.78	340.65
686.12	339.45
686.45	338.32
686.79	337.16
687.13	336.03
687.46	335.09
687.80	333.99
688.14	332.68
688.48	331.53
688.81	330.41
689.15	329.46
689.49	328.43
689.82	327.52
690.16	326.31
690.50	325.29
690.83	324.27
691.17	323.38
691.51	322.41
691.84	321.46
692.18	320.48
692.52	319.39
692.85	318.43
693.19	317.43
693.52	316.33
693.86	315.32
694.20	314.35
694.53	313.22
694.87	312.18
695.21	311.33
695.54	310.40
695.88	309.36
696.21	308.31
696.55	307.53
696.88	306.65
697.22	305.88
697.56	305.12
697.89	304.29
698.23	303.50
698.56	302.63
698.90	301.78
699.23	300.94
699.57	300.06
699.90	299.23
700.24	298.50
700.58	297.77
700.91	297.04
701.25	296.45
701.58	295.83
701.92	295.03
702.25	294.30
702.59	293.60
702.92	293.05
703.26	292.33
703.59	291.54
703.93	290.96
704.26	290.26
704.60	289.53
704.93	289.05
705.26	288.25
705.60	287.67
705.93	287.04
706.27	286.51
706.60	286.00
706.94	285.42
707.27	284.88
707.61	284.36
707.94	283.77
708.27	283.11
708.61	282.45
708.94	281.99
709.28	281.39
709.61	280.83
709.94	280.39
710.28	279.78
710.61	279.30
710.95	278.59
711.28	278.14
711.61	277.62
711.95	276.96
712.28	276.51
712.61	276.00
712.95	275.53
713.28	275.05
713.61	274.56
713.95	274.03
714.28	273.62
714.61	273.19
714.95	272.79
715.28	272.26
715.61	271.83
715.95	271.39
716.28	270.89
716.61	270.46
716.95	269.95
717.28	269.63
717.61	269.15
717.94	268.77
718.28	268.28
718.61	267.85
718.94	267.42
719.27	266.99
719.61	266.59
719.94	266.28
720.27	265.91
720.60	265.50
720.94	265.19
721.27	264.82
721.60	264.43
721.93	264.02
722.27	263.70
722.60	263.41
722.93	263.09
723.26	262.91
723.59	262.53
723.93	262.20
724.26	261.90
724.59	261.55
724.92	261.19
725.25	260.79
725.59	260.47
725.92	260.22
726.25	259.97
726.58	259.67
726.91	259.25
727.24	258.87
727.57	258.64
727.91	258.24
728.24	257.95
728.57	257.69
728.90	257.44
729.23	257.07
729.56	256.97
729.89	256.63
730.22	256.29
730.55	255.92
730.89	255.53
731.22	255.25
731.55	254.95
731.88	254.61
732.21	254.39
732.54	254.10
732.87	253.80
733.20	253.48
733.53	253.19
733.86	252.91
734.19	252.55
734.52	252.20
734.85	252.13
735.18	251.77
735.51	251.50
735.84	251.24
736.17	250.99
736.50	250.52
736.83	250.50
737.16	250.28
737.49	250.12
737.82	249.92
738.15	249.70
738.48	249.39
738.81	249.15
739.14	248.89
739.47	248.68
739.80	248.37
740.13	248.13
740.46	247.92
740.79	247.68
741.12	247.49
741.45	247.31
741.78	246.91
742.11	246.73
742.44	246.43
742.77	246.21
743.10	246.05
743.43	245.79
743.75	245.24
744.08	245.19
744.41	245.05
744.74	244.82
745.07	244.60
745.40	244.58
745.73	244.52
746.06	244.40
746.39	244.16
746.71	243.92
747.04	243.80
747.37	243.58
747.70	243.55
748.03	243.36
748.36	243.16
748.68	243.01
749.01	242.77
749.34	242.64
749.67	242.50
750.00	242.40
750.33	242.38
750.65	242.35
750.98	241.99
751.31	241.79
751.64	241.67
751.97	241.62
752.29	241.39
752.62	241.13
752.95	240.92
753.28	240.84
753.60	240.80
753.93	240.65
754.26	240.55
754.59	240.22
754.91	240.12
755.24	239.97
755.57	239.81
755.90	239.68
756.22	239.44
756.55	239.25
756.88	239.04
757.20	238.76
757.53	238.56
757.86	238.38
758.19	238.27
758.51	238.24
758.84	237.99
759.17	237.92
759.49	237.87
759.82	237.79
760.15	237.80
760.47	237.71
760.80	237.52
761.13	237.53
761.45	237.43
761.78	237.35
762.11	237.19
762.43	237.10
762.76	237.09
763.08	237.12
763.41	237.06
763.74	236.96
764.06	236.97
764.39	236.99
764.71	237.01
765.04	236.91
765.37	236.75
765.69	236.71
766.02	236.56
766.34	236.40
766.67	236.36
767.00	236.25
767.32	236.25
767.65	236.38
767.97	236.24
768.30	236.33
768.62	236.23
768.95	236.32
769.27	236.22
769.60	236.19
769.92	236.19
770.25	236.11
770.57	235.99
770.90	235.80
771.22	235.69
771.55	235.51
771.87	235.43
772.20	235.36
772.52	235.40
772.85	235.52
773.17	235.42
773.50	235.24
773.82	235.18
774.15	235.02
774.47	234.83
774.80	234.70
775.12	234.45
775.45	234.37
775.77	234.10
776.09	234.18
776.42	233.98
776.74	233.90
777.07	233.77
777.39	233.74
777.72	233.66
778.04	233.58
778.36	233.61
778.69	233.63
779.01	233.41
779.33	233.10
779.66	232.93
779.98	232.82
780.31	232.83
780.63	232.72
780.95	232.64
781.28	232.55
781.60	232.54
781.92	232.50
782.25	232.50
782.57	232.60
782.89	232.41
783.22	232.45
783.54	232.25
783.86	232.19
784.19	232.18
784.51	232.27
784.83	232.15
785.16	232.06
785.48	231.99
785.80	232.11
786.12	232.17
786.45	232.04
786.77	232.12
787.09	232.10
787.42	232.04
787.74	231.96
788.06	231.92
788.38	231.81
788.71	231.76
789.03	231.74
789.35	231.69
789.67	231.71
789.99	231.68
790.32	231.64
790.64	231.63
790.96	231.73
791.28	231.72
791.61	231.76
791.93	231.77
792.25	231.71
792.57	231.80
792.89	231.72
793.21	231.82
793.54	231.68
793.86	231.60
794.18	231.59
794.50	231.65
794.82	231.58
795.14	231.56
795.47	231.54
795.79	231.39
796.11	231.29
796.43	231.30
796.75	231.21
797.07	231.25
797.39	231.25
797.71	231.11
798.04	231.04
798.36	231.04
798.68	231.04
799.00	231.08
799.32	231.01
799.64	231.10
799.96	231.06
800.28	231.15
800.60	231.10
800.92	231.11
801.24	231.12
801.56	231.18
801.89	231.31
802.21	231.30
802.53	231.38
802.85	231.45
803.17	231.50
803.49	231.55
803.81	231.56
804.13	231.68
804.45	231.71
804.77	231.71
805.09	231.67
805.41	231.59
805.73	231.52
806.05	231.50
806.37	231.57
806.69	231.51
807.01	231.45
807.33	231.54
807.65	231.50
807.97	231.55
808.28	231.51
808.60	231.39
808.92	231.45
809.24	231.57
809.56	231.59
809.88	231.48
810.20	231.44
810.52	231.35
810.84	231.26
811.16	231.10
811.48	231.05
811.80	231.08
812.12	231.15
812.43	231.20
812.75	231.16
813.07	231.04
813.39	231.07
813.71	231.09
814.03	231.09
814.35	231.02
814.67	230.84
814.98	230.85
815.30	230.78
815.62	230.60
815.94	230.46
816.26	230.46
816.58	230.35
816.89	230.32
817.21	230.29
817.53	230.29
817.85	230.29
818.17	230.29
818.48	230.11
818.80	230.08
819.12	229.98
819.44	229.84
819.76	229.75
820.07	229.59
820.39	229.60
820.71	229.57
821.03	229.52
821.34	229.54
821.66	229.55
821.98	229.55
822.30	229.55
822.61	229.55
822.93	229.39
823.25	229.42
823.57	229.40
823.88	229.45
824.20	229.35
824.52	229.27
824.83	229.24
825.15	229.27
825.47	229.23
825.79	229.23
826.10	229.15
826.42	229.11
826.74	229.13
827.05	229.11
827.37	228.98
827.69	228.93
828.00	228.92
828.32	228.76
828.64	228.80
828.95	228.90
829.27	228.86
829.58	228.92
829.90	228.91
830.22	228.88
830.53	228.77
830.85	228.69
831.17	228.73
831.48	228.77
831.80	228.75
832.11	228.59
832.43	228.53
832.75	228.56
833.06	228.69
833.38	228.60
833.69	228.53
834.01	228.52
834.32	228.53
834.64	228.56
834.96	228.61
835.27	228.62
835.59	228.56
835.90	228.52
836.22	228.45
836.53	228.50
836.85	228.47
837.16	228.74
837.48	228.91
837.79	228.92
838.11	228.94
838.42	228.95
838.74	229.13
839.05	229.20
839.37	229.15
839.68	229.03
840.00	229.16
840.31	229.22
840.63	229.30
840.94	229.42
841.26	229.38
841.57	229.41
841.88	229.47
842.20	229.57
842.51	229.60
842.83	229.70
843.14	229.83
843.46	229.86
843.77	229.76
844.08	229.60
844.40	229.53
844.71	229.51
845.03	229.54
845.34	229.57
845.65	229.50
845.97	229.59
846.28	229.73
846.60	229.77
846.91	229.68
847.22	229.70
847.54	229.70
847.85	229.71
848.16	229.70
848.48	229.50
848.79	229.48
849.10	229.60
849.42	229.61
849.73	229.47
850.04	229.46
850.36	229.32
850.67	229.40
850.98	229.46
851.30	229.41
851.61	229.45
851.92	229.32
852.23	229.39
852.55	229.36
852.86	229.22
853.17	229.19
853.49	229.29
853.80	229.28
854.11	229.30
854.42	229.30
854.74	229.25
855.05	229.34
855.36	229.32
855.67	229.28
855.99	229.19
856.30	229.28
856.61	229.21
856.92	229.24
857.23	229.20
857.55	229.16
857.86	229.11
858.17	229.04
858.48	228.95
858.79	228.90
859.11	228.83
859.42	228.84
859.73	228.83
860.04	228.79
860.35	228.70
860.66	228.53
860.98	228.49
861.29	228.51
861.60	228.40
861.91	228.36
862.22	228.31
862.53	228.19
862.84	227.96
863.16	228.04
863.47	227.98
863.78	227.94
864.09	227.89
864.40	227.88
864.71	227.92
865.02	228.03
865.33	227.97
865.64	228.05
865.95	228.06
866.27	228.04
866.58	227.98
866.89	227.95
867.20	227.93
867.51	227.89
867.82	227.92
868.13	228.14
868.44	228.12
868.75	228.04
869.06	228.20
869.37	228.32
869.68	228.29
869.99	228.29
870.30	228.31
870.61	228.39
870.92	228.39
871.23	228.32
871.54	228.22
871.85	228.29
872.16	228.33
872.47	228.22
872.78	228.12
873.09	228.16
873.40	228.13
873.71	228.17
874.02	228.22
874.33	228.20
874.64	228.04
874.95	228.09
875.26	228.07
875.56	228.01
875.87	227.95
876.18	227.90
876.49	228.08
876.80	228.04
877.11	227.97
877.42	228.00
877.73	228.00
878.04	228.10
878.35	228.17
878.66	228.10
878.96	228.20
879.27	228.39
879.58	228.31
879.89	228.37
880.20	228.50
880.51	228.46
880.82	228.43
881.12	228.41
881.43	228.35
881.74	228.37
882.05	228.31
882.36	228.38
882.67	228.48
882.97	228.31
883.28	228.35
883.59	228.43
883.90	228.51
884.21	228.46
884.51	228.39
884.82	228.30
885.13	228.33
885.44	228.25
885.74	228.10
886.05	228.14
886.36	228.15
886.67	227.98
886.98	228.19
887.28	228.25
887.59	228.26
887.90	228.28
888.20	228.34
888.51	228.39
888.82	228.38
889.13	228.29
889.43	228.44
889.74	228.46
890.05	228.43
890.35	228.40
890.66	228.52
890.97	228.56
891.28	228.45
891.58	228.53
891.89	228.57
892.20	228.56
892.50	228.51
892.81	228.42
893.12	228.47
893.42	228.26
893.73	228.24
894.04	228.35
894.34	228.32
894.65	228.18
894.95	228.11
895.26	228.07
895.57	228.18
895.87	228.00
896.18	228.07
896.48	228.06
896.79	228.00
897.10	228.07
897.40	228.03
897.71	228.20
898.01	228.13
898.32	228.10
898.63	228.17
898.93	228.16
899.24	228.25
899.54	228.27
899.85	228.32
900.15	228.31
900.46	228.22
900.76	228.23
901.07	228.30
901.38	228.33
901.68	228.37
901.99	228.22
902.29	228.22
902.60	228.14
902.90	228.07
903.21	228.06
903.51	227.97
903.82	228.15
904.12	228.13
904.43	228.10
904.73	228.19
905.03	228.18
905.34	228.40
905.64	228.38
905.95	228.38
906.25	228.40
906.56	228.39
906.86	228.38
907.17	228.33
907.47	228.33
907.77	228.39
908.08	228.28
908.38	228.34
908.69	228.36
908.99	228.38
909.30	228.43
909.60	228.52
909.90	228.44
910.21	228.23
910.51	228.10
910.81	228.15
911.12	228.16
911.42	228.13
911.73	227.90
912.03	227.84
912.33	227.82
912.64	227.74
912.94	227.76
913.24	227.75
913.55	227.72
913.85	227.71
914.15	227.59
914.46	227.64
914.76	227.60
915.06	227.57
915.37	227.64
915.67	227.69
915.97	227.62
916.27	227.60
916.58	227.67
916.88	227.70
917.18	227.74
917.49	227.83
917.79	227.79
918.09	227.85
918.39	227.94
918.70	227.97
919.00	227.96
919.30	228.02
919.60	228.06
919.91	228.17
920.21	228.20
920.51	228.20
920.81	228.21
921.12	228.17
921.42	228.19
921.72	228.21
922.02	228.25
922.32	228.29
922.63	228.39
922.93	228.42
923.23	228.38
923.53	228.30
923.83	228.21
924.13	228.33
924.44	228.32
924.74	228.30
925.04	228.26
925.34	228.36
925.64	228.35
925.94	228.28
926.24	228.23
926.55	228.27
926.85	228.40
927.15	228.43
927.45	228.56
927.75	228.57
928.05	228.47
928.35	228.39
928.65	228.47
928.95	228.42
929.26	228.48
929.56	228.60
929.86	228.62
930.16	228.62
930.46	228.60
930.76	228.61
931.06	228.54
931.36	228.50
931.66	228.50
931.96	228.36
932.26	228.40
932.56	228.43
932.86	228.43
933.16	228.36
933.46	228.26
933.76	228.21
934.06	228.23
934.36	228.36
934.66	228.30
934.96	228.28
935.26	228.32
935.56	228.33
935.86	228.28
936.16	228.32
936.46	228.26
936.76	228.32
937.06	228.38
937.36	228.45
937.66	228.62
937.96	228.67
938.26	228.79
938.56	228.84
938.86	228.79
939.16	228.84
939.46	228.94
939.76	229.07
940.06	229.10
940.35	229.09
940.65	228.98
940.95	229.05
941.25	229.00
941.55	228.96
941.85	228.83
942.15	228.95
942.45	228.92
942.75	228.86
943.04	228.74
943.34	228.70
943.64	228.60
943.94	228.53
944.24	228.49
944.54	228.48
944.84	228.26
945.13	228.31
945.43	228.23
945.73	228.12
946.03	228.16
946.33	228.11
946.62	228.04
946.92	227.99
947.22	228.01
947.52	227.96
947.82	228.05
948.11	228.08
948.41	227.99
948.71	227.94
949.01	227.95
949.31	227.91
949.60	227.99
949.90	228.12
950.20	228.05
950.50	227.94
950.79	227.82
951.09	227.98
951.39	227.91
951.69	227.95
951.98	228.00
952.28	227.90
952.58	227.92
952.87	227.97
953.17	228.06
953.47	227.97
953.76	227.96
954.06	227.83
954.36	227.87
954.66	227.82
954.95	227.89
955.25	227.99
955.55	228.09
955.84	228.03
956.14	228.03
956.44	227.99
956.73	228.05
957.03	228.03
957.32	228.05
957.62	228.07
957.92	228.11
958.21	228.03
958.51	228.29
958.81	228.22
959.10	228.22
959.40	228.24
959.69	228.33
959.99	228.30
960.29	228.35
960.58	228.37
960.88	228.50
961.17	228.40
961.47	228.39
961.76	228.26
962.06	228.23
962.36	228.11
962.65	228.14
962.95	228.25
963.24	228.30
963.54	228.40
963.83	228.44
964.13	228.32
964.42	228.40
964.72	228.12
965.01	228.10
965.31	228.08
965.60	227.96
965.90	228.02
966.19	228.04
966.49	228.00
966.78	228.01
967.08	228.00
967.37	228.09
967.67	228.01
967.96	228.12
968.26	228.18
968.55	228.31
968.85	228.42
969.14	228.31
969.43	228.32
969.73	228.26
970.02	228.18
970.32	228.23
970.61	228.13
970.91	228.08
971.20	228.18
971.49	228.19
971.79	228.25
972.08	228.09
972.38	228.11
972.67	228.18
972.96	228.13
973.26	228.14
973.55	228.23
973.85	228.26
974.14	228.16
974.43	228.20
974.73	228.12
975.02	228.00
975.31	227.99
975.61	227.98
975.90	227.91
976.19	227.90
976.49	227.94
976.78	227.94
977.07	228.00
977.37	227.88
977.66	227.92
977.95	227.87
978.24	227.91
978.54	227.84
978.83	227.73
979.12	227.78
979.42	227.67
979.71	227.51
980.00	227.61
980.29	227.62
980.59	227.53
980.88	227.59
981.17	227.62
981.46	227.65
981.76	227.52
982.05	227.64
982.34	227.72
982.63	227.64
982.93	227.75
983.22	227.78
983.51	227.89
983.80	227.88
984.09	227.94
984.39	227.93
984.68	228.05
984.97	228.18
985.26	228.16
985.55	228.18
985.85	228.11
986.14	228.07
986.43	228.13
986.72	228.11
987.01	228.04
987.30	228.01
987.59	227.98
987.89	228.09
988.18	228.07
988.47	228.04
988.76	228.04
989.05	227.95
989.34	227.91
989.63	227.92
989.92	227.88
990.22	227.83
990.51	227.86
990.80	227.91
991.09	227.89
991.38	227.89
991.67	227.86
991.96	228.02
992.25	228.12
992.54	228.15
992.83	228.16
993.12	228.20
993.41	228.24
993.70	228.32
993.99	228.41
994.28	228.34
994.58	228.39
994.87	228.41
995.16	228.51
995.45	228.60
995.74	228.62
996.03	228.74
996.32	228.85
996.61	228.75
996.90	228.64
997.19	228.70
997.48	228.78
997.77	228.80
998.06	228.77
998.34	228.63
998.63	228.69
998.92	228.70
999.21	228.77
999.50	228.87
999.79	228.86
1000.08	228.90
1000.37	228.96
1000.66	228.94
1000.95	228.89
1001.24	228.95
1001.53	228.95
1001.82	228.90
1002.11	228.78
1002.40	228.72
1002.68	228.90
1002.97	229.07
1003.26	229.03
1003.55	228.99
1003.84	228.98
1004.13	228.95
1004.42	228.93
1004.71	228.92
1004.99	228.90
1005.28	228.86
1005.57	228.85
1005.86	228.70
1006.15	228.60
1006.44	228.55
1006.72	228.59
1007.01	228.67
1007.30	228.51
1007.59	228.46
1007.88	228.41
1008.17	228.40
1008.45	228.39
1008.74	228.23
1009.03	228.10
1009.32	228.04
1009.60	228.02
1009.89	228.00
1010.18	228.02
1010.47	228.02
1010.76	228.01
1011.04	228.02
1011.33	228.20
1011.62	228.19
1011.91	228.22
1012.19	228.24
1012.48	228.26
1012.77	228.16
1013.05	228.11
1013.34	228.22
1013.63	228.21
1013.92	228.20
1014.20	228.29
1014.49	228.35
1014.78	228.38
1015.06	228.36
1015.35	228.30
1015.64	228.23
1015.92	228.23
1016.21	228.15
1016.50	228.10
1016.78	228.05
1017.07	227.94
1017.36	227.62
1017.64	227.58
1017.93	227.63
1018.22	227.56
1018.50	227.53
1018.79	227.52
1019.08	227.49
1019.36	227.39
1019.65	227.45
1019.93	227.48
1020.22	227.39
1020.51	227.36
1020.79	227.44
1021.08	226.50
1021.36	227.50
1021.65	227.10
1021.94	227.30
1022.22	226.80
1022.51	229.10
1022.79	227.30
1023.08	227.40
1023.36	228.80
1023.65	228.70
>>>>>End Processed Spectral Data<<<<<
