SpectraSuite Data File
++++++++++++++++++++++++++++++++++++
Date: Fri Feb 01 14:35:42 EST 2013
User: group
Dark Spectrum Present: No
Reference Spectrum Present: No
Number of Sampled Component Spectra: 1
Spectrometers: USB2E7196
Integration Time (usec): 70000 (USB2E7196)
Spectra Averaged: 10 (USB2E7196)
Boxcar Smoothing: 10 (USB2E7196)
Correct for Electrical Dark: No (USB2E7196)
Strobe/Lamp Enabled: No (USB2E7196)
Correct for Detector Non-linearity: No (USB2E7196)
Correct for Stray Light: No (USB2E7196)
Number of Pixels in Processed Spectrum: 2048
>>>>>Begin Processed Spectral Data<<<<<
339.09	0.00
339.48	216.10
339.86	218.10
340.24	219.50
340.63	219.60
341.01	223.80
341.39	221.10
341.78	226.80
342.16	226.50
342.54	227.40
342.93	214.80
343.31	225.53
343.69	226.10
344.07	226.54
344.46	226.90
344.84	227.41
345.22	227.52
345.60	227.88
345.99	227.96
346.37	228.03
346.75	228.05
347.13	228.14
347.52	228.24
347.90	228.22
348.28	228.19
348.66	228.08
349.05	228.05
349.43	228.15
349.81	228.21
350.19	228.07
350.57	228.08
350.96	228.15
351.34	228.30
351.72	228.27
352.10	228.38
352.48	228.43
352.87	228.39
353.25	228.55
353.63	228.58
354.01	228.63
354.39	228.73
354.77	228.77
355.15	228.96
355.54	229.00
355.92	229.15
356.30	229.18
356.68	229.45
357.06	229.51
357.44	229.52
357.82	229.57
358.20	229.69
358.58	229.80
358.97	229.82
359.35	229.99
359.73	230.10
360.11	230.08
360.49	230.21
360.87	230.28
361.25	230.34
361.63	230.45
362.01	230.49
362.39	230.51
362.77	230.60
363.15	230.55
363.53	230.56
363.91	230.55
364.29	230.67
364.67	230.49
365.05	230.47
365.43	230.49
365.81	230.56
366.19	230.64
366.57	230.68
366.95	230.66
367.33	230.52
367.71	230.49
368.09	230.61
368.47	230.46
368.85	230.37
369.23	230.29
369.61	230.14
369.99	230.04
370.37	230.06
370.75	230.16
371.13	230.07
371.51	229.99
371.89	229.99
372.27	229.84
372.65	229.78
373.03	229.75
373.41	229.77
373.78	229.64
374.16	229.45
374.54	229.30
374.92	229.21
375.30	229.14
375.68	229.15
376.06	229.03
376.44	229.00
376.82	228.95
377.19	228.90
377.57	228.84
377.95	228.78
378.33	228.62
378.71	228.51
379.09	228.47
379.47	228.40
379.84	228.28
380.22	228.13
380.60	228.09
380.98	227.95
381.36	227.74
381.73	227.55
382.11	227.52
382.49	227.39
382.87	227.41
383.25	227.37
383.62	227.43
384.00	227.23
384.38	227.17
384.76	227.17
385.13	227.25
385.51	227.18
385.89	227.13
386.27	227.10
386.64	226.91
387.02	226.86
387.40	226.79
387.78	226.68
388.15	226.79
388.53	226.68
388.91	226.71
389.29	226.69
389.66	226.83
390.04	226.80
390.42	226.85
390.79	226.74
391.17	226.72
391.55	226.57
391.92	226.65
392.30	226.79
392.68	226.75
393.05	226.78
393.43	226.80
393.81	226.85
394.18	226.84
394.56	226.99
394.94	227.07
395.31	227.10
395.69	227.23
396.06	227.30
396.44	227.40
396.82	227.45
397.19	227.58
397.57	227.70
397.95	227.86
398.32	227.84
398.70	227.92
399.07	228.05
399.45	228.08
399.82	228.10
400.20	228.18
400.58	228.29
400.95	228.30
401.33	228.52
401.70	228.81
402.08	229.02
402.45	229.11
402.83	229.30
403.20	229.51
403.58	229.78
403.95	230.06
404.33	230.34
404.71	230.55
405.08	230.98
405.46	231.09
405.83	231.36
406.21	231.67
406.58	232.01
406.96	232.30
407.33	232.63
407.70	233.12
408.08	233.51
408.45	234.10
408.83	234.52
409.20	235.01
409.58	235.36
409.95	235.87
410.33	236.51
410.70	237.04
411.08	237.79
411.45	238.40
411.82	238.99
412.20	239.74
412.57	240.66
412.95	241.25
413.32	242.22
413.69	243.17
414.07	244.29
414.44	245.40
414.82	246.60
415.19	247.90
415.56	249.18
415.94	250.56
416.31	251.84
416.68	253.41
417.06	255.05
417.43	256.68
417.81	258.51
418.18	260.41
418.55	262.48
418.93	264.64
419.30	266.79
419.67	269.19
420.04	271.67
420.42	274.21
420.79	277.17
421.16	280.08
421.54	283.10
421.91	286.17
422.28	289.36
422.66	292.84
423.03	296.21
423.40	299.64
423.77	303.40
424.15	307.23
424.52	311.26
424.89	315.62
425.26	319.76
425.64	323.72
426.01	327.90
426.38	332.30
426.75	336.73
427.13	341.43
427.50	346.43
427.87	351.50
428.24	356.53
428.61	361.30
428.99	366.69
429.36	372.47
429.73	378.25
430.10	383.84
430.47	389.61
430.85	395.70
431.22	402.08
431.59	408.70
431.96	415.08
432.33	421.98
432.70	428.79
433.08	436.79
433.45	444.23
433.82	451.87
434.19	460.45
434.56	468.58
434.93	476.30
435.30	483.93
435.68	492.49
436.05	501.00
436.42	509.51
436.79	517.17
437.16	525.52
437.53	534.04
437.90	542.85
438.27	551.37
438.64	559.99
439.01	568.16
439.38	575.56
439.75	582.55
440.13	590.78
440.50	598.50
440.87	605.11
441.24	611.72
441.61	618.84
441.98	624.07
442.35	630.40
442.72	637.13
443.09	643.63
443.46	647.71
443.83	650.50
444.20	653.22
444.57	656.90
444.94	658.82
445.31	661.10
445.68	663.11
446.05	664.60
446.42	664.70
446.79	664.63
447.16	664.42
447.53	664.87
447.90	662.72
448.27	660.48
448.64	656.51
449.01	654.54
449.37	649.81
449.74	645.06
450.11	639.50
450.48	633.01
450.85	626.34
451.22	620.77
451.59	615.67
451.96	610.76
452.33	603.83
452.70	597.65
453.07	589.95
453.43	582.29
453.80	574.76
454.17	567.53
454.54	560.62
454.91	552.99
455.28	545.40
455.65	538.34
456.02	531.03
456.38	525.23
456.75	517.62
457.12	511.46
457.49	505.35
457.86	499.25
458.23	494.08
458.59	488.42
458.96	482.54
459.33	477.24
459.70	471.80
460.07	467.53
460.43	462.50
460.80	457.80
461.17	453.60
461.54	449.07
461.91	444.82
462.27	440.55
462.64	437.01
463.01	433.02
463.38	429.03
463.74	425.30
464.11	421.88
464.48	418.73
464.85	415.28
465.21	412.80
465.58	410.12
465.95	406.77
466.32	404.07
466.68	401.50
467.05	398.95
467.42	396.30
467.78	393.52
468.15	390.89
468.52	389.00
468.88	386.34
469.25	384.05
469.62	382.17
469.98	380.16
470.35	378.23
470.72	376.39
471.08	374.45
471.45	372.80
471.82	371.02
472.18	369.19
472.55	367.84
472.92	366.18
473.28	364.60
473.65	363.28
474.02	361.71
474.38	360.37
474.75	359.28
475.11	358.28
475.48	357.19
475.85	356.48
476.21	355.51
476.58	354.67
476.94	354.04
477.31	353.40
477.67	352.75
478.04	352.09
478.41	351.73
478.77	351.47
479.14	350.99
479.50	350.75
479.87	350.48
480.23	350.42
480.60	350.15
480.96	350.03
481.33	350.07
481.69	350.15
482.06	350.16
482.42	349.81
482.79	349.70
483.15	350.00
483.52	350.40
483.88	350.64
484.25	351.14
484.61	351.47
484.98	351.89
485.34	352.42
485.71	353.14
486.07	353.70
486.44	354.25
486.80	355.09
487.17	355.91
487.53	356.78
487.90	357.57
488.26	358.64
488.62	359.70
488.99	360.80
489.35	361.79
489.72	363.04
490.08	364.69
490.44	366.00
490.81	367.27
491.17	368.50
491.54	370.02
491.90	371.47
492.26	373.00
492.63	374.63
492.99	376.19
493.36	377.91
493.72	379.82
494.08	381.64
494.45	383.48
494.81	385.55
495.17	387.79
495.54	389.97
495.90	392.03
496.26	394.19
496.63	396.33
496.99	398.70
497.35	400.96
497.72	403.06
498.08	405.53
498.44	407.77
498.80	410.24
499.17	412.66
499.53	414.97
499.89	417.59
500.26	419.95
500.62	422.44
500.98	424.86
501.34	427.24
501.71	429.73
502.07	432.03
502.43	434.23
502.79	436.44
503.16	438.61
503.52	441.06
503.88	443.09
504.24	445.30
504.60	447.26
504.97	449.45
505.33	451.81
505.69	454.13
506.05	456.64
506.41	458.52
506.78	460.49
507.14	462.47
507.50	464.21
507.86	466.36
508.22	468.25
508.59	469.97
508.95	471.69
509.31	473.60
509.67	475.56
510.03	477.14
510.39	478.76
510.75	480.40
511.12	481.84
511.48	483.36
511.84	484.89
512.20	486.40
512.56	487.82
512.92	488.99
513.28	490.02
513.64	490.99
514.00	492.24
514.37	493.39
514.73	494.47
515.09	495.43
515.45	496.09
515.81	497.00
516.17	498.00
516.53	498.97
516.89	499.63
517.25	500.31
517.61	501.30
517.97	501.91
518.33	502.63
518.69	503.30
519.05	504.20
519.41	504.89
519.77	505.77
520.13	506.36
520.49	507.10
520.85	507.71
521.21	508.27
521.57	508.98
521.93	509.68
522.29	510.62
522.65	511.42
523.01	512.04
523.37	512.48
523.73	513.14
524.09	513.74
524.45	514.42
524.81	515.16
525.17	515.90
525.53	516.94
525.89	517.80
526.25	518.63
526.61	519.37
526.97	520.27
527.33	521.01
527.68	522.11
528.04	523.06
528.40	524.10
528.76	525.36
529.12	526.48
529.48	527.77
529.84	528.78
530.20	530.22
530.56	531.94
530.91	533.82
531.27	535.36
531.63	536.82
531.99	538.66
532.35	540.30
532.71	541.86
533.07	543.62
533.42	545.60
533.78	547.50
534.14	549.67
534.50	551.63
534.86	553.95
535.21	555.93
535.57	558.26
535.93	560.54
536.29	563.05
536.65	565.35
537.00	567.59
537.36	570.21
537.72	572.55
538.08	575.20
538.44	577.65
538.79	580.31
539.15	583.18
539.51	585.80
539.87	588.73
540.22	591.76
540.58	594.66
540.94	597.58
541.29	600.49
541.65	603.46
542.01	606.82
542.37	610.11
542.72	613.27
543.08	616.25
543.44	619.57
543.79	622.44
544.15	625.90
544.51	629.24
544.87	632.70
545.22	636.12
545.58	639.32
545.94	642.56
546.29	645.85
546.65	649.17
547.01	652.59
547.36	655.90
547.72	659.14
548.07	662.53
548.43	665.89
548.79	669.56
549.14	672.82
549.50	675.99
549.86	679.12
550.21	682.71
550.57	686.34
550.92	689.84
551.28	693.36
551.64	696.94
551.99	700.67
552.35	704.18
552.70	707.74
553.06	711.38
553.41	715.25
553.77	719.02
554.13	722.66
554.48	726.35
554.84	729.92
555.19	733.51
555.55	737.17
555.90	740.83
556.26	744.36
556.61	748.15
556.97	751.67
557.32	755.12
557.68	758.76
558.03	762.37
558.39	765.84
558.74	769.60
559.10	772.65
559.45	776.07
559.81	779.70
560.16	782.92
560.52	786.41
560.87	789.78
561.23	793.10
561.58	796.63
561.94	799.73
562.29	802.85
562.64	805.97
563.00	809.05
563.35	812.30
563.71	815.80
564.06	819.08
564.42	822.31
564.77	825.67
565.12	828.55
565.48	831.77
565.83	834.59
566.19	837.66
566.54	840.95
566.89	843.79
567.25	846.62
567.60	849.86
567.96	852.55
568.31	855.37
568.66	858.13
569.02	860.61
569.37	863.18
569.72	866.08
570.08	868.60
570.43	871.08
570.78	873.25
571.14	874.95
571.49	877.14
571.84	879.68
572.20	881.93
572.55	884.08
572.90	885.86
573.26	888.18
573.61	889.92
573.96	891.80
574.31	893.43
574.67	894.65
575.02	895.68
575.37	896.93
575.72	897.76
576.08	898.68
576.43	899.60
576.78	900.91
577.13	902.05
577.49	903.45
577.84	904.52
578.19	905.83
578.54	906.81
578.90	907.06
579.25	907.27
579.60	907.50
579.95	907.84
580.30	907.99
580.66	907.83
581.01	907.91
581.36	907.95
581.71	907.97
582.06	908.25
582.42	908.56
582.77	908.48
583.12	908.69
583.47	908.73
583.82	908.80
584.17	908.31
584.53	908.11
584.88	907.81
585.23	907.73
585.58	907.23
585.93	907.14
586.28	907.11
586.63	907.13
586.98	906.81
587.34	906.64
587.69	906.47
588.04	906.25
588.39	905.94
588.74	905.05
589.09	904.76
589.44	903.72
589.79	903.17
590.14	903.01
590.49	902.10
590.84	901.47
591.19	901.12
591.54	900.30
591.89	898.83
592.25	897.95
592.60	896.18
592.95	894.63
593.30	893.20
593.65	892.05
594.00	890.57
594.35	889.50
594.70	887.95
595.05	886.54
595.40	885.10
595.75	883.53
596.10	882.35
596.45	880.97
596.80	879.86
597.15	878.27
597.50	876.60
597.85	875.56
598.19	874.10
598.54	872.59
598.89	871.14
599.24	869.89
599.59	868.22
599.94	867.00
600.29	865.42
600.64	863.78
600.99	861.81
601.34	860.27
601.69	858.39
602.04	856.46
602.39	854.52
602.74	853.06
603.08	851.40
603.43	849.88
603.78	847.91
604.13	846.05
604.48	844.30
604.83	842.22
605.18	840.17
605.53	837.89
605.87	835.26
606.22	833.34
606.57	831.11
606.92	829.00
607.27	827.13
607.62	825.24
607.96	823.27
608.31	821.41
608.66	819.05
609.01	816.60
609.36	814.32
609.70	811.70
610.05	808.99
610.40	806.62
610.75	803.90
611.10	801.34
611.44	798.60
611.79	795.80
612.14	793.12
612.49	790.00
612.83	787.27
613.18	784.57
613.53	781.74
613.88	778.89
614.22	775.98
614.57	772.86
614.92	769.93
615.27	767.08
615.61	764.01
615.96	761.18
616.31	758.65
616.65	756.32
617.00	754.15
617.35	751.58
617.70	748.62
618.04	745.63
618.39	742.67
618.74	739.93
619.08	737.27
619.43	734.75
619.78	732.30
620.12	729.68
620.47	727.15
620.82	724.24
621.16	721.80
621.51	719.26
621.85	716.49
622.20	714.03
622.55	711.34
622.89	708.84
623.24	706.39
623.59	703.61
623.93	701.00
624.28	698.29
624.62	695.58
624.97	693.04
625.32	690.62
625.66	688.31
626.01	685.77
626.35	683.25
626.70	680.53
627.04	678.02
627.39	675.69
627.73	673.24
628.08	670.98
628.43	668.47
628.77	665.91
629.12	663.45
629.46	660.73
629.81	658.05
630.15	655.00
630.50	652.12
630.84	649.48
631.19	646.50
631.53	643.70
631.88	640.68
632.22	637.78
632.57	635.31
632.91	632.58
633.26	630.05
633.60	627.20
633.95	624.72
634.29	622.08
634.64	619.54
634.98	616.74
635.32	614.35
635.67	611.90
636.01	609.50
636.36	607.02
636.70	604.79
637.05	602.34
637.39	600.28
637.73	597.95
638.08	595.61
638.42	593.37
638.77	591.27
639.11	589.03
639.45	586.73
639.80	584.18
640.14	581.72
640.49	579.19
640.83	577.06
641.17	574.60
641.52	572.18
641.86	569.60
642.20	567.12
642.55	564.61
642.89	562.15
643.23	559.74
643.58	557.56
643.92	554.97
644.26	552.61
644.61	550.35
644.95	547.95
645.29	545.38
645.64	542.92
645.98	540.31
646.32	538.26
646.66	535.82
647.01	533.57
647.35	531.10
647.69	528.89
648.04	526.42
648.38	524.09
648.72	521.58
649.06	519.02
649.41	516.84
649.75	514.19
650.09	511.68
650.43	509.08
650.78	506.48
651.12	504.16
651.46	501.88
651.80	499.55
652.14	497.17
652.49	494.81
652.83	492.57
653.17	490.22
653.51	487.67
653.85	485.53
654.20	483.20
654.54	480.99
654.88	478.60
655.22	476.06
655.56	473.34
655.90	471.34
656.25	469.36
656.59	467.14
656.93	465.14
657.27	463.01
657.61	460.81
657.95	458.75
658.29	456.53
658.64	454.37
658.98	452.19
659.32	449.98
659.66	448.06
660.00	446.00
660.34	443.93
660.68	442.02
661.02	439.97
661.36	438.00
661.70	435.94
662.05	434.05
662.39	432.44
662.73	430.92
663.07	429.10
663.41	427.36
663.75	425.53
664.09	423.65
664.43	421.77
664.77	420.14
665.11	418.31
665.45	416.64
665.79	414.94
666.13	413.21
666.47	411.63
666.81	409.88
667.15	407.84
667.49	406.25
667.83	404.65
668.17	403.01
668.51	401.25
668.85	399.88
669.19	398.56
669.53	396.99
669.87	395.40
670.21	393.90
670.55	392.19
670.89	390.92
671.23	389.58
671.57	388.37
671.91	386.89
672.25	385.58
672.58	384.24
672.92	382.85
673.26	381.54
673.60	380.24
673.94	378.94
674.28	377.82
674.62	376.62
674.96	375.26
675.30	374.03
675.64	372.88
675.97	371.70
676.31	370.31
676.65	369.09
676.99	368.08
677.33	366.81
677.67	365.70
678.01	364.45
678.34	363.21
678.68	362.00
679.02	360.76
679.36	359.70
679.70	358.32
680.04	357.10
680.37	355.87
680.71	354.60
681.05	353.48
681.39	352.62
681.73	351.52
682.06	350.37
682.40	349.29
682.74	348.17
683.08	347.04
683.42	346.00
683.75	345.15
684.09	343.91
684.43	342.75
684.77	341.59
685.10	340.49
685.44	339.40
685.78	338.36
686.12	337.37
686.45	336.19
686.79	335.22
687.13	334.21
687.46	333.10
687.80	332.15
688.14	331.15
688.48	329.91
688.81	328.83
689.15	327.86
689.49	326.80
689.82	325.87
690.16	324.80
690.50	323.75
690.83	322.57
691.17	321.51
691.51	320.52
691.84	319.59
692.18	318.51
692.52	317.44
692.85	316.40
693.19	315.48
693.52	314.48
693.86	313.53
694.20	312.73
694.53	311.87
694.87	310.82
695.21	309.84
695.54	308.99
695.88	308.04
696.21	307.04
696.55	306.22
696.88	305.23
697.22	304.30
697.56	303.34
697.89	302.43
698.23	301.65
698.56	300.77
698.90	300.04
699.23	299.18
699.57	298.39
699.90	297.51
700.24	296.64
700.58	295.90
700.91	295.20
701.25	294.37
701.58	293.81
701.92	293.24
702.25	292.74
702.59	292.10
702.92	291.38
703.26	290.88
703.59	290.14
703.93	289.69
704.26	289.08
704.60	288.47
704.93	287.84
705.26	287.13
705.60	286.66
705.93	286.04
706.27	285.60
706.60	285.17
706.94	284.69
707.27	284.08
707.61	283.46
707.94	282.81
708.27	282.11
708.61	281.50
708.94	280.89
709.28	280.20
709.61	279.62
709.94	279.13
710.28	278.60
710.61	278.18
710.95	277.65
711.28	277.32
711.61	276.82
711.95	276.35
712.28	275.87
712.61	275.34
712.95	274.90
713.28	274.35
713.61	273.78
713.95	273.19
714.28	272.73
714.61	272.29
714.95	271.88
715.28	271.40
715.61	270.87
715.95	270.52
716.28	270.06
716.61	269.67
716.95	269.30
717.28	268.77
717.61	268.26
717.94	267.75
718.28	267.16
718.61	266.76
718.94	266.44
719.27	266.17
719.61	265.76
719.94	265.27
720.27	264.97
720.60	264.57
720.94	264.24
721.27	263.89
721.60	263.54
721.93	263.30
722.27	263.12
722.60	262.89
722.93	262.50
723.26	262.19
723.59	261.86
723.93	261.63
724.26	261.32
724.59	261.04
724.92	260.80
725.25	260.59
725.59	260.24
725.92	259.87
726.25	259.42
726.58	259.15
726.91	258.88
727.24	258.59
727.57	258.28
727.91	258.07
728.24	257.77
728.57	257.50
728.90	257.18
729.23	256.79
729.56	256.38
729.89	256.10
730.22	255.75
730.55	255.42
730.89	255.05
731.22	254.80
731.55	254.58
731.88	254.25
732.21	253.88
732.54	253.54
732.87	253.32
733.20	253.12
733.53	252.83
733.86	252.58
734.19	252.30
734.52	252.05
734.85	251.91
735.18	251.75
735.51	251.60
735.84	251.27
736.17	251.01
736.50	250.84
736.83	250.73
737.16	250.58
737.49	250.41
737.82	250.09
738.15	249.90
738.48	249.62
738.81	249.30
739.14	249.01
739.47	248.80
739.80	248.52
740.13	248.27
740.46	248.00
740.79	247.78
741.12	247.43
741.45	247.25
741.78	246.89
742.11	246.70
742.44	246.40
742.77	246.17
743.10	245.98
743.43	245.66
743.75	245.28
744.08	245.28
744.41	244.92
744.74	244.70
745.07	244.34
745.40	244.12
745.73	244.07
746.06	243.87
746.39	243.79
746.71	243.52
747.04	243.33
747.37	243.19
747.70	242.96
748.03	242.91
748.36	242.82
748.68	242.60
749.01	242.34
749.34	242.22
749.67	242.16
750.00	242.05
750.33	242.00
750.65	241.97
750.98	241.57
751.31	241.45
751.64	241.38
751.97	241.50
752.29	241.36
752.62	241.09
752.95	241.05
753.28	240.84
753.60	240.73
753.93	240.75
754.26	240.59
754.59	240.54
754.91	240.39
755.24	240.29
755.57	240.17
755.90	240.08
756.22	239.92
756.55	239.81
756.88	239.70
757.20	239.54
757.53	239.32
757.86	239.25
758.19	239.28
758.51	239.20
758.84	239.03
759.17	239.03
759.49	238.93
759.82	238.84
760.15	238.84
760.47	238.91
760.80	238.77
761.13	238.80
761.45	238.63
761.78	238.53
762.11	238.33
762.43	238.26
762.76	238.11
763.08	238.05
763.41	237.91
763.74	237.82
764.06	237.82
764.39	237.77
764.71	237.65
765.04	237.52
765.37	237.38
765.69	237.22
766.02	237.10
766.34	237.05
766.67	236.90
767.00	236.87
767.32	236.90
767.65	236.95
767.97	236.81
768.30	236.70
768.62	236.60
768.95	236.55
769.27	236.44
769.60	236.42
769.92	236.35
770.25	236.30
770.57	236.17
770.90	236.06
771.22	235.90
771.55	235.83
771.87	235.74
772.20	235.73
772.52	235.85
772.85	236.00
773.17	235.99
773.50	235.94
773.82	235.70
774.15	235.36
774.47	235.02
774.80	234.98
775.12	234.95
775.45	234.80
775.77	234.71
776.09	234.75
776.42	234.72
776.74	234.73
777.07	234.49
777.39	234.51
777.72	234.42
778.04	234.43
778.36	234.28
778.69	234.22
779.01	234.10
779.33	233.83
779.66	233.50
779.98	233.38
780.31	233.22
780.63	233.31
780.95	233.45
781.28	233.37
781.60	233.17
781.92	233.14
782.25	233.19
782.57	233.12
782.89	233.00
783.22	232.80
783.54	232.73
783.86	232.83
784.19	232.72
784.51	232.75
784.83	232.64
785.16	232.62
785.48	232.59
785.80	232.61
786.12	232.51
786.45	232.50
786.77	232.44
787.09	232.53
787.42	232.50
787.74	232.22
788.06	232.27
788.38	232.25
788.71	232.18
789.03	232.11
789.35	232.16
789.67	232.07
789.99	232.10
790.32	231.87
790.64	231.77
790.96	231.93
791.28	231.72
791.61	231.70
791.93	231.77
792.25	231.72
792.57	231.78
792.89	231.80
793.21	231.76
793.54	231.82
793.86	231.63
794.18	231.57
794.50	231.67
794.82	231.59
795.14	231.68
795.47	231.68
795.79	231.65
796.11	231.49
796.43	231.44
796.75	231.45
797.07	231.58
797.39	231.54
797.71	231.27
798.04	231.33
798.36	231.29
798.68	231.12
799.00	231.08
799.32	230.82
799.64	230.89
799.96	230.78
800.28	230.76
800.60	230.82
800.92	230.77
801.24	230.66
801.56	230.63
801.89	230.42
802.21	230.41
802.53	230.32
802.85	230.39
803.17	230.49
803.49	230.40
803.81	230.34
804.13	230.38
804.45	230.39
804.77	230.40
805.09	230.40
805.41	230.42
805.73	230.36
806.05	230.39
806.37	230.30
806.69	230.26
807.01	230.16
807.33	230.16
807.65	230.12
807.97	230.11
808.28	230.09
808.60	230.17
808.92	230.09
809.24	230.18
809.56	230.04
809.88	229.97
810.20	230.01
810.52	229.97
810.84	229.93
811.16	229.92
811.48	229.83
811.80	229.88
812.12	229.88
812.43	229.84
812.75	229.82
813.07	229.84
813.39	229.94
813.71	229.87
814.03	229.83
814.35	229.80
814.67	229.79
814.98	229.78
815.30	229.82
815.62	229.78
815.94	229.57
816.26	229.70
816.58	229.60
816.89	229.52
817.21	229.39
817.53	229.48
817.85	229.40
818.17	229.45
818.48	229.38
818.80	229.37
819.12	229.36
819.44	229.28
819.76	229.21
820.07	229.17
820.39	229.19
820.71	229.18
821.03	229.23
821.34	229.29
821.66	229.29
821.98	229.23
822.30	229.23
822.61	229.41
822.93	229.32
823.25	229.26
823.57	229.29
823.88	229.43
824.20	229.28
824.52	229.35
824.83	229.29
825.15	229.23
825.47	229.18
825.79	229.20
826.10	229.24
826.42	229.12
826.74	229.17
827.05	229.21
827.37	229.26
827.69	229.16
828.00	229.06
828.32	229.12
828.64	229.05
828.95	229.27
829.27	229.18
829.58	229.21
829.90	229.30
830.22	229.32
830.53	229.24
830.85	229.22
831.17	229.15
831.48	229.06
831.80	229.07
832.11	229.01
832.43	229.00
832.75	228.93
833.06	229.03
833.38	228.87
833.69	228.86
834.01	228.78
834.32	228.72
834.64	228.73
834.96	228.63
835.27	228.60
835.59	228.36
835.90	228.29
836.22	228.19
836.53	228.19
836.85	228.13
837.16	228.38
837.48	228.39
837.79	228.42
838.11	228.45
838.42	228.45
838.74	228.59
839.05	228.58
839.37	228.69
839.68	228.57
840.00	228.60
840.31	228.56
840.63	228.52
840.94	228.59
841.26	228.52
841.57	228.52
841.88	228.61
842.20	228.61
842.51	228.59
842.83	228.59
843.14	228.70
843.46	228.80
843.77	228.68
844.08	228.63
844.40	228.60
844.71	228.60
845.03	228.59
845.34	228.50
845.65	228.46
845.97	228.39
846.28	228.37
846.60	228.33
846.91	228.32
847.22	228.40
847.54	228.53
847.85	228.57
848.16	228.56
848.48	228.49
848.79	228.64
849.10	228.73
849.42	228.77
849.73	228.62
850.04	228.52
850.36	228.54
850.67	228.60
850.98	228.67
851.30	228.71
851.61	228.75
851.92	228.84
852.23	228.91
852.55	228.96
852.86	229.01
853.17	229.11
853.49	229.22
853.80	229.22
854.11	229.12
854.42	229.20
854.74	229.25
855.05	229.35
855.36	229.23
855.67	229.20
855.99	229.17
856.30	229.45
856.61	229.48
856.92	229.40
857.23	229.34
857.55	229.28
857.86	229.28
858.17	229.28
858.48	229.22
858.79	229.28
859.11	229.32
859.42	229.28
859.73	229.27
860.04	229.25
860.35	229.12
860.66	229.17
860.98	229.13
861.29	229.11
861.60	228.96
861.91	229.03
862.22	229.03
862.53	229.02
862.84	228.68
863.16	228.59
863.47	228.55
863.78	228.63
864.09	228.52
864.40	228.50
864.71	228.46
865.02	228.51
865.33	228.45
865.64	228.27
865.95	228.34
866.27	228.40
866.58	228.45
866.89	228.48
867.20	228.37
867.51	228.24
867.82	228.25
868.13	228.37
868.44	228.15
868.75	228.21
869.06	228.23
869.37	228.21
869.68	228.26
869.99	228.21
870.30	228.21
870.61	228.34
870.92	228.29
871.23	228.31
871.54	228.22
871.85	228.13
872.16	228.21
872.47	228.15
872.78	228.01
873.09	227.85
873.40	227.86
873.71	227.80
874.02	227.87
874.33	227.86
874.64	227.85
874.95	228.00
875.26	227.75
875.56	227.82
875.87	227.77
876.18	227.59
876.49	227.82
876.80	227.73
877.11	227.66
877.42	227.69
877.73	227.58
878.04	227.59
878.35	227.63
878.66	227.54
878.96	227.51
879.27	227.50
879.58	227.55
879.89	227.52
880.20	227.62
880.51	227.65
880.82	227.58
881.12	227.55
881.43	227.50
881.74	227.58
882.05	227.56
882.36	227.64
882.67	227.80
882.97	227.62
883.28	227.64
883.59	227.56
883.90	227.56
884.21	227.66
884.51	227.68
884.82	227.63
885.13	227.68
885.44	227.70
885.74	227.70
886.05	227.60
886.36	227.64
886.67	227.58
886.98	227.71
887.28	227.86
887.59	227.81
887.90	227.81
888.20	227.94
888.51	227.98
888.82	228.02
889.13	228.01
889.43	228.21
889.74	228.19
890.05	228.27
890.35	228.32
890.66	228.40
890.97	228.33
891.28	228.35
891.58	228.42
891.89	228.49
892.20	228.40
892.50	228.44
892.81	228.34
893.12	228.36
893.42	228.22
893.73	228.12
894.04	228.23
894.34	228.30
894.65	228.32
894.95	228.23
895.26	228.30
895.57	228.42
895.87	228.24
896.18	228.31
896.48	228.35
896.79	228.35
897.10	228.33
897.40	228.38
897.71	228.45
898.01	228.46
898.32	228.45
898.63	228.55
898.93	228.52
899.24	228.69
899.54	228.66
899.85	228.66
900.15	228.60
900.46	228.59
900.76	228.56
901.07	228.60
901.38	228.55
901.68	228.56
901.99	228.44
902.29	228.38
902.60	228.39
902.90	228.41
903.21	228.37
903.51	228.37
903.82	228.37
904.12	228.42
904.43	228.36
904.73	228.40
905.03	228.45
905.34	228.72
905.64	228.60
905.95	228.60
906.25	228.61
906.56	228.67
906.86	228.66
907.17	228.62
907.47	228.54
907.77	228.50
908.08	228.50
908.38	228.60
908.69	228.64
908.99	228.68
909.30	228.64
909.60	228.63
909.90	228.55
910.21	228.46
910.51	228.34
910.81	228.34
911.12	228.16
911.42	228.15
911.73	227.87
912.03	227.81
912.33	227.86
912.64	227.85
912.94	227.87
913.24	227.85
913.55	227.87
913.85	227.86
914.15	227.93
914.46	227.81
914.76	227.67
915.06	227.65
915.37	227.60
915.67	227.62
915.97	227.60
916.27	227.62
916.58	227.66
916.88	227.60
917.18	227.62
917.49	227.94
917.79	227.90
918.09	228.01
918.39	228.13
918.70	228.13
919.00	228.01
919.30	228.10
919.60	228.13
919.91	228.08
920.21	228.10
920.51	228.10
920.81	228.10
921.12	228.17
921.42	228.15
921.72	228.07
922.02	228.06
922.32	228.06
922.63	228.02
922.93	228.21
923.23	228.32
923.53	228.32
923.83	228.17
924.13	228.17
924.44	228.09
924.74	228.09
925.04	228.22
925.34	228.35
925.64	228.24
925.94	228.15
926.24	228.29
926.55	228.34
926.85	228.44
927.15	228.48
927.45	228.57
927.75	228.61
928.05	228.62
928.35	228.76
928.65	228.87
928.95	228.89
929.26	228.73
929.56	228.73
929.86	228.78
930.16	228.75
930.46	228.85
930.76	229.00
931.06	229.04
931.36	228.95
931.66	229.02
931.96	229.12
932.26	229.23
932.56	229.29
932.86	229.24
933.16	229.24
933.46	229.33
933.76	229.29
934.06	229.33
934.36	229.48
934.66	229.37
934.96	229.34
935.26	229.40
935.56	229.45
935.86	229.46
936.16	229.43
936.46	229.40
936.76	229.43
937.06	229.33
937.36	229.26
937.66	229.29
937.96	229.21
938.26	229.08
938.56	229.15
938.86	228.99
939.16	229.01
939.46	228.99
939.76	228.99
940.06	228.88
940.35	228.85
940.65	228.70
940.95	228.74
941.25	228.75
941.55	228.68
941.85	228.74
942.15	228.84
942.45	228.84
942.75	228.74
943.04	228.53
943.34	228.56
943.64	228.51
943.94	228.38
944.24	228.43
944.54	228.56
944.84	228.38
945.13	228.33
945.43	228.25
945.73	228.22
946.03	228.11
946.33	228.19
946.62	228.20
946.92	228.12
947.22	227.99
947.52	227.92
947.82	227.95
948.11	227.88
948.41	227.81
948.71	227.74
949.01	227.83
949.31	227.90
949.60	227.88
949.90	227.89
950.20	227.92
950.50	227.86
950.79	227.79
951.09	227.81
951.39	227.91
951.69	227.91
951.98	227.97
952.28	227.91
952.58	227.90
952.87	227.78
953.17	227.90
953.47	227.95
953.76	227.91
954.06	227.83
954.36	227.74
954.66	227.68
954.95	227.80
955.25	227.83
955.55	227.87
955.84	227.90
956.14	227.89
956.44	227.89
956.73	227.86
957.03	227.85
957.32	227.85
957.62	227.70
957.92	227.68
958.21	227.63
958.51	227.90
958.81	227.90
959.10	228.01
959.40	228.00
959.69	228.01
959.99	228.09
960.29	228.19
960.58	228.28
960.88	228.30
961.17	228.30
961.47	228.27
961.76	228.17
962.06	228.20
962.36	228.13
962.65	228.18
962.95	228.29
963.24	228.21
963.54	228.31
963.83	228.41
964.13	228.45
964.42	228.40
964.72	228.23
965.01	228.32
965.31	228.33
965.60	228.47
965.90	228.62
966.19	228.58
966.49	228.56
966.78	228.58
967.08	228.66
967.37	228.69
967.67	228.75
967.96	228.81
968.26	228.84
968.55	228.90
968.85	228.93
969.14	228.92
969.43	228.99
969.73	228.96
970.02	228.96
970.32	229.02
970.61	229.05
970.91	229.02
971.20	228.91
971.49	228.89
971.79	228.91
972.08	228.76
972.38	228.72
972.67	228.71
972.96	228.64
973.26	228.47
973.55	228.45
973.85	228.43
974.14	228.49
974.43	228.45
974.73	228.49
975.02	228.40
975.31	228.41
975.61	228.46
975.90	228.48
976.19	228.51
976.49	228.48
976.78	228.54
977.07	228.55
977.37	228.57
977.66	228.58
977.95	228.48
978.24	228.52
978.54	228.67
978.83	228.70
979.12	228.73
979.42	228.95
979.71	228.93
980.00	228.92
980.29	228.85
980.59	228.89
980.88	228.94
981.17	229.09
981.46	229.03
981.76	228.99
982.05	228.98
982.34	228.94
982.63	228.95
982.93	228.90
983.22	228.97
983.51	229.02
983.80	229.03
984.09	229.05
984.39	228.99
984.68	228.90
984.97	228.83
985.26	228.82
985.55	228.72
985.85	228.68
986.14	228.67
986.43	228.71
986.72	228.60
987.01	228.56
987.30	228.40
987.59	228.40
987.89	228.34
988.18	228.26
988.47	228.20
988.76	228.15
989.05	228.18
989.34	228.09
989.63	228.05
989.92	228.01
990.22	227.89
990.51	227.89
990.80	227.84
991.09	227.83
991.38	227.78
991.67	227.71
991.96	227.70
992.25	227.74
992.54	227.64
992.83	227.63
993.12	227.57
993.41	227.64
993.70	227.63
993.99	227.80
994.28	227.88
994.58	227.99
994.87	227.98
995.16	227.99
995.45	227.95
995.74	227.85
996.03	227.85
996.32	227.88
996.61	227.91
996.90	227.93
997.19	227.93
997.48	227.94
997.77	227.88
998.06	227.83
998.34	227.71
998.63	227.83
998.92	227.82
999.21	227.82
999.50	227.82
999.79	227.90
1000.08	227.79
1000.37	227.77
1000.66	227.64
1000.95	227.71
1001.24	227.62
1001.53	227.70
1001.82	227.79
1002.11	227.84
1002.40	227.91
1002.68	227.96
1002.97	228.15
1003.26	228.20
1003.55	228.28
1003.84	228.32
1004.13	228.37
1004.42	228.47
1004.71	228.45
1004.99	228.58
1005.28	228.66
1005.57	228.66
1005.86	228.55
1006.15	228.54
1006.44	228.55
1006.72	228.63
1007.01	228.71
1007.30	228.77
1007.59	228.78
1007.88	228.79
1008.17	228.72
1008.45	228.69
1008.74	228.64
1009.03	228.43
1009.32	228.40
1009.60	228.30
1009.89	228.47
1010.18	228.53
1010.47	228.48
1010.76	228.39
1011.04	228.31
1011.33	228.35
1011.62	228.29
1011.91	228.32
1012.19	228.30
1012.48	228.31
1012.77	228.28
1013.05	228.36
1013.34	228.39
1013.63	228.40
1013.92	228.42
1014.20	228.46
1014.49	228.51
1014.78	228.56
1015.06	228.59
1015.35	228.59
1015.64	228.68
1015.92	228.57
1016.21	228.54
1016.50	228.56
1016.78	228.64
1017.07	228.76
1017.36	228.73
1017.64	228.76
1017.93	228.75
1018.22	228.77
1018.50	228.83
1018.79	228.81
1019.08	228.61
1019.36	228.52
1019.65	228.41
1019.93	228.40
1020.22	228.27
1020.51	228.37
1020.79	228.35
1021.08	227.90
1021.36	230.30
1021.65	227.50
1021.94	227.90
1022.22	227.10
1022.51	226.80
1022.79	229.00
1023.08	225.40
1023.36	231.90
1023.65	228.50
>>>>>End Processed Spectral Data<<<<<
