SpectraSuite Data File
++++++++++++++++++++++++++++++++++++
Date: Fri Feb 01 14:38:11 EST 2013
User: group
Dark Spectrum Present: No
Reference Spectrum Present: No
Number of Sampled Component Spectra: 1
Spectrometers: USB2E7196
Integration Time (usec): 70000 (USB2E7196)
Spectra Averaged: 10 (USB2E7196)
Boxcar Smoothing: 10 (USB2E7196)
Correct for Electrical Dark: No (USB2E7196)
Strobe/Lamp Enabled: No (USB2E7196)
Correct for Detector Non-linearity: No (USB2E7196)
Correct for Stray Light: No (USB2E7196)
Number of Pixels in Processed Spectrum: 2048
>>>>>Begin Processed Spectral Data<<<<<
339.09	0.00
339.48	217.90
339.86	216.50
340.24	218.10
340.63	220.50
341.01	224.20
341.39	223.30
341.78	224.30
342.16	228.00
342.54	228.20
342.93	214.61
343.31	225.48
343.69	225.96
344.07	226.50
344.46	227.01
344.84	227.36
345.22	227.48
345.60	227.70
345.99	227.86
346.37	227.90
346.75	227.81
347.13	227.84
347.52	227.98
347.90	228.02
348.28	227.94
348.66	227.93
349.05	227.98
349.43	228.08
349.81	228.11
350.19	228.17
350.57	228.26
350.96	228.32
351.34	228.41
351.72	228.44
352.10	228.56
352.48	228.52
352.87	228.54
353.25	228.59
353.63	228.66
354.01	228.77
354.39	228.88
354.77	229.03
355.15	229.25
355.54	229.21
355.92	229.34
356.30	229.44
356.68	229.64
357.06	229.64
357.44	229.68
357.82	229.64
358.20	229.69
358.58	229.84
358.97	229.85
359.35	229.92
359.73	230.08
360.11	230.17
360.49	230.21
360.87	230.26
361.25	230.39
361.63	230.43
362.01	230.45
362.39	230.47
362.77	230.51
363.15	230.41
363.53	230.53
363.91	230.38
364.29	230.50
364.67	230.39
365.05	230.40
365.43	230.46
365.81	230.56
366.19	230.69
366.57	230.80
366.95	230.85
367.33	230.81
367.71	230.74
368.09	230.61
368.47	230.62
368.85	230.61
369.23	230.65
369.61	230.54
369.99	230.60
370.37	230.47
370.75	230.50
371.13	230.42
371.51	230.32
371.89	230.40
372.27	230.28
372.65	230.20
373.03	230.23
373.41	230.07
373.78	230.01
374.16	229.80
374.54	229.64
374.92	229.49
375.30	229.39
375.68	229.25
376.06	229.26
376.44	229.20
376.82	229.14
377.19	229.07
377.57	229.11
377.95	228.91
378.33	228.84
378.71	228.64
379.09	228.64
379.47	228.53
379.84	228.37
380.22	228.26
380.60	228.16
380.98	227.97
381.36	227.97
381.73	227.90
382.11	227.83
382.49	227.75
382.87	227.71
383.25	227.60
383.62	227.80
384.00	227.61
384.38	227.58
384.76	227.50
385.13	227.41
385.51	227.35
385.89	227.28
386.27	227.23
386.64	227.20
387.02	227.08
387.40	227.03
387.78	227.13
388.15	227.10
388.53	227.02
388.91	227.03
389.29	226.97
389.66	226.80
390.04	226.78
390.42	226.82
390.79	226.83
391.17	226.77
391.55	226.49
391.92	226.50
392.30	226.54
392.68	226.52
393.05	226.54
393.43	226.47
393.81	226.53
394.18	226.57
394.56	226.63
394.94	226.65
395.31	226.70
395.69	226.68
396.06	226.71
396.44	226.80
396.82	226.77
397.19	226.82
397.57	226.84
397.95	226.94
398.32	226.90
398.70	226.94
399.07	227.20
399.45	227.30
399.82	227.40
400.20	227.49
400.58	227.60
400.95	227.60
401.33	227.75
401.70	227.95
402.08	228.03
402.45	228.17
402.83	228.40
403.20	228.52
403.58	228.62
403.95	228.90
404.33	229.08
404.71	229.38
405.08	229.74
405.46	229.99
405.83	230.13
406.21	230.30
406.58	230.50
406.96	230.66
407.33	230.85
407.70	231.16
408.08	231.47
408.45	231.75
408.83	232.11
409.20	232.48
409.58	232.64
409.95	233.08
410.33	233.36
410.70	233.65
411.08	234.01
411.45	234.42
411.82	234.73
412.20	235.20
412.57	235.69
412.95	235.92
413.32	236.59
413.69	237.18
414.07	237.76
414.44	238.33
414.82	238.92
415.19	239.72
415.56	240.36
415.94	241.00
416.31	241.89
416.68	242.62
417.06	243.44
417.43	244.45
417.81	245.39
418.18	246.41
418.55	247.46
418.93	248.67
419.30	249.83
419.67	251.15
420.04	252.41
420.42	253.77
420.79	255.47
421.16	257.01
421.54	258.69
421.91	260.33
422.28	262.14
422.66	263.94
423.03	265.82
423.40	267.77
423.77	269.73
424.15	271.72
424.52	273.89
424.89	276.14
425.26	278.25
425.64	280.39
426.01	282.66
426.38	285.13
426.75	287.43
427.13	289.97
427.50	292.61
427.87	295.31
428.24	298.01
428.61	300.50
428.99	303.32
429.36	306.31
429.73	309.29
430.10	312.16
430.47	315.29
430.85	318.27
431.22	321.66
431.59	325.32
431.96	328.60
432.33	332.39
432.70	335.90
433.08	340.14
433.45	344.09
433.82	348.06
434.19	352.47
434.56	356.91
434.93	360.90
435.30	364.97
435.68	369.44
436.05	373.76
436.42	378.19
436.79	382.24
437.16	386.56
437.53	391.16
437.90	395.80
438.27	400.30
438.64	404.91
439.01	409.04
439.38	412.71
439.75	416.56
440.13	420.76
440.50	424.66
440.87	428.05
441.24	431.43
441.61	435.33
441.98	438.10
442.35	441.26
442.72	444.57
443.09	447.96
443.46	449.98
443.83	451.46
444.20	452.67
444.57	454.48
444.94	455.41
445.31	456.50
445.68	457.53
446.05	458.05
446.42	457.96
446.79	457.86
447.16	457.70
447.53	457.44
447.90	456.19
448.27	455.10
448.64	453.01
449.01	451.71
449.37	448.96
449.74	446.30
450.11	443.37
450.48	440.13
450.85	436.29
451.22	433.47
451.59	430.66
451.96	428.09
452.33	424.31
452.70	421.00
453.07	416.92
453.43	412.70
453.80	408.77
454.17	404.99
454.54	401.31
454.91	397.33
455.28	393.55
455.65	389.83
456.02	386.26
456.38	383.02
456.75	378.99
457.12	375.55
457.49	372.25
457.86	368.77
458.23	365.97
458.59	362.99
458.96	359.79
459.33	356.96
459.70	354.18
460.07	351.87
460.43	349.21
460.80	346.55
461.17	344.42
461.54	342.14
461.91	339.71
462.27	337.33
462.64	335.33
463.01	333.23
463.38	331.05
463.74	328.69
464.11	326.86
464.48	325.30
464.85	323.62
465.21	322.27
465.58	320.81
465.95	318.90
466.32	317.41
466.68	315.90
467.05	314.39
467.42	312.75
467.78	311.19
468.15	309.73
468.52	308.66
468.88	307.10
469.25	305.66
469.62	304.71
469.98	303.53
470.35	302.39
470.72	301.15
471.08	300.05
471.45	299.12
471.82	298.17
472.18	297.10
472.55	296.34
472.92	295.39
473.28	294.60
473.65	293.83
474.02	292.90
474.38	292.08
474.75	291.51
475.11	290.77
475.48	290.09
475.85	289.50
476.21	288.96
476.58	288.28
476.94	287.71
477.31	287.16
477.67	286.73
478.04	286.35
478.41	286.00
478.77	285.74
479.14	285.42
479.50	285.04
479.87	284.76
480.23	284.32
480.60	283.94
480.96	283.55
481.33	283.33
481.69	283.14
482.06	282.92
482.42	282.80
482.79	282.71
483.15	282.80
483.52	282.83
483.88	282.69
484.25	282.76
484.61	282.63
484.98	282.54
485.34	282.60
485.71	282.71
486.07	282.84
486.44	282.71
486.80	282.71
487.17	282.72
487.53	282.81
487.90	283.04
488.26	283.26
488.62	283.59
488.99	283.73
489.35	283.99
489.72	284.35
490.08	284.43
490.44	284.68
490.81	284.77
491.17	284.90
491.54	285.23
491.90	285.66
492.26	286.10
492.63	286.45
492.99	286.68
493.36	286.93
493.72	287.30
494.08	287.64
494.45	288.12
494.81	288.70
495.17	289.01
495.54	289.49
495.90	289.88
496.26	290.25
496.63	290.78
496.99	291.22
497.35	291.67
497.72	292.20
498.08	292.69
498.44	293.20
498.80	293.76
499.17	294.30
499.53	294.68
499.89	295.10
500.26	295.54
500.62	296.00
500.98	296.44
501.34	296.72
501.71	297.30
502.07	297.66
502.43	297.90
502.79	298.34
503.16	298.49
503.52	298.77
503.88	299.16
504.24	299.36
504.60	299.73
504.97	299.96
505.33	300.16
505.69	300.44
506.05	300.71
506.41	300.76
506.78	300.96
507.14	301.20
507.50	301.54
507.86	301.87
508.22	302.02
508.59	302.14
508.95	302.51
509.31	302.79
509.67	303.03
510.03	303.25
510.39	303.50
510.75	303.88
511.12	304.24
511.48	304.41
511.84	304.87
512.20	305.12
512.56	305.43
512.92	305.88
513.28	306.25
513.64	306.58
514.00	307.21
514.37	307.60
514.73	308.02
515.09	308.46
515.45	308.90
515.81	309.55
516.17	310.27
516.53	310.93
516.89	311.45
517.25	312.14
517.61	313.13
517.97	313.89
518.33	314.88
518.69	315.84
519.05	316.99
519.41	318.09
519.77	319.35
520.13	320.63
520.49	321.77
520.85	323.00
521.21	324.43
521.57	325.84
521.93	327.22
522.29	328.90
522.65	330.52
523.01	332.30
523.37	333.97
523.73	335.86
524.09	337.78
524.45	339.81
524.81	341.95
525.17	344.01
525.53	346.37
525.89	348.56
526.25	350.98
526.61	353.29
526.97	355.77
527.33	358.33
527.68	361.15
528.04	364.11
528.40	367.18
528.76	370.14
529.12	373.08
529.48	376.33
529.84	379.36
530.20	382.73
530.56	386.16
530.91	389.70
531.27	393.19
531.63	396.70
531.99	400.45
532.35	404.28
532.71	408.09
533.07	412.03
533.42	416.21
533.78	420.30
534.14	424.46
534.50	428.66
534.86	432.97
535.21	437.11
535.57	441.63
535.93	445.99
536.29	450.71
536.65	455.61
537.00	460.11
537.36	464.90
537.72	469.70
538.08	474.53
538.44	479.38
538.79	484.45
539.15	489.50
539.51	494.65
539.87	499.67
540.22	504.92
540.58	510.05
540.94	515.04
541.29	520.17
541.65	525.54
542.01	530.89
542.37	536.39
542.72	541.83
543.08	546.96
543.44	552.67
543.79	557.84
544.15	563.06
544.51	568.99
544.87	574.65
545.22	580.05
545.58	585.46
545.94	591.00
546.29	596.48
546.65	602.09
547.01	607.38
547.36	612.85
547.72	618.16
548.07	623.65
548.43	629.15
548.79	634.79
549.14	640.14
549.50	645.43
549.86	650.68
550.21	656.00
550.57	661.52
550.92	666.93
551.28	672.35
551.64	677.79
551.99	682.94
552.35	688.22
552.70	693.70
553.06	699.26
553.41	704.65
553.77	710.03
554.13	715.31
554.48	720.89
554.84	726.46
555.19	731.98
555.55	737.25
555.90	742.37
556.26	747.47
556.61	752.72
556.97	757.83
557.32	762.98
557.68	768.13
558.03	773.16
558.39	777.98
558.74	783.15
559.10	788.28
559.45	793.50
559.81	798.63
560.16	803.38
560.52	808.26
560.87	813.10
561.23	817.63
561.58	822.50
561.94	826.89
562.29	831.13
562.64	835.60
563.00	840.05
563.35	845.01
563.71	849.48
564.06	853.98
564.42	858.53
564.77	862.85
565.12	867.27
565.48	871.70
565.83	875.64
566.19	879.68
566.54	883.58
566.89	887.19
567.25	890.89
567.60	895.05
567.96	898.87
568.31	902.66
568.66	906.33
569.02	909.75
569.37	912.97
569.72	916.40
570.08	919.65
570.43	923.12
570.78	925.73
571.14	928.68
571.49	931.68
571.84	934.98
572.20	937.61
572.55	940.35
572.90	942.79
573.26	945.58
573.61	948.15
573.96	950.56
574.31	952.35
574.67	954.33
575.02	955.96
575.37	957.78
575.72	958.99
576.08	960.83
576.43	962.24
576.78	964.15
577.13	965.97
577.49	967.60
577.84	968.86
578.19	970.48
578.54	971.84
578.90	972.87
579.25	973.24
579.60	974.19
579.95	974.74
580.30	975.26
580.66	975.86
581.01	976.40
581.36	977.02
581.71	978.10
582.06	978.82
582.42	979.27
582.77	979.57
583.12	980.15
583.47	980.92
583.82	981.53
584.17	981.80
584.53	981.82
584.88	981.98
585.23	982.02
585.58	982.03
585.93	982.04
586.28	982.23
586.63	982.51
586.98	982.50
587.34	982.76
587.69	982.94
588.04	982.83
588.39	982.92
588.74	982.48
589.09	982.05
589.44	981.40
589.79	981.08
590.14	980.97
590.49	980.65
590.84	979.77
591.19	979.31
591.54	978.26
591.89	977.10
592.25	975.92
592.60	974.97
592.95	973.81
593.30	972.84
593.65	971.29
594.00	969.94
594.35	969.43
594.70	967.82
595.05	966.55
595.40	965.12
595.75	963.26
596.10	962.13
596.45	960.81
596.80	960.02
597.15	959.19
597.50	957.43
597.85	956.20
598.19	954.94
598.54	953.58
598.89	952.57
599.24	951.62
599.59	950.55
599.94	949.50
600.29	947.92
600.64	946.32
600.99	944.67
601.34	943.35
601.69	941.05
602.04	939.49
602.39	937.73
602.74	936.26
603.08	934.85
603.43	933.35
603.78	931.75
604.13	929.95
604.48	927.77
604.83	925.94
605.18	923.88
605.53	921.58
605.87	918.99
606.22	916.87
606.57	914.90
606.92	912.78
607.27	910.49
607.62	909.14
607.96	907.40
608.31	905.87
608.66	903.63
609.01	901.27
609.36	898.90
609.70	896.32
610.05	893.70
610.40	891.01
610.75	888.15
611.10	885.50
611.44	882.16
611.79	879.64
612.14	877.09
612.49	874.24
612.83	871.44
613.18	868.74
613.53	866.07
613.88	862.81
614.22	859.75
614.57	856.71
614.92	853.45
615.27	850.41
615.61	847.32
615.96	844.15
616.31	841.75
616.65	839.24
617.00	836.85
617.35	834.06
617.70	831.20
618.04	828.15
618.39	825.25
618.74	822.64
619.08	819.51
619.43	816.30
619.78	813.64
620.12	810.67
620.47	808.06
620.82	804.86
621.16	802.10
621.51	799.34
621.85	796.25
622.20	793.03
622.55	789.99
622.89	786.85
623.24	784.15
623.59	781.25
623.93	778.36
624.28	775.47
624.62	772.58
624.97	770.12
625.32	767.22
625.66	764.52
626.01	761.58
626.35	758.84
626.70	756.20
627.04	753.46
627.39	750.56
627.73	747.46
628.08	744.91
628.43	742.08
628.77	738.90
629.12	735.96
629.46	732.99
629.81	729.69
630.15	726.57
630.50	723.40
630.84	719.86
631.19	716.55
631.53	713.19
631.88	709.80
632.22	706.10
632.57	703.34
632.91	700.03
633.26	696.71
633.60	693.37
633.95	690.26
634.29	686.83
634.64	684.04
634.98	681.05
635.32	678.01
635.67	675.01
636.01	672.30
636.36	669.36
636.70	666.72
637.05	663.98
637.39	661.37
637.73	658.67
638.08	656.32
638.42	653.65
638.77	651.17
639.11	648.60
639.45	645.94
639.80	642.87
640.14	640.33
640.49	638.15
640.83	635.45
641.17	632.74
641.52	630.10
641.86	627.30
642.20	624.68
642.55	621.76
642.89	618.94
643.23	616.07
643.58	613.73
643.92	610.80
644.26	608.06
644.61	605.44
644.95	602.70
645.29	599.63
645.64	596.86
645.98	593.93
646.32	591.52
646.66	588.94
647.01	586.42
647.35	583.70
647.69	580.87
648.04	578.34
648.38	575.65
648.72	572.85
649.06	570.04
649.41	567.19
649.75	564.33
650.09	561.59
650.43	558.90
650.78	555.91
651.12	553.30
651.46	550.76
651.80	548.10
652.14	545.45
652.49	542.91
652.83	540.25
653.17	537.48
653.51	534.51
653.85	531.84
654.20	529.02
654.54	526.22
654.88	523.26
655.22	520.33
655.56	517.71
655.90	515.33
656.25	512.72
656.59	510.20
656.93	507.80
657.27	505.41
657.61	502.65
657.95	500.23
658.29	497.75
658.64	495.13
658.98	492.51
659.32	490.06
659.66	487.58
660.00	485.15
660.34	482.70
660.68	480.38
661.02	477.82
661.36	475.60
661.70	473.35
662.05	471.39
662.39	469.33
662.73	467.20
663.07	464.83
663.41	462.78
663.75	460.63
664.09	458.51
664.43	456.38
664.77	454.57
665.11	452.48
665.45	450.40
665.79	448.40
666.13	446.24
666.47	444.08
666.81	441.87
667.15	439.72
667.49	437.88
667.83	435.96
668.17	434.14
668.51	432.07
668.85	429.97
669.19	427.79
669.53	425.97
669.87	423.82
670.21	422.11
670.55	420.12
670.89	418.29
671.23	416.49
671.57	414.69
671.91	412.87
672.25	411.11
672.58	409.40
672.92	407.59
673.26	406.05
673.60	404.48
673.94	403.11
674.28	401.67
674.62	400.19
674.96	398.56
675.30	397.02
675.64	395.59
675.97	394.24
676.31	393.00
676.65	391.38
676.99	390.03
677.33	388.46
677.67	387.00
678.01	385.50
678.34	384.00
678.68	382.50
679.02	381.05
679.36	379.69
679.70	378.12
680.04	376.86
680.37	375.52
680.71	374.06
681.05	372.69
681.39	371.25
681.73	369.80
682.06	368.51
682.40	367.27
682.74	365.89
683.08	364.50
683.42	363.12
683.75	361.83
684.09	360.55
684.43	359.30
684.77	358.08
685.10	356.90
685.44	355.70
685.78	354.49
686.12	353.19
686.45	351.94
686.79	350.84
687.13	349.63
687.46	348.31
687.80	347.26
688.14	346.04
688.48	344.91
688.81	343.68
689.15	342.50
689.49	341.24
689.82	340.22
690.16	338.97
690.50	337.95
690.83	336.85
691.17	335.57
691.51	334.51
691.84	333.42
692.18	332.26
692.52	331.16
692.85	330.10
693.19	329.18
693.52	327.95
693.86	326.80
694.20	325.67
694.53	324.70
694.87	323.50
695.21	322.33
695.54	321.24
695.88	320.07
696.21	319.02
696.55	318.11
696.88	317.04
697.22	316.11
697.56	314.92
697.89	313.87
698.23	313.05
698.56	311.87
698.90	310.89
699.23	309.91
699.57	308.90
699.90	307.95
700.24	306.97
700.58	306.10
700.91	305.18
701.25	304.43
701.58	303.57
701.92	302.71
702.25	301.87
702.59	300.94
702.92	300.15
703.26	299.31
703.59	298.36
703.93	297.72
704.26	297.01
704.60	296.41
704.93	295.68
705.26	294.84
705.60	294.19
705.93	293.57
706.27	292.86
706.60	292.35
706.94	291.72
707.27	290.97
707.61	290.31
707.94	289.80
708.27	288.98
708.61	288.17
708.94	287.63
709.28	286.93
709.61	286.40
709.94	286.01
710.28	285.36
710.61	284.80
710.95	284.00
711.28	283.46
711.61	282.73
711.95	282.16
712.28	281.51
712.61	280.99
712.95	280.35
713.28	279.85
713.61	279.11
713.95	278.48
714.28	277.98
714.61	277.30
714.95	276.68
715.28	276.10
715.61	275.62
715.95	275.13
716.28	274.65
716.61	274.17
716.95	273.49
717.28	273.04
717.61	272.54
717.94	272.08
718.28	271.44
718.61	270.96
718.94	270.40
719.27	269.92
719.61	269.52
719.94	269.08
720.27	268.57
720.60	268.18
720.94	267.82
721.27	267.41
721.60	267.17
721.93	266.76
722.27	266.48
722.60	266.18
722.93	265.66
723.26	265.40
723.59	265.09
723.93	264.76
724.26	264.37
724.59	264.01
724.92	263.70
725.25	263.47
725.59	263.22
725.92	262.99
726.25	262.72
726.58	262.27
726.91	261.89
727.24	261.52
727.57	261.22
727.91	260.86
728.24	260.51
728.57	260.16
728.90	259.84
729.23	259.40
729.56	259.19
729.89	258.89
730.22	258.51
730.55	258.06
730.89	257.77
731.22	257.58
731.55	257.29
731.88	256.96
732.21	256.60
732.54	256.25
732.87	255.88
733.20	255.63
733.53	255.42
733.86	255.12
734.19	255.04
734.52	254.76
734.85	254.65
735.18	254.30
735.51	254.07
735.84	253.90
736.17	253.74
736.50	253.23
736.83	253.23
737.16	252.88
737.49	252.67
737.82	252.40
738.15	252.05
738.48	251.80
738.81	251.48
739.14	251.23
739.47	250.89
739.80	250.63
740.13	250.28
740.46	249.90
740.79	249.76
741.12	249.29
741.45	249.04
741.78	248.62
742.11	248.43
742.44	248.19
742.77	247.91
743.10	247.61
743.43	247.46
743.75	246.95
744.08	247.10
744.41	246.81
744.74	246.53
745.07	246.23
745.40	245.95
745.73	245.81
746.06	245.59
746.39	245.49
746.71	245.21
747.04	245.10
747.37	245.01
747.70	244.82
748.03	244.75
748.36	244.53
748.68	244.29
749.01	244.07
749.34	243.80
749.67	243.60
750.00	243.45
750.33	243.40
750.65	243.28
750.98	242.80
751.31	242.62
751.64	242.46
751.97	242.49
752.29	242.45
752.62	242.28
752.95	242.12
753.28	241.93
753.60	241.90
753.93	241.69
754.26	241.48
754.59	241.32
754.91	241.18
755.24	240.97
755.57	240.83
755.90	240.70
756.22	240.62
756.55	240.40
756.88	240.20
757.20	240.01
757.53	239.83
757.86	239.72
758.19	239.65
758.51	239.66
758.84	239.43
759.17	239.20
759.49	239.08
759.82	239.12
760.15	238.95
760.47	238.76
760.80	238.73
761.13	238.66
761.45	238.51
761.78	238.34
762.11	238.31
762.43	238.24
762.76	238.10
763.08	238.00
763.41	237.95
763.74	237.92
764.06	237.80
764.39	237.75
764.71	237.61
765.04	237.49
765.37	237.37
765.69	237.36
766.02	237.29
766.34	237.18
766.67	236.96
767.00	237.00
767.32	237.10
767.65	237.15
767.97	237.10
768.30	237.00
768.62	237.02
768.95	236.95
769.27	236.91
769.60	236.99
769.92	236.92
770.25	236.93
770.57	236.80
770.90	236.70
771.22	236.58
771.55	236.63
771.87	236.63
772.20	236.56
772.52	236.58
772.85	236.76
773.17	236.69
773.50	236.58
773.82	236.46
774.15	236.21
774.47	235.99
774.80	235.96
775.12	235.92
775.45	235.76
775.77	235.65
776.09	235.49
776.42	235.30
776.74	235.28
777.07	235.15
777.39	235.14
777.72	235.08
778.04	235.08
778.36	235.00
778.69	234.93
779.01	234.78
779.33	234.56
779.66	234.22
779.98	234.15
780.31	234.14
780.63	234.15
780.95	234.25
781.28	234.14
781.60	233.97
781.92	233.81
782.25	233.82
782.57	233.79
782.89	233.70
783.22	233.73
783.54	233.69
783.86	233.60
784.19	233.42
784.51	233.40
784.83	233.25
785.16	233.10
785.48	232.98
785.80	232.93
786.12	232.85
786.45	232.81
786.77	232.80
787.09	232.69
787.42	232.53
787.74	232.38
788.06	232.32
788.38	232.19
788.71	232.20
789.03	232.05
789.35	231.97
789.67	232.00
789.99	231.83
790.32	231.65
790.64	231.63
790.96	231.71
791.28	231.63
791.61	231.57
791.93	231.56
792.25	231.56
792.57	231.69
792.89	231.67
793.21	231.65
793.54	231.63
793.86	231.51
794.18	231.45
794.50	231.44
794.82	231.37
795.14	231.43
795.47	231.38
795.79	231.38
796.11	231.27
796.43	231.15
796.75	231.17
797.07	231.15
797.39	231.18
797.71	231.07
798.04	231.00
798.36	231.00
798.68	230.99
799.00	230.84
799.32	230.71
799.64	230.66
799.96	230.56
800.28	230.60
800.60	230.68
800.92	230.78
801.24	230.80
801.56	230.87
801.89	230.88
802.21	230.87
802.53	230.72
802.85	230.91
803.17	230.99
803.49	230.99
803.81	231.03
804.13	230.94
804.45	230.93
804.77	230.98
805.09	231.03
805.41	231.03
805.73	231.20
806.05	231.14
806.37	231.14
806.69	231.16
807.01	231.11
807.33	231.09
807.65	231.02
807.97	231.10
808.28	231.09
808.60	231.04
808.92	231.01
809.24	231.26
809.56	231.12
809.88	231.15
810.20	231.03
810.52	231.10
810.84	231.17
811.16	231.19
811.48	231.10
811.80	231.08
812.12	230.92
812.43	230.88
812.75	230.83
813.07	230.87
813.39	230.85
813.71	230.82
814.03	230.71
814.35	230.60
814.67	230.49
814.98	230.43
815.30	230.39
815.62	230.40
815.94	230.11
816.26	230.13
816.58	230.00
816.89	230.08
817.21	229.95
817.53	229.89
817.85	229.86
818.17	229.88
818.48	229.85
818.80	229.88
819.12	229.82
819.44	229.81
819.76	229.70
820.07	229.76
820.39	229.66
820.71	229.72
821.03	229.77
821.34	229.57
821.66	229.53
821.98	229.55
822.30	229.46
822.61	229.62
822.93	229.60
823.25	229.66
823.57	229.57
823.88	229.63
824.20	229.54
824.52	229.48
824.83	229.40
825.15	229.41
825.47	229.37
825.79	229.28
826.10	229.18
826.42	229.15
826.74	229.08
827.05	229.03
827.37	229.00
827.69	228.88
828.00	229.03
828.32	229.07
828.64	229.00
828.95	229.04
829.27	228.95
829.58	228.90
829.90	228.91
830.22	228.88
830.53	228.64
830.85	228.65
831.17	228.60
831.48	228.61
831.80	228.47
832.11	228.45
832.43	228.40
832.75	228.34
833.06	228.51
833.38	228.52
833.69	228.50
834.01	228.51
834.32	228.60
834.64	228.45
834.96	228.41
835.27	228.48
835.59	228.49
835.90	228.46
836.22	228.48
836.53	228.39
836.85	228.41
837.16	228.70
837.48	228.74
837.79	228.82
838.11	228.91
838.42	229.03
838.74	229.16
839.05	229.10
839.37	229.19
839.68	229.02
840.00	228.99
840.31	229.04
840.63	229.02
840.94	229.03
841.26	229.11
841.57	229.05
841.88	229.04
842.20	229.03
842.51	229.01
842.83	229.03
843.14	229.26
843.46	229.29
843.77	229.20
844.08	229.20
844.40	229.18
844.71	229.08
845.03	228.98
845.34	228.92
845.65	229.07
845.97	229.13
846.28	229.11
846.60	229.16
846.91	229.23
847.22	229.30
847.54	229.30
847.85	229.32
848.16	229.41
848.48	229.52
848.79	229.65
849.10	229.71
849.42	229.78
849.73	229.60
850.04	229.63
850.36	229.59
850.67	229.67
850.98	229.70
851.30	229.81
851.61	229.90
851.92	229.84
852.23	229.94
852.55	229.97
852.86	230.08
853.17	230.18
853.49	230.11
853.80	230.13
854.11	230.21
854.42	230.20
854.74	230.21
855.05	230.08
855.36	229.98
855.67	229.92
855.99	229.80
856.30	230.10
856.61	230.18
856.92	230.17
857.23	230.10
857.55	230.12
857.86	230.02
858.17	230.11
858.48	230.08
858.79	230.06
859.11	229.96
859.42	229.81
859.73	229.67
860.04	229.65
860.35	229.61
860.66	229.43
860.98	229.41
861.29	229.33
861.60	229.28
861.91	229.31
862.22	229.35
862.53	229.33
862.84	228.90
863.16	228.80
863.47	228.70
863.78	228.61
864.09	228.52
864.40	228.57
864.71	228.50
865.02	228.60
865.33	228.49
865.64	228.45
865.95	228.44
866.27	228.60
866.58	228.52
866.89	228.37
867.20	228.31
867.51	228.26
867.82	228.22
868.13	228.28
868.44	228.12
868.75	228.13
869.06	228.08
869.37	228.21
869.68	228.15
869.99	228.22
870.30	228.20
870.61	228.22
870.92	228.13
871.23	228.06
871.54	228.06
871.85	228.00
872.16	228.04
872.47	228.03
872.78	227.89
873.09	227.89
873.40	228.01
873.71	228.12
874.02	228.10
874.33	228.08
874.64	228.00
874.95	227.99
875.26	227.97
875.56	228.04
875.87	227.93
876.18	227.92
876.49	228.14
876.80	228.19
877.11	228.09
877.42	228.15
877.73	228.13
878.04	228.03
878.35	228.02
878.66	228.05
878.96	228.04
879.27	228.12
879.58	228.20
879.89	228.20
880.20	228.19
880.51	228.19
880.82	228.19
881.12	228.24
881.43	228.37
881.74	228.30
882.05	228.25
882.36	228.27
882.67	228.28
882.97	228.10
883.28	228.09
883.59	228.17
883.90	228.23
884.21	228.29
884.51	228.26
884.82	228.31
885.13	228.36
885.44	228.33
885.74	228.27
886.05	228.20
886.36	228.14
886.67	228.16
886.98	228.24
887.28	228.30
887.59	228.34
887.90	228.24
888.20	228.25
888.51	228.34
888.82	228.35
889.13	228.40
889.43	228.50
889.74	228.45
890.05	228.49
890.35	228.38
890.66	228.39
890.97	228.40
891.28	228.35
891.58	228.37
891.89	228.42
892.20	228.30
892.50	228.27
892.81	228.32
893.12	228.31
893.42	228.28
893.73	228.34
894.04	228.31
894.34	228.41
894.65	228.36
894.95	228.37
895.26	228.30
895.57	228.40
895.87	228.16
896.18	228.24
896.48	228.18
896.79	228.18
897.10	228.23
897.40	228.24
897.71	228.24
898.01	228.30
898.32	228.31
898.63	228.34
898.93	228.39
899.24	228.37
899.54	228.33
899.85	228.38
900.15	228.35
900.46	228.30
900.76	228.20
901.07	228.29
901.38	228.08
901.68	228.19
901.99	228.02
902.29	228.07
902.60	227.95
902.90	227.84
903.21	227.85
903.51	227.72
903.82	227.75
904.12	227.73
904.43	227.50
904.73	227.50
905.03	227.51
905.34	227.63
905.64	227.60
905.95	227.64
906.25	227.54
906.56	227.57
906.86	227.62
907.17	227.60
907.47	227.59
907.77	227.67
908.08	227.54
908.38	227.56
908.69	227.60
908.99	227.67
909.30	227.75
909.60	227.75
909.90	227.72
910.21	227.68
910.51	227.66
910.81	227.73
911.12	227.76
911.42	227.76
911.73	227.57
912.03	227.49
912.33	227.50
912.64	227.49
912.94	227.39
913.24	227.33
913.55	227.44
913.85	227.48
914.15	227.54
914.46	227.66
914.76	227.61
915.06	227.55
915.37	227.56
915.67	227.65
915.97	227.72
916.27	227.72
916.58	227.70
916.88	227.75
917.18	227.73
917.49	227.88
917.79	227.98
918.09	228.10
918.39	228.36
918.70	228.43
919.00	228.52
919.30	228.60
919.60	228.65
919.91	228.60
920.21	228.61
920.51	228.70
920.81	228.71
921.12	228.70
921.42	228.73
921.72	228.77
922.02	228.84
922.32	228.86
922.63	229.01
922.93	229.16
923.23	229.24
923.53	229.30
923.83	229.12
924.13	229.04
924.44	229.14
924.74	229.13
925.04	229.12
925.34	229.01
925.64	229.00
925.94	229.05
926.24	229.16
926.55	229.11
926.85	229.12
927.15	229.18
927.45	229.30
927.75	229.34
928.05	229.35
928.35	229.22
928.65	229.21
928.95	229.24
929.26	229.17
929.56	229.26
929.86	229.33
930.16	229.38
930.46	229.43
930.76	229.37
931.06	229.26
931.36	229.23
931.66	229.36
931.96	229.30
932.26	229.30
932.56	229.19
932.86	229.16
933.16	229.08
933.46	228.92
933.76	228.89
934.06	228.91
934.36	228.99
934.66	228.93
934.96	228.92
935.26	228.83
935.56	228.82
935.86	228.66
936.16	228.49
936.46	228.45
936.76	228.40
937.06	228.31
937.36	228.32
937.66	228.28
937.96	228.17
938.26	228.14
938.56	228.02
938.86	228.04
939.16	228.18
939.46	228.19
939.76	228.23
940.06	228.27
940.35	228.14
940.65	228.07
940.95	228.12
941.25	228.07
941.55	228.03
941.85	227.91
942.15	227.94
942.45	228.01
942.75	227.93
943.04	227.94
943.34	228.06
943.64	228.08
943.94	227.99
944.24	228.00
944.54	228.02
944.84	227.99
945.13	227.98
945.43	227.80
945.73	227.79
946.03	227.78
946.33	227.79
946.62	227.80
946.92	227.84
947.22	227.94
947.52	227.93
947.82	227.89
948.11	227.85
948.41	227.75
948.71	227.79
949.01	227.89
949.31	227.82
949.60	227.68
949.90	227.60
950.20	227.64
950.50	227.70
950.79	227.62
951.09	227.74
951.39	227.66
951.69	227.70
951.98	227.64
952.28	227.69
952.58	227.61
952.87	227.64
953.17	227.56
953.47	227.40
953.76	227.49
954.06	227.47
954.36	227.56
954.66	227.69
954.95	227.65
955.25	227.70
955.55	227.77
955.84	227.79
956.14	227.97
956.44	227.98
956.73	227.98
957.03	228.08
957.32	228.14
957.62	228.20
957.92	228.35
958.21	228.42
958.51	228.65
958.81	228.73
959.10	228.83
959.40	228.93
959.69	229.05
959.99	229.11
960.29	229.21
960.58	229.30
960.88	229.37
961.17	229.47
961.47	229.50
961.76	229.52
962.06	229.56
962.36	229.47
962.65	229.48
962.95	229.53
963.24	229.56
963.54	229.48
963.83	229.50
964.13	229.36
964.42	229.29
964.72	229.16
965.01	229.15
965.31	229.09
965.60	229.04
965.90	229.10
966.19	228.99
966.49	228.89
966.78	228.94
967.08	228.93
967.37	228.87
967.67	228.80
967.96	228.72
968.26	228.72
968.55	228.74
968.85	228.80
969.14	228.75
969.43	228.77
969.73	228.81
970.02	228.88
970.32	228.94
970.61	228.90
970.91	228.84
971.20	228.75
971.49	228.72
971.79	228.68
972.08	228.51
972.38	228.42
972.67	228.47
972.96	228.39
973.26	228.30
973.55	228.28
973.85	228.22
974.14	228.28
974.43	228.39
974.73	228.27
975.02	228.12
975.31	228.05
975.61	227.98
975.90	227.90
976.19	227.81
976.49	227.81
976.78	227.91
977.07	227.81
977.37	227.82
977.66	227.80
977.95	227.69
978.24	227.66
978.54	227.65
978.83	227.57
979.12	227.54
979.42	227.49
979.71	227.48
980.00	227.57
980.29	227.50
980.59	227.32
980.88	227.35
981.17	227.34
981.46	227.34
981.76	227.31
982.05	227.34
982.34	227.31
982.63	227.32
982.93	227.23
983.22	227.32
983.51	227.37
983.80	227.39
984.09	227.44
984.39	227.50
984.68	227.48
984.97	227.55
985.26	227.53
985.55	227.54
985.85	227.50
986.14	227.45
986.43	227.53
986.72	227.51
987.01	227.45
987.30	227.50
987.59	227.57
987.89	227.62
988.18	227.61
988.47	227.67
988.76	227.53
989.05	227.55
989.34	227.45
989.63	227.43
989.92	227.41
990.22	227.46
990.51	227.41
990.80	227.44
991.09	227.48
991.38	227.46
991.67	227.56
991.96	227.49
992.25	227.53
992.54	227.44
992.83	227.44
993.12	227.50
993.41	227.52
993.70	227.56
993.99	227.62
994.28	227.67
994.58	227.72
994.87	227.81
995.16	227.85
995.45	227.94
995.74	227.95
996.03	227.99
996.32	228.03
996.61	228.23
996.90	228.32
997.19	228.27
997.48	228.54
997.77	228.50
998.06	228.62
998.34	228.52
998.63	228.60
998.92	228.73
999.21	228.84
999.50	228.88
999.79	228.84
1000.08	228.86
1000.37	228.85
1000.66	228.85
1000.95	228.96
1001.24	228.99
1001.53	229.00
1001.82	229.02
1002.11	229.13
1002.40	229.22
1002.68	229.21
1002.97	229.47
1003.26	229.56
1003.55	229.39
1003.84	229.44
1004.13	229.60
1004.42	229.69
1004.71	229.66
1004.99	229.56
1005.28	229.61
1005.57	229.61
1005.86	229.64
1006.15	229.64
1006.44	229.58
1006.72	229.52
1007.01	229.46
1007.30	229.42
1007.59	229.37
1007.88	229.35
1008.17	229.33
1008.45	229.25
1008.74	229.09
1009.03	228.79
1009.32	228.69
1009.60	228.66
1009.89	228.57
1010.18	228.41
1010.47	228.36
1010.76	228.29
1011.04	228.35
1011.33	228.22
1011.62	228.29
1011.91	228.20
1012.19	228.12
1012.48	228.16
1012.77	228.11
1013.05	228.11
1013.34	228.08
1013.63	228.07
1013.92	228.07
1014.20	227.98
1014.49	227.96
1014.78	228.01
1015.06	228.00
1015.35	228.00
1015.64	227.97
1015.92	227.89
1016.21	227.78
1016.50	227.80
1016.78	227.89
1017.07	227.80
1017.36	227.80
1017.64	227.71
1017.93	227.76
1018.22	227.74
1018.50	227.71
1018.79	227.66
1019.08	227.54
1019.36	227.56
1019.65	227.47
1019.93	227.45
1020.22	227.40
1020.51	227.50
1020.79	227.48
1021.08	227.40
1021.36	227.70
1021.65	226.40
1021.94	226.50
1022.22	227.60
1022.51	225.80
1022.79	227.90
1023.08	227.10
1023.36	230.40
1023.65	227.50
>>>>>End Processed Spectral Data<<<<<
