SpectraSuite Data File
++++++++++++++++++++++++++++++++++++
Date: Fri Feb 01 14:36:41 EST 2013
User: group
Dark Spectrum Present: No
Reference Spectrum Present: No
Number of Sampled Component Spectra: 1
Spectrometers: USB2E7196
Integration Time (usec): 70000 (USB2E7196)
Spectra Averaged: 10 (USB2E7196)
Boxcar Smoothing: 10 (USB2E7196)
Correct for Electrical Dark: No (USB2E7196)
Strobe/Lamp Enabled: No (USB2E7196)
Correct for Detector Non-linearity: No (USB2E7196)
Correct for Stray Light: No (USB2E7196)
Number of Pixels in Processed Spectrum: 2048
>>>>>Begin Processed Spectral Data<<<<<
339.09	0.00
339.48	214.50
339.86	217.80
340.24	218.70
340.63	222.10
341.01	223.10
341.39	222.10
341.78	224.20
342.16	225.20
342.54	225.60
342.93	214.43
343.31	225.21
343.69	225.84
344.07	226.29
344.46	226.72
344.84	226.99
345.22	227.20
345.60	227.50
345.99	227.71
346.37	227.87
346.75	228.07
347.13	228.21
347.52	228.25
347.90	228.36
348.28	228.30
348.66	228.30
349.05	228.31
349.43	228.36
349.81	228.30
350.19	228.37
350.57	228.45
350.96	228.35
351.34	228.47
351.72	228.56
352.10	228.63
352.48	228.66
352.87	228.77
353.25	228.82
353.63	228.93
354.01	229.11
354.39	229.27
354.77	229.30
355.15	229.51
355.54	229.50
355.92	229.57
356.30	229.68
356.68	229.91
357.06	230.06
357.44	230.14
357.82	230.26
358.20	230.25
358.58	230.34
358.97	230.42
359.35	230.56
359.73	230.59
360.11	230.68
360.49	230.77
360.87	230.72
361.25	230.74
361.63	230.73
362.01	230.70
362.39	230.70
362.77	230.75
363.15	230.69
363.53	230.73
363.91	230.68
364.29	230.66
364.67	230.42
365.05	230.37
365.43	230.40
365.81	230.49
366.19	230.58
366.57	230.56
366.95	230.51
367.33	230.43
367.71	230.35
368.09	230.36
368.47	230.37
368.85	230.37
369.23	230.48
369.61	230.36
369.99	230.35
370.37	230.27
370.75	230.26
371.13	230.12
371.51	230.02
371.89	229.99
372.27	229.91
372.65	229.94
373.03	229.88
373.41	229.76
373.78	229.60
374.16	229.43
374.54	229.26
374.92	229.27
375.30	229.13
375.68	229.05
376.06	228.96
376.44	228.88
376.82	228.82
377.19	228.73
377.57	228.83
377.95	228.60
378.33	228.44
378.71	228.19
379.09	228.18
379.47	228.19
379.84	228.05
380.22	227.90
380.60	227.78
380.98	227.66
381.36	227.57
381.73	227.46
382.11	227.48
382.49	227.50
382.87	227.30
383.25	227.34
383.62	227.47
384.00	227.46
384.38	227.33
384.76	227.34
385.13	227.24
385.51	227.07
385.89	226.98
386.27	226.98
386.64	227.00
387.02	226.92
387.40	226.75
387.78	226.76
388.15	226.80
388.53	226.70
388.91	226.77
389.29	226.72
389.66	226.73
390.04	226.67
390.42	226.66
390.79	226.77
391.17	226.72
391.55	226.64
391.92	226.59
392.30	226.66
392.68	226.71
393.05	226.76
393.43	226.75
393.81	226.86
394.18	226.88
394.56	226.91
394.94	226.94
395.31	227.08
395.69	227.21
396.06	227.27
396.44	227.37
396.82	227.38
397.19	227.55
397.57	227.69
397.95	227.78
398.32	227.81
398.70	227.93
399.07	228.05
399.45	228.14
399.82	228.20
400.20	228.31
400.58	228.30
400.95	228.41
401.33	228.58
401.70	228.92
402.08	229.12
402.45	229.37
402.83	229.65
403.20	229.82
403.58	230.00
403.95	230.20
404.33	230.41
404.71	230.52
405.08	230.87
405.46	231.09
405.83	231.35
406.21	231.58
406.58	231.78
406.96	231.98
407.33	232.20
407.70	232.57
408.08	233.02
408.45	233.44
408.83	233.75
409.20	234.10
409.58	234.37
409.95	234.70
410.33	235.05
410.70	235.45
411.08	236.02
411.45	236.41
411.82	237.01
412.20	237.65
412.57	238.47
412.95	238.91
413.32	239.63
413.69	240.36
414.07	241.19
414.44	242.07
414.82	242.97
415.19	244.04
415.56	245.03
415.94	245.87
416.31	246.95
416.68	248.12
417.06	249.46
417.43	250.73
417.81	252.28
418.18	253.84
418.55	255.46
418.93	257.10
419.30	259.00
419.67	260.83
420.04	262.76
420.42	264.68
420.79	266.97
421.16	269.13
421.54	271.52
421.91	274.02
422.28	276.62
422.66	279.40
423.03	282.11
423.40	284.85
423.77	287.91
424.15	290.88
424.52	294.15
424.89	297.61
425.26	300.94
425.64	304.02
426.01	307.48
426.38	310.99
426.75	314.75
427.13	318.41
427.50	322.25
427.87	326.37
428.24	330.50
428.61	334.50
428.99	338.92
429.36	343.60
429.73	348.09
430.10	352.55
430.47	357.15
430.85	361.94
431.22	366.94
431.59	372.22
431.96	377.37
432.33	382.92
432.70	388.32
433.08	394.42
433.45	400.45
433.82	406.49
434.19	413.18
434.56	419.55
434.93	425.70
435.30	432.00
435.68	438.71
436.05	445.39
436.42	451.96
436.79	457.95
437.16	464.31
437.53	471.16
437.90	477.96
438.27	484.64
438.64	491.61
439.01	498.16
439.38	504.02
439.75	509.71
440.13	516.02
440.50	522.04
440.87	527.15
441.24	532.10
441.61	537.74
441.98	542.01
442.35	547.02
442.72	552.23
443.09	557.26
443.46	560.30
443.83	562.48
444.20	564.52
444.57	567.50
444.94	569.24
445.31	571.01
445.68	572.86
446.05	573.99
446.42	573.89
446.79	573.75
447.16	573.57
447.53	573.45
447.90	571.80
448.27	570.06
448.64	567.21
449.01	565.79
449.37	562.03
449.74	558.32
450.11	553.79
450.48	548.70
450.85	543.34
451.22	539.36
451.59	535.48
451.96	531.53
452.33	525.99
452.70	521.03
453.07	514.84
453.43	508.42
453.80	502.45
454.17	496.65
454.54	491.11
454.91	485.01
455.28	479.36
455.65	473.68
456.02	468.19
456.38	463.46
456.75	457.31
457.12	452.25
457.49	447.44
457.86	442.55
458.23	438.45
458.59	433.85
458.96	428.97
459.33	424.62
459.70	420.43
460.07	416.98
460.43	412.93
460.80	409.30
461.17	406.08
461.54	402.69
461.91	399.25
462.27	395.97
462.64	393.13
463.01	389.86
463.38	386.90
463.74	383.84
464.11	381.14
464.48	378.68
464.85	376.09
465.21	373.90
465.58	371.87
465.95	369.19
466.32	367.22
466.68	365.04
467.05	362.91
467.42	360.82
467.78	358.58
468.15	356.52
468.52	354.88
468.88	352.85
469.25	350.90
469.62	349.58
469.98	347.85
470.35	346.32
470.72	344.86
471.08	343.21
471.45	341.82
471.82	340.45
472.18	338.93
472.55	337.66
472.92	336.22
473.28	334.74
473.65	333.53
474.02	332.13
474.38	331.03
474.75	330.09
475.11	329.09
475.48	328.18
475.85	327.33
476.21	326.46
476.58	325.68
476.94	325.16
477.31	324.42
477.67	323.82
478.04	323.22
478.41	322.73
478.77	322.41
479.14	321.80
479.50	321.51
479.87	321.27
480.23	321.09
480.60	320.92
480.96	320.80
481.33	320.83
481.69	320.77
482.06	320.70
482.42	320.60
482.79	320.33
483.15	320.38
483.52	320.70
483.88	320.92
484.25	320.99
484.61	321.05
484.98	321.15
485.34	321.46
485.71	321.85
486.07	322.27
486.44	322.54
486.80	322.97
487.17	323.38
487.53	323.98
487.90	324.53
488.26	325.05
488.62	325.60
488.99	326.10
489.35	326.75
489.72	327.46
490.08	328.18
490.44	329.20
490.81	330.06
491.17	330.85
491.54	331.75
491.90	332.71
492.26	333.64
492.63	334.70
492.99	335.81
493.36	336.93
493.72	338.00
494.08	339.06
494.45	340.30
494.81	341.56
495.17	342.81
495.54	344.07
495.90	345.46
496.26	346.87
496.63	348.25
496.99	349.70
497.35	351.13
497.72	352.55
498.08	353.84
498.44	355.21
498.80	356.68
499.17	357.93
499.53	359.27
499.89	360.70
500.26	362.02
500.62	363.18
500.98	364.48
501.34	365.65
501.71	367.00
502.07	368.22
502.43	369.31
502.79	370.42
503.16	371.60
503.52	372.66
503.88	373.66
504.24	374.51
504.60	375.54
504.97	376.57
505.33	377.45
505.69	378.38
506.05	379.29
506.41	380.05
506.78	380.80
507.14	381.56
507.50	382.31
507.86	383.09
508.22	383.93
508.59	384.46
508.95	385.25
509.31	385.93
509.67	386.47
510.03	387.06
510.39	387.54
510.75	387.95
511.12	388.29
511.48	388.73
511.84	389.28
512.20	389.58
512.56	389.94
512.92	390.32
513.28	390.54
513.64	390.73
514.00	390.94
514.37	391.40
514.73	391.67
515.09	391.72
515.45	391.75
515.81	391.70
516.17	391.88
516.53	391.84
516.89	391.86
517.25	391.96
517.61	391.99
517.97	392.02
518.33	392.05
518.69	392.18
519.05	392.42
519.41	392.46
519.77	392.83
520.13	392.90
520.49	393.16
520.85	393.39
521.21	393.78
521.57	394.04
521.93	394.13
522.29	394.50
522.65	394.72
523.01	395.10
523.37	395.57
523.73	395.98
524.09	396.49
524.45	396.93
524.81	397.39
525.17	398.12
525.53	398.97
525.89	399.85
526.25	400.62
526.61	401.21
526.97	402.14
527.33	402.93
527.68	404.08
528.04	405.03
528.40	406.22
528.76	407.22
529.12	408.48
529.48	409.95
529.84	411.28
530.20	413.00
530.56	414.74
530.91	416.55
531.27	418.34
531.63	420.10
531.99	422.04
532.35	424.17
532.71	426.02
533.07	428.11
533.42	430.21
533.78	432.53
534.14	435.01
534.50	437.31
534.86	439.89
535.21	442.09
535.57	444.77
535.93	447.35
536.29	450.27
536.65	453.06
537.00	455.84
537.36	458.91
537.72	461.83
538.08	464.76
538.44	467.71
538.79	470.92
539.15	474.23
539.51	477.55
539.87	480.90
540.22	484.32
540.58	487.83
540.94	491.40
541.29	494.97
541.65	498.50
542.01	502.26
542.37	505.85
542.72	509.68
543.08	513.50
543.44	517.52
543.79	521.18
544.15	525.23
544.51	529.43
544.87	533.44
545.22	537.47
545.58	541.38
545.94	545.19
546.29	549.27
546.65	553.40
547.01	557.61
547.36	561.73
547.72	565.97
548.07	570.00
548.43	574.07
548.79	578.02
549.14	582.18
549.50	586.50
549.86	590.44
550.21	594.67
550.57	598.80
550.92	603.12
551.28	607.56
551.64	611.51
551.99	615.48
552.35	619.39
552.70	623.66
553.06	628.05
553.41	632.49
553.77	636.75
554.13	640.91
554.48	645.24
554.84	649.31
555.19	653.57
555.55	657.88
555.90	661.88
556.26	666.31
556.61	670.49
556.97	674.53
557.32	679.06
557.68	683.19
558.03	687.50
558.39	691.50
558.74	695.38
559.10	699.76
559.45	704.00
559.81	708.73
560.16	712.75
560.52	716.93
560.87	720.90
561.23	724.72
561.58	728.98
561.94	732.74
562.29	736.72
562.64	740.40
563.00	744.17
563.35	748.30
563.71	752.38
564.06	756.53
564.42	760.23
564.77	763.89
565.12	767.99
565.48	771.74
565.83	775.28
566.19	779.21
566.54	782.66
566.89	785.97
567.25	789.01
567.60	792.98
567.96	796.35
568.31	799.88
568.66	803.18
569.02	806.00
569.37	809.15
569.72	812.46
570.08	815.74
570.43	818.55
570.78	821.31
571.14	823.83
571.49	826.10
571.84	829.00
572.20	831.64
572.55	833.75
572.90	835.76
573.26	838.34
573.61	840.51
573.96	842.70
574.31	844.65
574.67	846.54
575.02	847.70
575.37	849.23
575.72	850.52
576.08	852.15
576.43	853.77
576.78	855.38
577.13	856.92
577.49	858.43
577.84	860.00
578.19	861.54
578.54	862.70
578.90	864.16
579.25	864.94
579.60	865.82
579.95	866.81
580.30	867.83
580.66	868.29
581.01	868.97
581.36	869.86
581.71	870.83
582.06	871.57
582.42	872.48
582.77	873.10
583.12	873.65
583.47	874.31
583.82	875.09
584.17	875.47
584.53	875.83
584.88	876.09
585.23	876.20
585.58	876.30
585.93	876.64
586.28	876.83
586.63	877.60
586.98	877.66
587.34	877.94
587.69	878.11
588.04	878.64
588.39	878.67
588.74	878.24
589.09	877.98
589.44	877.62
589.79	877.36
590.14	877.61
590.49	877.55
590.84	877.13
591.19	876.91
591.54	876.38
591.89	875.37
592.25	874.90
592.60	874.17
592.95	873.30
593.30	872.50
593.65	871.59
594.00	870.17
594.35	869.95
594.70	868.62
595.05	867.80
595.40	866.48
595.75	865.13
596.10	864.15
596.45	863.33
596.80	862.65
597.15	861.67
597.50	860.09
597.85	859.37
598.19	858.61
598.54	857.05
598.89	855.97
599.24	855.15
599.59	853.80
599.94	852.83
600.29	851.71
600.64	850.52
600.99	849.17
601.34	848.09
601.69	846.12
602.04	844.90
602.39	843.18
602.74	842.05
603.08	841.12
603.43	840.00
603.78	838.39
604.13	836.70
604.48	835.01
604.83	833.65
605.18	831.87
605.53	829.83
605.87	827.89
606.22	826.34
606.57	824.37
606.92	822.41
607.27	820.69
607.62	818.95
607.96	817.25
608.31	815.55
608.66	813.53
609.01	811.48
609.36	809.15
609.70	806.58
610.05	803.88
610.40	801.49
610.75	798.97
611.10	796.53
611.44	793.87
611.79	791.74
612.14	789.31
612.49	786.44
612.83	783.81
613.18	781.59
613.53	778.91
613.88	776.23
614.22	773.79
614.57	771.01
614.92	768.34
615.27	765.66
615.61	762.71
615.96	760.15
616.31	757.90
616.65	755.99
617.00	754.05
617.35	751.78
617.70	749.19
618.04	746.24
618.39	743.94
618.74	741.74
619.08	738.94
619.43	736.32
619.78	733.79
620.12	731.15
620.47	728.67
620.82	725.87
621.16	723.46
621.51	721.05
621.85	718.44
622.20	715.64
622.55	712.87
622.89	710.52
623.24	708.14
623.59	705.43
623.93	702.67
624.28	700.29
624.62	697.73
624.97	695.51
625.32	693.53
625.66	691.03
626.01	688.56
626.35	686.15
626.70	683.60
627.04	681.55
627.39	679.33
627.73	676.86
628.08	674.63
628.43	672.20
628.77	669.70
629.12	667.00
629.46	664.67
629.81	662.17
630.15	659.37
630.50	656.74
630.84	654.13
631.19	651.44
631.53	648.76
631.88	646.20
632.22	643.23
632.57	640.68
632.91	637.93
633.26	635.16
633.60	632.54
633.95	629.80
634.29	627.09
634.64	624.65
634.98	622.14
635.32	619.73
635.67	617.28
636.01	614.77
636.36	612.54
636.70	610.35
637.05	607.96
637.39	605.87
637.73	603.39
638.08	601.31
638.42	599.20
638.77	596.77
639.11	594.33
639.45	592.09
639.80	589.80
640.14	587.39
640.49	585.25
640.83	582.90
641.17	580.90
641.52	578.60
641.86	575.90
642.20	573.36
642.55	570.82
642.89	568.65
643.23	566.37
643.58	564.20
643.92	561.69
644.26	559.41
644.61	557.18
644.95	554.94
645.29	552.26
645.64	549.74
645.98	547.33
646.32	545.03
646.66	542.61
647.01	539.96
647.35	537.59
647.69	535.22
648.04	532.91
648.38	530.47
648.72	527.89
649.06	525.45
649.41	523.22
649.75	520.75
650.09	518.00
650.43	515.48
650.78	512.89
651.12	510.38
651.46	508.13
651.80	505.84
652.14	503.46
652.49	501.21
652.83	498.90
653.17	496.50
653.51	494.13
653.85	491.84
654.20	489.49
654.54	487.08
654.88	484.63
655.22	482.16
655.56	479.65
655.90	477.62
656.25	475.49
656.59	473.16
656.93	471.02
657.27	468.91
657.61	466.67
657.95	464.67
658.29	462.67
658.64	460.36
658.98	457.90
659.32	455.46
659.66	453.25
660.00	451.00
660.34	448.93
660.68	446.74
661.02	444.50
661.36	442.58
661.70	440.65
662.05	438.70
662.39	436.98
662.73	435.23
663.07	433.35
663.41	431.51
663.75	429.76
664.09	427.84
664.43	426.08
664.77	424.27
665.11	422.39
665.45	420.48
665.79	418.67
666.13	417.01
666.47	415.44
666.81	413.74
667.15	412.02
667.49	410.39
667.83	408.97
668.17	407.45
668.51	405.87
668.85	404.36
669.19	402.87
669.53	401.25
669.87	399.62
670.21	397.97
670.55	396.35
670.89	394.96
671.23	393.59
671.57	392.18
671.91	390.79
672.25	389.40
672.58	388.11
672.92	386.70
673.26	385.31
673.60	384.10
673.94	382.77
674.28	381.75
674.62	380.63
674.96	379.25
675.30	378.04
675.64	376.78
675.97	375.54
676.31	374.23
676.65	372.95
676.99	371.74
677.33	370.55
677.67	369.46
678.01	368.07
678.34	366.72
678.68	365.46
679.02	364.28
679.36	363.18
679.70	361.90
680.04	360.72
680.37	359.40
680.71	358.10
681.05	357.04
681.39	355.72
681.73	354.58
682.06	353.54
682.40	352.39
682.74	351.38
683.08	350.26
683.42	349.17
683.75	348.03
684.09	346.93
684.43	345.73
684.77	344.65
685.10	343.53
685.44	342.56
685.78	341.52
686.12	340.33
686.45	339.05
686.79	337.91
687.13	337.00
687.46	335.89
687.80	334.75
688.14	333.50
688.48	332.34
688.81	331.07
689.15	329.97
689.49	328.85
689.82	327.70
690.16	326.57
690.50	325.47
690.83	324.56
691.17	323.44
691.51	322.47
691.84	321.48
692.18	320.45
692.52	319.24
692.85	317.97
693.19	316.94
693.52	315.95
693.86	314.94
694.20	313.81
694.53	312.91
694.87	312.00
695.21	311.03
695.54	310.05
695.88	309.09
696.21	308.00
696.55	307.06
696.88	306.05
697.22	305.12
697.56	304.35
697.89	303.31
698.23	302.50
698.56	301.65
698.90	300.76
699.23	299.82
699.57	299.10
699.90	298.41
700.24	297.64
700.58	296.84
700.91	296.19
701.25	295.53
701.58	294.91
701.92	293.96
702.25	293.36
702.59	292.68
702.92	292.00
703.26	291.38
703.59	290.74
703.93	290.29
704.26	289.73
704.60	288.95
704.93	288.38
705.26	287.63
705.60	287.05
705.93	286.52
706.27	286.10
706.60	285.55
706.94	285.10
707.27	284.59
707.61	284.14
707.94	283.43
708.27	282.84
708.61	282.22
708.94	281.83
709.28	281.29
709.61	280.91
709.94	280.42
710.28	279.97
710.61	279.55
710.95	278.97
711.28	278.55
711.61	278.21
711.95	277.80
712.28	277.38
712.61	276.88
712.95	276.46
713.28	276.04
713.61	275.59
713.95	275.03
714.28	274.51
714.61	274.02
714.95	273.67
715.28	273.23
715.61	272.75
715.95	272.43
716.28	272.03
716.61	271.50
716.95	271.13
717.28	270.64
717.61	270.21
717.94	269.76
718.28	269.28
718.61	268.69
718.94	268.14
719.27	267.79
719.61	267.44
719.94	267.00
720.27	266.50
720.60	266.09
720.94	265.77
721.27	265.41
721.60	265.10
721.93	264.80
722.27	264.42
722.60	264.07
722.93	263.72
723.26	263.30
723.59	262.96
723.93	262.64
724.26	262.31
724.59	261.91
724.92	261.63
725.25	261.25
725.59	260.99
725.92	260.75
726.25	260.38
726.58	259.96
726.91	259.54
727.24	259.24
727.57	258.92
727.91	258.54
728.24	258.29
728.57	257.86
728.90	257.52
729.23	256.98
729.56	256.79
729.89	256.40
730.22	256.12
730.55	255.80
730.89	255.30
731.22	255.03
731.55	254.82
731.88	254.42
732.21	254.14
732.54	253.85
732.87	253.52
733.20	253.27
733.53	253.03
733.86	252.72
734.19	252.44
734.52	252.28
734.85	252.09
735.18	251.71
735.51	251.55
735.84	251.25
736.17	251.23
736.50	250.89
736.83	250.83
737.16	250.48
737.49	250.29
737.82	250.22
738.15	250.00
738.48	249.59
738.81	249.37
739.14	249.11
739.47	248.90
739.80	248.61
740.13	248.36
740.46	248.13
740.79	247.89
741.12	247.68
741.45	247.41
741.78	247.09
742.11	246.91
742.44	246.54
742.77	246.33
743.10	246.08
743.43	245.84
743.75	245.41
744.08	245.50
744.41	245.23
744.74	245.03
745.07	244.73
745.40	244.67
745.73	244.47
746.06	244.28
746.39	244.11
746.71	244.00
747.04	243.89
747.37	243.70
747.70	243.65
748.03	243.49
748.36	243.33
748.68	243.29
749.01	243.21
749.34	243.24
749.67	243.17
750.00	243.03
750.33	243.04
750.65	242.92
750.98	242.67
751.31	242.57
751.64	242.50
751.97	242.51
752.29	242.34
752.62	242.20
752.95	242.17
753.28	242.01
753.60	241.80
753.93	241.64
754.26	241.57
754.59	241.33
754.91	241.21
755.24	241.11
755.57	240.99
755.90	240.67
756.22	240.48
756.55	240.29
756.88	240.21
757.20	240.00
757.53	239.93
757.86	239.69
758.19	239.59
758.51	239.42
758.84	239.25
759.17	239.17
759.49	239.17
759.82	239.07
760.15	238.99
760.47	238.92
760.80	238.78
761.13	238.76
761.45	238.69
761.78	238.57
762.11	238.46
762.43	238.24
762.76	238.23
763.08	238.10
763.41	238.07
763.74	237.90
764.06	237.80
764.39	237.68
764.71	237.65
765.04	237.42
765.37	237.18
765.69	237.10
766.02	236.94
766.34	236.71
766.67	236.53
767.00	236.43
767.32	236.37
767.65	236.43
767.97	236.19
768.30	236.16
768.62	236.03
768.95	235.88
769.27	235.88
769.60	235.82
769.92	235.66
770.25	235.50
770.57	235.39
770.90	235.26
771.22	235.15
771.55	234.94
771.87	234.96
772.20	235.00
772.52	235.06
772.85	235.22
773.17	235.10
773.50	235.02
773.82	234.83
774.15	234.84
774.47	234.55
774.80	234.51
775.12	234.29
775.45	234.19
775.77	234.04
776.09	233.91
776.42	233.89
776.74	233.99
777.07	233.93
777.39	233.84
777.72	233.66
778.04	233.53
778.36	233.55
778.69	233.47
779.01	233.38
779.33	233.15
779.66	232.87
779.98	232.92
780.31	232.84
780.63	232.89
780.95	232.72
781.28	232.69
781.60	232.52
781.92	232.46
782.25	232.38
782.57	232.30
782.89	232.20
783.22	232.05
783.54	231.90
783.86	231.80
784.19	231.72
784.51	231.74
784.83	231.75
785.16	231.76
785.48	231.73
785.80	231.70
786.12	231.69
786.45	231.72
786.77	231.65
787.09	231.70
787.42	231.60
787.74	231.57
788.06	231.69
788.38	231.64
788.71	231.73
789.03	231.71
789.35	231.80
789.67	231.84
789.99	231.95
790.32	231.89
790.64	231.87
790.96	232.08
791.28	232.05
791.61	232.02
791.93	231.96
792.25	231.92
792.57	232.08
792.89	232.05
793.21	231.98
793.54	231.90
793.86	231.81
794.18	231.89
794.50	231.93
794.82	231.84
795.14	231.90
795.47	232.00
795.79	231.95
796.11	232.03
796.43	231.99
796.75	231.97
797.07	231.91
797.39	231.91
797.71	231.76
798.04	231.80
798.36	231.90
798.68	231.84
799.00	231.84
799.32	231.76
799.64	231.70
799.96	231.65
800.28	231.73
800.60	231.70
800.92	231.75
801.24	231.70
801.56	231.78
801.89	231.80
802.21	231.71
802.53	231.81
802.85	231.66
803.17	231.73
803.49	231.62
803.81	231.73
804.13	231.75
804.45	231.78
804.77	231.79
805.09	231.63
805.41	231.73
805.73	231.77
806.05	231.65
806.37	231.68
806.69	231.65
807.01	231.60
807.33	231.60
807.65	231.38
807.97	231.40
808.28	231.29
808.60	231.24
808.92	231.19
809.24	231.20
809.56	231.23
809.88	231.20
810.20	231.22
810.52	231.16
810.84	231.01
811.16	230.87
811.48	230.81
811.80	230.77
812.12	230.60
812.43	230.54
812.75	230.44
813.07	230.30
813.39	230.32
813.71	230.23
814.03	230.21
814.35	230.14
814.67	230.11
814.98	230.00
815.30	229.84
815.62	229.77
815.94	229.60
816.26	229.63
816.58	229.54
816.89	229.56
817.21	229.45
817.53	229.46
817.85	229.47
818.17	229.34
818.48	229.25
818.80	229.28
819.12	229.20
819.44	229.20
819.76	229.19
820.07	229.05
820.39	228.98
820.71	228.91
821.03	228.95
821.34	228.80
821.66	228.80
821.98	228.93
822.30	228.83
822.61	228.86
822.93	228.69
823.25	228.56
823.57	228.47
823.88	228.52
824.20	228.49
824.52	228.43
824.83	228.47
825.15	228.47
825.47	228.43
825.79	228.36
826.10	228.30
826.42	228.35
826.74	228.51
827.05	228.50
827.37	228.51
827.69	228.50
828.00	228.54
828.32	228.51
828.64	228.40
828.95	228.50
829.27	228.57
829.58	228.60
829.90	228.74
830.22	228.67
830.53	228.69
830.85	228.75
831.17	228.82
831.48	228.80
831.80	228.89
832.11	228.99
832.43	229.08
832.75	229.06
833.06	229.22
833.38	229.00
833.69	229.02
834.01	228.97
834.32	228.98
834.64	229.00
834.96	229.09
835.27	229.10
835.59	229.07
835.90	229.02
836.22	229.03
836.53	229.04
836.85	229.11
837.16	229.31
837.48	229.28
837.79	229.30
838.11	229.39
838.42	229.39
838.74	229.41
839.05	229.48
839.37	229.47
839.68	229.40
840.00	229.54
840.31	229.62
840.63	229.76
840.94	229.75
841.26	229.77
841.57	229.76
841.88	229.80
842.20	229.82
842.51	229.77
842.83	229.81
843.14	229.95
843.46	229.95
843.77	229.86
844.08	229.87
844.40	229.77
844.71	229.71
845.03	229.69
845.34	229.59
845.65	229.52
845.97	229.68
846.28	229.63
846.60	229.58
846.91	229.51
847.22	229.49
847.54	229.53
847.85	229.50
848.16	229.53
848.48	229.53
848.79	229.59
849.10	229.65
849.42	229.64
849.73	229.39
850.04	229.41
850.36	229.20
850.67	229.20
850.98	229.24
851.30	229.32
851.61	229.29
851.92	229.33
852.23	229.33
852.55	229.25
852.86	229.08
853.17	229.09
853.49	229.07
853.80	229.06
854.11	229.09
854.42	229.10
854.74	228.92
855.05	228.85
855.36	228.78
855.67	228.75
855.99	228.67
856.30	228.94
856.61	228.84
856.92	228.88
857.23	228.91
857.55	228.83
857.86	228.80
858.17	228.80
858.48	228.70
858.79	228.66
859.11	228.61
859.42	228.69
859.73	228.60
860.04	228.55
860.35	228.48
860.66	228.33
860.98	228.26
861.29	228.20
861.60	228.16
861.91	228.12
862.22	228.06
862.53	228.04
862.84	227.81
863.16	227.84
863.47	227.79
863.78	227.70
864.09	227.81
864.40	227.70
864.71	227.63
865.02	227.61
865.33	227.55
865.64	227.59
865.95	227.57
866.27	227.77
866.58	227.74
866.89	227.73
867.20	227.71
867.51	227.61
867.82	227.72
868.13	227.73
868.44	227.72
868.75	227.79
869.06	227.77
869.37	227.71
869.68	227.60
869.99	227.67
870.30	227.68
870.61	227.61
870.92	227.78
871.23	227.90
871.54	227.99
871.85	228.01
872.16	228.01
872.47	228.03
872.78	227.86
873.09	228.01
873.40	228.03
873.71	228.06
874.02	228.21
874.33	228.23
874.64	228.35
874.95	228.42
875.26	228.40
875.56	228.40
875.87	228.50
876.18	228.56
876.49	228.72
876.80	228.80
877.11	228.84
877.42	228.70
877.73	228.70
878.04	228.69
878.35	228.78
878.66	228.82
878.96	228.82
879.27	228.83
879.58	228.75
879.89	228.81
880.20	228.97
880.51	228.96
880.82	228.92
881.12	228.94
881.43	228.90
881.74	228.85
882.05	228.81
882.36	228.77
882.67	228.88
882.97	228.71
883.28	228.66
883.59	228.71
883.90	228.86
884.21	228.82
884.51	228.82
884.82	228.74
885.13	228.71
885.44	228.82
885.74	228.96
886.05	228.99
886.36	228.94
886.67	228.90
886.98	229.06
887.28	229.19
887.59	229.22
887.90	229.20
888.20	229.28
888.51	229.40
888.82	229.35
889.13	229.31
889.43	229.50
889.74	229.50
890.05	229.43
890.35	229.34
890.66	229.31
890.97	229.32
891.28	229.36
891.58	229.36
891.89	229.36
892.20	229.33
892.50	229.31
892.81	229.24
893.12	229.13
893.42	228.94
893.73	228.93
894.04	228.92
894.34	228.99
894.65	228.90
894.95	228.86
895.26	228.87
895.57	228.91
895.87	228.74
896.18	228.69
896.48	228.69
896.79	228.61
897.10	228.66
897.40	228.54
897.71	228.57
898.01	228.60
898.32	228.42
898.63	228.32
898.93	228.37
899.24	228.37
899.54	228.40
899.85	228.38
900.15	228.24
900.46	228.15
900.76	228.15
901.07	228.19
901.38	228.07
901.68	228.03
901.99	227.96
902.29	227.90
902.60	227.87
902.90	227.86
903.21	227.86
903.51	227.74
903.82	227.77
904.12	227.68
904.43	227.58
904.73	227.61
905.03	227.60
905.34	227.73
905.64	227.65
905.95	227.58
906.25	227.51
906.56	227.52
906.86	227.44
907.17	227.23
907.47	227.18
907.77	227.17
908.08	227.16
908.38	227.03
908.69	227.06
908.99	227.06
909.30	227.09
909.60	227.02
909.90	227.14
910.21	227.12
910.51	227.03
910.81	227.06
911.12	227.02
911.42	227.00
911.73	226.70
912.03	226.80
912.33	226.83
912.64	226.88
912.94	226.91
913.24	227.00
913.55	227.10
913.85	227.03
914.15	227.15
914.46	227.28
914.76	227.48
915.06	227.43
915.37	227.47
915.67	227.45
915.97	227.58
916.27	227.54
916.58	227.69
916.88	227.79
917.18	227.79
917.49	228.05
917.79	228.11
918.09	228.23
918.39	228.35
918.70	228.37
919.00	228.45
919.30	228.57
919.60	228.55
919.91	228.59
920.21	228.74
920.51	228.74
920.81	228.72
921.12	228.73
921.42	228.78
921.72	228.85
922.02	228.88
922.32	228.87
922.63	228.83
922.93	228.93
923.23	229.00
923.53	229.00
923.83	228.87
924.13	228.86
924.44	228.97
924.74	229.02
925.04	229.14
925.34	229.15
925.64	229.06
925.94	229.13
926.24	229.26
926.55	229.24
926.85	229.27
927.15	229.31
927.45	229.31
927.75	229.38
928.05	229.37
928.35	229.36
928.65	229.42
928.95	229.49
929.26	229.30
929.56	229.32
929.86	229.40
930.16	229.40
930.46	229.48
930.76	229.54
931.06	229.36
931.36	229.30
931.66	229.28
931.96	229.24
932.26	229.21
932.56	229.05
932.86	229.04
933.16	229.00
933.46	228.87
933.76	228.74
934.06	228.67
934.36	228.76
934.66	228.72
934.96	228.61
935.26	228.60
935.56	228.63
935.86	228.46
936.16	228.39
936.46	228.31
936.76	228.17
937.06	228.00
937.36	228.06
937.66	228.08
937.96	228.06
938.26	228.04
938.56	227.97
938.86	227.92
939.16	227.96
939.46	227.96
939.76	228.08
940.06	228.01
940.35	227.98
940.65	227.85
940.95	227.80
941.25	227.81
941.55	227.77
941.85	227.61
942.15	227.67
942.45	227.68
942.75	227.61
943.04	227.70
943.34	227.79
943.64	227.75
943.94	227.67
944.24	227.65
944.54	227.60
944.84	227.62
945.13	227.59
945.43	227.41
945.73	227.32
946.03	227.24
946.33	227.34
946.62	227.40
946.92	227.40
947.22	227.48
947.52	227.43
947.82	227.48
948.11	227.55
948.41	227.59
948.71	227.58
949.01	227.65
949.31	227.52
949.60	227.42
949.90	227.38
950.20	227.32
950.50	227.40
950.79	227.47
951.09	227.52
951.39	227.61
951.69	227.70
951.98	227.96
952.28	227.94
952.58	227.91
952.87	227.90
953.17	227.90
953.47	227.87
953.76	228.00
954.06	227.93
954.36	227.97
954.66	227.93
954.95	227.94
955.25	228.07
955.55	228.25
955.84	228.25
956.14	228.34
956.44	228.46
956.73	228.50
957.03	228.51
957.32	228.48
957.62	228.51
957.92	228.60
958.21	228.50
958.51	228.80
958.81	228.90
959.10	228.97
959.40	229.03
959.69	229.08
959.99	229.05
960.29	229.15
960.58	229.16
960.88	229.25
961.17	229.22
961.47	229.23
961.76	229.15
962.06	229.29
962.36	229.30
962.65	229.36
962.95	229.28
963.24	229.37
963.54	229.49
963.83	229.51
964.13	229.49
964.42	229.41
964.72	229.22
965.01	229.12
965.31	229.08
965.60	229.08
965.90	229.25
966.19	229.21
966.49	229.28
966.78	229.34
967.08	229.43
967.37	229.59
967.67	229.50
967.96	229.49
968.26	229.35
968.55	229.43
968.85	229.31
969.14	229.27
969.43	229.18
969.73	229.10
970.02	229.12
970.32	229.12
970.61	229.10
970.91	229.01
971.20	229.06
971.49	229.00
971.79	228.94
972.08	228.78
972.38	228.77
972.67	228.64
972.96	228.65
973.26	228.56
973.55	228.55
973.85	228.49
974.14	228.52
974.43	228.59
974.73	228.49
975.02	228.51
975.31	228.54
975.61	228.53
975.90	228.54
976.19	228.42
976.49	228.34
976.78	228.52
977.07	228.49
977.37	228.44
977.66	228.45
977.95	228.35
978.24	228.37
978.54	228.43
978.83	228.40
979.12	228.34
979.42	228.25
979.71	228.09
980.00	228.13
980.29	228.05
980.59	227.98
980.88	228.00
981.17	227.93
981.46	227.87
981.76	227.80
982.05	227.80
982.34	227.83
982.63	227.84
982.93	227.63
983.22	227.75
983.51	227.70
983.80	227.76
984.09	227.90
984.39	227.81
984.68	227.77
984.97	227.79
985.26	227.74
985.55	227.74
985.85	227.82
986.14	227.85
986.43	227.89
986.72	227.96
987.01	227.99
987.30	227.97
987.59	227.97
987.89	228.03
988.18	227.90
988.47	227.94
988.76	227.98
989.05	228.14
989.34	228.00
989.63	228.12
989.92	227.95
990.22	227.88
990.51	227.93
990.80	227.93
991.09	227.94
991.38	228.05
991.67	227.99
991.96	227.91
992.25	227.88
992.54	227.86
992.83	227.87
993.12	227.81
993.41	227.90
993.70	227.99
993.99	228.15
994.28	228.24
994.58	228.19
994.87	228.17
995.16	228.04
995.45	228.15
995.74	228.07
996.03	228.18
996.32	228.25
996.61	228.30
996.90	228.22
997.19	228.29
997.48	228.25
997.77	228.31
998.06	228.30
998.34	228.33
998.63	228.30
998.92	228.23
999.21	228.23
999.50	228.25
999.79	228.19
1000.08	228.07
1000.37	228.06
1000.66	228.15
1000.95	228.20
1001.24	228.14
1001.53	228.16
1001.82	228.19
1002.11	228.14
1002.40	228.22
1002.68	228.28
1002.97	228.41
1003.26	228.24
1003.55	228.14
1003.84	228.12
1004.13	228.22
1004.42	228.18
1004.71	228.22
1004.99	228.16
1005.28	228.30
1005.57	228.33
1005.86	228.29
1006.15	228.26
1006.44	228.26
1006.72	228.27
1007.01	228.22
1007.30	228.30
1007.59	228.23
1007.88	228.22
1008.17	228.23
1008.45	228.10
1008.74	227.95
1009.03	227.93
1009.32	228.02
1009.60	228.15
1009.89	228.19
1010.18	228.15
1010.47	228.17
1010.76	228.24
1011.04	228.33
1011.33	228.53
1011.62	228.51
1011.91	228.57
1012.19	228.55
1012.48	228.55
1012.77	228.54
1013.05	228.67
1013.34	228.76
1013.63	228.79
1013.92	228.78
1014.20	228.80
1014.49	228.82
1014.78	228.77
1015.06	228.73
1015.35	228.70
1015.64	228.74
1015.92	228.70
1016.21	228.64
1016.50	228.65
1016.78	228.61
1017.07	228.54
1017.36	228.26
1017.64	228.26
1017.93	228.33
1018.22	228.40
1018.50	228.33
1018.79	228.26
1019.08	228.13
1019.36	228.01
1019.65	227.95
1019.93	228.07
1020.22	228.12
1020.51	228.17
1020.79	228.17
1021.08	228.80
1021.36	227.00
1021.65	227.40
1021.94	228.20
1022.22	227.10
1022.51	227.40
1022.79	230.10
1023.08	228.50
1023.36	228.90
1023.65	226.30
>>>>>End Processed Spectral Data<<<<<
