SpectraSuite Data File
++++++++++++++++++++++++++++++++++++
Date: Fri Feb 01 14:36:29 EST 2013
User: group
Dark Spectrum Present: No
Reference Spectrum Present: No
Number of Sampled Component Spectra: 1
Spectrometers: USB2E7196
Integration Time (usec): 70000 (USB2E7196)
Spectra Averaged: 10 (USB2E7196)
Boxcar Smoothing: 10 (USB2E7196)
Correct for Electrical Dark: No (USB2E7196)
Strobe/Lamp Enabled: No (USB2E7196)
Correct for Detector Non-linearity: No (USB2E7196)
Correct for Stray Light: No (USB2E7196)
Number of Pixels in Processed Spectrum: 2048
>>>>>Begin Processed Spectral Data<<<<<
339.09	0.00
339.48	215.10
339.86	217.80
340.24	218.50
340.63	221.20
341.01	225.40
341.39	224.10
341.78	225.40
342.16	227.10
342.54	226.90
342.93	214.48
343.31	225.27
343.69	225.91
344.07	226.35
344.46	226.83
344.84	227.13
345.22	227.22
345.60	227.36
345.99	227.50
346.37	227.62
346.75	227.72
347.13	227.84
347.52	227.96
347.90	228.05
348.28	228.13
348.66	228.29
349.05	228.33
349.43	228.32
349.81	228.36
350.19	228.32
350.57	228.45
350.96	228.63
351.34	228.78
351.72	228.87
352.10	228.94
352.48	228.97
352.87	229.02
353.25	229.16
353.63	229.32
354.01	229.40
354.39	229.35
354.77	229.48
355.15	229.67
355.54	229.70
355.92	229.68
356.30	229.79
356.68	230.04
357.06	230.04
357.44	230.12
357.82	230.27
358.20	230.46
358.58	230.34
358.97	230.38
359.35	230.49
359.73	230.50
360.11	230.53
360.49	230.57
360.87	230.72
361.25	230.76
361.63	230.82
362.01	230.85
362.39	230.97
362.77	231.00
363.15	230.89
363.53	230.94
363.91	230.99
364.29	230.94
364.67	230.73
365.05	230.81
365.43	230.86
365.81	230.80
366.19	230.80
366.57	230.93
366.95	230.92
367.33	230.69
367.71	230.71
368.09	230.77
368.47	230.85
368.85	230.66
369.23	230.62
369.61	230.51
369.99	230.52
370.37	230.41
370.75	230.31
371.13	230.21
371.51	230.11
371.89	230.18
372.27	230.19
372.65	230.10
373.03	229.99
373.41	229.81
373.78	229.72
374.16	229.61
374.54	229.51
374.92	229.36
375.30	229.32
375.68	229.16
376.06	229.07
376.44	228.84
376.82	228.87
377.19	228.81
377.57	228.61
377.95	228.44
378.33	228.33
378.71	228.16
379.09	228.12
379.47	227.96
379.84	227.75
380.22	227.61
380.60	227.57
380.98	227.50
381.36	227.45
381.73	227.34
382.11	227.23
382.49	227.10
382.87	227.12
383.25	227.16
383.62	227.43
384.00	227.34
384.38	227.34
384.76	227.28
385.13	227.29
385.51	227.37
385.89	227.25
386.27	227.20
386.64	227.25
387.02	227.21
387.40	227.18
387.78	227.13
388.15	227.08
388.53	226.96
388.91	227.02
389.29	226.96
389.66	226.99
390.04	226.97
390.42	227.05
390.79	226.96
391.17	226.97
391.55	226.71
391.92	226.75
392.30	226.69
392.68	226.64
393.05	226.65
393.43	226.63
393.81	226.70
394.18	226.70
394.56	226.60
394.94	226.71
395.31	226.78
395.69	226.94
396.06	227.00
396.44	227.17
396.82	227.17
397.19	227.34
397.57	227.38
397.95	227.58
398.32	227.60
398.70	227.77
399.07	227.94
399.45	228.01
399.82	228.16
400.20	228.30
400.58	228.44
400.95	228.43
401.33	228.62
401.70	228.97
402.08	229.16
402.45	229.37
402.83	229.51
403.20	229.66
403.58	229.68
403.95	229.92
404.33	230.07
404.71	230.27
405.08	230.65
405.46	230.92
405.83	231.12
406.21	231.30
406.58	231.56
406.96	231.75
407.33	232.07
407.70	232.39
408.08	232.89
408.45	233.37
408.83	233.79
409.20	234.16
409.58	234.56
409.95	235.17
410.33	235.65
410.70	236.12
411.08	236.74
411.45	237.27
411.82	237.79
412.20	238.54
412.57	239.28
412.95	239.81
413.32	240.54
413.69	241.30
414.07	242.21
414.44	243.10
414.82	244.05
415.19	244.93
415.56	245.95
415.94	246.92
416.31	248.08
416.68	249.30
417.06	250.65
417.43	251.82
417.81	253.27
418.18	254.93
418.55	256.64
418.93	258.39
419.30	260.32
419.67	262.34
420.04	264.21
420.42	266.27
420.79	268.68
421.16	271.09
421.54	273.55
421.91	276.02
422.28	278.66
422.66	281.54
423.03	284.45
423.40	287.26
423.77	290.37
424.15	293.60
424.52	296.90
424.89	300.33
425.26	303.87
425.64	306.97
426.01	310.45
426.38	314.08
426.75	317.92
427.13	321.67
427.50	325.69
427.87	329.91
428.24	334.23
428.61	338.40
428.99	342.83
429.36	347.72
429.73	352.58
430.10	357.23
430.47	362.06
430.85	367.00
431.22	372.30
431.59	377.96
431.96	383.14
432.33	388.90
432.70	394.75
433.08	401.30
433.45	407.70
433.82	413.96
434.19	421.06
434.56	427.85
434.93	434.50
435.30	441.18
435.68	448.63
436.05	455.52
436.42	462.31
436.79	468.67
437.16	475.50
437.53	482.63
437.90	489.97
438.27	496.93
438.64	504.15
439.01	510.82
439.38	516.97
439.75	522.92
440.13	529.69
440.50	535.86
440.87	541.37
441.24	546.91
441.61	553.08
441.98	557.61
442.35	562.79
442.72	568.08
443.09	573.25
443.46	576.45
443.83	578.82
444.20	581.02
444.57	584.11
444.94	585.77
445.31	587.62
445.68	589.30
446.05	590.58
446.42	590.81
446.79	590.85
447.16	590.50
447.53	590.52
447.90	588.85
448.27	587.15
448.64	583.93
449.01	582.06
449.37	577.87
449.74	573.88
450.11	569.14
450.48	564.06
450.85	558.48
451.22	553.81
451.59	549.73
451.96	545.62
452.33	539.81
452.70	534.62
453.07	528.15
453.43	521.55
453.80	515.20
454.17	509.21
454.54	503.34
454.91	497.14
455.28	491.10
455.65	485.33
456.02	479.58
456.38	474.64
456.75	468.29
457.12	463.21
457.49	457.94
457.86	452.79
458.23	448.30
458.59	443.43
458.96	438.36
459.33	433.88
459.70	429.50
460.07	425.76
460.43	421.69
460.80	417.89
461.17	414.42
461.54	410.72
461.91	406.96
462.27	403.53
462.64	400.42
463.01	397.01
463.38	393.69
463.74	390.19
464.11	387.19
464.48	384.42
464.85	381.60
465.21	379.45
465.58	377.21
465.95	374.41
466.32	372.01
466.68	369.95
467.05	367.70
467.42	365.30
467.78	363.04
468.15	360.80
468.52	359.02
468.88	356.85
469.25	354.87
469.62	353.52
469.98	351.73
470.35	350.07
470.72	348.53
471.08	346.88
471.45	345.57
471.82	344.24
472.18	342.80
472.55	341.48
472.92	340.13
473.28	338.89
473.65	337.73
474.02	336.71
474.38	335.66
474.75	334.61
475.11	333.72
475.48	333.04
475.85	332.21
476.21	331.47
476.58	330.90
476.94	330.37
477.31	329.60
477.67	328.89
478.04	328.35
478.41	327.90
478.77	327.60
479.14	327.07
479.50	326.82
479.87	326.65
480.23	326.54
480.60	326.29
480.96	326.11
481.33	326.19
481.69	326.07
482.06	325.99
482.42	325.86
482.79	325.87
483.15	325.86
483.52	326.10
483.88	326.20
484.25	326.30
484.61	326.40
484.98	326.74
485.34	327.36
485.71	327.85
486.07	328.29
486.44	328.60
486.80	329.08
487.17	329.70
487.53	330.36
487.90	330.98
488.26	331.67
488.62	332.32
488.99	332.80
489.35	333.67
489.72	334.53
490.08	335.53
490.44	336.40
490.81	337.41
491.17	338.30
491.54	339.46
491.90	340.50
492.26	341.79
492.63	342.88
492.99	343.99
493.36	345.19
493.72	346.31
494.08	347.63
494.45	348.97
494.81	350.15
495.17	351.43
495.54	352.91
495.90	354.23
496.26	355.69
496.63	357.22
496.99	358.56
497.35	359.95
497.72	361.36
498.08	362.71
498.44	364.09
498.80	365.66
499.17	367.01
499.53	368.61
499.89	369.96
500.26	371.27
500.62	372.64
500.98	374.12
501.34	375.48
501.71	376.79
502.07	378.21
502.43	379.49
502.79	380.86
503.16	381.97
503.52	383.30
503.88	384.53
504.24	385.83
504.60	387.07
504.97	388.20
505.33	389.37
505.69	390.70
506.05	391.90
506.41	392.83
506.78	393.79
507.14	394.68
507.50	395.60
507.86	396.58
508.22	397.44
508.59	398.24
508.95	399.17
509.31	399.94
509.67	400.65
510.03	401.41
510.39	401.95
510.75	402.55
511.12	403.11
511.48	403.59
511.84	404.05
512.20	404.53
512.56	404.91
512.92	405.39
513.28	405.82
513.64	405.96
514.00	406.29
514.37	406.51
514.73	406.75
515.09	407.10
515.45	407.18
515.81	407.32
516.17	407.49
516.53	407.78
516.89	408.08
517.25	408.15
517.61	408.36
517.97	408.48
518.33	408.68
518.69	408.99
519.05	409.27
519.41	409.52
519.77	409.88
520.13	410.20
520.49	410.33
520.85	410.39
521.21	410.66
521.57	411.08
521.93	411.41
522.29	411.81
522.65	412.19
523.01	412.53
523.37	412.91
523.73	413.24
524.09	413.57
524.45	414.00
524.81	414.91
525.17	415.70
525.53	416.36
525.89	417.16
526.25	417.89
526.61	418.58
526.97	419.30
527.33	420.17
527.68	421.28
528.04	422.46
528.40	423.56
528.76	425.06
529.12	426.15
529.48	427.65
529.84	429.12
530.20	430.65
530.56	432.59
530.91	434.50
531.27	436.34
531.63	438.02
531.99	439.74
532.35	441.52
532.71	443.34
533.07	445.64
533.42	447.88
533.78	449.89
534.14	452.18
534.50	454.45
534.86	456.89
535.21	459.11
535.57	461.68
535.93	464.39
536.29	466.99
536.65	469.83
537.00	472.38
537.36	475.14
537.72	477.95
538.08	480.68
538.44	483.42
538.79	486.37
539.15	489.47
539.51	492.80
539.87	495.98
540.22	499.24
540.58	502.54
540.94	505.80
541.29	509.30
541.65	512.91
542.01	516.51
542.37	519.98
542.72	523.70
543.08	527.04
543.44	530.66
543.79	533.99
544.15	537.86
544.51	541.86
544.87	545.59
545.22	549.50
545.58	553.21
545.94	557.01
546.29	560.93
546.65	565.00
547.01	568.83
547.36	572.43
547.72	576.25
548.07	580.05
548.43	583.90
548.79	588.04
549.14	591.89
549.50	595.88
549.86	599.86
550.21	603.65
550.57	607.81
550.92	611.83
551.28	615.98
551.64	619.95
551.99	624.01
552.35	628.13
552.70	632.16
553.06	636.60
553.41	640.70
553.77	644.86
554.13	648.92
554.48	653.20
554.84	657.76
555.19	661.70
555.55	665.98
555.90	670.10
556.26	674.00
556.61	678.08
556.97	681.96
557.32	685.97
557.68	690.22
558.03	694.33
558.39	698.36
558.74	702.41
559.10	706.50
559.45	710.46
559.81	714.67
560.16	718.54
560.52	722.29
560.87	726.40
561.23	730.23
561.58	734.35
561.94	738.10
562.29	741.39
562.64	745.48
563.00	749.17
563.35	753.22
563.71	757.13
564.06	761.05
564.42	764.80
564.77	768.43
565.12	772.22
565.48	775.95
565.83	779.38
566.19	783.26
566.54	786.46
566.89	789.88
567.25	793.10
567.60	796.94
567.96	800.51
568.31	803.80
568.66	807.20
569.02	810.28
569.37	813.36
569.72	816.72
570.08	819.72
570.43	822.55
570.78	825.38
571.14	827.94
571.49	830.40
571.84	833.56
572.20	836.39
572.55	838.65
572.90	840.85
573.26	843.60
573.61	845.64
573.96	848.23
574.31	850.07
574.67	851.79
575.02	853.16
575.37	854.62
575.72	856.14
576.08	857.72
576.43	859.26
576.78	860.80
577.13	862.40
577.49	863.74
577.84	865.25
578.19	866.43
578.54	867.68
578.90	868.90
579.25	869.49
579.60	870.26
579.95	871.19
580.30	871.88
580.66	872.38
581.01	872.93
581.36	873.25
581.71	874.03
582.06	874.67
582.42	875.13
582.77	875.69
583.12	876.44
583.47	876.95
583.82	877.59
584.17	877.98
584.53	878.28
584.88	878.55
585.23	878.84
585.58	879.13
585.93	879.24
586.28	879.49
586.63	879.68
586.98	879.71
587.34	879.94
587.69	880.22
588.04	880.35
588.39	880.50
588.74	880.39
589.09	880.35
589.44	879.92
589.79	879.70
590.14	879.73
590.49	878.87
590.84	878.02
591.19	877.30
591.54	876.44
591.89	875.50
592.25	874.90
592.60	873.84
592.95	872.86
593.30	872.02
593.65	870.92
594.00	869.82
594.35	869.43
594.70	868.00
595.05	866.72
595.40	865.32
595.75	863.85
596.10	862.85
596.45	861.51
596.80	860.79
597.15	859.75
597.50	858.15
597.85	857.50
598.19	856.62
598.54	855.22
598.89	854.31
599.24	853.35
599.59	851.84
599.94	850.61
600.29	849.16
600.64	847.81
600.99	846.09
601.34	844.80
601.69	842.70
602.04	841.18
602.39	839.80
602.74	838.70
603.08	837.57
603.43	836.00
603.78	834.73
604.13	833.13
604.48	831.37
604.83	829.85
605.18	828.04
605.53	826.02
605.87	823.97
606.22	822.10
606.57	820.13
606.92	818.39
607.27	816.83
607.62	815.29
607.96	813.50
608.31	811.95
608.66	810.16
609.01	808.15
609.36	806.12
609.70	804.00
610.05	801.79
610.40	799.46
610.75	797.06
611.10	794.43
611.44	791.90
611.79	789.91
612.14	787.66
612.49	785.00
612.83	782.77
613.18	780.61
613.53	778.14
613.88	775.66
614.22	773.28
614.57	770.41
614.92	767.65
615.27	764.98
615.61	762.21
615.96	759.49
616.31	757.10
616.65	754.96
617.00	752.73
617.35	750.04
617.70	747.40
618.04	744.78
618.39	742.46
618.74	740.11
619.08	737.34
619.43	734.84
619.78	732.46
620.12	729.85
620.47	727.27
620.82	724.58
621.16	722.02
621.51	719.76
621.85	717.33
622.20	714.69
622.55	712.29
622.89	710.01
623.24	707.49
623.59	705.07
623.93	702.74
624.28	699.93
624.62	697.74
624.97	695.56
625.32	693.42
625.66	691.11
626.01	688.52
626.35	686.10
626.70	683.49
627.04	681.16
627.39	678.64
627.73	676.38
628.08	673.93
628.43	671.44
628.77	668.61
629.12	665.96
629.46	663.60
629.81	660.97
630.15	658.39
630.50	655.80
630.84	653.19
631.19	650.08
631.53	647.39
631.88	644.27
632.22	641.06
632.57	638.38
632.91	635.54
633.26	632.94
633.60	630.09
633.95	627.44
634.29	624.85
634.64	622.30
634.98	619.60
635.32	617.30
635.67	615.11
636.01	612.72
636.36	610.41
636.70	608.12
637.05	605.74
637.39	603.29
637.73	601.03
638.08	598.70
638.42	596.60
638.77	594.32
639.11	592.05
639.45	589.99
639.80	587.32
640.14	584.95
640.49	582.71
640.83	580.38
641.17	577.97
641.52	575.44
641.86	573.00
642.20	570.67
642.55	568.05
642.89	565.46
643.23	562.75
643.58	560.52
643.92	557.85
644.26	555.56
644.61	553.37
644.95	550.86
645.29	548.15
645.64	545.74
645.98	543.36
646.32	541.10
646.66	538.78
647.01	536.55
647.35	534.36
647.69	531.89
648.04	529.90
648.38	527.56
648.72	524.96
649.06	522.58
649.41	520.24
649.75	517.89
650.09	515.40
650.43	513.28
650.78	510.59
651.12	508.26
651.46	505.92
651.80	503.55
652.14	501.26
652.49	499.11
652.83	496.71
653.17	494.37
653.51	492.02
653.85	489.71
654.20	487.29
654.54	484.81
654.88	482.44
655.22	479.75
655.56	477.46
655.90	475.41
656.25	473.37
656.59	470.94
656.93	468.97
657.27	467.00
657.61	464.68
657.95	462.73
658.29	460.57
658.64	458.27
658.98	455.98
659.32	453.77
659.66	451.68
660.00	449.74
660.34	447.70
660.68	445.55
661.02	443.56
661.36	441.91
661.70	440.07
662.05	438.34
662.39	436.77
662.73	434.94
663.07	433.33
663.41	431.54
663.75	429.96
664.09	428.07
664.43	426.31
664.77	424.85
665.11	423.34
665.45	421.72
665.79	420.20
666.13	418.40
666.47	416.70
666.81	414.90
667.15	413.03
667.49	411.34
667.83	409.85
668.17	408.09
668.51	406.29
668.85	404.60
669.19	403.04
669.53	401.27
669.87	399.55
670.21	397.93
670.55	396.33
670.89	394.87
671.23	393.40
671.57	391.71
671.91	390.00
672.25	388.23
672.58	386.88
672.92	385.19
673.26	384.12
673.60	382.78
673.94	381.48
674.28	380.33
674.62	379.09
674.96	377.76
675.30	376.61
675.64	375.37
675.97	374.10
676.31	372.70
676.65	371.44
676.99	370.33
677.33	368.87
677.67	367.48
678.01	366.07
678.34	364.69
678.68	363.62
679.02	362.39
679.36	361.14
679.70	359.75
680.04	358.65
680.37	357.16
680.71	355.95
681.05	354.80
681.39	353.56
681.73	352.42
682.06	351.35
682.40	350.16
682.74	349.04
683.08	347.91
683.42	346.68
683.75	345.47
684.09	344.32
684.43	343.30
684.77	342.25
685.10	341.24
685.44	340.18
685.78	338.95
686.12	337.91
686.45	336.88
686.79	335.75
687.13	334.76
687.46	333.68
687.80	332.63
688.14	331.42
688.48	330.31
688.81	329.24
689.15	328.14
689.49	327.02
689.82	325.95
690.16	324.87
690.50	323.87
690.83	322.92
691.17	321.77
691.51	320.74
691.84	319.90
692.18	318.85
692.52	317.83
692.85	316.87
693.19	315.89
693.52	314.90
693.86	314.03
694.20	313.10
694.53	312.27
694.87	311.30
695.21	310.56
695.54	309.71
695.88	308.75
696.21	307.89
696.55	307.07
696.88	306.24
697.22	305.52
697.56	304.80
697.89	304.02
698.23	303.37
698.56	302.64
698.90	301.70
699.23	300.80
699.57	300.01
699.90	299.31
700.24	298.43
700.58	297.66
700.91	296.92
701.25	296.21
701.58	295.53
701.92	294.91
702.25	294.17
702.59	293.38
702.92	292.66
703.26	291.96
703.59	291.25
703.93	290.65
704.26	289.87
704.60	289.26
704.93	288.49
705.26	287.76
705.60	287.15
705.93	286.66
706.27	286.23
706.60	285.72
706.94	285.10
707.27	284.58
707.61	284.09
707.94	283.45
708.27	282.73
708.61	282.09
708.94	281.51
709.28	281.00
709.61	280.49
709.94	279.98
710.28	279.37
710.61	278.83
710.95	278.09
711.28	277.83
711.61	277.29
711.95	276.84
712.28	276.35
712.61	275.74
712.95	275.13
713.28	274.54
713.61	273.97
713.95	273.50
714.28	273.03
714.61	272.47
714.95	271.96
715.28	271.44
715.61	270.91
715.95	270.45
716.28	269.81
716.61	269.49
716.95	269.12
717.28	268.74
717.61	268.36
717.94	267.96
718.28	267.26
718.61	266.70
718.94	266.17
719.27	265.70
719.61	265.28
719.94	264.98
720.27	264.55
720.60	264.12
720.94	263.63
721.27	263.20
721.60	262.89
721.93	262.57
722.27	262.36
722.60	262.09
722.93	261.71
723.26	261.55
723.59	260.97
723.93	260.55
724.26	260.18
724.59	259.71
724.92	259.47
725.25	259.25
725.59	259.00
725.92	258.72
726.25	258.46
726.58	258.14
726.91	257.78
727.24	257.59
727.57	257.32
727.91	257.09
728.24	256.93
728.57	256.65
728.90	256.36
729.23	256.05
729.56	255.84
729.89	255.53
730.22	255.24
730.55	255.04
730.89	254.74
731.22	254.50
731.55	254.31
731.88	254.10
732.21	253.81
732.54	253.51
732.87	253.35
733.20	253.10
733.53	252.86
733.86	252.62
734.19	252.32
734.52	252.03
734.85	251.88
735.18	251.50
735.51	251.28
735.84	251.19
736.17	250.88
736.50	250.59
736.83	250.73
737.16	250.51
737.49	250.27
737.82	250.13
738.15	249.95
738.48	249.75
738.81	249.49
739.14	249.23
739.47	249.10
739.80	248.89
740.13	248.73
740.46	248.54
740.79	248.22
741.12	248.10
741.45	247.92
741.78	247.64
742.11	247.68
742.44	247.35
742.77	247.15
743.10	246.95
743.43	246.82
743.75	246.32
744.08	246.41
744.41	246.33
744.74	246.06
745.07	245.87
745.40	245.75
745.73	245.56
746.06	245.45
746.39	245.26
746.71	245.03
747.04	244.91
747.37	244.77
747.70	244.80
748.03	244.53
748.36	244.48
748.68	244.21
749.01	243.94
749.34	243.84
749.67	243.64
750.00	243.60
750.33	243.47
750.65	243.26
750.98	242.76
751.31	242.57
751.64	242.46
751.97	242.47
752.29	242.28
752.62	242.13
752.95	241.91
753.28	241.83
753.60	241.69
753.93	241.54
754.26	241.21
754.59	240.95
754.91	240.78
755.24	240.45
755.57	240.36
755.90	240.20
756.22	240.07
756.55	239.89
756.88	239.66
757.20	239.44
757.53	239.39
757.86	239.33
758.19	239.23
758.51	239.11
758.84	238.83
759.17	238.60
759.49	238.37
759.82	238.42
760.15	238.20
760.47	238.16
760.80	237.92
761.13	238.04
761.45	237.90
761.78	237.82
762.11	237.88
762.43	237.85
762.76	237.70
763.08	237.62
763.41	237.53
763.74	237.50
764.06	237.46
764.39	237.38
764.71	237.19
765.04	237.08
765.37	237.02
765.69	236.94
766.02	236.96
766.34	236.95
766.67	236.70
767.00	236.73
767.32	236.63
767.65	236.65
767.97	236.49
768.30	236.42
768.62	236.28
768.95	236.12
769.27	235.95
769.60	235.88
769.92	235.75
770.25	235.58
770.57	235.30
770.90	235.11
771.22	234.94
771.55	234.93
771.87	234.83
772.20	234.74
772.52	234.74
772.85	234.78
773.17	234.74
773.50	234.70
773.82	234.55
774.15	234.50
774.47	234.36
774.80	234.30
775.12	234.27
775.45	234.26
775.77	234.13
776.09	234.10
776.42	234.02
776.74	234.02
777.07	234.03
777.39	234.04
777.72	233.86
778.04	233.90
778.36	233.80
778.69	233.79
779.01	233.71
779.33	233.54
779.66	233.33
779.98	233.20
780.31	233.10
780.63	233.21
780.95	233.15
781.28	233.13
781.60	233.06
781.92	232.98
782.25	232.92
782.57	232.96
782.89	232.88
783.22	232.80
783.54	232.71
783.86	232.60
784.19	232.65
784.51	232.72
784.83	232.59
785.16	232.52
785.48	232.50
785.80	232.57
786.12	232.52
786.45	232.51
786.77	232.56
787.09	232.57
787.42	232.32
787.74	232.25
788.06	232.23
788.38	232.26
788.71	232.29
789.03	232.23
789.35	232.25
789.67	232.22
789.99	232.30
790.32	232.29
790.64	232.37
790.96	232.41
791.28	232.45
791.61	232.46
791.93	232.56
792.25	232.50
792.57	232.52
792.89	232.49
793.21	232.40
793.54	232.26
793.86	232.15
794.18	232.22
794.50	232.16
794.82	232.13
795.14	232.01
795.47	231.89
795.79	231.80
796.11	231.60
796.43	231.55
796.75	231.49
797.07	231.47
797.39	231.43
797.71	231.20
798.04	231.11
798.36	231.10
798.68	230.99
799.00	230.91
799.32	230.77
799.64	230.72
799.96	230.67
800.28	230.71
800.60	230.76
800.92	230.59
801.24	230.55
801.56	230.51
801.89	230.50
802.21	230.53
802.53	230.52
802.85	230.58
803.17	230.60
803.49	230.49
803.81	230.34
804.13	230.24
804.45	230.16
804.77	230.15
805.09	230.10
805.41	230.03
805.73	229.95
806.05	229.86
806.37	229.92
806.69	229.93
807.01	229.87
807.33	229.78
807.65	229.81
807.97	229.84
808.28	229.68
808.60	229.64
808.92	229.59
809.24	229.74
809.56	229.71
809.88	229.75
810.20	229.79
810.52	229.86
810.84	229.82
811.16	229.92
811.48	229.97
811.80	230.03
812.12	230.08
812.43	230.05
812.75	230.04
813.07	230.00
813.39	229.99
813.71	230.05
814.03	230.00
814.35	229.96
814.67	229.86
814.98	229.92
815.30	229.91
815.62	229.93
815.94	229.78
816.26	229.82
816.58	229.78
816.89	229.73
817.21	229.59
817.53	229.65
817.85	229.62
818.17	229.53
818.48	229.41
818.80	229.40
819.12	229.40
819.44	229.38
819.76	229.33
820.07	229.32
820.39	229.22
820.71	229.32
821.03	229.33
821.34	229.43
821.66	229.46
821.98	229.57
822.30	229.59
822.61	229.81
822.93	229.75
823.25	229.70
823.57	229.78
823.88	229.94
824.20	230.00
824.52	230.00
824.83	230.01
825.15	230.01
825.47	229.96
825.79	229.98
826.10	230.05
826.42	230.06
826.74	230.10
827.05	230.17
827.37	230.10
827.69	230.09
828.00	230.11
828.32	230.09
828.64	230.04
828.95	230.05
829.27	229.88
829.58	229.88
829.90	229.94
830.22	229.77
830.53	229.66
830.85	229.52
831.17	229.42
831.48	229.46
831.80	229.51
832.11	229.50
832.43	229.46
832.75	229.44
833.06	229.52
833.38	229.52
833.69	229.44
834.01	229.40
834.32	229.40
834.64	229.27
834.96	229.35
835.27	229.27
835.59	229.27
835.90	229.16
836.22	229.09
836.53	228.94
836.85	228.98
837.16	229.13
837.48	229.23
837.79	229.27
838.11	229.25
838.42	229.10
838.74	229.20
839.05	229.22
839.37	229.12
839.68	228.96
840.00	228.84
840.31	228.91
840.63	228.90
840.94	228.92
841.26	228.94
841.57	228.82
841.88	228.78
842.20	228.71
842.51	228.64
842.83	228.57
843.14	228.72
843.46	228.79
843.77	228.76
844.08	228.65
844.40	228.61
844.71	228.56
845.03	228.58
845.34	228.47
845.65	228.47
845.97	228.48
846.28	228.50
846.60	228.55
846.91	228.43
847.22	228.30
847.54	228.20
847.85	228.22
848.16	228.16
848.48	228.19
848.79	228.22
849.10	228.33
849.42	228.45
849.73	228.25
850.04	228.28
850.36	228.14
850.67	228.23
850.98	228.20
851.30	228.19
851.61	228.17
851.92	228.11
852.23	228.14
852.55	228.22
852.86	228.18
853.17	228.12
853.49	228.26
853.80	228.41
854.11	228.50
854.42	228.48
854.74	228.50
855.05	228.51
855.36	228.35
855.67	228.40
855.99	228.37
856.30	228.71
856.61	228.63
856.92	228.78
857.23	228.70
857.55	228.73
857.86	228.80
858.17	228.90
858.48	228.92
858.79	228.87
859.11	228.88
859.42	228.98
859.73	228.94
860.04	228.96
860.35	228.99
860.66	228.79
860.98	228.87
861.29	228.96
861.60	228.97
861.91	229.07
862.22	228.96
862.53	228.96
862.84	228.70
863.16	228.76
863.47	228.58
863.78	228.56
864.09	228.56
864.40	228.55
864.71	228.59
865.02	228.55
865.33	228.55
865.64	228.47
865.95	228.40
866.27	228.60
866.58	228.50
866.89	228.55
867.20	228.67
867.51	228.58
867.82	228.50
868.13	228.50
868.44	228.33
868.75	228.43
869.06	228.41
869.37	228.37
869.68	228.26
869.99	228.42
870.30	228.47
870.61	228.46
870.92	228.40
871.23	228.35
871.54	228.51
871.85	228.65
872.16	228.71
872.47	228.74
872.78	228.73
873.09	228.70
873.40	228.63
873.71	228.70
874.02	228.75
874.33	228.81
874.64	228.72
874.95	228.82
875.26	228.73
875.56	228.67
875.87	228.83
876.18	228.96
876.49	229.06
876.80	229.09
877.11	229.23
877.42	229.29
877.73	229.25
878.04	229.16
878.35	229.14
878.66	229.07
878.96	229.00
879.27	229.01
879.58	229.00
879.89	229.04
880.20	229.11
880.51	229.17
880.82	229.15
881.12	229.17
881.43	229.28
881.74	229.39
882.05	229.50
882.36	229.51
882.67	229.44
882.97	229.20
883.28	229.15
883.59	229.01
883.90	228.93
884.21	228.94
884.51	228.89
884.82	228.82
885.13	228.85
885.44	228.88
885.74	228.73
886.05	228.71
886.36	228.64
886.67	228.50
886.98	228.50
887.28	228.47
887.59	228.58
887.90	228.61
888.20	228.49
888.51	228.46
888.82	228.31
889.13	228.31
889.43	228.54
889.74	228.45
890.05	228.51
890.35	228.54
890.66	228.57
890.97	228.59
891.28	228.54
891.58	228.51
891.89	228.41
892.20	228.38
892.50	228.35
892.81	228.27
893.12	228.32
893.42	228.22
893.73	228.22
894.04	228.14
894.34	228.03
894.65	228.06
894.95	227.99
895.26	227.99
895.57	228.02
895.87	227.72
896.18	227.87
896.48	227.76
896.79	227.81
897.10	227.77
897.40	227.80
897.71	227.81
898.01	227.79
898.32	227.80
898.63	227.91
898.93	227.94
899.24	228.01
899.54	228.00
899.85	227.92
900.15	227.94
900.46	227.97
900.76	227.90
901.07	227.89
901.38	227.90
901.68	227.91
901.99	227.95
902.29	228.07
902.60	228.00
902.90	228.10
903.21	228.07
903.51	228.06
903.82	228.05
904.12	228.10
904.43	228.15
904.73	228.31
905.03	228.29
905.34	228.56
905.64	228.48
905.95	228.41
906.25	228.56
906.56	228.58
906.86	228.54
907.17	228.63
907.47	228.68
907.77	228.69
908.08	228.64
908.38	228.54
908.69	228.52
908.99	228.57
909.30	228.73
909.60	228.75
909.90	228.85
910.21	228.93
910.51	228.92
910.81	228.91
911.12	228.89
911.42	228.94
911.73	228.69
912.03	228.80
912.33	228.99
912.64	228.88
912.94	228.83
913.24	228.81
913.55	228.82
913.85	228.81
914.15	228.89
914.46	228.98
914.76	228.94
915.06	229.00
915.37	229.00
915.67	228.85
915.97	228.74
916.27	228.65
916.58	228.60
916.88	228.50
917.18	228.52
917.49	228.69
917.79	228.64
918.09	228.75
918.39	228.76
918.70	228.65
919.00	228.74
919.30	228.90
919.60	228.88
919.91	228.83
920.21	228.82
920.51	228.73
920.81	228.78
921.12	228.92
921.42	228.83
921.72	228.77
922.02	228.67
922.32	228.83
922.63	228.80
922.93	228.84
923.23	228.98
923.53	228.88
923.83	228.69
924.13	228.64
924.44	228.54
924.74	228.59
925.04	228.64
925.34	228.56
925.64	228.35
925.94	228.39
926.24	228.53
926.55	228.40
926.85	228.47
927.15	228.41
927.45	228.29
927.75	228.30
928.05	228.25
928.35	228.28
928.65	228.18
928.95	228.20
929.26	228.20
929.56	228.11
929.86	228.18
930.16	228.10
930.46	228.17
930.76	228.17
931.06	228.06
931.36	227.97
931.66	228.06
931.96	228.15
932.26	228.15
932.56	228.00
932.86	228.08
933.16	228.06
933.46	228.01
933.76	227.99
934.06	228.02
934.36	228.01
934.66	228.06
934.96	228.00
935.26	228.00
935.56	227.97
935.86	227.83
936.16	227.86
936.46	227.77
936.76	227.70
937.06	227.54
937.36	227.57
937.66	227.58
937.96	227.49
938.26	227.40
938.56	227.40
938.86	227.45
939.16	227.55
939.46	227.53
939.76	227.56
940.06	227.56
940.35	227.50
940.65	227.47
940.95	227.50
941.25	227.57
941.55	227.54
941.85	227.42
942.15	227.44
942.45	227.40
942.75	227.46
943.04	227.39
943.34	227.53
943.64	227.48
943.94	227.48
944.24	227.44
944.54	227.51
944.84	227.54
945.13	227.57
945.43	227.49
945.73	227.53
946.03	227.50
946.33	227.50
946.62	227.55
946.92	227.54
947.22	227.48
947.52	227.38
947.82	227.46
948.11	227.49
948.41	227.52
948.71	227.50
949.01	227.58
949.31	227.75
949.60	227.76
949.90	227.85
950.20	227.80
950.50	227.92
950.79	227.92
951.09	227.92
951.39	227.88
951.69	227.75
951.98	227.81
952.28	227.88
952.58	227.86
952.87	227.88
953.17	227.99
953.47	227.94
953.76	228.05
954.06	227.98
954.36	228.00
954.66	228.09
954.95	228.20
955.25	228.18
955.55	228.12
955.84	228.05
956.14	228.00
956.44	228.04
956.73	227.99
957.03	228.01
957.32	228.04
957.62	228.06
957.92	228.24
958.21	228.16
958.51	228.44
958.81	228.49
959.10	228.54
959.40	228.57
959.69	228.62
959.99	228.68
960.29	228.68
960.58	228.68
960.88	228.75
961.17	228.68
961.47	228.78
961.76	228.69
962.06	228.79
962.36	228.74
962.65	228.80
962.95	228.82
963.24	228.81
963.54	228.75
963.83	228.78
964.13	228.70
964.42	228.67
964.72	228.46
965.01	228.40
965.31	228.40
965.60	228.36
965.90	228.50
966.19	228.34
966.49	228.39
966.78	228.43
967.08	228.50
967.37	228.50
967.67	228.40
967.96	228.64
968.26	228.62
968.55	228.62
968.85	228.58
969.14	228.47
969.43	228.37
969.73	228.40
970.02	228.32
970.32	228.44
970.61	228.39
970.91	228.23
971.20	228.30
971.49	228.14
971.79	228.12
972.08	228.01
972.38	228.11
972.67	228.04
972.96	227.94
973.26	227.79
973.55	227.86
973.85	227.81
974.14	227.66
974.43	227.65
974.73	227.74
975.02	227.74
975.31	227.78
975.61	227.70
975.90	227.67
976.19	227.70
976.49	227.64
976.78	227.63
977.07	227.68
977.37	227.72
977.66	227.77
977.95	227.77
978.24	227.64
978.54	227.69
978.83	227.77
979.12	227.82
979.42	227.82
979.71	227.72
980.00	227.78
980.29	227.80
980.59	227.80
980.88	227.80
981.17	227.78
981.46	227.81
981.76	227.97
982.05	227.99
982.34	228.03
982.63	227.96
982.93	227.93
983.22	228.01
983.51	228.00
983.80	228.07
984.09	228.07
984.39	228.26
984.68	228.22
984.97	228.21
985.26	228.28
985.55	228.34
985.85	228.31
986.14	228.40
986.43	228.36
986.72	228.40
987.01	228.40
987.30	228.38
987.59	228.29
987.89	228.30
988.18	228.31
988.47	228.27
988.76	228.38
989.05	228.48
989.34	228.42
989.63	228.50
989.92	228.53
990.22	228.50
990.51	228.38
990.80	228.34
991.09	228.40
991.38	228.33
991.67	228.25
991.96	228.32
992.25	228.25
992.54	228.25
992.83	228.22
993.12	228.19
993.41	228.36
993.70	228.50
993.99	228.57
994.28	228.52
994.58	228.52
994.87	228.50
995.16	228.49
995.45	228.58
995.74	228.53
996.03	228.50
996.32	228.68
996.61	228.78
996.90	228.80
997.19	228.74
997.48	228.78
997.77	228.79
998.06	228.82
998.34	228.90
998.63	228.93
998.92	228.98
999.21	229.04
999.50	228.99
999.79	229.00
1000.08	228.95
1000.37	229.06
1000.66	229.08
1000.95	229.17
1001.24	229.19
1001.53	229.21
1001.82	229.18
1002.11	229.15
1002.40	229.08
1002.68	229.03
1002.97	229.20
1003.26	229.13
1003.55	229.04
1003.84	229.08
1004.13	229.13
1004.42	229.00
1004.71	228.96
1004.99	228.87
1005.28	228.84
1005.57	228.73
1005.86	228.65
1006.15	228.59
1006.44	228.50
1006.72	228.49
1007.01	228.31
1007.30	228.25
1007.59	228.13
1007.88	228.18
1008.17	228.21
1008.45	228.12
1008.74	228.05
1009.03	227.90
1009.32	227.90
1009.60	227.93
1009.89	227.92
1010.18	227.83
1010.47	227.86
1010.76	227.88
1011.04	227.87
1011.33	227.90
1011.62	228.02
1011.91	227.99
1012.19	228.03
1012.48	228.03
1012.77	228.05
1013.05	228.24
1013.34	228.28
1013.63	228.33
1013.92	228.27
1014.20	228.16
1014.49	228.20
1014.78	228.27
1015.06	228.20
1015.35	228.22
1015.64	228.20
1015.92	228.24
1016.21	228.15
1016.50	228.14
1016.78	228.06
1017.07	228.16
1017.36	228.10
1017.64	227.97
1017.93	227.96
1018.22	227.89
1018.50	227.79
1018.79	227.72
1019.08	227.53
1019.36	227.58
1019.65	227.48
1019.93	227.52
1020.22	227.60
1020.51	227.65
1020.79	227.63
1021.08	227.00
1021.36	225.80
1021.65	227.40
1021.94	226.80
1022.22	228.70
1022.51	227.50
1022.79	229.20
1023.08	228.30
1023.36	229.60
1023.65	227.90
>>>>>End Processed Spectral Data<<<<<
