SpectraSuite Data File
++++++++++++++++++++++++++++++++++++
Date: Fri Feb 01 14:34:24 EST 2013
User: group
Dark Spectrum Present: No
Reference Spectrum Present: No
Number of Sampled Component Spectra: 1
Spectrometers: USB2E7196
Integration Time (usec): 70000 (USB2E7196)
Spectra Averaged: 10 (USB2E7196)
Boxcar Smoothing: 10 (USB2E7196)
Correct for Electrical Dark: No (USB2E7196)
Strobe/Lamp Enabled: No (USB2E7196)
Correct for Detector Non-linearity: No (USB2E7196)
Correct for Stray Light: No (USB2E7196)
Number of Pixels in Processed Spectrum: 2048
>>>>>Begin Processed Spectral Data<<<<<
339.09	0.00
339.48	217.60
339.86	216.80
340.24	219.30
340.63	219.90
341.01	224.30
341.39	224.20
341.78	224.10
342.16	226.40
342.54	224.60
342.93	214.39
343.31	225.26
343.69	225.76
344.07	226.27
344.46	226.77
344.84	227.11
345.22	227.30
345.60	227.49
345.99	227.66
346.37	227.81
346.75	228.04
347.13	228.17
347.52	228.19
347.90	228.22
348.28	228.22
348.66	228.24
349.05	228.22
349.43	228.25
349.81	228.36
350.19	228.25
350.57	228.36
350.96	228.44
351.34	228.58
351.72	228.60
352.10	228.67
352.48	228.54
352.87	228.65
353.25	228.66
353.63	228.62
354.01	228.68
354.39	228.67
354.77	228.66
355.15	228.83
355.54	228.88
355.92	228.97
356.30	229.14
356.68	229.37
357.06	229.35
357.44	229.43
357.82	229.50
358.20	229.70
358.58	229.74
358.97	229.84
359.35	229.81
359.73	229.89
360.11	229.96
360.49	230.09
360.87	230.18
361.25	230.37
361.63	230.56
362.01	230.71
362.39	230.71
362.77	230.80
363.15	230.75
363.53	230.76
363.91	230.75
364.29	230.74
364.67	230.60
365.05	230.64
365.43	230.69
365.81	230.60
366.19	230.61
366.57	230.65
366.95	230.55
367.33	230.48
367.71	230.53
368.09	230.52
368.47	230.49
368.85	230.34
369.23	230.33
369.61	230.20
369.99	230.11
370.37	230.10
370.75	230.09
371.13	230.10
371.51	230.03
371.89	230.00
372.27	229.91
372.65	229.88
373.03	229.78
373.41	229.70
373.78	229.65
374.16	229.63
374.54	229.50
374.92	229.40
375.30	229.44
375.68	229.35
376.06	229.31
376.44	229.26
376.82	229.31
377.19	229.15
377.57	229.05
377.95	228.92
378.33	228.93
378.71	228.83
379.09	228.62
379.47	228.68
379.84	228.62
380.22	228.56
380.60	228.47
380.98	228.44
381.36	228.36
381.73	228.32
382.11	228.10
382.49	228.16
382.87	228.07
383.25	228.04
383.62	228.11
384.00	228.08
384.38	228.08
384.76	228.06
385.13	228.06
385.51	228.09
385.89	228.00
386.27	227.92
386.64	227.82
387.02	227.84
387.40	227.68
387.78	227.70
388.15	227.71
388.53	227.62
388.91	227.50
389.29	227.49
389.66	227.49
390.04	227.55
390.42	227.47
390.79	227.54
391.17	227.44
391.55	227.28
391.92	227.23
392.30	227.17
392.68	227.20
393.05	227.25
393.43	227.18
393.81	227.28
394.18	227.29
394.56	227.35
394.94	227.49
395.31	227.50
395.69	227.59
396.06	227.70
396.44	227.75
396.82	227.92
397.19	227.99
397.57	228.03
397.95	228.11
398.32	228.13
398.70	228.23
399.07	228.33
399.45	228.38
399.82	228.43
400.20	228.58
400.58	228.65
400.95	228.67
401.33	229.00
401.70	229.29
402.08	229.50
402.45	229.69
402.83	229.89
403.20	230.27
403.58	230.40
403.95	230.61
404.33	230.90
404.71	231.19
405.08	231.67
405.46	231.97
405.83	232.26
406.21	232.64
406.58	233.06
406.96	233.54
407.33	233.97
407.70	234.49
408.08	235.12
408.45	235.67
408.83	236.27
409.20	236.80
409.58	237.29
409.95	238.02
410.33	238.73
410.70	239.40
411.08	240.10
411.45	240.98
411.82	241.87
412.20	242.85
412.57	243.97
412.95	244.84
413.32	245.98
413.69	247.32
414.07	248.71
414.44	250.14
414.82	251.54
415.19	253.29
415.56	255.03
415.94	256.82
416.31	258.91
416.68	260.90
417.06	263.08
417.43	265.32
417.81	267.80
418.18	270.39
418.55	273.18
418.93	276.06
419.30	278.96
419.67	282.03
420.04	285.35
420.42	288.65
420.79	292.60
421.16	296.59
421.54	300.53
421.91	304.61
422.28	308.90
422.66	313.58
423.03	317.96
423.40	322.65
423.77	327.59
424.15	332.49
424.52	337.80
424.89	343.44
425.26	348.93
425.64	354.14
426.01	359.77
426.38	365.58
426.75	371.50
427.13	377.84
427.50	384.47
427.87	391.32
428.24	398.19
428.61	404.61
428.99	411.65
429.36	419.31
429.73	427.04
430.10	434.54
430.47	442.33
430.85	450.35
431.22	458.67
431.59	467.40
431.96	475.77
432.33	485.03
432.70	494.20
433.08	504.93
433.45	515.21
433.82	525.28
434.19	536.46
434.56	547.44
434.93	557.81
435.30	568.09
435.68	579.34
436.05	590.57
436.42	601.84
436.79	612.13
437.16	623.22
437.53	634.84
437.90	646.53
438.27	657.80
438.64	669.63
439.01	680.61
439.38	690.52
439.75	699.98
440.13	711.11
440.50	721.46
440.87	730.01
441.24	738.59
441.61	748.39
441.98	755.85
442.35	764.59
442.72	773.28
443.09	781.97
443.46	787.48
443.83	791.33
444.20	794.87
444.57	799.77
444.94	802.55
445.31	805.48
445.68	808.23
446.05	810.32
446.42	810.56
446.79	810.60
447.16	810.67
447.53	811.28
447.90	808.14
448.27	805.22
448.64	800.31
449.01	797.48
449.37	791.01
449.74	784.77
450.11	776.88
450.48	768.52
450.85	759.71
451.22	752.58
451.59	745.90
451.96	739.20
452.33	729.87
452.70	721.77
453.07	711.41
453.43	701.12
453.80	690.83
454.17	680.99
454.54	671.70
454.91	661.24
455.28	651.22
455.65	642.06
456.02	632.37
456.38	624.42
456.75	614.22
457.12	605.94
457.49	597.62
457.86	589.61
458.23	582.46
458.59	574.67
458.96	566.67
459.33	559.57
459.70	552.74
460.07	547.20
460.43	540.45
460.80	534.19
461.17	528.58
461.54	522.97
461.91	517.30
462.27	511.73
462.64	507.00
463.01	501.83
463.38	496.62
463.74	491.85
464.11	487.35
464.48	483.47
464.85	479.11
465.21	475.78
465.58	472.12
465.95	468.09
466.32	464.55
466.68	461.03
467.05	457.49
467.42	453.89
467.78	450.21
468.15	446.75
468.52	444.31
468.88	441.01
469.25	437.94
469.62	435.60
469.98	432.90
470.35	430.47
470.72	428.10
471.08	425.62
471.45	423.44
471.82	421.38
472.18	418.80
472.55	417.12
472.92	415.09
473.28	413.48
473.65	411.60
474.02	409.91
474.38	408.53
474.75	407.25
475.11	405.95
475.48	404.76
475.85	403.86
476.21	402.95
476.58	402.23
476.94	401.54
477.31	400.76
477.67	400.04
478.04	399.55
478.41	399.11
478.77	398.98
479.14	398.42
479.50	398.10
479.87	398.10
480.23	398.02
480.60	397.86
480.96	397.59
481.33	397.81
481.69	398.09
482.06	398.14
482.42	398.38
482.79	398.61
483.15	399.16
483.52	399.81
483.88	400.23
484.25	400.72
484.61	401.40
484.98	402.04
485.34	403.20
485.71	404.16
486.07	405.22
486.44	406.21
486.80	407.74
487.17	409.13
487.53	410.81
487.90	412.40
488.26	414.16
488.62	416.17
488.99	417.99
489.35	419.92
489.72	422.13
490.08	424.21
490.44	426.38
490.81	428.67
491.17	430.98
491.54	433.53
491.90	436.02
492.26	438.77
492.63	441.90
492.99	444.74
493.36	447.77
493.72	451.01
494.08	454.15
494.45	457.33
494.81	460.87
495.17	464.33
495.54	468.01
495.90	471.70
496.26	475.32
496.63	479.19
496.99	483.12
497.35	487.15
497.72	491.52
498.08	495.76
498.44	500.22
498.80	504.66
499.17	509.08
499.53	513.45
499.89	517.88
500.26	522.18
500.62	526.44
500.98	531.14
501.34	535.71
501.71	540.42
502.07	545.08
502.43	549.48
502.79	554.19
503.16	558.85
503.52	563.49
503.88	568.25
504.24	572.75
504.60	577.57
504.97	582.39
505.33	586.77
505.69	591.97
506.05	596.65
506.41	601.07
506.78	605.63
507.14	610.52
507.50	615.27
507.86	619.98
508.22	624.99
508.59	629.45
508.95	634.00
509.31	638.64
509.67	643.33
510.03	647.80
510.39	652.24
510.75	656.61
511.12	660.97
511.48	665.26
511.84	669.44
512.20	673.48
512.56	677.50
512.92	681.71
513.28	685.52
513.64	689.22
514.00	693.05
514.37	696.85
514.73	700.40
515.09	703.77
515.45	707.31
515.81	710.48
516.17	714.08
516.53	717.40
516.89	720.57
517.25	723.52
517.61	726.88
517.97	729.85
518.33	732.71
518.69	735.39
519.05	738.24
519.41	741.38
519.77	744.33
520.13	746.96
520.49	749.66
520.85	751.93
521.21	754.24
521.57	756.93
521.93	759.24
522.29	761.80
522.65	764.15
523.01	766.50
523.37	768.76
523.73	770.84
524.09	772.96
524.45	775.20
524.81	777.20
525.17	779.49
525.53	781.62
525.89	783.98
526.25	786.53
526.61	788.50
526.97	790.74
527.33	792.62
527.68	794.83
528.04	796.75
528.40	799.07
528.76	801.76
529.12	804.16
529.48	806.60
529.84	808.43
530.20	810.98
530.56	813.23
530.91	815.87
531.27	818.28
531.63	820.63
531.99	822.95
532.35	825.09
532.71	826.96
533.07	829.50
533.42	831.74
533.78	833.77
534.14	836.20
534.50	837.90
534.86	840.26
535.21	842.38
535.57	844.82
535.93	847.26
536.29	849.60
536.65	851.78
537.00	853.95
537.36	856.70
537.72	859.10
538.08	861.39
538.44	863.23
538.79	865.41
539.15	867.50
539.51	869.84
539.87	872.82
540.22	875.34
540.58	878.00
540.94	880.47
541.29	882.79
541.65	885.39
542.01	888.60
542.37	891.24
542.72	893.75
543.08	896.49
543.44	898.94
543.79	901.07
544.15	903.77
544.51	906.70
544.87	909.36
545.22	911.89
545.58	914.23
545.94	916.77
546.29	919.36
546.65	922.06
547.01	924.38
547.36	926.49
547.72	929.07
548.07	930.99
548.43	933.34
548.79	935.87
549.14	938.20
549.50	940.12
549.86	942.42
550.21	944.76
550.57	947.07
550.92	949.28
551.28	951.62
551.64	953.74
551.99	956.07
552.35	958.31
552.70	960.47
553.06	962.97
553.41	965.40
553.77	967.63
554.13	969.84
554.48	972.24
554.84	974.73
555.19	976.89
555.55	979.37
555.90	981.36
556.26	983.82
556.61	985.94
556.97	988.27
557.32	990.18
557.68	992.58
558.03	994.71
558.39	996.94
558.74	999.40
559.10	1001.58
559.45	1003.47
559.81	1005.90
560.16	1007.84
560.52	1010.06
560.87	1012.58
561.23	1014.67
561.58	1016.82
561.94	1018.97
562.29	1020.92
562.64	1022.94
563.00	1024.95
563.35	1027.30
563.71	1029.39
564.06	1031.62
564.42	1033.71
564.77	1035.92
565.12	1037.88
565.48	1039.69
565.83	1041.39
566.19	1043.10
566.54	1044.77
566.89	1046.44
567.25	1047.87
567.60	1049.66
567.96	1051.34
568.31	1052.56
568.66	1054.05
569.02	1055.09
569.37	1055.93
569.72	1057.22
570.08	1058.63
570.43	1059.67
570.78	1060.70
571.14	1061.32
571.49	1061.66
571.84	1062.68
572.20	1063.37
572.55	1063.93
572.90	1064.68
573.26	1065.27
573.61	1065.77
573.96	1066.05
574.31	1065.74
574.67	1065.59
575.02	1065.54
575.37	1065.21
575.72	1064.61
576.08	1064.51
576.43	1064.45
576.78	1064.49
577.13	1064.40
577.49	1063.67
577.84	1063.11
578.19	1062.79
578.54	1062.77
578.90	1062.59
579.25	1061.31
579.60	1060.51
579.95	1059.27
580.30	1057.64
580.66	1056.60
581.01	1055.48
581.36	1054.53
581.71	1054.14
582.06	1052.99
582.42	1051.60
582.77	1050.28
583.12	1049.53
583.47	1048.11
583.82	1047.10
584.17	1045.64
584.53	1044.06
584.88	1042.85
585.23	1041.29
585.58	1039.35
585.93	1037.53
586.28	1035.92
586.63	1034.86
586.98	1033.37
587.34	1032.08
587.69	1031.07
588.04	1029.66
588.39	1027.98
588.74	1026.13
589.09	1024.02
589.44	1022.21
589.79	1020.53
590.14	1019.08
590.49	1016.92
590.84	1014.98
591.19	1013.15
591.54	1011.03
591.89	1008.22
592.25	1006.20
592.60	1003.90
592.95	1001.62
593.30	999.11
593.65	996.68
594.00	993.92
594.35	991.79
594.70	988.91
595.05	986.53
595.40	983.58
595.75	980.79
596.10	978.30
596.45	976.00
596.80	973.85
597.15	971.33
597.50	968.47
597.85	966.20
598.19	963.79
598.54	961.17
598.89	958.71
599.24	957.19
599.59	954.17
599.94	951.73
600.29	949.04
600.64	946.52
600.99	943.61
601.34	941.05
601.69	938.00
602.04	935.37
602.39	932.46
602.74	930.32
603.08	927.85
603.43	925.19
603.78	922.56
604.13	919.67
604.48	917.30
604.83	914.87
605.18	911.90
605.53	908.85
605.87	905.72
606.22	903.12
606.57	899.66
606.92	896.95
607.27	894.35
607.62	891.73
607.96	888.97
608.31	886.64
608.66	883.70
609.01	880.67
609.36	877.72
609.70	874.36
610.05	870.77
610.40	867.56
610.75	864.32
611.10	860.76
611.44	857.01
611.79	853.48
612.14	850.02
612.49	846.30
612.83	843.02
613.18	839.69
613.53	836.08
613.88	832.59
614.22	829.22
614.57	825.57
614.92	822.12
615.27	818.61
615.61	814.91
615.96	811.47
616.31	808.20
616.65	805.55
617.00	802.59
617.35	799.49
617.70	796.00
618.04	792.63
618.39	789.41
618.74	786.31
619.08	782.99
619.43	779.72
619.78	776.85
620.12	773.52
620.47	770.22
620.82	766.76
621.16	763.63
621.51	760.43
621.85	757.05
622.20	753.59
622.55	750.27
622.89	746.93
623.24	743.99
623.59	740.80
623.93	737.29
624.28	734.25
624.62	731.26
624.97	728.53
625.32	725.50
625.66	722.52
626.01	719.52
626.35	716.39
626.70	713.18
627.04	710.15
627.39	706.79
627.73	704.06
628.08	701.14
628.43	698.17
628.77	695.20
629.12	692.13
629.46	689.21
629.81	685.85
630.15	682.57
630.50	679.10
630.84	675.76
631.19	672.54
631.53	669.14
631.88	665.40
632.22	661.94
632.57	658.78
632.91	655.69
633.26	652.34
633.60	649.16
633.95	646.11
634.29	642.90
634.64	640.29
634.98	636.84
635.32	634.03
635.67	631.14
636.01	628.17
636.36	625.24
636.70	622.44
637.05	619.89
637.39	617.37
637.73	614.64
638.08	612.35
638.42	609.71
638.77	607.15
639.11	604.54
639.45	601.89
639.80	599.05
640.14	596.25
640.49	593.80
640.83	591.14
641.17	588.37
641.52	585.70
641.86	582.90
642.20	580.27
642.55	577.21
642.89	574.50
643.23	571.79
643.58	569.49
643.92	566.72
644.26	564.08
644.61	561.72
644.95	559.17
645.29	556.09
645.64	553.31
645.98	550.65
646.32	548.37
646.66	545.71
647.01	543.12
647.35	540.63
647.69	538.10
648.04	535.67
648.38	533.14
648.72	530.57
649.06	527.84
649.41	525.54
649.75	523.19
650.09	520.66
650.43	517.89
650.78	515.15
651.12	512.73
651.46	510.25
651.80	507.53
652.14	505.20
652.49	502.84
652.83	500.61
653.17	498.14
653.51	495.53
653.85	493.09
654.20	490.88
654.54	488.40
654.88	485.95
655.22	483.36
655.56	481.02
655.90	478.94
656.25	476.96
656.59	474.57
656.93	472.26
657.27	470.04
657.61	468.07
657.95	466.07
658.29	463.97
658.64	461.87
658.98	459.67
659.32	457.32
659.66	455.25
660.00	452.99
660.34	450.81
660.68	448.78
661.02	446.80
661.36	444.80
661.70	442.88
662.05	441.03
662.39	439.43
662.73	437.53
663.07	435.59
663.41	433.74
663.75	432.00
664.09	430.27
664.43	428.39
664.77	426.59
665.11	424.59
665.45	422.85
665.79	421.04
666.13	419.19
666.47	417.60
666.81	415.73
667.15	414.05
667.49	412.34
667.83	410.89
668.17	409.20
668.51	407.42
668.85	405.71
669.19	404.10
669.53	402.28
669.87	400.65
670.21	399.06
670.55	397.30
670.89	395.78
671.23	394.35
671.57	392.97
671.91	391.48
672.25	389.95
672.58	388.45
672.92	386.91
673.26	385.64
673.60	384.22
673.94	382.88
674.28	381.50
674.62	380.37
674.96	378.87
675.30	377.57
675.64	376.42
675.97	375.21
676.31	373.83
676.65	372.46
676.99	371.35
677.33	369.93
677.67	368.75
678.01	367.28
678.34	365.94
678.68	364.60
679.02	363.33
679.36	362.28
679.70	360.90
680.04	359.78
680.37	358.55
680.71	357.29
681.05	356.15
681.39	354.94
681.73	353.77
682.06	352.65
682.40	351.48
682.74	350.20
683.08	349.06
683.42	347.87
683.75	346.82
684.09	345.50
684.43	344.31
684.77	343.14
685.10	342.06
685.44	340.94
685.78	339.77
686.12	338.64
686.45	337.47
686.79	336.30
687.13	335.15
687.46	334.04
687.80	332.88
688.14	331.78
688.48	330.78
688.81	329.59
689.15	328.38
689.49	327.31
689.82	326.27
690.16	325.10
690.50	324.09
690.83	323.02
691.17	321.97
691.51	321.08
691.84	320.10
692.18	319.08
692.52	318.09
692.85	317.11
693.19	316.18
693.52	315.20
693.86	314.32
694.20	313.35
694.53	312.34
694.87	311.48
695.21	310.52
695.54	309.48
695.88	308.42
696.21	307.63
696.55	306.74
696.88	305.89
697.22	305.13
697.56	304.42
697.89	303.60
698.23	302.86
698.56	302.15
698.90	301.36
699.23	300.44
699.57	299.58
699.90	298.82
700.24	298.01
700.58	297.26
700.91	296.59
701.25	295.98
701.58	295.38
701.92	294.73
702.25	294.21
702.59	293.60
702.92	293.04
703.26	292.35
703.59	291.74
703.93	291.19
704.26	290.48
704.60	289.77
704.93	289.19
705.26	288.53
705.60	287.95
705.93	287.47
706.27	287.13
706.60	286.71
706.94	286.22
707.27	285.65
707.61	285.03
707.94	284.53
708.27	283.96
708.61	283.37
708.94	282.81
709.28	282.17
709.61	281.60
709.94	281.12
710.28	280.69
710.61	280.20
710.95	279.68
711.28	279.30
711.61	278.70
711.95	278.22
712.28	277.80
712.61	277.15
712.95	276.63
713.28	276.15
713.61	275.55
713.95	275.10
714.28	274.71
714.61	274.32
714.95	273.77
715.28	273.14
715.61	272.60
715.95	272.10
716.28	271.68
716.61	271.32
716.95	270.76
717.28	270.28
717.61	269.80
717.94	269.18
718.28	268.58
718.61	268.20
718.94	267.75
719.27	267.26
719.61	266.84
719.94	266.46
720.27	265.93
720.60	265.64
720.94	265.10
721.27	264.67
721.60	264.39
721.93	264.08
722.27	263.83
722.60	263.40
722.93	263.04
723.26	262.68
723.59	262.24
723.93	261.96
724.26	261.60
724.59	261.23
724.92	260.99
725.25	260.69
725.59	260.31
725.92	260.02
726.25	259.69
726.58	259.36
726.91	258.94
727.24	258.59
727.57	258.15
727.91	257.81
728.24	257.50
728.57	257.02
728.90	256.60
729.23	256.30
729.56	256.23
729.89	256.07
730.22	255.75
730.55	255.51
730.89	255.24
731.22	254.94
731.55	254.69
731.88	254.36
732.21	254.08
732.54	253.83
732.87	253.56
733.20	253.36
733.53	253.15
733.86	252.92
734.19	252.71
734.52	252.42
734.85	252.45
735.18	252.07
735.51	251.86
735.84	251.61
736.17	251.22
736.50	250.95
736.83	250.78
737.16	250.47
737.49	250.17
737.82	249.98
738.15	249.77
738.48	249.50
738.81	249.28
739.14	248.97
739.47	248.73
739.80	248.45
740.13	248.13
740.46	247.92
740.79	247.70
741.12	247.51
741.45	247.40
741.78	247.01
742.11	246.94
742.44	246.79
742.77	246.64
743.10	246.57
743.43	246.40
743.75	246.08
744.08	246.30
744.41	246.23
744.74	245.99
745.07	245.80
745.40	245.71
745.73	245.64
746.06	245.53
746.39	245.38
746.71	245.21
747.04	245.09
747.37	244.95
747.70	244.86
748.03	244.67
748.36	244.50
748.68	244.40
749.01	244.32
749.34	244.18
749.67	244.16
750.00	244.07
750.33	243.98
750.65	243.88
750.98	243.39
751.31	243.27
751.64	243.17
751.97	243.11
752.29	242.95
752.62	242.72
752.95	242.64
753.28	242.51
753.60	242.48
753.93	242.41
754.26	242.17
754.59	241.90
754.91	241.74
755.24	241.65
755.57	241.48
755.90	241.28
756.22	241.08
756.55	240.80
756.88	240.55
757.20	240.22
757.53	239.99
757.86	239.91
758.19	239.81
758.51	239.74
758.84	239.50
759.17	239.37
759.49	239.31
759.82	239.27
760.15	239.25
760.47	239.08
760.80	238.90
761.13	238.88
761.45	238.84
761.78	238.72
762.11	238.58
762.43	238.51
762.76	238.29
763.08	238.29
763.41	238.17
763.74	238.21
764.06	238.16
764.39	238.06
764.71	237.83
765.04	237.61
765.37	237.50
765.69	237.40
766.02	237.41
766.34	237.26
766.67	237.07
767.00	236.94
767.32	236.95
767.65	237.04
767.97	236.95
768.30	236.86
768.62	236.74
768.95	236.64
769.27	236.55
769.60	236.62
769.92	236.42
770.25	236.39
770.57	236.17
770.90	236.00
771.22	235.95
771.55	236.00
771.87	235.98
772.20	235.80
772.52	235.95
772.85	235.92
773.17	235.81
773.50	235.72
773.82	235.57
774.15	235.41
774.47	235.14
774.80	234.95
775.12	234.86
775.45	234.81
775.77	234.71
776.09	234.63
776.42	234.47
776.74	234.52
777.07	234.39
777.39	234.41
777.72	234.30
778.04	234.14
778.36	233.97
778.69	233.84
779.01	233.78
779.33	233.53
779.66	233.25
779.98	233.15
780.31	233.13
780.63	233.17
780.95	233.00
781.28	232.90
781.60	232.82
781.92	232.64
782.25	232.59
782.57	232.48
782.89	232.38
783.22	232.38
783.54	232.23
783.86	232.22
784.19	231.97
784.51	232.10
784.83	232.09
785.16	232.07
785.48	232.03
785.80	232.05
786.12	232.00
786.45	231.97
786.77	232.03
787.09	231.94
787.42	231.76
787.74	231.80
788.06	231.78
788.38	231.80
788.71	231.86
789.03	231.87
789.35	231.79
789.67	231.80
789.99	231.79
790.32	231.78
790.64	231.80
790.96	232.01
791.28	231.86
791.61	231.82
791.93	231.84
792.25	231.91
792.57	232.03
792.89	231.89
793.21	231.93
793.54	231.79
793.86	231.79
794.18	231.82
794.50	231.81
794.82	231.80
795.14	231.79
795.47	231.86
795.79	231.84
796.11	231.93
796.43	231.79
796.75	231.70
797.07	231.65
797.39	231.55
797.71	231.49
798.04	231.55
798.36	231.48
798.68	231.45
799.00	231.48
799.32	231.45
799.64	231.51
799.96	231.49
800.28	231.59
800.60	231.56
800.92	231.59
801.24	231.50
801.56	231.57
801.89	231.52
802.21	231.45
802.53	231.39
802.85	231.39
803.17	231.51
803.49	231.46
803.81	231.40
804.13	231.47
804.45	231.40
804.77	231.30
805.09	231.38
805.41	231.30
805.73	231.20
806.05	231.00
806.37	231.00
806.69	230.89
807.01	230.87
807.33	230.91
807.65	230.79
807.97	230.91
808.28	230.89
808.60	230.90
808.92	230.85
809.24	230.86
809.56	230.76
809.88	230.71
810.20	230.76
810.52	230.76
810.84	230.66
811.16	230.53
811.48	230.55
811.80	230.61
812.12	230.58
812.43	230.61
812.75	230.61
813.07	230.55
813.39	230.60
813.71	230.52
814.03	230.41
814.35	230.48
814.67	230.26
814.98	230.17
815.30	230.20
815.62	230.08
815.94	230.03
816.26	230.13
816.58	229.99
816.89	229.89
817.21	229.91
817.53	229.83
817.85	229.80
818.17	229.79
818.48	229.63
818.80	229.65
819.12	229.50
819.44	229.45
819.76	229.37
820.07	229.40
820.39	229.34
820.71	229.30
821.03	229.19
821.34	229.22
821.66	229.13
821.98	229.10
822.30	229.18
822.61	229.31
822.93	229.13
823.25	229.20
823.57	229.30
823.88	229.25
824.20	229.29
824.52	229.33
824.83	229.29
825.15	229.35
825.47	229.31
825.79	229.26
826.10	229.27
826.42	229.30
826.74	229.23
827.05	229.19
827.37	229.16
827.69	229.14
828.00	229.14
828.32	229.22
828.64	229.17
828.95	229.27
829.27	229.14
829.58	229.21
829.90	229.29
830.22	229.28
830.53	229.37
830.85	229.36
831.17	229.37
831.48	229.38
831.80	229.33
832.11	229.37
832.43	229.44
832.75	229.46
833.06	229.58
833.38	229.60
833.69	229.71
834.01	229.79
834.32	229.89
834.64	229.93
834.96	229.97
835.27	230.02
835.59	229.92
835.90	229.92
836.22	229.89
836.53	229.84
836.85	229.80
837.16	229.99
837.48	230.03
837.79	230.07
838.11	230.12
838.42	230.22
838.74	230.32
839.05	230.39
839.37	230.41
839.68	230.29
840.00	230.26
840.31	230.28
840.63	230.38
840.94	230.37
841.26	230.36
841.57	230.36
841.88	230.30
842.20	230.28
842.51	230.20
842.83	230.23
843.14	230.36
843.46	230.33
843.77	230.18
844.08	230.18
844.40	230.17
844.71	230.24
845.03	230.14
845.34	230.07
845.65	230.03
845.97	230.00
846.28	229.97
846.60	230.00
846.91	229.80
847.22	229.72
847.54	229.72
847.85	229.69
848.16	229.52
848.48	229.47
848.79	229.57
849.10	229.63
849.42	229.52
849.73	229.35
850.04	229.35
850.36	229.16
850.67	229.12
850.98	229.09
851.30	228.92
851.61	228.86
851.92	228.87
852.23	228.83
852.55	228.88
852.86	228.96
853.17	228.98
853.49	229.15
853.80	229.14
854.11	229.07
854.42	229.11
854.74	229.18
855.05	229.24
855.36	229.09
855.67	228.96
855.99	228.97
856.30	229.10
856.61	229.08
856.92	229.08
857.23	229.07
857.55	229.01
857.86	229.00
858.17	229.04
858.48	228.89
858.79	228.82
859.11	228.75
859.42	228.69
859.73	228.51
860.04	228.50
860.35	228.46
860.66	228.49
860.98	228.48
861.29	228.50
861.60	228.47
861.91	228.64
862.22	228.71
862.53	228.79
862.84	228.60
863.16	228.64
863.47	228.68
863.78	228.70
864.09	228.62
864.40	228.60
864.71	228.55
865.02	228.54
865.33	228.59
865.64	228.60
865.95	228.57
866.27	228.76
866.58	228.64
866.89	228.66
867.20	228.62
867.51	228.50
867.82	228.55
868.13	228.51
868.44	228.47
868.75	228.43
869.06	228.46
869.37	228.52
869.68	228.44
869.99	228.30
870.30	228.25
870.61	228.32
870.92	228.26
871.23	228.23
871.54	228.30
871.85	228.20
872.16	228.17
872.47	228.20
872.78	228.11
873.09	228.17
873.40	228.07
873.71	228.08
874.02	228.13
874.33	228.06
874.64	228.10
874.95	227.97
875.26	227.92
875.56	227.86
875.87	227.81
876.18	227.82
876.49	228.13
876.80	228.20
877.11	228.34
877.42	228.45
877.73	228.51
878.04	228.40
878.35	228.49
878.66	228.47
878.96	228.48
879.27	228.41
879.58	228.46
879.89	228.46
880.20	228.48
880.51	228.47
880.82	228.39
881.12	228.38
881.43	228.29
881.74	228.37
882.05	228.41
882.36	228.44
882.67	228.50
882.97	228.38
883.28	228.30
883.59	228.21
883.90	228.30
884.21	228.33
884.51	228.40
884.82	228.33
885.13	228.29
885.44	228.18
885.74	228.29
886.05	228.24
886.36	228.31
886.67	228.30
886.98	228.40
887.28	228.38
887.59	228.42
887.90	228.50
888.20	228.57
888.51	228.55
888.82	228.50
889.13	228.45
889.43	228.55
889.74	228.52
890.05	228.47
890.35	228.37
890.66	228.37
890.97	228.43
891.28	228.43
891.58	228.54
891.89	228.59
892.20	228.44
892.50	228.44
892.81	228.34
893.12	228.38
893.42	228.33
893.73	228.37
894.04	228.29
894.34	228.30
894.65	228.26
894.95	228.15
895.26	228.18
895.57	228.18
895.87	227.93
896.18	227.96
896.48	227.96
896.79	227.97
897.10	227.98
897.40	227.90
897.71	227.98
898.01	228.01
898.32	228.06
898.63	228.12
898.93	228.07
899.24	228.13
899.54	228.06
899.85	227.93
900.15	227.96
900.46	227.91
900.76	227.91
901.07	227.82
901.38	227.99
901.68	227.98
901.99	227.95
902.29	228.10
902.60	228.04
902.90	227.97
903.21	227.97
903.51	227.94
903.82	228.11
904.12	228.09
904.43	228.02
904.73	227.98
905.03	227.89
905.34	228.18
905.64	228.23
905.95	228.31
906.25	228.38
906.56	228.50
906.86	228.56
907.17	228.62
907.47	228.69
907.77	228.64
908.08	228.59
908.38	228.65
908.69	228.62
908.99	228.78
909.30	228.79
909.60	228.78
909.90	228.83
910.21	228.72
910.51	228.69
910.81	228.73
911.12	228.76
911.42	228.87
911.73	228.62
912.03	228.68
912.33	228.72
912.64	228.78
912.94	228.71
913.24	228.70
913.55	228.77
913.85	228.76
914.15	228.75
914.46	228.83
914.76	228.88
915.06	228.86
915.37	228.83
915.67	228.99
915.97	229.00
916.27	228.86
916.58	228.83
916.88	228.84
917.18	228.85
917.49	229.08
917.79	229.11
918.09	229.11
918.39	229.18
918.70	229.13
919.00	229.19
919.30	229.30
919.60	229.30
919.91	229.29
920.21	229.32
920.51	229.32
920.81	229.29
921.12	229.29
921.42	229.27
921.72	229.33
922.02	229.19
922.32	229.19
922.63	229.34
922.93	229.48
923.23	229.53
923.53	229.54
923.83	229.28
924.13	229.34
924.44	229.29
924.74	229.24
925.04	229.27
925.34	229.26
925.64	229.15
925.94	229.19
926.24	229.18
926.55	229.15
926.85	229.11
927.15	229.18
927.45	229.17
927.75	229.25
928.05	229.21
928.35	229.30
928.65	229.51
928.95	229.41
929.26	229.33
929.56	229.28
929.86	229.32
930.16	229.29
930.46	229.08
930.76	229.11
931.06	229.08
931.36	229.01
931.66	228.98
931.96	228.96
932.26	228.95
932.56	228.94
932.86	228.92
933.16	228.91
933.46	228.92
933.76	228.88
934.06	228.80
934.36	228.86
934.66	228.73
934.96	228.64
935.26	228.69
935.56	228.76
935.86	228.74
936.16	228.55
936.46	228.55
936.76	228.64
937.06	228.68
937.36	228.61
937.66	228.51
937.96	228.45
938.26	228.37
938.56	228.30
938.86	228.24
939.16	228.30
939.46	228.40
939.76	228.27
940.06	228.31
940.35	228.30
940.65	228.16
940.95	228.29
941.25	228.10
941.55	228.07
941.85	228.01
942.15	228.06
942.45	228.20
942.75	228.20
943.04	228.22
943.34	228.25
943.64	228.21
943.94	228.26
944.24	228.26
944.54	228.39
944.84	228.43
945.13	228.44
945.43	228.42
945.73	228.32
946.03	228.28
946.33	228.17
946.62	228.09
946.92	228.01
947.22	228.02
947.52	228.04
947.82	228.05
948.11	228.01
948.41	228.00
948.71	227.96
949.01	228.05
949.31	228.11
949.60	228.05
949.90	228.07
950.20	228.05
950.50	228.13
950.79	228.04
951.09	228.08
951.39	228.04
951.69	228.06
951.98	228.13
952.28	228.10
952.58	228.14
952.87	228.19
953.17	228.31
953.47	228.19
953.76	228.22
954.06	228.20
954.36	228.26
954.66	228.24
954.95	228.25
955.25	228.31
955.55	228.38
955.84	228.36
956.14	228.42
956.44	228.54
956.73	228.50
957.03	228.61
957.32	228.54
957.62	228.58
957.92	228.62
958.21	228.60
958.51	228.95
958.81	229.11
959.10	229.20
959.40	229.30
959.69	229.41
959.99	229.40
960.29	229.42
960.58	229.24
960.88	229.45
961.17	229.42
961.47	229.36
961.76	229.29
962.06	229.29
962.36	229.23
962.65	229.17
962.95	229.18
963.24	229.02
963.54	229.13
963.83	229.04
964.13	228.90
964.42	228.93
964.72	228.68
965.01	228.49
965.31	228.40
965.60	228.28
965.90	228.40
966.19	228.36
966.49	228.39
966.78	228.48
967.08	228.23
967.37	228.30
967.67	228.20
967.96	228.21
968.26	228.19
968.55	228.30
968.85	228.33
969.14	228.26
969.43	228.27
969.73	228.20
970.02	228.30
970.32	228.31
970.61	228.28
970.91	228.30
971.20	228.26
971.49	228.27
971.79	228.24
972.08	228.06
972.38	228.07
972.67	227.92
972.96	227.88
973.26	227.82
973.55	227.85
973.85	227.88
974.14	227.83
974.43	227.80
974.73	227.54
975.02	227.42
975.31	227.48
975.61	227.52
975.90	227.54
976.19	227.40
976.49	227.48
976.78	227.56
977.07	227.46
977.37	227.56
977.66	227.48
977.95	227.41
978.24	227.41
978.54	227.42
978.83	227.45
979.12	227.42
979.42	227.53
979.71	227.47
980.00	227.48
980.29	227.43
980.59	227.51
980.88	227.70
981.17	227.73
981.46	227.76
981.76	227.70
982.05	227.71
982.34	227.73
982.63	227.73
982.93	227.59
983.22	227.71
983.51	227.60
983.80	227.71
984.09	227.90
984.39	227.90
984.68	227.94
984.97	228.09
985.26	228.18
985.55	228.16
985.85	228.13
986.14	228.20
986.43	228.27
986.72	228.24
987.01	228.19
987.30	228.26
987.59	228.19
987.89	228.31
988.18	228.20
988.47	228.32
988.76	228.34
989.05	228.46
989.34	228.43
989.63	228.53
989.92	228.52
990.22	228.45
990.51	228.56
990.80	228.64
991.09	228.64
991.38	228.67
991.67	228.71
991.96	228.89
992.25	228.94
992.54	228.98
992.83	229.01
993.12	229.03
993.41	229.04
993.70	229.11
993.99	229.11
994.28	229.22
994.58	229.22
994.87	229.20
995.16	229.15
995.45	229.08
995.74	228.93
996.03	229.06
996.32	229.16
996.61	229.17
996.90	229.14
997.19	229.18
997.48	229.16
997.77	229.16
998.06	229.03
998.34	229.03
998.63	229.00
998.92	228.96
999.21	228.93
999.50	228.90
999.79	228.89
1000.08	228.80
1000.37	228.77
1000.66	228.74
1000.95	228.74
1001.24	228.70
1001.53	228.80
1001.82	228.94
1002.11	228.75
1002.40	228.69
1002.68	228.62
1002.97	228.62
1003.26	228.46
1003.55	228.40
1003.84	228.27
1004.13	228.24
1004.42	228.16
1004.71	228.16
1004.99	228.12
1005.28	228.20
1005.57	228.16
1005.86	228.17
1006.15	228.25
1006.44	228.11
1006.72	228.17
1007.01	228.02
1007.30	227.99
1007.59	227.87
1007.88	227.88
1008.17	227.91
1008.45	227.76
1008.74	227.65
1009.03	227.60
1009.32	227.62
1009.60	227.50
1009.89	227.59
1010.18	227.56
1010.47	227.54
1010.76	227.44
1011.04	227.48
1011.33	227.48
1011.62	227.48
1011.91	227.37
1012.19	227.38
1012.48	227.48
1012.77	227.42
1013.05	227.58
1013.34	227.65
1013.63	227.69
1013.92	227.63
1014.20	227.58
1014.49	227.60
1014.78	227.66
1015.06	227.59
1015.35	227.62
1015.64	227.68
1015.92	227.70
1016.21	227.75
1016.50	227.70
1016.78	227.78
1017.07	227.79
1017.36	227.76
1017.64	227.78
1017.93	227.89
1018.22	227.89
1018.50	227.85
1018.79	227.90
1019.08	227.80
1019.36	227.81
1019.65	227.85
1019.93	227.88
1020.22	227.98
1020.51	228.20
1020.79	228.20
1021.08	228.60
1021.36	227.10
1021.65	229.00
1021.94	227.30
1022.22	228.40
1022.51	228.50
1022.79	227.80
1023.08	228.40
1023.36	231.60
1023.65	228.00
>>>>>End Processed Spectral Data<<<<<
