SpectraSuite Data File
++++++++++++++++++++++++++++++++++++
Date: Fri Feb 01 14:41:56 EST 2013
User: group
Dark Spectrum Present: No
Reference Spectrum Present: No
Number of Sampled Component Spectra: 1
Spectrometers: USB2E7196
Integration Time (usec): 70000 (USB2E7196)
Spectra Averaged: 10 (USB2E7196)
Boxcar Smoothing: 10 (USB2E7196)
Correct for Electrical Dark: No (USB2E7196)
Strobe/Lamp Enabled: No (USB2E7196)
Correct for Detector Non-linearity: No (USB2E7196)
Correct for Stray Light: No (USB2E7196)
Number of Pixels in Processed Spectrum: 2048
>>>>>Begin Processed Spectral Data<<<<<
339.09	0.00
339.48	217.50
339.86	216.40
340.24	219.80
340.63	219.50
341.01	223.10
341.39	225.00
341.78	223.00
342.16	226.40
342.54	227.80
342.93	214.67
343.31	225.54
343.69	226.02
344.07	226.56
344.46	226.91
344.84	227.31
345.22	227.61
345.60	227.77
345.99	228.00
346.37	228.09
346.75	228.08
347.13	228.10
347.52	228.16
347.90	228.29
348.28	228.40
348.66	228.47
349.05	228.41
349.43	228.48
349.81	228.57
350.19	228.61
350.57	228.64
350.96	228.75
351.34	228.80
351.72	228.90
352.10	228.98
352.48	229.08
352.87	229.19
353.25	229.20
353.63	229.33
354.01	229.44
354.39	229.58
354.77	229.74
355.15	229.81
355.54	229.93
355.92	229.97
356.30	229.97
356.68	230.20
357.06	230.22
357.44	230.21
357.82	230.34
358.20	230.52
358.58	230.64
358.97	230.72
359.35	230.81
359.73	230.99
360.11	231.09
360.49	231.08
360.87	231.14
361.25	231.31
361.63	231.41
362.01	231.40
362.39	231.39
362.77	231.37
363.15	231.46
363.53	231.42
363.91	231.51
364.29	231.57
364.67	231.37
365.05	231.38
365.43	231.41
365.81	231.39
366.19	231.41
366.57	231.48
366.95	231.48
367.33	231.44
367.71	231.40
368.09	231.32
368.47	231.40
368.85	231.37
369.23	231.26
369.61	231.08
369.99	231.10
370.37	231.09
370.75	231.18
371.13	231.04
371.51	231.00
371.89	230.93
372.27	230.91
372.65	230.90
373.03	230.80
373.41	230.82
373.78	230.67
374.16	230.48
374.54	230.34
374.92	230.19
375.30	230.07
375.68	229.95
376.06	229.99
376.44	229.91
376.82	229.82
377.19	229.75
377.57	229.71
377.95	229.63
378.33	229.61
378.71	229.32
379.09	229.38
379.47	229.34
379.84	229.22
380.22	229.13
380.60	228.95
380.98	228.87
381.36	228.74
381.73	228.76
382.11	228.76
382.49	228.77
382.87	228.66
383.25	228.59
383.62	228.66
384.00	228.55
384.38	228.53
384.76	228.53
385.13	228.54
385.51	228.45
385.89	228.39
386.27	228.26
386.64	228.32
387.02	228.24
387.40	228.16
387.78	228.15
388.15	228.20
388.53	228.21
388.91	228.20
389.29	228.16
389.66	228.10
390.04	228.04
390.42	228.11
390.79	228.14
391.17	228.19
391.55	228.04
391.92	228.02
392.30	227.94
392.68	227.94
393.05	227.94
393.43	227.95
393.81	227.95
394.18	227.97
394.56	227.99
394.94	227.97
395.31	228.04
395.69	228.18
396.06	228.11
396.44	228.17
396.82	228.20
397.19	228.35
397.57	228.35
397.95	228.43
398.32	228.39
398.70	228.52
399.07	228.75
399.45	228.87
399.82	228.92
400.20	229.08
400.58	229.17
400.95	229.20
401.33	229.42
401.70	229.63
402.08	229.73
402.45	229.98
402.83	230.12
403.20	230.14
403.58	230.16
403.95	230.41
404.33	230.54
404.71	230.75
405.08	231.02
405.46	231.24
405.83	231.49
406.21	231.75
406.58	232.06
406.96	232.21
407.33	232.51
407.70	232.83
408.08	233.20
408.45	233.55
408.83	234.00
409.20	234.34
409.58	234.67
409.95	235.11
410.33	235.38
410.70	235.86
411.08	236.36
411.45	236.87
411.82	237.33
412.20	238.03
412.57	238.75
412.95	239.20
413.32	239.90
413.69	240.43
414.07	241.11
414.44	241.66
414.82	242.27
415.19	243.10
415.56	243.95
415.94	244.84
416.31	245.72
416.68	246.62
417.06	247.68
417.43	248.70
417.81	249.83
418.18	250.95
418.55	252.20
418.93	253.55
419.30	254.81
419.67	256.25
420.04	257.58
420.42	258.96
420.79	260.76
421.16	262.39
421.54	264.25
421.91	266.07
422.28	268.04
422.66	270.18
423.03	272.06
423.40	274.00
423.77	276.02
424.15	278.06
424.52	280.27
424.89	282.63
425.26	285.04
425.64	287.19
426.01	289.52
426.38	292.00
426.75	294.47
427.13	297.18
427.50	299.82
427.87	302.67
428.24	305.51
428.61	308.04
428.99	310.92
429.36	313.87
429.73	316.91
430.10	319.86
430.47	322.83
430.85	325.90
431.22	329.19
431.59	332.69
431.96	335.96
432.33	339.53
432.70	343.15
433.08	347.11
433.45	351.11
433.82	355.01
434.19	359.24
434.56	363.40
434.93	367.31
435.30	371.05
435.68	375.27
436.05	379.41
436.42	383.49
436.79	387.02
437.16	391.07
437.53	395.17
437.90	399.38
438.27	403.47
438.64	407.66
439.01	411.58
439.38	414.80
439.75	418.02
440.13	421.41
440.50	424.77
440.87	427.65
441.24	430.28
441.61	433.42
441.98	435.58
442.35	438.14
442.72	440.70
443.09	443.55
443.46	445.05
443.83	445.85
444.20	446.62
444.57	447.98
444.94	448.38
445.31	448.66
445.68	449.09
446.05	448.91
446.42	448.18
446.79	447.40
447.16	446.78
447.53	446.31
447.90	444.92
448.27	443.13
448.64	440.43
449.01	439.01
449.37	436.16
449.74	433.30
450.11	430.01
450.48	426.31
450.85	422.43
451.22	419.15
451.59	416.17
451.96	413.17
452.33	409.33
452.70	405.82
453.07	401.78
453.43	397.39
453.80	393.49
454.17	389.67
454.54	385.97
454.91	381.94
455.28	377.99
455.65	374.20
456.02	370.62
456.38	367.60
456.75	363.49
457.12	360.13
457.49	356.80
457.86	353.53
458.23	350.90
458.59	347.77
458.96	344.66
459.33	341.86
459.70	339.16
460.07	336.93
460.43	334.56
460.80	332.24
461.17	330.33
461.54	328.16
461.91	325.99
462.27	323.86
462.64	322.04
463.01	320.10
463.38	318.35
463.74	316.27
464.11	314.56
464.48	313.05
464.85	311.40
465.21	310.19
465.58	308.85
465.95	307.24
466.32	305.91
466.68	304.63
467.05	303.40
467.42	302.09
467.78	300.69
468.15	299.18
468.52	298.11
468.88	296.68
469.25	295.43
469.62	294.56
469.98	293.54
470.35	292.59
470.72	291.53
471.08	290.35
471.45	289.51
471.82	288.72
472.18	287.97
472.55	287.27
472.92	286.27
473.28	285.46
473.65	284.66
474.02	283.99
474.38	283.34
474.75	282.64
475.11	282.01
475.48	281.60
475.85	281.15
476.21	280.73
476.58	280.37
476.94	280.08
477.31	279.68
477.67	279.25
478.04	278.89
478.41	278.80
478.77	278.83
479.14	278.57
479.50	278.34
479.87	278.14
480.23	278.12
480.60	278.21
480.96	278.26
481.33	278.41
481.69	278.55
482.06	278.60
482.42	278.70
482.79	278.87
483.15	279.04
483.52	279.43
483.88	279.68
484.25	279.99
484.61	280.39
484.98	280.74
485.34	281.42
485.71	282.04
486.07	282.65
486.44	283.17
486.80	283.92
487.17	284.76
487.53	285.52
487.90	286.49
488.26	287.43
488.62	288.60
488.99	289.63
489.35	290.80
489.72	292.07
490.08	293.50
490.44	295.06
490.81	296.67
491.17	298.22
491.54	300.11
491.90	302.06
492.26	304.10
492.63	306.20
492.99	308.23
493.36	310.50
493.72	313.01
494.08	315.68
494.45	318.53
494.81	321.43
495.17	324.64
495.54	327.83
495.90	331.33
496.26	334.85
496.63	338.64
496.99	342.69
497.35	346.91
497.72	351.35
498.08	355.80
498.44	360.72
498.80	365.86
499.17	370.96
499.53	376.28
499.89	381.97
500.26	387.94
500.62	394.27
500.98	400.73
501.34	407.24
501.71	414.13
502.07	421.40
502.43	428.85
502.79	436.50
503.16	444.57
503.52	452.76
503.88	461.20
504.24	470.00
504.60	479.12
504.97	488.83
505.33	498.54
505.69	508.85
506.05	519.13
506.41	529.84
506.78	541.02
507.14	552.43
507.50	564.42
507.86	576.54
508.22	588.90
508.59	601.90
508.95	615.17
509.31	628.96
509.67	642.95
510.03	657.24
510.39	671.80
510.75	686.88
511.12	702.34
511.48	718.26
511.84	734.18
512.20	750.26
512.56	766.84
512.92	784.14
513.28	801.53
513.64	819.18
514.00	837.17
514.37	855.49
514.73	874.08
515.09	892.56
515.45	911.76
515.81	930.92
516.17	950.43
516.53	970.33
516.89	990.67
517.25	1010.93
517.61	1031.72
517.97	1052.53
518.33	1073.21
518.69	1094.27
519.05	1115.78
519.41	1137.77
519.77	1160.27
520.13	1182.74
520.49	1204.74
520.85	1227.39
521.21	1250.16
521.57	1273.30
521.93	1295.50
522.29	1319.28
522.65	1342.46
523.01	1365.65
523.37	1388.61
523.73	1411.65
524.09	1435.13
524.45	1458.43
524.81	1482.49
525.17	1506.81
525.53	1531.40
525.89	1555.39
526.25	1579.52
526.61	1603.38
526.97	1627.62
527.33	1651.62
527.68	1675.90
528.04	1699.76
528.40	1723.85
528.76	1748.66
529.12	1773.32
529.48	1798.56
529.84	1822.03
530.20	1846.71
530.56	1871.95
530.91	1897.87
531.27	1923.20
531.63	1948.09
531.99	1972.87
532.35	1996.36
532.71	2019.28
533.07	2042.95
533.42	2067.11
533.78	2090.45
534.14	2114.07
534.50	2136.83
534.86	2160.16
535.21	2182.49
535.57	2206.15
535.93	2228.96
536.29	2251.29
536.65	2273.41
537.00	2294.73
537.36	2317.08
537.72	2338.48
538.08	2359.30
538.44	2379.91
538.79	2400.33
539.15	2420.04
539.51	2440.80
539.87	2462.24
540.22	2482.52
540.58	2503.12
540.94	2523.35
541.29	2543.28
541.65	2562.31
542.01	2582.55
542.37	2601.80
542.72	2620.51
543.08	2638.79
543.44	2657.30
543.79	2674.18
544.15	2691.25
544.51	2709.94
544.87	2727.34
545.22	2743.95
545.58	2760.00
545.94	2775.61
546.29	2791.02
546.65	2806.50
547.01	2820.67
547.36	2834.78
547.72	2849.58
548.07	2862.99
548.43	2875.67
548.79	2888.95
549.14	2902.03
549.50	2913.06
549.86	2924.35
550.21	2935.95
550.57	2947.57
550.92	2958.36
551.28	2969.06
551.64	2979.96
551.99	2990.03
552.35	3000.19
552.70	3010.35
553.06	3020.81
553.41	3031.00
553.77	3041.10
554.13	3050.70
554.48	3060.38
554.84	3069.18
555.19	3078.20
555.55	3086.66
555.90	3094.41
556.26	3102.63
556.61	3110.53
556.97	3118.34
557.32	3126.27
557.68	3133.77
558.03	3141.11
558.39	3148.53
558.74	3156.53
559.10	3163.68
559.45	3170.36
559.81	3177.49
560.16	3183.20
560.52	3188.69
560.87	3194.70
561.23	3199.22
561.58	3204.87
561.94	3208.81
562.29	3212.66
562.64	3216.32
563.00	3220.10
563.35	3225.69
563.71	3230.70
564.06	3235.35
564.42	3239.92
564.77	3243.19
565.12	3247.75
565.48	3250.85
565.83	3252.92
566.19	3255.72
566.54	3257.03
566.89	3258.44
567.25	3259.44
567.60	3262.09
567.96	3263.96
568.31	3264.16
568.66	3265.81
569.02	3266.85
569.37	3267.67
569.72	3268.62
570.08	3268.54
570.43	3268.55
570.78	3267.43
571.14	3265.20
571.49	3263.77
571.84	3263.72
572.20	3261.97
572.55	3258.94
572.90	3256.17
573.26	3254.71
573.61	3251.77
573.96	3249.28
574.31	3245.18
574.67	3240.85
575.02	3235.99
575.37	3231.68
575.72	3226.70
576.08	3222.58
576.43	3217.14
576.78	3212.18
577.13	3207.89
577.49	3203.65
577.84	3198.44
578.19	3193.44
578.54	3188.08
578.90	3181.02
579.25	3172.85
579.60	3166.53
579.95	3159.75
580.30	3152.64
580.66	3144.90
581.01	3137.39
581.36	3130.39
581.71	3124.70
582.06	3118.16
582.42	3110.86
582.77	3103.33
583.12	3096.09
583.47	3088.56
583.82	3081.40
584.17	3073.50
584.53	3065.26
584.88	3057.11
585.23	3048.97
585.58	3040.75
585.93	3032.64
586.28	3026.29
586.63	3019.35
586.98	3011.98
587.34	3004.41
587.69	2997.24
588.04	2989.98
588.39	2982.68
588.74	2973.21
589.09	2963.54
589.44	2953.73
589.79	2945.62
590.14	2937.37
590.49	2929.39
590.84	2919.92
591.19	2910.80
591.54	2901.42
591.89	2890.36
592.25	2880.85
592.60	2870.46
592.95	2859.69
593.30	2849.52
593.65	2838.74
594.00	2828.35
594.35	2818.49
594.70	2807.36
595.05	2797.11
595.40	2786.00
595.75	2774.84
596.10	2765.76
596.45	2756.88
596.80	2748.42
597.15	2738.85
597.50	2728.75
597.85	2718.68
598.19	2709.45
598.54	2699.38
598.89	2690.09
599.24	2682.45
599.59	2672.83
599.94	2663.99
600.29	2655.02
600.64	2645.63
600.99	2634.60
601.34	2624.30
601.69	2613.56
602.04	2604.53
602.39	2594.40
602.74	2585.18
603.08	2576.03
603.43	2566.37
603.78	2555.96
604.13	2545.56
604.48	2534.51
604.83	2524.41
605.18	2514.22
605.53	2502.41
605.87	2491.25
606.22	2480.56
606.57	2468.98
606.92	2458.08
607.27	2447.59
607.62	2437.00
607.96	2426.79
608.31	2417.52
608.66	2406.81
609.01	2395.46
609.36	2383.47
609.70	2371.21
610.05	2359.01
610.40	2346.90
610.75	2334.93
611.10	2322.89
611.44	2309.72
611.79	2298.71
612.14	2286.31
612.49	2273.63
612.83	2261.95
613.18	2250.35
613.53	2238.35
613.88	2225.62
614.22	2214.07
614.57	2201.30
614.92	2189.52
615.27	2177.36
615.61	2165.11
615.96	2153.40
616.31	2142.63
616.65	2132.50
617.00	2121.57
617.35	2110.37
617.70	2099.03
618.04	2086.85
618.39	2075.63
618.74	2065.08
619.08	2052.99
619.43	2041.83
619.78	2031.42
620.12	2020.18
620.47	2008.98
620.82	1997.50
621.16	1987.20
621.51	1975.70
621.85	1965.07
622.20	1953.03
622.55	1941.49
622.89	1930.36
623.24	1919.77
623.59	1908.94
623.93	1897.90
624.28	1887.40
624.62	1876.20
624.97	1865.66
625.32	1855.76
625.66	1845.44
626.01	1834.86
626.35	1824.82
626.70	1814.34
627.04	1803.56
627.39	1792.60
627.73	1781.89
628.08	1772.22
628.43	1761.65
628.77	1751.00
629.12	1740.03
629.46	1729.59
629.81	1718.70
630.15	1707.15
630.50	1695.67
630.84	1683.83
631.19	1672.15
631.53	1661.00
631.88	1649.98
632.22	1638.50
632.57	1628.03
632.91	1616.75
633.26	1605.97
633.60	1594.49
633.95	1583.26
634.29	1572.88
634.64	1563.30
634.98	1553.04
635.32	1542.30
635.67	1532.41
636.01	1522.59
636.36	1512.67
636.70	1503.21
637.05	1493.55
637.39	1484.79
637.73	1475.49
638.08	1467.00
638.42	1458.40
638.77	1449.30
639.11	1440.07
639.45	1430.68
639.80	1420.76
640.14	1411.60
640.49	1402.29
640.83	1393.27
641.17	1384.31
641.52	1374.92
641.86	1365.25
642.20	1356.10
642.55	1346.75
642.89	1337.47
643.23	1327.95
643.58	1319.50
643.92	1310.11
644.26	1300.99
644.61	1292.19
644.95	1283.00
645.29	1272.91
645.64	1262.75
645.98	1253.35
646.32	1244.50
646.66	1235.73
647.01	1226.78
647.35	1217.82
647.69	1209.17
648.04	1200.79
648.38	1191.63
648.72	1182.20
649.06	1173.42
649.41	1164.70
649.75	1155.59
650.09	1146.39
650.43	1137.61
650.78	1127.87
651.12	1118.84
651.46	1110.30
651.80	1101.57
652.14	1093.00
652.49	1084.88
652.83	1077.02
653.17	1068.55
653.51	1059.76
653.85	1051.55
654.20	1042.97
654.54	1034.39
654.88	1025.55
655.22	1016.66
655.56	1008.07
655.90	1000.27
656.25	992.28
656.59	983.96
656.93	976.29
657.27	968.71
657.61	960.44
657.95	953.26
658.29	945.96
658.64	938.21
658.98	930.30
659.32	922.37
659.66	914.55
660.00	906.65
660.34	899.13
660.68	892.16
661.02	884.78
661.36	877.86
661.70	871.07
662.05	864.45
662.39	858.03
662.73	851.93
663.07	845.43
663.41	839.12
663.75	832.73
664.09	826.40
664.43	819.80
664.77	813.73
665.11	807.29
665.45	801.12
665.79	794.80
666.13	788.84
666.47	782.95
666.81	776.90
667.15	770.74
667.49	764.90
667.83	759.26
668.17	753.06
668.51	747.00
668.85	740.89
669.19	735.45
669.53	729.72
669.87	723.73
670.21	718.17
670.55	712.56
670.89	707.46
671.23	702.15
671.57	696.94
671.91	691.80
672.25	686.47
672.58	681.33
672.92	676.65
673.26	671.83
673.60	667.24
673.94	662.63
674.28	658.56
674.62	654.26
674.96	649.42
675.30	645.29
675.64	641.11
675.97	636.99
676.31	632.47
676.65	628.04
676.99	624.17
677.33	619.82
677.67	615.60
678.01	611.26
678.34	607.08
678.68	603.12
679.02	599.25
679.36	595.64
679.70	591.77
680.04	587.56
680.37	583.32
680.71	579.32
681.05	575.82
681.39	572.10
681.73	568.26
682.06	564.58
682.40	561.12
682.74	557.62
683.08	553.99
683.42	550.25
683.75	546.74
684.09	543.08
684.43	539.60
684.77	536.09
685.10	532.73
685.44	529.31
685.78	525.80
686.12	522.31
686.45	518.58
686.79	515.10
687.13	512.05
687.46	508.62
687.80	505.49
688.14	502.13
688.48	498.76
688.81	495.35
689.15	492.40
689.49	489.06
689.82	485.82
690.16	482.76
690.50	479.85
690.83	476.90
691.17	473.84
691.51	470.80
691.84	467.94
692.18	465.12
692.52	462.15
692.85	459.29
693.19	456.45
693.52	453.78
693.86	451.15
694.20	448.45
694.53	445.94
694.87	443.41
695.21	440.72
695.54	437.82
695.88	435.29
696.21	432.58
696.55	430.02
696.88	427.50
697.22	424.96
697.56	422.60
697.89	420.11
698.23	417.80
698.56	415.55
698.90	413.19
699.23	410.53
699.57	408.30
699.90	406.20
700.24	403.93
700.58	401.68
700.91	399.48
701.25	397.20
701.58	395.23
701.92	392.85
702.25	390.80
702.59	388.97
702.92	387.09
703.26	385.13
703.59	383.18
703.93	381.64
704.26	379.74
704.60	377.67
704.93	375.84
705.26	374.03
705.60	372.31
705.93	370.63
706.27	369.03
706.60	367.34
706.94	365.42
707.27	363.70
707.61	362.13
707.94	360.36
708.27	358.74
708.61	356.89
708.94	355.27
709.28	353.72
709.61	352.14
709.94	350.63
710.28	349.12
710.61	347.75
710.95	345.84
711.28	344.60
711.61	343.14
711.95	341.63
712.28	340.08
712.61	338.48
712.95	337.05
713.28	335.80
713.61	334.45
713.95	333.20
714.28	331.98
714.61	330.67
714.95	329.50
715.28	328.22
715.61	326.96
715.95	325.93
716.28	324.77
716.61	323.62
716.95	322.46
717.28	321.38
717.61	320.19
717.94	319.09
718.28	317.90
718.61	317.00
718.94	315.96
719.27	314.89
719.61	314.07
719.94	313.08
720.27	311.96
720.60	311.02
720.94	310.07
721.27	309.17
721.60	308.23
721.93	307.37
722.27	306.52
722.60	305.73
722.93	304.88
723.26	303.88
723.59	303.05
723.93	302.14
724.26	301.31
724.59	300.52
724.92	299.88
725.25	299.17
725.59	298.26
725.92	297.72
726.25	297.06
726.58	296.21
726.91	295.61
727.24	294.90
727.57	294.13
727.91	293.38
728.24	292.66
728.57	291.96
728.90	291.24
729.23	290.41
729.56	289.83
729.89	289.11
730.22	288.47
730.55	287.85
730.89	287.20
731.22	286.51
731.55	285.91
731.88	285.16
732.21	284.45
732.54	283.89
732.87	283.11
733.20	282.54
733.53	282.03
733.86	281.24
734.19	280.65
734.52	280.17
734.85	279.75
735.18	279.11
735.51	278.69
735.84	278.14
736.17	277.72
736.50	277.10
736.83	276.73
737.16	276.21
737.49	275.65
737.82	275.19
738.15	274.60
738.48	274.06
738.81	273.59
739.14	272.95
739.47	272.45
739.80	271.95
740.13	271.42
740.46	270.86
740.79	270.41
741.12	269.89
741.45	269.42
741.78	268.86
742.11	268.40
742.44	267.91
742.77	267.42
743.10	266.84
743.43	266.29
743.75	265.66
744.08	265.45
744.41	265.00
744.74	264.41
745.07	264.03
745.40	263.55
745.73	263.23
746.06	262.79
746.39	262.33
746.71	261.82
747.04	261.36
747.37	260.87
747.70	260.41
748.03	259.98
748.36	259.50
748.68	258.99
749.01	258.62
749.34	258.11
749.67	257.74
750.00	257.44
750.33	257.15
750.65	256.75
750.98	256.06
751.31	255.58
751.64	255.35
751.97	255.04
752.29	254.67
752.62	254.27
752.95	254.06
753.28	253.70
753.60	253.36
753.93	253.09
754.26	252.90
754.59	252.60
754.91	252.27
755.24	252.06
755.57	251.90
755.90	251.45
756.22	251.15
756.55	250.78
756.88	250.34
757.20	249.95
757.53	249.70
757.86	249.55
758.19	249.43
758.51	249.19
758.84	248.84
759.17	248.55
759.49	248.34
759.82	248.11
760.15	247.83
760.47	247.76
760.80	247.55
761.13	247.29
761.45	247.00
761.78	246.79
762.11	246.58
762.43	246.28
762.76	246.19
763.08	245.99
763.41	245.82
763.74	245.80
764.06	245.66
764.39	245.41
764.71	245.15
765.04	244.90
765.37	244.65
765.69	244.60
766.02	244.52
766.34	244.24
766.67	243.99
767.00	243.93
767.32	243.77
767.65	243.76
767.97	243.58
768.30	243.50
768.62	243.30
768.95	243.11
769.27	243.04
769.60	242.98
769.92	242.80
770.25	242.69
770.57	242.53
770.90	242.49
771.22	242.27
771.55	242.21
771.87	242.16
772.20	242.01
772.52	242.02
772.85	242.08
773.17	241.83
773.50	241.73
773.82	241.60
774.15	241.46
774.47	241.11
774.80	240.98
775.12	240.74
775.45	240.70
775.77	240.59
776.09	240.45
776.42	240.28
776.74	240.25
777.07	240.11
777.39	239.88
777.72	239.66
778.04	239.69
778.36	239.48
778.69	239.33
779.01	239.06
779.33	238.70
779.66	238.48
779.98	238.50
780.31	238.35
780.63	238.33
780.95	238.21
781.28	238.17
781.60	238.07
781.92	238.06
782.25	237.94
782.57	237.83
782.89	237.66
783.22	237.54
783.54	237.41
783.86	237.30
784.19	237.25
784.51	237.30
784.83	237.11
785.16	237.01
785.48	236.94
785.80	236.98
786.12	236.88
786.45	236.64
786.77	236.52
787.09	236.42
787.42	236.23
787.74	236.13
788.06	235.96
788.38	235.87
788.71	235.72
789.03	235.66
789.35	235.67
789.67	235.53
789.99	235.47
790.32	235.38
790.64	235.31
790.96	235.40
791.28	235.26
791.61	235.23
791.93	235.16
792.25	235.09
792.57	235.20
792.89	235.11
793.21	235.03
793.54	234.88
793.86	234.84
794.18	234.75
794.50	234.59
794.82	234.62
795.14	234.62
795.47	234.56
795.79	234.49
796.11	234.21
796.43	234.23
796.75	234.10
797.07	234.07
797.39	233.92
797.71	233.75
798.04	233.66
798.36	233.58
798.68	233.56
799.00	233.43
799.32	233.24
799.64	233.28
799.96	233.34
800.28	233.50
800.60	233.40
800.92	233.38
801.24	233.39
801.56	233.30
801.89	233.26
802.21	233.17
802.53	233.18
802.85	233.20
803.17	233.19
803.49	233.17
803.81	233.04
804.13	233.04
804.45	232.94
804.77	232.94
805.09	232.96
805.41	232.95
805.73	232.90
806.05	232.94
806.37	232.83
806.69	232.67
807.01	232.55
807.33	232.63
807.65	232.61
807.97	232.68
808.28	232.68
808.60	232.57
808.92	232.70
809.24	232.77
809.56	232.81
809.88	232.67
810.20	232.73
810.52	232.84
810.84	232.70
811.16	232.69
811.48	232.70
811.80	232.70
812.12	232.69
812.43	232.78
812.75	232.73
813.07	232.75
813.39	232.80
813.71	232.77
814.03	232.70
814.35	232.66
814.67	232.59
814.98	232.56
815.30	232.56
815.62	232.55
815.94	232.40
816.26	232.48
816.58	232.57
816.89	232.46
817.21	232.37
817.53	232.49
817.85	232.52
818.17	232.35
818.48	232.24
818.80	232.28
819.12	232.13
819.44	232.06
819.76	231.87
820.07	231.80
820.39	231.71
820.71	231.72
821.03	231.66
821.34	231.65
821.66	231.60
821.98	231.65
822.30	231.41
822.61	231.50
822.93	231.31
823.25	231.19
823.57	231.20
823.88	231.29
824.20	231.31
824.52	231.14
824.83	231.19
825.15	231.16
825.47	231.00
825.79	231.08
826.10	230.95
826.42	231.00
826.74	231.11
827.05	231.07
827.37	230.99
827.69	230.87
828.00	230.77
828.32	230.71
828.64	230.51
828.95	230.65
829.27	230.49
829.58	230.46
829.90	230.40
830.22	230.33
830.53	230.18
830.85	230.01
831.17	230.03
831.48	230.01
831.80	229.91
832.11	229.87
832.43	229.71
832.75	229.70
833.06	229.83
833.38	229.67
833.69	229.66
834.01	229.62
834.32	229.72
834.64	229.59
834.96	229.66
835.27	229.59
835.59	229.49
835.90	229.51
836.22	229.49
836.53	229.57
836.85	229.50
837.16	229.70
837.48	229.66
837.79	229.71
838.11	229.68
838.42	229.80
838.74	229.80
839.05	229.80
839.37	229.80
839.68	229.70
840.00	229.67
840.31	229.67
840.63	229.71
840.94	229.66
841.26	229.69
841.57	229.70
841.88	229.83
842.20	229.87
842.51	229.78
842.83	229.82
843.14	229.93
843.46	230.08
843.77	229.89
844.08	229.96
844.40	229.92
844.71	229.96
845.03	229.85
845.34	229.86
845.65	229.91
845.97	229.93
846.28	229.91
846.60	229.91
846.91	229.91
847.22	229.91
847.54	229.94
847.85	230.02
848.16	229.87
848.48	229.87
848.79	229.88
849.10	229.98
849.42	230.07
849.73	229.97
850.04	229.86
850.36	229.89
850.67	229.92
850.98	229.92
851.30	229.93
851.61	230.00
851.92	230.04
852.23	230.14
852.55	230.14
852.86	230.18
853.17	230.22
853.49	230.34
853.80	230.32
854.11	230.41
854.42	230.38
854.74	230.51
855.05	230.44
855.36	230.44
855.67	230.36
855.99	230.20
856.30	230.35
856.61	230.39
856.92	230.31
857.23	230.25
857.55	230.24
857.86	230.16
858.17	230.10
858.48	230.05
858.79	229.90
859.11	229.92
859.42	229.80
859.73	229.79
860.04	229.73
860.35	229.69
860.66	229.66
860.98	229.74
861.29	229.64
861.60	229.69
861.91	229.60
862.22	229.58
862.53	229.55
862.84	229.35
863.16	229.27
863.47	229.23
863.78	229.19
864.09	229.16
864.40	229.14
864.71	229.15
865.02	229.21
865.33	229.28
865.64	229.23
865.95	229.29
866.27	229.33
866.58	229.26
866.89	229.19
867.20	229.06
867.51	228.95
867.82	228.89
868.13	228.88
868.44	228.84
868.75	228.76
869.06	228.72
869.37	228.72
869.68	228.71
869.99	228.78
870.30	228.71
870.61	228.70
870.92	228.74
871.23	228.63
871.54	228.60
871.85	228.53
872.16	228.49
872.47	228.49
872.78	228.32
873.09	228.34
873.40	228.39
873.71	228.33
874.02	228.27
874.33	228.31
874.64	228.27
874.95	228.37
875.26	228.43
875.56	228.60
875.87	228.52
876.18	228.52
876.49	228.69
876.80	228.79
877.11	228.69
877.42	228.63
877.73	228.70
878.04	228.70
878.35	228.69
878.66	228.74
878.96	228.62
879.27	228.66
879.58	228.60
879.89	228.57
880.20	228.74
880.51	228.71
880.82	228.72
881.12	228.75
881.43	228.74
881.74	228.81
882.05	228.61
882.36	228.79
882.67	228.77
882.97	228.50
883.28	228.54
883.59	228.69
883.90	228.88
884.21	229.00
884.51	229.00
884.82	229.07
885.13	229.15
885.44	229.24
885.74	229.31
886.05	229.42
886.36	229.61
886.67	229.54
886.98	229.70
887.28	229.69
887.59	229.66
887.90	229.56
888.20	229.50
888.51	229.65
888.82	229.59
889.13	229.70
889.43	229.95
889.74	229.97
890.05	229.87
890.35	229.72
890.66	229.61
890.97	229.61
891.28	229.58
891.58	229.57
891.89	229.49
892.20	229.38
892.50	229.32
892.81	229.10
893.12	229.09
893.42	228.99
893.73	229.06
894.04	229.03
894.34	229.08
894.65	228.98
894.95	228.89
895.26	228.83
895.57	228.86
895.87	228.58
896.18	228.59
896.48	228.60
896.79	228.58
897.10	228.60
897.40	228.54
897.71	228.57
898.01	228.49
898.32	228.59
898.63	228.53
898.93	228.51
899.24	228.62
899.54	228.57
899.85	228.60
900.15	228.53
900.46	228.62
900.76	228.59
901.07	228.58
901.38	228.51
901.68	228.49
901.99	228.41
902.29	228.46
902.60	228.36
902.90	228.36
903.21	228.24
903.51	228.32
903.82	228.32
904.12	228.27
904.43	228.32
904.73	228.36
905.03	228.39
905.34	228.53
905.64	228.35
905.95	228.37
906.25	228.23
906.56	228.26
906.86	228.14
907.17	228.16
907.47	228.10
907.77	228.13
908.08	228.15
908.38	228.11
908.69	228.14
908.99	228.24
909.30	228.17
909.60	228.25
909.90	228.15
910.21	228.12
910.51	228.08
910.81	228.04
911.12	228.00
911.42	227.94
911.73	227.79
912.03	227.83
912.33	227.87
912.64	227.92
912.94	227.84
913.24	227.88
913.55	227.88
913.85	227.98
914.15	227.87
914.46	227.83
914.76	227.70
915.06	227.64
915.37	227.55
915.67	227.55
915.97	227.56
916.27	227.46
916.58	227.45
916.88	227.44
917.18	227.44
917.49	227.43
917.79	227.62
918.09	227.74
918.39	227.81
918.70	227.80
919.00	227.89
919.30	227.96
919.60	227.92
919.91	227.89
920.21	227.94
920.51	228.06
920.81	228.07
921.12	228.27
921.42	228.40
921.72	228.40
922.02	228.48
922.32	228.56
922.63	228.68
922.93	228.79
923.23	228.77
923.53	228.67
923.83	228.71
924.13	228.63
924.44	228.50
924.74	228.58
925.04	228.58
925.34	228.62
925.64	228.60
925.94	228.66
926.24	228.82
926.55	228.88
926.85	228.90
927.15	228.99
927.45	228.89
927.75	228.80
928.05	228.82
928.35	228.87
928.65	228.84
928.95	228.79
929.26	228.69
929.56	228.76
929.86	228.90
930.16	228.86
930.46	228.95
930.76	229.04
931.06	228.91
931.36	228.98
931.66	228.96
931.96	229.04
932.26	228.96
932.56	228.96
932.86	228.95
933.16	228.98
933.46	228.90
933.76	228.86
934.06	228.99
934.36	229.03
934.66	228.97
934.96	228.96
935.26	229.01
935.56	228.94
935.86	228.95
936.16	228.97
936.46	228.89
936.76	228.85
937.06	228.81
937.36	228.79
937.66	228.71
937.96	228.65
938.26	228.55
938.56	228.61
938.86	228.58
939.16	228.58
939.46	228.56
939.76	228.57
940.06	228.64
940.35	228.52
940.65	228.39
940.95	228.32
941.25	228.28
941.55	228.22
941.85	228.33
942.15	228.33
942.45	228.28
942.75	228.38
943.04	228.31
943.34	228.37
943.64	228.41
943.94	228.32
944.24	228.28
944.54	228.28
944.84	228.16
945.13	228.07
945.43	228.03
945.73	228.01
946.03	228.01
946.33	228.08
946.62	228.06
946.92	228.15
947.22	228.33
947.52	228.33
947.82	228.41
948.11	228.38
948.41	228.40
948.71	228.37
949.01	228.33
949.31	228.32
949.60	228.22
949.90	228.17
950.20	228.25
950.50	228.21
950.79	228.23
951.09	228.31
951.39	228.33
951.69	228.28
951.98	228.30
952.28	228.29
952.58	228.14
952.87	228.15
953.17	228.11
953.47	228.13
953.76	228.15
954.06	228.10
954.36	228.09
954.66	228.06
954.95	228.10
955.25	228.09
955.55	228.07
955.84	228.03
956.14	228.15
956.44	228.24
956.73	228.29
957.03	228.38
957.32	228.38
957.62	228.39
957.92	228.44
958.21	228.41
958.51	228.65
958.81	228.80
959.10	228.80
959.40	228.94
959.69	228.84
959.99	228.83
960.29	228.81
960.58	228.76
960.88	228.94
961.17	228.89
961.47	228.94
961.76	229.00
962.06	229.14
962.36	229.06
962.65	228.93
962.95	228.99
963.24	228.88
963.54	228.96
963.83	228.99
964.13	228.94
964.42	228.99
964.72	228.89
965.01	228.80
965.31	228.87
965.60	228.75
965.90	228.91
966.19	228.90
966.49	229.00
966.78	229.13
967.08	229.03
967.37	229.11
967.67	229.05
967.96	229.15
968.26	229.12
968.55	229.17
968.85	229.22
969.14	229.22
969.43	229.30
969.73	229.35
970.02	229.37
970.32	229.36
970.61	229.33
970.91	229.16
971.20	229.18
971.49	229.02
971.79	229.01
972.08	228.87
972.38	228.81
972.67	228.69
972.96	228.61
973.26	228.51
973.55	228.58
973.85	228.62
974.14	228.47
974.43	228.45
974.73	228.44
975.02	228.41
975.31	228.28
975.61	228.12
975.90	228.01
976.19	227.87
976.49	227.93
976.78	227.90
977.07	228.05
977.37	228.03
977.66	228.00
977.95	228.03
978.24	227.91
978.54	227.92
978.83	227.90
979.12	227.90
979.42	227.82
979.71	227.70
980.00	227.72
980.29	227.78
980.59	227.74
980.88	227.77
981.17	227.64
981.46	227.68
981.76	227.83
982.05	227.76
982.34	227.77
982.63	227.76
982.93	227.73
983.22	227.71
983.51	227.74
983.80	227.79
984.09	227.76
984.39	227.87
984.68	227.86
984.97	227.90
985.26	227.78
985.55	227.85
985.85	227.89
986.14	227.89
986.43	227.80
986.72	227.83
987.01	227.81
987.30	227.96
987.59	227.96
987.89	227.88
988.18	227.89
988.47	227.92
988.76	227.96
989.05	227.95
989.34	227.95
989.63	228.00
989.92	228.02
990.22	228.04
990.51	228.00
990.80	228.00
991.09	228.10
991.38	228.29
991.67	228.31
991.96	228.31
992.25	228.35
992.54	228.42
992.83	228.39
993.12	228.39
993.41	228.34
993.70	228.58
993.99	228.65
994.28	228.77
994.58	228.76
994.87	228.68
995.16	228.73
995.45	228.64
995.74	228.60
996.03	228.66
996.32	228.62
996.61	228.77
996.90	228.86
997.19	228.80
997.48	228.88
997.77	228.91
998.06	228.90
998.34	228.80
998.63	228.84
998.92	228.92
999.21	229.00
999.50	229.04
999.79	228.91
1000.08	228.90
1000.37	228.95
1000.66	228.94
1000.95	229.07
1001.24	229.06
1001.53	229.18
1001.82	229.24
1002.11	229.25
1002.40	229.34
1002.68	229.33
1002.97	229.52
1003.26	229.55
1003.55	229.46
1003.84	229.46
1004.13	229.48
1004.42	229.54
1004.71	229.54
1004.99	229.55
1005.28	229.56
1005.57	229.67
1005.86	229.66
1006.15	229.68
1006.44	229.61
1006.72	229.74
1007.01	229.70
1007.30	229.76
1007.59	229.68
1007.88	229.65
1008.17	229.62
1008.45	229.54
1008.74	229.41
1009.03	229.31
1009.32	229.31
1009.60	229.26
1009.89	229.25
1010.18	229.20
1010.47	229.15
1010.76	229.15
1011.04	229.04
1011.33	229.00
1011.62	228.90
1011.91	228.94
1012.19	228.91
1012.48	228.90
1012.77	228.91
1013.05	228.90
1013.34	228.86
1013.63	228.87
1013.92	228.89
1014.20	228.93
1014.49	228.91
1014.78	228.94
1015.06	228.77
1015.35	228.60
1015.64	228.62
1015.92	228.59
1016.21	228.40
1016.50	228.31
1016.78	228.35
1017.07	228.41
1017.36	228.34
1017.64	228.27
1017.93	228.20
1018.22	228.08
1018.50	228.05
1018.79	227.88
1019.08	227.75
1019.36	227.68
1019.65	227.65
1019.93	227.63
1020.22	227.60
1020.51	227.69
1020.79	227.60
1021.08	226.30
1021.36	227.90
1021.65	227.00
1021.94	226.10
1022.22	227.50
1022.51	228.10
1022.79	229.10
1023.08	228.70
1023.36	229.50
1023.65	226.50
>>>>>End Processed Spectral Data<<<<<
