SpectraSuite Data File
++++++++++++++++++++++++++++++++++++
Date: Fri Feb 01 14:41:15 EST 2013
User: group
Dark Spectrum Present: No
Reference Spectrum Present: No
Number of Sampled Component Spectra: 1
Spectrometers: USB2E7196
Integration Time (usec): 70000 (USB2E7196)
Spectra Averaged: 10 (USB2E7196)
Boxcar Smoothing: 10 (USB2E7196)
Correct for Electrical Dark: No (USB2E7196)
Strobe/Lamp Enabled: No (USB2E7196)
Correct for Detector Non-linearity: No (USB2E7196)
Correct for Stray Light: No (USB2E7196)
Number of Pixels in Processed Spectrum: 2048
>>>>>Begin Processed Spectral Data<<<<<
339.09	0.00
339.48	215.60
339.86	218.50
340.24	219.40
340.63	221.00
341.01	225.70
341.39	222.80
341.78	223.70
342.16	228.00
342.54	225.50
342.93	215.02
343.31	225.94
343.69	226.52
344.07	227.03
344.46	227.34
344.84	227.65
345.22	227.82
345.60	228.11
345.99	228.32
346.37	228.33
346.75	228.46
347.13	228.59
347.52	228.78
347.90	228.80
348.28	228.70
348.66	228.91
349.05	228.86
349.43	228.90
349.81	228.92
350.19	228.98
350.57	229.11
350.96	229.06
351.34	228.98
351.72	228.99
352.10	229.01
352.48	229.19
352.87	229.19
353.25	229.18
353.63	229.15
354.01	229.26
354.39	229.29
354.77	229.40
355.15	229.49
355.54	229.48
355.92	229.52
356.30	229.58
356.68	229.70
357.06	229.78
357.44	229.85
357.82	229.87
358.20	229.76
358.58	229.77
358.97	229.83
359.35	229.96
359.73	230.10
360.11	230.11
360.49	230.09
360.87	230.11
361.25	230.12
361.63	230.17
362.01	230.13
362.39	230.22
362.77	230.31
363.15	230.29
363.53	230.13
363.91	230.11
364.29	230.14
364.67	229.94
365.05	229.89
365.43	229.89
365.81	229.92
366.19	230.12
366.57	230.29
366.95	230.19
367.33	230.11
367.71	230.02
368.09	229.97
368.47	229.97
368.85	230.04
369.23	229.98
369.61	229.99
369.99	230.00
370.37	229.90
370.75	229.83
371.13	229.80
371.51	229.87
371.89	229.86
372.27	229.90
372.65	229.77
373.03	229.80
373.41	229.76
373.78	229.65
374.16	229.40
374.54	229.18
374.92	229.22
375.30	229.20
375.68	229.15
376.06	229.21
376.44	229.19
376.82	229.12
377.19	229.19
377.57	229.05
377.95	228.95
378.33	228.94
378.71	228.81
379.09	228.76
379.47	228.65
379.84	228.59
380.22	228.42
380.60	228.35
380.98	228.26
381.36	228.12
381.73	228.22
382.11	228.21
382.49	228.21
382.87	228.09
383.25	228.06
383.62	228.27
384.00	228.18
384.38	228.17
384.76	228.29
385.13	228.31
385.51	228.41
385.89	228.39
386.27	228.32
386.64	228.31
387.02	228.14
387.40	228.25
387.78	228.17
388.15	228.19
388.53	228.20
388.91	228.09
389.29	228.20
389.66	228.00
390.04	227.95
390.42	227.89
390.79	227.93
391.17	227.96
391.55	227.83
391.92	227.85
392.30	227.81
392.68	227.66
393.05	227.75
393.43	227.74
393.81	227.84
394.18	227.92
394.56	227.92
394.94	228.13
395.31	228.05
395.69	228.15
396.06	228.25
396.44	228.38
396.82	228.50
397.19	228.59
397.57	228.61
397.95	228.75
398.32	228.80
398.70	228.85
399.07	228.93
399.45	228.90
399.82	228.98
400.20	229.17
400.58	229.24
400.95	229.15
401.33	229.22
401.70	229.42
402.08	229.46
402.45	229.50
402.83	229.69
403.20	229.82
403.58	229.96
403.95	230.12
404.33	230.21
404.71	230.37
405.08	230.56
405.46	230.80
405.83	230.91
406.21	231.05
406.58	231.21
406.96	231.39
407.33	231.60
407.70	231.71
408.08	231.89
408.45	232.24
408.83	232.47
409.20	232.70
409.58	232.72
409.95	233.09
410.33	233.42
410.70	233.67
411.08	233.98
411.45	234.23
411.82	234.53
412.20	234.88
412.57	235.32
412.95	235.59
413.32	236.12
413.69	236.71
414.07	237.20
414.44	237.75
414.82	238.23
415.19	238.89
415.56	239.55
415.94	240.08
416.31	240.78
416.68	241.53
417.06	242.42
417.43	243.38
417.81	244.17
418.18	245.08
418.55	246.00
418.93	247.12
419.30	248.19
419.67	249.20
420.04	250.41
420.42	251.52
420.79	252.90
421.16	254.10
421.54	255.45
421.91	256.91
422.28	258.36
422.66	259.89
423.03	261.37
423.40	262.89
423.77	264.71
424.15	266.41
424.52	268.07
424.89	269.85
425.26	271.49
425.64	273.11
426.01	275.12
426.38	277.10
426.75	279.02
427.13	281.18
427.50	283.35
427.87	285.56
428.24	287.80
428.61	289.81
428.99	292.21
429.36	294.60
429.73	297.04
430.10	299.41
430.47	301.92
430.85	304.52
431.22	307.22
431.59	310.11
431.96	312.69
432.33	315.70
432.70	318.38
433.08	321.95
433.45	325.28
433.82	328.27
434.19	331.68
434.56	335.10
434.93	338.17
435.30	341.27
435.68	344.66
436.05	347.94
436.42	351.22
436.79	354.08
437.16	357.44
437.53	360.86
437.90	364.12
438.27	367.42
438.64	370.77
439.01	373.80
439.38	376.35
439.75	379.04
440.13	381.98
440.50	384.87
440.87	386.96
441.24	389.16
441.61	391.65
441.98	393.43
442.35	395.34
442.72	397.45
443.09	399.58
443.46	400.72
443.83	401.48
444.20	402.23
444.57	403.44
444.94	403.69
445.31	403.98
445.68	404.56
446.05	404.53
446.42	403.96
446.79	403.40
447.16	402.73
447.53	402.17
447.90	400.89
448.27	399.48
448.64	397.51
449.01	396.18
449.37	393.83
449.74	391.46
450.11	388.91
450.48	385.95
450.85	382.91
451.22	380.46
451.59	378.06
451.96	375.68
452.33	372.32
452.70	369.45
453.07	366.10
453.43	362.54
453.80	359.11
454.17	355.96
454.54	352.94
454.91	349.73
455.28	346.45
455.65	343.38
456.02	340.53
456.38	338.03
456.75	334.83
457.12	332.08
457.49	329.50
457.86	326.87
458.23	324.64
458.59	322.05
458.96	319.47
459.33	317.07
459.70	314.74
460.07	312.98
460.43	311.03
460.80	309.10
461.17	307.41
461.54	305.84
461.91	304.05
462.27	302.32
462.64	300.71
463.01	299.18
463.38	297.69
463.74	295.97
464.11	294.55
464.48	293.17
464.85	291.94
465.21	290.95
465.58	289.71
465.95	288.37
466.32	287.37
466.68	286.20
467.05	285.23
467.42	284.13
467.78	283.03
468.15	281.90
468.52	280.97
468.88	279.90
469.25	278.83
469.62	278.03
469.98	277.12
470.35	276.52
470.72	275.83
471.08	274.95
471.45	274.27
471.82	273.39
472.18	272.73
472.55	272.18
472.92	271.35
473.28	270.71
473.65	270.22
474.02	269.73
474.38	269.31
474.75	268.79
475.11	268.32
475.48	267.79
475.85	267.43
476.21	267.17
476.58	266.82
476.94	266.50
477.31	266.28
477.67	266.10
478.04	265.76
478.41	265.38
478.77	265.40
479.14	265.20
479.50	265.21
479.87	265.11
480.23	264.93
480.60	264.79
480.96	264.83
481.33	264.84
481.69	264.74
482.06	264.70
482.42	264.76
482.79	264.92
483.15	265.09
483.52	265.20
483.88	265.20
484.25	265.38
484.61	265.60
484.98	265.71
485.34	266.05
485.71	266.54
486.07	267.15
486.44	267.30
486.80	267.74
487.17	268.07
487.53	268.58
487.90	269.24
488.26	270.05
488.62	270.69
488.99	271.33
489.35	272.10
489.72	272.96
490.08	273.71
490.44	274.50
490.81	275.41
491.17	276.40
491.54	277.67
491.90	278.82
492.26	280.07
492.63	281.41
492.99	282.70
493.36	283.97
493.72	285.41
494.08	286.99
494.45	288.60
494.81	290.50
495.17	292.34
495.54	294.35
495.90	296.38
496.26	298.64
496.63	301.01
496.99	303.50
497.35	306.07
497.72	308.87
498.08	311.78
498.44	314.86
498.80	318.14
499.17	321.35
499.53	324.90
499.89	328.63
500.26	332.50
500.62	336.43
500.98	340.66
501.34	344.85
501.71	349.53
502.07	354.24
502.43	358.99
502.79	364.06
503.16	369.26
503.52	374.82
503.88	380.31
504.24	386.14
504.60	392.27
504.97	398.54
505.33	405.20
505.69	412.09
506.05	419.19
506.41	426.24
506.78	433.62
507.14	441.05
507.50	448.90
507.86	457.12
508.22	465.67
508.59	474.14
508.95	483.15
509.31	492.17
509.67	501.66
510.03	511.29
510.39	521.14
510.75	531.39
511.12	541.80
511.48	552.73
511.84	563.67
512.20	574.65
512.56	586.34
512.92	597.89
513.28	609.78
513.64	621.80
514.00	634.17
514.37	646.99
514.73	660.09
515.09	673.30
515.45	686.22
515.81	699.58
516.17	713.67
516.53	727.60
516.89	741.71
517.25	755.86
517.61	770.59
517.97	785.38
518.33	799.76
518.69	814.70
519.05	829.70
519.41	845.24
519.77	861.39
520.13	877.10
520.49	893.31
520.85	909.31
521.21	925.49
521.57	942.27
521.93	958.45
522.29	974.96
522.65	991.40
523.01	1008.24
523.37	1024.96
523.73	1041.74
524.09	1059.00
524.45	1076.54
524.81	1094.42
525.17	1112.52
525.53	1130.40
525.89	1148.93
526.25	1167.10
526.61	1185.27
526.97	1203.58
527.33	1221.70
527.68	1240.13
528.04	1258.21
528.40	1276.71
528.76	1295.65
529.12	1314.59
529.48	1333.59
529.84	1352.03
530.20	1371.25
530.56	1390.88
530.91	1410.70
531.27	1430.10
531.63	1449.36
531.99	1468.12
532.35	1486.55
532.71	1504.77
533.07	1523.40
533.42	1541.69
533.78	1560.00
534.14	1578.67
534.50	1596.09
534.86	1613.98
535.21	1631.82
535.57	1650.40
535.93	1668.97
536.29	1686.99
536.65	1704.47
537.00	1721.86
537.36	1739.71
537.72	1756.60
538.08	1773.26
538.44	1789.43
538.79	1806.00
539.15	1821.82
539.51	1838.64
539.87	1855.98
540.22	1872.78
540.58	1889.86
540.94	1906.18
541.29	1921.96
541.65	1937.47
542.01	1953.70
542.37	1969.68
542.72	1984.91
543.08	1999.71
543.44	2014.26
543.79	2027.97
544.15	2042.05
544.51	2057.10
544.87	2071.42
545.22	2085.47
545.58	2099.16
545.94	2112.36
546.29	2125.06
546.65	2138.19
547.01	2150.65
547.36	2162.27
547.72	2173.98
548.07	2185.59
548.43	2196.90
548.79	2208.20
549.14	2218.96
549.50	2229.43
549.86	2239.26
550.21	2249.44
550.57	2259.56
550.92	2269.72
551.28	2279.69
551.64	2288.95
551.99	2298.22
552.35	2307.26
552.70	2316.43
553.06	2325.91
553.41	2335.29
553.77	2344.66
554.13	2353.29
554.48	2361.76
554.84	2370.35
555.19	2378.64
555.55	2386.00
555.90	2393.43
556.26	2401.35
556.61	2409.30
556.97	2416.40
557.32	2423.80
557.68	2430.71
558.03	2437.72
558.39	2444.04
558.74	2451.65
559.10	2458.88
559.45	2464.87
559.81	2471.85
560.16	2477.39
560.52	2483.07
560.87	2488.95
561.23	2493.88
561.58	2499.76
561.94	2504.64
562.29	2509.17
562.64	2513.55
563.00	2517.80
563.35	2523.53
563.71	2528.62
564.06	2533.49
564.42	2538.61
564.77	2542.95
565.12	2547.31
565.48	2551.43
565.83	2554.71
566.19	2557.53
566.54	2560.14
566.89	2563.25
567.25	2565.28
567.60	2569.00
567.96	2571.10
568.31	2572.59
568.66	2574.63
569.02	2576.46
569.37	2577.99
569.72	2579.38
570.08	2580.41
570.43	2581.77
570.78	2581.68
571.14	2581.31
571.49	2581.31
571.84	2581.86
572.20	2581.09
572.55	2580.51
572.90	2579.19
573.26	2578.66
573.61	2577.59
573.96	2576.42
574.31	2573.47
574.67	2570.98
575.02	2568.25
575.37	2566.38
575.72	2563.50
576.08	2561.06
576.43	2557.81
576.78	2554.96
577.13	2552.42
577.49	2550.03
577.84	2546.64
578.19	2543.35
578.54	2539.42
578.90	2535.36
579.25	2530.12
579.60	2526.14
579.95	2521.86
580.30	2517.12
580.66	2512.07
581.01	2506.90
581.36	2502.26
581.71	2499.00
582.06	2494.68
582.42	2489.27
582.77	2483.64
583.12	2478.66
583.47	2473.79
583.82	2469.25
584.17	2463.84
584.53	2458.46
584.88	2452.70
585.23	2447.63
585.58	2442.84
585.93	2437.94
586.28	2432.83
586.63	2428.28
586.98	2423.03
587.34	2417.85
587.69	2412.19
588.04	2407.05
588.39	2401.64
588.74	2394.86
589.09	2388.11
589.44	2380.95
589.79	2375.01
590.14	2369.33
590.49	2363.36
590.84	2356.28
591.19	2349.01
591.54	2341.65
591.89	2333.37
592.25	2326.70
592.60	2318.23
592.95	2309.59
593.30	2301.40
593.65	2292.98
594.00	2284.65
594.35	2277.31
594.70	2268.57
595.05	2261.55
595.40	2252.93
595.75	2244.85
596.10	2237.84
596.45	2230.65
596.80	2224.68
597.15	2217.63
597.50	2209.62
597.85	2202.52
598.19	2195.79
598.54	2188.81
598.89	2182.30
599.24	2176.59
599.59	2168.96
599.94	2162.58
600.29	2155.41
600.64	2148.22
600.99	2140.64
601.34	2133.53
601.69	2125.50
602.04	2118.97
602.39	2111.33
602.74	2105.05
603.08	2097.96
603.43	2091.00
603.78	2083.28
604.13	2075.28
604.48	2067.22
604.83	2059.57
605.18	2051.76
605.53	2043.31
605.87	2034.47
606.22	2026.13
606.57	2017.33
606.92	2009.26
607.27	2001.71
607.62	1994.30
607.96	1986.78
608.31	1979.41
608.66	1970.63
609.01	1962.19
609.36	1952.39
609.70	1942.52
610.05	1933.01
610.40	1924.15
610.75	1914.63
611.10	1905.56
611.44	1895.40
611.79	1886.45
612.14	1876.79
612.49	1866.48
612.83	1856.89
613.18	1847.73
613.53	1838.78
613.88	1829.00
614.22	1819.44
614.57	1808.88
614.92	1799.00
615.27	1789.50
615.61	1779.79
615.96	1770.60
616.31	1761.70
616.65	1753.78
617.00	1745.80
617.35	1736.90
617.70	1727.90
618.04	1718.41
618.39	1709.08
618.74	1700.75
619.08	1691.43
619.43	1683.02
619.78	1674.90
620.12	1666.32
620.47	1657.69
620.82	1648.21
621.16	1639.40
621.51	1630.64
621.85	1622.12
622.20	1613.16
622.55	1604.36
622.89	1595.67
623.24	1587.10
623.59	1578.64
623.93	1570.14
624.28	1561.48
624.62	1552.86
624.97	1544.11
625.32	1536.20
625.66	1527.74
626.01	1519.44
626.35	1510.97
626.70	1502.49
627.04	1494.18
627.39	1485.25
627.73	1476.96
628.08	1468.57
628.43	1460.20
628.77	1451.90
629.12	1443.12
629.46	1434.72
629.81	1425.43
630.15	1416.38
630.50	1407.35
630.84	1397.84
631.19	1387.95
631.53	1378.96
631.88	1369.87
632.22	1360.72
632.57	1352.08
632.91	1343.47
633.26	1334.49
633.60	1325.74
633.95	1317.02
634.29	1308.37
634.64	1300.58
634.98	1291.75
635.32	1283.99
635.67	1276.27
636.01	1267.96
636.36	1260.20
636.70	1252.50
637.05	1245.13
637.39	1237.88
637.73	1230.68
638.08	1224.05
638.42	1217.45
638.77	1210.23
639.11	1203.07
639.45	1196.04
639.80	1188.10
640.14	1180.73
640.49	1173.45
640.83	1165.95
641.17	1158.67
641.52	1151.37
641.86	1143.91
642.20	1136.69
642.55	1129.28
642.89	1121.87
643.23	1114.40
643.58	1107.70
643.92	1100.08
644.26	1093.07
644.61	1086.08
644.95	1079.04
645.29	1070.96
645.64	1063.21
645.98	1055.53
646.32	1048.60
646.66	1041.32
647.01	1034.47
647.35	1027.76
647.69	1020.59
648.04	1014.09
648.38	1006.92
648.72	999.57
649.06	992.42
649.41	985.37
649.75	977.80
650.09	970.55
650.43	963.54
650.78	955.91
651.12	948.98
651.46	941.90
651.80	934.95
652.14	928.11
652.49	921.52
652.83	915.28
653.17	908.84
653.51	901.80
653.85	895.24
654.20	888.54
654.54	881.33
654.88	874.72
655.22	867.56
655.56	860.86
655.90	854.61
656.25	848.26
656.59	842.03
656.93	836.18
657.27	830.03
657.61	823.70
657.95	817.88
658.29	811.85
658.64	805.57
658.98	799.12
659.32	792.85
659.66	786.98
660.00	780.50
660.34	774.60
660.68	768.62
661.02	762.67
661.36	757.16
661.70	751.97
662.05	746.90
662.39	741.85
662.73	736.57
663.07	731.29
663.41	726.03
663.75	720.70
664.09	715.54
664.43	710.42
664.77	705.52
665.11	700.56
665.45	695.87
665.79	690.90
666.13	686.09
666.47	681.21
666.81	676.16
667.15	671.31
667.49	666.64
667.83	662.04
668.17	657.38
668.51	652.50
668.85	647.85
669.19	643.08
669.53	638.68
669.87	634.02
670.21	629.70
670.55	625.29
670.89	621.45
671.23	617.19
671.57	613.07
671.91	608.99
672.25	604.66
672.58	600.51
672.92	596.65
673.26	592.88
673.60	589.01
673.94	585.31
674.28	581.72
674.62	578.08
674.96	574.53
675.30	570.92
675.64	567.44
675.97	563.74
676.31	560.13
676.65	556.38
676.99	553.10
677.33	549.41
677.67	546.01
678.01	542.27
678.34	538.79
678.68	535.38
679.02	531.98
679.36	528.80
679.70	525.38
680.04	522.13
680.37	518.85
680.71	515.56
681.05	512.60
681.39	509.70
681.73	506.65
682.06	503.64
682.40	500.75
682.74	497.80
683.08	495.05
683.42	492.15
683.75	489.37
684.09	486.58
684.43	483.88
684.77	481.03
685.10	478.36
685.44	475.68
685.78	473.05
686.12	470.35
686.45	467.68
686.79	465.03
687.13	462.44
687.46	459.77
687.80	457.37
688.14	454.57
688.48	451.99
688.81	449.29
689.15	446.76
689.49	444.31
689.82	441.87
690.16	439.23
690.50	436.76
690.83	434.43
691.17	431.92
691.51	429.69
691.84	427.58
692.18	425.25
692.52	422.82
692.85	420.51
693.19	418.31
693.52	416.00
693.86	413.83
694.20	411.72
694.53	409.65
694.87	407.39
695.21	405.35
695.54	403.22
695.88	401.14
696.21	399.06
696.55	396.91
696.88	394.86
697.22	392.87
697.56	391.07
697.89	388.98
698.23	387.23
698.56	385.28
698.90	383.18
699.23	381.19
699.57	379.40
699.90	377.68
700.24	375.80
700.58	374.13
700.91	372.45
701.25	370.77
701.58	369.00
701.92	367.37
702.25	365.74
702.59	364.17
702.92	362.56
703.26	360.89
703.59	359.43
703.93	358.06
704.26	356.40
704.60	354.90
704.93	353.45
705.26	351.74
705.60	350.17
705.93	348.92
706.27	347.70
706.60	346.31
706.94	344.80
707.27	343.39
707.61	341.99
707.94	340.59
708.27	339.08
708.61	337.77
708.94	336.47
709.28	335.14
709.61	333.77
709.94	332.43
710.28	331.23
710.61	330.00
710.95	328.50
711.28	327.48
711.61	326.10
711.95	324.87
712.28	323.77
712.61	322.45
712.95	321.11
713.28	319.91
713.61	318.74
713.95	317.52
714.28	316.38
714.61	315.23
714.95	314.01
715.28	312.94
715.61	311.76
715.95	310.63
716.28	309.55
716.61	308.57
716.95	307.70
717.28	306.65
717.61	305.71
717.94	304.75
718.28	303.68
718.61	302.75
718.94	301.66
719.27	300.78
719.61	300.13
719.94	299.31
720.27	298.34
720.60	297.65
720.94	296.94
721.27	296.21
721.60	295.36
721.93	294.67
722.27	294.06
722.60	293.35
722.93	292.64
723.26	291.90
723.59	291.12
723.93	290.30
724.26	289.60
724.59	288.84
724.92	288.15
725.25	287.70
725.59	287.05
725.92	286.57
726.25	285.88
726.58	285.11
726.91	284.49
727.24	283.86
727.57	283.21
727.91	282.58
728.24	282.07
728.57	281.47
728.90	280.99
729.23	280.30
729.56	279.80
729.89	279.23
730.22	278.75
730.55	278.19
730.89	277.76
731.22	277.25
731.55	276.75
731.88	276.22
732.21	275.44
732.54	274.96
732.87	274.48
733.20	273.92
733.53	273.47
733.86	273.03
734.19	272.51
734.52	272.01
734.85	271.51
735.18	270.86
735.51	270.40
735.84	269.89
736.17	269.45
736.50	268.90
736.83	268.63
737.16	268.25
737.49	267.83
737.82	267.33
738.15	266.99
738.48	266.60
738.81	266.19
739.14	265.81
739.47	265.25
739.80	264.82
740.13	264.48
740.46	264.06
740.79	263.61
741.12	263.30
741.45	262.81
741.78	262.38
742.11	262.05
742.44	261.80
742.77	261.39
743.10	260.98
743.43	260.62
743.75	260.12
744.08	259.90
744.41	259.68
744.74	259.35
745.07	258.90
745.40	258.43
745.73	258.15
746.06	258.00
746.39	257.76
746.71	257.48
747.04	257.17
747.37	256.74
747.70	256.41
748.03	256.12
748.36	255.82
748.68	255.51
749.01	255.23
749.34	254.80
749.67	254.43
750.00	254.16
750.33	254.07
750.65	253.72
750.98	253.08
751.31	252.56
751.64	252.30
751.97	252.08
752.29	251.75
752.62	251.56
752.95	251.03
753.28	250.76
753.60	250.35
753.93	250.05
754.26	249.81
754.59	249.50
754.91	249.22
755.24	249.02
755.57	248.77
755.90	248.50
756.22	248.23
756.55	248.01
756.88	247.74
757.20	247.26
757.53	247.02
757.86	246.93
758.19	246.83
758.51	246.60
758.84	246.41
759.17	246.20
759.49	245.81
759.82	245.73
760.15	245.48
760.47	245.37
760.80	245.07
761.13	244.90
761.45	244.70
761.78	244.41
762.11	244.17
762.43	244.03
762.76	243.72
763.08	243.52
763.41	243.38
763.74	243.16
764.06	242.97
764.39	242.81
764.71	242.60
765.04	242.40
765.37	242.19
765.69	241.86
766.02	241.75
766.34	241.63
766.67	241.48
767.00	241.39
767.32	241.25
767.65	241.31
767.97	241.11
768.30	240.95
768.62	240.78
768.95	240.55
769.27	240.32
769.60	240.15
769.92	240.10
770.25	239.84
770.57	239.79
770.90	239.75
771.22	239.47
771.55	239.29
771.87	239.18
772.20	239.04
772.52	239.06
772.85	239.10
773.17	238.93
773.50	238.74
773.82	238.60
774.15	238.44
774.47	238.15
774.80	238.08
775.12	237.86
775.45	237.73
775.77	237.79
776.09	237.81
776.42	237.99
776.74	237.75
777.07	237.70
777.39	237.62
777.72	237.48
778.04	237.45
778.36	237.38
778.69	237.30
779.01	237.18
779.33	237.02
779.66	236.82
779.98	236.78
780.31	236.65
780.63	236.66
780.95	236.57
781.28	236.52
781.60	236.47
781.92	236.60
782.25	236.58
782.57	236.47
782.89	236.35
783.22	236.11
783.54	236.09
783.86	235.99
784.19	235.85
784.51	235.80
784.83	235.76
785.16	235.66
785.48	235.53
785.80	235.55
786.12	235.57
786.45	235.52
786.77	235.42
787.09	235.38
787.42	235.25
787.74	235.17
788.06	235.10
788.38	235.01
788.71	234.87
789.03	234.76
789.35	234.60
789.67	234.45
789.99	234.47
790.32	234.31
790.64	234.38
790.96	234.47
791.28	234.33
791.61	234.31
791.93	234.49
792.25	234.44
792.57	234.42
792.89	234.29
793.21	234.11
793.54	233.97
793.86	233.96
794.18	233.89
794.50	233.90
794.82	233.89
795.14	233.80
795.47	233.80
795.79	233.70
796.11	233.71
796.43	233.60
796.75	233.44
797.07	233.49
797.39	233.37
797.71	233.10
798.04	233.07
798.36	233.00
798.68	232.76
799.00	232.69
799.32	232.60
799.64	232.57
799.96	232.51
800.28	232.62
800.60	232.43
800.92	232.48
801.24	232.29
801.56	232.20
801.89	232.20
802.21	232.06
802.53	232.10
802.85	231.96
803.17	232.07
803.49	231.97
803.81	231.88
804.13	231.80
804.45	231.71
804.77	231.62
805.09	231.60
805.41	231.62
805.73	231.52
806.05	231.37
806.37	231.31
806.69	231.25
807.01	231.10
807.33	231.10
807.65	231.02
807.97	231.15
808.28	231.12
808.60	231.01
808.92	231.01
809.24	231.06
809.56	231.14
809.88	231.00
810.20	231.00
810.52	231.00
810.84	230.90
811.16	230.98
811.48	231.02
811.80	230.96
812.12	230.98
812.43	231.15
812.75	231.15
813.07	231.05
813.39	231.13
813.71	231.10
814.03	231.16
814.35	231.03
814.67	230.93
814.98	230.89
815.30	230.92
815.62	230.87
815.94	230.73
816.26	230.76
816.58	230.91
816.89	230.97
817.21	230.99
817.53	231.09
817.85	231.09
818.17	231.11
818.48	231.08
818.80	231.00
819.12	230.83
819.44	230.89
819.76	230.92
820.07	230.74
820.39	230.72
820.71	230.72
821.03	230.74
821.34	230.67
821.66	230.66
821.98	230.64
822.30	230.65
822.61	230.80
822.93	230.79
823.25	230.53
823.57	230.46
823.88	230.47
824.20	230.41
824.52	230.39
824.83	230.31
825.15	230.37
825.47	230.33
825.79	230.33
826.10	230.32
826.42	230.21
826.74	230.35
827.05	230.34
827.37	230.34
827.69	230.30
828.00	230.35
828.32	230.37
828.64	230.43
828.95	230.55
829.27	230.43
829.58	230.32
829.90	230.42
830.22	230.44
830.53	230.32
830.85	230.34
831.17	230.32
831.48	230.29
831.80	230.20
832.11	230.14
832.43	230.10
832.75	230.04
833.06	230.14
833.38	230.05
833.69	230.09
834.01	230.03
834.32	230.04
834.64	230.02
834.96	230.04
835.27	229.93
835.59	229.82
835.90	229.75
836.22	229.71
836.53	229.60
836.85	229.54
837.16	229.70
837.48	229.72
837.79	229.73
838.11	229.90
838.42	229.89
838.74	229.98
839.05	229.84
839.37	229.75
839.68	229.63
840.00	229.65
840.31	229.52
840.63	229.60
840.94	229.58
841.26	229.51
841.57	229.46
841.88	229.42
842.20	229.28
842.51	229.23
842.83	229.24
843.14	229.40
843.46	229.45
843.77	229.41
844.08	229.39
844.40	229.29
844.71	229.08
845.03	229.02
845.34	228.94
845.65	229.01
845.97	228.93
846.28	229.06
846.60	229.03
846.91	229.11
847.22	229.05
847.54	229.05
847.85	228.99
848.16	228.95
848.48	228.99
848.79	229.19
849.10	229.29
849.42	229.24
849.73	229.08
850.04	229.03
850.36	228.90
850.67	228.83
850.98	228.83
851.30	228.86
851.61	228.95
851.92	228.96
852.23	229.13
852.55	229.28
852.86	229.20
853.17	229.26
853.49	229.32
853.80	229.28
854.11	229.30
854.42	229.40
854.74	229.38
855.05	229.29
855.36	229.15
855.67	229.14
855.99	229.20
856.30	229.43
856.61	229.47
856.92	229.58
857.23	229.68
857.55	229.61
857.86	229.69
858.17	229.69
858.48	229.59
858.79	229.50
859.11	229.46
859.42	229.43
859.73	229.48
860.04	229.42
860.35	229.48
860.66	229.48
860.98	229.50
861.29	229.61
861.60	229.71
861.91	229.74
862.22	229.75
862.53	229.75
862.84	229.64
863.16	229.65
863.47	229.63
863.78	229.53
864.09	229.62
864.40	229.68
864.71	229.73
865.02	229.83
865.33	229.84
865.64	229.87
865.95	229.89
866.27	229.99
866.58	229.98
866.89	229.94
867.20	229.86
867.51	229.79
867.82	229.67
868.13	229.68
868.44	229.72
868.75	229.75
869.06	229.68
869.37	229.57
869.68	229.51
869.99	229.57
870.30	229.54
870.61	229.61
870.92	229.53
871.23	229.41
871.54	229.44
871.85	229.43
872.16	229.43
872.47	229.42
872.78	229.25
873.09	229.15
873.40	229.17
873.71	229.17
874.02	229.14
874.33	229.11
874.64	229.09
874.95	228.97
875.26	228.90
875.56	228.88
875.87	228.97
876.18	228.97
876.49	229.01
876.80	229.00
877.11	228.88
877.42	228.89
877.73	228.92
878.04	228.80
878.35	228.81
878.66	228.78
878.96	228.77
879.27	228.72
879.58	228.79
879.89	228.72
880.20	228.78
880.51	228.77
880.82	228.85
881.12	228.73
881.43	228.72
881.74	228.65
882.05	228.68
882.36	228.60
882.67	228.54
882.97	228.32
883.28	228.35
883.59	228.34
883.90	228.28
884.21	228.26
884.51	228.38
884.82	228.28
885.13	228.34
885.44	228.26
885.74	228.37
886.05	228.43
886.36	228.43
886.67	228.42
886.98	228.51
887.28	228.45
887.59	228.57
887.90	228.61
888.20	228.59
888.51	228.59
888.82	228.63
889.13	228.59
889.43	228.82
889.74	228.88
890.05	228.83
890.35	228.76
890.66	228.71
890.97	228.66
891.28	228.70
891.58	228.63
891.89	228.77
892.20	228.64
892.50	228.63
892.81	228.64
893.12	228.59
893.42	228.43
893.73	228.48
894.04	228.47
894.34	228.47
894.65	228.54
894.95	228.61
895.26	228.68
895.57	228.85
895.87	228.64
896.18	228.60
896.48	228.66
896.79	228.70
897.10	228.73
897.40	228.68
897.71	228.74
898.01	228.80
898.32	228.72
898.63	228.70
898.93	228.68
899.24	228.72
899.54	228.79
899.85	229.03
900.15	228.98
900.46	228.94
900.76	229.04
901.07	228.97
901.38	228.94
901.68	228.89
901.99	228.82
902.29	228.81
902.60	228.84
902.90	228.85
903.21	228.85
903.51	228.93
903.82	228.94
904.12	228.91
904.43	228.93
904.73	228.94
905.03	229.00
905.34	229.24
905.64	229.14
905.95	229.14
906.25	228.98
906.56	229.06
906.86	229.00
907.17	228.91
907.47	228.94
907.77	228.84
908.08	228.80
908.38	228.83
908.69	228.87
908.99	228.87
909.30	228.86
909.60	228.95
909.90	228.92
910.21	228.88
910.51	228.78
910.81	228.76
911.12	228.81
911.42	228.83
911.73	228.54
912.03	228.52
912.33	228.48
912.64	228.43
912.94	228.35
913.24	228.33
913.55	228.36
913.85	228.36
914.15	228.50
914.46	228.50
914.76	228.50
915.06	228.51
915.37	228.47
915.67	228.49
915.97	228.44
916.27	228.38
916.58	228.38
916.88	228.36
917.18	228.30
917.49	228.41
917.79	228.36
918.09	228.45
918.39	228.50
918.70	228.47
919.00	228.51
919.30	228.62
919.60	228.60
919.91	228.52
920.21	228.41
920.51	228.24
920.81	228.23
921.12	228.20
921.42	228.13
921.72	228.12
922.02	228.02
922.32	228.11
922.63	228.14
922.93	228.23
923.23	228.29
923.53	228.31
923.83	228.19
924.13	228.27
924.44	228.22
924.74	228.38
925.04	228.33
925.34	228.37
925.64	228.31
925.94	228.41
926.24	228.57
926.55	228.74
926.85	228.89
927.15	228.86
927.45	228.79
927.75	228.76
928.05	228.70
928.35	228.73
928.65	228.63
928.95	228.69
929.26	228.66
929.56	228.79
929.86	228.83
930.16	228.83
930.46	228.70
930.76	228.73
931.06	228.50
931.36	228.54
931.66	228.42
931.96	228.49
932.26	228.47
932.56	228.43
932.86	228.35
933.16	228.31
933.46	228.30
933.76	228.30
934.06	228.47
934.36	228.56
934.66	228.62
934.96	228.68
935.26	228.68
935.56	228.67
935.86	228.58
936.16	228.52
936.46	228.55
936.76	228.67
937.06	228.58
937.36	228.76
937.66	228.89
937.96	229.00
938.26	228.89
938.56	228.96
938.86	228.91
939.16	228.94
939.46	228.95
939.76	228.96
940.06	228.95
940.35	228.78
940.65	228.80
940.95	228.76
941.25	228.74
941.55	228.73
941.85	228.79
942.15	228.84
942.45	228.90
942.75	228.80
943.04	228.80
943.34	228.91
943.64	228.78
943.94	228.70
944.24	228.67
944.54	228.72
944.84	228.58
945.13	228.61
945.43	228.65
945.73	228.59
946.03	228.63
946.33	228.60
946.62	228.62
946.92	228.56
947.22	228.55
947.52	228.52
947.82	228.52
948.11	228.50
948.41	228.42
948.71	228.40
949.01	228.44
949.31	228.34
949.60	228.23
949.90	228.29
950.20	228.27
950.50	228.21
950.79	228.15
951.09	228.19
951.39	228.08
951.69	228.06
951.98	228.14
952.28	228.15
952.58	228.19
952.87	228.18
953.17	228.07
953.47	228.03
953.76	227.98
954.06	227.86
954.36	227.72
954.66	227.71
954.95	227.66
955.25	227.63
955.55	227.61
955.84	227.70
956.14	227.62
956.44	227.59
956.73	227.55
957.03	227.55
957.32	227.49
957.62	227.45
957.92	227.41
958.21	227.37
958.51	227.49
958.81	227.54
959.10	227.57
959.40	227.67
959.69	227.67
959.99	227.72
960.29	227.68
960.58	227.73
960.88	227.85
961.17	227.75
961.47	227.75
961.76	227.82
962.06	227.80
962.36	227.81
962.65	227.80
962.95	227.73
963.24	227.67
963.54	227.78
963.83	227.97
964.13	227.99
964.42	227.88
964.72	227.80
965.01	227.78
965.31	227.83
965.60	227.76
965.90	227.97
966.19	227.89
966.49	227.98
966.78	227.98
967.08	227.98
967.37	228.08
967.67	228.09
967.96	228.15
968.26	228.23
968.55	228.25
968.85	228.32
969.14	228.49
969.43	228.60
969.73	228.54
970.02	228.49
970.32	228.46
970.61	228.66
970.91	228.60
971.20	228.53
971.49	228.47
971.79	228.58
972.08	228.44
972.38	228.40
972.67	228.53
972.96	228.64
973.26	228.56
973.55	228.68
973.85	228.62
974.14	228.57
974.43	228.48
974.73	228.53
975.02	228.43
975.31	228.48
975.61	228.50
975.90	228.48
976.19	228.52
976.49	228.60
976.78	228.57
977.07	228.63
977.37	228.70
977.66	228.80
977.95	228.80
978.24	228.83
978.54	229.02
978.83	228.92
979.12	228.86
979.42	228.86
979.71	228.74
980.00	228.87
980.29	228.85
980.59	228.83
980.88	228.89
981.17	228.98
981.46	228.92
981.76	228.89
982.05	228.99
982.34	228.85
982.63	228.86
982.93	228.82
983.22	228.78
983.51	228.78
983.80	228.63
984.09	228.59
984.39	228.45
984.68	228.33
984.97	228.30
985.26	228.22
985.55	228.23
985.85	228.24
986.14	228.24
986.43	228.30
986.72	228.23
987.01	228.11
987.30	227.98
987.59	227.86
987.89	227.77
988.18	227.66
988.47	227.61
988.76	227.49
989.05	227.44
989.34	227.34
989.63	227.33
989.92	227.44
990.22	227.44
990.51	227.47
990.80	227.44
991.09	227.42
991.38	227.46
991.67	227.42
991.96	227.41
992.25	227.31
992.54	227.17
992.83	227.18
993.12	227.15
993.41	227.21
993.70	227.27
993.99	227.29
994.28	227.33
994.58	227.46
994.87	227.48
995.16	227.52
995.45	227.52
995.74	227.41
996.03	227.36
996.32	227.46
996.61	227.48
996.90	227.49
997.19	227.53
997.48	227.56
997.77	227.55
998.06	227.45
998.34	227.49
998.63	227.60
998.92	227.71
999.21	227.73
999.50	227.80
999.79	227.77
1000.08	227.85
1000.37	227.89
1000.66	227.78
1000.95	227.90
1001.24	227.92
1001.53	227.97
1001.82	227.97
1002.11	227.97
1002.40	227.84
1002.68	227.82
1002.97	227.97
1003.26	227.91
1003.55	227.87
1003.84	227.88
1004.13	228.10
1004.42	228.03
1004.71	227.94
1004.99	227.91
1005.28	227.93
1005.57	227.84
1005.86	227.97
1006.15	227.92
1006.44	227.98
1006.72	228.02
1007.01	227.98
1007.30	227.97
1007.59	228.07
1007.88	228.14
1008.17	228.10
1008.45	228.16
1008.74	228.17
1009.03	228.03
1009.32	227.98
1009.60	227.99
1009.89	227.98
1010.18	227.79
1010.47	227.80
1010.76	227.95
1011.04	227.89
1011.33	228.01
1011.62	228.09
1011.91	228.01
1012.19	228.07
1012.48	228.04
1012.77	228.11
1013.05	228.19
1013.34	228.30
1013.63	228.15
1013.92	228.18
1014.20	228.30
1014.49	228.30
1014.78	228.36
1015.06	228.33
1015.35	228.46
1015.64	228.59
1015.92	228.65
1016.21	228.72
1016.50	228.74
1016.78	228.71
1017.07	228.84
1017.36	228.73
1017.64	228.73
1017.93	228.85
1018.22	228.83
1018.50	228.79
1018.79	228.73
1019.08	228.59
1019.36	228.40
1019.65	228.42
1019.93	228.52
1020.22	228.44
1020.51	228.53
1020.79	228.54
1021.08	228.10
1021.36	227.80
1021.65	227.90
1021.94	227.50
1022.22	226.90
1022.51	227.30
1022.79	230.20
1023.08	227.70
1023.36	230.50
1023.65	228.70
>>>>>End Processed Spectral Data<<<<<
