SpectraSuite Data File
++++++++++++++++++++++++++++++++++++
Date: Fri Feb 01 14:34:30 EST 2013
User: group
Dark Spectrum Present: No
Reference Spectrum Present: No
Number of Sampled Component Spectra: 1
Spectrometers: USB2E7196
Integration Time (usec): 70000 (USB2E7196)
Spectra Averaged: 10 (USB2E7196)
Boxcar Smoothing: 10 (USB2E7196)
Correct for Electrical Dark: No (USB2E7196)
Strobe/Lamp Enabled: No (USB2E7196)
Correct for Detector Non-linearity: No (USB2E7196)
Correct for Stray Light: No (USB2E7196)
Number of Pixels in Processed Spectrum: 2048
>>>>>Begin Processed Spectral Data<<<<<
339.09	0.00
339.48	216.80
339.86	217.00
340.24	219.10
340.63	220.50
341.01	223.60
341.39	223.00
341.78	225.00
342.16	225.50
342.54	225.60
342.93	214.61
343.31	225.41
343.69	225.87
344.07	226.40
344.46	226.81
344.84	227.16
345.22	227.37
345.60	227.63
345.99	227.82
346.37	227.94
346.75	228.11
347.13	228.14
347.52	228.25
347.90	228.43
348.28	228.41
348.66	228.46
349.05	228.42
349.43	228.47
349.81	228.50
350.19	228.61
350.57	228.68
350.96	228.89
351.34	228.97
351.72	229.07
352.10	229.15
352.48	229.21
352.87	229.32
353.25	229.41
353.63	229.45
354.01	229.47
354.39	229.65
354.77	229.70
355.15	229.79
355.54	229.74
355.92	229.64
356.30	229.76
356.68	229.90
357.06	229.93
357.44	229.89
357.82	229.96
358.20	230.04
358.58	230.09
358.97	230.11
359.35	230.15
359.73	230.26
360.11	230.22
360.49	230.35
360.87	230.32
361.25	230.38
361.63	230.44
362.01	230.40
362.39	230.35
362.77	230.40
363.15	230.43
363.53	230.55
363.91	230.60
364.29	230.64
364.67	230.46
365.05	230.57
365.43	230.60
365.81	230.69
366.19	230.70
366.57	230.76
366.95	230.62
367.33	230.64
367.71	230.60
368.09	230.60
368.47	230.50
368.85	230.50
369.23	230.48
369.61	230.32
369.99	230.41
370.37	230.38
370.75	230.44
371.13	230.36
371.51	230.22
371.89	230.23
372.27	230.20
372.65	230.20
373.03	230.02
373.41	229.95
373.78	229.82
374.16	229.69
374.54	229.51
374.92	229.56
375.30	229.55
375.68	229.46
376.06	229.42
376.44	229.33
376.82	229.32
377.19	229.25
377.57	229.30
377.95	229.10
378.33	229.02
378.71	228.80
379.09	228.79
379.47	228.75
379.84	228.64
380.22	228.52
380.60	228.34
380.98	228.28
381.36	228.17
381.73	228.11
382.11	228.10
382.49	228.03
382.87	227.89
383.25	227.71
383.62	227.88
384.00	227.88
384.38	227.79
384.76	227.70
385.13	227.65
385.51	227.66
385.89	227.64
386.27	227.46
386.64	227.44
387.02	227.26
387.40	227.25
387.78	227.28
388.15	227.23
388.53	227.29
388.91	227.27
389.29	227.22
389.66	227.23
390.04	227.16
390.42	227.22
390.79	227.17
391.17	227.18
391.55	227.07
391.92	227.02
392.30	227.09
392.68	227.12
393.05	227.12
393.43	226.99
393.81	227.05
394.18	227.19
394.56	227.20
394.94	227.33
395.31	227.38
395.69	227.39
396.06	227.56
396.44	227.58
396.82	227.50
397.19	227.86
397.57	227.84
397.95	228.03
398.32	228.10
398.70	228.28
399.07	228.50
399.45	228.49
399.82	228.66
400.20	228.82
400.58	229.05
400.95	229.16
401.33	229.44
401.70	229.79
402.08	230.00
402.45	230.16
402.83	230.49
403.20	230.60
403.58	230.86
403.95	231.02
404.33	231.40
404.71	231.91
405.08	232.19
405.46	232.54
405.83	232.87
406.21	233.22
406.58	233.77
406.96	234.12
407.33	234.62
407.70	235.14
408.08	235.76
408.45	236.16
408.83	236.90
409.20	237.40
409.58	237.81
409.95	238.57
410.33	239.40
410.70	240.02
411.08	240.96
411.45	241.86
411.82	242.70
412.20	243.64
412.57	244.70
412.95	245.68
413.32	246.88
413.69	248.03
414.07	249.43
414.44	250.74
414.82	252.18
415.19	253.83
415.56	255.26
415.94	257.00
416.31	258.97
416.68	260.90
417.06	263.26
417.43	265.47
417.81	267.79
418.18	270.17
418.55	272.89
418.93	275.70
419.30	278.33
419.67	281.31
420.04	284.39
420.42	287.71
420.79	291.59
421.16	295.33
421.54	299.26
421.91	303.17
422.28	307.34
422.66	311.73
423.03	316.26
423.40	321.07
423.77	325.88
424.15	330.80
424.52	335.89
424.89	341.18
425.26	346.65
425.64	351.68
426.01	357.31
426.38	363.22
426.75	369.06
427.13	375.28
427.50	381.82
427.87	388.57
428.24	395.18
428.61	401.35
428.99	408.22
429.36	415.93
429.73	423.35
430.10	430.71
430.47	438.34
430.85	445.94
431.22	453.88
431.59	462.48
431.96	470.83
432.33	479.98
432.70	488.92
433.08	499.18
433.45	509.07
433.82	519.03
434.19	529.78
434.56	540.48
434.93	550.73
435.30	560.87
435.68	572.08
436.05	583.10
436.42	594.29
436.79	604.48
437.16	615.34
437.53	626.64
437.90	637.63
438.27	648.69
438.64	660.51
439.01	671.19
439.38	680.71
439.75	689.98
440.13	700.83
440.50	710.89
440.87	719.31
441.24	728.27
441.61	737.96
441.98	745.25
442.35	753.81
442.72	762.28
443.09	770.81
443.46	776.12
443.83	780.20
444.20	783.64
444.57	788.42
444.94	790.91
445.31	794.13
445.68	797.23
446.05	799.25
446.42	799.22
446.79	799.51
447.16	799.64
447.53	799.98
447.90	797.10
448.27	794.51
448.64	789.84
449.01	786.90
449.37	780.43
449.74	774.32
450.11	766.59
450.48	758.38
450.85	749.68
451.22	742.67
451.59	735.72
451.96	729.20
452.33	720.07
452.70	712.16
453.07	702.05
453.43	691.77
453.80	681.97
454.17	672.39
454.54	663.30
454.91	653.36
455.28	643.55
455.65	634.37
456.02	624.88
456.38	617.22
456.75	607.38
457.12	599.23
457.49	591.03
457.86	583.25
458.23	576.55
458.59	569.02
458.96	561.27
459.33	554.35
459.70	547.49
460.07	542.09
460.43	535.54
460.80	529.48
461.17	524.21
461.54	518.53
461.91	513.08
462.27	507.50
462.64	502.83
463.01	497.68
463.38	492.61
463.74	487.74
464.11	483.36
464.48	479.32
464.85	474.88
465.21	471.52
465.58	467.98
465.95	463.85
466.32	460.49
466.68	457.00
467.05	453.62
467.42	450.16
467.78	446.42
468.15	442.99
468.52	440.43
468.88	437.19
469.25	434.07
469.62	431.81
469.98	429.24
470.35	426.76
470.72	424.55
471.08	422.02
471.45	419.90
471.82	417.57
472.18	415.04
472.55	413.23
472.92	411.32
473.28	409.47
473.65	407.57
474.02	405.68
474.38	404.20
474.75	402.80
475.11	401.33
475.48	400.24
475.85	399.34
476.21	398.19
476.58	397.33
476.94	396.75
477.31	395.78
477.67	395.00
478.04	394.30
478.41	393.73
478.77	393.38
479.14	392.84
479.50	392.58
479.87	392.60
480.23	392.70
480.60	392.57
480.96	392.32
481.33	392.58
481.69	392.61
482.06	392.60
482.42	392.74
482.79	392.92
483.15	393.53
483.52	394.00
483.88	394.45
484.25	395.01
484.61	395.71
484.98	396.47
485.34	397.51
485.71	398.53
486.07	399.68
486.44	400.77
486.80	402.19
487.17	403.55
487.53	405.12
487.90	406.80
488.26	408.56
488.62	410.55
488.99	412.10
489.35	414.10
489.72	416.30
490.08	418.49
490.44	420.73
490.81	423.03
491.17	425.38
491.54	428.04
491.90	430.50
492.26	433.29
492.63	436.08
492.99	438.84
493.36	441.85
493.72	444.85
494.08	448.05
494.45	451.17
494.81	454.53
495.17	457.84
495.54	461.07
495.90	464.54
496.26	468.07
496.63	472.01
496.99	475.91
497.35	479.82
497.72	483.86
498.08	488.01
498.44	491.97
498.80	496.56
499.17	500.57
499.53	505.07
499.89	509.40
500.26	513.76
500.62	517.94
500.98	522.60
501.34	527.18
501.71	531.76
502.07	536.28
502.43	540.75
502.79	545.23
503.16	549.82
503.52	554.50
503.88	559.12
504.24	563.76
504.60	568.28
504.97	572.86
505.33	577.39
505.69	582.17
506.05	586.80
506.41	590.93
506.78	595.60
507.14	599.89
507.50	604.30
507.86	608.80
508.22	613.45
508.59	617.54
508.95	621.97
509.31	626.41
509.67	630.86
510.03	635.20
510.39	639.28
510.75	643.56
511.12	647.37
511.48	651.43
511.84	655.31
512.20	659.31
512.56	663.30
512.92	667.00
513.28	670.67
513.64	674.37
514.00	678.08
514.37	681.67
514.73	685.26
515.09	688.38
515.45	691.36
515.81	694.60
516.17	697.77
516.53	700.89
516.89	703.55
517.25	706.50
517.61	709.40
517.97	712.26
518.33	714.84
518.69	717.63
519.05	720.24
519.41	722.80
519.77	725.39
520.13	727.85
520.49	730.53
520.85	732.64
521.21	734.93
521.57	737.33
521.93	739.33
522.29	741.49
522.65	743.69
523.01	745.90
523.37	747.68
523.73	749.62
524.09	751.53
524.45	753.62
524.81	755.55
525.17	757.73
525.53	760.13
525.89	762.20
526.25	764.42
526.61	766.27
526.97	768.37
527.33	770.19
527.68	772.24
528.04	773.94
528.40	776.10
528.76	778.36
529.12	780.45
529.48	782.70
529.84	784.58
530.20	786.70
530.56	789.04
530.91	791.72
531.27	794.35
531.63	796.52
531.99	798.80
532.35	801.04
532.71	802.96
533.07	805.04
533.42	807.59
533.78	809.94
534.14	812.53
534.50	814.51
534.86	816.70
535.21	818.83
535.57	821.55
535.93	823.86
536.29	825.87
536.65	827.98
537.00	830.03
537.36	832.42
537.72	834.70
538.08	837.08
538.44	839.04
538.79	841.37
539.15	843.60
539.51	845.92
539.87	848.56
540.22	851.17
540.58	853.81
540.94	856.20
541.29	858.49
541.65	860.89
542.01	863.89
542.37	866.66
542.72	869.08
543.08	871.36
543.44	874.00
543.79	876.46
544.15	879.29
544.51	882.60
544.87	885.40
545.22	888.14
545.58	890.59
545.94	893.05
546.29	895.36
546.65	898.14
547.01	901.01
547.36	903.25
547.72	905.58
548.07	907.85
548.43	909.99
548.79	912.39
549.14	914.46
549.50	916.73
549.86	919.04
550.21	921.48
550.57	924.05
550.92	926.37
551.28	928.86
551.64	931.09
551.99	933.11
552.35	935.81
552.70	938.30
553.06	941.02
553.41	943.64
553.77	946.37
554.13	948.70
554.48	951.20
554.84	953.81
555.19	956.24
555.55	958.58
555.90	960.87
556.26	963.06
556.61	965.68
556.97	967.61
557.32	970.10
557.68	972.53
558.03	974.65
558.39	976.89
558.74	979.48
559.10	981.66
559.45	984.00
559.81	985.99
560.16	988.24
560.52	990.07
560.87	992.64
561.23	994.57
561.58	997.15
561.94	998.95
562.29	1001.10
562.64	1003.11
563.00	1004.96
563.35	1007.58
563.71	1009.94
564.06	1012.36
564.42	1014.80
564.77	1016.69
565.12	1018.75
565.48	1021.12
565.83	1023.22
566.19	1025.12
566.54	1026.76
566.89	1028.81
567.25	1030.61
567.60	1032.60
567.96	1034.83
568.31	1036.33
568.66	1037.56
569.02	1038.52
569.37	1040.00
569.72	1041.22
570.08	1042.56
570.43	1044.25
570.78	1044.87
571.14	1045.69
571.49	1046.30
571.84	1047.48
572.20	1048.38
572.55	1049.01
572.90	1049.28
573.26	1050.00
573.61	1050.31
573.96	1050.86
574.31	1050.47
574.67	1050.34
575.02	1049.86
575.37	1049.82
575.72	1049.43
576.08	1049.52
576.43	1049.51
576.78	1049.37
577.13	1049.17
577.49	1049.01
577.84	1048.43
578.19	1048.33
578.54	1048.22
578.90	1047.87
579.25	1046.78
579.60	1045.96
579.95	1045.16
580.30	1044.15
580.66	1042.84
581.01	1041.85
581.36	1040.96
581.71	1040.38
582.06	1039.61
582.42	1038.93
582.77	1037.56
583.12	1036.45
583.47	1035.56
583.82	1034.76
584.17	1033.52
584.53	1032.42
584.88	1030.93
585.23	1029.70
585.58	1028.75
585.93	1027.44
586.28	1026.30
586.63	1025.25
586.98	1024.15
587.34	1023.02
587.69	1021.74
588.04	1020.60
588.39	1019.24
588.74	1017.38
589.09	1015.28
589.44	1013.26
589.79	1011.54
590.14	1009.98
590.49	1008.33
590.84	1006.28
591.19	1004.19
591.54	1002.00
591.89	999.38
592.25	997.66
592.60	995.36
592.95	992.64
593.30	990.14
593.65	987.45
594.00	984.91
594.35	983.05
594.70	980.32
595.05	977.98
595.40	975.43
595.75	972.82
596.10	970.78
596.45	968.79
596.80	967.01
597.15	964.47
597.50	961.86
597.85	959.52
598.19	957.39
598.54	955.17
598.89	952.88
599.24	950.78
599.59	948.03
599.94	945.65
600.29	943.09
600.64	940.41
600.99	937.44
601.34	934.99
601.69	931.79
602.04	929.18
602.39	926.37
602.74	923.98
603.08	921.55
603.43	919.19
603.78	916.71
604.13	913.88
604.48	911.43
604.83	909.02
605.18	906.56
605.53	903.30
605.87	899.96
606.22	897.06
606.57	894.04
606.92	891.39
607.27	888.82
607.62	886.38
607.96	883.62
608.31	881.35
608.66	878.19
609.01	875.03
609.36	871.90
609.70	868.80
610.05	865.25
610.40	861.98
610.75	858.24
611.10	854.69
611.44	851.19
611.79	847.98
612.14	844.52
612.49	840.60
612.83	837.24
613.18	833.77
613.53	830.42
613.88	827.02
614.22	823.32
614.57	819.72
614.92	816.05
615.27	812.87
615.61	808.95
615.96	805.63
616.31	802.43
616.65	799.61
617.00	796.66
617.35	793.52
617.70	790.48
618.04	787.20
618.39	783.95
618.74	780.80
619.08	777.04
619.43	773.80
619.78	770.76
620.12	767.68
620.47	764.71
620.82	761.59
621.16	758.34
621.51	755.55
621.85	752.25
622.20	749.00
622.55	745.74
622.89	742.82
623.24	739.79
623.59	736.60
623.93	733.34
624.28	730.19
624.62	727.23
624.97	724.12
625.32	721.28
625.66	718.50
626.01	715.55
626.35	712.71
626.70	709.72
627.04	706.85
627.39	703.95
627.73	700.84
628.08	697.85
628.43	694.99
628.77	691.90
629.12	688.81
629.46	685.90
629.81	682.72
630.15	679.69
630.50	676.40
630.84	673.15
631.19	669.98
631.53	666.89
631.88	663.61
632.22	660.10
632.57	656.96
632.91	653.65
633.26	650.46
633.60	647.41
633.95	644.45
634.29	641.37
634.64	638.37
634.98	635.41
635.32	632.67
635.67	630.18
636.01	627.31
636.36	624.49
636.70	621.74
637.05	619.06
637.39	616.29
637.73	613.89
638.08	611.42
638.42	609.00
638.77	606.48
639.11	603.79
639.45	601.35
639.80	598.78
640.14	596.27
640.49	593.70
640.83	591.04
641.17	588.28
641.52	585.68
641.86	583.11
642.20	580.54
642.55	577.62
642.89	574.90
643.23	572.24
643.58	569.93
643.92	567.23
644.26	564.54
644.61	562.29
644.95	559.73
645.29	556.85
645.64	553.98
645.98	551.25
646.32	548.83
646.66	546.21
647.01	543.56
647.35	540.96
647.69	538.38
648.04	536.13
648.38	533.55
648.72	531.02
649.06	528.41
649.41	525.95
649.75	523.21
650.09	520.50
650.43	518.01
650.78	515.36
651.12	512.82
651.46	510.60
651.80	507.94
652.14	505.46
652.49	503.35
652.83	501.03
653.17	498.74
653.51	496.24
653.85	493.82
654.20	491.34
654.54	488.86
654.88	486.25
655.22	483.66
655.56	481.36
655.90	478.99
656.25	476.62
656.59	474.33
656.93	472.28
657.27	470.15
657.61	467.60
657.95	465.30
658.29	463.23
658.64	460.79
658.98	458.59
659.32	456.32
659.66	454.04
660.00	451.78
660.34	449.44
660.68	447.38
661.02	445.47
661.36	443.62
661.70	441.71
662.05	440.00
662.39	438.20
662.73	436.26
663.07	434.50
663.41	432.67
663.75	430.82
664.09	429.00
664.43	427.04
664.77	425.54
665.11	423.80
665.45	421.92
665.79	420.14
666.13	418.31
666.47	416.50
666.81	414.75
667.15	412.90
667.49	411.28
667.83	409.59
668.17	407.77
668.51	406.07
668.85	404.32
669.19	402.75
669.53	400.98
669.87	399.27
670.21	397.44
670.55	396.09
670.89	394.70
671.23	393.35
671.57	391.91
671.91	390.33
672.25	388.87
672.58	387.46
672.92	386.03
673.26	384.69
673.60	383.39
673.94	382.12
674.28	380.91
674.62	379.69
674.96	378.32
675.30	377.00
675.64	375.64
675.97	374.46
676.31	373.28
676.65	371.98
676.99	370.82
677.33	369.57
677.67	368.18
678.01	366.68
678.34	365.34
678.68	364.00
679.02	362.72
679.36	361.55
679.70	360.36
680.04	359.35
680.37	358.07
680.71	356.75
681.05	355.58
681.39	354.44
681.73	353.15
682.06	352.10
682.40	351.00
682.74	349.89
683.08	348.73
683.42	347.33
683.75	346.26
684.09	345.03
684.43	344.02
684.77	342.92
685.10	341.80
685.44	340.61
685.78	339.60
686.12	338.57
686.45	337.40
686.79	336.15
687.13	335.02
687.46	334.03
687.80	333.05
688.14	331.88
688.48	330.83
688.81	329.84
689.15	328.83
689.49	327.81
689.82	326.85
690.16	325.88
690.50	324.95
690.83	323.93
691.17	322.86
691.51	321.85
691.84	320.89
692.18	319.94
692.52	318.92
692.85	317.94
693.19	317.03
693.52	316.09
693.86	315.16
694.20	314.17
694.53	313.26
694.87	312.38
695.21	311.42
695.54	310.33
695.88	309.25
696.21	308.29
696.55	307.45
696.88	306.44
697.22	305.36
697.56	304.50
697.89	303.63
698.23	302.82
698.56	301.91
698.90	300.99
699.23	300.10
699.57	299.38
699.90	298.51
700.24	297.54
700.58	296.68
700.91	295.89
701.25	295.22
701.58	294.49
701.92	293.70
702.25	293.09
702.59	292.47
702.92	291.85
703.26	291.11
703.59	290.33
703.93	289.92
704.26	289.39
704.60	288.70
704.93	288.10
705.26	287.37
705.60	286.88
705.93	286.24
706.27	285.69
706.60	285.04
706.94	284.57
707.27	283.95
707.61	283.53
707.94	283.01
708.27	282.43
708.61	281.71
708.94	281.15
709.28	280.55
709.61	280.10
709.94	279.64
710.28	279.15
710.61	278.69
710.95	278.00
711.28	277.64
711.61	277.00
711.95	276.40
712.28	275.87
712.61	275.12
712.95	274.74
713.28	274.29
713.61	273.78
713.95	273.21
714.28	272.87
714.61	272.34
714.95	271.92
715.28	271.31
715.61	270.90
715.95	270.42
716.28	270.03
716.61	269.60
716.95	269.10
717.28	268.64
717.61	268.17
717.94	267.67
718.28	267.01
718.61	266.66
718.94	266.37
719.27	266.14
719.61	265.89
719.94	265.42
720.27	265.05
720.60	264.80
720.94	264.53
721.27	264.20
721.60	263.99
721.93	263.66
722.27	263.49
722.60	263.28
722.93	262.97
723.26	262.61
723.59	262.14
723.93	261.89
724.26	261.61
724.59	261.31
724.92	261.13
725.25	260.87
725.59	260.66
725.92	260.42
726.25	260.08
726.58	259.91
726.91	259.66
727.24	259.36
727.57	259.03
727.91	258.69
728.24	258.37
728.57	257.90
728.90	257.63
729.23	257.15
729.56	256.80
729.89	256.62
730.22	256.33
730.55	256.02
730.89	255.69
731.22	255.20
731.55	254.94
731.88	254.56
732.21	254.37
732.54	254.00
732.87	253.60
733.20	253.33
733.53	252.91
733.86	252.61
734.19	252.37
734.52	251.97
734.85	251.83
735.18	251.48
735.51	251.22
735.84	250.91
736.17	250.72
736.50	250.47
736.83	250.35
737.16	250.12
737.49	249.94
737.82	249.73
738.15	249.71
738.48	249.57
738.81	249.37
739.14	249.04
739.47	248.95
739.80	248.75
740.13	248.60
740.46	248.40
740.79	248.15
741.12	247.84
741.45	247.61
741.78	247.28
742.11	247.14
742.44	246.96
742.77	246.73
743.10	246.53
743.43	246.28
743.75	245.80
744.08	245.71
744.41	245.59
744.74	245.36
745.07	245.14
745.40	244.88
745.73	244.72
746.06	244.48
746.39	244.20
746.71	243.99
747.04	243.74
747.37	243.50
747.70	243.39
748.03	243.29
748.36	243.31
748.68	243.08
749.01	242.87
749.34	242.71
749.67	242.54
750.00	242.44
750.33	242.50
750.65	242.32
750.98	242.11
751.31	242.00
751.64	241.86
751.97	241.78
752.29	241.70
752.62	241.50
752.95	241.46
753.28	241.32
753.60	241.23
753.93	241.13
754.26	241.04
754.59	240.79
754.91	240.58
755.24	240.46
755.57	240.34
755.90	240.23
756.22	240.06
756.55	239.96
756.88	239.79
757.20	239.53
757.53	239.42
757.86	239.28
758.19	239.20
758.51	239.07
758.84	238.93
759.17	238.71
759.49	238.59
759.82	238.62
760.15	238.52
760.47	238.45
760.80	238.34
761.13	238.36
761.45	238.36
761.78	238.31
762.11	238.14
762.43	238.11
762.76	238.04
763.08	238.03
763.41	237.98
763.74	237.92
764.06	237.76
764.39	237.77
764.71	237.64
765.04	237.47
765.37	237.32
765.69	237.22
766.02	237.11
766.34	237.05
766.67	236.84
767.00	236.88
767.32	236.79
767.65	236.75
767.97	236.59
768.30	236.51
768.62	236.47
768.95	236.39
769.27	236.26
769.60	236.23
769.92	236.15
770.25	236.04
770.57	235.90
770.90	235.89
771.22	235.81
771.55	235.84
771.87	235.65
772.20	235.60
772.52	235.70
772.85	235.79
773.17	235.66
773.50	235.55
773.82	235.39
774.15	235.38
774.47	235.17
774.80	235.08
775.12	234.94
775.45	234.76
775.77	234.66
776.09	234.59
776.42	234.54
776.74	234.44
777.07	234.32
777.39	234.20
777.72	234.20
778.04	234.17
778.36	234.02
778.69	234.12
779.01	234.15
779.33	233.92
779.66	233.71
779.98	233.72
780.31	233.71
780.63	233.66
780.95	233.55
781.28	233.42
781.60	233.29
781.92	233.27
782.25	233.22
782.57	233.20
782.89	233.06
783.22	232.90
783.54	232.94
783.86	232.93
784.19	232.94
784.51	232.73
784.83	232.58
785.16	232.49
785.48	232.45
785.80	232.27
786.12	232.14
786.45	232.08
786.77	232.07
787.09	231.99
787.42	231.89
787.74	231.87
788.06	231.88
788.38	231.92
788.71	231.84
789.03	231.81
789.35	231.76
789.67	231.78
789.99	231.82
790.32	231.61
790.64	231.62
790.96	231.63
791.28	231.64
791.61	231.56
791.93	231.60
792.25	231.48
792.57	231.67
792.89	231.60
793.21	231.59
793.54	231.49
793.86	231.52
794.18	231.57
794.50	231.45
794.82	231.47
795.14	231.43
795.47	231.45
795.79	231.47
796.11	231.41
796.43	231.37
796.75	231.32
797.07	231.40
797.39	231.35
797.71	231.23
798.04	231.25
798.36	231.21
798.68	231.12
799.00	231.13
799.32	230.92
799.64	231.08
799.96	231.15
800.28	231.27
800.60	231.23
800.92	231.25
801.24	231.23
801.56	231.27
801.89	231.33
802.21	231.25
802.53	231.16
802.85	231.26
803.17	231.35
803.49	231.31
803.81	231.35
804.13	231.34
804.45	231.40
804.77	231.41
805.09	231.45
805.41	231.48
805.73	231.47
806.05	231.47
806.37	231.35
806.69	231.29
807.01	231.17
807.33	231.18
807.65	231.00
807.97	231.06
808.28	230.99
808.60	230.84
808.92	230.84
809.24	231.08
809.56	230.94
809.88	230.83
810.20	230.86
810.52	230.80
810.84	230.74
811.16	230.65
811.48	230.65
811.80	230.70
812.12	230.60
812.43	230.59
812.75	230.49
813.07	230.47
813.39	230.32
813.71	230.17
814.03	230.10
814.35	230.11
814.67	229.98
814.98	229.89
815.30	229.91
815.62	229.88
815.94	229.58
816.26	229.72
816.58	229.66
816.89	229.58
817.21	229.55
817.53	229.52
817.85	229.53
818.17	229.37
818.48	229.32
818.80	229.38
819.12	229.26
819.44	229.25
819.76	229.18
820.07	229.21
820.39	229.28
820.71	229.29
821.03	229.30
821.34	229.33
821.66	229.40
821.98	229.36
822.30	229.25
822.61	229.48
822.93	229.25
823.25	229.25
823.57	229.37
823.88	229.37
824.20	229.34
824.52	229.38
824.83	229.32
825.15	229.18
825.47	229.13
825.79	229.13
826.10	229.10
826.42	229.08
826.74	229.10
827.05	229.00
827.37	228.92
827.69	228.88
828.00	228.86
828.32	228.86
828.64	228.86
828.95	229.00
829.27	228.83
829.58	228.84
829.90	228.81
830.22	228.65
830.53	228.51
830.85	228.47
831.17	228.40
831.48	228.49
831.80	228.58
832.11	228.55
832.43	228.53
832.75	228.53
833.06	228.67
833.38	228.62
833.69	228.67
834.01	228.74
834.32	228.71
834.64	228.69
834.96	228.71
835.27	228.69
835.59	228.65
835.90	228.67
836.22	228.73
836.53	228.80
836.85	228.90
837.16	229.23
837.48	229.27
837.79	229.33
838.11	229.40
838.42	229.39
838.74	229.50
839.05	229.52
839.37	229.48
839.68	229.44
840.00	229.50
840.31	229.63
840.63	229.61
840.94	229.68
841.26	229.71
841.57	229.59
841.88	229.68
842.20	229.66
842.51	229.57
842.83	229.59
843.14	229.70
843.46	229.57
843.77	229.41
844.08	229.49
844.40	229.48
844.71	229.44
845.03	229.49
845.34	229.45
845.65	229.50
845.97	229.66
846.28	229.59
846.60	229.63
846.91	229.58
847.22	229.56
847.54	229.58
847.85	229.64
848.16	229.75
848.48	229.63
848.79	229.74
849.10	229.86
849.42	229.78
849.73	229.67
850.04	229.75
850.36	229.66
850.67	229.62
850.98	229.58
851.30	229.57
851.61	229.58
851.92	229.57
852.23	229.63
852.55	229.54
852.86	229.55
853.17	229.44
853.49	229.43
853.80	229.47
854.11	229.56
854.42	229.56
854.74	229.50
855.05	229.52
855.36	229.39
855.67	229.36
855.99	229.39
856.30	229.55
856.61	229.47
856.92	229.47
857.23	229.47
857.55	229.41
857.86	229.41
858.17	229.41
858.48	229.40
858.79	229.32
859.11	229.30
859.42	229.30
859.73	229.39
860.04	229.36
860.35	229.36
860.66	229.21
860.98	229.10
861.29	229.09
861.60	229.12
861.91	229.17
862.22	229.08
862.53	229.09
862.84	228.84
863.16	228.88
863.47	228.84
863.78	228.78
864.09	228.83
864.40	228.77
864.71	228.70
865.02	228.64
865.33	228.67
865.64	228.62
865.95	228.59
866.27	228.65
866.58	228.64
866.89	228.57
867.20	228.51
867.51	228.50
867.82	228.45
868.13	228.46
868.44	228.31
868.75	228.48
869.06	228.44
869.37	228.49
869.68	228.48
869.99	228.50
870.30	228.50
870.61	228.52
870.92	228.53
871.23	228.46
871.54	228.51
871.85	228.49
872.16	228.60
872.47	228.63
872.78	228.47
873.09	228.50
873.40	228.50
873.71	228.60
874.02	228.66
874.33	228.64
874.64	228.57
874.95	228.69
875.26	228.54
875.56	228.54
875.87	228.60
876.18	228.64
876.49	228.87
876.80	228.85
877.11	228.82
877.42	228.88
877.73	228.88
878.04	228.83
878.35	228.90
878.66	228.91
878.96	228.92
879.27	228.99
879.58	229.04
879.89	229.02
880.20	229.04
880.51	228.95
880.82	229.00
881.12	229.00
881.43	228.96
881.74	228.98
882.05	228.94
882.36	228.98
882.67	228.91
882.97	228.59
883.28	228.60
883.59	228.57
883.90	228.64
884.21	228.75
884.51	228.79
884.82	228.61
885.13	228.53
885.44	228.50
885.74	228.56
886.05	228.52
886.36	228.50
886.67	228.39
886.98	228.56
887.28	228.49
887.59	228.53
887.90	228.60
888.20	228.61
888.51	228.71
888.82	228.60
889.13	228.66
889.43	228.88
889.74	228.85
890.05	228.83
890.35	228.62
890.66	228.55
890.97	228.40
891.28	228.48
891.58	228.48
891.89	228.44
892.20	228.32
892.50	228.26
892.81	228.27
893.12	228.28
893.42	228.11
893.73	228.16
894.04	228.13
894.34	228.11
894.65	228.09
894.95	228.01
895.26	228.02
895.57	228.10
895.87	227.97
896.18	227.92
896.48	227.87
896.79	227.90
897.10	227.90
897.40	227.98
897.71	228.00
898.01	228.04
898.32	228.10
898.63	228.12
898.93	228.14
899.24	228.11
899.54	228.11
899.85	228.12
900.15	228.09
900.46	228.00
900.76	228.02
901.07	228.06
901.38	228.18
901.68	228.18
901.99	227.91
902.29	227.80
902.60	227.87
902.90	227.90
903.21	227.96
903.51	227.88
903.82	227.86
904.12	227.88
904.43	227.81
904.73	227.80
905.03	227.77
905.34	227.90
905.64	227.83
905.95	227.85
906.25	227.86
906.56	227.91
906.86	228.00
907.17	227.94
907.47	227.90
907.77	227.74
908.08	227.69
908.38	227.78
908.69	227.96
908.99	227.96
909.30	227.97
909.60	227.92
909.90	228.11
910.21	228.04
910.51	227.97
910.81	227.99
911.12	227.89
911.42	227.90
911.73	227.74
912.03	227.90
912.33	227.96
912.64	227.98
912.94	227.91
913.24	227.86
913.55	227.93
913.85	227.92
914.15	227.98
914.46	227.96
914.76	228.00
915.06	227.95
915.37	227.98
915.67	227.97
915.97	228.00
916.27	227.96
916.58	228.07
916.88	228.14
917.18	228.28
917.49	228.49
917.79	228.52
918.09	228.57
918.39	228.60
918.70	228.54
919.00	228.62
919.30	228.80
919.60	228.82
919.91	228.83
920.21	228.99
920.51	229.01
920.81	229.09
921.12	229.18
921.42	229.18
921.72	229.27
922.02	229.42
922.32	229.55
922.63	229.55
922.93	229.63
923.23	229.66
923.53	229.52
923.83	229.35
924.13	229.32
924.44	229.36
924.74	229.42
925.04	229.55
925.34	229.45
925.64	229.50
925.94	229.50
926.24	229.61
926.55	229.44
926.85	229.51
927.15	229.51
927.45	229.42
927.75	229.43
928.05	229.35
928.35	229.24
928.65	229.12
928.95	229.12
929.26	229.08
929.56	229.02
929.86	229.04
930.16	229.07
930.46	229.12
930.76	229.05
931.06	228.82
931.36	228.75
931.66	228.85
931.96	228.73
932.26	228.80
932.56	228.63
932.86	228.59
933.16	228.44
933.46	228.43
933.76	228.45
934.06	228.38
934.36	228.40
934.66	228.39
934.96	228.41
935.26	228.40
935.56	228.39
935.86	228.40
936.16	228.35
936.46	228.35
936.76	228.34
937.06	228.32
937.36	228.32
937.66	228.30
937.96	228.22
938.26	228.08
938.56	227.99
938.86	227.97
939.16	228.09
939.46	228.17
939.76	228.19
940.06	228.14
940.35	228.16
940.65	228.06
940.95	228.01
941.25	227.90
941.55	227.73
941.85	227.63
942.15	227.60
942.45	227.69
942.75	227.65
943.04	227.54
943.34	227.46
943.64	227.49
943.94	227.43
944.24	227.39
944.54	227.48
944.84	227.52
945.13	227.50
945.43	227.37
945.73	227.42
946.03	227.40
946.33	227.36
946.62	227.40
946.92	227.36
947.22	227.46
947.52	227.50
947.82	227.59
948.11	227.63
948.41	227.51
948.71	227.52
949.01	227.61
949.31	227.67
949.60	227.73
949.90	227.84
950.20	227.88
950.50	227.90
950.79	227.96
951.09	227.98
951.39	227.94
951.69	228.03
951.98	228.03
952.28	228.13
952.58	228.22
952.87	228.20
953.17	228.31
953.47	228.26
953.76	228.35
954.06	228.33
954.36	228.40
954.66	228.54
954.95	228.64
955.25	228.65
955.55	228.72
955.84	228.74
956.14	228.80
956.44	228.80
956.73	228.89
957.03	228.86
957.32	228.95
957.62	228.99
957.92	229.06
958.21	229.06
958.51	229.20
958.81	229.26
959.10	229.26
959.40	229.31
959.69	229.33
959.99	229.35
960.29	229.38
960.58	229.34
960.88	229.42
961.17	229.29
961.47	229.26
961.76	229.25
962.06	229.29
962.36	229.15
962.65	229.16
962.95	229.10
963.24	229.14
963.54	229.12
963.83	229.17
964.13	229.13
964.42	229.06
964.72	228.93
965.01	228.82
965.31	228.80
965.60	228.74
965.90	228.80
966.19	228.76
966.49	228.79
966.78	228.70
967.08	228.67
967.37	228.71
967.67	228.73
967.96	228.76
968.26	228.80
968.55	228.85
968.85	228.82
969.14	228.76
969.43	228.66
969.73	228.58
970.02	228.56
970.32	228.47
970.61	228.26
970.91	228.14
971.20	228.08
971.49	227.99
971.79	228.12
972.08	228.01
972.38	228.01
972.67	228.00
972.96	228.09
973.26	227.94
973.55	228.01
973.85	227.96
974.14	227.85
974.43	227.77
974.73	227.66
975.02	227.62
975.31	227.68
975.61	227.66
975.90	227.67
976.19	227.62
976.49	227.69
976.78	227.80
977.07	227.73
977.37	227.76
977.66	227.82
977.95	227.61
978.24	227.54
978.54	227.53
978.83	227.47
979.12	227.45
979.42	227.48
979.71	227.34
980.00	227.29
980.29	227.37
980.59	227.43
980.88	227.59
981.17	227.71
981.46	227.63
981.76	227.68
982.05	227.72
982.34	227.76
982.63	227.77
982.93	227.84
983.22	227.96
983.51	228.03
983.80	227.98
984.09	228.07
984.39	228.20
984.68	228.26
984.97	228.33
985.26	228.37
985.55	228.46
985.85	228.47
986.14	228.56
986.43	228.50
986.72	228.45
987.01	228.42
987.30	228.38
987.59	228.41
987.89	228.37
988.18	228.39
988.47	228.32
988.76	228.34
989.05	228.38
989.34	228.40
989.63	228.50
989.92	228.66
990.22	228.65
990.51	228.75
990.80	228.77
991.09	228.87
991.38	228.90
991.67	228.81
991.96	228.90
992.25	228.95
992.54	229.02
992.83	229.01
993.12	228.94
993.41	229.01
993.70	229.15
993.99	229.25
994.28	229.20
994.58	229.32
994.87	229.30
995.16	229.30
995.45	229.30
995.74	229.29
996.03	229.22
996.32	229.28
996.61	229.25
996.90	229.18
997.19	229.11
997.48	229.05
997.77	229.05
998.06	229.00
998.34	228.94
998.63	228.79
998.92	228.86
999.21	228.84
999.50	228.77
999.79	228.69
1000.08	228.63
1000.37	228.66
1000.66	228.60
1000.95	228.65
1001.24	228.71
1001.53	228.75
1001.82	228.64
1002.11	228.67
1002.40	228.66
1002.68	228.64
1002.97	228.76
1003.26	228.68
1003.55	228.72
1003.84	228.80
1004.13	228.78
1004.42	228.75
1004.71	228.90
1004.99	228.78
1005.28	228.84
1005.57	228.87
1005.86	228.78
1006.15	228.77
1006.44	228.69
1006.72	228.73
1007.01	228.55
1007.30	228.41
1007.59	228.25
1007.88	228.25
1008.17	228.20
1008.45	228.08
1008.74	227.88
1009.03	227.76
1009.32	227.80
1009.60	227.63
1009.89	227.55
1010.18	227.53
1010.47	227.47
1010.76	227.40
1011.04	227.43
1011.33	227.36
1011.62	227.32
1011.91	227.44
1012.19	227.47
1012.48	227.49
1012.77	227.39
1013.05	227.48
1013.34	227.46
1013.63	227.43
1013.92	227.46
1014.20	227.45
1014.49	227.43
1014.78	227.51
1015.06	227.53
1015.35	227.46
1015.64	227.59
1015.92	227.58
1016.21	227.45
1016.50	227.52
1016.78	227.47
1017.07	227.43
1017.36	227.42
1017.64	227.36
1017.93	227.38
1018.22	227.35
1018.50	227.36
1018.79	227.46
1019.08	227.47
1019.36	227.53
1019.65	227.62
1019.93	227.59
1020.22	227.56
1020.51	227.69
1020.79	227.70
1021.08	227.90
1021.36	227.80
1021.65	228.80
1021.94	228.30
1022.22	227.60
1022.51	228.40
1022.79	227.70
1023.08	227.20
1023.36	229.60
1023.65	227.40
>>>>>End Processed Spectral Data<<<<<
