SpectraSuite Data File
++++++++++++++++++++++++++++++++++++
Date: Fri Feb 01 14:41:16 EST 2013
User: group
Dark Spectrum Present: No
Reference Spectrum Present: No
Number of Sampled Component Spectra: 1
Spectrometers: USB2E7196
Integration Time (usec): 70000 (USB2E7196)
Spectra Averaged: 10 (USB2E7196)
Boxcar Smoothing: 10 (USB2E7196)
Correct for Electrical Dark: No (USB2E7196)
Strobe/Lamp Enabled: No (USB2E7196)
Correct for Detector Non-linearity: No (USB2E7196)
Correct for Stray Light: No (USB2E7196)
Number of Pixels in Processed Spectrum: 2048
>>>>>Begin Processed Spectral Data<<<<<
339.09	0.00
339.48	216.90
339.86	216.80
340.24	219.20
340.63	218.70
341.01	226.50
341.39	223.20
341.78	224.60
342.16	225.60
342.54	227.90
342.93	214.69
343.31	225.51
343.69	226.00
344.07	226.55
344.46	227.02
344.84	227.49
345.22	227.59
345.60	227.85
345.99	228.05
346.37	228.24
346.75	228.20
347.13	228.25
347.52	228.47
347.90	228.56
348.28	228.60
348.66	228.60
349.05	228.63
349.43	228.67
349.81	228.74
350.19	228.72
350.57	228.82
350.96	228.89
351.34	229.05
351.72	229.19
352.10	229.35
352.48	229.43
352.87	229.55
353.25	229.54
353.63	229.67
354.01	229.69
354.39	229.71
354.77	229.88
355.15	229.91
355.54	229.88
355.92	230.01
356.30	230.21
356.68	230.41
357.06	230.44
357.44	230.58
357.82	230.71
358.20	230.75
358.58	230.67
358.97	230.87
359.35	230.94
359.73	230.97
360.11	230.84
360.49	230.92
360.87	230.95
361.25	231.10
361.63	231.12
362.01	231.25
362.39	231.24
362.77	231.33
363.15	231.35
363.53	231.40
363.91	231.42
364.29	231.34
364.67	231.22
365.05	231.31
365.43	231.36
365.81	231.27
366.19	231.40
366.57	231.41
366.95	231.31
367.33	231.21
367.71	231.26
368.09	231.39
368.47	231.33
368.85	231.26
369.23	231.13
369.61	231.06
369.99	231.05
370.37	231.06
370.75	231.00
371.13	231.03
371.51	230.95
371.89	230.86
372.27	230.76
372.65	230.66
373.03	230.58
373.41	230.49
373.78	230.37
374.16	230.20
374.54	230.15
374.92	230.01
375.30	229.92
375.68	229.72
376.06	229.69
376.44	229.56
376.82	229.50
377.19	229.56
377.57	229.43
377.95	229.20
378.33	229.19
378.71	229.00
379.09	228.82
379.47	228.85
379.84	228.71
380.22	228.57
380.60	228.49
380.98	228.45
381.36	228.30
381.73	228.27
382.11	228.21
382.49	228.16
382.87	228.04
383.25	228.00
383.62	228.21
384.00	228.04
384.38	228.02
384.76	228.11
385.13	228.05
385.51	227.93
385.89	228.00
386.27	227.83
386.64	227.80
387.02	227.75
387.40	227.61
387.78	227.67
388.15	227.80
388.53	227.85
388.91	227.69
389.29	227.59
389.66	227.63
390.04	227.63
390.42	227.69
390.79	227.79
391.17	227.79
391.55	227.62
391.92	227.59
392.30	227.58
392.68	227.50
393.05	227.50
393.43	227.67
393.81	227.58
394.18	227.64
394.56	227.80
394.94	227.92
395.31	228.01
395.69	228.09
396.06	228.03
396.44	228.11
396.82	228.21
397.19	228.47
397.57	228.52
397.95	228.58
398.32	228.60
398.70	228.70
399.07	228.80
399.45	228.81
399.82	228.92
400.20	229.02
400.58	229.02
400.95	229.09
401.33	229.17
401.70	229.51
402.08	229.62
402.45	229.65
402.83	229.82
403.20	229.90
403.58	229.94
403.95	230.25
404.33	230.30
404.71	230.40
405.08	230.62
405.46	230.82
405.83	230.92
406.21	231.02
406.58	231.26
406.96	231.45
407.33	231.71
407.70	231.99
408.08	232.31
408.45	232.55
408.83	232.90
409.20	233.10
409.58	233.20
409.95	233.53
410.33	233.83
410.70	234.12
411.08	234.47
411.45	234.84
411.82	235.10
412.20	235.50
412.57	236.07
412.95	236.34
413.32	236.80
413.69	237.33
414.07	237.88
414.44	238.32
414.82	238.96
415.19	239.67
415.56	240.35
415.94	240.90
416.31	241.78
416.68	242.37
417.06	243.21
417.43	244.00
417.81	244.91
418.18	245.86
418.55	246.75
418.93	247.71
419.30	248.82
419.67	249.91
420.04	251.12
420.42	252.27
420.79	253.72
421.16	255.04
421.54	256.54
421.91	258.00
422.28	259.44
422.66	260.89
423.03	262.35
423.40	263.88
423.77	265.53
424.15	267.16
424.52	268.87
424.89	270.84
425.26	272.60
425.64	274.25
426.01	276.07
426.38	278.04
426.75	280.06
427.13	281.96
427.50	284.13
427.87	286.35
428.24	288.54
428.61	290.57
428.99	292.88
429.36	295.32
429.73	297.78
430.10	300.16
430.47	302.69
430.85	305.27
431.22	307.90
431.59	310.83
431.96	313.57
432.33	316.70
432.70	319.58
433.08	323.14
433.45	326.33
433.82	329.47
434.19	332.80
434.56	336.19
434.93	339.37
435.30	342.34
435.68	345.72
436.05	349.10
436.42	352.30
436.79	355.34
437.16	358.50
437.53	361.99
437.90	365.34
438.27	368.47
438.64	371.78
439.01	374.95
439.38	377.44
439.75	379.86
440.13	382.78
440.50	385.53
440.87	387.65
441.24	389.91
441.61	392.32
441.98	394.14
442.35	396.30
442.72	398.33
443.09	400.65
443.46	401.80
443.83	402.40
444.20	402.99
444.57	403.84
444.94	404.10
445.31	404.36
445.68	404.73
446.05	404.81
446.42	404.18
446.79	403.49
447.16	402.90
447.53	402.55
447.90	401.10
448.27	399.52
448.64	397.54
449.01	396.39
449.37	394.23
449.74	391.88
450.11	389.07
450.48	386.17
450.85	383.00
451.22	380.43
451.59	378.16
451.96	375.86
452.33	372.77
452.70	369.94
453.07	366.45
453.43	362.91
453.80	359.62
454.17	356.57
454.54	353.53
454.91	350.41
455.28	347.22
455.65	344.20
456.02	341.48
456.38	338.76
456.75	335.40
457.12	332.59
457.49	330.08
457.86	327.49
458.23	325.41
458.59	322.99
458.96	320.44
459.33	318.11
459.70	315.97
460.07	314.23
460.43	312.14
460.80	310.32
461.17	308.75
461.54	306.99
461.91	305.22
462.27	303.45
462.64	301.94
463.01	300.31
463.38	298.78
463.74	296.92
464.11	295.61
464.48	294.28
464.85	293.00
465.21	292.00
465.58	291.00
465.95	289.54
466.32	288.40
466.68	287.38
467.05	286.24
467.42	285.14
467.78	283.93
468.15	282.83
468.52	281.95
468.88	280.76
469.25	279.77
469.62	278.98
469.98	278.20
470.35	277.30
470.72	276.44
471.08	275.51
471.45	274.80
471.82	274.15
472.18	273.44
472.55	272.72
472.92	271.87
473.28	271.15
473.65	270.52
474.02	269.89
474.38	269.38
474.75	268.91
475.11	268.27
475.48	267.90
475.85	267.47
476.21	267.05
476.58	266.74
476.94	266.33
477.31	266.00
477.67	265.70
478.04	265.36
478.41	265.10
478.77	265.11
479.14	264.92
479.50	264.74
479.87	264.60
480.23	264.51
480.60	264.47
480.96	264.40
481.33	264.49
481.69	264.61
482.06	264.56
482.42	264.56
482.79	264.74
483.15	264.79
483.52	265.10
483.88	265.21
484.25	265.43
484.61	265.80
484.98	265.97
485.34	266.33
485.71	266.74
486.07	267.16
486.44	267.46
486.80	267.86
487.17	268.30
487.53	268.78
487.90	269.45
488.26	270.11
488.62	270.78
488.99	271.49
489.35	272.09
489.72	272.81
490.08	273.77
490.44	274.68
490.81	275.72
491.17	276.79
491.54	277.99
491.90	279.16
492.26	280.46
492.63	281.83
492.99	283.17
493.36	284.66
493.72	286.26
494.08	287.99
494.45	289.80
494.81	291.77
495.17	293.68
495.54	295.72
495.90	297.90
496.26	300.23
496.63	302.77
496.99	305.46
497.35	308.24
497.72	311.00
498.08	313.88
498.44	316.82
498.80	320.05
499.17	323.43
499.53	326.85
499.89	330.38
500.26	334.21
500.62	338.07
500.98	342.31
501.34	346.53
501.71	350.99
502.07	355.87
502.43	360.70
502.79	365.81
503.16	371.04
503.52	376.51
503.88	382.05
504.24	387.75
504.60	393.90
504.97	400.15
505.33	406.79
505.69	413.69
506.05	420.72
506.41	427.84
506.78	435.24
507.14	443.01
507.50	451.02
507.86	459.21
508.22	467.74
508.59	476.25
508.95	485.40
509.31	494.62
509.67	503.96
510.03	513.92
510.39	523.84
510.75	534.23
511.12	544.60
511.48	555.49
511.84	566.63
512.20	577.75
512.56	589.36
512.92	600.94
513.28	613.02
513.64	625.74
514.00	638.28
514.37	651.06
514.73	663.85
515.09	676.96
515.45	690.34
515.81	704.03
516.17	718.18
516.53	732.13
516.89	746.20
517.25	760.71
517.61	774.96
517.97	789.86
518.33	804.47
518.69	819.69
519.05	835.18
519.41	850.79
519.77	866.97
520.13	883.06
520.49	899.14
520.85	915.21
521.21	931.26
521.57	948.06
521.93	964.67
522.29	982.12
522.65	998.99
523.01	1015.84
523.37	1032.69
523.73	1049.77
524.09	1066.90
524.45	1084.50
524.81	1102.15
525.17	1120.29
525.53	1138.41
525.89	1157.10
526.25	1175.33
526.61	1192.95
526.97	1211.59
527.33	1229.45
527.68	1247.89
528.04	1266.35
528.40	1285.06
528.76	1304.18
529.12	1322.97
529.48	1341.78
529.84	1360.04
530.20	1378.99
530.56	1398.81
530.91	1418.84
531.27	1438.32
531.63	1457.66
531.99	1476.81
532.35	1495.35
532.71	1513.60
533.07	1532.74
533.42	1551.10
533.78	1569.76
534.14	1588.75
534.50	1606.37
534.86	1624.90
535.21	1642.64
535.57	1661.27
535.93	1679.66
536.29	1697.45
536.65	1715.19
537.00	1732.68
537.36	1750.53
537.72	1768.35
538.08	1785.19
538.44	1801.53
538.79	1818.36
539.15	1834.81
539.51	1851.84
539.87	1869.03
540.22	1885.88
540.58	1902.39
540.94	1918.52
541.29	1934.33
541.65	1949.94
542.01	1966.43
542.37	1981.99
542.72	1997.91
543.08	2012.72
543.44	2027.55
543.79	2041.17
544.15	2055.82
544.51	2070.88
544.87	2085.32
545.22	2098.92
545.58	2112.32
545.94	2125.80
546.29	2138.80
546.65	2152.09
547.01	2164.65
547.36	2176.52
547.72	2188.34
548.07	2199.64
548.43	2211.56
548.79	2223.01
549.14	2234.26
549.50	2244.32
549.86	2254.47
550.21	2264.57
550.57	2275.20
550.92	2285.19
551.28	2295.29
551.64	2304.75
551.99	2314.30
552.35	2323.49
552.70	2332.60
553.06	2341.70
553.41	2350.84
553.77	2359.51
554.13	2368.10
554.48	2376.77
554.84	2385.28
555.19	2393.82
555.55	2401.91
555.90	2408.88
556.26	2416.63
556.61	2424.13
556.97	2431.44
557.32	2439.20
557.68	2446.22
558.03	2452.90
558.39	2459.64
558.74	2467.78
559.10	2474.93
559.45	2481.12
559.81	2488.23
560.16	2493.94
560.52	2499.90
560.87	2505.81
561.23	2511.03
561.58	2516.45
561.94	2520.90
562.29	2525.19
562.64	2529.53
563.00	2533.66
563.35	2539.30
563.71	2544.28
564.06	2549.28
564.42	2554.01
564.77	2558.28
565.12	2562.79
565.48	2566.72
565.83	2569.69
566.19	2572.30
566.54	2574.62
566.89	2577.13
567.25	2578.55
567.60	2582.22
567.96	2584.57
568.31	2586.48
568.66	2588.37
569.02	2590.25
569.37	2591.84
569.72	2593.98
570.08	2595.45
570.43	2596.85
570.78	2596.93
571.14	2596.73
571.49	2596.60
571.84	2597.25
572.20	2596.71
572.55	2595.64
572.90	2594.67
573.26	2594.31
573.61	2593.05
573.96	2591.94
574.31	2589.80
574.67	2587.69
575.02	2584.58
575.37	2582.32
575.72	2578.95
576.08	2576.72
576.43	2573.33
576.78	2570.56
577.13	2567.78
577.49	2564.78
577.84	2561.64
578.19	2558.32
578.54	2554.72
578.90	2550.41
579.25	2545.20
579.60	2540.99
579.95	2536.34
580.30	2531.68
580.66	2526.50
581.01	2521.19
581.36	2516.06
581.71	2512.14
582.06	2507.51
582.42	2502.68
582.77	2496.97
583.12	2492.04
583.47	2487.10
583.82	2482.78
584.17	2477.04
584.53	2471.62
584.88	2465.81
585.23	2460.33
585.58	2454.80
585.93	2449.22
586.28	2444.16
586.63	2439.53
586.98	2433.77
587.34	2428.60
587.69	2423.16
588.04	2417.76
588.39	2412.81
588.74	2406.01
589.09	2399.17
589.44	2392.37
589.79	2386.61
590.14	2381.28
590.49	2374.99
590.84	2368.11
591.19	2361.28
591.54	2353.99
591.89	2345.90
592.25	2339.18
592.60	2331.11
592.95	2322.99
593.30	2315.25
593.65	2307.10
594.00	2298.90
594.35	2291.57
594.70	2283.10
595.05	2275.54
595.40	2267.57
595.75	2259.15
596.10	2252.38
596.45	2245.11
596.80	2238.58
597.15	2231.09
597.50	2223.03
597.85	2216.15
598.19	2208.71
598.54	2201.34
598.89	2194.95
599.24	2188.56
599.59	2181.64
599.94	2174.57
600.29	2167.65
600.64	2160.03
600.99	2152.02
601.34	2144.62
601.69	2136.78
602.04	2129.87
602.39	2122.24
602.74	2115.18
603.08	2108.38
603.43	2101.46
603.78	2094.19
604.13	2085.78
604.48	2077.72
604.83	2069.81
605.18	2061.89
605.53	2053.43
605.87	2044.42
606.22	2035.60
606.57	2026.97
606.92	2017.92
607.27	2009.72
607.62	2001.68
607.96	1993.95
608.31	1986.74
608.66	1978.03
609.01	1969.28
609.36	1959.92
609.70	1950.07
610.05	1940.15
610.40	1930.69
610.75	1920.96
611.10	1911.24
611.44	1901.95
611.79	1892.77
612.14	1883.47
612.49	1872.74
612.83	1862.97
613.18	1853.90
613.53	1844.99
613.88	1835.16
614.22	1825.81
614.57	1816.35
614.92	1807.03
615.27	1797.70
615.61	1787.87
615.96	1778.71
616.31	1769.90
616.65	1761.81
617.00	1753.37
617.35	1745.16
617.70	1735.83
618.04	1726.21
618.39	1717.24
618.74	1708.40
619.08	1699.23
619.43	1690.57
619.78	1682.93
620.12	1674.66
620.47	1665.59
620.82	1656.38
621.16	1647.80
621.51	1639.53
621.85	1630.75
622.20	1621.07
622.55	1612.17
622.89	1603.81
623.24	1595.45
623.59	1586.73
623.93	1578.02
624.28	1569.45
624.62	1560.45
624.97	1552.42
625.32	1544.60
625.66	1536.34
626.01	1527.90
626.35	1519.30
626.70	1511.02
627.04	1502.39
627.39	1493.54
627.73	1485.22
628.08	1476.93
628.43	1468.59
628.77	1459.60
629.12	1450.49
629.46	1442.00
629.81	1432.70
630.15	1423.55
630.50	1414.37
630.84	1405.36
631.19	1395.61
631.53	1386.93
631.88	1377.73
632.22	1368.22
632.57	1359.31
632.91	1350.15
633.26	1341.44
633.60	1332.27
633.95	1323.36
634.29	1314.67
634.64	1306.67
634.98	1297.99
635.32	1289.82
635.67	1281.94
636.01	1274.07
636.36	1266.40
636.70	1259.10
637.05	1251.71
637.39	1244.27
637.73	1236.62
638.08	1229.34
638.42	1222.66
638.77	1215.17
639.11	1207.99
639.45	1200.85
639.80	1192.94
640.14	1185.54
640.49	1177.98
640.83	1170.62
641.17	1163.32
641.52	1155.75
641.86	1148.16
642.20	1140.95
642.55	1133.24
642.89	1125.53
643.23	1117.69
643.58	1110.55
643.92	1103.04
644.26	1095.73
644.61	1088.70
644.95	1081.71
645.29	1073.85
645.64	1066.01
645.98	1058.53
646.32	1051.46
646.66	1043.90
647.01	1037.17
647.35	1030.40
647.69	1023.24
648.04	1016.57
648.38	1009.18
648.72	1001.94
649.06	994.62
649.41	987.64
649.75	980.49
650.09	973.22
650.43	966.11
650.78	958.70
651.12	951.43
651.46	944.59
651.80	937.43
652.14	930.56
652.49	924.11
652.83	917.63
653.17	910.58
653.51	903.79
653.85	897.02
654.20	890.11
654.54	882.93
654.88	876.40
655.22	869.50
655.56	862.72
655.90	856.44
656.25	850.10
656.59	843.80
656.93	837.83
657.27	831.93
657.61	825.57
657.95	819.82
658.29	813.91
658.64	807.77
658.98	801.23
659.32	794.87
659.66	788.87
660.00	782.69
660.34	776.83
660.68	770.91
661.02	765.14
661.36	759.49
661.70	754.04
662.05	748.64
662.39	743.31
662.73	737.97
663.07	732.52
663.41	727.56
663.75	722.20
664.09	716.87
664.43	711.50
664.77	706.67
665.11	701.63
665.45	696.73
665.79	691.78
666.13	687.26
666.47	682.37
666.81	677.27
667.15	672.26
667.49	667.65
667.83	663.17
668.17	658.75
668.51	654.04
668.85	649.40
669.19	644.82
669.53	640.25
669.87	635.64
670.21	631.24
670.55	626.67
670.89	622.65
671.23	618.43
671.57	614.39
671.91	610.47
672.25	606.22
672.58	602.04
672.92	598.00
673.26	594.10
673.60	590.40
673.94	586.79
674.28	583.36
674.62	579.86
674.96	575.92
675.30	572.40
675.64	568.80
675.97	565.21
676.31	561.71
676.65	558.09
676.99	554.95
677.33	551.70
677.67	548.23
678.01	544.54
678.34	541.10
678.68	537.78
679.02	534.13
679.36	530.86
679.70	527.61
680.04	524.39
680.37	521.07
680.71	517.69
681.05	514.60
681.39	511.53
681.73	508.49
682.06	505.61
682.40	502.56
682.74	499.54
683.08	496.88
683.42	493.70
683.75	491.10
684.09	487.98
684.43	484.82
684.77	481.99
685.10	479.22
685.44	476.40
685.78	473.57
686.12	470.94
686.45	468.19
686.79	465.52
687.13	462.88
687.46	460.12
687.80	457.43
688.14	454.65
688.48	452.04
688.81	449.17
689.15	446.80
689.49	444.14
689.82	441.82
690.16	439.15
690.50	436.91
690.83	434.48
691.17	432.20
691.51	429.94
691.84	427.67
692.18	425.35
692.52	423.06
692.85	420.71
693.19	418.49
693.52	416.25
693.86	413.98
694.20	411.70
694.53	409.44
694.87	407.50
695.21	405.57
695.54	403.27
695.88	401.02
696.21	398.81
696.55	396.83
696.88	394.75
697.22	392.75
697.56	390.69
697.89	388.60
698.23	386.60
698.56	384.54
698.90	382.70
699.23	380.50
699.57	378.63
699.90	376.77
700.24	374.98
700.58	373.19
700.91	371.39
701.25	369.77
701.58	368.32
701.92	366.46
702.25	364.64
702.59	363.14
702.92	361.77
703.26	360.26
703.59	358.65
703.93	357.37
704.26	355.89
704.60	354.31
704.93	352.75
705.26	351.24
705.60	350.16
705.93	348.77
706.27	347.60
706.60	346.32
706.94	345.00
707.27	343.52
707.61	342.18
707.94	340.90
708.27	339.40
708.61	337.89
708.94	336.63
709.28	335.34
709.61	334.05
709.94	332.96
710.28	331.70
710.61	330.46
710.95	328.94
711.28	327.87
711.61	326.75
711.95	325.61
712.28	324.44
712.61	322.93
712.95	321.76
713.28	320.70
713.61	319.50
713.95	318.45
714.28	317.37
714.61	316.23
714.95	315.16
715.28	314.24
715.61	313.19
715.95	312.22
716.28	311.17
716.61	310.25
716.95	309.17
717.28	308.12
717.61	307.30
717.94	306.48
718.28	305.30
718.61	304.34
718.94	303.49
719.27	302.62
719.61	302.10
719.94	301.12
720.27	300.21
720.60	299.30
720.94	298.32
721.27	297.61
721.60	296.90
721.93	296.29
722.27	295.53
722.60	294.88
722.93	294.13
723.26	293.42
723.59	292.56
723.93	291.88
724.26	291.03
724.59	290.23
724.92	289.47
725.25	288.86
725.59	288.19
725.92	287.49
726.25	286.89
726.58	286.09
726.91	285.45
727.24	284.83
727.57	284.18
727.91	283.58
728.24	282.98
728.57	282.26
728.90	281.52
729.23	280.74
729.56	280.15
729.89	279.59
730.22	278.96
730.55	278.38
730.89	277.76
731.22	277.36
731.55	276.71
731.88	276.00
732.21	275.39
732.54	274.81
732.87	274.35
733.20	273.80
733.53	273.23
733.86	272.80
734.19	272.27
734.52	271.86
734.85	271.56
735.18	271.00
735.51	270.64
735.84	270.21
736.17	269.89
736.50	269.31
736.83	269.08
737.16	268.62
737.49	268.20
737.82	267.64
738.15	267.13
738.48	266.63
738.81	266.25
739.14	265.85
739.47	265.51
739.80	265.17
740.13	264.80
740.46	264.42
740.79	263.92
741.12	263.60
741.45	263.25
741.78	262.73
742.11	262.32
742.44	261.94
742.77	261.56
743.10	261.19
743.43	260.88
743.75	260.27
744.08	260.17
744.41	259.81
744.74	259.58
745.07	259.30
745.40	259.08
745.73	258.89
746.06	258.59
746.39	258.26
746.71	257.84
747.04	257.46
747.37	257.14
747.70	256.76
748.03	256.30
748.36	256.02
748.68	255.73
749.01	255.50
749.34	255.07
749.67	254.77
750.00	254.50
750.33	254.25
750.65	254.00
750.98	253.40
751.31	253.17
751.64	252.89
751.97	252.65
752.29	252.39
752.62	251.95
752.95	251.65
753.28	251.37
753.60	251.06
753.93	250.88
754.26	250.60
754.59	250.33
754.91	250.15
755.24	249.78
755.57	249.60
755.90	249.30
756.22	249.03
756.55	248.72
756.88	248.39
757.20	248.14
757.53	247.75
757.86	247.68
758.19	247.41
758.51	247.15
758.84	246.81
759.17	246.62
759.49	246.45
759.82	246.31
760.15	246.11
760.47	245.95
760.80	245.62
761.13	245.53
761.45	245.40
761.78	245.19
762.11	245.03
762.43	244.72
762.76	244.55
763.08	244.46
763.41	244.43
763.74	244.33
764.06	244.07
764.39	243.96
764.71	243.75
765.04	243.54
765.37	243.36
765.69	243.19
766.02	242.97
766.34	242.75
766.67	242.58
767.00	242.44
767.32	242.41
767.65	242.43
767.97	242.10
768.30	241.96
768.62	241.77
768.95	241.62
769.27	241.57
769.60	241.43
769.92	241.23
770.25	240.96
770.57	240.68
770.90	240.58
771.22	240.45
771.55	240.19
771.87	240.11
772.20	239.97
772.52	240.00
772.85	240.04
773.17	239.90
773.50	239.76
773.82	239.50
774.15	239.23
774.47	238.83
774.80	238.80
775.12	238.79
775.45	238.64
775.77	238.44
776.09	238.17
776.42	237.96
776.74	237.79
777.07	237.58
777.39	237.48
777.72	237.19
778.04	237.11
778.36	236.97
778.69	236.90
779.01	236.73
779.33	236.42
779.66	236.13
779.98	236.07
780.31	235.89
780.63	235.89
780.95	235.82
781.28	235.75
781.60	235.64
781.92	235.48
782.25	235.39
782.57	235.39
782.89	235.41
783.22	235.30
783.54	235.28
783.86	235.29
784.19	235.26
784.51	235.39
784.83	235.27
785.16	235.32
785.48	235.22
785.80	235.20
786.12	235.28
786.45	235.18
786.77	235.14
787.09	235.04
787.42	234.91
787.74	234.95
788.06	234.95
788.38	234.81
788.71	234.70
789.03	234.68
789.35	234.61
789.67	234.45
789.99	234.42
790.32	234.36
790.64	234.35
790.96	234.49
791.28	234.38
791.61	234.30
791.93	234.32
792.25	234.26
792.57	234.23
792.89	234.16
793.21	234.15
793.54	234.10
793.86	234.02
794.18	234.09
794.50	233.92
794.82	233.80
795.14	233.87
795.47	233.92
795.79	233.93
796.11	233.87
796.43	233.80
796.75	233.88
797.07	233.83
797.39	233.80
797.71	233.63
798.04	233.66
798.36	233.68
798.68	233.58
799.00	233.56
799.32	233.54
799.64	233.54
799.96	233.55
800.28	233.53
800.60	233.53
800.92	233.47
801.24	233.40
801.56	233.56
801.89	233.43
802.21	233.38
802.53	233.37
802.85	233.34
803.17	233.44
803.49	233.30
803.81	233.28
804.13	233.28
804.45	233.14
804.77	233.03
805.09	233.05
805.41	233.01
805.73	233.04
806.05	232.96
806.37	232.87
806.69	232.76
807.01	232.68
807.33	232.66
807.65	232.52
807.97	232.60
808.28	232.47
808.60	232.41
808.92	232.35
809.24	232.38
809.56	232.26
809.88	232.19
810.20	232.18
810.52	232.18
810.84	231.95
811.16	231.98
811.48	232.01
811.80	232.01
812.12	231.93
812.43	231.88
812.75	231.77
813.07	231.66
813.39	231.58
813.71	231.50
814.03	231.46
814.35	231.42
814.67	231.26
814.98	231.17
815.30	231.07
815.62	230.94
815.94	230.68
816.26	230.86
816.58	230.69
816.89	230.63
817.21	230.52
817.53	230.45
817.85	230.39
818.17	230.25
818.48	230.11
818.80	230.10
819.12	229.92
819.44	229.94
819.76	229.92
820.07	229.99
820.39	229.94
820.71	229.84
821.03	229.80
821.34	229.74
821.66	229.82
821.98	229.90
822.30	229.85
822.61	230.00
822.93	229.80
823.25	229.87
823.57	229.86
823.88	229.89
824.20	229.95
824.52	229.93
824.83	229.92
825.15	229.76
825.47	229.70
825.79	229.72
826.10	229.60
826.42	229.57
826.74	229.51
827.05	229.60
827.37	229.65
827.69	229.70
828.00	229.81
828.32	229.78
828.64	229.68
828.95	229.77
829.27	229.67
829.58	229.71
829.90	229.79
830.22	229.69
830.53	229.54
830.85	229.52
831.17	229.40
831.48	229.33
831.80	229.54
832.11	229.55
832.43	229.60
832.75	229.68
833.06	229.82
833.38	229.89
833.69	229.90
834.01	229.96
834.32	229.88
834.64	229.78
834.96	229.77
835.27	229.91
835.59	229.97
835.90	229.99
836.22	230.01
836.53	229.96
836.85	230.07
837.16	230.40
837.48	230.50
837.79	230.61
838.11	230.65
838.42	230.52
838.74	230.47
839.05	230.43
839.37	230.47
839.68	230.35
840.00	230.16
840.31	230.14
840.63	230.05
840.94	230.10
841.26	230.16
841.57	230.20
841.88	230.15
842.20	230.12
842.51	230.14
842.83	230.13
843.14	230.35
843.46	230.26
843.77	230.19
844.08	230.11
844.40	230.12
844.71	230.20
845.03	230.24
845.34	230.30
845.65	230.21
845.97	230.20
846.28	230.19
846.60	230.25
846.91	230.17
847.22	230.19
847.54	230.29
847.85	230.18
848.16	230.11
848.48	230.02
848.79	229.95
849.10	229.91
849.42	229.76
849.73	229.47
850.04	229.55
850.36	229.34
850.67	229.37
850.98	229.29
851.30	229.20
851.61	229.14
851.92	229.03
852.23	229.14
852.55	229.13
852.86	229.10
853.17	229.17
853.49	229.17
853.80	229.10
854.11	228.94
854.42	228.96
854.74	228.86
855.05	228.92
855.36	228.81
855.67	228.70
855.99	228.70
856.30	228.90
856.61	228.80
856.92	228.75
857.23	228.69
857.55	228.69
857.86	228.63
858.17	228.77
858.48	228.84
858.79	228.77
859.11	228.71
859.42	228.61
859.73	228.53
860.04	228.48
860.35	228.42
860.66	228.45
860.98	228.48
861.29	228.65
861.60	228.52
861.91	228.60
862.22	228.71
862.53	228.71
862.84	228.50
863.16	228.59
863.47	228.67
863.78	228.69
864.09	228.68
864.40	228.71
864.71	228.62
865.02	228.60
865.33	228.60
865.64	228.61
865.95	228.66
866.27	228.80
866.58	228.89
866.89	229.10
867.20	229.07
867.51	229.09
867.82	228.94
868.13	229.12
868.44	229.17
868.75	229.19
869.06	229.23
869.37	229.26
869.68	229.24
869.99	229.21
870.30	229.27
870.61	229.29
870.92	229.28
871.23	229.27
871.54	229.30
871.85	229.44
872.16	229.46
872.47	229.50
872.78	229.48
873.09	229.48
873.40	229.37
873.71	229.37
874.02	229.48
874.33	229.52
874.64	229.52
874.95	229.49
875.26	229.48
875.56	229.49
875.87	229.53
876.18	229.52
876.49	229.77
876.80	229.67
877.11	229.66
877.42	229.77
877.73	229.93
878.04	229.88
878.35	229.76
878.66	229.80
878.96	229.83
879.27	229.81
879.58	229.80
879.89	229.77
880.20	229.87
880.51	229.72
880.82	229.67
881.12	229.70
881.43	229.77
881.74	229.77
882.05	229.80
882.36	229.75
882.67	229.79
882.97	229.59
883.28	229.67
883.59	229.66
883.90	229.67
884.21	229.60
884.51	229.57
884.82	229.59
885.13	229.50
885.44	229.53
885.74	229.47
886.05	229.50
886.36	229.49
886.67	229.38
886.98	229.46
887.28	229.46
887.59	229.38
887.90	229.32
888.20	229.27
888.51	229.25
888.82	229.25
889.13	229.30
889.43	229.40
889.74	229.36
890.05	229.36
890.35	229.21
890.66	229.17
890.97	229.19
891.28	229.11
891.58	229.22
891.89	229.11
892.20	229.07
892.50	228.96
892.81	228.91
893.12	228.92
893.42	228.90
893.73	229.04
894.04	229.03
894.34	229.00
894.65	228.99
894.95	228.96
895.26	228.91
895.57	228.92
895.87	228.79
896.18	228.74
896.48	228.73
896.79	228.75
897.10	228.68
897.40	228.63
897.71	228.70
898.01	228.63
898.32	228.66
898.63	228.59
898.93	228.60
899.24	228.66
899.54	228.60
899.85	228.56
900.15	228.44
900.46	228.38
900.76	228.42
901.07	228.44
901.38	228.48
901.68	228.46
901.99	228.35
902.29	228.38
902.60	228.33
902.90	228.25
903.21	228.24
903.51	228.27
903.82	228.35
904.12	228.37
904.43	228.39
904.73	228.39
905.03	228.50
905.34	228.64
905.64	228.60
905.95	228.61
906.25	228.63
906.56	228.56
906.86	228.63
907.17	228.58
907.47	228.53
907.77	228.51
908.08	228.57
908.38	228.62
908.69	228.61
908.99	228.79
909.30	228.81
909.60	228.85
909.90	228.90
910.21	228.83
910.51	228.84
910.81	228.76
911.12	228.88
911.42	228.96
911.73	228.82
912.03	228.80
912.33	228.81
912.64	228.81
912.94	228.99
913.24	228.88
913.55	228.97
913.85	229.05
914.15	229.05
914.46	229.09
914.76	228.95
915.06	229.01
915.37	228.93
915.67	229.06
915.97	229.08
916.27	228.99
916.58	229.04
916.88	228.97
917.18	229.10
917.49	229.18
917.79	229.12
918.09	229.20
918.39	229.32
918.70	229.37
919.00	229.37
919.30	229.38
919.60	229.39
919.91	229.25
920.21	229.23
920.51	229.12
920.81	229.12
921.12	229.21
921.42	229.25
921.72	229.23
922.02	229.20
922.32	229.14
922.63	229.10
922.93	229.23
923.23	229.24
923.53	229.12
923.83	229.02
924.13	229.06
924.44	229.10
924.74	229.15
925.04	229.20
925.34	229.08
925.64	228.95
925.94	228.97
926.24	229.06
926.55	229.04
926.85	229.17
927.15	229.08
927.45	229.02
927.75	228.95
928.05	229.01
928.35	228.92
928.65	229.04
928.95	229.10
929.26	228.97
929.56	228.94
929.86	228.95
930.16	228.86
930.46	228.74
930.76	228.70
931.06	228.56
931.36	228.63
931.66	228.76
931.96	228.83
932.26	228.87
932.56	228.84
932.86	228.80
933.16	228.76
933.46	228.78
933.76	228.75
934.06	228.77
934.36	228.77
934.66	228.82
934.96	228.72
935.26	228.65
935.56	228.65
935.86	228.65
936.16	228.69
936.46	228.69
936.76	228.77
937.06	228.72
937.36	228.80
937.66	228.73
937.96	228.64
938.26	228.58
938.56	228.50
938.86	228.50
939.16	228.66
939.46	228.73
939.76	228.79
940.06	228.84
940.35	228.69
940.65	228.60
940.95	228.51
941.25	228.53
941.55	228.60
941.85	228.66
942.15	228.77
942.45	228.81
942.75	228.81
943.04	228.77
943.34	228.74
943.64	228.64
943.94	228.57
944.24	228.70
944.54	228.78
944.84	228.78
945.13	228.73
945.43	228.62
945.73	228.50
946.03	228.49
946.33	228.52
946.62	228.61
946.92	228.58
947.22	228.70
947.52	228.68
947.82	228.65
948.11	228.64
948.41	228.50
948.71	228.46
949.01	228.46
949.31	228.48
949.60	228.42
949.90	228.45
950.20	228.47
950.50	228.34
950.79	228.35
951.09	228.43
951.39	228.50
951.69	228.47
951.98	228.57
952.28	228.50
952.58	228.44
952.87	228.39
953.17	228.43
953.47	228.37
953.76	228.31
954.06	228.34
954.36	228.35
954.66	228.40
954.95	228.41
955.25	228.41
955.55	228.38
955.84	228.49
956.14	228.45
956.44	228.51
956.73	228.40
957.03	228.39
957.32	228.34
957.62	228.29
957.92	228.32
958.21	228.28
958.51	228.50
958.81	228.55
959.10	228.68
959.40	228.78
959.69	228.70
959.99	228.72
960.29	228.75
960.58	228.59
960.88	228.66
961.17	228.63
961.47	228.64
961.76	228.68
962.06	228.72
962.36	228.77
962.65	228.63
962.95	228.75
963.24	228.65
963.54	228.72
963.83	228.76
964.13	228.77
964.42	228.71
964.72	228.55
965.01	228.52
965.31	228.38
965.60	228.28
965.90	228.46
966.19	228.40
966.49	228.38
966.78	228.42
967.08	228.33
967.37	228.38
967.67	228.24
967.96	228.27
968.26	228.17
968.55	228.19
968.85	228.23
969.14	228.23
969.43	228.20
969.73	228.07
970.02	228.00
970.32	228.04
970.61	228.06
970.91	228.03
971.20	228.07
971.49	228.07
971.79	228.14
972.08	227.98
972.38	228.16
972.67	228.18
972.96	228.24
973.26	228.27
973.55	228.33
973.85	228.47
974.14	228.44
974.43	228.46
974.73	228.39
975.02	228.43
975.31	228.47
975.61	228.57
975.90	228.55
976.19	228.57
976.49	228.45
976.78	228.44
977.07	228.35
977.37	228.20
977.66	228.25
977.95	228.12
978.24	228.27
978.54	228.22
978.83	228.08
979.12	228.10
979.42	228.08
979.71	227.98
980.00	227.89
980.29	227.85
980.59	227.85
980.88	228.01
981.17	227.97
981.46	227.95
981.76	227.94
982.05	227.97
982.34	227.97
982.63	228.02
982.93	228.10
983.22	228.29
983.51	228.39
983.80	228.46
984.09	228.55
984.39	228.40
984.68	228.26
984.97	228.39
985.26	228.40
985.55	228.42
985.85	228.46
986.14	228.50
986.43	228.55
986.72	228.49
987.01	228.39
987.30	228.35
987.59	228.32
987.89	228.26
988.18	228.24
988.47	228.25
988.76	228.16
989.05	228.17
989.34	227.99
989.63	228.06
989.92	227.95
990.22	227.93
990.51	227.99
990.80	228.05
991.09	228.08
991.38	228.04
991.67	228.00
991.96	228.03
992.25	228.04
992.54	227.92
992.83	227.99
993.12	227.94
993.41	228.00
993.70	228.06
993.99	228.07
994.28	228.15
994.58	228.25
994.87	228.34
995.16	228.30
995.45	228.43
995.74	228.41
996.03	228.52
996.32	228.52
996.61	228.60
996.90	228.63
997.19	228.43
997.48	228.40
997.77	228.33
998.06	228.20
998.34	228.24
998.63	228.33
998.92	228.21
999.21	228.24
999.50	228.19
999.79	228.12
1000.08	228.15
1000.37	228.07
1000.66	227.88
1000.95	227.84
1001.24	227.82
1001.53	227.75
1001.82	227.70
1002.11	227.61
1002.40	227.69
1002.68	227.69
1002.97	227.80
1003.26	227.92
1003.55	227.98
1003.84	228.14
1004.13	228.26
1004.42	228.18
1004.71	228.15
1004.99	228.28
1005.28	228.34
1005.57	228.39
1005.86	228.34
1006.15	228.30
1006.44	228.30
1006.72	228.41
1007.01	228.41
1007.30	228.31
1007.59	228.38
1007.88	228.29
1008.17	228.22
1008.45	228.11
1008.74	228.08
1009.03	227.91
1009.32	227.84
1009.60	227.76
1009.89	227.72
1010.18	227.55
1010.47	227.62
1010.76	227.69
1011.04	227.69
1011.33	227.69
1011.62	227.79
1011.91	227.78
1012.19	227.84
1012.48	227.91
1012.77	227.87
1013.05	228.02
1013.34	228.03
1013.63	227.95
1013.92	228.05
1014.20	228.15
1014.49	228.21
1014.78	228.30
1015.06	228.33
1015.35	228.41
1015.64	228.56
1015.92	228.58
1016.21	228.70
1016.50	228.72
1016.78	228.73
1017.07	228.71
1017.36	228.61
1017.64	228.49
1017.93	228.68
1018.22	228.64
1018.50	228.64
1018.79	228.70
1019.08	228.57
1019.36	228.68
1019.65	228.70
1019.93	228.66
1020.22	228.70
1020.51	228.77
1020.79	228.69
1021.08	227.70
1021.36	228.60
1021.65	228.90
1021.94	228.00
1022.22	228.70
1022.51	227.80
1022.79	228.00
1023.08	229.30
1023.36	230.90
1023.65	228.40
>>>>>End Processed Spectral Data<<<<<
