SpectraSuite Data File
++++++++++++++++++++++++++++++++++++
Date: Fri Feb 01 14:42:10 EST 2013
User: group
Dark Spectrum Present: No
Reference Spectrum Present: No
Number of Sampled Component Spectra: 1
Spectrometers: USB2E7196
Integration Time (usec): 70000 (USB2E7196)
Spectra Averaged: 10 (USB2E7196)
Boxcar Smoothing: 10 (USB2E7196)
Correct for Electrical Dark: No (USB2E7196)
Strobe/Lamp Enabled: No (USB2E7196)
Correct for Detector Non-linearity: No (USB2E7196)
Correct for Stray Light: No (USB2E7196)
Number of Pixels in Processed Spectrum: 2048
>>>>>Begin Processed Spectral Data<<<<<
339.09	0.00
339.48	216.70
339.86	216.00
340.24	217.90
340.63	219.50
341.01	224.20
341.39	223.60
341.78	224.50
342.16	226.30
342.54	228.50
342.93	214.58
343.31	225.45
343.69	226.00
344.07	226.50
344.46	227.00
344.84	227.36
345.22	227.63
345.60	227.98
345.99	228.30
346.37	228.44
346.75	228.54
347.13	228.61
347.52	228.74
347.90	228.80
348.28	228.87
348.66	228.86
349.05	228.91
349.43	229.05
349.81	229.05
350.19	229.17
350.57	229.34
350.96	229.53
351.34	229.60
351.72	229.75
352.10	229.97
352.48	230.02
352.87	230.12
353.25	230.20
353.63	230.07
354.01	230.09
354.39	230.11
354.77	230.09
355.15	230.25
355.54	230.31
355.92	230.40
356.30	230.46
356.68	230.65
357.06	230.69
357.44	230.72
357.82	230.74
358.20	230.77
358.58	230.76
358.97	230.75
359.35	230.98
359.73	231.00
360.11	231.00
360.49	231.03
360.87	231.16
361.25	231.08
361.63	231.20
362.01	231.15
362.39	231.19
362.77	231.26
363.15	231.20
363.53	231.20
363.91	231.24
364.29	231.20
364.67	231.06
365.05	231.07
365.43	231.11
365.81	231.11
366.19	231.12
366.57	231.22
366.95	231.24
367.33	230.99
367.71	230.91
368.09	230.90
368.47	230.90
368.85	230.80
369.23	230.90
369.61	230.86
369.99	230.81
370.37	230.80
370.75	230.82
371.13	230.76
371.51	230.65
371.89	230.52
372.27	230.48
372.65	230.44
373.03	230.43
373.41	230.22
373.78	230.14
374.16	229.98
374.54	229.90
374.92	229.75
375.30	229.72
375.68	229.62
376.06	229.56
376.44	229.43
376.82	229.40
377.19	229.30
377.57	229.20
377.95	229.14
378.33	229.05
378.71	228.90
379.09	228.81
379.47	228.74
379.84	228.63
380.22	228.57
380.60	228.43
380.98	228.34
381.36	228.36
381.73	228.27
382.11	228.28
382.49	228.24
382.87	228.23
383.25	228.07
383.62	228.33
384.00	228.23
384.38	228.25
384.76	228.18
385.13	228.21
385.51	228.21
385.89	228.18
386.27	228.18
386.64	228.18
387.02	228.11
387.40	228.10
387.78	228.14
388.15	228.11
388.53	228.14
388.91	228.13
389.29	228.08
389.66	228.14
390.04	228.11
390.42	227.99
390.79	227.97
391.17	228.12
391.55	227.90
391.92	227.87
392.30	227.91
392.68	227.93
393.05	227.93
393.43	228.02
393.81	228.11
394.18	228.03
394.56	227.93
394.94	228.07
395.31	228.14
395.69	228.20
396.06	228.35
396.44	228.42
396.82	228.46
397.19	228.67
397.57	228.73
397.95	228.81
398.32	228.94
398.70	229.09
399.07	229.20
399.45	229.25
399.82	229.30
400.20	229.48
400.58	229.60
400.95	229.66
401.33	229.79
401.70	230.04
402.08	230.25
402.45	230.54
402.83	230.79
403.20	230.94
403.58	231.12
403.95	231.17
404.33	231.25
404.71	231.40
405.08	231.66
405.46	231.93
405.83	232.27
406.21	232.55
406.58	232.80
406.96	233.10
407.33	233.31
407.70	233.75
408.08	234.07
408.45	234.39
408.83	234.74
409.20	234.94
409.58	235.08
409.95	235.53
410.33	235.96
410.70	236.29
411.08	236.76
411.45	237.31
411.82	237.92
412.20	238.65
412.57	239.32
412.95	239.70
413.32	240.30
413.69	240.83
414.07	241.60
414.44	242.38
414.82	243.01
415.19	243.90
415.56	244.77
415.94	245.67
416.31	246.79
416.68	247.80
417.06	249.00
417.43	250.16
417.81	251.40
418.18	252.61
418.55	254.00
418.93	255.44
419.30	256.84
419.67	258.23
420.04	259.76
420.42	261.33
420.79	263.33
421.16	265.19
421.54	267.21
421.91	269.01
422.28	271.15
422.66	273.29
423.03	275.54
423.40	277.70
423.77	279.95
424.15	282.05
424.52	284.43
424.89	287.05
425.26	289.52
425.64	291.83
426.01	294.32
426.38	296.98
426.75	299.56
427.13	302.42
427.50	305.40
427.87	308.38
428.24	311.35
428.61	314.17
428.99	317.27
429.36	320.61
429.73	323.98
430.10	327.20
430.47	330.45
430.85	333.81
431.22	337.47
431.59	341.10
431.96	344.79
432.33	348.80
432.70	352.67
433.08	357.25
433.45	361.37
433.82	365.65
434.19	370.34
434.56	375.10
434.93	379.20
435.30	383.42
435.68	388.11
436.05	392.73
436.42	397.24
436.79	401.26
437.16	405.49
437.53	410.13
437.90	414.52
438.27	419.05
438.64	423.57
439.01	427.67
439.38	431.40
439.75	434.93
440.13	438.91
440.50	442.61
440.87	445.62
441.24	448.92
441.61	452.49
441.98	454.83
442.35	457.63
442.72	460.64
443.09	463.58
443.46	465.27
443.83	466.29
444.20	467.06
444.57	468.44
444.94	469.09
445.31	469.52
445.68	470.22
446.05	470.39
446.42	469.89
446.79	469.26
447.16	468.54
447.53	468.14
447.90	466.36
448.27	464.46
448.64	461.77
449.01	459.93
449.37	456.57
449.74	453.51
450.11	449.80
450.48	445.90
450.85	441.70
451.22	438.08
451.59	434.69
451.96	431.62
452.33	427.39
452.70	423.34
453.07	418.86
453.43	413.96
453.80	409.42
454.17	404.92
454.54	400.76
454.91	396.20
455.28	391.89
455.65	387.72
456.02	383.91
456.38	380.48
456.75	376.05
457.12	372.55
457.49	368.88
457.86	365.39
458.23	362.34
458.59	359.19
458.96	355.84
459.33	352.85
459.70	349.72
460.07	347.24
460.43	344.59
460.80	341.94
461.17	339.67
461.54	337.26
461.91	335.02
462.27	332.69
462.64	330.83
463.01	328.50
463.38	326.44
463.74	324.00
464.11	322.16
464.48	320.56
464.85	318.62
465.21	317.18
465.58	315.71
465.95	313.94
466.32	312.34
466.68	310.81
467.05	309.32
467.42	307.81
467.78	306.30
468.15	304.69
468.52	303.51
468.88	302.08
469.25	300.76
469.62	299.59
469.98	298.36
470.35	297.35
470.72	296.28
471.08	295.00
471.45	294.13
471.82	293.15
472.18	292.03
472.55	291.40
472.92	290.51
473.28	289.52
473.65	288.63
474.02	287.87
474.38	287.27
474.75	286.73
475.11	286.11
475.48	285.57
475.85	285.27
476.21	284.83
476.58	284.38
476.94	284.07
477.31	283.78
477.67	283.46
478.04	283.14
478.41	282.96
478.77	283.21
479.14	283.08
479.50	283.01
479.87	283.17
480.23	283.05
480.60	283.02
480.96	283.15
481.33	283.43
481.69	283.59
482.06	283.77
482.42	283.88
482.79	284.14
483.15	284.52
483.52	284.84
483.88	285.37
484.25	285.92
484.61	286.47
484.98	286.93
485.34	287.62
485.71	288.40
486.07	289.15
486.44	289.80
486.80	290.66
487.17	291.57
487.53	292.75
487.90	294.01
488.26	295.39
488.62	296.73
488.99	298.10
489.35	299.52
489.72	301.08
490.08	302.81
490.44	304.62
490.81	306.52
491.17	308.61
491.54	310.72
491.90	313.02
492.26	315.30
492.63	318.02
492.99	320.61
493.36	323.32
493.72	326.50
494.08	329.59
494.45	332.84
494.81	336.36
495.17	339.75
495.54	343.59
495.90	347.47
496.26	351.65
496.63	355.96
496.99	360.48
497.35	365.26
497.72	370.28
498.08	375.62
498.44	381.07
498.80	386.92
499.17	392.77
499.53	398.74
499.89	405.39
500.26	412.05
500.62	419.17
500.98	426.53
501.34	433.94
501.71	441.68
502.07	449.77
502.43	458.10
502.79	466.64
503.16	475.70
503.52	485.10
503.88	494.47
504.24	504.46
504.60	515.08
504.97	525.84
505.33	537.03
505.69	548.58
506.05	560.32
506.41	572.06
506.78	584.35
507.14	597.17
507.50	610.40
507.86	624.17
508.22	638.07
508.59	652.20
508.95	666.96
509.31	682.20
509.67	697.85
510.03	713.62
510.39	729.90
510.75	746.42
511.12	763.38
511.48	781.16
511.84	798.86
512.20	816.70
512.56	835.20
512.92	854.09
513.28	873.10
513.64	892.53
514.00	912.35
514.37	932.73
514.73	953.53
515.09	974.12
515.45	995.03
515.81	1016.22
516.17	1038.31
516.53	1060.49
516.89	1082.58
517.25	1104.92
517.61	1127.92
517.97	1150.70
518.33	1173.37
518.69	1196.70
519.05	1220.33
519.41	1244.57
519.77	1269.09
520.13	1293.64
520.49	1318.00
520.85	1342.78
521.21	1367.72
521.57	1393.59
521.93	1418.41
522.29	1443.93
522.65	1468.77
523.01	1494.25
523.37	1519.53
523.73	1544.85
524.09	1569.83
524.45	1595.84
524.81	1622.05
525.17	1648.41
525.53	1675.15
525.89	1702.20
526.25	1729.14
526.61	1754.97
526.97	1781.09
527.33	1807.22
527.68	1833.31
528.04	1859.18
528.40	1885.61
528.76	1912.56
529.12	1938.55
529.48	1965.42
529.84	1991.04
530.20	2018.11
530.56	2045.15
530.91	2072.82
531.27	2100.03
531.63	2127.00
531.99	2153.27
532.35	2179.38
532.71	2204.93
533.07	2230.90
533.42	2256.06
533.78	2281.15
534.14	2306.65
534.50	2330.96
534.86	2355.93
535.21	2380.49
535.57	2406.22
535.93	2431.00
536.29	2455.04
536.65	2479.50
537.00	2503.12
537.36	2527.17
537.72	2550.18
538.08	2572.77
538.44	2594.88
538.79	2616.73
539.15	2638.40
539.51	2660.90
539.87	2682.81
540.22	2704.95
540.58	2726.72
540.94	2747.88
541.29	2768.08
541.65	2788.89
542.01	2810.79
542.37	2831.26
542.72	2851.18
543.08	2870.15
543.44	2889.49
543.79	2907.13
544.15	2925.41
544.51	2944.74
544.87	2963.12
545.22	2981.17
545.58	2998.60
545.94	3014.69
546.29	3031.13
546.65	3047.45
547.01	3062.82
547.36	3077.69
547.72	3091.85
548.07	3105.74
548.43	3119.88
548.79	3134.30
549.14	3147.68
549.50	3159.43
549.86	3171.10
550.21	3182.80
550.57	3194.77
550.92	3205.74
551.28	3216.62
551.64	3227.60
551.99	3237.73
552.35	3247.79
552.70	3258.21
553.06	3268.74
553.41	3279.44
553.77	3289.25
554.13	3299.19
554.48	3308.60
554.84	3318.03
555.19	3326.96
555.55	3335.47
555.90	3343.29
556.26	3350.99
556.61	3358.99
556.97	3366.56
557.32	3374.80
557.68	3382.38
558.03	3389.88
558.39	3396.66
558.74	3405.44
559.10	3412.15
559.45	3418.20
559.81	3425.78
560.16	3431.43
560.52	3436.53
560.87	3442.23
561.23	3446.89
561.58	3451.85
561.94	3456.01
562.29	3459.30
562.64	3462.88
563.00	3466.33
563.35	3472.01
563.71	3477.08
564.06	3481.60
564.42	3485.62
564.77	3489.27
565.12	3492.80
565.48	3495.90
565.83	3498.28
566.19	3500.43
566.54	3501.90
566.89	3503.77
567.25	3504.64
567.60	3506.98
567.96	3508.67
568.31	3509.08
568.66	3510.00
569.02	3510.72
569.37	3510.57
569.72	3511.45
570.08	3511.35
570.43	3511.08
570.78	3509.17
571.14	3506.60
571.49	3504.31
571.84	3504.21
572.20	3501.44
572.55	3499.03
572.90	3495.49
573.26	3493.17
573.61	3490.26
573.96	3486.68
574.31	3481.88
574.67	3476.29
575.02	3470.58
575.37	3466.07
575.72	3460.04
576.08	3455.50
576.43	3449.71
576.78	3444.48
577.13	3439.31
577.49	3434.37
577.84	3428.39
578.19	3422.46
578.54	3416.54
578.90	3409.11
579.25	3400.14
579.60	3393.07
579.95	3385.07
580.30	3377.31
580.66	3368.94
581.01	3360.07
581.36	3352.53
581.71	3346.06
582.06	3338.67
582.42	3330.73
582.77	3321.30
583.12	3313.45
583.47	3304.72
583.82	3296.80
584.17	3287.99
584.53	3279.38
584.88	3270.51
585.23	3262.08
585.58	3253.37
585.93	3244.50
586.28	3237.56
586.63	3229.75
586.98	3221.54
587.34	3213.75
587.69	3205.65
588.04	3197.92
588.39	3189.89
588.74	3179.51
589.09	3169.47
589.44	3159.37
589.79	3149.93
590.14	3141.48
590.49	3132.13
590.84	3122.33
591.19	3112.59
591.54	3101.89
591.89	3089.80
592.25	3079.53
592.60	3068.18
592.95	3056.42
593.30	3045.20
593.65	3032.79
594.00	3021.16
594.35	3010.49
594.70	2998.28
595.05	2987.32
595.40	2975.32
595.75	2963.40
596.10	2953.19
596.45	2942.60
596.80	2933.23
597.15	2922.93
597.50	2911.81
597.85	2901.26
598.19	2891.45
598.54	2880.84
598.89	2871.48
599.24	2862.57
599.59	2852.18
599.94	2842.20
600.29	2831.97
600.64	2821.41
600.99	2809.75
601.34	2799.05
601.69	2787.10
602.04	2776.49
602.39	2765.39
602.74	2754.92
603.08	2744.79
603.43	2734.71
603.78	2723.59
604.13	2712.04
604.48	2700.95
604.83	2689.95
605.18	2679.23
605.53	2666.44
605.87	2653.19
606.22	2641.62
606.57	2629.83
606.92	2618.10
607.27	2607.14
607.62	2596.41
607.96	2585.44
608.31	2575.32
608.66	2563.54
609.01	2551.89
609.36	2539.34
609.70	2525.58
610.05	2512.43
610.40	2499.84
610.75	2486.76
611.10	2474.07
611.44	2460.70
611.79	2447.95
612.14	2434.47
612.49	2420.52
612.83	2407.68
613.18	2395.42
613.53	2382.82
613.88	2368.92
614.22	2355.28
614.57	2341.36
614.92	2327.94
615.27	2315.24
615.61	2302.13
615.96	2289.17
616.31	2277.24
616.65	2266.50
617.00	2255.49
617.35	2243.81
617.70	2231.29
618.04	2218.54
618.39	2206.18
618.74	2194.65
619.08	2181.85
619.43	2170.56
619.78	2159.16
620.12	2147.36
620.47	2135.77
620.82	2122.93
621.16	2111.89
621.51	2100.51
621.85	2088.94
622.20	2076.37
622.55	2064.43
622.89	2052.59
623.24	2041.36
623.59	2029.47
623.93	2017.58
624.28	2005.83
624.62	1994.08
624.97	1982.56
625.32	1971.90
625.66	1961.26
626.01	1949.39
626.35	1938.37
626.70	1926.42
627.04	1915.65
627.39	1904.26
627.73	1893.02
628.08	1882.34
628.43	1870.95
628.77	1859.72
629.12	1848.22
629.46	1837.40
629.81	1825.53
630.15	1813.53
630.50	1801.92
630.84	1789.42
631.19	1777.06
631.53	1765.57
631.88	1753.53
632.22	1741.40
632.57	1730.09
632.91	1717.97
633.26	1706.77
633.60	1694.70
633.95	1683.14
634.29	1671.57
634.64	1660.67
634.98	1648.86
635.32	1637.93
635.67	1627.29
636.01	1616.75
636.36	1606.35
636.70	1595.76
637.05	1585.50
637.39	1575.64
637.73	1565.32
638.08	1556.20
638.42	1546.68
638.77	1537.15
639.11	1527.31
639.45	1517.77
639.80	1507.14
640.14	1497.23
640.49	1487.24
640.83	1477.26
641.17	1467.57
641.52	1457.42
641.86	1447.25
642.20	1437.96
642.55	1427.91
642.89	1417.86
643.23	1407.80
643.58	1398.06
643.92	1387.77
644.26	1377.56
644.61	1368.22
644.95	1358.69
645.29	1347.99
645.64	1337.75
645.98	1327.41
646.32	1318.24
646.66	1308.40
647.01	1298.86
647.35	1289.28
647.69	1279.50
648.04	1270.51
648.38	1260.66
648.72	1250.75
649.06	1240.87
649.41	1231.12
649.75	1220.93
650.09	1211.13
650.43	1201.03
650.78	1190.84
651.12	1181.60
651.46	1172.61
651.80	1162.98
652.14	1153.46
652.49	1144.30
652.83	1135.36
653.17	1125.71
653.51	1116.18
653.85	1106.99
654.20	1097.68
654.54	1088.22
654.88	1079.18
655.22	1069.69
655.56	1060.55
655.90	1052.08
656.25	1043.76
656.59	1035.10
656.93	1026.94
657.27	1018.58
657.61	1009.95
657.95	1002.16
658.29	993.84
658.64	985.22
658.98	976.85
659.32	968.56
659.66	960.91
660.00	952.78
660.34	944.99
660.68	937.20
661.02	929.36
661.36	922.10
661.70	914.93
662.05	907.90
662.39	901.03
662.73	894.21
663.07	887.08
663.41	880.05
663.75	873.20
664.09	866.34
664.43	859.37
664.77	852.96
665.11	846.46
665.45	839.98
665.79	833.61
666.13	827.09
666.47	820.76
666.81	813.92
667.15	807.24
667.49	801.04
667.83	794.93
668.17	788.70
668.51	782.15
668.85	775.60
669.19	769.53
669.53	763.56
669.87	757.35
670.21	751.67
670.55	745.73
670.89	740.34
671.23	734.78
671.57	729.35
671.91	723.77
672.25	718.09
672.58	712.80
672.92	707.66
673.26	702.40
673.60	697.21
673.94	692.31
674.28	687.75
674.62	683.11
674.96	678.01
675.30	673.33
675.64	668.76
675.97	664.38
676.31	659.59
676.65	654.85
676.99	650.61
677.33	645.86
677.67	641.27
678.01	636.28
678.34	631.73
678.68	627.31
679.02	623.13
679.36	618.85
679.70	614.58
680.04	610.16
680.37	605.99
680.71	601.87
681.05	598.18
681.39	594.07
681.73	589.98
682.06	586.23
682.40	582.52
682.74	578.64
683.08	574.79
683.42	570.94
683.75	567.15
684.09	562.96
684.43	559.35
684.77	555.94
685.10	552.47
685.44	548.81
685.78	545.10
686.12	541.47
686.45	537.96
686.79	534.28
687.13	530.76
687.46	527.19
687.80	523.57
688.14	519.59
688.48	516.14
688.81	512.74
689.15	509.32
689.49	505.85
689.82	502.52
690.16	499.03
690.50	496.03
690.83	492.96
691.17	489.86
691.51	486.65
691.84	483.50
692.18	480.26
692.52	477.22
692.85	474.26
693.19	471.24
693.52	468.18
693.86	465.37
694.20	462.40
694.53	459.51
694.87	456.67
695.21	453.89
695.54	450.92
695.88	448.03
696.21	445.24
696.55	442.47
696.88	439.81
697.22	437.29
697.56	434.56
697.89	431.85
698.23	429.40
698.56	426.80
698.90	424.22
699.23	421.68
699.57	419.17
699.90	416.68
700.24	414.28
700.58	411.84
700.91	409.50
701.25	407.29
701.58	405.24
701.92	402.94
702.25	400.79
702.59	398.73
702.92	396.60
703.26	394.57
703.59	392.67
703.93	390.84
704.26	388.81
704.60	386.77
704.93	384.69
705.26	382.74
705.60	380.76
705.93	379.00
706.27	377.35
706.60	375.67
706.94	373.95
707.27	372.18
707.61	370.40
707.94	368.71
708.27	366.92
708.61	365.04
708.94	363.40
709.28	361.81
709.61	360.21
709.94	358.72
710.28	357.14
710.61	355.43
710.95	353.70
711.28	352.32
711.61	350.90
711.95	349.49
712.28	347.82
712.61	346.41
712.95	344.91
713.28	343.40
713.61	341.97
713.95	340.61
714.28	339.17
714.61	337.79
714.95	336.46
715.28	335.03
715.61	333.77
715.95	332.63
716.28	331.44
716.61	330.20
716.95	328.79
717.28	327.66
717.61	326.58
717.94	325.34
718.28	323.95
718.61	322.67
718.94	321.57
719.27	320.68
719.61	319.69
719.94	318.70
720.27	317.77
720.60	316.63
720.94	315.68
721.27	314.68
721.60	313.82
721.93	312.78
722.27	311.99
722.60	311.06
722.93	310.12
723.26	309.33
723.59	308.40
723.93	307.69
724.26	306.74
724.59	305.75
724.92	304.92
725.25	304.22
725.59	303.44
725.92	302.55
726.25	301.55
726.58	300.75
726.91	299.86
727.24	298.99
727.57	298.25
727.91	297.35
728.24	296.61
728.57	295.81
728.90	295.04
729.23	294.13
729.56	293.46
729.89	292.61
730.22	291.68
730.55	290.91
730.89	290.13
731.22	289.40
731.55	288.62
731.88	287.88
732.21	287.14
732.54	286.31
732.87	285.67
733.20	285.13
733.53	284.40
733.86	283.73
734.19	282.91
734.52	282.19
734.85	281.66
735.18	281.09
735.51	280.40
735.84	279.84
736.17	279.40
736.50	278.70
736.83	278.23
737.16	277.61
737.49	277.05
737.82	276.42
738.15	275.80
738.48	275.32
738.81	274.80
739.14	274.36
739.47	273.92
739.80	273.31
740.13	272.83
740.46	272.31
740.79	271.74
741.12	271.39
741.45	270.79
741.78	270.15
742.11	269.59
742.44	269.08
742.77	268.59
743.10	268.02
743.43	267.46
743.75	266.85
744.08	266.60
744.41	266.13
744.74	265.70
745.07	265.26
745.40	264.82
745.73	264.48
746.06	263.94
746.39	263.36
746.71	263.05
747.04	262.59
747.37	262.17
747.70	261.79
748.03	261.30
748.36	261.02
748.68	260.72
749.01	260.39
749.34	260.02
749.67	259.71
750.00	259.38
750.33	259.22
750.65	258.91
750.98	258.48
751.31	258.14
751.64	257.78
751.97	257.43
752.29	257.09
752.62	256.62
752.95	256.26
753.28	256.10
753.60	255.63
753.93	255.29
754.26	255.01
754.59	254.62
754.91	254.31
755.24	254.00
755.57	253.69
755.90	253.35
756.22	253.07
756.55	252.70
756.88	252.27
757.20	251.86
757.53	251.46
757.86	251.12
758.19	250.90
758.51	250.67
758.84	250.38
759.17	250.13
759.49	249.92
759.82	249.87
760.15	249.59
760.47	249.43
760.80	249.10
761.13	249.00
761.45	248.78
761.78	248.55
762.11	248.27
762.43	248.01
762.76	247.70
763.08	247.54
763.41	247.32
763.74	247.24
764.06	246.94
764.39	246.87
764.71	246.59
765.04	246.33
765.37	246.11
765.69	246.00
766.02	245.73
766.34	245.55
766.67	245.09
767.00	244.99
767.32	244.85
767.65	244.79
767.97	244.40
768.30	244.26
768.62	244.15
768.95	243.95
769.27	243.80
769.60	243.73
769.92	243.46
770.25	243.26
770.57	243.01
770.90	242.99
771.22	242.78
771.55	242.66
771.87	242.54
772.20	242.41
772.52	242.36
772.85	242.42
773.17	242.31
773.50	242.39
773.82	242.09
774.15	241.93
774.47	241.75
774.80	241.65
775.12	241.48
775.45	241.25
775.77	241.19
776.09	241.05
776.42	240.91
776.74	240.80
777.07	240.59
777.39	240.45
777.72	240.22
778.04	240.11
778.36	239.95
778.69	239.85
779.01	239.73
779.33	239.43
779.66	239.05
779.98	238.84
780.31	238.60
780.63	238.57
780.95	238.50
781.28	238.30
781.60	238.20
781.92	238.02
782.25	237.90
782.57	237.83
782.89	237.76
783.22	237.56
783.54	237.45
783.86	237.36
784.19	237.16
784.51	237.13
784.83	236.95
785.16	236.84
785.48	236.63
785.80	236.53
786.12	236.51
786.45	236.50
786.77	236.37
787.09	236.28
787.42	236.19
787.74	236.05
788.06	236.03
788.38	235.93
788.71	235.93
789.03	235.80
789.35	235.71
789.67	235.54
789.99	235.52
790.32	235.51
790.64	235.46
790.96	235.65
791.28	235.50
791.61	235.43
791.93	235.37
792.25	235.28
792.57	235.33
792.89	235.17
793.21	235.13
793.54	235.10
793.86	235.00
794.18	234.81
794.50	234.65
794.82	234.57
795.14	234.50
795.47	234.50
795.79	234.46
796.11	234.35
796.43	234.32
796.75	234.29
797.07	234.20
797.39	234.25
797.71	234.12
798.04	234.01
798.36	234.03
798.68	234.06
799.00	234.14
799.32	233.92
799.64	233.99
799.96	233.95
800.28	234.00
800.60	233.95
800.92	234.00
801.24	234.08
801.56	234.12
801.89	234.08
802.21	234.00
802.53	234.00
802.85	234.04
803.17	234.00
803.49	233.98
803.81	233.93
804.13	233.78
804.45	233.66
804.77	233.69
805.09	233.62
805.41	233.50
805.73	233.46
806.05	233.41
806.37	233.34
806.69	233.29
807.01	233.23
807.33	233.21
807.65	233.12
807.97	233.09
808.28	232.99
808.60	232.95
808.92	232.86
809.24	232.94
809.56	232.90
809.88	232.84
810.20	232.78
810.52	232.69
810.84	232.66
811.16	232.64
811.48	232.56
811.80	232.56
812.12	232.52
812.43	232.40
812.75	232.43
813.07	232.32
813.39	232.32
813.71	232.20
814.03	232.14
814.35	232.16
814.67	231.98
814.98	231.89
815.30	231.87
815.62	231.80
815.94	231.69
816.26	231.60
816.58	231.50
816.89	231.42
817.21	231.32
817.53	231.26
817.85	231.19
818.17	231.11
818.48	230.96
818.80	231.02
819.12	230.94
819.44	230.84
819.76	230.74
820.07	230.62
820.39	230.58
820.71	230.48
821.03	230.42
821.34	230.40
821.66	230.39
821.98	230.26
822.30	230.21
822.61	230.17
822.93	230.14
823.25	230.04
823.57	230.01
823.88	230.11
824.20	230.10
824.52	230.08
824.83	230.16
825.15	230.13
825.47	230.01
825.79	230.02
826.10	229.97
826.42	230.01
826.74	230.04
827.05	230.03
827.37	230.04
827.69	230.01
828.00	230.01
828.32	229.94
828.64	229.91
828.95	229.98
829.27	229.90
829.58	229.85
829.90	229.96
830.22	229.91
830.53	229.86
830.85	229.76
831.17	229.84
831.48	229.75
831.80	229.71
832.11	229.70
832.43	229.72
832.75	229.66
833.06	229.67
833.38	229.52
833.69	229.58
834.01	229.60
834.32	229.55
834.64	229.50
834.96	229.52
835.27	229.50
835.59	229.45
835.90	229.43
836.22	229.44
836.53	229.42
836.85	229.37
837.16	229.50
837.48	229.58
837.79	229.49
838.11	229.54
838.42	229.68
838.74	229.67
839.05	229.64
839.37	229.65
839.68	229.61
840.00	229.68
840.31	229.67
840.63	229.65
840.94	229.78
841.26	229.75
841.57	229.81
841.88	230.01
842.20	230.00
842.51	230.05
842.83	230.00
843.14	230.19
843.46	230.32
843.77	230.23
844.08	230.28
844.40	230.26
844.71	230.24
845.03	230.20
845.34	230.25
845.65	230.30
845.97	230.41
846.28	230.41
846.60	230.56
846.91	230.47
847.22	230.50
847.54	230.50
847.85	230.63
848.16	230.55
848.48	230.44
848.79	230.50
849.10	230.53
849.42	230.60
849.73	230.49
850.04	230.47
850.36	230.45
850.67	230.44
850.98	230.51
851.30	230.56
851.61	230.54
851.92	230.57
852.23	230.59
852.55	230.56
852.86	230.62
853.17	230.58
853.49	230.68
853.80	230.70
854.11	230.64
854.42	230.66
854.74	230.70
855.05	230.65
855.36	230.57
855.67	230.55
855.99	230.50
856.30	230.64
856.61	230.64
856.92	230.57
857.23	230.54
857.55	230.49
857.86	230.40
858.17	230.45
858.48	230.34
858.79	230.25
859.11	230.23
859.42	230.13
859.73	229.99
860.04	229.91
860.35	229.88
860.66	229.82
860.98	229.72
861.29	229.68
861.60	229.62
861.91	229.68
862.22	229.60
862.53	229.51
862.84	229.25
863.16	229.28
863.47	229.25
863.78	229.23
864.09	229.20
864.40	229.21
864.71	229.13
865.02	229.13
865.33	229.07
865.64	228.96
865.95	228.94
866.27	229.09
866.58	229.03
866.89	229.03
867.20	228.96
867.51	228.85
867.82	228.86
868.13	228.90
868.44	228.78
868.75	228.83
869.06	228.90
869.37	228.84
869.68	228.76
869.99	228.75
870.30	228.75
870.61	228.79
870.92	228.80
871.23	228.79
871.54	228.76
871.85	228.77
872.16	228.86
872.47	228.83
872.78	228.67
873.09	228.72
873.40	228.65
873.71	228.68
874.02	228.76
874.33	228.68
874.64	228.67
874.95	228.76
875.26	228.69
875.56	228.63
875.87	228.64
876.18	228.60
876.49	228.76
876.80	228.73
877.11	228.66
877.42	228.62
877.73	228.70
878.04	228.68
878.35	228.83
878.66	228.79
878.96	228.80
879.27	228.87
879.58	228.80
879.89	228.79
880.20	228.89
880.51	228.93
880.82	228.94
881.12	229.01
881.43	228.94
881.74	228.93
882.05	228.90
882.36	228.90
882.67	228.96
882.97	228.80
883.28	228.87
883.59	228.88
883.90	228.97
884.21	228.93
884.51	228.94
884.82	228.84
885.13	228.85
885.44	229.00
885.74	229.09
886.05	229.20
886.36	229.26
886.67	229.25
886.98	229.34
887.28	229.53
887.59	229.50
887.90	229.54
888.20	229.53
888.51	229.70
888.82	229.66
889.13	229.77
889.43	230.01
889.74	230.00
890.05	230.00
890.35	229.98
890.66	229.96
890.97	229.96
891.28	229.99
891.58	230.04
891.89	229.96
892.20	229.84
892.50	229.84
892.81	229.81
893.12	229.74
893.42	229.57
893.73	229.52
894.04	229.53
894.34	229.55
894.65	229.58
894.95	229.50
895.26	229.68
895.57	229.63
895.87	229.39
896.18	229.38
896.48	229.37
896.79	229.27
897.10	229.30
897.40	229.34
897.71	229.42
898.01	229.37
898.32	229.39
898.63	229.40
898.93	229.39
899.24	229.44
899.54	229.42
899.85	229.57
900.15	229.56
900.46	229.58
900.76	229.60
901.07	229.52
901.38	229.49
901.68	229.45
901.99	229.32
902.29	229.33
902.60	229.28
902.90	229.31
903.21	229.27
903.51	229.26
903.82	229.28
904.12	229.23
904.43	229.31
904.73	229.27
905.03	229.20
905.34	229.35
905.64	229.26
905.95	229.17
906.25	229.00
906.56	228.97
906.86	228.95
907.17	228.92
907.47	228.97
907.77	228.91
908.08	228.79
908.38	228.87
908.69	228.79
908.99	228.78
909.30	228.70
909.60	228.68
909.90	228.56
910.21	228.50
910.51	228.41
910.81	228.25
911.12	228.20
911.42	228.20
911.73	227.95
912.03	227.85
912.33	227.81
912.64	227.82
912.94	227.72
913.24	227.54
913.55	227.42
913.85	227.39
914.15	227.52
914.46	227.50
914.76	227.42
915.06	227.54
915.37	227.52
915.67	227.55
915.97	227.56
916.27	227.59
916.58	227.52
916.88	227.45
917.18	227.44
917.49	227.58
917.79	227.60
918.09	227.64
918.39	227.77
918.70	227.82
919.00	227.80
919.30	227.87
919.60	227.96
919.91	227.99
920.21	227.98
920.51	227.96
920.81	227.96
921.12	228.00
921.42	228.03
921.72	228.13
922.02	228.20
922.32	228.30
922.63	228.29
922.93	228.42
923.23	228.49
923.53	228.55
923.83	228.49
924.13	228.53
924.44	228.66
924.74	228.74
925.04	228.85
925.34	228.96
925.64	229.05
925.94	229.06
926.24	229.31
926.55	229.40
926.85	229.42
927.15	229.44
927.45	229.47
927.75	229.42
928.05	229.36
928.35	229.43
928.65	229.46
928.95	229.57
929.26	229.44
929.56	229.56
929.86	229.72
930.16	229.65
930.46	229.61
930.76	229.56
931.06	229.44
931.36	229.38
931.66	229.43
931.96	229.44
932.26	229.48
932.56	229.36
932.86	229.40
933.16	229.39
933.46	229.51
933.76	229.52
934.06	229.63
934.36	229.76
934.66	229.55
934.96	229.57
935.26	229.56
935.56	229.75
935.86	229.60
936.16	229.50
936.46	229.51
936.76	229.58
937.06	229.55
937.36	229.69
937.66	229.74
937.96	229.64
938.26	229.52
938.56	229.52
938.86	229.50
939.16	229.45
939.46	229.47
939.76	229.34
940.06	229.29
940.35	229.13
940.65	228.98
940.95	229.05
941.25	228.90
941.55	228.83
941.85	228.76
942.15	228.87
942.45	228.91
942.75	228.99
943.04	228.84
943.34	228.85
943.64	228.75
943.94	228.65
944.24	228.71
944.54	228.68
944.84	228.56
945.13	228.52
945.43	228.45
945.73	228.37
946.03	228.48
946.33	228.46
946.62	228.44
946.92	228.39
947.22	228.39
947.52	228.40
947.82	228.44
948.11	228.35
948.41	228.28
948.71	228.22
949.01	228.11
949.31	228.07
949.60	228.08
949.90	228.08
950.20	228.15
950.50	228.08
950.79	228.08
951.09	228.17
951.39	228.06
951.69	228.07
951.98	228.12
952.28	228.05
952.58	228.06
952.87	228.07
953.17	228.17
953.47	228.15
953.76	228.22
954.06	228.06
954.36	228.04
954.66	228.00
954.95	227.97
955.25	228.00
955.55	228.15
955.84	228.07
956.14	228.03
956.44	227.99
956.73	228.05
957.03	228.06
957.32	228.12
957.62	228.21
957.92	228.27
958.21	228.18
958.51	228.37
958.81	228.39
959.10	228.42
959.40	228.42
959.69	228.40
959.99	228.36
960.29	228.57
960.58	228.67
960.88	228.73
961.17	228.77
961.47	228.84
961.76	228.77
962.06	228.80
962.36	228.84
962.65	228.80
962.95	228.73
963.24	228.80
963.54	228.74
963.83	228.67
964.13	228.69
964.42	228.73
964.72	228.66
965.01	228.58
965.31	228.68
965.60	228.65
965.90	228.89
966.19	228.88
966.49	228.75
966.78	228.70
967.08	228.74
967.37	228.81
967.67	228.75
967.96	228.81
968.26	228.86
968.55	228.91
968.85	228.94
969.14	229.00
969.43	228.98
969.73	228.97
970.02	229.15
970.32	229.17
970.61	229.17
970.91	229.12
971.20	229.24
971.49	229.14
971.79	229.14
972.08	229.00
972.38	229.04
972.67	229.10
972.96	229.21
973.26	229.15
973.55	229.15
973.85	229.16
974.14	229.17
974.43	229.13
974.73	229.04
975.02	228.95
975.31	228.94
975.61	228.91
975.90	228.94
976.19	228.89
976.49	228.90
976.78	228.79
977.07	228.77
977.37	228.77
977.66	228.63
977.95	228.58
978.24	228.55
978.54	228.60
978.83	228.53
979.12	228.39
979.42	228.46
979.71	228.40
980.00	228.36
980.29	228.33
980.59	228.37
980.88	228.45
981.17	228.48
981.46	228.42
981.76	228.41
982.05	228.35
982.34	228.32
982.63	228.30
982.93	228.43
983.22	228.41
983.51	228.32
983.80	228.49
984.09	228.46
984.39	228.40
984.68	228.30
984.97	228.27
985.26	228.26
985.55	228.24
985.85	228.28
986.14	228.36
986.43	228.29
986.72	228.12
987.01	228.10
987.30	228.19
987.59	228.15
987.89	228.09
988.18	228.15
988.47	228.08
988.76	228.06
989.05	227.98
989.34	227.98
989.63	227.98
989.92	227.90
990.22	227.79
990.51	227.81
990.80	227.73
991.09	227.83
991.38	227.78
991.67	227.66
991.96	227.59
992.25	227.57
992.54	227.53
992.83	227.55
993.12	227.48
993.41	227.43
993.70	227.52
993.99	227.56
994.28	227.47
994.58	227.58
994.87	227.40
995.16	227.41
995.45	227.28
995.74	227.29
996.03	227.29
996.32	227.45
996.61	227.42
996.90	227.50
997.19	227.31
997.48	227.31
997.77	227.33
998.06	227.30
998.34	227.25
998.63	227.43
998.92	227.54
999.21	227.58
999.50	227.54
999.79	227.40
1000.08	227.36
1000.37	227.43
1000.66	227.27
1000.95	227.50
1001.24	227.48
1001.53	227.62
1001.82	227.64
1002.11	227.64
1002.40	227.70
1002.68	227.82
1002.97	228.02
1003.26	228.19
1003.55	228.19
1003.84	228.24
1004.13	228.31
1004.42	228.29
1004.71	228.13
1004.99	228.05
1005.28	228.09
1005.57	228.12
1005.86	228.12
1006.15	228.15
1006.44	228.14
1006.72	228.33
1007.01	228.30
1007.30	228.36
1007.59	228.29
1007.88	228.32
1008.17	228.42
1008.45	228.34
1008.74	228.23
1009.03	228.07
1009.32	228.13
1009.60	228.25
1009.89	228.18
1010.18	228.10
1010.47	228.14
1010.76	228.26
1011.04	228.31
1011.33	228.32
1011.62	228.35
1011.91	228.45
1012.19	228.44
1012.48	228.53
1012.77	228.44
1013.05	228.48
1013.34	228.40
1013.63	228.42
1013.92	228.32
1014.20	228.20
1014.49	228.22
1014.78	228.30
1015.06	228.26
1015.35	228.12
1015.64	228.04
1015.92	228.16
1016.21	228.18
1016.50	228.21
1016.78	228.10
1017.07	228.11
1017.36	228.04
1017.64	227.96
1017.93	228.01
1018.22	227.96
1018.50	227.92
1018.79	228.04
1019.08	228.00
1019.36	228.14
1019.65	228.21
1019.93	228.40
1020.22	228.57
1020.51	228.68
1020.79	228.62
1021.08	226.80
1021.36	229.20
1021.65	230.90
1021.94	229.10
1022.22	230.00
1022.51	229.80
1022.79	230.50
1023.08	230.70
1023.36	230.20
1023.65	227.70
>>>>>End Processed Spectral Data<<<<<
