SpectraSuite Data File
++++++++++++++++++++++++++++++++++++
Date: Fri Feb 01 14:40:45 EST 2013
User: group
Dark Spectrum Present: No
Reference Spectrum Present: No
Number of Sampled Component Spectra: 1
Spectrometers: USB2E7196
Integration Time (usec): 70000 (USB2E7196)
Spectra Averaged: 10 (USB2E7196)
Boxcar Smoothing: 10 (USB2E7196)
Correct for Electrical Dark: No (USB2E7196)
Strobe/Lamp Enabled: No (USB2E7196)
Correct for Detector Non-linearity: No (USB2E7196)
Correct for Stray Light: No (USB2E7196)
Number of Pixels in Processed Spectrum: 2048
>>>>>Begin Processed Spectral Data<<<<<
339.09	0.00
339.48	216.90
339.86	218.50
340.24	221.10
340.63	220.50
341.01	226.30
341.39	223.40
341.78	225.10
342.16	225.70
342.54	226.60
342.93	215.17
343.31	226.07
343.69	226.51
344.07	226.89
344.46	227.10
344.84	227.51
345.22	227.70
345.60	227.96
345.99	228.16
346.37	228.26
346.75	228.25
347.13	228.25
347.52	228.37
347.90	228.45
348.28	228.41
348.66	228.47
349.05	228.40
349.43	228.51
349.81	228.36
350.19	228.52
350.57	228.54
350.96	228.56
351.34	228.57
351.72	228.77
352.10	228.84
352.48	228.97
352.87	228.99
353.25	228.91
353.63	228.90
354.01	228.94
354.39	229.03
354.77	229.20
355.15	229.37
355.54	229.49
355.92	229.53
356.30	229.64
356.68	229.75
357.06	229.80
357.44	229.77
357.82	229.90
358.20	229.84
358.58	229.90
358.97	229.97
359.35	230.06
359.73	230.16
360.11	230.31
360.49	230.48
360.87	230.54
361.25	230.61
361.63	230.75
362.01	230.73
362.39	230.79
362.77	230.81
363.15	230.72
363.53	230.65
363.91	230.47
364.29	230.41
364.67	230.15
365.05	230.11
365.43	230.13
365.81	230.18
366.19	230.31
366.57	230.35
366.95	230.32
367.33	230.22
367.71	230.12
368.09	230.04
368.47	229.91
368.85	229.79
369.23	229.74
369.61	229.60
369.99	229.60
370.37	229.47
370.75	229.59
371.13	229.46
371.51	229.38
371.89	229.42
372.27	229.33
372.65	229.43
373.03	229.44
373.41	229.35
373.78	229.24
374.16	229.10
374.54	228.95
374.92	228.82
375.30	228.74
375.68	228.58
376.06	228.51
376.44	228.54
376.82	228.58
377.19	228.51
377.57	228.50
377.95	228.36
378.33	228.27
378.71	228.04
379.09	228.08
379.47	228.06
379.84	228.00
380.22	227.90
380.60	227.86
380.98	227.77
381.36	227.71
381.73	227.62
382.11	227.60
382.49	227.53
382.87	227.52
383.25	227.57
383.62	227.80
384.00	227.80
384.38	227.72
384.76	227.59
385.13	227.65
385.51	227.57
385.89	227.53
386.27	227.55
386.64	227.50
387.02	227.42
387.40	227.28
387.78	227.25
388.15	227.24
388.53	227.10
388.91	227.15
389.29	227.09
389.66	227.21
390.04	227.19
390.42	227.23
390.79	227.20
391.17	227.10
391.55	226.86
391.92	226.83
392.30	226.81
392.68	226.90
393.05	226.87
393.43	226.92
393.81	226.92
394.18	226.96
394.56	227.02
394.94	227.06
395.31	227.18
395.69	227.26
396.06	227.42
396.44	227.56
396.82	227.45
397.19	227.55
397.57	227.52
397.95	227.66
398.32	227.64
398.70	227.68
399.07	227.87
399.45	227.92
399.82	227.96
400.20	227.96
400.58	228.01
400.95	228.08
401.33	228.23
401.70	228.53
402.08	228.68
402.45	228.74
402.83	229.02
403.20	229.10
403.58	229.22
403.95	229.31
404.33	229.47
404.71	229.79
405.08	230.04
405.46	230.20
405.83	230.25
406.21	230.54
406.58	230.77
406.96	230.89
407.33	231.02
407.70	231.21
408.08	231.67
408.45	231.92
408.83	232.27
409.20	232.50
409.58	232.57
409.95	232.95
410.33	233.19
410.70	233.31
411.08	233.63
411.45	233.90
411.82	234.19
412.20	234.58
412.57	235.05
412.95	235.26
413.32	235.64
413.69	236.12
414.07	236.53
414.44	237.03
414.82	237.58
415.19	238.28
415.56	238.82
415.94	239.30
416.31	239.84
416.68	240.31
417.06	240.97
417.43	241.76
417.81	242.41
418.18	243.28
418.55	244.14
418.93	245.01
419.30	245.95
419.67	246.77
420.04	247.65
420.42	248.51
420.79	249.89
421.16	251.16
421.54	252.41
421.91	253.66
422.28	254.88
422.66	256.17
423.03	257.47
423.40	258.92
423.77	260.37
424.15	261.89
424.52	263.50
424.89	265.09
425.26	266.64
425.64	268.23
426.01	269.83
426.38	271.66
426.75	273.45
427.13	275.31
427.50	277.34
427.87	279.19
428.24	281.21
428.61	282.99
428.99	284.97
429.36	287.01
429.73	289.08
430.10	291.22
430.47	293.41
430.85	295.53
431.22	297.69
431.59	300.22
431.96	302.63
432.33	305.15
432.70	307.62
433.08	310.51
433.45	313.20
433.82	315.88
434.19	318.72
434.56	321.66
434.93	324.24
435.30	327.00
435.68	330.13
436.05	332.93
436.42	335.70
436.79	338.36
437.16	341.19
437.53	344.21
437.90	347.12
438.27	349.77
438.64	352.71
439.01	355.60
439.38	357.93
439.75	360.17
440.13	362.70
440.50	365.15
440.87	367.20
441.24	369.20
441.61	371.47
441.98	373.15
442.35	374.87
442.72	376.93
443.09	378.91
443.46	379.94
443.83	380.66
444.20	381.30
444.57	382.18
444.94	382.53
445.31	382.86
445.68	383.39
446.05	383.67
446.42	383.20
446.79	382.69
447.16	382.20
447.53	381.87
447.90	380.75
448.27	379.56
448.64	377.78
449.01	376.54
449.37	374.47
449.74	372.46
450.11	370.36
450.48	367.78
450.85	365.03
451.22	362.77
451.59	360.79
451.96	358.74
452.33	355.98
452.70	353.52
453.07	350.60
453.43	347.34
453.80	344.37
454.17	341.80
454.54	339.29
454.91	336.29
455.28	333.54
455.65	330.93
456.02	328.56
456.38	326.40
456.75	323.65
457.12	321.37
457.49	319.08
457.86	316.72
458.23	314.82
458.59	312.59
458.96	310.43
459.33	308.19
459.70	306.19
460.07	304.54
460.43	302.68
460.80	301.09
461.17	299.68
461.54	297.98
461.91	296.44
462.27	294.80
462.64	293.52
463.01	291.99
463.38	290.60
463.74	288.82
464.11	287.62
464.48	286.46
464.85	285.21
465.21	284.25
465.58	283.16
465.95	281.74
466.32	280.76
466.68	279.58
467.05	278.70
467.42	277.68
467.78	276.73
468.15	275.66
468.52	274.68
468.88	273.73
469.25	272.96
469.62	272.10
469.98	271.17
470.35	270.34
470.72	269.59
471.08	268.78
471.45	268.19
471.82	267.47
472.18	266.68
472.55	266.14
472.92	265.40
473.28	264.82
473.65	264.33
474.02	263.77
474.38	263.40
474.75	262.96
475.11	262.41
475.48	261.94
475.85	261.65
476.21	261.34
476.58	260.91
476.94	260.60
477.31	260.28
477.67	260.10
478.04	259.89
478.41	259.60
478.77	259.53
479.14	259.36
479.50	259.03
479.87	258.97
480.23	258.68
480.60	258.59
480.96	258.40
481.33	258.49
481.69	258.34
482.06	258.27
482.42	258.15
482.79	258.26
483.15	258.18
483.52	258.27
483.88	258.18
484.25	258.21
484.61	258.33
484.98	258.41
485.34	258.54
485.71	258.68
486.07	258.92
486.44	258.95
486.80	259.20
487.17	259.43
487.53	259.76
487.90	260.18
488.26	260.52
488.62	260.96
488.99	261.31
489.35	261.79
489.72	262.27
490.08	262.86
490.44	263.31
490.81	264.10
491.17	264.72
491.54	265.46
491.90	266.11
492.26	266.92
492.63	267.75
492.99	268.58
493.36	269.53
493.72	270.58
494.08	271.61
494.45	272.67
494.81	273.90
495.17	275.20
495.54	276.43
495.90	277.75
496.26	279.20
496.63	280.62
496.99	282.28
497.35	284.00
497.72	285.63
498.08	287.47
498.44	289.33
498.80	291.42
499.17	293.55
499.53	295.88
499.89	298.24
500.26	300.74
500.62	303.20
500.98	305.98
501.34	308.69
501.71	311.70
502.07	314.69
502.43	317.80
502.79	321.09
503.16	324.51
503.52	328.10
503.88	331.70
504.24	335.60
504.60	339.49
504.97	343.68
505.33	348.13
505.69	352.80
506.05	357.40
506.41	362.04
506.78	366.99
507.14	371.96
507.50	377.32
507.86	382.66
508.22	388.30
508.59	393.95
508.95	400.00
509.31	406.30
509.67	412.72
510.03	419.35
510.39	426.02
510.75	432.99
511.12	440.12
511.48	447.48
511.84	454.94
512.20	462.67
512.56	470.55
512.92	478.59
513.28	486.75
513.64	495.19
514.00	503.86
514.37	512.75
514.73	521.78
515.09	530.61
515.45	539.88
515.81	549.40
516.17	559.03
516.53	568.70
516.89	578.49
517.25	588.62
517.61	598.75
517.97	608.96
518.33	619.55
518.69	630.12
519.05	641.19
519.41	652.25
519.77	663.73
520.13	675.32
520.49	686.68
520.85	698.34
521.21	710.18
521.57	722.25
521.93	733.90
522.29	746.41
522.65	758.87
523.01	771.43
523.37	783.73
523.73	796.59
524.09	809.36
524.45	822.30
524.81	835.22
525.17	848.66
525.53	862.21
525.89	875.70
526.25	889.71
526.61	903.09
526.97	916.90
527.33	930.38
527.68	944.46
528.04	958.55
528.40	972.41
528.76	986.68
529.12	1001.24
529.48	1015.91
529.84	1029.95
530.20	1044.49
530.56	1059.45
530.91	1074.50
531.27	1089.37
531.63	1104.07
531.99	1118.49
532.35	1133.05
532.71	1147.28
533.07	1162.03
533.42	1176.82
533.78	1190.79
534.14	1205.37
534.50	1219.40
534.86	1233.90
535.21	1247.39
535.57	1262.00
535.93	1276.48
536.29	1290.68
536.65	1304.47
537.00	1318.40
537.36	1332.55
537.72	1346.44
538.08	1360.00
538.44	1373.92
538.79	1387.37
539.15	1400.90
539.51	1414.70
539.87	1428.52
540.22	1442.28
540.58	1455.78
540.94	1469.05
541.29	1482.91
541.65	1495.74
542.01	1509.33
542.37	1522.47
542.72	1535.62
543.08	1548.17
543.44	1561.27
543.79	1573.44
544.15	1585.94
544.51	1599.04
544.87	1611.51
545.22	1623.25
545.58	1634.50
545.94	1645.40
546.29	1656.94
546.65	1668.16
547.01	1679.10
547.36	1689.86
547.72	1700.58
548.07	1711.34
548.43	1721.46
548.79	1731.06
549.14	1741.06
549.50	1750.62
549.86	1759.73
550.21	1769.05
550.57	1778.27
550.92	1787.08
551.28	1795.70
551.64	1804.42
551.99	1812.87
552.35	1821.02
552.70	1829.56
553.06	1838.04
553.41	1846.46
553.77	1854.04
554.13	1862.13
554.48	1869.84
554.84	1877.74
555.19	1885.15
555.55	1892.01
555.90	1898.75
556.26	1906.13
556.61	1913.05
556.97	1919.11
557.32	1926.04
557.68	1932.17
558.03	1938.38
558.39	1944.65
558.74	1951.50
559.10	1957.61
559.45	1963.32
559.81	1970.11
560.16	1975.56
560.52	1981.40
560.87	1987.47
561.23	1992.99
561.58	1998.21
561.94	2003.24
562.29	2007.26
562.64	2011.70
563.00	2016.46
563.35	2022.08
563.71	2027.06
564.06	2032.23
564.42	2037.65
564.77	2042.29
565.12	2047.75
565.48	2052.40
565.83	2056.14
566.19	2060.01
566.54	2063.50
566.89	2066.80
567.25	2069.41
567.60	2073.49
567.96	2076.70
568.31	2079.29
568.66	2081.86
569.02	2084.45
569.37	2086.79
569.72	2089.43
570.08	2091.56
570.43	2093.55
570.78	2094.56
571.14	2095.12
571.49	2096.10
571.84	2097.45
572.20	2098.10
572.55	2098.40
572.90	2098.54
573.26	2099.10
573.61	2099.18
573.96	2099.32
574.31	2098.15
574.67	2096.54
575.02	2095.04
575.37	2094.23
575.72	2092.29
576.08	2091.56
576.43	2090.37
576.78	2089.34
577.13	2088.32
577.49	2086.65
577.84	2084.68
578.19	2082.83
578.54	2080.81
578.90	2078.44
579.25	2075.08
579.60	2072.37
579.95	2069.07
580.30	2065.85
580.66	2062.19
581.01	2058.68
581.36	2055.43
581.71	2053.06
582.06	2050.89
582.42	2047.57
582.77	2043.77
583.12	2040.68
583.47	2037.07
583.82	2033.83
584.17	2029.70
584.53	2025.88
584.88	2022.49
585.23	2018.76
585.58	2014.92
585.93	2011.36
586.28	2007.83
586.63	2004.77
586.98	2001.40
587.34	1997.91
587.69	1994.32
588.04	1991.00
588.39	1987.28
588.74	1982.13
589.09	1977.17
589.44	1971.73
589.79	1967.34
590.14	1963.42
590.49	1958.84
590.84	1953.78
591.19	1948.53
591.54	1943.05
591.89	1936.77
592.25	1931.51
592.60	1925.47
592.95	1919.88
593.30	1914.13
593.65	1907.93
594.00	1901.74
594.35	1896.05
594.70	1889.67
595.05	1883.98
595.40	1877.59
595.75	1871.48
596.10	1866.52
596.45	1861.85
596.80	1857.23
597.15	1852.09
597.50	1845.72
597.85	1840.51
598.19	1835.50
598.54	1829.83
598.89	1825.06
599.24	1820.92
599.59	1815.34
599.94	1810.48
600.29	1804.91
600.64	1799.24
600.99	1792.90
601.34	1787.61
601.69	1781.15
602.04	1775.78
602.39	1769.90
602.74	1764.78
603.08	1759.23
603.43	1753.83
603.78	1748.05
604.13	1741.89
604.48	1735.88
604.83	1730.04
605.18	1724.18
605.53	1716.97
605.87	1710.19
606.22	1703.70
606.57	1696.77
606.92	1690.35
607.27	1684.04
607.62	1677.95
607.96	1671.70
608.31	1666.09
608.66	1658.80
609.01	1651.98
609.36	1644.83
609.70	1637.14
610.05	1629.12
610.40	1622.18
610.75	1614.48
611.10	1606.67
611.44	1598.59
611.79	1591.46
612.14	1583.91
612.49	1575.58
612.83	1568.40
613.18	1561.50
613.53	1554.19
613.88	1546.19
614.22	1538.74
614.57	1530.83
614.92	1523.13
615.27	1515.98
615.61	1508.30
615.96	1501.07
616.31	1494.02
616.65	1487.62
617.00	1481.38
617.35	1474.60
617.70	1466.79
618.04	1459.50
618.39	1452.69
618.74	1446.19
619.08	1438.37
619.43	1431.57
619.78	1424.96
620.12	1417.95
620.47	1410.64
620.82	1403.17
621.16	1396.32
621.51	1389.34
621.85	1382.34
622.20	1374.88
622.55	1367.63
622.89	1360.74
623.24	1353.81
623.59	1346.94
623.93	1339.90
624.28	1332.70
624.62	1325.75
624.97	1319.46
625.32	1312.64
625.66	1305.42
626.01	1298.50
626.35	1291.55
626.70	1284.30
627.04	1277.64
627.39	1270.75
627.73	1263.83
628.08	1257.27
628.43	1250.47
628.77	1243.52
629.12	1236.46
629.46	1230.01
629.81	1222.29
630.15	1215.07
630.50	1208.21
630.84	1200.67
631.19	1193.19
631.53	1185.78
631.88	1178.55
632.22	1171.01
632.57	1164.21
632.91	1157.11
633.26	1149.80
633.60	1142.55
633.95	1135.92
634.29	1128.93
634.64	1122.20
634.98	1115.15
635.32	1108.60
635.67	1102.30
636.01	1095.67
636.36	1089.23
636.70	1082.84
637.05	1076.96
637.39	1070.97
637.73	1064.62
638.08	1059.25
638.42	1053.18
638.77	1047.62
639.11	1041.72
639.45	1035.75
639.80	1029.49
640.14	1023.39
640.49	1017.41
640.83	1011.59
641.17	1005.49
641.52	999.41
641.86	993.30
642.20	987.60
642.55	981.46
642.89	975.34
643.23	969.17
643.58	963.54
643.92	957.13
644.26	951.22
644.61	945.35
644.95	939.33
645.29	932.60
645.64	926.29
645.98	919.90
646.32	914.01
646.66	908.01
647.01	901.98
647.35	896.17
647.69	890.50
648.04	884.77
648.38	878.94
648.72	872.60
649.06	866.65
649.41	860.69
649.75	854.51
650.09	848.56
650.43	842.74
650.78	836.26
651.12	830.50
651.46	824.70
651.80	819.08
652.14	813.61
652.49	808.14
652.83	802.77
653.17	797.19
653.51	791.47
653.85	785.78
654.20	780.39
654.54	774.61
654.88	769.16
655.22	763.44
655.56	757.65
655.90	752.58
656.25	747.46
656.59	742.11
656.93	737.40
657.27	732.20
657.61	727.09
657.95	722.40
658.29	717.51
658.64	712.59
658.98	707.36
659.32	702.10
659.66	697.27
660.00	692.40
660.34	687.63
660.68	682.89
661.02	678.10
661.36	673.42
661.70	669.13
662.05	664.76
662.39	660.58
662.73	656.33
663.07	651.94
663.41	647.76
663.75	643.59
664.09	638.97
664.43	634.89
664.77	630.80
665.11	626.90
665.45	622.77
665.79	618.73
666.13	614.63
666.47	610.87
666.81	606.64
667.15	602.50
667.49	598.46
667.83	594.62
668.17	590.93
668.51	587.00
668.85	582.98
669.19	579.04
669.53	575.26
669.87	571.60
670.21	568.07
670.55	564.43
670.89	561.18
671.23	558.02
671.57	554.81
671.91	551.37
672.25	547.77
672.58	544.61
672.92	541.17
673.26	537.98
673.60	534.71
673.94	531.86
674.28	528.97
674.62	526.26
674.96	523.33
675.30	520.33
675.64	517.48
675.97	514.76
676.31	511.92
676.65	509.21
676.99	506.72
677.33	503.74
677.67	500.80
678.01	497.84
678.34	495.09
678.68	492.06
679.02	489.31
679.36	486.68
679.70	483.92
680.04	481.40
680.37	478.70
680.71	475.94
681.05	473.47
681.39	470.98
681.73	468.23
682.06	465.78
682.40	463.51
682.74	461.08
683.08	458.66
683.42	456.08
683.75	453.57
684.09	450.81
684.43	448.59
684.77	446.28
685.10	443.96
685.44	441.60
685.78	439.49
686.12	437.17
686.45	434.79
686.79	432.38
687.13	430.19
687.46	428.01
687.80	425.89
688.14	423.45
688.48	421.20
688.81	418.97
689.15	416.69
689.49	414.33
689.82	412.19
690.16	409.96
690.50	408.07
690.83	405.96
691.17	403.94
691.51	401.97
691.84	399.87
692.18	397.88
692.52	395.80
692.85	393.90
693.19	392.10
693.52	390.23
693.86	388.53
694.20	386.54
694.53	384.63
694.87	382.81
695.21	381.13
695.54	379.31
695.88	377.45
696.21	375.68
696.55	374.07
696.88	372.43
697.22	370.74
697.56	369.14
697.89	367.64
698.23	366.03
698.56	364.33
698.90	362.82
699.23	361.03
699.57	359.50
699.90	357.70
700.24	355.98
700.58	354.30
700.91	352.82
701.25	351.47
701.58	350.08
701.92	348.65
702.25	347.24
702.59	345.74
702.92	344.52
703.26	343.21
703.59	341.72
703.93	340.41
704.26	339.21
704.60	337.68
704.93	336.09
705.26	334.60
705.60	333.40
705.93	332.16
706.27	331.20
706.60	330.05
706.94	328.87
707.27	327.80
707.61	326.60
707.94	325.41
708.27	324.15
708.61	322.97
708.94	321.70
709.28	320.59
709.61	319.58
709.94	318.36
710.28	317.21
710.61	316.19
710.95	314.98
711.28	313.96
711.61	312.98
711.95	312.21
712.28	311.38
712.61	310.26
712.95	309.34
713.28	308.27
713.61	307.15
713.95	306.18
714.28	305.26
714.61	304.44
714.95	303.47
715.28	302.46
715.61	301.57
715.95	300.86
716.28	299.90
716.61	299.03
716.95	298.24
717.28	297.58
717.61	296.88
717.94	296.05
718.28	295.10
718.61	294.29
718.94	293.50
719.27	292.68
719.61	292.06
719.94	291.20
720.27	290.47
720.60	289.86
720.94	289.19
721.27	288.44
721.60	287.82
721.93	287.19
722.27	286.72
722.60	286.12
722.93	285.39
723.26	284.84
723.59	284.35
723.93	283.74
724.26	283.05
724.59	282.29
724.92	281.78
725.25	281.25
725.59	280.70
725.92	280.03
726.25	279.50
726.58	278.88
726.91	278.38
727.24	277.88
727.57	277.27
727.91	276.66
728.24	276.24
728.57	275.73
728.90	275.20
729.23	274.57
729.56	274.14
729.89	273.62
730.22	273.10
730.55	272.51
730.89	272.05
731.22	271.54
731.55	271.20
731.88	270.80
732.21	270.38
732.54	269.93
732.87	269.56
733.20	269.07
733.53	268.57
733.86	268.17
734.19	267.69
734.52	267.34
734.85	267.12
735.18	266.70
735.51	266.23
735.84	265.76
736.17	265.57
736.50	265.06
736.83	264.94
737.16	264.53
737.49	264.15
737.82	263.79
738.15	263.45
738.48	262.97
738.81	262.53
739.14	262.11
739.47	261.69
739.80	261.29
740.13	260.88
740.46	260.60
740.79	260.23
741.12	259.87
741.45	259.51
741.78	259.13
742.11	258.75
742.44	258.40
742.77	258.22
743.10	257.80
743.43	257.38
743.75	256.86
744.08	256.80
744.41	256.49
744.74	256.17
745.07	255.92
745.40	255.72
745.73	255.47
746.06	255.16
746.39	254.97
746.71	254.63
747.04	254.45
747.37	254.09
747.70	253.76
748.03	253.47
748.36	253.25
748.68	252.81
749.01	252.48
749.34	252.20
749.67	251.84
750.00	251.64
750.33	251.53
750.65	251.26
750.98	250.78
751.31	250.40
751.64	250.15
751.97	249.97
752.29	249.66
752.62	249.31
752.95	249.04
753.28	248.72
753.60	248.45
753.93	248.25
754.26	248.09
754.59	247.90
754.91	247.72
755.24	247.36
755.57	247.21
755.90	247.01
756.22	246.80
756.55	246.58
756.88	246.30
757.20	245.90
757.53	245.70
757.86	245.44
758.19	245.41
758.51	245.24
758.84	244.91
759.17	244.71
759.49	244.44
759.82	244.36
760.15	244.23
760.47	244.09
760.80	243.85
761.13	243.70
761.45	243.49
761.78	243.20
762.11	243.18
762.43	243.05
762.76	242.88
763.08	242.79
763.41	242.63
763.74	242.39
764.06	242.36
764.39	242.16
764.71	242.04
765.04	241.86
765.37	241.58
765.69	241.50
766.02	241.31
766.34	241.26
766.67	241.05
767.00	240.99
767.32	240.97
767.65	240.97
767.97	240.80
768.30	240.65
768.62	240.58
768.95	240.43
769.27	240.24
769.60	240.17
769.92	240.00
770.25	239.87
770.57	239.70
770.90	239.50
771.22	239.37
771.55	239.20
771.87	239.08
772.20	239.03
772.52	239.07
772.85	239.27
773.17	239.17
773.50	239.12
773.82	238.99
774.15	238.74
774.47	238.53
774.80	238.46
775.12	238.52
775.45	238.42
775.77	238.20
776.09	238.22
776.42	238.07
776.74	237.88
777.07	237.81
777.39	237.70
777.72	237.64
778.04	237.60
778.36	237.55
778.69	237.35
779.01	237.28
779.33	236.97
779.66	236.57
779.98	236.47
780.31	236.44
780.63	236.36
780.95	236.38
781.28	236.29
781.60	236.06
781.92	235.83
782.25	235.81
782.57	235.77
782.89	235.63
783.22	235.65
783.54	235.67
783.86	235.60
784.19	235.64
784.51	235.61
784.83	235.51
785.16	235.51
785.48	235.50
785.80	235.40
786.12	235.36
786.45	235.43
786.77	235.24
787.09	235.10
787.42	235.10
787.74	234.89
788.06	234.83
788.38	234.80
788.71	234.72
789.03	234.64
789.35	234.58
789.67	234.51
789.99	234.40
790.32	234.37
790.64	234.22
790.96	234.22
791.28	234.10
791.61	234.08
791.93	233.96
792.25	233.92
792.57	234.04
792.89	234.02
793.21	233.94
793.54	234.04
793.86	233.96
794.18	233.87
794.50	233.95
794.82	233.89
795.14	233.84
795.47	233.84
795.79	233.72
796.11	233.66
796.43	233.57
796.75	233.58
797.07	233.39
797.39	233.42
797.71	233.29
798.04	233.34
798.36	233.23
798.68	233.17
799.00	233.06
799.32	232.76
799.64	232.66
799.96	232.59
800.28	232.57
800.60	232.51
800.92	232.40
801.24	232.25
801.56	232.16
801.89	232.18
802.21	232.10
802.53	232.03
802.85	231.98
803.17	231.99
803.49	231.84
803.81	231.83
804.13	231.77
804.45	231.59
804.77	231.54
805.09	231.53
805.41	231.46
805.73	231.40
806.05	231.47
806.37	231.41
806.69	231.33
807.01	231.19
807.33	231.25
807.65	231.11
807.97	231.15
808.28	231.14
808.60	231.13
808.92	231.06
809.24	231.18
809.56	231.15
809.88	231.14
810.20	231.09
810.52	231.16
810.84	231.06
811.16	231.10
811.48	231.01
811.80	231.04
812.12	230.96
812.43	231.05
812.75	231.00
813.07	231.01
813.39	230.99
813.71	230.97
814.03	230.74
814.35	230.80
814.67	230.70
814.98	230.70
815.30	230.66
815.62	230.68
815.94	230.54
816.26	230.64
816.58	230.46
816.89	230.49
817.21	230.47
817.53	230.56
817.85	230.53
818.17	230.51
818.48	230.44
818.80	230.59
819.12	230.44
819.44	230.36
819.76	230.27
820.07	230.22
820.39	230.28
820.71	230.33
821.03	230.24
821.34	230.25
821.66	230.15
821.98	230.08
822.30	230.03
822.61	230.13
822.93	230.00
823.25	230.12
823.57	230.06
823.88	230.03
824.20	229.91
824.52	230.02
824.83	229.98
825.15	229.94
825.47	229.87
825.79	229.90
826.10	229.89
826.42	229.87
826.74	229.90
827.05	229.82
827.37	229.90
827.69	229.91
828.00	229.93
828.32	229.94
828.64	229.94
828.95	230.07
829.27	230.02
829.58	229.95
829.90	230.00
830.22	230.02
830.53	229.96
830.85	229.90
831.17	229.78
831.48	229.84
831.80	229.89
832.11	229.88
832.43	229.87
832.75	229.91
833.06	230.09
833.38	230.00
833.69	230.00
834.01	229.95
834.32	229.95
834.64	229.93
834.96	229.90
835.27	229.89
835.59	229.78
835.90	229.70
836.22	229.61
836.53	229.44
836.85	229.40
837.16	229.56
837.48	229.65
837.79	229.66
838.11	229.58
838.42	229.46
838.74	229.47
839.05	229.40
839.37	229.38
839.68	229.14
840.00	229.09
840.31	229.02
840.63	228.99
840.94	228.92
841.26	228.88
841.57	228.86
841.88	229.00
842.20	229.06
842.51	229.03
842.83	229.02
843.14	229.30
843.46	229.30
843.77	229.22
844.08	229.17
844.40	229.13
844.71	229.12
845.03	229.13
845.34	229.11
845.65	229.14
845.97	229.06
846.28	229.10
846.60	229.24
846.91	229.32
847.22	229.33
847.54	229.43
847.85	229.41
848.16	229.42
848.48	229.27
848.79	229.22
849.10	229.23
849.42	229.34
849.73	229.12
850.04	229.00
850.36	228.97
850.67	229.02
850.98	229.01
851.30	228.97
851.61	228.91
851.92	228.88
852.23	228.89
852.55	229.11
852.86	229.20
853.17	229.07
853.49	229.14
853.80	229.11
854.11	229.16
854.42	229.28
854.74	229.28
855.05	229.30
855.36	229.27
855.67	229.24
855.99	229.29
856.30	229.46
856.61	229.56
856.92	229.56
857.23	229.44
857.55	229.50
857.86	229.58
858.17	229.70
858.48	229.64
858.79	229.73
859.11	229.68
859.42	229.63
859.73	229.68
860.04	229.66
860.35	229.70
860.66	229.63
860.98	229.61
861.29	229.63
861.60	229.54
861.91	229.51
862.22	229.48
862.53	229.44
862.84	229.26
863.16	229.35
863.47	229.30
863.78	229.46
864.09	229.37
864.40	229.27
864.71	229.23
865.02	229.28
865.33	229.20
865.64	229.13
865.95	229.09
866.27	229.20
866.58	229.12
866.89	229.13
867.20	229.11
867.51	229.05
867.82	229.00
868.13	229.14
868.44	229.09
868.75	229.17
869.06	228.98
869.37	229.02
869.68	228.91
869.99	228.97
870.30	228.95
870.61	229.00
870.92	229.07
871.23	229.05
871.54	229.13
871.85	229.04
872.16	229.07
872.47	229.00
872.78	228.90
873.09	228.97
873.40	228.93
873.71	228.93
874.02	228.90
874.33	228.95
874.64	228.87
874.95	228.93
875.26	228.82
875.56	228.94
875.87	228.90
876.18	228.83
876.49	228.89
876.80	228.88
877.11	228.80
877.42	228.69
877.73	228.65
878.04	228.50
878.35	228.62
878.66	228.47
878.96	228.54
879.27	228.49
879.58	228.31
879.89	228.18
880.20	228.17
880.51	228.14
880.82	228.13
881.12	228.16
881.43	228.13
881.74	228.12
882.05	228.07
882.36	228.03
882.67	228.09
882.97	227.99
883.28	227.93
883.59	227.99
883.90	228.07
884.21	228.06
884.51	228.12
884.82	228.09
885.13	228.14
885.44	228.11
885.74	228.12
886.05	228.17
886.36	228.20
886.67	228.14
886.98	228.20
887.28	228.15
887.59	228.02
887.90	228.03
888.20	228.13
888.51	228.32
888.82	228.26
889.13	228.33
889.43	228.34
889.74	228.28
890.05	228.23
890.35	228.23
890.66	228.29
890.97	228.23
891.28	228.13
891.58	228.15
891.89	228.19
892.20	228.20
892.50	228.14
892.81	228.15
893.12	228.13
893.42	228.10
893.73	228.20
894.04	228.37
894.34	228.32
894.65	228.22
894.95	228.17
895.26	228.25
895.57	228.29
895.87	228.23
896.18	228.27
896.48	228.27
896.79	228.31
897.10	228.31
897.40	228.44
897.71	228.60
898.01	228.61
898.32	228.62
898.63	228.67
898.93	228.74
899.24	228.78
899.54	228.87
899.85	228.87
900.15	228.92
900.46	228.91
900.76	228.97
901.07	228.97
901.38	228.88
901.68	228.92
901.99	228.80
902.29	228.77
902.60	228.77
902.90	228.79
903.21	228.77
903.51	228.72
903.82	228.70
904.12	228.71
904.43	228.78
904.73	228.77
905.03	228.67
905.34	228.92
905.64	228.91
905.95	228.88
906.25	228.88
906.56	228.78
906.86	228.71
907.17	228.71
907.47	228.72
907.77	228.79
908.08	228.72
908.38	228.80
908.69	228.89
908.99	229.02
909.30	229.03
909.60	229.09
909.90	229.12
910.21	229.01
910.51	228.96
910.81	228.89
911.12	228.90
911.42	228.98
911.73	228.67
912.03	228.73
912.33	228.74
912.64	228.75
912.94	228.67
913.24	228.71
913.55	228.73
913.85	228.69
914.15	228.72
914.46	228.70
914.76	228.57
915.06	228.52
915.37	228.43
915.67	228.41
915.97	228.36
916.27	228.34
916.58	228.42
916.88	228.33
917.18	228.28
917.49	228.40
917.79	228.33
918.09	228.40
918.39	228.47
918.70	228.40
919.00	228.40
919.30	228.48
919.60	228.41
919.91	228.30
920.21	228.39
920.51	228.31
920.81	228.30
921.12	228.35
921.42	228.30
921.72	228.30
922.02	228.33
922.32	228.30
922.63	228.24
922.93	228.30
923.23	228.29
923.53	228.35
923.83	228.19
924.13	228.11
924.44	228.04
924.74	228.01
925.04	228.10
925.34	228.07
925.64	228.08
925.94	228.04
926.24	228.12
926.55	228.10
926.85	228.17
927.15	228.23
927.45	228.23
927.75	228.27
928.05	228.26
928.35	228.27
928.65	228.30
928.95	228.41
929.26	228.25
929.56	228.39
929.86	228.30
930.16	228.31
930.46	228.47
930.76	228.54
931.06	228.40
931.36	228.43
931.66	228.40
931.96	228.41
932.26	228.51
932.56	228.53
932.86	228.55
933.16	228.49
933.46	228.43
933.76	228.44
934.06	228.53
934.36	228.50
934.66	228.53
934.96	228.52
935.26	228.50
935.56	228.70
935.86	228.52
936.16	228.68
936.46	228.77
936.76	228.76
937.06	228.66
937.36	228.70
937.66	228.75
937.96	228.85
938.26	228.81
938.56	228.77
938.86	228.75
939.16	228.83
939.46	228.93
939.76	229.02
940.06	229.01
940.35	228.94
940.65	228.94
940.95	228.97
941.25	229.01
941.55	229.00
941.85	228.91
942.15	229.07
942.45	229.00
942.75	228.94
943.04	229.05
943.34	229.24
943.64	229.32
943.94	229.24
944.24	229.19
944.54	229.24
944.84	229.38
945.13	229.32
945.43	229.24
945.73	229.20
946.03	229.18
946.33	229.21
946.62	229.18
946.92	229.17
947.22	229.11
947.52	229.09
947.82	229.15
948.11	229.16
948.41	229.11
948.71	229.09
949.01	229.11
949.31	228.95
949.60	228.91
949.90	228.85
950.20	228.78
950.50	228.70
950.79	228.73
951.09	228.72
951.39	228.70
951.69	228.77
951.98	228.74
952.28	228.72
952.58	228.60
952.87	228.59
953.17	228.59
953.47	228.50
953.76	228.53
954.06	228.48
954.36	228.32
954.66	228.23
954.95	228.26
955.25	228.26
955.55	228.29
955.84	228.16
956.14	228.16
956.44	228.21
956.73	228.23
957.03	228.17
957.32	228.05
957.62	228.00
957.92	227.93
958.21	227.95
958.51	228.19
958.81	228.29
959.10	228.34
959.40	228.34
959.69	228.40
959.99	228.38
960.29	228.26
960.58	228.29
960.88	228.46
961.17	228.44
961.47	228.54
961.76	228.46
962.06	228.54
962.36	228.50
962.65	228.45
962.95	228.45
963.24	228.42
963.54	228.42
963.83	228.51
964.13	228.55
964.42	228.51
964.72	228.24
965.01	228.23
965.31	228.23
965.60	228.27
965.90	228.34
966.19	228.35
966.49	228.40
966.78	228.47
967.08	228.37
967.37	228.41
967.67	228.20
967.96	228.32
968.26	228.37
968.55	228.48
968.85	228.48
969.14	228.50
969.43	228.53
969.73	228.47
970.02	228.51
970.32	228.44
970.61	228.48
970.91	228.52
971.20	228.44
971.49	228.41
971.79	228.43
972.08	228.31
972.38	228.30
972.67	228.37
972.96	228.48
973.26	228.48
973.55	228.55
973.85	228.64
974.14	228.63
974.43	228.53
974.73	228.50
975.02	228.48
975.31	228.45
975.61	228.44
975.90	228.56
976.19	228.55
976.49	228.64
976.78	228.70
977.07	228.59
977.37	228.66
977.66	228.71
977.95	228.69
978.24	228.72
978.54	228.74
978.83	228.67
979.12	228.61
979.42	228.60
979.71	228.45
980.00	228.43
980.29	228.37
980.59	228.35
980.88	228.33
981.17	228.37
981.46	228.42
981.76	228.41
982.05	228.37
982.34	228.32
982.63	228.25
982.93	228.24
983.22	228.40
983.51	228.44
983.80	228.51
984.09	228.47
984.39	228.43
984.68	228.39
984.97	228.47
985.26	228.37
985.55	228.41
985.85	228.42
986.14	228.44
986.43	228.47
986.72	228.45
987.01	228.37
987.30	228.35
987.59	228.37
987.89	228.42
988.18	228.39
988.47	228.34
988.76	228.33
989.05	228.23
989.34	228.19
989.63	228.19
989.92	228.06
990.22	228.07
990.51	228.16
990.80	228.02
991.09	227.92
991.38	227.98
991.67	228.00
991.96	227.96
992.25	227.87
992.54	227.82
992.83	227.83
993.12	227.83
993.41	227.82
993.70	227.84
993.99	227.70
994.28	227.66
994.58	227.67
994.87	227.77
995.16	227.69
995.45	227.65
995.74	227.61
996.03	227.67
996.32	227.72
996.61	227.68
996.90	227.89
997.19	227.95
997.48	227.96
997.77	227.90
998.06	228.04
998.34	228.09
998.63	228.16
998.92	228.25
999.21	228.31
999.50	228.36
999.79	228.20
1000.08	228.37
1000.37	228.40
1000.66	228.47
1000.95	228.40
1001.24	228.52
1001.53	228.52
1001.82	228.54
1002.11	228.50
1002.40	228.53
1002.68	228.64
1002.97	228.73
1003.26	228.75
1003.55	228.75
1003.84	228.80
1004.13	228.73
1004.42	228.72
1004.71	228.67
1004.99	228.69
1005.28	228.75
1005.57	228.68
1005.86	228.77
1006.15	228.69
1006.44	228.80
1006.72	228.71
1007.01	228.73
1007.30	228.69
1007.59	228.72
1007.88	228.71
1008.17	228.82
1008.45	228.70
1008.74	228.60
1009.03	228.50
1009.32	228.48
1009.60	228.42
1009.89	228.34
1010.18	228.34
1010.47	228.42
1010.76	228.47
1011.04	228.53
1011.33	228.54
1011.62	228.63
1011.91	228.60
1012.19	228.67
1012.48	228.58
1012.77	228.65
1013.05	228.72
1013.34	228.67
1013.63	228.61
1013.92	228.67
1014.20	228.54
1014.49	228.61
1014.78	228.59
1015.06	228.44
1015.35	228.42
1015.64	228.51
1015.92	228.58
1016.21	228.60
1016.50	228.49
1016.78	228.51
1017.07	228.45
1017.36	228.38
1017.64	228.39
1017.93	228.49
1018.22	228.38
1018.50	228.37
1018.79	228.36
1019.08	228.26
1019.36	228.36
1019.65	228.41
1019.93	228.41
1020.22	228.42
1020.51	228.41
1020.79	228.43
1021.08	227.40
1021.36	227.90
1021.65	228.30
1021.94	227.60
1022.22	229.30
1022.51	228.80
1022.79	229.50
1023.08	228.30
1023.36	228.60
1023.65	228.10
>>>>>End Processed Spectral Data<<<<<
