SpectraSuite Data File
++++++++++++++++++++++++++++++++++++
Date: Fri Feb 01 14:37:41 EST 2013
User: group
Dark Spectrum Present: No
Reference Spectrum Present: No
Number of Sampled Component Spectra: 1
Spectrometers: USB2E7196
Integration Time (usec): 70000 (USB2E7196)
Spectra Averaged: 10 (USB2E7196)
Boxcar Smoothing: 10 (USB2E7196)
Correct for Electrical Dark: No (USB2E7196)
Strobe/Lamp Enabled: No (USB2E7196)
Correct for Detector Non-linearity: No (USB2E7196)
Correct for Stray Light: No (USB2E7196)
Number of Pixels in Processed Spectrum: 2048
>>>>>Begin Processed Spectral Data<<<<<
339.09	0.00
339.48	218.00
339.86	217.00
340.24	220.20
340.63	221.10
341.01	223.50
341.39	223.50
341.78	225.00
342.16	225.60
342.54	225.60
342.93	215.01
343.31	225.87
343.69	226.35
344.07	226.82
344.46	227.24
344.84	227.62
345.22	227.93
345.60	228.11
345.99	228.26
346.37	228.31
346.75	228.51
347.13	228.54
347.52	228.56
347.90	228.61
348.28	228.60
348.66	228.79
349.05	228.67
349.43	228.80
349.81	228.70
350.19	228.78
350.57	228.78
350.96	228.87
351.34	228.90
351.72	228.97
352.10	229.11
352.48	229.06
352.87	229.12
353.25	229.02
353.63	229.22
354.01	229.36
354.39	229.51
354.77	229.55
355.15	229.80
355.54	229.82
355.92	229.80
356.30	230.01
356.68	230.02
357.06	230.10
357.44	230.00
357.82	230.14
358.20	230.20
358.58	230.20
358.97	230.19
359.35	230.34
359.73	230.36
360.11	230.30
360.49	230.41
360.87	230.41
361.25	230.52
361.63	230.50
362.01	230.40
362.39	230.49
362.77	230.46
363.15	230.27
363.53	230.39
363.91	230.51
364.29	230.53
364.67	230.48
365.05	230.45
365.43	230.58
365.81	230.46
366.19	230.47
366.57	230.49
366.95	230.47
367.33	230.31
367.71	230.37
368.09	230.38
368.47	230.28
368.85	230.21
369.23	230.13
369.61	229.97
369.99	230.10
370.37	229.98
370.75	230.08
371.13	230.06
371.51	229.89
371.89	229.76
372.27	229.59
372.65	229.53
373.03	229.55
373.41	229.42
373.78	229.39
374.16	229.26
374.54	229.15
374.92	228.97
375.30	228.98
375.68	228.78
376.06	228.78
376.44	228.76
376.82	228.75
377.19	228.79
377.57	228.81
377.95	228.62
378.33	228.59
378.71	228.31
379.09	228.18
379.47	228.04
379.84	228.00
380.22	227.90
380.60	227.69
380.98	227.57
381.36	227.46
381.73	227.39
382.11	227.24
382.49	227.22
382.87	227.12
383.25	227.09
383.62	227.30
384.00	227.16
384.38	227.10
384.76	226.99
385.13	227.03
385.51	226.92
385.89	226.75
386.27	226.59
386.64	226.53
387.02	226.50
387.40	226.57
387.78	226.43
388.15	226.43
388.53	226.46
388.91	226.47
389.29	226.40
389.66	226.43
390.04	226.42
390.42	226.48
390.79	226.51
391.17	226.38
391.55	226.18
391.92	226.20
392.30	226.20
392.68	226.23
393.05	226.10
393.43	226.12
393.81	226.18
394.18	226.35
394.56	226.39
394.94	226.51
395.31	226.45
395.69	226.64
396.06	226.73
396.44	226.87
396.82	226.94
397.19	227.14
397.57	227.12
397.95	227.29
398.32	227.19
398.70	227.35
399.07	227.52
399.45	227.70
399.82	227.71
400.20	227.80
400.58	227.87
400.95	227.88
401.33	228.03
401.70	228.25
402.08	228.36
402.45	228.59
402.83	228.79
403.20	229.07
403.58	229.14
403.95	229.26
404.33	229.39
404.71	229.44
405.08	229.75
405.46	230.07
405.83	230.26
406.21	230.60
406.58	230.80
406.96	231.02
407.33	231.09
407.70	231.50
408.08	231.88
408.45	232.27
408.83	232.60
409.20	232.87
409.58	233.19
409.95	233.57
410.33	233.90
410.70	234.21
411.08	234.56
411.45	235.07
411.82	235.52
412.20	236.02
412.57	236.79
412.95	237.14
413.32	237.59
413.69	238.14
414.07	238.70
414.44	239.37
414.82	240.11
415.19	240.99
415.56	241.69
415.94	242.47
416.31	243.34
416.68	244.40
417.06	245.50
417.43	246.44
417.81	247.55
418.18	248.74
418.55	250.03
418.93	251.34
419.30	252.67
419.67	254.10
420.04	255.54
420.42	257.04
420.79	258.94
421.16	260.77
421.54	262.62
421.91	264.40
422.28	266.28
422.66	268.23
423.03	270.35
423.40	272.50
423.77	274.69
424.15	277.01
424.52	279.33
424.89	281.89
425.26	284.58
425.64	286.85
426.01	289.59
426.38	292.25
426.75	295.11
427.13	297.86
427.50	300.95
427.87	304.19
428.24	307.34
428.61	310.26
428.99	313.67
429.36	317.23
429.73	320.99
430.10	324.59
430.47	328.23
430.85	331.84
431.22	335.67
431.59	339.90
431.96	343.84
432.33	348.12
432.70	352.41
433.08	357.24
433.45	361.98
433.82	366.45
434.19	371.49
434.56	376.36
434.93	381.52
435.30	386.11
435.68	391.22
436.05	396.33
436.42	401.49
436.79	406.09
437.16	411.31
437.53	416.54
437.90	421.87
438.27	427.19
438.64	432.52
439.01	437.63
439.38	441.90
439.75	446.22
440.13	451.10
440.50	455.71
440.87	459.50
441.24	463.61
441.61	468.06
441.98	471.35
442.35	475.34
442.72	478.97
443.09	482.90
443.46	485.36
443.83	487.04
444.20	488.56
444.57	490.85
444.94	491.89
445.31	493.23
445.68	494.48
446.05	495.24
446.42	495.35
446.79	495.15
447.16	495.05
447.53	495.19
447.90	494.03
448.27	492.56
448.64	490.48
449.01	489.00
449.37	486.00
449.74	483.09
450.11	479.60
450.48	475.66
450.85	471.46
451.22	468.06
451.59	464.95
451.96	461.85
452.33	457.28
452.70	453.43
453.07	448.66
453.43	443.72
453.80	439.05
454.17	434.46
454.54	430.25
454.91	425.65
455.28	420.99
455.65	416.65
456.02	412.55
456.38	408.74
456.75	403.95
457.12	399.92
457.49	396.14
457.86	392.21
458.23	388.96
458.59	385.40
458.96	381.73
459.33	378.41
459.70	375.14
460.07	372.55
460.43	369.48
460.80	366.45
461.17	363.89
461.54	361.17
461.91	358.60
462.27	355.91
462.64	353.72
463.01	351.20
463.38	348.70
463.74	346.02
464.11	343.83
464.48	341.88
464.85	339.92
465.21	338.39
465.58	336.72
465.95	334.77
466.32	333.15
466.68	331.52
467.05	329.75
467.42	328.05
467.78	326.31
468.15	324.55
468.52	323.26
468.88	321.57
469.25	320.01
469.62	318.71
469.98	317.38
470.35	316.04
470.72	314.77
471.08	313.40
471.45	312.45
471.82	311.32
472.18	310.20
472.55	309.33
472.92	308.22
473.28	307.15
473.65	306.11
474.02	305.20
474.38	304.26
474.75	303.54
475.11	302.78
475.48	302.11
475.85	301.57
476.21	300.95
476.58	300.49
476.94	299.94
477.31	299.43
477.67	298.95
478.04	298.45
478.41	298.14
478.77	297.97
479.14	297.48
479.50	297.19
479.87	296.85
480.23	296.53
480.60	296.23
480.96	296.02
481.33	295.93
481.69	295.77
482.06	295.57
482.42	295.28
482.79	295.12
483.15	295.03
483.52	294.94
483.88	295.02
484.25	294.95
484.61	294.99
484.98	294.77
485.34	294.95
485.71	295.16
486.07	295.30
486.44	295.44
486.80	295.57
487.17	295.72
487.53	296.08
487.90	296.30
488.26	296.77
488.62	297.09
488.99	297.31
489.35	297.57
489.72	298.11
490.08	298.63
490.44	298.98
490.81	299.42
491.17	299.76
491.54	300.13
491.90	300.54
492.26	301.04
492.63	301.67
492.99	302.01
493.36	302.46
493.72	302.98
494.08	303.41
494.45	304.08
494.81	304.71
495.17	305.18
495.54	305.87
495.90	306.38
496.26	307.03
496.63	307.68
496.99	308.51
497.35	308.96
497.72	309.67
498.08	310.26
498.44	310.87
498.80	311.65
499.17	312.26
499.53	312.93
499.89	313.60
500.26	314.30
500.62	314.91
500.98	315.60
501.34	316.18
501.71	316.81
502.07	317.25
502.43	317.74
502.79	318.29
503.16	318.74
503.52	318.93
503.88	319.30
504.24	319.68
504.60	319.80
504.97	320.22
505.33	320.53
505.69	320.85
506.05	321.24
506.41	321.50
506.78	321.66
507.14	321.79
507.50	322.10
507.86	322.34
508.22	322.54
508.59	322.61
508.95	322.91
509.31	323.06
509.67	323.13
510.03	323.33
510.39	323.48
510.75	323.51
511.12	323.69
511.48	323.81
511.84	323.88
512.20	324.15
512.56	324.29
512.92	324.29
513.28	324.59
513.64	324.69
514.00	324.82
514.37	324.95
514.73	325.11
515.09	325.06
515.45	325.01
515.81	325.07
516.17	325.19
516.53	325.25
516.89	325.39
517.25	325.67
517.61	325.98
517.97	326.25
518.33	326.58
518.69	327.07
519.05	327.41
519.41	327.94
519.77	328.53
520.13	329.06
520.49	329.77
520.85	330.30
521.21	331.07
521.57	331.83
521.93	332.60
522.29	333.59
522.65	334.62
523.01	335.70
523.37	336.80
523.73	338.03
524.09	339.13
524.45	340.34
524.81	341.69
525.17	343.08
525.53	344.62
525.89	346.21
526.25	347.97
526.61	349.63
526.97	351.41
527.33	353.26
527.68	355.31
528.04	357.20
528.40	359.20
528.76	361.35
529.12	363.60
529.48	366.02
529.84	368.31
530.20	370.72
530.56	373.38
530.91	376.21
531.27	378.96
531.63	381.89
531.99	384.81
532.35	387.83
532.71	390.71
533.07	393.89
533.42	397.17
533.78	400.44
534.14	404.10
534.50	407.37
534.86	410.68
535.21	413.99
535.57	417.62
535.93	421.40
536.29	425.06
536.65	428.90
537.00	432.62
537.36	436.52
537.72	440.62
538.08	444.60
538.44	448.65
538.79	452.90
539.15	457.06
539.51	461.25
539.87	465.58
540.22	470.10
540.58	474.47
540.94	478.73
541.29	482.90
541.65	487.11
542.01	491.62
542.37	496.27
542.72	500.92
543.08	505.57
543.44	510.21
543.79	514.87
544.15	519.50
544.51	524.28
544.87	529.22
545.22	534.10
545.58	538.90
545.94	543.61
546.29	548.40
546.65	553.11
547.01	558.27
547.36	563.10
547.72	567.79
548.07	572.80
548.43	577.84
548.79	582.88
549.14	587.89
549.50	592.99
549.86	597.73
550.21	602.60
550.57	607.66
550.92	612.48
551.28	617.37
551.64	622.50
551.99	627.69
552.35	632.65
552.70	637.43
553.06	642.62
553.41	647.67
553.77	652.66
554.13	657.63
554.48	662.27
554.84	667.21
555.19	672.24
555.55	676.91
555.90	681.48
556.26	686.43
556.61	691.13
556.97	695.70
557.32	700.83
557.68	705.73
558.03	710.42
558.39	715.23
558.74	719.94
559.10	724.77
559.45	729.40
559.81	734.24
560.16	738.77
560.52	743.22
560.87	747.72
561.23	751.96
561.58	756.66
561.94	761.01
562.29	765.02
562.64	769.37
563.00	773.67
563.35	778.32
563.71	782.55
564.06	787.12
564.42	791.53
564.77	795.47
565.12	799.71
565.48	803.91
565.83	807.93
566.19	812.09
566.54	815.70
566.89	819.56
567.25	823.20
567.60	827.29
567.96	831.03
568.31	834.93
568.66	838.64
569.02	842.03
569.37	845.60
569.72	849.32
570.08	852.27
570.43	855.65
570.78	858.90
571.14	861.95
571.49	864.67
571.84	867.90
572.20	870.88
572.55	873.42
572.90	875.80
573.26	878.63
573.61	881.08
573.96	883.61
574.31	885.84
574.67	888.06
575.02	889.92
575.37	892.10
575.72	893.66
576.08	895.54
576.43	897.40
576.78	899.05
577.13	900.74
577.49	902.61
577.84	904.16
578.19	905.59
578.54	906.82
578.90	908.21
579.25	909.09
579.60	910.10
579.95	911.25
580.30	912.15
580.66	912.97
581.01	913.54
581.36	914.40
581.71	915.10
582.06	915.61
582.42	916.18
582.77	916.30
583.12	917.04
583.47	917.64
583.82	918.30
584.17	918.98
584.53	919.61
584.88	920.10
585.23	920.17
585.58	920.24
585.93	920.70
586.28	920.80
586.63	921.20
586.98	921.36
587.34	921.60
587.69	921.96
588.04	922.23
588.39	922.52
588.74	922.25
589.09	922.13
589.44	921.67
589.79	921.40
590.14	921.41
590.49	920.77
590.84	920.40
591.19	919.82
591.54	919.02
591.89	917.90
592.25	917.50
592.60	916.60
592.95	915.75
593.30	914.68
593.65	913.87
594.00	912.60
594.35	912.16
594.70	910.69
595.05	909.68
595.40	908.23
595.75	907.03
596.10	905.89
596.45	905.01
596.80	904.31
597.15	903.26
597.50	901.97
597.85	901.31
598.19	900.12
598.54	898.84
598.89	897.67
599.24	897.07
599.59	895.43
599.94	894.32
600.29	892.87
600.64	891.45
600.99	889.74
601.34	888.45
601.69	886.57
602.04	885.33
602.39	883.60
602.74	882.47
603.08	881.02
603.43	879.60
603.78	877.90
604.13	876.24
604.48	874.68
604.83	873.10
605.18	871.09
605.53	869.21
605.87	867.34
606.22	865.59
606.57	863.41
606.92	861.50
607.27	859.75
607.62	858.29
607.96	856.64
608.31	855.10
608.66	853.11
609.01	850.90
609.36	848.70
609.70	846.58
610.05	843.87
610.40	841.79
610.75	839.60
611.10	837.10
611.44	834.28
611.79	832.12
612.14	829.71
612.49	827.07
612.83	824.50
613.18	821.91
613.53	819.30
613.88	816.50
614.22	813.90
614.57	811.06
614.92	808.15
615.27	805.54
615.61	802.92
615.96	800.25
616.31	797.69
616.65	795.28
617.00	792.74
617.35	790.30
617.70	787.38
618.04	784.42
618.39	781.74
618.74	779.65
619.08	776.76
619.43	774.03
619.78	771.67
620.12	769.02
620.47	766.32
620.82	763.53
621.16	760.90
621.51	758.33
621.85	755.83
622.20	753.19
622.55	750.33
622.89	747.63
623.24	745.14
623.59	742.61
623.93	740.13
624.28	737.44
624.62	734.97
624.97	732.77
625.32	730.33
625.66	728.02
626.01	725.06
626.35	722.43
626.70	719.96
627.04	717.49
627.39	714.90
627.73	712.36
628.08	709.91
628.43	707.31
628.77	704.69
629.12	701.97
629.46	699.40
629.81	696.62
630.15	693.66
630.50	690.70
630.84	687.54
631.19	684.33
631.53	681.61
631.88	678.46
632.22	675.24
632.57	672.53
632.91	669.44
633.26	666.56
633.60	663.66
633.95	660.72
634.29	657.90
634.64	655.08
634.98	652.20
635.32	649.62
635.67	647.03
636.01	644.20
636.36	641.50
636.70	638.85
637.05	636.30
637.39	634.02
637.73	631.58
638.08	629.41
638.42	627.17
638.77	624.65
639.11	621.99
639.45	619.25
639.80	616.60
640.14	614.08
640.49	611.68
640.83	609.24
641.17	606.73
641.52	604.01
641.86	601.62
642.20	599.06
642.55	596.29
642.89	593.65
643.23	590.99
643.58	588.60
643.92	585.72
644.26	583.20
644.61	580.47
644.95	577.89
645.29	575.01
645.64	572.16
645.98	569.53
646.32	567.20
646.66	564.84
647.01	562.13
647.35	559.60
647.69	557.34
648.04	554.78
648.38	552.16
648.72	549.33
649.06	546.50
649.41	544.11
649.75	541.54
650.09	539.02
650.43	536.50
650.78	533.76
651.12	531.35
651.46	528.81
651.80	526.30
652.14	523.66
652.49	521.36
652.83	519.16
653.17	516.51
653.51	513.82
653.85	511.39
654.20	509.03
654.54	506.40
654.88	503.57
655.22	500.92
655.56	498.43
655.90	496.12
656.25	493.76
656.59	491.31
656.93	488.98
657.27	486.70
657.61	484.44
657.95	482.20
658.29	479.92
658.64	477.66
658.98	475.21
659.32	472.78
659.66	470.59
660.00	468.14
660.34	465.98
660.68	464.04
661.02	461.65
661.36	459.50
661.70	457.68
662.05	455.80
662.39	453.89
662.73	451.91
663.07	450.18
663.41	448.25
663.75	446.23
664.09	444.37
664.43	442.38
664.77	440.49
665.11	438.71
665.45	436.95
665.79	435.03
666.13	433.34
666.47	431.71
666.81	429.67
667.15	427.76
667.49	425.93
667.83	424.06
668.17	422.32
668.51	420.60
668.85	418.71
669.19	416.95
669.53	415.10
669.87	413.31
670.21	411.46
670.55	409.91
670.89	408.38
671.23	406.79
671.57	405.11
671.91	403.57
672.25	401.95
672.58	400.37
672.92	398.68
673.26	397.10
673.60	395.65
673.94	394.18
674.28	393.00
674.62	391.60
674.96	390.08
675.30	388.79
675.64	387.22
675.97	385.78
676.31	384.40
676.65	383.04
676.99	381.87
677.33	380.41
677.67	378.78
678.01	377.28
678.34	375.73
678.68	374.48
679.02	373.10
679.36	371.77
679.70	370.47
680.04	369.36
680.37	367.89
680.71	366.42
681.05	365.15
681.39	363.65
681.73	362.35
682.06	361.19
682.40	359.90
682.74	358.75
683.08	357.46
683.42	356.04
683.75	354.82
684.09	353.31
684.43	352.06
684.77	350.91
685.10	349.78
685.44	348.47
685.78	347.20
686.12	345.99
686.45	344.77
686.79	343.38
687.13	342.17
687.46	340.98
687.80	339.90
688.14	338.76
688.48	337.52
688.81	336.40
689.15	335.29
689.49	334.05
689.82	332.79
690.16	331.63
690.50	330.56
690.83	329.41
691.17	328.32
691.51	327.21
691.84	326.15
692.18	325.09
692.52	324.02
692.85	322.97
693.19	321.94
693.52	320.77
693.86	319.69
694.20	318.58
694.53	317.62
694.87	316.52
695.21	315.43
695.54	314.56
695.88	313.54
696.21	312.43
696.55	311.50
696.88	310.64
697.22	309.78
697.56	308.88
697.89	307.96
698.23	307.12
698.56	306.24
698.90	305.46
699.23	304.45
699.57	303.71
699.90	302.81
700.24	301.95
700.58	301.17
700.91	300.52
701.25	299.84
701.58	299.20
701.92	298.52
702.25	297.89
702.59	297.15
702.92	296.34
703.26	295.84
703.59	295.18
703.93	294.76
704.26	294.12
704.60	293.49
704.93	292.87
705.26	292.18
705.60	291.52
705.93	290.80
706.27	290.30
706.60	289.59
706.94	289.04
707.27	288.33
707.61	287.66
707.94	287.03
708.27	286.39
708.61	285.76
708.94	285.13
709.28	284.56
709.61	283.97
709.94	283.56
710.28	282.90
710.61	282.29
710.95	281.43
711.28	280.89
711.61	280.22
711.95	279.75
712.28	279.25
712.61	278.82
712.95	278.34
713.28	277.91
713.61	277.49
713.95	276.90
714.28	276.49
714.61	276.14
714.95	275.64
715.28	275.04
715.61	274.54
715.95	274.07
716.28	273.56
716.61	273.23
716.95	272.72
717.28	272.20
717.61	271.72
717.94	271.26
718.28	270.74
718.61	270.39
718.94	269.85
719.27	269.43
719.61	269.01
719.94	268.64
720.27	268.09
720.60	267.58
720.94	267.22
721.27	266.71
721.60	266.25
721.93	265.87
722.27	265.60
722.60	265.13
722.93	264.83
723.26	264.35
723.59	263.87
723.93	263.46
724.26	263.11
724.59	262.78
724.92	262.46
725.25	262.08
725.59	261.67
725.92	261.38
726.25	260.96
726.58	260.59
726.91	260.14
727.24	259.72
727.57	259.39
727.91	258.98
728.24	258.75
728.57	258.35
728.90	258.01
729.23	257.53
729.56	257.39
729.89	256.97
730.22	256.70
730.55	256.32
730.89	255.93
731.22	255.64
731.55	255.27
731.88	254.89
732.21	254.55
732.54	254.21
732.87	253.96
733.20	253.65
733.53	253.27
733.86	253.09
734.19	252.90
734.52	252.61
734.85	252.39
735.18	252.05
735.51	251.87
735.84	251.59
736.17	251.45
736.50	251.04
736.83	251.04
737.16	250.79
737.49	250.57
737.82	250.31
738.15	250.02
738.48	249.81
738.81	249.58
739.14	249.40
739.47	249.17
739.80	248.83
740.13	248.70
740.46	248.54
740.79	248.26
741.12	248.01
741.45	247.86
741.78	247.64
742.11	247.44
742.44	247.19
742.77	246.98
743.10	246.70
743.43	246.52
743.75	246.11
744.08	246.22
744.41	245.99
744.74	245.91
745.07	245.71
745.40	245.54
745.73	245.44
746.06	245.23
746.39	245.10
746.71	244.90
747.04	244.61
747.37	244.42
747.70	244.31
748.03	244.17
748.36	244.06
748.68	243.87
749.01	243.66
749.34	243.53
749.67	243.45
750.00	243.34
750.33	243.34
750.65	243.25
750.98	242.81
751.31	242.67
751.64	242.47
751.97	242.41
752.29	242.38
752.62	242.27
752.95	242.19
753.28	242.00
753.60	241.91
753.93	241.79
754.26	241.69
754.59	241.46
754.91	241.26
755.24	241.13
755.57	241.04
755.90	241.07
756.22	240.94
756.55	240.72
756.88	240.54
757.20	240.34
757.53	240.11
757.86	239.97
758.19	239.96
758.51	239.90
758.84	239.77
759.17	239.55
759.49	239.33
759.82	239.30
760.15	239.19
760.47	239.06
760.80	239.00
761.13	238.88
761.45	238.79
761.78	238.59
762.11	238.50
762.43	238.37
762.76	238.14
763.08	238.00
763.41	237.90
763.74	237.87
764.06	237.64
764.39	237.51
764.71	237.46
765.04	237.25
765.37	237.04
765.69	236.85
766.02	236.72
766.34	236.70
766.67	236.52
767.00	236.50
767.32	236.44
767.65	236.34
767.97	236.09
768.30	235.96
768.62	236.00
768.95	235.86
769.27	235.70
769.60	235.62
769.92	235.59
770.25	235.34
770.57	235.20
770.90	235.13
771.22	235.03
771.55	234.83
771.87	234.77
772.20	234.73
772.52	234.91
772.85	235.00
773.17	234.89
773.50	234.77
773.82	234.69
774.15	234.48
774.47	234.37
774.80	234.48
775.12	234.42
775.45	234.37
775.77	234.25
776.09	234.13
776.42	234.06
776.74	234.03
777.07	234.07
777.39	234.03
777.72	233.95
778.04	233.89
778.36	233.80
778.69	233.77
779.01	233.69
779.33	233.44
779.66	233.15
779.98	233.03
780.31	233.07
780.63	233.10
780.95	233.12
781.28	233.10
781.60	232.97
781.92	232.92
782.25	232.83
782.57	232.89
782.89	232.99
783.22	232.91
783.54	232.75
783.86	232.82
784.19	232.78
784.51	232.88
784.83	232.88
785.16	232.99
785.48	233.00
785.80	232.95
786.12	232.95
786.45	232.95
786.77	232.99
787.09	232.89
787.42	232.83
787.74	232.84
788.06	232.80
788.38	232.73
788.71	232.66
789.03	232.70
789.35	232.78
789.67	232.71
789.99	232.75
790.32	232.80
790.64	232.83
790.96	232.89
791.28	232.77
791.61	232.72
791.93	232.71
792.25	232.58
792.57	232.77
792.89	232.74
793.21	232.77
793.54	232.69
793.86	232.62
794.18	232.64
794.50	232.60
794.82	232.56
795.14	232.54
795.47	232.62
795.79	232.61
796.11	232.30
796.43	232.20
796.75	232.23
797.07	232.20
797.39	232.14
797.71	232.02
798.04	231.99
798.36	231.95
798.68	231.86
799.00	231.90
799.32	231.68
799.64	231.59
799.96	231.53
800.28	231.49
800.60	231.44
800.92	231.19
801.24	231.11
801.56	231.09
801.89	231.11
802.21	231.06
802.53	230.90
802.85	231.03
803.17	231.18
803.49	230.97
803.81	230.92
804.13	230.84
804.45	230.82
804.77	230.79
805.09	230.72
805.41	230.60
805.73	230.54
806.05	230.50
806.37	230.40
806.69	230.44
807.01	230.39
807.33	230.39
807.65	230.35
807.97	230.38
808.28	230.32
808.60	230.17
808.92	230.07
809.24	230.15
809.56	230.12
809.88	230.02
810.20	230.03
810.52	230.06
810.84	229.97
811.16	229.83
811.48	229.76
811.80	229.87
812.12	229.85
812.43	229.86
812.75	229.92
813.07	229.85
813.39	229.73
813.71	229.61
814.03	229.57
814.35	229.65
814.67	229.55
814.98	229.58
815.30	229.62
815.62	229.55
815.94	229.43
816.26	229.45
816.58	229.35
816.89	229.37
817.21	229.22
817.53	229.21
817.85	229.33
818.17	229.28
818.48	229.20
818.80	229.29
819.12	229.25
819.44	229.16
819.76	229.28
820.07	229.37
820.39	229.61
820.71	229.58
821.03	229.66
821.34	229.70
821.66	229.65
821.98	229.70
822.30	229.78
822.61	229.92
822.93	229.79
823.25	229.84
823.57	229.88
823.88	229.96
824.20	230.00
824.52	229.96
824.83	230.06
825.15	230.07
825.47	230.14
825.79	230.12
826.10	230.22
826.42	230.23
826.74	230.19
827.05	230.05
827.37	230.14
827.69	230.00
828.00	229.99
828.32	230.01
828.64	230.01
828.95	230.13
829.27	230.09
829.58	230.18
829.90	230.16
830.22	230.08
830.53	229.98
830.85	229.94
831.17	229.84
831.48	229.83
831.80	229.84
832.11	229.80
832.43	229.80
832.75	229.76
833.06	229.89
833.38	229.80
833.69	229.76
834.01	229.74
834.32	229.79
834.64	229.82
834.96	229.81
835.27	229.79
835.59	229.71
835.90	229.57
836.22	229.43
836.53	229.40
836.85	229.44
837.16	229.76
837.48	229.69
837.79	229.75
838.11	229.69
838.42	229.57
838.74	229.54
839.05	229.56
839.37	229.49
839.68	229.20
840.00	229.24
840.31	229.30
840.63	229.25
840.94	229.19
841.26	229.18
841.57	229.12
841.88	229.16
842.20	229.05
842.51	229.09
842.83	229.11
843.14	229.25
843.46	229.17
843.77	228.96
844.08	228.90
844.40	228.88
844.71	228.88
845.03	228.86
845.34	228.79
845.65	228.71
845.97	228.77
846.28	228.78
846.60	228.72
846.91	228.67
847.22	228.60
847.54	228.67
847.85	228.54
848.16	228.49
848.48	228.40
848.79	228.55
849.10	228.58
849.42	228.55
849.73	228.32
850.04	228.38
850.36	228.21
850.67	228.27
850.98	228.21
851.30	228.13
851.61	228.12
851.92	228.11
852.23	228.16
852.55	228.13
852.86	228.20
853.17	228.21
853.49	228.27
853.80	228.36
854.11	228.37
854.42	228.47
854.74	228.51
855.05	228.47
855.36	228.29
855.67	228.24
855.99	228.24
856.30	228.44
856.61	228.40
856.92	228.55
857.23	228.67
857.55	228.71
857.86	228.73
858.17	228.81
858.48	228.80
858.79	228.88
859.11	228.80
859.42	228.79
859.73	228.75
860.04	228.72
860.35	228.69
860.66	228.53
860.98	228.53
861.29	228.58
861.60	228.69
861.91	228.79
862.22	228.82
862.53	228.92
862.84	228.79
863.16	228.91
863.47	228.95
863.78	228.89
864.09	228.95
864.40	229.03
864.71	229.01
865.02	229.07
865.33	228.97
865.64	228.99
865.95	228.99
866.27	229.28
866.58	229.36
866.89	229.44
867.20	229.53
867.51	229.53
867.82	229.60
868.13	229.59
868.44	229.59
868.75	229.70
869.06	229.57
869.37	229.61
869.68	229.50
869.99	229.42
870.30	229.51
870.61	229.46
870.92	229.46
871.23	229.46
871.54	229.48
871.85	229.57
872.16	229.68
872.47	229.72
872.78	229.54
873.09	229.60
873.40	229.64
873.71	229.76
874.02	229.78
874.33	229.69
874.64	229.72
874.95	229.76
875.26	229.57
875.56	229.66
875.87	229.61
876.18	229.51
876.49	229.73
876.80	229.55
877.11	229.49
877.42	229.42
877.73	229.38
878.04	229.38
878.35	229.29
878.66	229.24
878.96	229.21
879.27	229.11
879.58	228.93
879.89	228.78
880.20	228.62
880.51	228.62
880.82	228.60
881.12	228.54
881.43	228.47
881.74	228.46
882.05	228.32
882.36	228.35
882.67	228.42
882.97	228.23
883.28	228.29
883.59	228.32
883.90	228.30
884.21	228.28
884.51	228.12
884.82	228.09
885.13	228.04
885.44	227.95
885.74	227.96
886.05	227.98
886.36	227.91
886.67	227.91
886.98	227.96
887.28	227.99
887.59	227.97
887.90	227.81
888.20	227.85
888.51	227.89
888.82	227.77
889.13	227.78
889.43	227.84
889.74	227.75
890.05	227.62
890.35	227.59
890.66	227.60
890.97	227.61
891.28	227.59
891.58	227.46
891.89	227.45
892.20	227.36
892.50	227.26
892.81	227.24
893.12	227.21
893.42	227.03
893.73	227.05
894.04	226.95
894.34	227.21
894.65	227.16
894.95	227.25
895.26	227.21
895.57	227.27
895.87	227.17
896.18	227.25
896.48	227.39
896.79	227.48
897.10	227.56
897.40	227.60
897.71	227.62
898.01	227.78
898.32	227.83
898.63	227.82
898.93	227.90
899.24	228.08
899.54	228.10
899.85	228.10
900.15	228.04
900.46	228.26
900.76	228.25
901.07	228.27
901.38	228.29
901.68	228.43
901.99	228.44
902.29	228.45
902.60	228.38
902.90	228.39
903.21	228.38
903.51	228.39
903.82	228.47
904.12	228.59
904.43	228.59
904.73	228.80
905.03	228.93
905.34	229.21
905.64	229.17
905.95	229.19
906.25	229.23
906.56	229.24
906.86	229.20
907.17	229.10
907.47	229.19
907.77	229.23
908.08	229.11
908.38	229.13
908.69	229.21
908.99	229.43
909.30	229.46
909.60	229.48
909.90	229.53
910.21	229.42
910.51	229.32
910.81	229.36
911.12	229.15
911.42	229.20
911.73	228.90
912.03	228.94
912.33	229.03
912.64	229.16
912.94	229.20
913.24	229.15
913.55	229.20
913.85	229.15
914.15	229.10
914.46	229.15
914.76	229.11
915.06	229.08
915.37	228.89
915.67	228.84
915.97	228.82
916.27	228.68
916.58	228.81
916.88	228.83
917.18	228.80
917.49	228.97
917.79	228.88
918.09	228.99
918.39	228.91
918.70	228.95
919.00	228.83
919.30	228.82
919.60	228.75
919.91	228.67
920.21	228.63
920.51	228.54
920.81	228.52
921.12	228.53
921.42	228.49
921.72	228.50
922.02	228.44
922.32	228.43
922.63	228.44
922.93	228.40
923.23	228.39
923.53	228.41
923.83	228.29
924.13	228.33
924.44	228.30
924.74	228.37
925.04	228.30
925.34	228.39
925.64	228.36
925.94	228.32
926.24	228.43
926.55	228.40
926.85	228.38
927.15	228.33
927.45	228.24
927.75	228.20
928.05	228.17
928.35	228.17
928.65	228.19
928.95	228.16
929.26	228.07
929.56	228.07
929.86	227.86
930.16	227.78
930.46	227.71
930.76	227.69
931.06	227.58
931.36	227.45
931.66	227.38
931.96	227.33
932.26	227.34
932.56	227.13
932.86	227.20
933.16	227.20
933.46	227.28
933.76	227.32
934.06	227.46
934.36	227.57
934.66	227.61
934.96	227.58
935.26	227.58
935.56	227.69
935.86	227.68
936.16	227.82
936.46	227.82
936.76	227.80
937.06	227.77
937.36	227.84
937.66	227.97
937.96	227.97
938.26	228.03
938.56	228.16
938.86	228.26
939.16	228.26
939.46	228.41
939.76	228.43
940.06	228.47
940.35	228.35
940.65	228.25
940.95	228.28
941.25	228.27
941.55	228.23
941.85	228.21
942.15	228.25
942.45	228.31
942.75	228.39
943.04	228.58
943.34	228.64
943.64	228.57
943.94	228.54
944.24	228.53
944.54	228.57
944.84	228.50
945.13	228.55
945.43	228.67
945.73	228.64
946.03	228.68
946.33	228.67
946.62	228.66
946.92	228.75
947.22	228.73
947.52	228.81
947.82	229.03
948.11	228.98
948.41	228.95
948.71	228.86
949.01	228.74
949.31	228.64
949.60	228.77
949.90	228.83
950.20	228.76
950.50	228.76
950.79	228.73
951.09	228.73
951.39	228.63
951.69	228.64
951.98	228.72
952.28	228.70
952.58	228.66
952.87	228.65
953.17	228.63
953.47	228.56
953.76	228.41
954.06	228.32
954.36	228.30
954.66	228.23
954.95	228.31
955.25	228.42
955.55	228.42
955.84	228.14
956.14	228.10
956.44	228.14
956.73	228.10
957.03	228.01
957.32	227.99
957.62	228.03
957.92	227.90
958.21	227.73
958.51	227.81
958.81	227.75
959.10	227.76
959.40	227.76
959.69	227.83
959.99	227.86
960.29	227.75
960.58	227.72
960.88	227.77
961.17	227.75
961.47	227.64
961.76	227.56
962.06	227.71
962.36	227.68
962.65	227.72
962.95	227.74
963.24	227.77
963.54	227.73
963.83	227.76
964.13	227.66
964.42	227.67
964.72	227.59
965.01	227.61
965.31	227.56
965.60	227.40
965.90	227.45
966.19	227.43
966.49	227.50
966.78	227.52
967.08	227.44
967.37	227.41
967.67	227.43
967.96	227.52
968.26	227.41
968.55	227.49
968.85	227.46
969.14	227.40
969.43	227.37
969.73	227.31
970.02	227.20
970.32	227.25
970.61	227.20
970.91	227.12
971.20	227.12
971.49	227.19
971.79	227.31
972.08	227.14
972.38	227.20
972.67	227.15
972.96	227.17
973.26	227.27
973.55	227.30
973.85	227.30
974.14	227.28
974.43	227.38
974.73	227.33
975.02	227.29
975.31	227.38
975.61	227.43
975.90	227.54
976.19	227.63
976.49	227.73
976.78	227.81
977.07	227.86
977.37	227.97
977.66	228.01
977.95	228.00
978.24	228.09
978.54	228.11
978.83	228.18
979.12	228.22
979.42	228.39
979.71	228.40
980.00	228.50
980.29	228.55
980.59	228.56
980.88	228.70
981.17	228.80
981.46	228.80
981.76	228.88
982.05	229.05
982.34	229.05
982.63	228.98
982.93	228.97
983.22	229.01
983.51	228.91
983.80	228.93
984.09	228.93
984.39	229.05
984.68	229.09
984.97	229.07
985.26	229.08
985.55	228.99
985.85	229.03
986.14	229.02
986.43	229.03
986.72	228.96
987.01	228.86
987.30	228.79
987.59	228.80
987.89	228.80
988.18	228.62
988.47	228.68
988.76	228.72
989.05	228.74
989.34	228.76
989.63	228.79
989.92	228.81
990.22	228.79
990.51	228.75
990.80	228.71
991.09	228.67
991.38	228.72
991.67	228.63
991.96	228.55
992.25	228.52
992.54	228.33
992.83	228.41
993.12	228.36
993.41	228.39
993.70	228.44
993.99	228.41
994.28	228.43
994.58	228.47
994.87	228.41
995.16	228.46
995.45	228.43
995.74	228.40
996.03	228.26
996.32	228.29
996.61	228.29
996.90	228.20
997.19	228.23
997.48	228.16
997.77	228.15
998.06	228.10
998.34	228.05
998.63	228.10
998.92	228.01
999.21	228.10
999.50	228.17
999.79	228.02
1000.08	227.98
1000.37	228.01
1000.66	227.98
1000.95	227.99
1001.24	227.83
1001.53	227.79
1001.82	227.73
1002.11	227.76
1002.40	227.83
1002.68	227.87
1002.97	228.00
1003.26	227.95
1003.55	227.92
1003.84	227.96
1004.13	228.09
1004.42	228.18
1004.71	228.21
1004.99	228.13
1005.28	228.12
1005.57	228.03
1005.86	228.06
1006.15	228.07
1006.44	228.04
1006.72	228.00
1007.01	228.03
1007.30	228.03
1007.59	228.03
1007.88	228.06
1008.17	228.10
1008.45	228.10
1008.74	227.99
1009.03	228.01
1009.32	228.00
1009.60	228.02
1009.89	227.95
1010.18	227.87
1010.47	227.82
1010.76	227.83
1011.04	227.90
1011.33	227.92
1011.62	227.99
1011.91	227.95
1012.19	227.93
1012.48	228.01
1012.77	228.07
1013.05	228.10
1013.34	228.21
1013.63	228.13
1013.92	228.19
1014.20	228.14
1014.49	228.09
1014.78	228.18
1015.06	228.05
1015.35	228.01
1015.64	227.91
1015.92	228.04
1016.21	228.06
1016.50	228.16
1016.78	228.21
1017.07	228.30
1017.36	228.25
1017.64	228.25
1017.93	228.35
1018.22	228.49
1018.50	228.39
1018.79	228.34
1019.08	228.36
1019.36	228.30
1019.65	228.40
1019.93	228.47
1020.22	228.49
1020.51	228.64
1020.79	228.60
1021.08	230.30
1021.36	227.30
1021.65	228.70
1021.94	229.80
1022.22	227.40
1022.51	228.10
1022.79	229.90
1023.08	227.60
1023.36	231.50
1023.65	228.40
>>>>>End Processed Spectral Data<<<<<
