SpectraSuite Data File
++++++++++++++++++++++++++++++++++++
Date: Fri Feb 01 14:40:27 EST 2013
User: group
Dark Spectrum Present: No
Reference Spectrum Present: No
Number of Sampled Component Spectra: 1
Spectrometers: USB2E7196
Integration Time (usec): 70000 (USB2E7196)
Spectra Averaged: 10 (USB2E7196)
Boxcar Smoothing: 10 (USB2E7196)
Correct for Electrical Dark: No (USB2E7196)
Strobe/Lamp Enabled: No (USB2E7196)
Correct for Detector Non-linearity: No (USB2E7196)
Correct for Stray Light: No (USB2E7196)
Number of Pixels in Processed Spectrum: 2048
>>>>>Begin Processed Spectral Data<<<<<
339.09	0.00
339.48	215.00
339.86	215.70
340.24	219.60
340.63	220.80
341.01	225.50
341.39	222.20
341.78	224.60
342.16	226.80
342.54	223.40
342.93	214.56
343.31	225.41
343.69	226.08
344.07	226.69
344.46	227.10
344.84	227.47
345.22	227.61
345.60	228.02
345.99	228.17
346.37	228.32
346.75	228.52
347.13	228.58
347.52	228.74
347.90	228.98
348.28	228.95
348.66	229.03
349.05	229.02
349.43	229.10
349.81	229.14
350.19	229.14
350.57	229.10
350.96	229.20
351.34	229.25
351.72	229.31
352.10	229.37
352.48	229.38
352.87	229.49
353.25	229.52
353.63	229.50
354.01	229.63
354.39	229.76
354.77	229.90
355.15	230.08
355.54	230.03
355.92	229.95
356.30	230.23
356.68	230.43
357.06	230.53
357.44	230.52
357.82	230.59
358.20	230.80
358.58	230.91
358.97	230.94
359.35	231.08
359.73	231.13
360.11	231.16
360.49	231.24
360.87	231.29
361.25	231.35
361.63	231.48
362.01	231.56
362.39	231.39
362.77	231.40
363.15	231.28
363.53	231.39
363.91	231.36
364.29	231.25
364.67	231.06
365.05	231.02
365.43	231.12
365.81	231.07
366.19	231.03
366.57	231.07
366.95	231.00
367.33	230.97
367.71	230.85
368.09	230.85
368.47	230.90
368.85	230.71
369.23	230.77
369.61	230.62
369.99	230.53
370.37	230.58
370.75	230.66
371.13	230.72
371.51	230.47
371.89	230.44
372.27	230.36
372.65	230.35
373.03	230.32
373.41	230.19
373.78	230.03
374.16	229.89
374.54	229.79
374.92	229.61
375.30	229.52
375.68	229.40
376.06	229.33
376.44	229.15
376.82	229.15
377.19	228.93
377.57	228.79
377.95	228.74
378.33	228.64
378.71	228.47
379.09	228.32
379.47	228.32
379.84	228.23
380.22	228.26
380.60	228.07
380.98	227.89
381.36	227.79
381.73	227.75
382.11	227.71
382.49	227.60
382.87	227.57
383.25	227.50
383.62	227.79
384.00	227.72
384.38	227.70
384.76	227.70
385.13	227.80
385.51	227.82
385.89	227.66
386.27	227.63
386.64	227.48
387.02	227.33
387.40	227.23
387.78	227.20
388.15	227.16
388.53	227.11
388.91	227.10
389.29	227.00
389.66	227.08
390.04	227.10
390.42	227.10
390.79	227.15
391.17	227.08
391.55	226.79
391.92	226.78
392.30	226.79
392.68	226.72
393.05	226.65
393.43	226.65
393.81	226.73
394.18	226.64
394.56	226.74
394.94	226.80
395.31	226.90
395.69	226.96
396.06	226.91
396.44	227.01
396.82	227.09
397.19	227.27
397.57	227.21
397.95	227.14
398.32	227.20
398.70	227.30
399.07	227.50
399.45	227.56
399.82	227.60
400.20	227.56
400.58	227.69
400.95	227.74
401.33	227.92
401.70	228.14
402.08	228.30
402.45	228.45
402.83	228.65
403.20	228.74
403.58	228.84
403.95	229.10
404.33	229.24
404.71	229.36
405.08	229.66
405.46	229.95
405.83	230.20
406.21	230.37
406.58	230.58
406.96	230.66
407.33	230.86
407.70	231.14
408.08	231.51
408.45	231.85
408.83	232.16
409.20	232.30
409.58	232.44
409.95	232.67
410.33	232.89
410.70	233.07
411.08	233.44
411.45	233.71
411.82	233.87
412.20	234.27
412.57	234.75
412.95	234.92
413.32	235.26
413.69	235.62
414.07	236.02
414.44	236.42
414.82	236.83
415.19	237.32
415.56	237.84
415.94	238.31
416.31	238.69
416.68	239.28
417.06	239.97
417.43	240.64
417.81	241.45
418.18	242.24
418.55	243.01
418.93	243.81
419.30	244.70
419.67	245.64
420.04	246.50
420.42	247.31
420.79	248.55
421.16	249.67
421.54	250.98
421.91	252.22
422.28	253.41
422.66	254.62
423.03	256.01
423.40	257.36
423.77	258.83
424.15	260.24
424.52	261.57
424.89	263.09
425.26	264.51
425.64	265.90
426.01	267.43
426.38	269.10
426.75	270.70
427.13	272.43
427.50	274.26
427.87	276.09
428.24	278.00
428.61	279.47
428.99	281.45
429.36	283.24
429.73	285.24
430.10	287.30
430.47	289.49
430.85	291.49
431.22	293.63
431.59	295.97
431.96	298.19
432.33	300.72
432.70	303.18
433.08	306.02
433.45	308.58
433.82	311.16
434.19	314.14
434.56	317.04
434.93	319.60
435.30	322.26
435.68	325.17
436.05	328.02
436.42	330.95
436.79	333.48
437.16	336.35
437.53	339.33
437.90	342.12
438.27	344.87
438.64	347.80
439.01	350.42
439.38	352.73
439.75	354.92
440.13	357.49
440.50	359.76
440.87	361.73
441.24	363.70
441.61	365.88
441.98	367.36
442.35	369.20
442.72	371.24
443.09	373.17
443.46	374.38
443.83	375.00
444.20	375.62
444.57	376.51
444.94	376.98
445.31	377.21
445.68	377.78
446.05	377.98
446.42	377.64
446.79	377.31
447.16	376.79
447.53	376.70
447.90	375.49
448.27	374.48
448.64	372.99
449.01	371.93
449.37	370.15
449.74	368.31
450.11	366.15
450.48	363.73
450.85	361.04
451.22	358.81
451.59	356.91
451.96	355.08
452.33	352.47
452.70	350.00
453.07	347.29
453.43	344.27
453.80	341.51
454.17	338.85
454.54	336.31
454.91	333.68
455.28	331.07
455.65	328.73
456.02	326.39
456.38	324.14
456.75	321.54
457.12	319.13
457.49	316.81
457.86	314.56
458.23	312.62
458.59	310.62
458.96	308.49
459.33	306.51
459.70	304.50
460.07	302.88
460.43	301.23
460.80	299.60
461.17	298.13
461.54	296.54
461.91	295.01
462.27	293.51
462.64	292.20
463.01	290.49
463.38	289.09
463.74	287.44
464.11	286.17
464.48	285.00
464.85	283.82
465.21	282.99
465.58	281.95
465.95	280.66
466.32	279.71
466.68	278.65
467.05	277.71
467.42	276.76
467.78	275.78
468.15	274.70
468.52	273.81
468.88	272.77
469.25	271.89
469.62	271.12
469.98	270.15
470.35	269.39
470.72	268.72
471.08	267.83
471.45	267.19
471.82	266.53
472.18	265.84
472.55	265.25
472.92	264.50
473.28	263.95
473.65	263.41
474.02	262.63
474.38	262.10
474.75	261.55
475.11	260.97
475.48	260.51
475.85	260.07
476.21	259.63
476.58	259.20
476.94	258.82
477.31	258.40
477.67	258.06
478.04	257.70
478.41	257.56
478.77	257.62
479.14	257.36
479.50	257.16
479.87	256.96
480.23	256.85
480.60	256.71
480.96	256.46
481.33	256.45
481.69	256.45
482.06	256.43
482.42	256.39
482.79	256.46
483.15	256.32
483.52	256.28
483.88	256.35
484.25	256.48
484.61	256.57
484.98	256.72
485.34	256.95
485.71	257.16
486.07	257.22
486.44	257.17
486.80	257.35
487.17	257.47
487.53	257.80
487.90	257.98
488.26	258.26
488.62	258.64
488.99	258.97
489.35	259.36
489.72	259.69
490.08	259.98
490.44	260.33
490.81	260.87
491.17	261.34
491.54	261.78
491.90	262.30
492.26	262.79
492.63	263.44
492.99	264.12
493.36	264.86
493.72	265.70
494.08	266.57
494.45	267.35
494.81	268.21
495.17	269.01
495.54	270.01
495.90	271.05
496.26	272.12
496.63	273.14
496.99	274.22
497.35	275.51
497.72	276.87
498.08	278.32
498.44	279.85
498.80	281.52
499.17	283.16
499.53	284.87
499.89	286.69
500.26	288.33
500.62	290.13
500.98	292.00
501.34	293.93
501.71	296.03
502.07	298.35
502.43	300.80
502.79	303.26
503.16	305.84
503.52	308.46
503.88	311.15
504.24	314.04
504.60	317.12
504.97	320.38
505.33	323.64
505.69	327.08
506.05	330.59
506.41	334.14
506.78	337.85
507.14	341.64
507.50	345.68
507.86	350.03
508.22	354.38
508.59	358.76
508.95	363.47
509.31	368.08
509.67	372.86
510.03	377.85
510.39	383.08
510.75	388.47
511.12	393.71
511.48	399.49
511.84	405.17
512.20	411.04
512.56	416.96
512.92	423.16
513.28	429.60
513.64	436.05
514.00	442.90
514.37	449.91
514.73	456.94
515.09	464.15
515.45	471.37
515.81	478.95
516.17	486.72
516.53	494.56
516.89	502.45
517.25	510.52
517.61	518.73
517.97	527.07
518.33	535.42
518.69	544.24
519.05	553.04
519.41	562.31
519.77	571.59
520.13	580.98
520.49	590.55
520.85	599.83
521.21	609.37
521.57	619.20
521.93	628.88
522.29	639.16
522.65	649.23
523.01	659.41
523.37	669.65
523.73	679.90
524.09	690.30
524.45	701.09
524.81	712.09
525.17	723.06
525.53	734.24
525.89	745.54
526.25	757.17
526.61	768.16
526.97	779.69
527.33	791.07
527.68	802.81
528.04	814.36
528.40	826.57
528.76	838.98
529.12	850.87
529.48	863.27
529.84	874.98
530.20	887.21
530.56	899.88
530.91	912.68
531.27	925.41
531.63	937.87
531.99	950.65
532.35	962.88
532.71	975.20
533.07	987.94
533.42	1000.73
533.78	1013.31
534.14	1026.15
534.50	1038.18
534.86	1050.76
535.21	1063.12
535.57	1076.10
535.93	1088.54
536.29	1101.17
536.65	1113.83
537.00	1126.36
537.36	1138.70
537.72	1151.08
538.08	1163.21
538.44	1175.31
538.79	1187.45
539.15	1199.46
539.51	1212.00
539.87	1224.62
540.22	1236.74
540.58	1248.88
540.94	1260.58
541.29	1272.28
541.65	1284.04
542.01	1296.37
542.37	1308.27
542.72	1319.68
543.08	1330.63
543.44	1341.71
543.79	1352.10
544.15	1363.00
544.51	1374.20
544.87	1385.58
545.22	1396.80
545.58	1407.17
545.94	1417.20
546.29	1427.30
546.65	1437.73
547.01	1446.94
547.36	1456.56
547.72	1466.37
548.07	1475.71
548.43	1485.08
548.79	1494.14
549.14	1502.99
549.50	1511.42
549.86	1519.66
550.21	1528.28
550.57	1536.87
550.92	1545.28
551.28	1553.16
551.64	1561.51
551.99	1569.19
552.35	1576.79
552.70	1584.63
553.06	1592.79
553.41	1600.84
553.77	1608.79
554.13	1616.57
554.48	1624.53
554.84	1631.51
555.19	1638.74
555.55	1645.60
555.90	1652.10
556.26	1659.27
556.61	1666.35
556.97	1672.90
557.32	1679.69
557.68	1686.32
558.03	1693.01
558.39	1699.19
558.74	1706.57
559.10	1712.66
559.45	1719.00
559.81	1725.55
560.16	1731.08
560.52	1736.58
560.87	1742.48
561.23	1747.37
561.58	1752.65
561.94	1757.30
562.29	1762.15
562.64	1766.80
563.00	1771.54
563.35	1776.88
563.71	1781.89
564.06	1786.44
564.42	1791.38
564.77	1796.00
565.12	1800.80
565.48	1804.80
565.83	1808.90
566.19	1812.70
566.54	1816.28
566.89	1819.21
567.25	1822.44
567.60	1825.70
567.96	1829.14
568.31	1831.77
568.66	1834.91
569.02	1837.53
569.37	1840.02
569.72	1842.74
570.08	1845.32
570.43	1847.82
570.78	1849.72
571.14	1850.82
571.49	1852.63
571.84	1854.58
572.20	1855.81
572.55	1856.12
572.90	1857.06
573.26	1857.89
573.61	1858.32
573.96	1858.74
574.31	1858.62
574.67	1858.16
575.02	1857.44
575.37	1856.82
575.72	1855.95
576.08	1855.39
576.43	1854.73
576.78	1854.19
577.13	1853.67
577.49	1853.01
577.84	1851.85
578.19	1850.98
578.54	1849.91
578.90	1848.29
579.25	1845.82
579.60	1843.96
579.95	1841.97
580.30	1839.35
580.66	1837.17
581.01	1834.66
581.36	1832.55
581.71	1831.06
582.06	1829.02
582.42	1826.81
582.77	1824.33
583.12	1821.96
583.47	1819.90
583.82	1817.72
584.17	1814.71
584.53	1812.16
584.88	1809.06
585.23	1805.70
585.58	1802.75
585.93	1799.65
586.28	1796.80
586.63	1794.32
586.98	1791.62
587.34	1789.10
587.69	1786.47
588.04	1783.66
588.39	1780.83
588.74	1776.44
589.09	1772.27
589.44	1768.06
589.79	1765.17
590.14	1761.87
590.49	1758.27
590.84	1754.03
591.19	1749.92
591.54	1745.48
591.89	1740.15
592.25	1735.66
592.60	1731.06
592.95	1725.90
593.30	1721.23
593.65	1715.97
594.00	1711.04
594.35	1706.25
594.70	1700.89
595.05	1696.23
595.40	1690.80
595.75	1685.08
596.10	1681.00
596.45	1676.95
596.80	1673.04
597.15	1668.29
597.50	1663.11
597.85	1658.35
598.19	1653.90
598.54	1649.16
598.89	1645.07
599.24	1641.10
599.59	1636.55
599.94	1632.11
600.29	1627.43
600.64	1622.51
600.99	1617.35
601.34	1612.58
601.69	1607.30
602.04	1602.85
602.39	1597.80
602.74	1593.65
603.08	1589.51
603.43	1584.97
603.78	1580.00
604.13	1574.91
604.48	1569.25
604.83	1564.43
605.18	1559.30
605.53	1553.29
605.87	1547.01
606.22	1541.73
606.57	1535.79
606.92	1530.17
607.27	1525.04
607.62	1519.89
607.96	1514.87
608.31	1509.89
608.66	1503.79
609.01	1497.69
609.36	1490.91
609.70	1484.32
610.05	1477.22
610.40	1470.69
610.75	1463.82
611.10	1457.24
611.44	1449.77
611.79	1443.74
612.14	1436.86
612.49	1429.56
612.83	1423.09
613.18	1416.75
613.53	1410.38
613.88	1403.75
614.22	1397.23
614.57	1390.17
614.92	1383.42
615.27	1376.81
615.61	1370.03
615.96	1364.01
616.31	1358.09
616.65	1352.86
617.00	1346.90
617.35	1341.06
617.70	1335.01
618.04	1328.43
618.39	1321.67
618.74	1316.25
619.08	1309.37
619.43	1303.20
619.78	1297.50
620.12	1291.71
620.47	1285.53
620.82	1278.84
621.16	1272.95
621.51	1267.00
621.85	1261.01
622.20	1254.52
622.55	1248.02
622.89	1242.13
623.24	1235.95
623.59	1229.92
623.93	1223.65
624.28	1217.46
624.62	1211.28
624.97	1205.33
625.32	1199.72
625.66	1194.51
626.01	1188.41
626.35	1182.91
626.70	1177.00
627.04	1171.20
627.39	1164.87
627.73	1158.73
628.08	1152.68
628.43	1147.02
628.77	1140.87
629.12	1134.66
629.46	1128.61
629.81	1122.00
630.15	1115.92
630.50	1109.29
630.84	1102.49
631.19	1095.63
631.53	1089.47
631.88	1083.00
632.22	1076.31
632.57	1070.51
632.91	1063.72
633.26	1057.22
633.60	1050.57
633.95	1044.34
634.29	1038.26
634.64	1032.52
634.98	1026.81
635.32	1021.16
635.67	1015.22
636.01	1009.54
636.36	1003.72
636.70	998.29
637.05	993.07
637.39	987.53
637.73	982.18
638.08	977.20
638.42	972.31
638.77	967.09
639.11	961.87
639.45	956.61
639.80	950.72
640.14	945.35
640.49	940.11
640.83	934.70
641.17	929.59
641.52	923.97
641.86	918.20
642.20	912.89
642.55	907.40
642.89	901.88
643.23	896.25
643.58	891.34
643.92	885.87
644.26	880.46
644.61	875.38
644.95	870.18
645.29	864.15
645.64	858.22
645.98	852.90
646.32	847.73
646.66	842.39
647.01	837.03
647.35	832.09
647.69	826.97
648.04	822.26
648.38	816.83
648.72	811.41
649.06	806.29
649.41	801.08
649.75	795.64
650.09	790.42
650.43	785.00
650.78	779.54
651.12	774.38
651.46	769.34
651.80	764.30
652.14	759.19
652.49	754.65
652.83	750.04
653.17	744.81
653.51	739.82
653.85	734.93
654.20	730.26
654.54	724.91
654.88	719.71
655.22	714.33
655.56	709.37
655.90	704.96
656.25	700.38
656.59	695.53
656.93	691.02
657.27	686.52
657.61	681.95
657.95	677.37
658.29	672.87
658.64	668.24
658.98	663.28
659.32	658.61
659.66	654.31
660.00	649.65
660.34	645.27
660.68	640.96
661.02	636.37
661.36	632.17
661.70	628.38
662.05	624.71
662.39	621.05
662.73	617.27
663.07	613.39
663.41	609.58
663.75	605.77
664.09	602.01
664.43	597.93
664.77	594.22
665.11	590.72
665.45	587.27
665.79	583.77
666.13	580.20
666.47	576.75
666.81	572.97
667.15	569.40
667.49	565.95
667.83	562.35
668.17	559.26
668.51	555.63
668.85	552.07
669.19	548.73
669.53	545.32
669.87	541.81
670.21	538.64
670.55	535.50
670.89	532.62
671.23	529.54
671.57	526.69
671.91	523.89
672.25	520.71
672.58	517.66
672.92	514.84
673.26	512.13
673.60	509.28
673.94	506.53
674.28	504.24
674.62	501.78
674.96	499.27
675.30	496.54
675.64	494.10
675.97	491.45
676.31	488.85
676.65	486.31
676.99	483.89
677.33	481.21
677.67	478.43
678.01	475.63
678.34	473.05
678.68	470.62
679.02	468.07
679.36	465.74
679.70	463.47
680.04	461.00
680.37	458.42
680.71	455.96
681.05	453.82
681.39	451.32
681.73	448.90
682.06	446.60
682.40	444.37
682.74	442.03
683.08	440.07
683.42	437.65
683.75	435.35
684.09	432.97
684.43	430.73
684.77	428.55
685.10	426.48
685.44	424.30
685.78	421.96
686.12	419.89
686.45	417.64
686.79	415.29
687.13	412.95
687.46	410.75
687.80	408.73
688.14	406.53
688.48	404.51
688.81	402.51
689.15	400.53
689.49	398.47
689.82	396.42
690.16	394.21
690.50	392.41
690.83	390.53
691.17	388.79
691.51	386.87
691.84	385.02
692.18	383.05
692.52	381.27
692.85	379.63
693.19	377.89
693.52	376.16
693.86	374.38
694.20	372.70
694.53	371.30
694.87	369.59
695.21	367.81
695.54	366.13
695.88	364.40
696.21	362.75
696.55	361.28
696.88	359.90
697.22	358.40
697.56	356.92
697.89	355.33
698.23	353.84
698.56	352.33
698.90	350.95
699.23	349.45
699.57	347.99
699.90	346.38
700.24	344.76
700.58	343.33
700.91	341.84
701.25	340.63
701.58	339.16
701.92	337.89
702.25	336.63
702.59	335.36
702.92	334.14
703.26	332.87
703.59	331.57
703.93	330.48
704.26	329.35
704.60	328.05
704.93	326.90
705.26	325.60
705.60	324.58
705.93	323.61
706.27	322.64
706.60	321.69
706.94	320.78
707.27	319.70
707.61	318.78
707.94	317.97
708.27	317.01
708.61	316.00
708.94	315.04
709.28	314.20
709.61	313.30
709.94	312.49
710.28	311.56
710.61	310.68
710.95	309.52
711.28	308.70
711.61	307.90
711.95	307.04
712.28	306.18
712.61	305.28
712.95	304.32
713.28	303.39
713.61	302.48
713.95	301.56
714.28	300.80
714.61	299.87
714.95	298.95
715.28	298.04
715.61	297.26
715.95	296.42
716.28	295.56
716.61	294.65
716.95	293.83
717.28	293.07
717.61	292.30
717.94	291.53
718.28	290.59
718.61	289.81
718.94	289.06
719.27	288.49
719.61	287.81
719.94	287.08
720.27	286.47
720.60	285.85
720.94	285.21
721.27	284.62
721.60	284.00
721.93	283.49
722.27	282.92
722.60	282.21
722.93	281.53
723.26	280.99
723.59	280.35
723.93	279.73
724.26	279.12
724.59	278.58
724.92	277.98
725.25	277.47
725.59	276.85
725.92	276.40
726.25	275.88
726.58	275.35
726.91	274.83
727.24	274.38
727.57	273.79
727.91	273.28
728.24	272.75
728.57	272.24
728.90	271.69
729.23	271.16
729.56	270.86
729.89	270.38
730.22	269.87
730.55	269.51
730.89	269.03
731.22	268.61
731.55	268.12
731.88	267.71
732.21	267.22
732.54	266.79
732.87	266.36
733.20	265.90
733.53	265.47
733.86	265.12
734.19	264.55
734.52	264.10
734.85	263.78
735.18	263.42
735.51	263.05
735.84	262.68
736.17	262.25
736.50	261.78
736.83	261.77
737.16	261.37
737.49	261.00
737.82	260.58
738.15	260.12
738.48	259.67
738.81	259.34
739.14	258.95
739.47	258.64
739.80	258.22
740.13	257.83
740.46	257.39
740.79	256.99
741.12	256.68
741.45	256.35
741.78	255.96
742.11	255.60
742.44	255.31
742.77	255.01
743.10	254.83
743.43	254.52
743.75	253.97
744.08	253.98
744.41	253.67
744.74	253.52
745.07	253.28
745.40	253.14
745.73	252.97
746.06	252.70
746.39	252.59
746.71	252.30
747.04	251.93
747.37	251.81
747.70	251.50
748.03	251.20
748.36	251.04
748.68	250.84
749.01	250.51
749.34	250.32
749.67	250.16
750.00	249.92
750.33	249.76
750.65	249.45
750.98	248.92
751.31	248.64
751.64	248.41
751.97	248.35
752.29	248.07
752.62	247.72
752.95	247.59
753.28	247.28
753.60	247.12
753.93	247.13
754.26	246.84
754.59	246.77
754.91	246.70
755.24	246.52
755.57	246.40
755.90	246.34
756.22	246.00
756.55	245.74
756.88	245.50
757.20	245.19
757.53	245.08
757.86	244.87
758.19	244.80
758.51	244.59
758.84	244.17
759.17	244.09
759.49	243.93
759.82	243.83
760.15	243.62
760.47	243.44
760.80	243.15
761.13	243.12
761.45	242.86
761.78	242.60
762.11	242.47
762.43	242.14
762.76	241.84
763.08	241.79
763.41	241.64
763.74	241.36
764.06	241.24
764.39	241.15
764.71	241.01
765.04	240.81
765.37	240.60
765.69	240.50
766.02	240.25
766.34	240.05
766.67	239.83
767.00	239.76
767.32	239.68
767.65	239.70
767.97	239.49
768.30	239.46
768.62	239.37
768.95	239.11
769.27	239.09
769.60	239.00
769.92	238.83
770.25	238.61
770.57	238.51
770.90	238.34
771.22	238.15
771.55	238.05
771.87	237.98
772.20	237.92
772.52	238.08
772.85	238.22
773.17	238.10
773.50	237.90
773.82	237.70
774.15	237.54
774.47	237.33
774.80	237.09
775.12	236.86
775.45	236.71
775.77	236.62
776.09	236.46
776.42	236.32
776.74	236.30
777.07	236.19
777.39	236.05
777.72	235.92
778.04	235.84
778.36	235.74
778.69	235.63
779.01	235.50
779.33	235.16
779.66	234.79
779.98	234.73
780.31	234.74
780.63	234.67
780.95	234.62
781.28	234.49
781.60	234.50
781.92	234.48
782.25	234.41
782.57	234.28
782.89	234.20
783.22	234.22
783.54	234.02
783.86	234.07
784.19	234.01
784.51	233.96
784.83	233.89
785.16	233.79
785.48	233.74
785.80	233.64
786.12	233.70
786.45	233.72
786.77	233.74
787.09	233.79
787.42	233.71
787.74	233.70
788.06	233.69
788.38	233.62
788.71	233.58
789.03	233.65
789.35	233.72
789.67	233.67
789.99	233.64
790.32	233.61
790.64	233.56
790.96	233.82
791.28	233.87
791.61	233.83
791.93	233.85
792.25	233.81
792.57	234.01
792.89	233.95
793.21	233.90
793.54	233.75
793.86	233.68
794.18	233.74
794.50	233.60
794.82	233.55
795.14	233.53
795.47	233.50
795.79	233.38
796.11	233.35
796.43	233.28
796.75	233.22
797.07	233.21
797.39	233.13
797.71	232.90
798.04	232.90
798.36	232.83
798.68	232.76
799.00	232.77
799.32	232.63
799.64	232.61
799.96	232.56
800.28	232.66
800.60	232.62
800.92	232.61
801.24	232.55
801.56	232.55
801.89	232.55
802.21	232.48
802.53	232.44
802.85	232.46
803.17	232.52
803.49	232.43
803.81	232.41
804.13	232.32
804.45	232.18
804.77	232.03
805.09	231.95
805.41	231.88
805.73	231.76
806.05	231.68
806.37	231.54
806.69	231.45
807.01	231.30
807.33	231.22
807.65	231.08
807.97	231.16
808.28	231.00
808.60	230.99
808.92	230.87
809.24	230.90
809.56	230.77
809.88	230.67
810.20	230.70
810.52	230.69
810.84	230.63
811.16	230.60
811.48	230.54
811.80	230.56
812.12	230.50
812.43	230.45
812.75	230.38
813.07	230.41
813.39	230.32
813.71	230.25
814.03	230.19
814.35	230.18
814.67	230.05
814.98	230.01
815.30	229.98
815.62	229.95
815.94	229.77
816.26	229.72
816.58	229.58
816.89	229.60
817.21	229.48
817.53	229.47
817.85	229.53
818.17	229.54
818.48	229.42
818.80	229.41
819.12	229.36
819.44	229.30
819.76	229.21
820.07	229.25
820.39	229.31
820.71	229.35
821.03	229.30
821.34	229.25
821.66	229.22
821.98	229.13
822.30	229.14
822.61	229.28
822.93	229.21
823.25	229.38
823.57	229.30
823.88	229.38
824.20	229.40
824.52	229.40
824.83	229.48
825.15	229.55
825.47	229.54
825.79	229.65
826.10	229.62
826.42	229.60
826.74	229.69
827.05	229.68
827.37	229.66
827.69	229.62
828.00	229.61
828.32	229.72
828.64	229.75
828.95	229.82
829.27	229.81
829.58	229.91
829.90	229.92
830.22	229.88
830.53	229.86
830.85	229.81
831.17	229.80
831.48	229.69
831.80	229.72
832.11	229.82
832.43	229.77
832.75	229.71
833.06	229.85
833.38	229.75
833.69	229.83
834.01	229.93
834.32	229.95
834.64	230.05
834.96	230.11
835.27	230.09
835.59	230.08
835.90	229.92
836.22	229.87
836.53	229.72
836.85	229.81
837.16	230.00
837.48	230.13
837.79	230.16
838.11	230.27
838.42	230.24
838.74	230.17
839.05	230.21
839.37	230.32
839.68	230.14
840.00	230.13
840.31	230.01
840.63	229.85
840.94	229.87
841.26	229.74
841.57	229.65
841.88	229.65
842.20	229.64
842.51	229.80
842.83	229.88
843.14	230.04
843.46	229.96
843.77	229.66
844.08	229.55
844.40	229.53
844.71	229.44
845.03	229.36
845.34	229.35
845.65	229.20
845.97	229.11
846.28	229.15
846.60	229.16
846.91	229.20
847.22	229.18
847.54	229.12
847.85	229.23
848.16	229.20
848.48	229.17
848.79	229.19
849.10	229.12
849.42	229.07
849.73	228.90
850.04	228.86
850.36	228.93
850.67	228.85
850.98	228.76
851.30	228.77
851.61	228.80
851.92	228.80
852.23	228.87
852.55	228.97
852.86	228.94
853.17	228.92
853.49	228.91
853.80	228.95
854.11	229.01
854.42	229.03
854.74	229.06
855.05	229.14
855.36	229.09
855.67	229.06
855.99	229.15
856.30	229.39
856.61	229.36
856.92	229.31
857.23	229.37
857.55	229.32
857.86	229.34
858.17	229.42
858.48	229.43
858.79	229.39
859.11	229.27
859.42	229.30
859.73	229.27
860.04	229.25
860.35	229.14
860.66	229.18
860.98	229.10
861.29	229.12
861.60	229.03
861.91	229.05
862.22	229.08
862.53	228.93
862.84	228.73
863.16	228.86
863.47	228.96
863.78	228.95
864.09	229.05
864.40	229.02
864.71	229.02
865.02	228.97
865.33	229.04
865.64	229.09
865.95	229.08
866.27	229.24
866.58	229.26
866.89	229.34
867.20	229.25
867.51	229.22
867.82	229.26
868.13	229.32
868.44	229.31
868.75	229.30
869.06	229.48
869.37	229.50
869.68	229.36
869.99	229.35
870.30	229.40
870.61	229.40
870.92	229.41
871.23	229.46
871.54	229.51
871.85	229.56
872.16	229.56
872.47	229.53
872.78	229.37
873.09	229.39
873.40	229.36
873.71	229.41
874.02	229.47
874.33	229.36
874.64	229.35
874.95	229.34
875.26	229.30
875.56	229.19
875.87	229.15
876.18	229.23
876.49	229.42
876.80	229.38
877.11	229.37
877.42	229.39
877.73	229.38
878.04	229.33
878.35	229.30
878.66	229.32
878.96	229.37
879.27	229.48
879.58	229.54
879.89	229.53
880.20	229.52
880.51	229.51
880.82	229.50
881.12	229.45
881.43	229.43
881.74	229.46
882.05	229.39
882.36	229.40
882.67	229.39
882.97	229.12
883.28	229.10
883.59	229.04
883.90	229.07
884.21	229.00
884.51	229.00
884.82	228.85
885.13	228.89
885.44	228.80
885.74	228.71
886.05	228.58
886.36	228.59
886.67	228.53
886.98	228.58
887.28	228.70
887.59	228.69
887.90	228.64
888.20	228.56
888.51	228.65
888.82	228.63
889.13	228.67
889.43	228.81
889.74	228.83
890.05	228.80
890.35	228.81
890.66	228.77
890.97	228.73
891.28	228.79
891.58	228.70
891.89	228.75
892.20	228.75
892.50	228.70
892.81	228.74
893.12	228.75
893.42	228.64
893.73	228.52
894.04	228.56
894.34	228.63
894.65	228.71
894.95	228.58
895.26	228.52
895.57	228.55
895.87	228.33
896.18	228.39
896.48	228.47
896.79	228.30
897.10	228.34
897.40	228.47
897.71	228.52
898.01	228.53
898.32	228.59
898.63	228.48
898.93	228.48
899.24	228.34
899.54	228.33
899.85	228.34
900.15	228.33
900.46	228.36
900.76	228.36
901.07	228.25
901.38	228.34
901.68	228.34
901.99	228.25
902.29	228.32
902.60	228.19
902.90	228.12
903.21	228.19
903.51	228.18
903.82	228.06
904.12	228.07
904.43	228.03
904.73	228.00
905.03	228.11
905.34	228.32
905.64	228.40
905.95	228.43
906.25	228.40
906.56	228.41
906.86	228.30
907.17	228.27
907.47	228.26
907.77	228.24
908.08	228.31
908.38	228.31
908.69	228.32
908.99	228.46
909.30	228.45
909.60	228.40
909.90	228.38
910.21	228.32
910.51	228.24
910.81	228.38
911.12	228.30
911.42	228.22
911.73	227.95
912.03	227.94
912.33	227.89
912.64	227.93
912.94	227.92
913.24	227.94
913.55	227.88
913.85	227.92
914.15	227.99
914.46	227.98
914.76	228.00
915.06	228.03
915.37	227.90
915.67	227.94
915.97	227.99
916.27	228.02
916.58	228.13
916.88	228.14
917.18	228.02
917.49	228.25
917.79	228.39
918.09	228.49
918.39	228.60
918.70	228.67
919.00	228.70
919.30	228.80
919.60	228.86
919.91	228.90
920.21	228.86
920.51	228.80
920.81	228.76
921.12	228.83
921.42	228.85
921.72	228.86
922.02	228.81
922.32	228.81
922.63	228.86
922.93	228.93
923.23	228.87
923.53	228.90
923.83	228.71
924.13	228.73
924.44	228.78
924.74	228.83
925.04	228.89
925.34	228.81
925.64	228.69
925.94	228.57
926.24	228.72
926.55	228.72
926.85	228.74
927.15	228.80
927.45	228.74
927.75	228.71
928.05	228.78
928.35	228.74
928.65	228.80
928.95	228.73
929.26	228.61
929.56	228.72
929.86	228.64
930.16	228.63
930.46	228.59
930.76	228.52
931.06	228.36
931.36	228.21
931.66	228.27
931.96	228.27
932.26	228.29
932.56	228.24
932.86	228.21
933.16	228.17
933.46	228.09
933.76	228.03
934.06	228.09
934.36	228.14
934.66	228.17
934.96	228.18
935.26	228.18
935.56	228.20
935.86	228.07
936.16	228.01
936.46	228.09
936.76	227.96
937.06	227.90
937.36	227.84
937.66	227.82
937.96	227.75
938.26	227.66
938.56	227.77
938.86	227.65
939.16	227.78
939.46	227.69
939.76	227.78
940.06	227.68
940.35	227.56
940.65	227.40
940.95	227.37
941.25	227.37
941.55	227.30
941.85	227.30
942.15	227.36
942.45	227.52
942.75	227.41
943.04	227.47
943.34	227.53
943.64	227.59
943.94	227.54
944.24	227.63
944.54	227.70
944.84	227.65
945.13	227.64
945.43	227.64
945.73	227.76
946.03	227.75
946.33	227.86
946.62	227.79
946.92	227.87
947.22	228.01
947.52	227.87
947.82	227.96
948.11	227.89
948.41	227.88
948.71	227.79
949.01	227.82
949.31	227.89
949.60	227.91
949.90	227.92
950.20	228.00
950.50	227.90
950.79	227.89
951.09	227.86
951.39	227.91
951.69	227.90
951.98	227.95
952.28	227.90
952.58	227.88
952.87	227.98
953.17	227.97
953.47	227.90
953.76	227.96
954.06	227.98
954.36	228.00
954.66	228.00
954.95	228.01
955.25	228.07
955.55	228.01
955.84	227.98
956.14	228.10
956.44	228.10
956.73	228.15
957.03	228.24
957.32	228.29
957.62	228.38
957.92	228.38
958.21	228.42
958.51	228.66
958.81	228.69
959.10	228.69
959.40	228.81
959.69	228.79
959.99	228.83
960.29	228.78
960.58	228.80
960.88	228.87
961.17	228.94
961.47	228.97
961.76	228.93
962.06	228.92
962.36	228.84
962.65	228.81
962.95	228.82
963.24	228.73
963.54	228.73
963.83	228.56
964.13	228.60
964.42	228.48
964.72	228.31
965.01	228.30
965.31	228.23
965.60	228.04
965.90	228.22
966.19	228.22
966.49	228.22
966.78	228.06
967.08	228.04
967.37	227.99
967.67	227.95
967.96	228.00
968.26	228.00
968.55	227.99
968.85	228.01
969.14	228.03
969.43	228.00
969.73	227.90
970.02	227.96
970.32	227.83
970.61	227.80
970.91	227.80
971.20	227.78
971.49	227.92
971.79	227.95
972.08	227.78
972.38	227.71
972.67	227.69
972.96	227.75
973.26	227.74
973.55	227.76
973.85	227.71
974.14	227.70
974.43	227.66
974.73	227.62
975.02	227.67
975.31	227.60
975.61	227.62
975.90	227.69
976.19	227.62
976.49	227.55
976.78	227.61
977.07	227.59
977.37	227.63
977.66	227.44
977.95	227.45
978.24	227.45
978.54	227.54
978.83	227.50
979.12	227.46
979.42	227.46
979.71	227.45
980.00	227.40
980.29	227.53
980.59	227.57
980.88	227.65
981.17	227.59
981.46	227.67
981.76	227.66
982.05	227.67
982.34	227.70
982.63	227.77
982.93	227.77
983.22	227.79
983.51	227.76
983.80	227.87
984.09	227.95
984.39	228.02
984.68	228.03
984.97	228.17
985.26	228.28
985.55	228.30
985.85	228.28
986.14	228.42
986.43	228.41
986.72	228.41
987.01	228.38
987.30	228.55
987.59	228.53
987.89	228.55
988.18	228.60
988.47	228.60
988.76	228.58
989.05	228.63
989.34	228.60
989.63	228.65
989.92	228.66
990.22	228.65
990.51	228.69
990.80	228.67
991.09	228.63
991.38	228.70
991.67	228.69
991.96	228.78
992.25	228.84
992.54	228.69
992.83	228.74
993.12	228.74
993.41	228.68
993.70	228.75
993.99	228.90
994.28	228.91
994.58	228.96
994.87	229.00
995.16	228.95
995.45	229.00
995.74	229.01
996.03	229.03
996.32	229.02
996.61	228.97
996.90	229.00
997.19	228.92
997.48	228.83
997.77	228.72
998.06	228.65
998.34	228.55
998.63	228.63
998.92	228.60
999.21	228.61
999.50	228.59
999.79	228.47
1000.08	228.41
1000.37	228.36
1000.66	228.30
1000.95	228.38
1001.24	228.35
1001.53	228.32
1001.82	228.31
1002.11	228.23
1002.40	228.17
1002.68	228.25
1002.97	228.26
1003.26	228.22
1003.55	228.24
1003.84	228.24
1004.13	228.38
1004.42	228.37
1004.71	228.40
1004.99	228.49
1005.28	228.50
1005.57	228.41
1005.86	228.45
1006.15	228.40
1006.44	228.32
1006.72	228.33
1007.01	228.31
1007.30	228.33
1007.59	228.31
1007.88	228.30
1008.17	228.38
1008.45	228.31
1008.74	228.30
1009.03	228.16
1009.32	228.23
1009.60	228.25
1009.89	228.27
1010.18	228.11
1010.47	228.01
1010.76	227.93
1011.04	227.88
1011.33	227.87
1011.62	227.84
1011.91	227.80
1012.19	227.73
1012.48	227.87
1012.77	227.80
1013.05	227.81
1013.34	227.80
1013.63	227.75
1013.92	227.70
1014.20	227.73
1014.49	227.78
1014.78	227.72
1015.06	227.70
1015.35	227.70
1015.64	227.73
1015.92	227.82
1016.21	227.83
1016.50	227.83
1016.78	227.79
1017.07	227.79
1017.36	227.81
1017.64	227.88
1017.93	227.89
1018.22	227.93
1018.50	227.91
1018.79	227.93
1019.08	227.95
1019.36	227.92
1019.65	228.04
1019.93	228.07
1020.22	228.01
1020.51	228.15
1020.79	228.11
1021.08	228.10
1021.36	228.80
1021.65	226.50
1021.94	229.50
1022.22	227.70
1022.51	230.00
1022.79	227.90
1023.08	228.20
1023.36	230.20
1023.65	228.00
>>>>>End Processed Spectral Data<<<<<
