SpectraSuite Data File
++++++++++++++++++++++++++++++++++++
Date: Fri Feb 01 14:39:02 EST 2013
User: group
Dark Spectrum Present: No
Reference Spectrum Present: No
Number of Sampled Component Spectra: 1
Spectrometers: USB2E7196
Integration Time (usec): 70000 (USB2E7196)
Spectra Averaged: 10 (USB2E7196)
Boxcar Smoothing: 10 (USB2E7196)
Correct for Electrical Dark: No (USB2E7196)
Strobe/Lamp Enabled: No (USB2E7196)
Correct for Detector Non-linearity: No (USB2E7196)
Correct for Stray Light: No (USB2E7196)
Number of Pixels in Processed Spectrum: 2048
>>>>>Begin Processed Spectral Data<<<<<
339.09	0.00
339.48	216.70
339.86	217.90
340.24	217.10
340.63	220.40
341.01	226.20
341.39	225.00
341.78	223.80
342.16	222.80
342.54	226.10
342.93	214.30
343.31	225.08
343.69	225.50
344.07	225.93
344.46	226.42
344.84	226.80
345.22	226.84
345.60	226.94
345.99	227.10
346.37	227.30
346.75	227.33
347.13	227.32
347.52	227.42
347.90	227.47
348.28	227.47
348.66	227.50
349.05	227.39
349.43	227.41
349.81	227.41
350.19	227.37
350.57	227.54
350.96	227.66
351.34	227.69
351.72	227.85
352.10	227.96
352.48	228.08
352.87	228.08
353.25	228.20
353.63	228.27
354.01	228.33
354.39	228.39
354.77	228.46
355.15	228.56
355.54	228.59
355.92	228.68
356.30	228.78
356.68	228.96
357.06	229.13
357.44	229.12
357.82	229.21
358.20	229.37
358.58	229.41
358.97	229.44
359.35	229.66
359.73	229.78
360.11	229.76
360.49	229.77
360.87	229.82
361.25	229.84
361.63	229.95
362.01	230.05
362.39	230.12
362.77	230.18
363.15	230.35
363.53	230.37
363.91	230.33
364.29	230.30
364.67	230.22
365.05	230.20
365.43	230.10
365.81	230.11
366.19	230.20
366.57	230.20
366.95	230.30
367.33	230.12
367.71	230.03
368.09	230.09
368.47	230.10
368.85	230.17
369.23	230.15
369.61	230.11
369.99	230.15
370.37	230.20
370.75	230.32
371.13	230.20
371.51	230.19
371.89	230.21
372.27	230.21
372.65	230.11
373.03	230.09
373.41	230.10
373.78	230.11
374.16	229.87
374.54	229.89
374.92	229.76
375.30	229.83
375.68	229.76
376.06	229.73
376.44	229.60
376.82	229.46
377.19	229.44
377.57	229.33
377.95	229.18
378.33	228.96
378.71	228.83
379.09	228.69
379.47	228.57
379.84	228.47
380.22	228.40
380.60	228.31
380.98	228.16
381.36	228.12
381.73	227.98
382.11	228.02
382.49	227.83
382.87	227.72
383.25	227.55
383.62	227.73
384.00	227.68
384.38	227.73
384.76	227.71
385.13	227.75
385.51	227.64
385.89	227.53
386.27	227.53
386.64	227.36
387.02	227.28
387.40	227.21
387.78	227.27
388.15	227.17
388.53	227.03
388.91	227.00
389.29	226.90
389.66	227.00
390.04	226.92
390.42	227.05
390.79	226.97
391.17	226.96
391.55	226.73
391.92	226.65
392.30	226.56
392.68	226.46
393.05	226.38
393.43	226.51
393.81	226.52
394.18	226.62
394.56	226.72
394.94	226.78
395.31	226.80
395.69	226.80
396.06	226.83
396.44	226.90
396.82	226.94
397.19	227.12
397.57	227.03
397.95	227.01
398.32	226.97
398.70	227.07
399.07	227.16
399.45	227.14
399.82	227.26
400.20	227.31
400.58	227.44
400.95	227.45
401.33	227.44
401.70	227.70
402.08	227.68
402.45	227.70
402.83	227.89
403.20	228.00
403.58	228.06
403.95	228.26
404.33	228.31
404.71	228.48
405.08	228.71
405.46	228.85
405.83	229.15
406.21	229.25
406.58	229.46
406.96	229.70
407.33	229.93
407.70	230.14
408.08	230.46
408.45	230.68
408.83	230.84
409.20	231.05
409.58	231.07
409.95	231.39
410.33	231.65
410.70	231.84
411.08	232.19
411.45	232.51
411.82	232.80
412.20	233.30
412.57	233.82
412.95	234.00
413.32	234.44
413.69	234.72
414.07	235.22
414.44	235.76
414.82	236.33
415.19	236.97
415.56	237.50
415.94	238.04
416.31	238.77
416.68	239.56
417.06	240.43
417.43	241.34
417.81	242.08
418.18	242.90
418.55	243.99
418.93	244.85
419.30	245.87
419.67	246.88
420.04	247.91
420.42	248.98
420.79	250.54
421.16	251.90
421.54	253.49
421.91	254.90
422.28	256.23
422.66	257.56
423.03	259.10
423.40	260.67
423.77	262.35
424.15	263.90
424.52	265.69
424.89	267.47
425.26	269.25
425.64	270.97
426.01	272.88
426.38	274.54
426.75	276.63
427.13	278.58
427.50	280.68
427.87	282.95
428.24	285.16
428.61	287.00
428.99	289.26
429.36	291.56
429.73	294.03
430.10	296.48
430.47	299.02
430.85	301.55
431.22	304.16
431.59	307.06
431.96	309.82
432.33	312.64
432.70	315.61
433.08	318.90
433.45	322.11
433.82	325.30
434.19	328.91
434.56	332.42
434.93	335.75
435.30	339.05
435.68	342.43
436.05	346.00
436.42	349.39
436.79	352.59
437.16	356.03
437.53	359.53
437.90	363.07
438.27	366.43
438.64	369.91
439.01	373.27
439.38	376.09
439.75	379.02
440.13	382.39
440.50	385.40
440.87	388.04
441.24	390.72
441.61	393.65
441.98	395.87
442.35	398.22
442.72	400.83
443.09	403.37
443.46	404.89
443.83	405.71
444.20	406.70
444.57	408.08
444.94	408.78
445.31	409.50
445.68	410.36
446.05	410.85
446.42	410.70
446.79	410.47
447.16	410.26
447.53	410.17
447.90	408.97
448.27	407.87
448.64	406.11
449.01	404.97
449.37	402.65
449.74	400.49
450.11	398.08
450.48	395.02
450.85	392.14
451.22	389.84
451.59	387.61
451.96	385.43
452.33	382.30
452.70	379.36
453.07	376.09
453.43	372.44
453.80	369.22
454.17	366.13
454.54	363.15
454.91	359.80
455.28	356.56
455.65	353.64
456.02	350.71
456.38	348.21
456.75	345.02
457.12	342.49
457.49	339.82
457.86	337.09
458.23	335.08
458.59	332.65
458.96	330.11
459.33	327.92
459.70	325.66
460.07	323.89
460.43	321.87
460.80	319.77
461.17	318.09
461.54	316.29
461.91	314.38
462.27	312.63
462.64	311.06
463.01	309.34
463.38	307.71
463.74	305.99
464.11	304.43
464.48	303.00
464.85	301.49
465.21	300.39
465.58	299.17
465.95	297.73
466.32	296.40
466.68	295.16
467.05	293.84
467.42	292.68
467.78	291.40
468.15	290.26
468.52	289.46
468.88	288.23
469.25	287.05
469.62	286.23
469.98	285.28
470.35	284.53
470.72	283.65
471.08	282.58
471.45	281.69
471.82	280.80
472.18	279.97
472.55	279.39
472.92	278.60
473.28	277.95
473.65	277.19
474.02	276.43
474.38	275.95
474.75	275.47
475.11	274.96
475.48	274.35
475.85	273.82
476.21	273.15
476.58	272.76
476.94	272.37
477.31	271.96
477.67	271.38
478.04	270.87
478.41	270.52
478.77	270.47
479.14	270.11
479.50	269.84
479.87	269.59
480.23	269.23
480.60	268.80
480.96	268.39
481.33	268.27
481.69	268.20
482.06	267.90
482.42	267.72
482.79	267.46
483.15	267.49
483.52	267.43
483.88	267.46
484.25	267.25
484.61	267.18
484.98	267.07
485.34	267.10
485.71	267.10
486.07	267.08
486.44	266.80
486.80	266.74
487.17	266.75
487.53	266.83
487.90	267.02
488.26	267.24
488.62	267.50
488.99	267.56
489.35	267.59
489.72	267.57
490.08	267.73
490.44	267.92
490.81	267.90
491.17	268.00
491.54	268.12
491.90	268.36
492.26	268.60
492.63	268.70
492.99	268.90
493.36	269.15
493.72	269.37
494.08	269.62
494.45	269.97
494.81	270.31
495.17	270.68
495.54	270.89
495.90	271.17
496.26	271.40
496.63	271.79
496.99	272.19
497.35	272.64
497.72	272.97
498.08	273.33
498.44	273.74
498.80	274.15
499.17	274.51
499.53	274.98
499.89	275.44
500.26	276.09
500.62	276.51
500.98	277.11
501.34	277.56
501.71	278.08
502.07	278.57
502.43	279.19
502.79	279.59
503.16	280.22
503.52	280.73
503.88	281.25
504.24	281.75
504.60	282.40
504.97	283.06
505.33	283.73
505.69	284.36
506.05	285.18
506.41	285.90
506.78	286.64
507.14	287.36
507.50	288.14
507.86	288.96
508.22	289.96
508.59	290.82
508.95	291.80
509.31	292.90
509.67	293.89
510.03	294.76
510.39	295.92
510.75	297.05
511.12	298.28
511.48	299.61
511.84	300.93
512.20	302.13
512.56	303.50
512.92	305.06
513.28	306.71
513.64	308.24
514.00	309.99
514.37	311.77
514.73	313.58
515.09	315.45
515.45	317.29
515.81	319.29
516.17	321.40
516.53	323.63
516.89	325.76
517.25	328.15
517.61	330.63
517.97	333.03
518.33	335.58
518.69	338.20
519.05	340.88
519.41	343.72
519.77	346.88
520.13	349.99
520.49	352.80
520.85	355.95
521.21	359.16
521.57	362.53
521.93	365.85
522.29	369.45
522.65	372.98
523.01	376.57
523.37	380.15
523.73	383.77
524.09	387.56
524.45	391.48
524.81	395.72
525.17	400.03
525.53	404.45
525.89	408.66
526.25	413.07
526.61	417.44
526.97	421.99
527.33	426.55
527.68	431.36
528.04	436.50
528.40	441.43
528.76	446.41
529.12	451.40
529.48	456.67
529.84	461.89
530.20	467.44
530.56	473.08
530.91	478.83
531.27	484.71
531.63	490.45
531.99	496.31
532.35	501.81
532.71	507.70
533.07	513.67
533.42	519.86
533.78	526.05
534.14	532.41
534.50	538.49
534.86	544.85
535.21	551.07
535.57	557.58
535.93	563.88
536.29	570.54
536.65	577.33
537.00	583.92
537.36	590.58
537.72	596.99
538.08	603.59
538.44	610.20
538.79	616.89
539.15	623.67
539.51	630.70
539.87	637.84
540.22	644.59
540.58	651.58
540.94	658.38
541.29	665.28
541.65	672.20
542.01	679.50
542.37	686.44
542.72	693.43
543.08	700.15
543.44	707.28
543.79	713.98
544.15	720.92
544.51	728.12
544.87	735.25
545.22	742.19
545.58	748.97
545.94	755.70
546.29	762.26
546.65	768.93
547.01	775.47
547.36	782.02
547.72	788.61
548.07	795.14
548.43	801.84
548.79	808.54
549.14	814.95
549.50	821.21
549.86	827.45
550.21	833.67
550.57	839.94
550.92	846.05
551.28	852.40
551.64	858.53
551.99	864.61
552.35	870.61
552.70	876.81
553.06	883.29
553.41	889.43
553.77	895.68
554.13	901.96
554.48	908.11
554.84	914.13
555.19	920.03
555.55	926.19
555.90	931.89
556.26	937.31
556.61	943.02
556.97	948.40
557.32	954.32
557.68	960.06
558.03	965.84
558.39	971.59
558.74	977.48
559.10	982.89
559.45	988.30
559.81	993.92
560.16	998.89
560.52	1004.00
560.87	1009.32
561.23	1014.26
561.58	1019.09
561.94	1023.72
562.29	1028.62
562.64	1033.28
563.00	1037.62
563.35	1042.57
563.71	1047.57
564.06	1052.51
564.42	1057.44
564.77	1061.70
565.12	1066.23
565.48	1070.70
565.83	1074.84
566.19	1078.91
566.54	1082.95
566.89	1086.48
567.25	1090.40
567.60	1094.87
567.96	1098.68
568.31	1102.41
568.66	1106.11
569.02	1109.43
569.37	1112.82
569.72	1116.17
570.08	1119.42
570.43	1122.57
570.78	1125.16
571.14	1127.62
571.49	1130.01
571.84	1132.98
572.20	1135.64
572.55	1137.88
572.90	1139.90
573.26	1142.33
573.61	1144.14
573.96	1146.52
574.31	1148.34
574.67	1149.42
575.02	1150.71
575.37	1152.32
575.72	1153.24
576.08	1154.51
576.43	1155.79
576.78	1157.16
577.13	1158.11
577.49	1159.17
577.84	1160.12
578.19	1161.22
578.54	1162.23
578.90	1163.02
579.25	1163.21
579.60	1163.54
579.95	1164.05
580.30	1164.31
580.66	1164.14
581.01	1164.30
581.36	1163.98
581.71	1164.64
582.06	1164.88
582.42	1164.64
582.77	1163.75
583.12	1163.76
583.47	1163.98
583.82	1164.23
584.17	1163.79
584.53	1163.73
584.88	1163.73
585.23	1163.22
585.58	1162.89
585.93	1162.24
586.28	1161.63
586.63	1161.06
586.98	1160.67
587.34	1160.01
587.69	1159.19
588.04	1158.62
588.39	1158.01
588.74	1156.76
589.09	1155.43
589.44	1154.05
589.79	1153.24
590.14	1152.49
590.49	1151.04
590.84	1149.21
591.19	1147.86
591.54	1146.17
591.89	1143.90
592.25	1142.25
592.60	1140.34
592.95	1138.24
593.30	1136.29
593.65	1134.09
594.00	1131.91
594.35	1130.24
594.70	1128.09
595.05	1126.37
595.40	1124.08
595.75	1121.49
596.10	1119.58
596.45	1118.08
596.80	1116.74
597.15	1114.76
597.50	1112.82
597.85	1111.39
598.19	1109.75
598.54	1107.68
598.89	1106.04
599.24	1104.73
599.59	1102.57
599.94	1100.87
600.29	1098.89
600.64	1096.85
600.99	1094.40
601.34	1092.48
601.69	1089.70
602.04	1087.42
602.39	1084.99
602.74	1083.11
603.08	1081.38
603.43	1079.52
603.78	1076.92
604.13	1074.16
604.48	1071.38
604.83	1068.88
605.18	1065.89
605.53	1062.95
605.87	1059.65
606.22	1056.62
606.57	1053.47
606.92	1050.73
607.27	1048.18
607.62	1045.47
607.96	1043.02
608.31	1040.88
608.66	1038.02
609.01	1035.00
609.36	1031.90
609.70	1028.36
610.05	1024.74
610.40	1021.38
610.75	1017.94
611.10	1014.30
611.44	1010.50
611.79	1007.35
612.14	1003.98
612.49	1000.37
612.83	996.65
613.18	993.20
613.53	989.81
613.88	986.21
614.22	982.22
614.57	977.95
614.92	974.40
615.27	970.79
615.61	966.96
615.96	962.94
616.31	959.44
616.65	956.30
617.00	953.05
617.35	949.60
617.70	945.49
618.04	941.42
618.39	937.58
618.74	934.01
619.08	930.23
619.43	926.38
619.78	922.85
620.12	919.32
620.47	915.99
620.82	912.15
621.16	908.45
621.51	905.28
621.85	901.70
622.20	897.88
622.55	893.95
622.89	890.30
623.24	887.05
623.59	883.27
623.93	879.79
624.28	876.19
624.62	872.64
624.97	869.59
625.32	866.13
625.66	862.86
626.01	859.62
626.35	856.02
626.70	852.38
627.04	849.03
627.39	845.27
627.73	841.49
628.08	838.04
628.43	834.24
628.77	830.40
629.12	826.68
629.46	822.90
629.81	818.78
630.15	814.94
630.50	810.86
630.84	806.92
631.19	802.47
631.53	798.69
631.88	794.22
632.22	789.89
632.57	786.17
632.91	782.16
633.26	778.10
633.60	774.21
633.95	770.60
634.29	766.75
634.64	763.18
634.98	759.35
635.32	755.76
635.67	752.48
636.01	748.70
636.36	745.25
636.70	741.83
637.05	738.72
637.39	735.21
637.73	731.98
638.08	728.84
638.42	725.73
638.77	722.29
639.11	719.26
639.45	716.19
639.80	712.86
640.14	709.61
640.49	706.41
640.83	703.06
641.17	699.66
641.52	696.38
641.86	693.03
642.20	689.70
642.55	686.21
642.89	682.98
643.23	679.97
643.58	676.79
643.92	673.30
644.26	670.09
644.61	667.23
644.95	664.05
645.29	660.68
645.64	657.12
645.98	654.07
646.32	650.98
646.66	647.56
647.01	644.22
647.35	641.17
647.69	637.81
648.04	634.73
648.38	631.35
648.72	627.89
649.06	624.68
649.41	621.48
649.75	618.07
650.09	614.60
650.43	611.04
650.78	607.51
651.12	604.29
651.46	601.00
651.80	597.72
652.14	594.46
652.49	591.39
652.83	588.33
653.17	584.96
653.51	581.76
653.85	578.77
654.20	575.59
654.54	572.15
654.88	569.08
655.22	565.64
655.56	562.47
655.90	559.38
656.25	556.29
656.59	553.31
656.93	550.60
657.27	547.72
657.61	544.68
657.95	542.09
658.29	539.27
658.64	536.14
658.98	532.85
659.32	529.79
659.66	526.81
660.00	523.91
660.34	521.00
660.68	518.13
661.02	515.22
661.36	512.51
661.70	509.94
662.05	507.28
662.39	504.99
662.73	502.64
663.07	500.24
663.41	497.73
663.75	495.16
664.09	492.44
664.43	489.81
664.77	487.46
665.11	484.81
665.45	482.19
665.79	479.85
666.13	477.43
666.47	475.00
666.81	472.43
667.15	470.02
667.49	467.53
667.83	465.35
668.17	463.16
668.51	460.85
668.85	458.49
669.19	456.44
669.53	453.99
669.87	451.51
670.21	449.25
670.55	447.00
670.89	445.15
671.23	443.16
671.57	441.02
671.91	439.02
672.25	436.89
672.58	434.95
672.92	433.02
673.26	431.28
673.60	429.30
673.94	427.47
674.28	425.62
674.62	424.09
674.96	422.08
675.30	420.23
675.64	418.29
675.97	416.60
676.31	414.66
676.65	413.01
676.99	411.43
677.33	409.60
677.67	407.93
678.01	405.96
678.34	404.15
678.68	402.68
679.02	400.86
679.36	399.30
679.70	397.59
680.04	395.86
680.37	394.05
680.71	392.47
681.05	391.10
681.39	389.48
681.73	387.81
682.06	386.40
682.40	384.96
682.74	383.50
683.08	381.90
683.42	380.39
683.75	378.77
684.09	377.09
684.43	375.61
684.77	374.30
685.10	372.80
685.44	371.37
685.78	369.82
686.12	368.35
686.45	366.90
686.79	365.54
687.13	364.25
687.46	362.96
687.80	361.59
688.14	359.92
688.48	358.67
688.81	357.26
689.15	355.97
689.49	354.52
689.82	353.39
690.16	352.18
690.50	351.06
690.83	349.89
691.17	348.68
691.51	347.51
691.84	346.09
692.18	344.87
692.52	343.52
692.85	342.19
693.19	341.16
693.52	339.90
693.86	338.76
694.20	337.62
694.53	336.51
694.87	335.38
695.21	334.34
695.54	333.13
695.88	331.93
696.21	330.74
696.55	329.59
696.88	328.26
697.22	327.10
697.56	325.90
697.89	324.83
698.23	323.87
698.56	322.89
698.90	321.95
699.23	320.70
699.57	319.70
699.90	318.69
700.24	317.51
700.58	316.53
700.91	315.54
701.25	314.59
701.58	313.67
701.92	312.66
702.25	311.70
702.59	310.70
702.92	309.80
703.26	308.75
703.59	307.78
703.93	307.08
704.26	306.22
704.60	305.32
704.93	304.40
705.26	303.49
705.60	302.55
705.93	301.56
706.27	301.09
706.60	300.38
706.94	299.66
707.27	298.84
707.61	298.08
707.94	297.21
708.27	296.15
708.61	295.22
708.94	294.49
709.28	293.66
709.61	292.99
709.94	292.37
710.28	291.92
710.61	291.37
710.95	290.41
711.28	289.83
711.61	289.17
711.95	288.31
712.28	287.53
712.61	286.71
712.95	286.11
713.28	285.29
713.61	284.60
713.95	283.83
714.28	283.15
714.61	282.48
714.95	281.79
715.28	281.19
715.61	280.52
715.95	279.94
716.28	279.36
716.61	278.66
716.95	277.98
717.28	277.22
717.61	276.42
717.94	275.99
718.28	275.21
718.61	274.54
718.94	274.10
719.27	273.60
719.61	273.17
719.94	272.61
720.27	272.02
720.60	271.52
720.94	271.03
721.27	270.59
721.60	270.15
721.93	269.69
722.27	269.39
722.60	269.01
722.93	268.62
723.26	268.20
723.59	267.83
723.93	267.42
724.26	267.03
724.59	266.79
724.92	266.37
725.25	266.00
725.59	265.66
725.92	265.28
726.25	264.95
726.58	264.60
726.91	264.28
727.24	264.04
727.57	263.77
727.91	263.43
728.24	263.21
728.57	262.80
728.90	262.52
729.23	262.18
729.56	261.96
729.89	261.53
730.22	261.18
730.55	260.89
730.89	260.50
731.22	260.20
731.55	259.90
731.88	259.61
732.21	259.28
732.54	259.01
732.87	258.85
733.20	258.50
733.53	258.14
733.86	257.94
734.19	257.60
734.52	257.25
734.85	257.04
735.18	256.63
735.51	256.50
735.84	256.30
736.17	255.93
736.50	255.55
736.83	255.53
737.16	255.35
737.49	255.11
737.82	254.84
738.15	254.58
738.48	254.18
738.81	253.90
739.14	253.68
739.47	253.47
739.80	253.12
740.13	252.92
740.46	252.79
740.79	252.38
741.12	252.10
741.45	251.75
741.78	251.45
742.11	251.32
742.44	250.95
742.77	250.57
743.10	250.29
743.43	250.01
743.75	249.41
744.08	249.43
744.41	249.12
744.74	248.88
745.07	248.67
745.40	248.54
745.73	248.33
746.06	247.99
746.39	247.69
746.71	247.34
747.04	247.08
747.37	246.76
747.70	246.60
748.03	246.36
748.36	246.27
748.68	246.09
749.01	245.77
749.34	245.57
749.67	245.44
750.00	245.30
750.33	245.24
750.65	245.20
750.98	244.66
751.31	244.46
751.64	244.24
751.97	244.00
752.29	243.81
752.62	243.50
752.95	243.39
753.28	243.13
753.60	242.94
753.93	242.75
754.26	242.56
754.59	242.28
754.91	242.12
755.24	241.87
755.57	241.60
755.90	241.48
756.22	241.26
756.55	240.99
756.88	240.72
757.20	240.40
757.53	240.14
757.86	240.00
758.19	239.92
758.51	239.88
758.84	239.61
759.17	239.34
759.49	239.26
759.82	239.16
760.15	239.07
760.47	239.07
760.80	238.88
761.13	238.86
761.45	238.75
761.78	238.59
762.11	238.49
762.43	238.36
762.76	238.11
763.08	238.12
763.41	238.09
763.74	238.05
764.06	238.03
764.39	238.00
764.71	237.90
765.04	237.69
765.37	237.53
765.69	237.54
766.02	237.59
766.34	237.50
766.67	237.40
767.00	237.40
767.32	237.26
767.65	237.34
767.97	237.19
768.30	237.14
768.62	237.12
768.95	237.12
769.27	237.02
769.60	237.06
769.92	236.96
770.25	236.86
770.57	236.80
770.90	236.70
771.22	236.57
771.55	236.62
771.87	236.61
772.20	236.54
772.52	236.57
772.85	236.65
773.17	236.67
773.50	236.58
773.82	236.44
774.15	236.37
774.47	236.16
774.80	236.10
775.12	236.00
775.45	235.89
775.77	235.82
776.09	235.93
776.42	235.91
776.74	235.93
777.07	235.82
777.39	235.80
777.72	235.69
778.04	235.82
778.36	235.72
778.69	235.74
779.01	235.75
779.33	235.59
779.66	235.33
779.98	235.24
780.31	235.25
780.63	235.30
780.95	235.35
781.28	235.36
781.60	235.33
781.92	235.41
782.25	235.40
782.57	235.35
782.89	235.22
783.22	235.07
783.54	234.86
783.86	234.86
784.19	234.71
784.51	234.75
784.83	234.47
785.16	234.26
785.48	234.16
785.80	234.07
786.12	233.96
786.45	233.87
786.77	233.75
787.09	233.59
787.42	233.48
787.74	233.32
788.06	233.27
788.38	233.17
788.71	232.95
789.03	232.90
789.35	232.82
789.67	232.73
789.99	232.66
790.32	232.66
790.64	232.64
790.96	232.81
791.28	232.60
791.61	232.50
791.93	232.46
792.25	232.30
792.57	232.34
792.89	232.29
793.21	232.30
793.54	232.25
793.86	232.16
794.18	232.14
794.50	232.02
794.82	231.98
795.14	231.90
795.47	231.87
795.79	231.79
796.11	231.60
796.43	231.54
796.75	231.60
797.07	231.56
797.39	231.45
797.71	231.21
798.04	231.29
798.36	231.40
798.68	231.50
799.00	231.41
799.32	231.30
799.64	231.29
799.96	231.27
800.28	231.29
800.60	231.38
800.92	231.30
801.24	231.28
801.56	231.22
801.89	231.20
802.21	231.22
802.53	231.09
802.85	231.19
803.17	231.26
803.49	231.19
803.81	231.17
804.13	231.17
804.45	231.19
804.77	231.11
805.09	231.02
805.41	230.97
805.73	231.10
806.05	231.00
806.37	231.03
806.69	231.00
807.01	231.01
807.33	231.00
807.65	230.85
807.97	230.96
808.28	230.89
808.60	230.95
808.92	230.88
809.24	231.09
809.56	231.00
809.88	230.97
810.20	231.04
810.52	231.02
810.84	231.02
811.16	231.02
811.48	231.01
811.80	231.05
812.12	230.93
812.43	230.81
812.75	230.79
813.07	230.64
813.39	230.64
813.71	230.58
814.03	230.45
814.35	230.52
814.67	230.36
814.98	230.37
815.30	230.25
815.62	230.25
815.94	230.12
816.26	230.27
816.58	230.20
816.89	230.12
817.21	229.99
817.53	230.08
817.85	230.06
818.17	230.03
818.48	230.06
818.80	230.08
819.12	230.11
819.44	230.16
819.76	230.18
820.07	230.13
820.39	230.10
820.71	230.14
821.03	230.10
821.34	230.16
821.66	230.19
821.98	230.16
822.30	230.20
822.61	230.31
822.93	230.15
823.25	230.06
823.57	230.00
823.88	230.05
824.20	229.86
824.52	229.80
824.83	229.80
825.15	229.62
825.47	229.67
825.79	229.59
826.10	229.50
826.42	229.45
826.74	229.34
827.05	229.36
827.37	229.33
827.69	229.34
828.00	229.23
828.32	229.16
828.64	229.13
828.95	229.16
829.27	229.18
829.58	229.23
829.90	229.21
830.22	229.20
830.53	229.24
830.85	229.14
831.17	229.05
831.48	229.06
831.80	229.09
832.11	229.00
832.43	229.05
832.75	229.05
833.06	229.17
833.38	229.18
833.69	229.21
834.01	229.18
834.32	229.02
834.64	229.15
834.96	229.21
835.27	229.23
835.59	229.16
835.90	228.97
836.22	228.89
836.53	228.97
836.85	228.98
837.16	229.14
837.48	229.21
837.79	229.34
838.11	229.25
838.42	229.30
838.74	229.24
839.05	229.21
839.37	229.25
839.68	229.14
840.00	229.12
840.31	229.08
840.63	229.18
840.94	229.30
841.26	229.20
841.57	229.20
841.88	229.23
842.20	229.10
842.51	229.07
842.83	229.11
843.14	229.18
843.46	229.21
843.77	229.05
844.08	229.03
844.40	229.05
844.71	229.03
845.03	228.97
845.34	229.07
845.65	229.04
845.97	229.00
846.28	229.08
846.60	229.11
846.91	229.05
847.22	229.04
847.54	229.07
847.85	229.14
848.16	229.10
848.48	229.09
848.79	229.28
849.10	229.33
849.42	229.27
849.73	229.06
850.04	229.00
850.36	228.95
850.67	229.11
850.98	229.11
851.30	229.25
851.61	229.30
851.92	229.31
852.23	229.41
852.55	229.38
852.86	229.35
853.17	229.43
853.49	229.55
853.80	229.49
854.11	229.51
854.42	229.44
854.74	229.35
855.05	229.40
855.36	229.26
855.67	229.28
855.99	229.33
856.30	229.64
856.61	229.66
856.92	229.62
857.23	229.52
857.55	229.31
857.86	229.25
858.17	229.22
858.48	229.14
858.79	229.01
859.11	229.10
859.42	229.09
859.73	229.03
860.04	228.91
860.35	228.85
860.66	228.73
860.98	228.76
861.29	228.81
861.60	228.71
861.91	228.69
862.22	228.65
862.53	228.63
862.84	228.37
863.16	228.40
863.47	228.37
863.78	228.37
864.09	228.44
864.40	228.43
864.71	228.41
865.02	228.44
865.33	228.45
865.64	228.40
865.95	228.36
866.27	228.48
866.58	228.52
866.89	228.59
867.20	228.58
867.51	228.50
867.82	228.49
868.13	228.50
868.44	228.55
868.75	228.54
869.06	228.49
869.37	228.43
869.68	228.33
869.99	228.34
870.30	228.28
870.61	228.41
870.92	228.42
871.23	228.29
871.54	228.30
871.85	228.41
872.16	228.34
872.47	228.28
872.78	228.01
873.09	227.93
873.40	227.87
873.71	227.85
874.02	227.85
874.33	227.86
874.64	227.82
874.95	227.82
875.26	227.84
875.56	227.84
875.87	227.79
876.18	227.80
876.49	227.92
876.80	227.97
877.11	227.88
877.42	227.93
877.73	228.10
878.04	228.16
878.35	228.14
878.66	228.19
878.96	228.29
879.27	228.35
879.58	228.39
879.89	228.42
880.20	228.48
880.51	228.59
880.82	228.59
881.12	228.69
881.43	228.57
881.74	228.64
882.05	228.65
882.36	228.73
882.67	228.76
882.97	228.60
883.28	228.63
883.59	228.61
883.90	228.58
884.21	228.53
884.51	228.53
884.82	228.48
885.13	228.52
885.44	228.50
885.74	228.59
886.05	228.59
886.36	228.68
886.67	228.60
886.98	228.60
887.28	228.61
887.59	228.60
887.90	228.66
888.20	228.57
888.51	228.69
888.82	228.74
889.13	228.66
889.43	228.95
889.74	228.92
890.05	228.89
890.35	228.84
890.66	228.76
890.97	228.58
891.28	228.52
891.58	228.52
891.89	228.50
892.20	228.46
892.50	228.49
892.81	228.44
893.12	228.45
893.42	228.36
893.73	228.28
894.04	228.25
894.34	228.25
894.65	228.22
894.95	228.07
895.26	228.11
895.57	228.31
895.87	228.10
896.18	228.15
896.48	228.15
896.79	228.22
897.10	228.34
897.40	228.42
897.71	228.46
898.01	228.53
898.32	228.60
898.63	228.50
898.93	228.42
899.24	228.32
899.54	228.41
899.85	228.51
900.15	228.58
900.46	228.59
900.76	228.69
901.07	228.69
901.38	228.81
901.68	228.79
901.99	228.70
902.29	228.79
902.60	228.76
902.90	228.80
903.21	228.74
903.51	228.73
903.82	228.80
904.12	228.80
904.43	228.69
904.73	228.65
905.03	228.76
905.34	229.00
905.64	228.96
905.95	228.99
906.25	228.86
906.56	228.83
906.86	228.83
907.17	228.75
907.47	228.83
907.77	228.66
908.08	228.60
908.38	228.60
908.69	228.51
908.99	228.51
909.30	228.46
909.60	228.41
909.90	228.40
910.21	228.32
910.51	228.21
910.81	228.13
911.12	228.20
911.42	228.08
911.73	227.85
912.03	227.90
912.33	227.85
912.64	227.84
912.94	227.90
913.24	227.75
913.55	227.72
913.85	227.70
914.15	227.86
914.46	227.90
914.76	227.83
915.06	227.83
915.37	227.79
915.67	227.75
915.97	227.75
916.27	227.72
916.58	227.68
916.88	227.81
917.18	227.90
917.49	227.90
917.79	227.95
918.09	227.93
918.39	228.01
918.70	227.91
919.00	228.00
919.30	228.02
919.60	228.10
919.91	228.06
920.21	228.07
920.51	228.02
920.81	227.97
921.12	228.11
921.42	228.09
921.72	228.09
922.02	228.11
922.32	228.14
922.63	228.13
922.93	228.34
923.23	228.38
923.53	228.37
923.83	228.32
924.13	228.36
924.44	228.41
924.74	228.37
925.04	228.59
925.34	228.61
925.64	228.47
925.94	228.46
926.24	228.59
926.55	228.50
926.85	228.54
927.15	228.55
927.45	228.50
927.75	228.54
928.05	228.58
928.35	228.65
928.65	228.70
928.95	228.69
929.26	228.57
929.56	228.54
929.86	228.53
930.16	228.58
930.46	228.49
930.76	228.59
931.06	228.51
931.36	228.32
931.66	228.36
931.96	228.49
932.26	228.56
932.56	228.53
932.86	228.59
933.16	228.53
933.46	228.59
933.76	228.55
934.06	228.62
934.36	228.72
934.66	228.73
934.96	228.73
935.26	228.80
935.56	228.80
935.86	228.80
936.16	228.80
936.46	228.68
936.76	228.82
937.06	228.71
937.36	228.76
937.66	228.80
937.96	228.71
938.26	228.66
938.56	228.69
938.86	228.68
939.16	228.77
939.46	228.82
939.76	228.73
940.06	228.74
940.35	228.63
940.65	228.50
940.95	228.44
941.25	228.41
941.55	228.33
941.85	228.30
942.15	228.34
942.45	228.38
942.75	228.49
943.04	228.35
943.34	228.39
943.64	228.29
943.94	228.29
944.24	228.35
944.54	228.27
944.84	228.26
945.13	228.23
945.43	228.13
945.73	228.04
946.03	228.14
946.33	228.12
946.62	228.10
946.92	228.05
947.22	228.10
947.52	228.09
947.82	228.18
948.11	228.20
948.41	228.11
948.71	228.10
949.01	228.10
949.31	228.15
949.60	228.11
949.90	228.23
950.20	228.22
950.50	228.14
950.79	228.23
951.09	228.25
951.39	228.22
951.69	228.23
951.98	228.26
952.28	228.16
952.58	228.10
952.87	228.09
953.17	228.16
953.47	228.15
953.76	228.14
954.06	228.04
954.36	227.97
954.66	228.03
954.95	228.00
955.25	227.99
955.55	228.00
955.84	227.93
956.14	227.96
956.44	227.95
956.73	227.94
957.03	227.96
957.32	227.92
957.62	227.98
957.92	228.09
958.21	228.10
958.51	228.40
958.81	228.49
959.10	228.59
959.40	228.60
959.69	228.59
959.99	228.58
960.29	228.57
960.58	228.56
960.88	228.59
961.17	228.70
961.47	228.67
961.76	228.59
962.06	228.66
962.36	228.59
962.65	228.64
962.95	228.72
963.24	228.71
963.54	228.73
963.83	228.71
964.13	228.68
964.42	228.74
964.72	228.60
965.01	228.54
965.31	228.42
965.60	228.41
965.90	228.47
966.19	228.45
966.49	228.51
966.78	228.53
967.08	228.56
967.37	228.57
967.67	228.52
967.96	228.65
968.26	228.65
968.55	228.70
968.85	228.71
969.14	228.64
969.43	228.62
969.73	228.62
970.02	228.70
970.32	228.62
970.61	228.48
970.91	228.37
971.20	228.39
971.49	228.41
971.79	228.46
972.08	228.48
972.38	228.56
972.67	228.50
972.96	228.66
973.26	228.60
973.55	228.54
973.85	228.51
974.14	228.59
974.43	228.60
974.73	228.56
975.02	228.48
975.31	228.51
975.61	228.49
975.90	228.42
976.19	228.25
976.49	228.24
976.78	228.32
977.07	228.19
977.37	228.21
977.66	228.26
977.95	228.21
978.24	228.12
978.54	228.05
978.83	228.12
979.12	228.01
979.42	227.98
979.71	227.98
980.00	227.97
980.29	227.83
980.59	227.76
980.88	227.83
981.17	227.80
981.46	227.81
981.76	227.80
982.05	227.92
982.34	228.01
982.63	228.04
982.93	228.01
983.22	228.22
983.51	228.19
983.80	228.11
984.09	228.09
984.39	228.07
984.68	228.07
984.97	228.14
985.26	228.09
985.55	228.10
985.85	228.10
986.14	228.15
986.43	228.18
986.72	228.27
987.01	228.13
987.30	228.13
987.59	228.16
987.89	228.21
988.18	228.04
988.47	228.05
988.76	227.99
989.05	228.02
989.34	227.88
989.63	227.91
989.92	227.92
990.22	227.89
990.51	227.94
990.80	227.94
991.09	227.78
991.38	227.81
991.67	227.73
991.96	227.69
992.25	227.70
992.54	227.72
992.83	227.73
993.12	227.77
993.41	227.89
993.70	227.86
993.99	227.80
994.28	227.90
994.58	227.89
994.87	227.90
995.16	227.88
995.45	227.95
995.74	227.89
996.03	227.94
996.32	227.99
996.61	227.92
996.90	227.90
997.19	227.98
997.48	228.12
997.77	228.18
998.06	228.16
998.34	228.11
998.63	228.13
998.92	228.10
999.21	228.16
999.50	228.07
999.79	228.03
1000.08	228.13
1000.37	228.10
1000.66	228.11
1000.95	228.24
1001.24	228.19
1001.53	228.23
1001.82	228.20
1002.11	228.14
1002.40	228.28
1002.68	228.44
1002.97	228.60
1003.26	228.62
1003.55	228.44
1003.84	228.45
1004.13	228.54
1004.42	228.55
1004.71	228.54
1004.99	228.51
1005.28	228.46
1005.57	228.48
1005.86	228.46
1006.15	228.46
1006.44	228.52
1006.72	228.63
1007.01	228.54
1007.30	228.57
1007.59	228.57
1007.88	228.59
1008.17	228.66
1008.45	228.56
1008.74	228.43
1009.03	228.39
1009.32	228.36
1009.60	228.31
1009.89	228.32
1010.18	228.26
1010.47	228.21
1010.76	228.15
1011.04	228.12
1011.33	228.21
1011.62	228.27
1011.91	228.37
1012.19	228.33
1012.48	228.36
1012.77	228.09
1013.05	228.18
1013.34	228.14
1013.63	228.14
1013.92	228.20
1014.20	228.19
1014.49	228.16
1014.78	228.19
1015.06	228.09
1015.35	228.13
1015.64	228.24
1015.92	228.34
1016.21	228.31
1016.50	228.34
1016.78	228.37
1017.07	228.43
1017.36	228.28
1017.64	228.18
1017.93	228.07
1018.22	228.03
1018.50	227.96
1018.79	228.11
1019.08	228.07
1019.36	228.07
1019.65	227.96
1019.93	227.98
1020.22	228.01
1020.51	228.14
1020.79	228.05
1021.08	227.80
1021.36	227.90
1021.65	228.40
1021.94	229.30
1022.22	226.70
1022.51	226.70
1022.79	229.50
1023.08	228.90
1023.36	230.70
1023.65	226.40
>>>>>End Processed Spectral Data<<<<<
