SpectraSuite Data File
++++++++++++++++++++++++++++++++++++
Date: Fri Feb 01 14:34:44 EST 2013
User: group
Dark Spectrum Present: No
Reference Spectrum Present: No
Number of Sampled Component Spectra: 1
Spectrometers: USB2E7196
Integration Time (usec): 70000 (USB2E7196)
Spectra Averaged: 10 (USB2E7196)
Boxcar Smoothing: 10 (USB2E7196)
Correct for Electrical Dark: No (USB2E7196)
Strobe/Lamp Enabled: No (USB2E7196)
Correct for Detector Non-linearity: No (USB2E7196)
Correct for Stray Light: No (USB2E7196)
Number of Pixels in Processed Spectrum: 2048
>>>>>Begin Processed Spectral Data<<<<<
339.09	0.00
339.48	217.30
339.86	219.30
340.24	219.20
340.63	221.30
341.01	225.10
341.39	223.60
341.78	227.70
342.16	227.10
342.54	227.40
342.93	215.39
343.31	226.28
343.69	226.85
344.07	227.22
344.46	227.51
344.84	227.88
345.22	228.02
345.60	228.35
345.99	228.41
346.37	228.55
346.75	228.59
347.13	228.61
347.52	228.70
347.90	228.74
348.28	228.78
348.66	228.89
349.05	228.79
349.43	228.74
349.81	228.63
350.19	228.76
350.57	228.80
350.96	228.95
351.34	229.00
351.72	229.06
352.10	229.13
352.48	229.31
352.87	229.36
353.25	229.43
353.63	229.35
354.01	229.32
354.39	229.40
354.77	229.53
355.15	229.64
355.54	229.58
355.92	229.60
356.30	229.68
356.68	229.77
357.06	229.81
357.44	229.90
357.82	230.05
358.20	230.08
358.58	230.13
358.97	230.17
359.35	230.18
359.73	230.22
360.11	230.25
360.49	230.36
360.87	230.40
361.25	230.36
361.63	230.43
362.01	230.55
362.39	230.41
362.77	230.41
363.15	230.46
363.53	230.41
363.91	230.44
364.29	230.45
364.67	230.34
365.05	230.35
365.43	230.35
365.81	230.32
366.19	230.24
366.57	230.30
366.95	230.21
367.33	230.19
367.71	230.07
368.09	230.18
368.47	230.08
368.85	230.05
369.23	230.01
369.61	230.01
369.99	229.98
370.37	230.04
370.75	230.01
371.13	229.82
371.51	229.90
371.89	229.83
372.27	229.84
372.65	229.74
373.03	229.77
373.41	229.73
373.78	229.69
374.16	229.62
374.54	229.40
374.92	229.33
375.30	229.28
375.68	229.27
376.06	229.06
376.44	228.99
376.82	228.90
377.19	228.93
377.57	228.83
377.95	228.70
378.33	228.52
378.71	228.32
379.09	228.28
379.47	228.25
379.84	228.19
380.22	228.02
380.60	227.88
380.98	227.77
381.36	227.76
381.73	227.58
382.11	227.51
382.49	227.55
382.87	227.47
383.25	227.43
383.62	227.59
384.00	227.62
384.38	227.67
384.76	227.68
385.13	227.73
385.51	227.71
385.89	227.70
386.27	227.68
386.64	227.70
387.02	227.69
387.40	227.55
387.78	227.49
388.15	227.52
388.53	227.62
388.91	227.50
389.29	227.35
389.66	227.36
390.04	227.41
390.42	227.44
390.79	227.47
391.17	227.52
391.55	227.28
391.92	227.28
392.30	227.17
392.68	227.14
393.05	227.20
393.43	227.15
393.81	227.21
394.18	227.30
394.56	227.41
394.94	227.46
395.31	227.62
395.69	227.73
396.06	227.83
396.44	227.86
396.82	228.04
397.19	228.34
397.57	228.51
397.95	228.60
398.32	228.67
398.70	228.82
399.07	228.87
399.45	228.99
399.82	229.09
400.20	229.29
400.58	229.43
400.95	229.41
401.33	229.63
401.70	229.90
402.08	230.00
402.45	230.18
402.83	230.35
403.20	230.57
403.58	230.76
403.95	230.93
404.33	231.16
404.71	231.42
405.08	231.72
405.46	232.00
405.83	232.27
406.21	232.50
406.58	232.82
406.96	233.09
407.33	233.53
407.70	234.03
408.08	234.58
408.45	235.08
408.83	235.62
409.20	236.18
409.58	236.70
409.95	237.47
410.33	238.14
410.70	238.89
411.08	239.67
411.45	240.55
411.82	241.42
412.20	242.35
412.57	243.47
412.95	244.35
413.32	245.48
413.69	246.56
414.07	247.91
414.44	249.34
414.82	250.82
415.19	252.36
415.56	253.91
415.94	255.69
416.31	257.60
416.68	259.49
417.06	261.55
417.43	263.53
417.81	265.80
418.18	268.14
418.55	270.70
418.93	273.31
419.30	276.08
419.67	278.96
420.04	281.94
420.42	285.00
420.79	288.62
421.16	292.32
421.54	296.16
421.91	300.01
422.28	303.95
422.66	308.31
423.03	312.53
423.40	316.88
423.77	321.36
424.15	326.04
424.52	330.91
424.89	336.34
425.26	341.50
425.64	346.31
426.01	351.70
426.38	357.22
426.75	362.94
427.13	368.77
427.50	374.88
427.87	381.23
428.24	387.59
428.61	393.73
428.99	400.43
429.36	407.60
429.73	414.80
430.10	421.78
430.47	428.78
430.85	436.23
431.22	444.06
431.59	452.26
431.96	460.30
432.33	469.05
432.70	477.52
433.08	487.60
433.45	497.02
433.82	506.45
434.19	516.86
434.56	527.00
434.93	536.85
435.30	546.73
435.68	557.56
436.05	568.17
436.42	578.69
436.79	587.95
437.16	598.49
437.53	609.27
437.90	620.05
438.27	630.83
438.64	641.98
439.01	652.26
439.38	661.49
439.75	670.49
440.13	680.81
440.50	690.34
440.87	698.24
441.24	706.77
441.61	715.83
441.98	722.82
442.35	730.85
442.72	738.77
443.09	746.61
443.46	751.92
443.83	755.60
444.20	758.82
444.57	763.98
444.94	766.70
445.31	769.61
445.68	772.32
446.05	774.37
446.42	774.51
446.79	774.60
447.16	774.59
447.53	774.84
447.90	772.10
448.27	769.50
448.64	764.90
449.01	762.08
449.37	756.20
449.74	750.44
450.11	743.24
450.48	735.36
450.85	727.23
451.22	720.30
451.59	713.79
451.96	707.59
452.33	698.62
452.70	690.80
453.07	680.98
453.43	671.48
453.80	661.95
454.17	652.56
454.54	643.68
454.91	634.16
455.28	624.65
455.65	616.02
456.02	606.92
456.38	599.60
456.75	590.13
457.12	582.27
457.49	574.36
457.86	566.80
458.23	560.52
458.59	553.13
458.96	545.56
459.33	539.16
459.70	532.48
460.07	527.26
460.43	521.00
460.80	515.23
461.17	509.86
461.54	504.39
461.91	499.51
462.27	494.22
462.64	489.77
463.01	484.87
463.38	479.98
463.74	475.49
464.11	471.42
464.48	467.50
464.85	463.27
465.21	460.08
465.58	456.72
465.95	452.50
466.32	449.29
466.68	446.13
467.05	442.72
467.42	439.60
467.78	435.90
468.15	432.47
468.52	430.14
468.88	427.04
469.25	424.34
469.62	421.93
469.98	419.57
470.35	417.35
470.72	415.13
471.08	412.75
471.45	410.68
471.82	408.40
472.18	406.21
472.55	404.71
472.92	402.73
473.28	400.92
473.65	399.38
474.02	397.69
474.38	396.26
474.75	395.01
475.11	393.72
475.48	392.61
475.85	391.67
476.21	390.60
476.58	389.90
476.94	389.07
477.31	388.09
477.67	387.41
478.04	386.71
478.41	386.29
478.77	385.91
479.14	385.36
479.50	385.09
479.87	384.98
480.23	384.82
480.60	384.65
480.96	384.56
481.33	384.62
481.69	384.85
482.06	384.90
482.42	384.93
482.79	385.12
483.15	385.75
483.52	386.48
483.88	386.92
484.25	387.25
484.61	387.76
484.98	388.51
485.34	389.34
485.71	390.33
486.07	391.46
486.44	392.46
486.80	393.71
487.17	395.05
487.53	396.48
487.90	398.04
488.26	399.73
488.62	401.56
488.99	403.28
489.35	405.04
489.72	407.04
490.08	409.00
490.44	411.08
490.81	413.14
491.17	415.34
491.54	417.77
491.90	420.47
492.26	423.04
492.63	425.65
492.99	428.43
493.36	431.13
493.72	433.92
494.08	436.65
494.45	439.50
494.81	442.65
495.17	445.84
495.54	449.09
495.90	452.47
496.26	455.68
496.63	459.22
496.99	462.76
497.35	466.30
497.72	469.93
498.08	473.53
498.44	477.48
498.80	481.24
499.17	485.13
499.53	488.65
499.89	492.65
500.26	496.56
500.62	500.28
500.98	504.21
501.34	508.07
501.71	512.53
502.07	516.76
502.43	520.69
502.79	524.72
503.16	528.70
503.52	532.63
503.88	536.62
504.24	540.66
504.60	544.71
504.97	548.86
505.33	553.20
505.69	557.47
506.05	561.49
506.41	565.17
506.78	568.86
507.14	572.91
507.50	576.73
507.86	580.73
508.22	584.60
508.59	588.45
508.95	592.32
509.31	596.00
509.67	599.74
510.03	603.37
510.39	607.05
510.75	610.59
511.12	614.11
511.48	617.68
511.84	620.88
512.20	624.24
512.56	627.62
512.92	630.78
513.28	633.87
513.64	636.87
514.00	640.18
514.37	643.34
514.73	646.37
515.09	649.22
515.45	651.89
515.81	654.70
516.17	657.37
516.53	659.93
516.89	662.46
517.25	664.78
517.61	667.19
517.97	669.37
518.33	671.61
518.69	673.77
519.05	675.68
519.41	678.06
519.77	680.32
520.13	682.43
520.49	684.29
520.85	686.06
521.21	687.96
521.57	689.80
521.93	691.59
522.29	693.68
522.65	695.54
523.01	697.15
523.37	698.76
523.73	700.55
524.09	702.17
524.45	703.83
524.81	705.51
525.17	707.58
525.53	709.49
525.89	711.13
526.25	712.92
526.61	714.69
526.97	716.26
527.33	717.94
527.68	719.60
528.04	721.43
528.40	723.38
528.76	725.27
529.12	727.45
529.48	729.53
529.84	731.10
530.20	733.12
530.56	735.61
530.91	737.79
531.27	739.92
531.63	742.15
531.99	744.13
532.35	746.33
532.71	748.13
533.07	750.40
533.42	752.71
533.78	754.99
534.14	757.33
534.50	759.32
534.86	761.47
535.21	763.24
535.57	765.76
535.93	767.91
536.29	769.97
536.65	772.08
537.00	774.18
537.36	776.59
537.72	778.90
538.08	781.11
538.44	783.47
538.79	785.81
539.15	787.93
539.51	790.28
539.87	792.76
540.22	795.42
540.58	798.30
540.94	800.61
541.29	803.00
541.65	805.54
542.01	808.50
542.37	811.15
542.72	814.06
543.08	816.38
543.44	819.10
543.79	821.71
544.15	824.54
544.51	827.54
544.87	830.21
545.22	832.91
545.58	835.40
545.94	838.17
546.29	840.53
546.65	843.60
547.01	846.42
547.36	848.99
547.72	851.43
548.07	853.81
548.43	856.60
548.79	859.30
549.14	861.79
549.50	864.24
549.86	866.91
550.21	869.43
550.57	872.23
550.92	874.72
551.28	877.43
551.64	879.92
551.99	882.68
552.35	885.36
552.70	888.02
553.06	890.92
553.41	893.57
553.77	896.52
554.13	899.11
554.48	901.65
554.84	904.50
555.19	907.43
555.55	910.09
555.90	912.58
556.26	915.24
556.61	917.94
556.97	920.45
557.32	922.93
557.68	925.65
558.03	928.32
558.39	930.98
558.74	933.68
559.10	936.30
559.45	938.56
559.81	941.40
560.16	943.75
560.52	946.10
560.87	948.54
561.23	950.85
561.58	953.25
561.94	955.91
562.29	957.80
562.64	959.71
563.00	961.68
563.35	964.43
563.71	966.84
564.06	969.45
564.42	971.84
564.77	973.80
565.12	976.16
565.48	978.44
565.83	980.76
566.19	983.24
566.54	985.26
566.89	987.33
567.25	989.16
567.60	991.37
567.96	993.49
568.31	995.41
568.66	997.26
569.02	998.88
569.37	1000.17
569.72	1002.20
570.08	1003.81
570.43	1005.48
570.78	1006.61
571.14	1007.78
571.49	1008.57
571.84	1010.34
572.20	1011.89
572.55	1012.81
572.90	1013.45
573.26	1014.33
573.61	1014.62
573.96	1015.25
574.31	1015.55
574.67	1015.81
575.02	1015.92
575.37	1016.01
575.72	1016.02
576.08	1016.39
576.43	1016.63
576.78	1017.01
577.13	1017.46
577.49	1017.80
577.84	1017.67
578.19	1017.80
578.54	1017.69
578.90	1017.83
579.25	1016.69
579.60	1015.99
579.95	1015.63
580.30	1015.10
580.66	1014.23
581.01	1013.69
581.36	1012.79
581.71	1012.11
582.06	1011.29
582.42	1010.66
582.77	1009.73
583.12	1009.07
583.47	1008.08
583.82	1006.89
584.17	1005.80
584.53	1004.22
584.88	1002.93
585.23	1001.91
585.58	1000.34
585.93	999.12
586.28	998.15
586.63	997.47
586.98	996.72
587.34	995.48
587.69	994.59
588.04	993.60
588.39	992.57
588.74	991.25
589.09	990.00
589.44	988.34
589.79	987.18
590.14	985.77
590.49	983.90
590.84	982.29
591.19	981.14
591.54	979.19
591.89	977.02
592.25	975.34
592.60	973.11
592.95	971.14
593.30	968.90
593.65	966.28
594.00	963.82
594.35	961.94
594.70	959.34
595.05	956.86
595.40	954.43
595.75	951.72
596.10	949.51
596.45	947.63
596.80	945.84
597.15	943.20
597.50	940.82
597.85	938.89
598.19	936.86
598.54	934.72
598.89	932.82
599.24	931.31
599.59	928.84
599.94	926.87
600.29	924.48
600.64	922.38
600.99	920.18
601.34	917.98
601.69	915.05
602.04	912.93
602.39	910.50
602.74	908.33
603.08	906.42
603.43	904.56
603.78	901.76
604.13	899.21
604.48	896.82
604.83	894.63
605.18	891.93
605.53	889.01
605.87	885.61
606.22	882.96
606.57	879.92
606.92	877.38
607.27	874.94
607.62	872.90
607.96	870.45
608.31	868.01
608.66	865.18
609.01	862.02
609.36	858.91
609.70	855.85
610.05	852.70
610.40	849.51
610.75	846.14
611.10	843.09
611.44	839.61
611.79	836.76
612.14	833.45
612.49	829.90
612.83	826.53
613.18	823.68
613.53	820.35
613.88	817.29
614.22	814.12
614.57	810.34
614.92	806.94
615.27	803.66
615.61	800.00
615.96	796.65
616.31	793.94
616.65	791.16
617.00	788.11
617.35	784.81
617.70	781.66
618.04	778.11
618.39	774.86
618.74	771.87
619.08	768.43
619.43	765.31
619.78	762.59
620.12	759.76
620.47	756.65
620.82	753.36
621.16	750.15
621.51	747.21
621.85	744.29
622.20	740.63
622.55	737.31
622.89	734.47
623.24	731.63
623.59	728.57
623.93	725.41
624.28	722.56
624.62	719.97
624.97	716.83
625.32	714.27
625.66	711.42
626.01	708.68
626.35	705.74
626.70	702.81
627.04	700.01
627.39	697.01
627.73	694.08
628.08	691.35
628.43	688.45
628.77	685.42
629.12	682.57
629.46	679.94
629.81	676.96
630.15	673.87
630.50	670.76
630.84	667.37
631.19	664.21
631.53	661.05
631.88	657.62
632.22	654.40
632.57	651.27
632.91	648.30
633.26	645.24
633.60	642.01
633.95	639.10
634.29	636.14
634.64	633.15
634.98	630.23
635.32	627.46
635.67	624.75
636.01	621.77
636.36	618.88
636.70	616.34
637.05	613.67
637.39	610.97
637.73	608.50
638.08	606.27
638.42	603.79
638.77	601.33
639.11	599.06
639.45	596.80
639.80	594.20
640.14	591.51
640.49	588.95
640.83	586.53
641.17	583.87
641.52	581.28
641.86	578.62
642.20	576.22
642.55	573.52
642.89	570.88
643.23	568.41
643.58	566.30
643.92	563.50
644.26	561.00
644.61	558.81
644.95	556.20
645.29	553.45
645.64	551.02
645.98	548.37
646.32	545.84
646.66	543.16
647.01	540.88
647.35	538.64
647.69	536.35
648.04	534.14
648.38	531.77
648.72	529.14
649.06	526.74
649.41	524.36
649.75	521.93
650.09	519.46
650.43	516.88
650.78	513.97
651.12	511.46
651.46	509.32
651.80	506.92
652.14	504.53
652.49	502.31
652.83	499.87
653.17	497.46
653.51	494.89
653.85	492.59
654.20	490.05
654.54	487.47
654.88	484.85
655.22	482.37
655.56	479.87
655.90	477.65
656.25	475.36
656.59	472.92
656.93	470.78
657.27	468.86
657.61	466.67
657.95	464.81
658.29	462.69
658.64	460.36
658.98	457.81
659.32	455.58
659.66	453.43
660.00	451.26
660.34	449.12
660.68	447.14
661.02	445.11
661.36	443.18
661.70	441.25
662.05	439.23
662.39	437.20
662.73	435.49
663.07	433.86
663.41	432.15
663.75	430.28
664.09	428.37
664.43	426.18
664.77	424.47
665.11	422.44
665.45	420.84
665.79	418.89
666.13	417.37
666.47	415.66
666.81	413.89
667.15	411.99
667.49	410.24
667.83	408.60
668.17	406.86
668.51	404.95
668.85	403.29
669.19	401.72
669.53	400.11
669.87	398.36
670.21	396.53
670.55	394.76
670.89	393.36
671.23	391.68
671.57	390.30
671.91	388.78
672.25	387.30
672.58	385.76
672.92	384.43
673.26	383.06
673.60	381.68
673.94	380.30
674.28	379.10
674.62	377.84
674.96	376.42
675.30	375.03
675.64	373.83
675.97	372.53
676.31	371.26
676.65	370.02
676.99	368.74
677.33	367.38
677.67	366.13
678.01	364.58
678.34	363.31
678.68	362.08
679.02	360.70
679.36	359.50
679.70	358.22
680.04	357.01
680.37	355.71
680.71	354.55
681.05	353.44
681.39	352.31
681.73	351.10
682.06	350.06
682.40	349.17
682.74	348.18
683.08	347.12
683.42	345.93
683.75	344.72
684.09	343.60
684.43	342.64
684.77	341.59
685.10	340.62
685.44	339.70
685.78	338.57
686.12	337.64
686.45	336.37
686.79	335.35
687.13	334.29
687.46	333.10
687.80	332.03
688.14	330.78
688.48	329.78
688.81	328.88
689.15	327.78
689.49	326.63
689.82	325.53
690.16	324.40
690.50	323.58
690.83	322.63
691.17	321.56
691.51	320.50
691.84	319.64
692.18	318.66
692.52	317.61
692.85	316.58
693.19	315.67
693.52	314.81
693.86	313.74
694.20	312.80
694.53	312.07
694.87	311.07
695.21	310.29
695.54	309.41
695.88	308.43
696.21	307.38
696.55	306.59
696.88	305.85
697.22	305.04
697.56	304.11
697.89	303.26
698.23	302.53
698.56	301.77
698.90	300.91
699.23	299.98
699.57	299.12
699.90	298.42
700.24	297.51
700.58	296.83
700.91	296.27
701.25	295.66
701.58	295.00
701.92	294.31
702.25	293.60
702.59	292.86
702.92	292.29
703.26	291.70
703.59	290.96
703.93	290.31
704.26	289.66
704.60	289.06
704.93	288.55
705.26	287.89
705.60	287.27
705.93	286.65
706.27	286.30
706.60	285.87
706.94	285.24
707.27	284.67
707.61	284.09
707.94	283.55
708.27	282.87
708.61	282.25
708.94	281.74
709.28	281.26
709.61	280.64
709.94	280.19
710.28	279.69
710.61	279.17
710.95	278.55
711.28	278.12
711.61	277.65
711.95	277.05
712.28	276.50
712.61	275.94
712.95	275.41
713.28	274.92
713.61	274.35
713.95	273.86
714.28	273.38
714.61	272.85
714.95	272.29
715.28	271.72
715.61	271.13
715.95	270.67
716.28	270.18
716.61	269.94
716.95	269.45
717.28	268.97
717.61	268.54
717.94	268.04
718.28	267.57
718.61	267.12
718.94	266.75
719.27	266.47
719.61	266.14
719.94	265.82
720.27	265.34
720.60	264.99
720.94	264.79
721.27	264.50
721.60	264.18
721.93	263.84
722.27	263.63
722.60	263.34
722.93	262.94
723.26	262.68
723.59	262.24
723.93	261.85
724.26	261.61
724.59	261.29
724.92	261.06
725.25	260.67
725.59	260.30
725.92	260.00
726.25	259.59
726.58	259.21
726.91	258.80
727.24	258.50
727.57	258.25
727.91	257.78
728.24	257.52
728.57	257.27
728.90	256.95
729.23	256.66
729.56	256.44
729.89	256.20
730.22	255.90
730.55	255.60
730.89	255.32
731.22	255.04
731.55	254.70
731.88	254.36
732.21	254.14
732.54	253.95
732.87	253.69
733.20	253.41
733.53	253.21
733.86	253.04
734.19	252.80
734.52	252.43
734.85	252.33
735.18	252.10
735.51	251.88
735.84	251.70
736.17	251.40
736.50	251.07
736.83	251.05
737.16	250.80
737.49	250.56
737.82	250.23
738.15	250.05
738.48	249.86
738.81	249.70
739.14	249.52
739.47	249.32
739.80	249.10
740.13	249.03
740.46	248.82
740.79	248.56
741.12	248.32
741.45	248.21
741.78	247.95
742.11	247.65
742.44	247.45
742.77	247.17
743.10	247.06
743.43	246.86
743.75	246.42
744.08	246.46
744.41	246.27
744.74	246.27
745.07	246.07
745.40	245.94
745.73	245.89
746.06	245.69
746.39	245.52
746.71	245.24
747.04	244.97
747.37	244.78
747.70	244.70
748.03	244.60
748.36	244.42
748.68	244.29
749.01	244.10
749.34	243.95
749.67	243.87
750.00	243.68
750.33	243.57
750.65	243.44
750.98	243.02
751.31	242.90
751.64	242.58
751.97	242.47
752.29	242.30
752.62	241.97
752.95	241.70
753.28	241.44
753.60	241.40
753.93	241.32
754.26	241.23
754.59	240.97
754.91	240.76
755.24	240.65
755.57	240.38
755.90	240.26
756.22	240.05
756.55	239.93
756.88	239.72
757.20	239.60
757.53	239.40
757.86	239.30
758.19	239.11
758.51	238.98
758.84	238.85
759.17	238.75
759.49	238.64
759.82	238.72
760.15	238.63
760.47	238.49
760.80	238.32
761.13	238.10
761.45	237.97
761.78	237.89
762.11	237.67
762.43	237.59
762.76	237.47
763.08	237.40
763.41	237.30
763.74	237.25
764.06	236.99
764.39	236.90
764.71	236.83
765.04	236.62
765.37	236.59
765.69	236.42
766.02	236.25
766.34	236.17
766.67	235.98
767.00	235.93
767.32	235.92
767.65	235.94
767.97	235.90
768.30	235.87
768.62	235.78
768.95	235.84
769.27	235.78
769.60	235.69
769.92	235.54
770.25	235.36
770.57	235.27
770.90	235.32
771.22	235.24
771.55	235.13
771.87	235.23
772.20	235.10
772.52	235.17
772.85	235.36
773.17	235.24
773.50	235.13
773.82	235.12
774.15	234.89
774.47	234.75
774.80	234.57
775.12	234.52
775.45	234.44
775.77	234.37
776.09	234.24
776.42	234.22
776.74	234.26
777.07	234.27
777.39	234.23
777.72	234.18
778.04	234.19
778.36	234.16
778.69	234.10
779.01	234.04
779.33	233.83
779.66	233.51
779.98	233.50
780.31	233.50
780.63	233.44
780.95	233.53
781.28	233.46
781.60	233.55
781.92	233.55
782.25	233.54
782.57	233.47
782.89	233.47
783.22	233.50
783.54	233.43
783.86	233.43
784.19	233.37
784.51	233.36
784.83	233.25
785.16	233.05
785.48	232.96
785.80	232.94
786.12	232.91
786.45	232.85
786.77	232.76
787.09	232.60
787.42	232.44
787.74	232.38
788.06	232.39
788.38	232.26
788.71	232.04
789.03	231.94
789.35	231.89
789.67	231.88
789.99	231.69
790.32	231.67
790.64	231.51
790.96	231.61
791.28	231.51
791.61	231.44
791.93	231.62
792.25	231.57
792.57	231.58
792.89	231.53
793.21	231.56
793.54	231.47
793.86	231.49
794.18	231.50
794.50	231.52
794.82	231.44
795.14	231.49
795.47	231.61
795.79	231.52
796.11	231.43
796.43	231.40
796.75	231.44
797.07	231.36
797.39	231.39
797.71	231.20
798.04	231.13
798.36	231.13
798.68	230.99
799.00	231.06
799.32	231.06
799.64	231.09
799.96	231.10
800.28	231.20
800.60	231.23
800.92	231.29
801.24	231.25
801.56	231.26
801.89	231.19
802.21	231.11
802.53	231.19
802.85	231.26
803.17	231.24
803.49	231.19
803.81	231.20
804.13	231.26
804.45	231.28
804.77	231.36
805.09	231.30
805.41	231.36
805.73	231.30
806.05	231.27
806.37	231.12
806.69	231.01
807.01	230.96
807.33	230.96
807.65	230.97
807.97	231.00
808.28	230.98
808.60	230.90
808.92	230.90
809.24	230.89
809.56	230.82
809.88	230.79
810.20	230.81
810.52	230.85
810.84	230.73
811.16	230.70
811.48	230.77
811.80	230.93
812.12	230.76
812.43	230.82
812.75	230.65
813.07	230.66
813.39	230.76
813.71	230.73
814.03	230.71
814.35	230.54
814.67	230.41
814.98	230.38
815.30	230.45
815.62	230.39
815.94	230.34
816.26	230.37
816.58	230.33
816.89	230.34
817.21	230.23
817.53	230.25
817.85	230.23
818.17	230.09
818.48	229.96
818.80	230.10
819.12	230.01
819.44	230.01
819.76	230.02
820.07	229.93
820.39	229.85
820.71	229.71
821.03	229.75
821.34	229.70
821.66	229.67
821.98	229.63
822.30	229.63
822.61	229.71
822.93	229.70
823.25	229.66
823.57	229.58
823.88	229.59
824.20	229.64
824.52	229.56
824.83	229.53
825.15	229.53
825.47	229.52
825.79	229.47
826.10	229.41
826.42	229.37
826.74	229.37
827.05	229.31
827.37	229.35
827.69	229.34
828.00	229.42
828.32	229.36
828.64	229.34
828.95	229.49
829.27	229.43
829.58	229.40
829.90	229.39
830.22	229.44
830.53	229.34
830.85	229.25
831.17	229.22
831.48	229.27
831.80	229.22
832.11	229.10
832.43	229.07
832.75	229.08
833.06	229.22
833.38	229.23
833.69	229.25
834.01	229.20
834.32	229.15
834.64	229.06
834.96	229.04
835.27	229.10
835.59	228.90
835.90	228.79
836.22	228.72
836.53	228.70
836.85	228.63
837.16	228.94
837.48	228.87
837.79	228.90
838.11	228.74
838.42	228.73
838.74	228.83
839.05	228.85
839.37	228.84
839.68	228.69
840.00	228.60
840.31	228.70
840.63	228.83
840.94	228.80
841.26	228.84
841.57	228.91
841.88	228.89
842.20	228.94
842.51	229.01
842.83	229.08
843.14	229.16
843.46	229.16
843.77	229.02
844.08	229.01
844.40	229.05
844.71	229.14
845.03	229.06
845.34	229.03
845.65	229.03
845.97	229.11
846.28	229.23
846.60	229.36
846.91	229.29
847.22	229.11
847.54	229.19
847.85	229.11
848.16	229.07
848.48	229.00
848.79	229.06
849.10	229.02
849.42	228.98
849.73	228.94
850.04	228.90
850.36	228.78
850.67	228.88
850.98	228.90
851.30	228.80
851.61	228.85
851.92	228.77
852.23	228.78
852.55	228.71
852.86	228.61
853.17	228.61
853.49	228.54
853.80	228.73
854.11	228.64
854.42	228.70
854.74	228.69
855.05	228.66
855.36	228.47
855.67	228.48
855.99	228.46
856.30	228.64
856.61	228.63
856.92	228.70
857.23	228.65
857.55	228.60
857.86	228.65
858.17	228.67
858.48	228.55
858.79	228.56
859.11	228.58
859.42	228.66
859.73	228.56
860.04	228.66
860.35	228.44
860.66	228.46
860.98	228.38
861.29	228.45
861.60	228.52
861.91	228.67
862.22	228.62
862.53	228.60
862.84	228.32
863.16	228.33
863.47	228.18
863.78	228.23
864.09	228.24
864.40	228.25
864.71	228.25
865.02	228.37
865.33	228.31
865.64	228.30
865.95	228.20
866.27	228.26
866.58	228.21
866.89	228.26
867.20	228.26
867.51	228.22
867.82	228.10
868.13	228.15
868.44	228.08
868.75	228.07
869.06	228.00
869.37	228.15
869.68	228.14
869.99	228.21
870.30	228.15
870.61	228.13
870.92	228.12
871.23	228.10
871.54	228.19
871.85	228.19
872.16	228.18
872.47	228.26
872.78	228.25
873.09	228.30
873.40	228.36
873.71	228.38
874.02	228.50
874.33	228.60
874.64	228.51
874.95	228.56
875.26	228.60
875.56	228.80
875.87	228.73
876.18	228.81
876.49	229.05
876.80	229.13
877.11	229.13
877.42	229.25
877.73	229.29
878.04	229.21
878.35	229.24
878.66	229.33
878.96	229.26
879.27	229.30
879.58	229.34
879.89	229.39
880.20	229.48
880.51	229.53
880.82	229.49
881.12	229.48
881.43	229.47
881.74	229.33
882.05	229.26
882.36	229.31
882.67	229.16
882.97	229.00
883.28	228.96
883.59	229.02
883.90	229.00
884.21	229.00
884.51	229.00
884.82	229.02
885.13	229.03
885.44	229.03
885.74	228.98
886.05	229.02
886.36	228.95
886.67	228.87
886.98	228.93
887.28	228.99
887.59	228.98
887.90	229.01
888.20	229.09
888.51	229.19
888.82	229.19
889.13	229.31
889.43	229.39
889.74	229.33
890.05	229.33
890.35	229.36
890.66	229.40
890.97	229.40
891.28	229.32
891.58	229.37
891.89	229.41
892.20	229.38
892.50	229.28
892.81	229.34
893.12	229.36
893.42	229.20
893.73	229.20
894.04	229.26
894.34	229.16
894.65	229.14
894.95	229.05
895.26	228.90
895.57	229.00
895.87	228.80
896.18	228.84
896.48	228.84
896.79	228.66
897.10	228.57
897.40	228.58
897.71	228.61
898.01	228.48
898.32	228.47
898.63	228.42
898.93	228.49
899.24	228.46
899.54	228.41
899.85	228.38
900.15	228.38
900.46	228.33
900.76	228.39
901.07	228.40
901.38	228.34
901.68	228.44
901.99	228.31
902.29	228.35
902.60	228.32
902.90	228.23
903.21	228.20
903.51	228.18
903.82	228.24
904.12	228.26
904.43	228.23
904.73	228.14
905.03	228.20
905.34	228.30
905.64	228.15
905.95	228.12
906.25	228.07
906.56	227.97
906.86	228.00
907.17	227.90
907.47	227.87
907.77	227.80
908.08	227.63
908.38	227.64
908.69	227.67
908.99	227.67
909.30	227.70
909.60	227.71
909.90	227.70
910.21	227.62
910.51	227.60
910.81	227.70
911.12	227.75
911.42	227.80
911.73	227.59
912.03	227.70
912.33	227.74
912.64	227.91
912.94	227.94
913.24	227.93
913.55	227.93
913.85	228.00
914.15	228.10
914.46	228.25
914.76	228.29
915.06	228.26
915.37	228.29
915.67	228.40
915.97	228.50
916.27	228.51
916.58	228.48
916.88	228.50
917.18	228.47
917.49	228.64
917.79	228.63
918.09	228.75
918.39	228.76
918.70	228.77
919.00	228.71
919.30	228.80
919.60	228.75
919.91	228.84
920.21	228.86
920.51	228.82
920.81	228.90
921.12	228.84
921.42	228.89
921.72	228.82
922.02	228.74
922.32	228.85
922.63	228.84
922.93	228.97
923.23	228.93
923.53	228.96
923.83	228.84
924.13	228.78
924.44	228.81
924.74	228.93
925.04	229.11
925.34	229.14
925.64	229.05
925.94	229.06
926.24	229.22
926.55	229.13
926.85	229.18
927.15	229.17
927.45	229.27
927.75	229.28
928.05	229.38
928.35	229.34
928.65	229.30
928.95	229.31
929.26	229.22
929.56	229.28
929.86	229.20
930.16	229.17
930.46	229.20
930.76	229.24
931.06	229.10
931.36	228.92
931.66	228.79
931.96	228.79
932.26	228.72
932.56	228.58
932.86	228.70
933.16	228.59
933.46	228.51
933.76	228.36
934.06	228.34
934.36	228.33
934.66	228.35
934.96	228.36
935.26	228.32
935.56	228.39
935.86	228.38
936.16	228.30
936.46	228.27
936.76	228.16
937.06	227.97
937.36	227.99
937.66	228.00
937.96	228.02
938.26	227.96
938.56	228.03
938.86	227.96
939.16	227.92
939.46	227.99
939.76	227.94
940.06	228.01
940.35	227.97
940.65	227.87
940.95	227.84
941.25	227.70
941.55	227.78
941.85	227.68
942.15	227.67
942.45	227.85
942.75	227.76
943.04	227.80
943.34	227.86
943.64	227.78
943.94	227.68
944.24	227.77
944.54	227.79
944.84	227.70
945.13	227.62
945.43	227.59
945.73	227.61
946.03	227.63
946.33	227.61
946.62	227.54
946.92	227.50
947.22	227.59
947.52	227.62
947.82	227.63
948.11	227.72
948.41	227.75
948.71	227.62
949.01	227.69
949.31	227.76
949.60	227.73
949.90	227.77
950.20	227.85
950.50	227.75
950.79	227.79
951.09	227.93
951.39	228.02
951.69	228.09
951.98	228.08
952.28	228.11
952.58	228.15
952.87	228.12
953.17	228.20
953.47	228.08
953.76	228.22
954.06	228.23
954.36	228.22
954.66	228.18
954.95	228.19
955.25	228.27
955.55	228.28
955.84	228.30
956.14	228.42
956.44	228.45
956.73	228.50
957.03	228.60
957.32	228.66
957.62	228.70
957.92	228.70
958.21	228.73
958.51	228.95
958.81	228.91
959.10	229.07
959.40	229.20
959.69	229.31
959.99	229.24
960.29	229.18
960.58	229.12
960.88	229.20
961.17	229.14
961.47	229.17
961.76	229.14
962.06	229.10
962.36	229.07
962.65	229.04
962.95	229.03
963.24	228.90
963.54	228.84
963.83	228.89
964.13	228.83
964.42	228.76
964.72	228.65
965.01	228.65
965.31	228.61
965.60	228.52
965.90	228.59
966.19	228.52
966.49	228.55
966.78	228.56
967.08	228.50
967.37	228.57
967.67	228.49
967.96	228.45
968.26	228.56
968.55	228.54
968.85	228.52
969.14	228.46
969.43	228.45
969.73	228.39
970.02	228.30
970.32	228.30
970.61	228.37
970.91	228.11
971.20	228.09
971.49	227.99
971.79	227.96
972.08	227.76
972.38	227.73
972.67	227.69
972.96	227.71
973.26	227.70
973.55	227.80
973.85	227.78
974.14	227.75
974.43	227.62
974.73	227.50
975.02	227.49
975.31	227.54
975.61	227.53
975.90	227.46
976.19	227.39
976.49	227.32
976.78	227.24
977.07	227.25
977.37	227.31
977.66	227.34
977.95	227.29
978.24	227.36
978.54	227.48
978.83	227.43
979.12	227.43
979.42	227.33
979.71	227.22
980.00	227.19
980.29	227.27
980.59	227.28
980.88	227.35
981.17	227.33
981.46	227.42
981.76	227.44
982.05	227.52
982.34	227.57
982.63	227.63
982.93	227.66
983.22	227.77
983.51	227.76
983.80	227.86
984.09	227.88
984.39	227.78
984.68	227.70
984.97	227.75
985.26	227.72
985.55	227.79
985.85	227.68
986.14	227.84
986.43	227.88
986.72	227.82
987.01	227.80
987.30	227.92
987.59	227.84
987.89	227.92
988.18	227.89
988.47	227.93
988.76	228.02
989.05	228.00
989.34	228.03
989.63	228.13
989.92	228.07
990.22	228.24
990.51	228.31
990.80	228.40
991.09	228.48
991.38	228.58
991.67	228.67
991.96	228.88
992.25	228.92
992.54	228.80
992.83	228.90
993.12	228.91
993.41	228.91
993.70	229.02
993.99	228.96
994.28	229.07
994.58	229.11
994.87	229.11
995.16	229.26
995.45	229.35
995.74	229.35
996.03	229.42
996.32	229.27
996.61	229.40
996.90	229.35
997.19	229.32
997.48	229.27
997.77	229.32
998.06	229.31
998.34	229.22
998.63	229.25
998.92	229.32
999.21	229.39
999.50	229.43
999.79	229.39
1000.08	229.46
1000.37	229.43
1000.66	229.29
1000.95	229.26
1001.24	229.20
1001.53	229.20
1001.82	229.11
1002.11	229.11
1002.40	229.20
1002.68	229.25
1002.97	229.40
1003.26	229.39
1003.55	229.30
1003.84	229.23
1004.13	229.22
1004.42	229.23
1004.71	229.31
1004.99	229.21
1005.28	229.29
1005.57	229.25
1005.86	229.25
1006.15	229.25
1006.44	229.22
1006.72	229.45
1007.01	229.43
1007.30	229.49
1007.59	229.38
1007.88	229.37
1008.17	229.23
1008.45	229.10
1008.74	229.07
1009.03	228.97
1009.32	228.90
1009.60	228.94
1009.89	228.87
1010.18	228.83
1010.47	228.86
1010.76	228.68
1011.04	228.69
1011.33	228.64
1011.62	228.56
1011.91	228.54
1012.19	228.52
1012.48	228.51
1012.77	228.39
1013.05	228.43
1013.34	228.29
1013.63	228.28
1013.92	228.22
1014.20	228.23
1014.49	228.27
1014.78	228.14
1015.06	227.99
1015.35	228.03
1015.64	228.01
1015.92	228.07
1016.21	227.90
1016.50	227.77
1016.78	227.88
1017.07	227.90
1017.36	227.87
1017.64	227.80
1017.93	227.70
1018.22	227.54
1018.50	227.52
1018.79	227.47
1019.08	227.29
1019.36	227.30
1019.65	227.29
1019.93	227.36
1020.22	227.43
1020.51	227.55
1020.79	227.60
1021.08	225.50
1021.36	227.50
1021.65	227.20
1021.94	226.50
1022.22	227.00
1022.51	227.90
1022.79	228.70
1023.08	228.70
1023.36	229.80
1023.65	228.90
>>>>>End Processed Spectral Data<<<<<
