SpectraSuite Data File
++++++++++++++++++++++++++++++++++++
Date: Fri Feb 01 14:37:20 EST 2013
User: group
Dark Spectrum Present: No
Reference Spectrum Present: No
Number of Sampled Component Spectra: 1
Spectrometers: USB2E7196
Integration Time (usec): 70000 (USB2E7196)
Spectra Averaged: 10 (USB2E7196)
Boxcar Smoothing: 10 (USB2E7196)
Correct for Electrical Dark: No (USB2E7196)
Strobe/Lamp Enabled: No (USB2E7196)
Correct for Detector Non-linearity: No (USB2E7196)
Correct for Stray Light: No (USB2E7196)
Number of Pixels in Processed Spectrum: 2048
>>>>>Begin Processed Spectral Data<<<<<
339.09	0.00
339.48	215.10
339.86	218.30
340.24	219.30
340.63	222.10
341.01	224.40
341.39	222.60
341.78	224.70
342.16	226.30
342.54	226.80
342.93	214.56
343.31	225.42
343.69	225.99
344.07	226.34
344.46	226.73
344.84	226.97
345.22	227.10
345.60	227.28
345.99	227.40
346.37	227.52
346.75	227.61
347.13	227.70
347.52	227.80
347.90	227.95
348.28	227.91
348.66	227.86
349.05	227.78
349.43	227.76
349.81	227.71
350.19	227.85
350.57	228.03
350.96	228.06
351.34	228.17
351.72	228.29
352.10	228.45
352.48	228.51
352.87	228.59
353.25	228.69
353.63	228.74
354.01	228.80
354.39	228.77
354.77	228.77
355.15	228.91
355.54	228.95
355.92	228.86
356.30	228.97
356.68	229.16
357.06	229.19
357.44	229.15
357.82	229.23
358.20	229.24
358.58	229.13
358.97	229.23
359.35	229.26
359.73	229.30
360.11	229.31
360.49	229.39
360.87	229.47
361.25	229.52
361.63	229.64
362.01	229.68
362.39	229.79
362.77	229.81
363.15	229.79
363.53	229.76
363.91	229.75
364.29	229.77
364.67	229.63
365.05	229.76
365.43	229.93
365.81	230.06
366.19	230.10
366.57	230.23
366.95	230.20
367.33	230.05
367.71	229.92
368.09	229.91
368.47	229.81
368.85	229.75
369.23	229.71
369.61	229.69
369.99	229.75
370.37	229.61
370.75	229.66
371.13	229.52
371.51	229.56
371.89	229.57
372.27	229.44
372.65	229.33
373.03	229.25
373.41	229.14
373.78	228.99
374.16	228.85
374.54	228.72
374.92	228.61
375.30	228.60
375.68	228.48
376.06	228.50
376.44	228.44
376.82	228.40
377.19	228.30
377.57	228.22
377.95	228.03
378.33	228.00
378.71	227.86
379.09	227.80
379.47	227.66
379.84	227.63
380.22	227.51
380.60	227.56
380.98	227.41
381.36	227.39
381.73	227.27
382.11	227.28
382.49	227.23
382.87	227.15
383.25	227.08
383.62	227.39
384.00	227.21
384.38	227.12
384.76	227.18
385.13	227.20
385.51	227.08
385.89	227.07
386.27	227.06
386.64	227.05
387.02	227.20
387.40	227.15
387.78	227.07
388.15	227.17
388.53	227.01
388.91	226.96
389.29	226.85
389.66	226.90
390.04	226.75
390.42	226.80
390.79	226.70
391.17	226.68
391.55	226.43
391.92	226.46
392.30	226.58
392.68	226.41
393.05	226.45
393.43	226.49
393.81	226.50
394.18	226.36
394.56	226.38
394.94	226.26
395.31	226.33
395.69	226.43
396.06	226.47
396.44	226.55
396.82	226.59
397.19	226.82
397.57	226.76
397.95	226.89
398.32	226.85
398.70	227.00
399.07	227.14
399.45	227.18
399.82	227.18
400.20	227.26
400.58	227.44
400.95	227.44
401.33	227.62
401.70	227.92
402.08	228.15
402.45	228.22
402.83	228.50
403.20	228.58
403.58	228.66
403.95	228.84
404.33	228.97
404.71	229.10
405.08	229.40
405.46	229.65
405.83	229.89
406.21	230.20
406.58	230.47
406.96	230.74
407.33	231.01
407.70	231.39
408.08	231.80
408.45	232.10
408.83	232.48
409.20	232.70
409.58	232.88
409.95	233.30
410.33	233.76
410.70	234.10
411.08	234.53
411.45	235.03
411.82	235.45
412.20	236.06
412.57	236.90
412.95	237.18
413.32	237.85
413.69	238.41
414.07	239.10
414.44	239.93
414.82	240.66
415.19	241.64
415.56	242.50
415.94	243.34
416.31	244.38
416.68	245.33
417.06	246.66
417.43	247.85
417.81	249.14
418.18	250.47
418.55	251.90
418.93	253.51
419.30	255.01
419.67	256.62
420.04	258.23
420.42	259.85
420.79	261.96
421.16	263.99
421.54	266.21
421.91	268.26
422.28	270.49
422.66	272.88
423.03	275.22
423.40	277.63
423.77	280.20
424.15	282.85
424.52	285.62
424.89	288.42
425.26	291.09
425.64	293.76
426.01	296.70
426.38	299.73
426.75	302.78
427.13	306.06
427.50	309.54
427.87	313.01
428.24	316.57
428.61	319.96
428.99	323.67
429.36	327.66
429.73	331.55
430.10	335.33
430.47	339.21
430.85	343.19
431.22	347.42
431.59	351.90
431.96	356.20
432.33	360.97
432.70	365.55
433.08	371.07
433.45	376.20
433.82	381.38
434.19	387.19
434.56	392.60
434.93	397.87
435.30	403.00
435.68	408.99
436.05	414.61
436.42	420.18
436.79	425.23
437.16	430.50
437.53	436.44
437.90	442.19
438.27	447.85
438.64	453.69
439.01	459.16
439.38	464.11
439.75	468.71
440.13	474.00
440.50	479.11
440.87	483.20
441.24	487.49
441.61	492.07
441.98	495.45
442.35	499.62
442.72	503.89
443.09	508.10
443.46	510.55
443.83	512.49
444.20	514.15
444.57	516.70
444.94	518.24
445.31	519.59
445.68	521.01
446.05	521.96
446.42	521.92
446.79	521.75
447.16	521.42
447.53	521.56
447.90	520.05
448.27	518.49
448.64	516.10
449.01	514.61
449.37	511.56
449.74	508.48
450.11	504.78
450.48	500.34
450.85	495.85
451.22	492.40
451.59	488.73
451.96	485.36
452.33	480.33
452.70	476.11
453.07	470.84
453.43	465.55
453.80	460.40
454.17	455.44
454.54	450.70
454.91	445.61
455.28	440.44
455.65	435.80
456.02	431.15
456.38	427.10
456.75	421.92
457.12	417.59
457.49	413.32
457.86	409.03
458.23	405.64
458.59	401.69
458.96	397.44
459.33	393.89
459.70	390.30
460.07	387.48
460.43	383.99
460.80	380.87
461.17	378.16
461.54	375.23
461.91	372.42
462.27	369.68
462.64	367.18
463.01	364.60
463.38	362.05
463.74	359.31
464.11	357.03
464.48	355.00
464.85	352.75
465.21	350.91
465.58	349.09
465.95	346.78
466.32	344.97
466.68	343.09
467.05	341.38
467.42	339.46
467.78	337.48
468.15	335.74
468.52	334.31
468.88	332.36
469.25	330.70
469.62	329.47
469.98	328.08
470.35	326.82
470.72	325.52
471.08	324.06
471.45	322.91
471.82	321.78
472.18	320.48
472.55	319.40
472.92	318.29
473.28	317.18
473.65	316.12
474.02	315.16
474.38	314.34
474.75	313.44
475.11	312.62
475.48	311.90
475.85	311.24
476.21	310.53
476.58	309.82
476.94	309.27
477.31	308.57
477.67	308.00
478.04	307.46
478.41	306.92
478.77	306.50
479.14	306.00
479.50	305.46
479.87	305.21
480.23	304.99
480.60	304.64
480.96	304.40
481.33	304.35
481.69	304.21
482.06	304.06
482.42	303.84
482.79	303.79
483.15	303.79
483.52	303.76
483.88	303.77
484.25	303.85
484.61	303.84
484.98	303.82
485.34	303.95
485.71	304.20
486.07	304.46
486.44	304.66
486.80	304.97
487.17	305.34
487.53	305.73
487.90	305.99
488.26	306.47
488.62	307.00
488.99	307.32
489.35	307.66
489.72	307.96
490.08	308.55
490.44	308.98
490.81	309.56
491.17	310.10
491.54	310.73
491.90	311.37
492.26	312.17
492.63	312.83
492.99	313.59
493.36	314.07
493.72	314.82
494.08	315.55
494.45	316.35
494.81	317.05
495.17	317.71
495.54	318.60
495.90	319.33
496.26	320.08
496.63	320.92
496.99	321.76
497.35	322.66
497.72	323.54
498.08	324.39
498.44	325.11
498.80	326.02
499.17	326.88
499.53	327.72
499.89	328.43
500.26	329.34
500.62	329.98
500.98	330.94
501.34	331.70
501.71	332.53
502.07	333.14
502.43	333.94
502.79	334.58
503.16	335.23
503.52	335.87
503.88	336.37
504.24	336.94
504.60	337.60
504.97	338.21
505.33	338.60
505.69	339.23
506.05	339.82
506.41	340.17
506.78	340.53
507.14	340.82
507.50	341.28
507.86	341.61
508.22	341.90
508.59	342.24
508.95	342.52
509.31	342.82
509.67	343.26
510.03	343.54
510.39	343.82
510.75	344.01
511.12	344.21
511.48	344.41
511.84	344.50
512.20	344.46
512.56	344.53
512.92	344.65
513.28	344.73
513.64	344.81
514.00	344.90
514.37	344.90
514.73	345.06
515.09	345.18
515.45	345.26
515.81	345.25
516.17	345.30
516.53	345.40
516.89	345.30
517.25	345.21
517.61	345.30
517.97	345.40
518.33	345.48
518.69	345.64
519.05	345.92
519.41	346.34
519.77	346.83
520.13	347.13
520.49	347.35
520.85	347.65
521.21	348.14
521.57	348.60
521.93	349.06
522.29	349.67
522.65	350.17
523.01	350.78
523.37	351.54
523.73	352.15
524.09	352.89
524.45	353.85
524.81	354.80
525.17	355.78
525.53	356.86
525.89	358.04
526.25	359.21
526.61	360.33
526.97	361.56
527.33	362.80
527.68	364.50
528.04	366.21
528.40	367.75
528.76	369.40
529.12	371.15
529.48	373.11
529.84	374.96
530.20	376.95
530.56	379.16
530.91	381.53
531.27	383.96
531.63	386.32
531.99	388.78
532.35	391.35
532.71	393.74
533.07	396.38
533.42	399.25
533.78	402.02
534.14	405.04
534.50	407.96
534.86	411.12
535.21	414.09
535.57	417.30
535.93	420.56
536.29	423.83
536.65	427.27
537.00	430.60
537.36	434.15
537.72	437.71
538.08	441.23
538.44	444.60
538.79	448.17
539.15	451.94
539.51	455.88
539.87	459.88
540.22	464.10
540.58	468.26
540.94	472.15
541.29	476.31
541.65	480.22
542.01	484.50
542.37	488.68
542.72	492.88
543.08	497.07
543.44	501.51
543.79	505.68
544.15	510.10
544.51	514.67
544.87	519.07
545.22	523.36
545.58	527.81
545.94	532.72
546.29	537.43
546.65	542.15
547.01	546.53
547.36	550.90
547.72	555.39
548.07	559.69
548.43	564.30
548.79	568.88
549.14	573.53
549.50	577.95
549.86	582.47
550.21	587.18
550.57	591.88
550.92	596.48
551.28	601.27
551.64	606.00
551.99	610.62
552.35	615.35
552.70	620.28
553.06	625.22
553.41	629.76
553.77	634.66
554.13	639.33
554.48	644.07
554.84	648.96
555.19	653.60
555.55	658.68
555.90	663.07
556.26	667.60
556.61	672.30
556.97	676.95
557.32	681.73
557.68	686.43
558.03	691.06
558.39	695.50
558.74	700.38
559.10	704.75
559.45	709.37
559.81	714.12
560.16	718.60
560.52	723.07
560.87	727.52
561.23	731.64
561.58	735.84
561.94	740.23
562.29	744.21
562.64	748.31
563.00	752.28
563.35	756.78
563.71	760.99
564.06	765.08
564.42	769.22
564.77	773.21
565.12	777.12
565.48	781.06
565.83	785.11
566.19	788.64
566.54	792.50
566.89	796.05
567.25	799.61
567.60	803.37
567.96	807.10
568.31	810.91
568.66	814.44
569.02	818.05
569.37	821.10
569.72	824.45
570.08	827.88
570.43	830.95
570.78	833.97
571.14	837.03
571.49	839.93
571.84	843.17
572.20	845.67
572.55	848.34
572.90	850.87
573.26	853.35
573.61	856.17
573.96	858.48
574.31	860.82
574.67	862.56
575.02	864.49
575.37	866.30
575.72	867.63
576.08	869.24
576.43	870.67
576.78	872.48
577.13	874.33
577.49	875.95
577.84	877.64
578.19	879.18
578.54	880.66
578.90	881.88
579.25	882.58
579.60	884.02
579.95	884.93
580.30	885.90
580.66	886.68
581.01	887.24
581.36	887.96
581.71	888.84
582.06	889.84
582.42	890.43
582.77	890.88
583.12	891.58
583.47	892.38
583.82	893.30
584.17	893.72
584.53	894.22
584.88	894.52
585.23	894.90
585.58	895.16
585.93	895.28
586.28	895.63
586.63	896.15
586.98	896.19
587.34	896.65
587.69	896.80
588.04	897.01
588.39	897.17
588.74	896.73
589.09	896.46
589.44	896.08
589.79	895.95
590.14	895.93
590.49	895.82
590.84	895.30
591.19	894.96
591.54	894.00
591.89	892.90
592.25	892.68
592.60	891.74
592.95	890.88
593.30	890.07
593.65	889.12
594.00	888.05
594.35	887.65
594.70	886.22
595.05	885.39
595.40	884.18
595.75	882.89
596.10	882.16
596.45	881.31
596.80	880.60
597.15	879.58
597.50	878.24
597.85	877.08
598.19	876.44
598.54	875.30
598.89	874.67
599.24	874.20
599.59	872.78
599.94	871.65
600.29	870.63
600.64	869.31
600.99	867.99
601.34	866.83
601.69	864.74
602.04	863.41
602.39	861.89
602.74	860.91
603.08	859.85
603.43	858.97
603.78	857.58
604.13	856.23
604.48	854.61
604.83	853.40
605.18	852.11
605.53	849.91
605.87	847.91
606.22	846.33
606.57	844.25
606.92	842.38
607.27	840.90
607.62	839.14
607.96	837.67
608.31	836.22
608.66	834.20
609.01	832.43
609.36	830.21
609.70	827.93
610.05	825.41
610.40	823.02
610.75	820.64
611.10	818.32
611.44	815.31
611.79	813.05
612.14	810.10
612.49	807.21
612.83	804.52
613.18	802.01
613.53	799.48
613.88	796.83
614.22	794.31
614.57	791.36
614.92	788.66
615.27	786.06
615.61	783.20
615.96	780.62
616.31	777.97
616.65	776.10
617.00	773.49
617.35	771.11
617.70	768.52
618.04	765.72
618.39	763.23
618.74	760.94
619.08	758.19
619.43	755.80
619.78	753.16
620.12	750.81
620.47	748.28
620.82	745.42
621.16	742.79
621.51	740.30
621.85	737.69
622.20	734.87
622.55	732.26
622.89	729.67
623.24	727.13
623.59	724.83
623.93	722.10
624.28	719.60
624.62	716.95
624.97	714.57
625.32	712.00
625.66	709.15
626.01	706.63
626.35	704.21
626.70	701.67
627.04	699.32
627.39	696.81
627.73	694.15
628.08	691.78
628.43	689.06
628.77	686.22
629.12	683.53
629.46	681.00
629.81	678.03
630.15	675.25
630.50	672.38
630.84	669.21
631.19	665.99
631.53	663.54
631.88	660.62
632.22	657.40
632.57	654.64
632.91	652.00
633.26	649.19
633.60	646.20
633.95	643.50
634.29	640.70
634.64	638.03
634.98	635.33
635.32	632.89
635.67	630.59
636.01	628.07
636.36	625.60
636.70	623.04
637.05	620.47
637.39	618.32
637.73	616.16
638.08	614.29
638.42	612.29
638.77	609.81
639.11	607.46
639.45	605.24
639.80	602.78
640.14	600.36
640.49	598.05
640.83	595.64
641.17	593.30
641.52	590.92
641.86	588.42
642.20	586.15
642.55	583.66
642.89	581.33
643.23	578.93
643.58	576.83
643.92	574.54
644.26	572.33
644.61	569.80
644.95	567.31
645.29	564.48
645.64	562.02
645.98	559.55
646.32	557.42
646.66	555.03
647.01	552.60
647.35	550.28
647.69	548.19
648.04	546.17
648.38	543.68
648.72	541.06
649.06	538.58
649.41	536.01
649.75	533.38
650.09	530.92
650.43	528.38
650.78	525.51
651.12	523.00
651.46	520.58
651.80	518.15
652.14	515.72
652.49	513.44
652.83	511.09
653.17	508.63
653.51	506.08
653.85	503.75
654.20	501.36
654.54	498.64
654.88	495.93
655.22	493.22
655.56	490.73
655.90	488.70
656.25	486.58
656.59	484.57
656.93	482.34
657.27	480.01
657.61	477.73
657.95	475.79
658.29	473.58
658.64	471.46
658.98	468.98
659.32	466.57
659.66	464.22
660.00	461.91
660.34	459.73
660.68	457.51
661.02	455.22
661.36	453.15
661.70	451.22
662.05	449.32
662.39	447.68
662.73	445.80
663.07	443.86
663.41	441.82
663.75	439.69
664.09	437.89
664.43	435.77
664.77	434.04
665.11	432.14
665.45	430.30
665.79	428.43
666.13	426.64
666.47	424.80
666.81	423.13
667.15	421.10
667.49	419.34
667.83	417.76
668.17	416.05
668.51	414.31
668.85	412.57
669.19	410.82
669.53	408.86
669.87	407.12
670.21	405.24
670.55	403.62
670.89	402.17
671.23	400.56
671.57	399.11
671.91	397.35
672.25	395.64
672.58	394.05
672.92	392.25
673.26	390.98
673.60	389.63
673.94	388.14
674.28	386.97
674.62	385.59
674.96	383.97
675.30	382.61
675.64	381.26
675.97	379.94
676.31	378.54
676.65	377.08
676.99	375.83
677.33	374.50
677.67	373.10
678.01	371.60
678.34	370.26
678.68	368.98
679.02	367.67
679.36	366.43
679.70	365.17
680.04	364.04
680.37	362.55
680.71	361.35
681.05	360.22
681.39	359.02
681.73	357.79
682.06	356.57
682.40	355.47
682.74	354.28
683.08	353.19
683.42	352.00
683.75	351.04
684.09	349.83
684.43	348.73
684.77	347.59
685.10	346.38
685.44	345.14
685.78	344.01
686.12	342.91
686.45	341.61
686.79	340.57
687.13	339.47
687.46	338.48
687.80	337.30
688.14	336.10
688.48	334.91
688.81	333.81
689.15	332.89
689.49	331.71
689.82	330.62
690.16	329.43
690.50	328.46
690.83	327.40
691.17	326.48
691.51	325.47
691.84	324.51
692.18	323.59
692.52	322.55
692.85	321.56
693.19	320.74
693.52	319.87
693.86	318.78
694.20	317.94
694.53	317.06
694.87	316.10
695.21	315.20
695.54	314.26
695.88	313.34
696.21	312.36
696.55	311.52
696.88	310.81
697.22	309.97
697.56	309.07
697.89	308.15
698.23	307.26
698.56	306.48
698.90	305.69
699.23	304.69
699.57	303.91
699.90	303.09
700.24	302.31
700.58	301.51
700.91	300.80
701.25	300.12
701.58	299.40
701.92	298.67
702.25	297.90
702.59	297.20
702.92	296.40
703.26	295.65
703.59	294.85
703.93	294.19
704.26	293.45
704.60	292.83
704.93	292.10
705.26	291.35
705.60	290.59
705.93	289.87
706.27	289.40
706.60	288.82
706.94	288.21
707.27	287.40
707.61	286.89
707.94	286.23
708.27	285.36
708.61	284.56
708.94	283.96
709.28	283.38
709.61	282.68
709.94	282.12
710.28	281.51
710.61	281.09
710.95	280.23
711.28	279.82
711.61	279.01
711.95	278.44
712.28	277.80
712.61	277.21
712.95	276.59
713.28	276.02
713.61	275.35
713.95	274.88
714.28	274.30
714.61	273.66
714.95	273.10
715.28	272.55
715.61	272.01
715.95	271.39
716.28	270.93
716.61	270.58
716.95	270.14
717.28	269.72
717.61	269.18
717.94	268.73
718.28	268.14
718.61	267.78
718.94	267.32
719.27	266.94
719.61	266.53
719.94	266.18
720.27	265.71
720.60	265.39
720.94	264.88
721.27	264.61
721.60	264.40
721.93	264.13
722.27	263.86
722.60	263.57
722.93	263.17
723.26	262.78
723.59	262.32
723.93	261.97
724.26	261.64
724.59	261.31
724.92	261.06
725.25	260.80
725.59	260.43
725.92	260.10
726.25	259.88
726.58	259.58
726.91	259.20
727.24	259.03
727.57	258.82
727.91	258.52
728.24	258.24
728.57	257.83
728.90	257.43
729.23	257.04
729.56	256.85
729.89	256.66
730.22	256.34
730.55	256.14
730.89	255.87
731.22	255.64
731.55	255.36
731.88	255.14
732.21	254.85
732.54	254.67
732.87	254.45
733.20	254.07
733.53	253.78
733.86	253.60
734.19	253.20
734.52	252.84
734.85	252.75
735.18	252.41
735.51	252.27
735.84	252.04
736.17	251.85
736.50	251.57
736.83	251.62
737.16	251.47
737.49	251.21
737.82	250.98
738.15	250.71
738.48	250.53
738.81	250.19
739.14	249.96
739.47	249.77
739.80	249.51
740.13	249.39
740.46	249.13
740.79	249.04
741.12	248.85
741.45	248.66
741.78	248.32
742.11	248.20
742.44	247.88
742.77	247.68
743.10	247.57
743.43	247.36
743.75	246.96
744.08	246.97
744.41	246.75
744.74	246.55
745.07	246.36
745.40	246.15
745.73	246.11
746.06	245.90
746.39	245.65
746.71	245.51
747.04	245.34
747.37	245.19
747.70	245.00
748.03	244.88
748.36	244.64
748.68	244.41
749.01	244.18
749.34	244.02
749.67	243.80
750.00	243.53
750.33	243.48
750.65	243.21
750.98	242.88
751.31	242.72
751.64	242.65
751.97	242.52
752.29	242.36
752.62	242.06
752.95	241.84
753.28	241.75
753.60	241.60
753.93	241.48
754.26	241.31
754.59	241.03
754.91	240.77
755.24	240.63
755.57	240.51
755.90	240.37
756.22	240.15
756.55	240.09
756.88	239.87
757.20	239.64
757.53	239.57
757.86	239.34
758.19	239.20
758.51	239.01
758.84	238.78
759.17	238.53
759.49	238.49
759.82	238.53
760.15	238.34
760.47	238.20
760.80	238.03
761.13	238.01
761.45	237.94
761.78	237.91
762.11	237.86
762.43	237.71
762.76	237.59
763.08	237.60
763.41	237.40
763.74	237.38
764.06	237.20
764.39	237.03
764.71	236.98
765.04	236.90
765.37	236.76
765.69	236.72
766.02	236.74
766.34	236.63
766.67	236.41
767.00	236.44
767.32	236.36
767.65	236.42
767.97	236.34
768.30	236.20
768.62	236.04
768.95	235.90
769.27	235.94
769.60	235.96
769.92	235.78
770.25	235.74
770.57	235.63
770.90	235.68
771.22	235.63
771.55	235.53
771.87	235.46
772.20	235.42
772.52	235.52
772.85	235.67
773.17	235.63
773.50	235.63
773.82	235.57
774.15	235.45
774.47	235.27
774.80	235.22
775.12	235.14
775.45	235.13
775.77	235.14
776.09	234.98
776.42	234.86
776.74	234.87
777.07	234.77
777.39	234.80
777.72	234.66
778.04	234.70
778.36	234.66
778.69	234.64
779.01	234.50
779.33	234.24
779.66	233.99
779.98	233.90
780.31	233.78
780.63	233.78
780.95	233.88
781.28	233.85
781.60	233.65
781.92	233.70
782.25	233.68
782.57	233.55
782.89	233.53
783.22	233.43
783.54	233.36
783.86	233.36
784.19	233.22
784.51	233.17
784.83	233.15
785.16	233.02
785.48	232.90
785.80	232.86
786.12	232.77
786.45	232.69
786.77	232.62
787.09	232.69
787.42	232.64
787.74	232.52
788.06	232.34
788.38	232.30
788.71	232.15
789.03	232.06
789.35	232.02
789.67	231.90
789.99	231.94
790.32	231.89
790.64	231.85
790.96	231.99
791.28	231.97
791.61	231.73
791.93	231.74
792.25	231.73
792.57	231.87
792.89	231.72
793.21	231.66
793.54	231.65
793.86	231.45
794.18	231.30
794.50	231.14
794.82	231.12
795.14	231.14
795.47	231.17
795.79	231.20
796.11	231.10
796.43	231.09
796.75	230.96
797.07	230.87
797.39	230.87
797.71	230.63
798.04	230.49
798.36	230.49
798.68	230.44
799.00	230.49
799.32	230.30
799.64	230.50
799.96	230.40
800.28	230.35
800.60	230.36
800.92	230.29
801.24	230.29
801.56	230.38
801.89	230.32
802.21	230.28
802.53	230.10
802.85	230.14
803.17	230.22
803.49	230.19
803.81	230.07
804.13	229.97
804.45	229.91
804.77	229.90
805.09	229.89
805.41	229.80
805.73	229.65
806.05	229.65
806.37	229.53
806.69	229.64
807.01	229.70
807.33	229.72
807.65	229.68
807.97	229.75
808.28	229.67
808.60	229.68
808.92	229.71
809.24	229.75
809.56	229.75
809.88	229.75
810.20	229.81
810.52	229.99
810.84	230.01
811.16	230.12
811.48	230.18
811.80	230.29
812.12	230.38
812.43	230.53
812.75	230.58
813.07	230.60
813.39	230.55
813.71	230.49
814.03	230.53
814.35	230.61
814.67	230.58
814.98	230.55
815.30	230.58
815.62	230.51
815.94	230.58
816.26	230.62
816.58	230.57
816.89	230.47
817.21	230.42
817.53	230.48
817.85	230.35
818.17	230.23
818.48	230.17
818.80	230.15
819.12	230.03
819.44	230.03
819.76	230.02
820.07	230.11
820.39	230.08
820.71	230.12
821.03	230.15
821.34	230.16
821.66	230.22
821.98	230.11
822.30	230.16
822.61	230.24
822.93	230.17
823.25	230.10
823.57	230.14
823.88	230.14
824.20	230.10
824.52	230.12
824.83	230.26
825.15	230.23
825.47	230.14
825.79	230.15
826.10	230.04
826.42	230.02
826.74	229.92
827.05	229.77
827.37	229.70
827.69	229.62
828.00	229.61
828.32	229.52
828.64	229.55
828.95	229.54
829.27	229.41
829.58	229.38
829.90	229.40
830.22	229.41
830.53	229.38
830.85	229.34
831.17	229.35
831.48	229.29
831.80	229.18
832.11	229.22
832.43	229.15
832.75	229.12
833.06	229.09
833.38	228.91
833.69	228.93
834.01	228.90
834.32	228.77
834.64	228.61
834.96	228.67
835.27	228.70
835.59	228.59
835.90	228.59
836.22	228.61
836.53	228.52
836.85	228.45
837.16	228.58
837.48	228.50
837.79	228.43
838.11	228.44
838.42	228.47
838.74	228.47
839.05	228.52
839.37	228.57
839.68	228.50
840.00	228.57
840.31	228.57
840.63	228.44
840.94	228.50
841.26	228.54
841.57	228.54
841.88	228.48
842.20	228.47
842.51	228.37
842.83	228.41
843.14	228.63
843.46	228.61
843.77	228.53
844.08	228.44
844.40	228.42
844.71	228.33
845.03	228.38
845.34	228.37
845.65	228.32
845.97	228.22
846.28	228.27
846.60	228.27
846.91	228.30
847.22	228.38
847.54	228.43
847.85	228.51
848.16	228.48
848.48	228.44
848.79	228.52
849.10	228.63
849.42	228.61
849.73	228.39
850.04	228.45
850.36	228.43
850.67	228.65
850.98	228.67
851.30	228.76
851.61	228.77
851.92	228.77
852.23	228.85
852.55	228.96
852.86	228.96
853.17	228.90
853.49	228.95
853.80	229.03
854.11	229.07
854.42	229.01
854.74	228.95
855.05	229.03
855.36	229.00
855.67	228.96
855.99	228.92
856.30	229.29
856.61	229.34
856.92	229.28
857.23	229.27
857.55	229.26
857.86	229.25
858.17	229.19
858.48	229.15
858.79	229.05
859.11	229.15
859.42	229.15
859.73	229.23
860.04	229.26
860.35	229.23
860.66	229.11
860.98	229.14
861.29	229.21
861.60	229.09
861.91	229.10
862.22	229.10
862.53	229.11
862.84	228.86
863.16	228.83
863.47	228.77
863.78	228.72
864.09	228.74
864.40	228.70
864.71	228.74
865.02	228.82
865.33	228.76
865.64	228.51
865.95	228.52
866.27	228.59
866.58	228.52
866.89	228.50
867.20	228.51
867.51	228.48
867.82	228.44
868.13	228.50
868.44	228.55
868.75	228.50
869.06	228.48
869.37	228.41
869.68	228.35
869.99	228.40
870.30	228.40
870.61	228.49
870.92	228.54
871.23	228.49
871.54	228.41
871.85	228.45
872.16	228.58
872.47	228.50
872.78	228.37
873.09	228.42
873.40	228.41
873.71	228.45
874.02	228.57
874.33	228.50
874.64	228.51
874.95	228.46
875.26	228.45
875.56	228.43
875.87	228.41
876.18	228.41
876.49	228.55
876.80	228.50
877.11	228.46
877.42	228.40
877.73	228.49
878.04	228.50
878.35	228.53
878.66	228.60
878.96	228.70
879.27	228.77
879.58	228.64
879.89	228.51
880.20	228.49
880.51	228.40
880.82	228.38
881.12	228.40
881.43	228.28
881.74	228.30
882.05	228.31
882.36	228.35
882.67	228.48
882.97	228.39
883.28	228.37
883.59	228.32
883.90	228.32
884.21	228.23
884.51	228.31
884.82	228.40
885.13	228.28
885.44	228.27
885.74	228.26
886.05	228.38
886.36	228.47
886.67	228.47
886.98	228.54
887.28	228.57
887.59	228.57
887.90	228.61
888.20	228.53
888.51	228.52
888.82	228.47
889.13	228.35
889.43	228.36
889.74	228.50
890.05	228.41
890.35	228.44
890.66	228.48
890.97	228.40
891.28	228.27
891.58	228.33
891.89	228.30
892.20	228.26
892.50	228.23
892.81	228.19
893.12	228.18
893.42	228.07
893.73	228.11
894.04	228.07
894.34	228.05
894.65	228.16
894.95	228.11
895.26	228.11
895.57	228.18
895.87	228.07
896.18	228.07
896.48	228.20
896.79	228.18
897.10	228.19
897.40	228.16
897.71	228.19
898.01	228.16
898.32	228.20
898.63	228.32
898.93	228.28
899.24	228.34
899.54	228.32
899.85	228.35
900.15	228.32
900.46	228.36
900.76	228.44
901.07	228.32
901.38	228.36
901.68	228.42
901.99	228.28
902.29	228.32
902.60	228.20
902.90	228.20
903.21	228.21
903.51	228.23
903.82	228.38
904.12	228.38
904.43	228.44
904.73	228.45
905.03	228.33
905.34	228.54
905.64	228.50
905.95	228.46
906.25	228.35
906.56	228.33
906.86	228.32
907.17	228.34
907.47	228.48
907.77	228.52
908.08	228.42
908.38	228.56
908.69	228.52
908.99	228.65
909.30	228.56
909.60	228.54
909.90	228.42
910.21	228.22
910.51	228.23
910.81	228.17
911.12	228.14
911.42	228.13
911.73	228.03
912.03	228.08
912.33	228.18
912.64	228.29
912.94	228.41
913.24	228.43
913.55	228.38
913.85	228.34
914.15	228.21
914.46	228.27
914.76	228.20
915.06	228.30
915.37	228.26
915.67	228.28
915.97	228.30
916.27	228.36
916.58	228.40
916.88	228.36
917.18	228.38
917.49	228.49
917.79	228.47
918.09	228.45
918.39	228.44
918.70	228.45
919.00	228.47
919.30	228.48
919.60	228.40
919.91	228.46
920.21	228.45
920.51	228.44
920.81	228.50
921.12	228.52
921.42	228.30
921.72	228.31
922.02	228.36
922.32	228.35
922.63	228.41
922.93	228.53
923.23	228.63
923.53	228.58
923.83	228.43
924.13	228.54
924.44	228.54
924.74	228.61
925.04	228.59
925.34	228.57
925.64	228.44
925.94	228.51
926.24	228.59
926.55	228.58
926.85	228.70
927.15	228.63
927.45	228.63
927.75	228.76
928.05	228.75
928.35	228.75
928.65	228.77
928.95	228.67
929.26	228.59
929.56	228.57
929.86	228.54
930.16	228.60
930.46	228.45
930.76	228.46
931.06	228.33
931.36	228.25
931.66	228.29
931.96	228.28
932.26	228.25
932.56	228.11
932.86	228.11
933.16	228.06
933.46	228.09
933.76	228.01
934.06	228.03
934.36	228.06
934.66	228.02
934.96	227.96
935.26	228.11
935.56	228.16
935.86	228.03
936.16	228.10
936.46	228.08
936.76	228.10
937.06	228.04
937.36	228.16
937.66	228.27
937.96	228.23
938.26	228.29
938.56	228.30
938.86	228.34
939.16	228.39
939.46	228.35
939.76	228.29
940.06	228.29
940.35	228.29
940.65	228.20
940.95	228.23
941.25	228.25
941.55	228.20
941.85	228.11
942.15	228.30
942.45	228.23
942.75	228.17
943.04	228.15
943.34	228.10
943.64	227.97
943.94	227.90
944.24	227.78
944.54	227.75
944.84	227.78
945.13	227.73
945.43	227.70
945.73	227.72
946.03	227.72
946.33	227.76
946.62	227.74
946.92	227.79
947.22	227.78
947.52	227.79
947.82	227.90
948.11	228.00
948.41	227.86
948.71	227.93
949.01	227.91
949.31	227.95
949.60	228.00
949.90	228.05
950.20	228.15
950.50	228.29
950.79	228.21
951.09	228.20
951.39	228.27
951.69	228.22
951.98	228.33
952.28	228.40
952.58	228.31
952.87	228.40
953.17	228.37
953.47	228.36
953.76	228.41
954.06	228.37
954.36	228.23
954.66	228.21
954.95	228.29
955.25	228.41
955.55	228.40
955.84	228.40
956.14	228.50
956.44	228.51
956.73	228.43
957.03	228.52
957.32	228.43
957.62	228.30
957.92	228.43
958.21	228.40
958.51	228.51
958.81	228.60
959.10	228.55
959.40	228.67
959.69	228.64
959.99	228.64
960.29	228.63
960.58	228.61
960.88	228.76
961.17	228.71
961.47	228.60
961.76	228.70
962.06	228.74
962.36	228.68
962.65	228.52
962.95	228.46
963.24	228.46
963.54	228.54
963.83	228.54
964.13	228.41
964.42	228.42
964.72	228.24
965.01	228.26
965.31	228.14
965.60	228.04
965.90	228.24
966.19	228.18
966.49	228.07
966.78	228.10
967.08	228.02
967.37	227.90
967.67	227.91
967.96	227.87
968.26	227.76
968.55	227.78
968.85	227.76
969.14	227.86
969.43	227.81
969.73	227.79
970.02	227.90
970.32	227.92
970.61	227.85
970.91	227.90
971.20	227.82
971.49	227.82
971.79	227.72
972.08	227.47
972.38	227.47
972.67	227.56
972.96	227.63
973.26	227.58
973.55	227.73
973.85	227.70
974.14	227.71
974.43	227.77
974.73	227.78
975.02	227.78
975.31	227.75
975.61	227.75
975.90	227.78
976.19	227.66
976.49	227.76
976.78	227.74
977.07	227.68
977.37	227.81
977.66	227.81
977.95	227.81
978.24	227.92
978.54	228.00
978.83	227.91
979.12	227.89
979.42	227.90
979.71	227.80
980.00	227.86
980.29	227.83
980.59	227.83
980.88	227.85
981.17	227.88
981.46	227.90
981.76	227.97
982.05	228.03
982.34	228.06
982.63	228.01
982.93	228.02
983.22	228.10
983.51	227.94
983.80	228.16
984.09	228.32
984.39	228.20
984.68	228.18
984.97	228.25
985.26	228.31
985.55	228.33
985.85	228.36
986.14	228.46
986.43	228.55
986.72	228.53
987.01	228.49
987.30	228.59
987.59	228.63
987.89	228.64
988.18	228.58
988.47	228.66
988.76	228.61
989.05	228.71
989.34	228.76
989.63	228.98
989.92	228.89
990.22	228.79
990.51	228.94
990.80	228.98
991.09	229.04
991.38	229.06
991.67	229.05
991.96	229.04
992.25	228.93
992.54	228.86
992.83	228.97
993.12	229.04
993.41	229.12
993.70	229.25
993.99	229.34
994.28	229.31
994.58	229.31
994.87	229.34
995.16	229.29
995.45	229.22
995.74	229.10
996.03	229.11
996.32	229.16
996.61	229.30
996.90	229.22
997.19	229.10
997.48	229.10
997.77	229.12
998.06	229.25
998.34	229.30
998.63	229.42
998.92	229.34
999.21	229.24
999.50	229.10
999.79	228.94
1000.08	228.89
1000.37	228.94
1000.66	228.92
1000.95	228.98
1001.24	228.96
1001.53	228.96
1001.82	228.97
1002.11	228.91
1002.40	228.94
1002.68	228.79
1002.97	228.83
1003.26	228.82
1003.55	228.63
1003.84	228.63
1004.13	228.57
1004.42	228.56
1004.71	228.38
1004.99	228.40
1005.28	228.54
1005.57	228.57
1005.86	228.57
1006.15	228.46
1006.44	228.33
1006.72	228.25
1007.01	228.22
1007.30	228.21
1007.59	228.17
1007.88	228.12
1008.17	228.11
1008.45	227.96
1008.74	227.93
1009.03	227.94
1009.32	227.98
1009.60	228.04
1009.89	228.00
1010.18	227.89
1010.47	227.84
1010.76	227.90
1011.04	227.81
1011.33	227.68
1011.62	227.72
1011.91	227.70
1012.19	227.73
1012.48	227.76
1012.77	227.76
1013.05	227.83
1013.34	227.83
1013.63	227.79
1013.92	227.83
1014.20	227.79
1014.49	227.87
1014.78	227.83
1015.06	227.74
1015.35	227.60
1015.64	227.65
1015.92	227.65
1016.21	227.67
1016.50	227.61
1016.78	227.63
1017.07	227.64
1017.36	227.60
1017.64	227.56
1017.93	227.58
1018.22	227.59
1018.50	227.64
1018.79	227.78
1019.08	227.70
1019.36	227.68
1019.65	227.73
1019.93	227.81
1020.22	227.94
1020.51	228.12
1020.79	228.05
1021.08	227.80
1021.36	227.70
1021.65	229.80
1021.94	228.80
1022.22	226.90
1022.51	227.60
1022.79	230.20
1023.08	229.40
1023.36	231.90
1023.65	226.00
>>>>>End Processed Spectral Data<<<<<
