SpectraSuite Data File
++++++++++++++++++++++++++++++++++++
Date: Fri Feb 01 14:34:45 EST 2013
User: group
Dark Spectrum Present: No
Reference Spectrum Present: No
Number of Sampled Component Spectra: 1
Spectrometers: USB2E7196
Integration Time (usec): 70000 (USB2E7196)
Spectra Averaged: 10 (USB2E7196)
Boxcar Smoothing: 10 (USB2E7196)
Correct for Electrical Dark: No (USB2E7196)
Strobe/Lamp Enabled: No (USB2E7196)
Correct for Detector Non-linearity: No (USB2E7196)
Correct for Stray Light: No (USB2E7196)
Number of Pixels in Processed Spectrum: 2048
>>>>>Begin Processed Spectral Data<<<<<
339.09	0.00
339.48	215.70
339.86	218.90
340.24	218.30
340.63	220.60
341.01	226.40
341.39	223.90
341.78	223.50
342.16	227.40
342.54	226.70
342.93	215.20
343.31	226.09
343.69	226.66
344.07	227.16
344.46	227.64
344.84	228.01
345.22	228.20
345.60	228.40
345.99	228.65
346.37	228.79
346.75	228.86
347.13	228.97
347.52	228.99
347.90	229.09
348.28	229.12
348.66	229.15
349.05	229.10
349.43	229.10
349.81	229.20
350.19	229.19
350.57	229.18
350.96	229.40
351.34	229.50
351.72	229.64
352.10	229.67
352.48	229.71
352.87	229.75
353.25	229.75
353.63	229.86
354.01	229.88
354.39	229.92
354.77	229.95
355.15	230.09
355.54	230.13
355.92	230.13
356.30	230.16
356.68	230.30
357.06	230.35
357.44	230.31
357.82	230.43
358.20	230.43
358.58	230.40
358.97	230.44
359.35	230.50
359.73	230.47
360.11	230.53
360.49	230.51
360.87	230.59
361.25	230.66
361.63	230.72
362.01	230.85
362.39	230.78
362.77	230.90
363.15	230.87
363.53	230.87
363.91	230.95
364.29	231.00
364.67	230.83
365.05	230.73
365.43	230.71
365.81	230.55
366.19	230.73
366.57	230.80
366.95	230.74
367.33	230.62
367.71	230.60
368.09	230.47
368.47	230.51
368.85	230.43
369.23	230.34
369.61	230.20
369.99	230.15
370.37	230.20
370.75	230.25
371.13	230.15
371.51	230.01
371.89	229.93
372.27	229.84
372.65	229.72
373.03	229.62
373.41	229.64
373.78	229.56
374.16	229.27
374.54	229.13
374.92	228.93
375.30	228.81
375.68	228.76
376.06	228.71
376.44	228.61
376.82	228.52
377.19	228.49
377.57	228.44
377.95	228.30
378.33	228.11
378.71	227.81
379.09	227.73
379.47	227.71
379.84	227.62
380.22	227.59
380.60	227.61
380.98	227.67
381.36	227.55
381.73	227.51
382.11	227.51
382.49	227.40
382.87	227.38
383.25	227.34
383.62	227.53
384.00	227.38
384.38	227.34
384.76	227.35
385.13	227.33
385.51	227.26
385.89	227.13
386.27	227.18
386.64	227.28
387.02	227.26
387.40	227.19
387.78	227.11
388.15	227.10
388.53	226.94
388.91	226.88
389.29	226.88
389.66	226.90
390.04	226.90
390.42	226.96
390.79	227.08
391.17	227.14
391.55	226.80
391.92	226.89
392.30	226.97
392.68	226.94
393.05	227.08
393.43	227.13
393.81	227.24
394.18	227.25
394.56	227.28
394.94	227.42
395.31	227.61
395.69	227.84
396.06	227.89
396.44	227.97
396.82	228.00
397.19	228.24
397.57	228.30
397.95	228.37
398.32	228.46
398.70	228.46
399.07	228.68
399.45	228.95
399.82	229.05
400.20	229.20
400.58	229.32
400.95	229.39
401.33	229.61
401.70	229.99
402.08	230.14
402.45	230.22
402.83	230.50
403.20	230.77
403.58	231.03
403.95	231.27
404.33	231.70
404.71	232.07
405.08	232.44
405.46	232.70
405.83	233.16
406.21	233.58
406.58	233.98
406.96	234.29
407.33	234.71
407.70	235.30
408.08	235.89
408.45	236.51
408.83	237.06
409.20	237.57
409.58	238.09
409.95	238.74
410.33	239.50
410.70	240.05
411.08	240.76
411.45	241.54
411.82	242.46
412.20	243.30
412.57	244.37
412.95	245.15
413.32	246.37
413.69	247.44
414.07	248.62
414.44	249.98
414.82	251.40
415.19	252.92
415.56	254.49
415.94	256.23
416.31	258.03
416.68	259.91
417.06	262.07
417.43	263.90
417.81	266.19
418.18	268.63
418.55	271.18
418.93	273.77
419.30	276.46
419.67	279.24
420.04	282.20
420.42	285.35
420.79	288.95
421.16	292.52
421.54	296.20
421.91	300.02
422.28	304.11
422.66	308.20
423.03	312.39
423.40	316.60
423.77	321.00
424.15	325.67
424.52	330.37
424.89	335.52
425.26	340.80
425.64	345.65
426.01	350.79
426.38	356.31
426.75	361.91
427.13	367.70
427.50	373.77
427.87	380.11
428.24	386.38
428.61	392.47
428.99	399.14
429.36	406.46
429.73	413.72
430.10	420.67
430.47	428.00
430.85	435.37
431.22	443.26
431.59	451.53
431.96	459.43
432.33	468.43
432.70	476.99
433.08	486.85
433.45	496.27
433.82	505.88
434.19	516.45
434.56	526.80
434.93	536.50
435.30	546.06
435.68	556.74
436.05	567.41
436.42	577.77
436.79	587.33
437.16	597.54
437.53	608.22
437.90	619.03
438.27	629.51
438.64	640.38
439.01	650.70
439.38	659.88
439.75	668.70
440.13	678.67
440.50	688.11
440.87	696.19
441.24	704.42
441.61	713.22
441.98	719.80
442.35	727.61
442.72	735.82
443.09	744.24
443.46	749.41
443.83	752.93
444.20	756.41
444.57	761.14
444.94	763.80
445.31	766.80
445.68	769.55
446.05	771.51
446.42	771.95
446.79	771.91
447.16	771.79
447.53	772.29
447.90	769.81
448.27	767.42
448.64	762.95
449.01	760.64
449.37	754.91
449.74	749.27
450.11	742.28
450.48	734.25
450.85	725.85
451.22	719.32
451.59	713.13
451.96	707.08
452.33	698.29
452.70	690.66
453.07	680.94
453.43	671.24
453.80	661.72
454.17	652.39
454.54	643.76
454.91	634.36
455.28	624.87
455.65	616.22
456.02	607.01
456.38	599.61
456.75	589.74
457.12	581.85
457.49	574.23
457.86	566.60
458.23	560.34
458.59	553.22
458.96	545.60
459.33	538.90
459.70	532.10
460.07	526.96
460.43	520.71
460.80	514.85
461.17	509.70
461.54	504.47
461.91	499.56
462.27	494.17
462.64	489.75
463.01	484.92
463.38	480.00
463.74	475.57
464.11	471.31
464.48	467.70
464.85	463.74
465.21	460.29
465.58	456.91
465.95	452.75
466.32	449.59
466.68	446.27
467.05	443.11
467.42	439.87
467.78	436.21
468.15	432.87
468.52	430.43
468.88	427.26
469.25	424.34
469.62	421.86
469.98	419.36
470.35	416.98
470.72	414.86
471.08	412.49
471.45	410.35
471.82	408.28
472.18	406.00
472.55	404.40
472.92	402.69
473.28	400.87
473.65	399.25
474.02	397.27
474.38	395.67
474.75	394.30
475.11	392.92
475.48	391.83
475.85	391.04
476.21	390.09
476.58	389.24
476.94	388.52
477.31	387.75
477.67	387.00
478.04	386.42
478.41	385.82
478.77	385.61
479.14	385.02
479.50	384.77
479.87	384.68
480.23	384.51
480.60	384.13
480.96	383.93
481.33	384.04
481.69	384.25
482.06	384.39
482.42	384.30
482.79	384.46
483.15	384.97
483.52	385.44
483.88	385.85
484.25	386.32
484.61	386.89
484.98	387.55
485.34	388.51
485.71	389.47
486.07	390.40
486.44	391.26
486.80	392.60
487.17	393.74
487.53	395.10
487.90	396.48
488.26	398.24
488.62	400.00
488.99	401.81
489.35	403.53
489.72	405.51
490.08	407.68
490.44	409.72
490.81	411.80
491.17	413.90
491.54	416.10
491.90	418.41
492.26	420.98
492.63	423.46
492.99	425.99
493.36	428.51
493.72	431.53
494.08	434.35
494.45	437.36
494.81	440.49
495.17	443.50
495.54	446.60
495.90	449.85
496.26	453.15
496.63	456.50
496.99	460.00
497.35	463.57
497.72	467.13
498.08	470.98
498.44	474.68
498.80	478.64
499.17	482.76
499.53	486.70
499.89	490.60
500.26	494.49
500.62	498.42
500.98	502.63
501.34	506.70
501.71	510.78
502.07	514.65
502.43	518.63
502.79	522.72
503.16	526.88
503.52	530.82
503.88	534.90
504.24	538.95
504.60	543.01
504.97	546.90
505.33	551.03
505.69	555.27
506.05	559.56
506.41	563.31
506.78	566.95
507.14	570.61
507.50	574.42
507.86	578.53
508.22	582.33
508.59	585.95
508.95	589.56
509.31	593.31
509.67	596.98
510.03	600.68
510.39	604.49
510.75	608.08
511.12	611.70
511.48	615.40
511.84	618.89
512.20	622.28
512.56	625.74
512.92	628.95
513.28	631.92
513.64	634.80
514.00	638.00
514.37	641.04
514.73	644.19
515.09	647.08
515.45	649.65
515.81	652.49
516.17	655.39
516.53	657.99
516.89	660.54
517.25	663.08
517.61	665.56
517.97	667.80
518.33	669.74
518.69	671.89
519.05	673.70
519.41	675.83
519.77	678.26
520.13	680.31
520.49	682.28
520.85	684.18
521.21	686.00
521.57	687.93
521.93	689.78
522.29	691.76
522.65	693.47
523.01	695.29
523.37	696.87
523.73	698.47
524.09	700.23
524.45	701.90
524.81	703.68
525.17	705.40
525.53	707.04
525.89	709.04
526.25	710.67
526.61	712.36
526.97	713.89
527.33	715.20
527.68	717.06
528.04	718.64
528.40	720.56
528.76	722.48
529.12	724.40
529.48	726.33
529.84	728.05
530.20	730.02
530.56	732.12
530.91	734.43
531.27	736.43
531.63	738.48
531.99	740.35
532.35	742.30
532.71	744.23
533.07	746.35
533.42	748.54
533.78	750.74
534.14	753.18
534.50	755.34
534.86	757.62
535.21	759.37
535.57	762.10
535.93	764.30
536.29	766.70
536.65	768.84
537.00	771.15
537.36	773.49
537.72	775.99
538.08	778.32
538.44	780.40
538.79	782.60
539.15	784.83
539.51	787.40
539.87	790.20
540.22	792.56
540.58	795.35
540.94	797.81
541.29	800.46
541.65	802.87
542.01	805.59
542.37	808.35
542.72	811.23
543.08	813.73
543.44	816.41
543.79	818.86
544.15	821.64
544.51	824.64
544.87	827.53
545.22	830.09
545.58	832.74
545.94	835.43
546.29	838.15
546.65	841.00
547.01	843.65
547.36	846.23
547.72	849.08
548.07	851.77
548.43	854.18
548.79	856.73
549.14	859.31
549.50	862.07
549.86	864.46
550.21	867.14
550.57	869.70
550.92	872.31
551.28	874.81
551.64	877.39
551.99	879.76
552.35	882.08
552.70	884.92
553.06	887.40
553.41	890.30
553.77	893.30
554.13	896.12
554.48	898.89
554.84	901.43
555.19	904.15
555.55	906.59
555.90	909.50
556.26	912.18
556.61	914.98
556.97	917.08
557.32	919.87
557.68	922.64
558.03	925.45
558.39	927.88
558.74	930.79
559.10	933.45
559.45	936.02
559.81	939.10
560.16	941.36
560.52	944.02
560.87	946.51
561.23	948.73
561.58	951.07
561.94	953.39
562.29	955.60
562.64	957.61
563.00	959.96
563.35	962.32
563.71	965.10
564.06	967.46
564.42	970.08
564.77	972.54
565.12	974.69
565.48	976.78
565.83	978.99
566.19	981.04
566.54	983.00
566.89	984.72
567.25	986.46
567.60	988.88
567.96	990.94
568.31	992.84
568.66	994.43
569.02	995.92
569.37	997.72
569.72	999.40
570.08	1001.32
570.43	1002.67
570.78	1004.13
571.14	1005.04
571.49	1006.10
571.84	1007.60
572.20	1008.10
572.55	1009.24
572.90	1009.95
573.26	1011.11
573.61	1011.87
573.96	1012.60
574.31	1013.23
574.67	1013.59
575.02	1013.67
575.37	1014.01
575.72	1013.86
576.08	1014.19
576.43	1014.28
576.78	1014.60
577.13	1015.01
577.49	1015.25
577.84	1015.25
578.19	1015.06
578.54	1014.91
578.90	1014.63
579.25	1013.69
579.60	1013.50
579.95	1012.97
580.30	1012.65
580.66	1011.92
581.01	1011.14
581.36	1010.78
581.71	1010.34
582.06	1009.52
582.42	1008.63
582.77	1007.57
583.12	1007.02
583.47	1006.32
583.82	1005.88
584.17	1004.54
584.53	1003.39
584.88	1002.22
585.23	1001.17
585.58	999.98
585.93	998.76
586.28	997.82
586.63	997.31
586.98	996.32
587.34	995.07
587.69	993.60
588.04	992.46
588.39	991.43
588.74	989.61
589.09	988.28
589.44	986.76
589.79	985.47
590.14	984.23
590.49	982.70
590.84	980.82
591.19	979.38
591.54	977.48
591.89	975.52
592.25	973.60
592.60	971.45
592.95	969.52
593.30	967.55
593.65	965.33
594.00	962.91
594.35	960.97
594.70	958.43
595.05	956.30
595.40	953.88
595.75	951.52
596.10	949.39
596.45	947.12
596.80	945.25
597.15	943.03
597.50	940.66
597.85	938.30
598.19	936.53
598.54	933.79
598.89	931.74
599.24	929.77
599.59	927.33
599.94	925.27
600.29	922.90
600.64	920.46
600.99	918.07
601.34	916.10
601.69	913.46
602.04	911.33
602.39	908.96
602.74	906.62
603.08	904.38
603.43	902.19
603.78	899.81
604.13	897.26
604.48	894.77
604.83	892.43
605.18	890.25
605.53	887.31
605.87	884.50
606.22	882.03
606.57	879.09
606.92	876.62
607.27	874.14
607.62	871.93
607.96	869.62
608.31	867.20
608.66	863.84
609.01	861.29
609.36	858.37
609.70	855.18
610.05	851.86
610.40	848.81
610.75	845.54
611.10	842.43
611.44	839.17
611.79	836.03
612.14	832.80
612.49	829.15
612.83	825.82
613.18	822.69
613.53	819.39
613.88	816.18
614.22	813.02
614.57	809.52
614.92	805.98
615.27	802.62
615.61	799.14
615.96	796.15
616.31	792.69
616.65	790.04
617.00	787.22
617.35	784.56
617.70	781.19
618.04	777.94
618.39	774.58
618.74	771.51
619.08	768.28
619.43	765.13
619.78	762.18
620.12	759.12
620.47	755.94
620.82	752.62
621.16	749.43
621.51	746.28
621.85	743.65
622.20	740.42
622.55	737.30
622.89	734.26
623.24	731.15
623.59	728.19
623.93	725.01
624.28	722.19
624.62	719.22
624.97	716.48
625.32	713.76
625.66	711.05
626.01	708.04
626.35	705.04
626.70	702.00
627.04	699.35
627.39	696.41
627.73	693.55
628.08	690.70
628.43	687.77
628.77	684.82
629.12	681.45
629.46	678.41
629.81	675.20
630.15	672.24
630.50	669.28
630.84	666.10
631.19	662.91
631.53	659.53
631.88	656.18
632.22	652.87
632.57	649.68
632.91	646.65
633.26	643.67
633.60	640.67
633.95	637.92
634.29	634.66
634.64	632.03
634.98	629.25
635.32	626.49
635.67	623.88
636.01	621.17
636.36	618.35
636.70	615.85
637.05	613.29
637.39	610.61
637.73	608.20
638.08	605.90
638.42	603.38
638.77	600.94
639.11	598.31
639.45	595.86
639.80	593.24
640.14	590.66
640.49	588.07
640.83	585.57
641.17	582.90
641.52	580.35
641.86	577.62
642.20	575.13
642.55	572.66
642.89	569.94
643.23	567.21
643.58	565.08
643.92	562.40
644.26	559.86
644.61	557.45
644.95	554.70
645.29	551.91
645.64	549.06
645.98	546.52
646.32	544.13
646.66	541.64
647.01	539.40
647.35	537.06
647.69	534.81
648.04	532.57
648.38	530.03
648.72	527.60
649.06	525.13
649.41	522.74
649.75	520.18
650.09	517.84
650.43	515.33
650.78	512.57
651.12	510.11
651.46	507.90
651.80	505.62
652.14	503.26
652.49	501.12
652.83	499.00
653.17	496.70
653.51	494.36
653.85	492.20
654.20	489.70
654.54	487.26
654.88	484.71
655.22	482.13
655.56	479.79
655.90	477.37
656.25	475.10
656.59	472.82
656.93	470.68
657.27	468.49
657.61	466.28
657.95	464.19
658.29	462.35
658.64	460.16
658.98	457.80
659.32	455.66
659.66	453.43
660.00	451.32
660.34	449.25
660.68	447.20
661.02	444.91
661.36	442.78
661.70	440.84
662.05	438.97
662.39	437.23
662.73	435.52
663.07	433.84
663.41	432.26
663.75	430.30
664.09	428.49
664.43	426.68
664.77	424.96
665.11	423.27
665.45	421.32
665.79	419.56
666.13	417.86
666.47	416.13
666.81	414.30
667.15	412.51
667.49	410.85
667.83	409.22
668.17	407.51
668.51	405.96
668.85	404.28
669.19	402.84
669.53	401.14
669.87	399.36
670.21	397.99
670.55	396.25
670.89	394.81
671.23	393.41
671.57	391.91
671.91	390.50
672.25	388.90
672.58	387.56
672.92	386.01
673.26	384.63
673.60	383.21
673.94	381.96
674.28	380.71
674.62	379.42
674.96	378.02
675.30	376.79
675.64	375.56
675.97	374.28
676.31	372.90
676.65	371.75
676.99	370.59
677.33	369.00
677.67	367.70
678.01	366.33
678.34	364.98
678.68	363.63
679.02	362.26
679.36	360.96
679.70	359.61
680.04	358.54
680.37	357.28
680.71	356.09
681.05	354.81
681.39	353.55
681.73	352.41
682.06	351.36
682.40	350.25
682.74	349.02
683.08	347.90
683.42	346.70
683.75	345.42
684.09	344.11
684.43	343.13
684.77	341.95
685.10	340.90
685.44	339.75
685.78	338.72
686.12	337.64
686.45	336.56
686.79	335.37
687.13	334.23
687.46	333.09
687.80	332.00
688.14	330.93
688.48	329.95
688.81	328.76
689.15	327.63
689.49	326.54
689.82	325.61
690.16	324.48
690.50	323.40
690.83	322.37
691.17	321.46
691.51	320.38
691.84	319.48
692.18	318.45
692.52	317.40
692.85	316.42
693.19	315.59
693.52	314.66
693.86	313.74
694.20	312.70
694.53	311.90
694.87	310.90
695.21	310.00
695.54	309.04
695.88	308.20
696.21	307.24
696.55	306.28
696.88	305.31
697.22	304.52
697.56	303.84
697.89	302.96
698.23	302.18
698.56	301.39
698.90	300.63
699.23	299.90
699.57	299.08
699.90	298.30
700.24	297.49
700.58	296.80
700.91	296.08
701.25	295.56
701.58	294.81
701.92	294.28
702.25	293.58
702.59	292.92
702.92	292.27
703.26	291.81
703.59	291.27
703.93	290.78
704.26	290.11
704.60	289.34
704.93	288.70
705.26	288.03
705.60	287.54
705.93	287.01
706.27	286.38
706.60	286.08
706.94	285.56
707.27	284.96
707.61	284.33
707.94	283.83
708.27	283.08
708.61	282.60
708.94	282.05
709.28	281.59
709.61	281.03
709.94	280.40
710.28	279.78
710.61	279.18
710.95	278.51
711.28	278.07
711.61	277.57
711.95	277.24
712.28	276.66
712.61	276.07
712.95	275.52
713.28	275.17
713.61	274.46
713.95	273.95
714.28	273.40
714.61	272.90
714.95	272.47
715.28	271.98
715.61	271.45
715.95	271.00
716.28	270.42
716.61	269.87
716.95	269.45
717.28	269.01
717.61	268.65
717.94	268.28
718.28	267.65
718.61	267.23
718.94	266.65
719.27	266.33
719.61	265.98
719.94	265.55
720.27	265.02
720.60	264.71
720.94	264.38
721.27	264.14
721.60	263.85
721.93	263.47
722.27	263.23
722.60	262.87
722.93	262.50
723.26	262.28
723.59	262.09
723.93	261.72
724.26	261.48
724.59	261.18
724.92	260.74
725.25	260.56
725.59	260.31
725.92	260.18
726.25	259.89
726.58	259.41
726.91	259.15
727.24	258.98
727.57	258.53
727.91	258.14
728.24	257.84
728.57	257.49
728.90	257.27
729.23	256.83
729.56	256.54
729.89	256.22
730.22	255.95
730.55	255.64
730.89	255.36
731.22	254.99
731.55	254.74
731.88	254.56
732.21	254.25
732.54	253.91
732.87	253.52
733.20	253.25
733.53	252.94
733.86	252.70
734.19	252.34
734.52	252.19
734.85	252.02
735.18	251.77
735.51	251.58
735.84	251.28
736.17	251.17
736.50	250.88
736.83	250.90
737.16	250.66
737.49	250.41
737.82	250.26
738.15	250.12
738.48	249.87
738.81	249.70
739.14	249.57
739.47	249.30
739.80	249.11
740.13	248.96
740.46	248.86
740.79	248.62
741.12	248.44
741.45	248.26
741.78	248.00
742.11	247.78
742.44	247.51
742.77	247.32
743.10	247.10
743.43	246.86
743.75	246.52
744.08	246.52
744.41	246.30
744.74	246.15
745.07	245.85
745.40	245.68
745.73	245.50
746.06	245.27
746.39	245.23
746.71	245.14
747.04	244.99
747.37	244.90
747.70	244.76
748.03	244.60
748.36	244.48
748.68	244.35
749.01	244.12
749.34	243.88
749.67	243.71
750.00	243.60
750.33	243.58
750.65	243.35
750.98	242.89
751.31	242.72
751.64	242.50
751.97	242.43
752.29	242.28
752.62	242.04
752.95	242.06
753.28	241.91
753.60	241.74
753.93	241.56
754.26	241.46
754.59	241.31
754.91	241.14
755.24	240.96
755.57	240.90
755.90	240.80
756.22	240.80
756.55	240.70
756.88	240.50
757.20	240.33
757.53	240.19
757.86	240.26
758.19	240.17
758.51	240.05
758.84	239.77
759.17	239.65
759.49	239.60
759.82	239.35
760.15	239.12
760.47	238.95
760.80	238.85
761.13	238.71
761.45	238.58
761.78	238.38
762.11	238.16
762.43	238.03
762.76	237.88
763.08	237.73
763.41	237.50
763.74	237.36
764.06	237.23
764.39	237.10
764.71	236.90
765.04	236.81
765.37	236.72
765.69	236.71
766.02	236.58
766.34	236.45
766.67	236.37
767.00	236.39
767.32	236.38
767.65	236.26
767.97	236.07
768.30	235.97
768.62	235.95
768.95	236.03
769.27	235.88
769.60	235.84
769.92	235.78
770.25	235.72
770.57	235.79
770.90	235.68
771.22	235.53
771.55	235.37
771.87	235.24
772.20	235.19
772.52	235.29
772.85	235.36
773.17	235.26
773.50	235.09
773.82	234.98
774.15	234.78
774.47	234.68
774.80	234.69
775.12	234.57
775.45	234.42
775.77	234.18
776.09	234.10
776.42	234.05
776.74	234.01
777.07	233.93
777.39	233.76
777.72	233.71
778.04	233.74
778.36	233.73
778.69	233.73
779.01	233.60
779.33	233.40
779.66	233.26
779.98	233.33
780.31	233.30
780.63	233.26
780.95	233.31
781.28	233.25
781.60	233.10
781.92	233.02
782.25	233.07
782.57	233.07
782.89	233.07
783.22	232.98
783.54	232.84
783.86	232.90
784.19	232.68
784.51	232.75
784.83	232.70
785.16	232.72
785.48	232.64
785.80	232.66
786.12	232.60
786.45	232.60
786.77	232.43
787.09	232.44
787.42	232.37
787.74	232.29
788.06	232.30
788.38	232.31
788.71	232.29
789.03	232.25
789.35	232.24
789.67	232.15
789.99	232.10
790.32	232.04
790.64	232.00
790.96	232.23
791.28	232.02
791.61	231.90
791.93	231.91
792.25	231.90
792.57	231.97
792.89	231.83
793.21	231.81
793.54	231.73
793.86	231.82
794.18	231.81
794.50	231.82
794.82	231.72
795.14	231.75
795.47	231.77
795.79	231.73
796.11	231.69
796.43	231.80
796.75	231.81
797.07	231.89
797.39	231.83
797.71	231.68
798.04	231.78
798.36	231.79
798.68	231.65
799.00	231.73
799.32	231.70
799.64	231.80
799.96	231.60
800.28	231.65
800.60	231.48
800.92	231.40
801.24	231.33
801.56	231.31
801.89	231.16
802.21	231.20
802.53	231.12
802.85	231.14
803.17	231.15
803.49	231.16
803.81	231.10
804.13	231.05
804.45	230.99
804.77	230.93
805.09	230.91
805.41	230.87
805.73	230.81
806.05	230.69
806.37	230.68
806.69	230.74
807.01	230.67
807.33	230.69
807.65	230.64
807.97	230.70
808.28	230.61
808.60	230.67
808.92	230.52
809.24	230.67
809.56	230.61
809.88	230.40
810.20	230.37
810.52	230.52
810.84	230.49
811.16	230.50
811.48	230.51
811.80	230.62
812.12	230.61
812.43	230.57
812.75	230.53
813.07	230.53
813.39	230.60
813.71	230.46
814.03	230.38
814.35	230.41
814.67	230.24
814.98	230.27
815.30	230.41
815.62	230.41
815.94	230.28
816.26	230.39
816.58	230.32
816.89	230.29
817.21	230.17
817.53	230.15
817.85	230.21
818.17	230.10
818.48	230.00
818.80	230.06
819.12	230.06
819.44	229.99
819.76	229.83
820.07	229.75
820.39	229.77
820.71	229.79
821.03	229.70
821.34	229.79
821.66	229.82
821.98	229.70
822.30	229.66
822.61	229.68
822.93	229.57
823.25	229.56
823.57	229.59
823.88	229.63
824.20	229.58
824.52	229.53
824.83	229.50
825.15	229.38
825.47	229.37
825.79	229.38
826.10	229.43
826.42	229.45
826.74	229.41
827.05	229.47
827.37	229.48
827.69	229.53
828.00	229.46
828.32	229.34
828.64	229.18
828.95	229.22
829.27	229.20
829.58	229.17
829.90	229.25
830.22	229.20
830.53	229.04
830.85	229.11
831.17	229.08
831.48	229.07
831.80	229.15
832.11	229.10
832.43	229.00
832.75	228.99
833.06	229.07
833.38	229.00
833.69	228.97
834.01	228.91
834.32	228.88
834.64	228.90
834.96	228.96
835.27	229.10
835.59	229.18
835.90	229.13
836.22	229.16
836.53	229.09
836.85	229.15
837.16	229.43
837.48	229.46
837.79	229.57
838.11	229.61
838.42	229.57
838.74	229.54
839.05	229.55
839.37	229.50
839.68	229.40
840.00	229.40
840.31	229.40
840.63	229.41
840.94	229.37
841.26	229.29
841.57	229.31
841.88	229.36
842.20	229.17
842.51	229.25
842.83	229.24
843.14	229.41
843.46	229.30
843.77	228.96
844.08	228.90
844.40	228.67
844.71	228.61
845.03	228.49
845.34	228.42
845.65	228.47
845.97	228.52
846.28	228.50
846.60	228.42
846.91	228.42
847.22	228.36
847.54	228.33
847.85	228.38
848.16	228.34
848.48	228.24
848.79	228.36
849.10	228.23
849.42	228.18
849.73	227.96
850.04	227.96
850.36	228.02
850.67	228.12
850.98	228.19
851.30	228.20
851.61	228.27
851.92	228.29
852.23	228.21
852.55	228.15
852.86	228.10
853.17	228.17
853.49	228.21
853.80	228.21
854.11	228.30
854.42	228.32
854.74	228.38
855.05	228.34
855.36	228.21
855.67	228.22
855.99	228.16
856.30	228.40
856.61	228.40
856.92	228.40
857.23	228.22
857.55	228.15
857.86	228.21
858.17	228.27
858.48	228.25
858.79	228.29
859.11	228.31
859.42	228.43
859.73	228.55
860.04	228.58
860.35	228.58
860.66	228.54
860.98	228.63
861.29	228.56
861.60	228.56
861.91	228.57
862.22	228.49
862.53	228.57
862.84	228.40
863.16	228.57
863.47	228.59
863.78	228.61
864.09	228.68
864.40	228.61
864.71	228.60
865.02	228.64
865.33	228.60
865.64	228.61
865.95	228.57
866.27	228.62
866.58	228.60
866.89	228.67
867.20	228.64
867.51	228.53
867.82	228.41
868.13	228.41
868.44	228.43
868.75	228.57
869.06	228.50
869.37	228.47
869.68	228.23
869.99	228.35
870.30	228.42
870.61	228.40
870.92	228.40
871.23	228.34
871.54	228.39
871.85	228.46
872.16	228.49
872.47	228.41
872.78	228.25
873.09	228.21
873.40	228.19
873.71	228.17
874.02	228.15
874.33	228.30
874.64	228.36
874.95	228.44
875.26	228.51
875.56	228.59
875.87	228.62
876.18	228.70
876.49	228.71
876.80	228.69
877.11	228.73
877.42	228.83
877.73	228.94
878.04	228.89
878.35	228.87
878.66	228.78
878.96	228.85
879.27	228.90
879.58	228.87
879.89	228.91
880.20	229.00
880.51	229.07
880.82	229.02
881.12	229.02
881.43	228.96
881.74	228.88
882.05	228.84
882.36	228.86
882.67	228.82
882.97	228.69
883.28	228.56
883.59	228.59
883.90	228.52
884.21	228.45
884.51	228.44
884.82	228.39
885.13	228.42
885.44	228.43
885.74	228.44
886.05	228.49
886.36	228.43
886.67	228.38
886.98	228.45
887.28	228.42
887.59	228.47
887.90	228.50
888.20	228.47
888.51	228.54
888.82	228.50
889.13	228.51
889.43	228.70
889.74	228.81
890.05	228.75
890.35	228.68
890.66	228.60
890.97	228.71
891.28	228.72
891.58	228.72
891.89	228.74
892.20	228.59
892.50	228.57
892.81	228.59
893.12	228.59
893.42	228.52
893.73	228.52
894.04	228.35
894.34	228.40
894.65	228.34
894.95	228.34
895.26	228.34
895.57	228.35
895.87	228.10
896.18	228.07
896.48	228.12
896.79	228.11
897.10	228.21
897.40	228.07
897.71	228.10
898.01	228.10
898.32	228.16
898.63	228.23
898.93	228.22
899.24	228.13
899.54	228.11
899.85	228.05
900.15	228.05
900.46	228.20
900.76	228.15
901.07	228.18
901.38	228.12
901.68	228.17
901.99	228.15
902.29	228.18
902.60	228.29
902.90	228.30
903.21	228.31
903.51	228.35
903.82	228.44
904.12	228.54
904.43	228.54
904.73	228.55
905.03	228.56
905.34	228.76
905.64	228.72
905.95	228.73
906.25	228.77
906.56	228.84
906.86	228.63
907.17	228.59
907.47	228.61
907.77	228.62
908.08	228.59
908.38	228.61
908.69	228.65
908.99	228.67
909.30	228.61
909.60	228.66
909.90	228.62
910.21	228.60
910.51	228.41
910.81	228.30
911.12	228.27
911.42	228.27
911.73	228.07
912.03	228.20
912.33	228.25
912.64	228.24
912.94	228.13
913.24	228.25
913.55	228.24
913.85	228.21
914.15	228.16
914.46	228.19
914.76	228.20
915.06	228.23
915.37	228.05
915.67	228.05
915.97	228.06
916.27	228.01
916.58	228.12
916.88	228.20
917.18	228.39
917.49	228.50
917.79	228.48
918.09	228.53
918.39	228.51
918.70	228.41
919.00	228.33
919.30	228.47
919.60	228.46
919.91	228.58
920.21	228.53
920.51	228.63
920.81	228.60
921.12	228.64
921.42	228.55
921.72	228.64
922.02	228.68
922.32	228.73
922.63	228.79
922.93	228.78
923.23	228.71
923.53	228.60
923.83	228.30
924.13	228.42
924.44	228.36
924.74	228.40
925.04	228.55
925.34	228.53
925.64	228.48
925.94	228.45
926.24	228.45
926.55	228.46
926.85	228.33
927.15	228.30
927.45	228.24
927.75	228.15
928.05	228.22
928.35	228.18
928.65	228.18
928.95	228.03
929.26	227.87
929.56	227.89
929.86	227.89
930.16	228.03
930.46	227.99
930.76	228.05
931.06	227.88
931.36	227.69
931.66	227.88
931.96	227.85
932.26	227.93
932.56	227.93
932.86	227.92
933.16	228.08
933.46	228.08
933.76	228.07
934.06	228.27
934.36	228.20
934.66	228.18
934.96	228.10
935.26	228.27
935.56	228.35
935.86	228.39
936.16	228.42
936.46	228.38
936.76	228.26
937.06	228.22
937.36	228.36
937.66	228.52
937.96	228.39
938.26	228.32
938.56	228.33
938.86	228.30
939.16	228.35
939.46	228.32
939.76	228.33
940.06	228.33
940.35	228.25
940.65	228.21
940.95	228.24
941.25	228.18
941.55	228.06
941.85	228.06
942.15	228.05
942.45	228.12
942.75	228.07
943.04	228.14
943.34	228.13
943.64	228.10
943.94	227.96
944.24	228.13
944.54	228.23
944.84	228.14
945.13	228.15
945.43	228.10
945.73	228.13
946.03	228.22
946.33	228.20
946.62	228.25
946.92	228.41
947.22	228.49
947.52	228.56
947.82	228.65
948.11	228.63
948.41	228.62
948.71	228.61
949.01	228.66
949.31	228.70
949.60	228.76
949.90	228.77
950.20	228.83
950.50	228.66
950.79	228.58
951.09	228.64
951.39	228.66
951.69	228.82
951.98	228.89
952.28	228.73
952.58	228.76
952.87	228.83
953.17	228.78
953.47	228.70
953.76	228.79
954.06	228.71
954.36	228.72
954.66	228.79
954.95	228.83
955.25	228.97
955.55	229.01
955.84	229.05
956.14	229.09
956.44	229.01
956.73	228.98
957.03	229.08
957.32	229.07
957.62	229.07
957.92	229.04
958.21	229.04
958.51	229.31
958.81	229.33
959.10	229.28
959.40	229.23
959.69	229.29
959.99	229.24
960.29	229.23
960.58	229.23
960.88	229.20
961.17	229.16
961.47	229.14
961.76	229.03
962.06	229.03
962.36	229.02
962.65	229.16
962.95	229.14
963.24	229.10
963.54	229.03
963.83	229.03
964.13	228.94
964.42	228.80
964.72	228.65
965.01	228.60
965.31	228.49
965.60	228.37
965.90	228.38
966.19	228.36
966.49	228.38
966.78	228.32
967.08	228.25
967.37	228.19
967.67	228.00
967.96	227.98
968.26	227.89
968.55	227.97
968.85	227.90
969.14	227.97
969.43	227.89
969.73	227.80
970.02	227.67
970.32	227.60
970.61	227.51
970.91	227.43
971.20	227.39
971.49	227.43
971.79	227.54
972.08	227.51
972.38	227.46
972.67	227.43
972.96	227.47
973.26	227.46
973.55	227.52
973.85	227.56
974.14	227.63
974.43	227.68
974.73	227.47
975.02	227.52
975.31	227.60
975.61	227.61
975.90	227.69
976.19	227.76
976.49	227.79
976.78	227.84
977.07	227.90
977.37	227.97
977.66	227.92
977.95	227.97
978.24	227.94
978.54	227.96
978.83	227.92
979.12	227.90
979.42	227.94
979.71	227.90
980.00	227.93
980.29	227.93
980.59	227.84
980.88	227.97
981.17	227.90
981.46	227.85
981.76	227.88
982.05	228.00
982.34	228.04
982.63	228.09
982.93	228.18
983.22	228.31
983.51	228.31
983.80	228.37
984.09	228.30
984.39	228.29
984.68	228.29
984.97	228.41
985.26	228.44
985.55	228.53
985.85	228.66
986.14	228.64
986.43	228.65
986.72	228.68
987.01	228.67
987.30	228.80
987.59	228.85
987.89	228.94
988.18	228.80
988.47	228.73
988.76	228.77
989.05	228.64
989.34	228.57
989.63	228.63
989.92	228.74
990.22	228.79
990.51	228.80
990.80	228.80
991.09	228.70
991.38	228.79
991.67	228.64
991.96	228.50
992.25	228.52
992.54	228.54
992.83	228.56
993.12	228.57
993.41	228.52
993.70	228.54
993.99	228.53
994.28	228.59
994.58	228.67
994.87	228.67
995.16	228.81
995.45	228.72
995.74	228.64
996.03	228.61
996.32	228.58
996.61	228.57
996.90	228.61
997.19	228.69
997.48	228.65
997.77	228.65
998.06	228.70
998.34	228.74
998.63	228.64
998.92	228.63
999.21	228.60
999.50	228.57
999.79	228.49
1000.08	228.50
1000.37	228.56
1000.66	228.37
1000.95	228.32
1001.24	228.21
1001.53	228.19
1001.82	228.08
1002.11	228.04
1002.40	228.01
1002.68	228.08
1002.97	228.17
1003.26	228.10
1003.55	228.05
1003.84	228.04
1004.13	228.05
1004.42	228.01
1004.71	228.00
1004.99	227.98
1005.28	227.99
1005.57	227.93
1005.86	227.90
1006.15	227.81
1006.44	227.70
1006.72	227.76
1007.01	227.72
1007.30	227.71
1007.59	227.71
1007.88	227.70
1008.17	227.63
1008.45	227.64
1008.74	227.57
1009.03	227.49
1009.32	227.53
1009.60	227.50
1009.89	227.44
1010.18	227.42
1010.47	227.42
1010.76	227.42
1011.04	227.38
1011.33	227.34
1011.62	227.39
1011.91	227.40
1012.19	227.43
1012.48	227.50
1012.77	227.58
1013.05	227.60
1013.34	227.61
1013.63	227.60
1013.92	227.69
1014.20	227.68
1014.49	227.62
1014.78	227.67
1015.06	227.60
1015.35	227.62
1015.64	227.67
1015.92	227.92
1016.21	227.82
1016.50	227.79
1016.78	227.84
1017.07	227.95
1017.36	228.00
1017.64	227.84
1017.93	227.88
1018.22	227.87
1018.50	228.00
1018.79	228.03
1019.08	228.09
1019.36	228.21
1019.65	228.35
1019.93	228.33
1020.22	228.40
1020.51	228.53
1020.79	228.44
1021.08	228.30
1021.36	230.50
1021.65	229.30
1021.94	228.80
1022.22	229.40
1022.51	230.10
1022.79	227.20
1023.08	228.30
1023.36	229.80
1023.65	227.20
>>>>>End Processed Spectral Data<<<<<
