SpectraSuite Data File
++++++++++++++++++++++++++++++++++++
Date: Fri Feb 01 14:38:00 EST 2013
User: group
Dark Spectrum Present: No
Reference Spectrum Present: No
Number of Sampled Component Spectra: 1
Spectrometers: USB2E7196
Integration Time (usec): 70000 (USB2E7196)
Spectra Averaged: 10 (USB2E7196)
Boxcar Smoothing: 10 (USB2E7196)
Correct for Electrical Dark: No (USB2E7196)
Strobe/Lamp Enabled: No (USB2E7196)
Correct for Detector Non-linearity: No (USB2E7196)
Correct for Stray Light: No (USB2E7196)
Number of Pixels in Processed Spectrum: 2048
>>>>>Begin Processed Spectral Data<<<<<
339.09	0.00
339.48	215.80
339.86	217.30
340.24	219.80
340.63	220.50
341.01	225.40
341.39	223.60
341.78	225.70
342.16	225.10
342.54	225.70
342.93	214.92
343.31	225.73
343.69	226.30
344.07	226.79
344.46	227.17
344.84	227.49
345.22	227.55
345.60	227.71
345.99	227.83
346.37	228.01
346.75	228.07
347.13	228.14
347.52	228.14
347.90	228.23
348.28	228.32
348.66	228.40
349.05	228.34
349.43	228.38
349.81	228.41
350.19	228.39
350.57	228.33
350.96	228.40
351.34	228.54
351.72	228.64
352.10	228.79
352.48	228.89
352.87	228.95
353.25	229.05
353.63	229.10
354.01	229.13
354.39	229.10
354.77	229.19
355.15	229.30
355.54	229.34
355.92	229.31
356.30	229.39
356.68	229.50
357.06	229.56
357.44	229.43
357.82	229.50
358.20	229.49
358.58	229.57
358.97	229.54
359.35	229.52
359.73	229.50
360.11	229.49
360.49	229.62
360.87	229.67
361.25	229.69
361.63	229.70
362.01	229.68
362.39	229.75
362.77	229.88
363.15	229.78
363.53	229.81
363.91	229.73
364.29	229.63
364.67	229.50
365.05	229.49
365.43	229.62
365.81	229.68
366.19	229.80
366.57	229.85
366.95	229.75
367.33	229.71
367.71	229.75
368.09	229.83
368.47	229.69
368.85	229.78
369.23	229.81
369.61	229.88
369.99	229.98
370.37	230.05
370.75	229.95
371.13	229.88
371.51	229.76
371.89	229.87
372.27	229.83
372.65	229.76
373.03	229.72
373.41	229.63
373.78	229.37
374.16	229.17
374.54	229.03
374.92	229.08
375.30	229.03
375.68	228.89
376.06	228.68
376.44	228.62
376.82	228.44
377.19	228.31
377.57	228.25
377.95	228.12
378.33	227.94
378.71	227.74
379.09	227.68
379.47	227.72
379.84	227.67
380.22	227.60
380.60	227.53
380.98	227.42
381.36	227.37
381.73	227.38
382.11	227.35
382.49	227.31
382.87	227.19
383.25	227.15
383.62	227.25
384.00	227.15
384.38	227.12
384.76	227.11
385.13	227.20
385.51	227.10
385.89	226.89
386.27	226.86
386.64	226.90
387.02	226.90
387.40	226.76
387.78	226.65
388.15	226.60
388.53	226.53
388.91	226.46
389.29	226.38
389.66	226.35
390.04	226.40
390.42	226.40
390.79	226.35
391.17	226.30
391.55	226.17
391.92	226.12
392.30	226.03
392.68	225.97
393.05	225.97
393.43	226.00
393.81	226.19
394.18	226.10
394.56	226.14
394.94	226.15
395.31	226.20
395.69	226.18
396.06	226.25
396.44	226.38
396.82	226.49
397.19	226.65
397.57	226.72
397.95	226.82
398.32	226.86
398.70	226.94
399.07	227.04
399.45	226.98
399.82	227.12
400.20	227.22
400.58	227.40
400.95	227.41
401.33	227.52
401.70	227.68
402.08	227.86
402.45	227.99
402.83	228.18
403.20	228.39
403.58	228.59
403.95	228.86
404.33	229.02
404.71	229.15
405.08	229.53
405.46	229.81
405.83	229.99
406.21	230.17
406.58	230.44
406.96	230.70
407.33	231.09
407.70	231.36
408.08	231.74
408.45	232.04
408.83	232.37
409.20	232.63
409.58	232.89
409.95	233.30
410.33	233.64
410.70	233.97
411.08	234.28
411.45	234.76
411.82	235.04
412.20	235.48
412.57	236.16
412.95	236.44
413.32	236.94
413.69	237.43
414.07	238.07
414.44	238.69
414.82	239.33
415.19	240.12
415.56	240.87
415.94	241.55
416.31	242.37
416.68	243.19
417.06	244.23
417.43	245.11
417.81	246.15
418.18	247.17
418.55	248.25
418.93	249.49
419.30	250.67
419.67	252.08
420.04	253.50
420.42	254.81
420.79	256.50
421.16	258.11
421.54	259.84
421.91	261.46
422.28	263.37
422.66	265.26
423.03	267.22
423.40	269.13
423.77	271.27
424.15	273.48
424.52	275.71
424.89	278.02
425.26	280.50
425.64	282.78
426.01	285.30
426.38	287.89
426.75	290.49
427.13	293.16
427.50	295.82
427.87	298.73
428.24	301.54
428.61	304.22
428.99	307.18
429.36	310.43
429.73	313.75
430.10	316.83
430.47	320.09
430.85	323.47
431.22	327.00
431.59	330.86
431.96	334.33
432.33	338.29
432.70	342.16
433.08	346.61
433.45	350.69
433.82	354.80
434.19	359.44
434.56	364.01
434.93	368.33
435.30	372.79
435.68	377.61
436.05	382.42
436.42	387.02
436.79	391.40
437.16	395.87
437.53	400.75
437.90	405.52
438.27	410.27
438.64	415.11
439.01	419.70
439.38	423.50
439.75	427.28
440.13	431.77
440.50	436.10
440.87	439.73
441.24	443.43
441.61	447.52
441.98	450.42
442.35	453.81
442.72	457.36
443.09	460.67
443.46	462.67
443.83	464.10
444.20	465.41
444.57	467.36
444.94	468.41
445.31	469.54
445.68	470.90
446.05	471.60
446.42	471.30
446.79	471.12
447.16	470.99
447.53	471.18
447.90	469.77
448.27	468.35
448.64	466.05
449.01	464.64
449.37	461.80
449.74	459.17
450.11	456.03
450.48	452.36
450.85	448.69
451.22	445.68
451.59	442.69
451.96	439.88
452.33	435.78
452.70	432.14
453.07	427.74
453.43	423.10
453.80	418.83
454.17	414.86
454.54	411.03
454.91	406.80
455.28	402.51
455.65	398.44
456.02	394.44
456.38	391.01
456.75	386.79
457.12	383.19
457.49	379.70
457.86	376.07
458.23	373.07
458.59	369.80
458.96	366.38
459.33	363.40
459.70	360.53
460.07	358.14
460.43	355.55
460.80	352.82
461.17	350.41
461.54	347.90
461.91	345.41
462.27	342.91
462.64	340.70
463.01	338.32
463.38	336.20
463.74	333.85
464.11	331.99
464.48	330.30
464.85	328.38
465.21	326.88
465.58	325.46
465.95	323.68
466.32	322.17
466.68	320.54
467.05	319.00
467.42	317.31
467.78	315.60
468.15	314.05
468.52	312.89
468.88	311.49
469.25	310.13
469.62	309.02
469.98	307.77
470.35	306.77
470.72	305.76
471.08	304.62
471.45	303.70
471.82	302.66
472.18	301.50
472.55	300.72
472.92	299.70
473.28	298.64
473.65	297.67
474.02	296.60
474.38	295.86
474.75	295.19
475.11	294.50
475.48	294.08
475.85	293.52
476.21	292.99
476.58	292.47
476.94	291.96
477.31	291.42
477.67	290.98
478.04	290.48
478.41	290.12
478.77	289.96
479.14	289.48
479.50	289.00
479.87	288.70
480.23	288.50
480.60	288.17
480.96	287.93
481.33	287.86
481.69	287.83
482.06	287.60
482.42	287.36
482.79	287.20
483.15	287.06
483.52	286.92
483.88	286.70
484.25	286.55
484.61	286.63
484.98	286.65
485.34	286.85
485.71	286.94
486.07	287.08
486.44	287.05
486.80	287.29
487.17	287.48
487.53	287.80
487.90	287.89
488.26	288.26
488.62	288.55
488.99	288.70
489.35	288.90
489.72	289.10
490.08	289.31
490.44	289.57
490.81	289.87
491.17	290.21
491.54	290.65
491.90	291.10
492.26	291.42
492.63	291.81
492.99	292.07
493.36	292.55
493.72	292.86
494.08	293.34
494.45	293.64
494.81	294.17
495.17	294.49
495.54	295.00
495.90	295.43
496.26	295.98
496.63	296.52
496.99	297.10
497.35	297.76
497.72	298.42
498.08	299.00
498.44	299.45
498.80	300.07
499.17	300.56
499.53	300.89
499.89	301.30
500.26	301.77
500.62	302.25
500.98	302.68
501.34	303.13
501.71	303.49
502.07	303.95
502.43	304.45
502.79	304.85
503.16	305.20
503.52	305.47
503.88	305.71
504.24	306.10
504.60	306.35
504.97	306.61
505.33	306.88
505.69	307.16
506.05	307.52
506.41	307.56
506.78	307.83
507.14	308.01
507.50	308.10
507.86	308.23
508.22	308.30
508.59	308.47
508.95	308.68
509.31	308.93
509.67	309.15
510.03	309.13
510.39	309.39
510.75	309.59
511.12	309.71
511.48	309.92
511.84	309.92
512.20	310.13
512.56	310.31
512.92	310.45
513.28	310.59
513.64	310.74
514.00	311.04
514.37	311.33
514.73	311.77
515.09	312.35
515.45	312.74
515.81	313.16
516.17	313.52
516.53	313.96
516.89	314.34
517.25	314.81
517.61	315.50
517.97	316.01
518.33	316.66
518.69	317.39
519.05	318.17
519.41	319.11
519.77	320.17
520.13	321.10
520.49	322.13
520.85	323.33
521.21	324.52
521.57	325.74
521.93	326.87
522.29	328.18
522.65	329.43
523.01	330.80
523.37	332.15
523.73	333.74
524.09	335.43
524.45	337.15
524.81	339.05
525.17	340.91
525.53	342.93
525.89	345.02
526.25	347.12
526.61	349.22
526.97	351.51
527.33	353.79
527.68	356.33
528.04	358.83
528.40	361.41
528.76	364.17
529.12	366.78
529.48	369.71
529.84	372.65
530.20	375.74
530.56	378.86
530.91	382.32
531.27	385.55
531.63	388.86
531.99	392.18
532.35	395.51
532.71	399.06
533.07	402.54
533.42	406.34
533.78	410.31
534.14	414.19
534.50	417.99
534.86	421.85
535.21	425.70
535.57	429.78
535.93	433.95
536.29	438.24
536.65	442.73
537.00	446.96
537.36	451.38
537.72	455.75
538.08	460.47
538.44	465.00
538.79	469.73
539.15	474.34
539.51	479.24
539.87	484.23
540.22	489.00
540.58	494.08
540.94	498.76
541.29	503.47
541.65	508.33
542.01	513.71
542.37	519.00
542.72	524.21
543.08	529.42
543.44	534.49
543.79	539.31
544.15	544.45
544.51	549.72
544.87	555.22
545.22	560.51
545.58	565.43
545.94	570.56
546.29	575.91
546.65	581.29
547.01	586.62
547.36	591.67
547.72	596.86
548.07	602.10
548.43	607.42
548.79	612.73
549.14	617.96
549.50	622.78
549.86	627.85
550.21	633.10
550.57	638.42
550.92	643.54
551.28	648.87
551.64	653.85
551.99	659.20
552.35	664.23
552.70	669.44
553.06	674.92
553.41	680.11
553.77	684.98
554.13	690.26
554.48	695.45
554.84	700.71
555.19	705.95
555.55	711.10
555.90	715.90
556.26	721.01
556.61	726.26
556.97	731.33
557.32	736.21
557.68	740.96
558.03	745.65
558.39	750.74
558.74	755.69
559.10	760.77
559.45	765.57
559.81	770.52
560.16	775.05
560.52	779.68
560.87	784.69
561.23	789.46
561.58	793.98
561.94	798.56
562.29	802.87
562.64	807.23
563.00	811.40
563.35	816.22
563.71	820.77
564.06	825.06
564.42	829.39
564.77	833.76
565.12	838.20
565.48	842.74
565.83	846.72
566.19	850.94
566.54	855.02
566.89	858.88
567.25	862.56
567.60	866.66
567.96	870.51
568.31	873.82
568.66	877.28
569.02	880.80
569.37	884.07
569.72	887.59
570.08	890.89
570.43	894.17
570.78	897.41
571.14	900.13
571.49	902.96
571.84	906.03
572.20	908.93
572.55	911.65
572.90	913.97
573.26	916.67
573.61	918.80
573.96	920.84
574.31	922.84
574.67	924.63
575.02	926.41
575.37	928.40
575.72	930.39
576.08	932.27
576.43	934.00
576.78	935.59
577.13	937.58
577.49	938.88
577.84	940.81
578.19	942.10
578.54	943.64
578.90	945.01
579.25	945.79
579.60	946.89
579.95	947.79
580.30	948.95
580.66	949.68
581.01	950.36
581.36	951.58
581.71	952.65
582.06	953.62
582.42	954.16
582.77	954.60
583.12	954.90
583.47	955.42
583.82	956.12
584.17	956.63
584.53	956.79
584.88	957.34
585.23	957.19
585.58	957.20
585.93	957.39
586.28	957.54
586.63	958.26
586.98	958.20
587.34	958.52
587.69	958.61
588.04	958.87
588.39	959.06
588.74	958.42
589.09	958.23
589.44	957.52
589.79	957.28
590.14	957.21
590.49	956.76
590.84	956.25
591.19	955.61
591.54	954.59
591.89	953.41
592.25	953.06
592.60	952.12
592.95	951.13
593.30	950.01
593.65	948.76
594.00	947.13
594.35	946.49
594.70	944.90
595.05	943.57
595.40	941.90
595.75	940.28
596.10	939.12
596.45	937.91
596.80	937.29
597.15	936.27
597.50	934.76
597.85	933.68
598.19	932.47
598.54	931.13
598.89	930.07
599.24	929.42
599.59	927.75
599.94	926.50
600.29	925.22
600.64	923.96
600.99	922.51
601.34	921.20
601.69	918.82
602.04	917.35
602.39	915.85
602.74	914.75
603.08	913.72
603.43	912.42
603.78	910.68
604.13	908.90
604.48	907.02
604.83	905.32
605.18	903.60
605.53	901.61
605.87	899.41
606.22	897.50
606.57	894.88
606.92	892.90
607.27	891.10
607.62	889.38
607.96	887.23
608.31	885.55
608.66	883.26
609.01	881.36
609.36	878.80
609.70	875.86
610.05	873.08
610.40	870.68
610.75	868.06
611.10	865.33
611.44	862.21
611.79	860.04
612.14	857.42
612.49	854.42
612.83	851.78
613.18	848.99
613.53	846.27
613.88	843.70
614.22	840.79
614.57	837.58
614.92	834.50
615.27	831.72
615.61	828.61
615.96	825.79
616.31	823.23
616.65	821.02
617.00	818.81
617.35	815.99
617.70	812.62
618.04	809.69
618.39	806.89
618.74	804.38
619.08	801.09
619.43	798.11
619.78	795.65
620.12	792.93
620.47	790.21
620.82	787.38
621.16	784.53
621.51	781.81
621.85	779.01
622.20	776.02
622.55	773.21
622.89	770.49
623.24	768.14
623.59	765.17
623.93	762.43
624.28	759.43
624.62	756.74
624.97	754.39
625.32	751.50
625.66	748.96
626.01	746.29
626.35	743.72
626.70	740.96
627.04	738.12
627.39	735.16
627.73	732.37
628.08	729.52
628.43	726.69
628.77	724.09
629.12	721.23
629.46	718.49
629.81	715.37
630.15	712.21
630.50	708.98
630.84	706.07
631.19	702.75
631.53	699.83
631.88	696.60
632.22	693.24
632.57	690.66
632.91	687.42
633.26	684.28
633.60	681.12
633.95	678.20
634.29	675.24
634.64	672.51
634.98	669.50
635.32	666.70
635.67	664.03
636.01	661.07
636.36	658.35
636.70	655.44
637.05	652.97
637.39	650.49
637.73	647.85
638.08	645.28
638.42	642.80
638.77	640.13
639.11	637.47
639.45	634.96
639.80	632.11
640.14	629.51
640.49	627.13
640.83	624.58
641.17	622.01
641.52	619.21
641.86	616.43
642.20	613.93
642.55	611.41
642.89	608.60
643.23	605.79
643.58	603.42
643.92	600.87
644.26	598.21
644.61	595.78
644.95	593.05
645.29	589.96
645.64	587.23
645.98	584.42
646.32	582.19
646.66	579.66
647.01	576.85
647.35	574.37
647.69	571.53
648.04	568.90
648.38	566.22
648.72	563.57
649.06	560.75
649.41	558.05
649.75	555.20
650.09	552.52
650.43	549.89
650.78	546.74
651.12	543.97
651.46	541.11
651.80	538.32
652.14	535.85
652.49	533.55
652.83	530.90
653.17	528.30
653.51	525.44
653.85	522.66
654.20	520.16
654.54	517.40
654.88	514.80
655.22	512.11
655.56	509.45
655.90	506.94
656.25	504.54
656.59	502.00
656.93	499.53
657.27	497.26
657.61	494.61
657.95	492.38
658.29	490.17
658.64	487.69
658.98	485.13
659.32	482.51
659.66	480.01
660.00	477.54
660.34	475.18
660.68	472.92
661.02	470.55
661.36	468.28
661.70	466.11
662.05	464.00
662.39	462.05
662.73	459.90
663.07	457.78
663.41	455.70
663.75	453.54
664.09	451.59
664.43	449.50
664.77	447.61
665.11	445.71
665.45	443.53
665.79	441.76
666.13	439.84
666.47	437.87
666.81	435.98
667.15	434.02
667.49	432.20
667.83	430.30
668.17	428.44
668.51	426.58
668.85	424.72
669.19	422.82
669.53	420.77
669.87	418.84
670.21	417.13
670.55	415.53
670.89	414.02
671.23	412.22
671.57	410.52
671.91	408.79
672.25	407.01
672.58	405.48
672.92	403.63
673.26	402.05
673.60	400.60
673.94	399.04
674.28	397.70
674.62	396.22
674.96	394.75
675.30	393.43
675.64	392.03
675.97	390.52
676.31	389.03
676.65	387.57
676.99	386.22
677.33	384.73
677.67	383.08
678.01	381.55
678.34	380.15
678.68	378.69
679.02	377.29
679.36	375.87
679.70	374.58
680.04	373.40
680.37	371.88
680.71	370.43
681.05	369.12
681.39	367.84
681.73	366.54
682.06	365.30
682.40	364.08
682.74	362.70
683.08	361.46
683.42	360.16
683.75	358.91
684.09	357.65
684.43	356.46
684.77	355.21
685.10	353.89
685.44	352.49
685.78	351.27
686.12	350.06
686.45	348.92
686.79	347.52
687.13	346.38
687.46	345.36
687.80	344.25
688.14	342.97
688.48	341.62
688.81	340.41
689.15	339.30
689.49	338.04
689.82	336.97
690.16	335.70
690.50	334.63
690.83	333.69
691.17	332.56
691.51	331.44
691.84	330.33
692.18	329.24
692.52	328.24
692.85	327.15
693.19	326.26
693.52	325.08
693.86	324.05
694.20	322.99
694.53	321.71
694.87	320.55
695.21	319.56
695.54	318.58
695.88	317.49
696.21	316.30
696.55	315.25
696.88	314.18
697.22	313.35
697.56	312.39
697.89	311.35
698.23	310.54
698.56	309.48
698.90	308.72
699.23	307.80
699.57	306.86
699.90	305.87
700.24	304.93
700.58	304.11
700.91	303.28
701.25	302.47
701.58	301.95
701.92	301.20
702.25	300.36
702.59	299.68
702.92	298.96
703.26	298.24
703.59	297.60
703.93	297.14
704.26	296.30
704.60	295.56
704.93	294.84
705.26	293.97
705.60	293.31
705.93	292.50
706.27	291.91
706.60	291.31
706.94	290.70
707.27	289.97
707.61	289.37
707.94	288.77
708.27	288.01
708.61	287.25
708.94	286.59
709.28	286.09
709.61	285.25
709.94	284.70
710.28	284.09
710.61	283.36
710.95	282.55
711.28	282.11
711.61	281.56
711.95	280.84
712.28	280.18
712.61	279.67
712.95	279.09
713.28	278.69
713.61	278.13
713.95	277.56
714.28	277.04
714.61	276.40
714.95	275.90
715.28	275.40
715.61	274.89
715.95	274.50
716.28	273.76
716.61	273.42
716.95	272.85
717.28	272.43
717.61	272.06
717.94	271.47
718.28	270.95
718.61	270.47
718.94	270.05
719.27	269.89
719.61	269.44
719.94	269.03
720.27	268.43
720.60	268.02
720.94	267.66
721.27	267.26
721.60	266.98
721.93	266.60
722.27	266.26
722.60	265.84
722.93	265.35
723.26	265.07
723.59	264.75
723.93	264.47
724.26	264.03
724.59	263.69
724.92	263.48
725.25	263.03
725.59	262.67
725.92	262.37
726.25	261.89
726.58	261.59
726.91	261.26
727.24	260.94
727.57	260.65
727.91	260.27
728.24	259.89
728.57	259.48
728.90	259.26
729.23	258.86
729.56	258.62
729.89	258.35
730.22	257.90
730.55	257.56
730.89	257.19
731.22	256.79
731.55	256.41
731.88	256.11
732.21	255.91
732.54	255.52
732.87	255.23
733.20	254.79
733.53	254.45
733.86	254.10
734.19	253.88
734.52	253.54
734.85	253.39
735.18	253.11
735.51	253.02
735.84	252.60
736.17	252.40
736.50	252.07
736.83	252.01
737.16	251.88
737.49	251.60
737.82	251.33
738.15	251.21
738.48	251.00
738.81	250.75
739.14	250.44
739.47	250.25
739.80	250.01
740.13	249.90
740.46	249.64
740.79	249.46
741.12	249.22
741.45	249.00
741.78	248.69
742.11	248.59
742.44	248.18
742.77	248.05
743.10	247.83
743.43	247.66
743.75	247.23
744.08	247.31
744.41	247.16
744.74	247.00
745.07	246.75
745.40	246.50
745.73	246.29
746.06	246.17
746.39	246.08
746.71	245.91
747.04	245.70
747.37	245.59
747.70	245.43
748.03	245.12
748.36	244.97
748.68	244.78
749.01	244.51
749.34	244.39
749.67	244.20
750.00	243.98
750.33	243.82
750.65	243.65
750.98	243.15
751.31	242.93
751.64	242.65
751.97	242.59
752.29	242.44
752.62	242.25
752.95	241.91
753.28	241.69
753.60	241.48
753.93	241.40
754.26	241.22
754.59	241.10
754.91	240.94
755.24	240.80
755.57	240.61
755.90	240.50
756.22	240.34
756.55	240.11
756.88	239.92
757.20	239.71
757.53	239.68
757.86	239.65
758.19	239.54
758.51	239.47
758.84	239.29
759.17	239.10
759.49	239.06
759.82	239.20
760.15	239.13
760.47	239.08
760.80	238.89
761.13	238.73
761.45	238.64
761.78	238.56
762.11	238.40
762.43	238.34
762.76	238.22
763.08	238.12
763.41	237.94
763.74	237.94
764.06	237.81
764.39	237.56
764.71	237.38
765.04	237.33
765.37	237.18
765.69	237.06
766.02	237.03
766.34	236.83
766.67	236.52
767.00	236.40
767.32	236.37
767.65	236.40
767.97	236.38
768.30	236.30
768.62	236.30
768.95	236.20
769.27	236.05
769.60	236.05
769.92	235.79
770.25	235.70
770.57	235.50
770.90	235.47
771.22	235.45
771.55	235.37
771.87	235.13
772.20	235.20
772.52	235.27
772.85	235.49
773.17	235.46
773.50	235.34
773.82	235.19
774.15	235.01
774.47	234.84
774.80	234.71
775.12	234.56
775.45	234.43
775.77	234.42
776.09	234.33
776.42	234.23
776.74	234.43
777.07	234.40
777.39	234.39
777.72	234.27
778.04	234.20
778.36	234.03
778.69	234.06
779.01	233.93
779.33	233.65
779.66	233.25
779.98	233.17
780.31	233.20
780.63	233.20
780.95	233.24
781.28	233.08
781.60	233.00
781.92	232.94
782.25	232.86
782.57	232.68
782.89	232.57
783.22	232.45
783.54	232.28
783.86	232.26
784.19	232.20
784.51	232.21
784.83	232.17
785.16	232.20
785.48	232.07
785.80	232.05
786.12	232.05
786.45	232.01
786.77	231.90
787.09	231.75
787.42	231.67
787.74	231.68
788.06	231.67
788.38	231.63
788.71	231.56
789.03	231.53
789.35	231.60
789.67	231.52
789.99	231.42
790.32	231.44
790.64	231.39
790.96	231.52
791.28	231.36
791.61	231.27
791.93	231.27
792.25	231.27
792.57	231.36
792.89	231.30
793.21	231.31
793.54	231.29
793.86	231.29
794.18	231.33
794.50	231.18
794.82	231.23
795.14	231.24
795.47	231.28
795.79	231.23
796.11	231.19
796.43	231.26
796.75	231.25
797.07	231.30
797.39	231.31
797.71	231.08
798.04	231.10
798.36	231.12
798.68	231.02
799.00	231.11
799.32	231.00
799.64	231.01
799.96	231.02
800.28	231.08
800.60	231.15
800.92	231.07
801.24	231.02
801.56	231.04
801.89	230.94
802.21	230.98
802.53	231.04
802.85	231.00
803.17	231.07
803.49	231.10
803.81	231.05
804.13	230.94
804.45	230.94
804.77	230.98
805.09	231.00
805.41	231.04
805.73	230.90
806.05	230.83
806.37	230.84
806.69	230.81
807.01	230.80
807.33	230.74
807.65	230.68
807.97	230.82
808.28	230.67
808.60	230.72
808.92	230.54
809.24	230.59
809.56	230.62
809.88	230.50
810.20	230.63
810.52	230.66
810.84	230.71
811.16	230.65
811.48	230.61
811.80	230.59
812.12	230.57
812.43	230.58
812.75	230.54
813.07	230.43
813.39	230.37
813.71	230.36
814.03	230.40
814.35	230.39
814.67	230.23
814.98	230.22
815.30	230.16
815.62	230.20
815.94	230.10
816.26	230.13
816.58	230.16
816.89	230.00
817.21	229.85
817.53	229.83
817.85	229.79
818.17	229.74
818.48	229.67
818.80	229.72
819.12	229.73
819.44	229.64
819.76	229.70
820.07	229.56
820.39	229.44
820.71	229.36
821.03	229.42
821.34	229.41
821.66	229.50
821.98	229.51
822.30	229.45
822.61	229.54
822.93	229.44
823.25	229.37
823.57	229.29
823.88	229.25
824.20	229.16
824.52	229.26
824.83	229.19
825.15	229.26
825.47	229.10
825.79	229.11
826.10	229.13
826.42	229.00
826.74	229.18
827.05	229.17
827.37	229.17
827.69	229.19
828.00	229.11
828.32	229.01
828.64	229.03
828.95	229.15
829.27	229.01
829.58	228.93
829.90	228.89
830.22	228.95
830.53	228.91
830.85	228.96
831.17	228.85
831.48	228.91
831.80	228.80
832.11	228.96
832.43	228.86
832.75	228.83
833.06	229.04
833.38	229.00
833.69	229.10
834.01	229.10
834.32	229.00
834.64	229.12
834.96	229.10
835.27	228.99
835.59	229.03
835.90	229.03
836.22	229.11
836.53	229.10
836.85	229.00
837.16	229.27
837.48	229.31
837.79	229.53
838.11	229.60
838.42	229.66
838.74	229.57
839.05	229.59
839.37	229.60
839.68	229.48
840.00	229.43
840.31	229.46
840.63	229.43
840.94	229.49
841.26	229.36
841.57	229.46
841.88	229.50
842.20	229.32
842.51	229.29
842.83	229.25
843.14	229.54
843.46	229.59
843.77	229.50
844.08	229.36
844.40	229.23
844.71	229.18
845.03	229.20
845.34	229.19
845.65	229.27
845.97	229.31
846.28	229.24
846.60	229.33
846.91	229.25
847.22	229.30
847.54	229.27
847.85	229.30
848.16	229.25
848.48	229.23
848.79	229.40
849.10	229.41
849.42	229.49
849.73	229.20
850.04	229.21
850.36	229.02
850.67	229.14
850.98	229.14
851.30	229.05
851.61	229.00
851.92	229.06
852.23	229.09
852.55	229.05
852.86	229.10
853.17	229.10
853.49	229.19
853.80	229.13
854.11	229.15
854.42	229.19
854.74	229.17
855.05	229.16
855.36	229.00
855.67	229.03
855.99	228.83
856.30	229.08
856.61	229.00
856.92	229.00
857.23	228.98
857.55	228.88
857.86	228.86
858.17	228.80
858.48	228.76
858.79	228.60
859.11	228.66
859.42	228.60
859.73	228.40
860.04	228.31
860.35	228.36
860.66	228.28
860.98	228.28
861.29	228.30
861.60	228.25
861.91	228.27
862.22	228.15
862.53	228.18
862.84	227.95
863.16	228.04
863.47	228.06
863.78	228.06
864.09	228.12
864.40	228.19
864.71	228.20
865.02	228.16
865.33	228.14
865.64	228.06
865.95	228.06
866.27	228.31
866.58	228.17
866.89	228.10
867.20	228.14
867.51	228.10
867.82	227.99
868.13	228.11
868.44	228.03
868.75	228.12
869.06	228.23
869.37	228.26
869.68	228.17
869.99	228.17
870.30	228.21
870.61	228.29
870.92	228.24
871.23	228.29
871.54	228.36
871.85	228.49
872.16	228.46
872.47	228.47
872.78	228.30
873.09	228.40
873.40	228.42
873.71	228.46
874.02	228.51
874.33	228.58
874.64	228.53
874.95	228.67
875.26	228.68
875.56	228.70
875.87	228.78
876.18	228.88
876.49	229.12
876.80	229.13
877.11	229.12
877.42	229.11
877.73	229.19
878.04	229.15
878.35	229.11
878.66	229.22
878.96	229.26
879.27	229.33
879.58	229.42
879.89	229.42
880.20	229.46
880.51	229.47
880.82	229.61
881.12	229.63
881.43	229.58
881.74	229.57
882.05	229.50
882.36	229.49
882.67	229.52
882.97	229.37
883.28	229.33
883.59	229.29
883.90	229.30
884.21	229.33
884.51	229.44
884.82	229.45
885.13	229.40
885.44	229.37
885.74	229.27
886.05	229.20
886.36	229.21
886.67	229.17
886.98	229.20
887.28	229.12
887.59	229.08
887.90	229.07
888.20	229.13
888.51	229.21
888.82	229.09
889.13	229.00
889.43	229.17
889.74	229.19
890.05	229.21
890.35	229.15
890.66	229.06
890.97	228.89
891.28	228.87
891.58	228.91
891.89	228.85
892.20	228.95
892.50	228.88
892.81	228.85
893.12	228.74
893.42	228.60
893.73	228.56
894.04	228.56
894.34	228.59
894.65	228.48
894.95	228.38
895.26	228.46
895.57	228.59
895.87	228.29
896.18	228.21
896.48	228.10
896.79	228.17
897.10	228.12
897.40	228.15
897.71	228.15
898.01	228.07
898.32	228.08
898.63	227.96
898.93	228.01
899.24	228.04
899.54	228.06
899.85	228.03
900.15	227.92
900.46	227.90
900.76	227.91
901.07	227.88
901.38	227.94
901.68	227.95
901.99	227.92
902.29	227.92
902.60	227.91
902.90	228.01
903.21	227.97
903.51	228.02
903.82	227.92
904.12	227.87
904.43	227.81
904.73	227.79
905.03	227.85
905.34	227.93
905.64	227.89
905.95	227.87
906.25	227.88
906.56	227.99
906.86	227.94
907.17	227.79
907.47	227.84
907.77	227.73
908.08	227.57
908.38	227.47
908.69	227.54
908.99	227.52
909.30	227.49
909.60	227.50
909.90	227.47
910.21	227.46
910.51	227.49
910.81	227.62
911.12	227.65
911.42	227.67
911.73	227.61
912.03	227.61
912.33	227.67
912.64	227.75
912.94	227.70
913.24	227.84
913.55	227.93
913.85	228.04
914.15	228.13
914.46	228.23
914.76	228.25
915.06	228.21
915.37	228.27
915.67	228.30
915.97	228.40
916.27	228.45
916.58	228.63
916.88	228.56
917.18	228.51
917.49	228.71
917.79	228.72
918.09	228.76
918.39	228.89
918.70	228.89
919.00	228.86
919.30	229.00
919.60	229.05
919.91	229.07
920.21	229.02
920.51	229.08
920.81	229.10
921.12	229.17
921.42	229.25
921.72	229.19
922.02	229.19
922.32	229.20
922.63	229.22
922.93	229.29
923.23	229.32
923.53	229.26
923.83	229.10
924.13	229.17
924.44	229.11
924.74	229.09
925.04	229.14
925.34	229.19
925.64	229.05
925.94	228.97
926.24	229.10
926.55	229.10
926.85	229.10
927.15	229.09
927.45	229.09
927.75	229.09
928.05	229.10
928.35	229.19
928.65	229.21
928.95	229.17
929.26	229.10
929.56	229.23
929.86	229.33
930.16	229.35
930.46	229.34
930.76	229.39
931.06	229.24
931.36	229.20
931.66	229.20
931.96	229.15
932.26	229.14
932.56	228.99
932.86	228.97
933.16	228.99
933.46	228.91
933.76	228.81
934.06	228.76
934.36	228.84
934.66	228.72
934.96	228.67
935.26	228.63
935.56	228.60
935.86	228.49
936.16	228.46
936.46	228.37
936.76	228.33
937.06	228.24
937.36	228.31
937.66	228.27
937.96	228.22
938.26	228.25
938.56	228.23
938.86	228.22
939.16	228.09
939.46	228.08
939.76	228.13
940.06	228.07
940.35	227.97
940.65	227.86
940.95	227.82
941.25	227.73
941.55	227.69
941.85	227.68
942.15	227.66
942.45	227.64
942.75	227.68
943.04	227.59
943.34	227.63
943.64	227.60
943.94	227.59
944.24	227.60
944.54	227.61
944.84	227.61
945.13	227.52
945.43	227.57
945.73	227.51
946.03	227.50
946.33	227.60
946.62	227.61
946.92	227.55
947.22	227.59
947.52	227.63
947.82	227.72
948.11	227.70
948.41	227.63
948.71	227.62
949.01	227.71
949.31	227.71
949.60	227.70
949.90	227.69
950.20	227.71
950.50	227.70
950.79	227.72
951.09	227.73
951.39	227.81
951.69	227.89
951.98	227.98
952.28	227.96
952.58	227.93
952.87	227.94
953.17	228.07
953.47	228.06
953.76	228.05
954.06	227.99
954.36	228.00
954.66	228.18
954.95	228.22
955.25	228.17
955.55	228.22
955.84	228.15
956.14	228.25
956.44	228.22
956.73	228.18
957.03	228.25
957.32	228.38
957.62	228.39
957.92	228.46
958.21	228.43
958.51	228.69
958.81	228.81
959.10	228.79
959.40	228.81
959.69	228.85
959.99	228.92
960.29	228.93
960.58	228.88
960.88	228.76
961.17	228.80
961.47	228.85
961.76	228.87
962.06	228.99
962.36	228.94
962.65	229.04
962.95	229.14
963.24	229.16
963.54	229.10
963.83	229.11
964.13	229.00
964.42	228.96
964.72	228.82
965.01	228.73
965.31	228.85
965.60	228.77
965.90	228.83
966.19	228.77
966.49	228.79
966.78	228.78
967.08	228.87
967.37	228.73
967.67	228.70
967.96	228.68
968.26	228.52
968.55	228.54
968.85	228.38
969.14	228.28
969.43	228.24
969.73	228.23
970.02	228.10
970.32	228.04
970.61	227.99
970.91	227.79
971.20	227.82
971.49	227.73
971.79	227.73
972.08	227.51
972.38	227.50
972.67	227.43
972.96	227.40
973.26	227.23
973.55	227.40
973.85	227.38
974.14	227.40
974.43	227.44
974.73	227.42
975.02	227.43
975.31	227.36
975.61	227.30
975.90	227.12
976.19	227.19
976.49	227.20
976.78	227.17
977.07	227.26
977.37	227.21
977.66	227.18
977.95	227.21
978.24	227.35
978.54	227.31
978.83	227.34
979.12	227.42
979.42	227.48
979.71	227.32
980.00	227.23
980.29	227.15
980.59	227.13
980.88	227.24
981.17	227.33
981.46	227.38
981.76	227.40
982.05	227.55
982.34	227.57
982.63	227.60
982.93	227.62
983.22	227.69
983.51	227.68
983.80	227.70
984.09	227.68
984.39	227.60
984.68	227.66
984.97	227.68
985.26	227.68
985.55	227.79
985.85	227.90
986.14	228.01
986.43	228.13
986.72	228.27
987.01	228.09
987.30	228.15
987.59	228.20
987.89	228.18
988.18	228.19
988.47	228.31
988.76	228.39
989.05	228.43
989.34	228.43
989.63	228.56
989.92	228.60
990.22	228.59
990.51	228.68
990.80	228.71
991.09	228.73
991.38	228.79
991.67	228.74
991.96	228.62
992.25	228.70
992.54	228.70
992.83	228.72
993.12	228.82
993.41	228.85
993.70	228.95
993.99	229.02
994.28	228.98
994.58	228.90
994.87	228.83
995.16	228.75
995.45	228.70
995.74	228.66
996.03	228.73
996.32	228.79
996.61	228.68
996.90	228.70
997.19	228.75
997.48	228.74
997.77	228.81
998.06	228.92
998.34	228.89
998.63	228.80
998.92	228.71
999.21	228.65
999.50	228.62
999.79	228.59
1000.08	228.60
1000.37	228.63
1000.66	228.63
1000.95	228.61
1001.24	228.71
1001.53	228.75
1001.82	228.68
1002.11	228.50
1002.40	228.50
1002.68	228.60
1002.97	228.65
1003.26	228.53
1003.55	228.42
1003.84	228.32
1004.13	228.40
1004.42	228.31
1004.71	228.30
1004.99	228.39
1005.28	228.46
1005.57	228.43
1005.86	228.43
1006.15	228.37
1006.44	228.30
1006.72	228.25
1007.01	228.27
1007.30	228.13
1007.59	228.06
1007.88	228.06
1008.17	228.14
1008.45	228.04
1008.74	227.96
1009.03	227.88
1009.32	227.84
1009.60	227.84
1009.89	227.79
1010.18	227.63
1010.47	227.64
1010.76	227.67
1011.04	227.53
1011.33	227.64
1011.62	227.54
1011.91	227.51
1012.19	227.50
1012.48	227.49
1012.77	227.53
1013.05	227.59
1013.34	227.60
1013.63	227.63
1013.92	227.62
1014.20	227.59
1014.49	227.68
1014.78	227.76
1015.06	227.62
1015.35	227.60
1015.64	227.58
1015.92	227.64
1016.21	227.65
1016.50	227.66
1016.78	227.60
1017.07	227.75
1017.36	227.56
1017.64	227.65
1017.93	227.65
1018.22	227.61
1018.50	227.57
1018.79	227.60
1019.08	227.47
1019.36	227.66
1019.65	227.58
1019.93	227.68
1020.22	227.76
1020.51	227.92
1020.79	227.79
1021.08	227.10
1021.36	226.20
1021.65	228.80
1021.94	226.50
1022.22	229.80
1022.51	226.40
1022.79	229.50
1023.08	228.40
1023.36	231.80
1023.65	225.80
>>>>>End Processed Spectral Data<<<<<
