SpectraSuite Data File
++++++++++++++++++++++++++++++++++++
Date: Fri Feb 01 14:40:50 EST 2013
User: group
Dark Spectrum Present: No
Reference Spectrum Present: No
Number of Sampled Component Spectra: 1
Spectrometers: USB2E7196
Integration Time (usec): 70000 (USB2E7196)
Spectra Averaged: 10 (USB2E7196)
Boxcar Smoothing: 10 (USB2E7196)
Correct for Electrical Dark: No (USB2E7196)
Strobe/Lamp Enabled: No (USB2E7196)
Correct for Detector Non-linearity: No (USB2E7196)
Correct for Stray Light: No (USB2E7196)
Number of Pixels in Processed Spectrum: 2048
>>>>>Begin Processed Spectral Data<<<<<
339.09	0.00
339.48	214.60
339.86	217.30
340.24	217.50
340.63	219.80
341.01	223.50
341.39	221.40
341.78	224.40
342.16	224.10
342.54	227.00
342.93	213.97
343.31	224.80
343.69	225.44
344.07	225.88
344.46	226.39
344.84	226.85
345.22	227.03
345.60	227.35
345.99	227.48
346.37	227.72
346.75	227.80
347.13	227.84
347.52	227.85
347.90	228.00
348.28	228.06
348.66	228.16
349.05	228.12
349.43	228.22
349.81	228.31
350.19	228.46
350.57	228.56
350.96	228.72
351.34	228.73
351.72	228.78
352.10	228.90
352.48	228.95
352.87	228.90
353.25	229.04
353.63	229.07
354.01	229.19
354.39	229.29
354.77	229.43
355.15	229.61
355.54	229.73
355.92	229.72
356.30	229.74
356.68	229.84
357.06	229.90
357.44	229.89
357.82	229.98
358.20	230.05
358.58	230.10
358.97	230.22
359.35	230.47
359.73	230.54
360.11	230.67
360.49	230.73
360.87	230.81
361.25	230.86
361.63	230.99
362.01	231.08
362.39	231.06
362.77	231.07
363.15	231.10
363.53	231.09
363.91	231.24
364.29	231.33
364.67	231.26
365.05	231.35
365.43	231.40
365.81	231.31
366.19	231.32
366.57	231.37
366.95	231.36
367.33	231.22
367.71	231.31
368.09	231.19
368.47	231.27
368.85	231.21
369.23	231.24
369.61	231.10
369.99	231.10
370.37	231.08
370.75	231.13
371.13	230.92
371.51	230.87
371.89	230.79
372.27	230.72
372.65	230.68
373.03	230.49
373.41	230.43
373.78	230.37
374.16	230.21
374.54	230.08
374.92	229.89
375.30	229.83
375.68	229.75
376.06	229.82
376.44	229.67
376.82	229.76
377.19	229.60
377.57	229.63
377.95	229.44
378.33	229.38
378.71	229.07
379.09	229.18
379.47	229.11
379.84	229.04
380.22	228.88
380.60	228.75
380.98	228.75
381.36	228.58
381.73	228.53
382.11	228.50
382.49	228.46
382.87	228.38
383.25	228.31
383.62	228.40
384.00	228.20
384.38	228.10
384.76	227.98
385.13	227.98
385.51	227.91
385.89	227.92
386.27	227.83
386.64	227.91
387.02	227.82
387.40	227.76
387.78	227.66
388.15	227.74
388.53	227.69
388.91	227.57
389.29	227.50
389.66	227.50
390.04	227.40
390.42	227.42
390.79	227.46
391.17	227.40
391.55	227.08
391.92	227.00
392.30	226.99
392.68	226.93
393.05	226.90
393.43	226.87
393.81	226.87
394.18	226.89
394.56	226.95
394.94	226.96
395.31	226.98
395.69	227.09
396.06	227.16
396.44	227.11
396.82	227.25
397.19	227.50
397.57	227.57
397.95	227.67
398.32	227.60
398.70	227.73
399.07	227.87
399.45	227.99
399.82	228.19
400.20	228.20
400.58	228.33
400.95	228.30
401.33	228.38
401.70	228.51
402.08	228.63
402.45	228.67
402.83	228.77
403.20	228.92
403.58	228.93
403.95	229.06
404.33	229.28
404.71	229.35
405.08	229.64
405.46	229.80
405.83	229.97
406.21	230.28
406.58	230.45
406.96	230.58
407.33	230.81
407.70	231.09
408.08	231.53
408.45	231.80
408.83	232.13
409.20	232.47
409.58	232.71
409.95	232.97
410.33	233.19
410.70	233.42
411.08	233.67
411.45	234.02
411.82	234.25
412.20	234.56
412.57	235.10
412.95	235.34
413.32	235.75
413.69	236.23
414.07	236.60
414.44	237.14
414.82	237.77
415.19	238.38
415.56	238.83
415.94	239.34
416.31	240.01
416.68	240.72
417.06	241.35
417.43	242.05
417.81	242.94
418.18	243.87
418.55	244.75
418.93	245.77
419.30	246.80
419.67	247.79
420.04	248.88
420.42	249.96
420.79	251.12
421.16	252.29
421.54	253.57
421.91	254.92
422.28	256.20
422.66	257.59
423.03	258.96
423.40	260.37
423.77	261.88
424.15	263.30
424.52	264.83
424.89	266.56
425.26	268.19
425.64	269.57
426.01	271.20
426.38	273.01
426.75	274.78
427.13	276.52
427.50	278.41
427.87	280.28
428.24	282.11
428.61	283.98
428.99	285.96
429.36	288.11
429.73	290.22
430.10	292.19
430.47	294.21
430.85	296.25
431.22	298.64
431.59	301.25
431.96	303.55
432.33	306.11
432.70	308.61
433.08	311.47
433.45	314.31
433.82	317.01
434.19	320.03
434.56	323.08
434.93	325.78
435.30	328.58
435.68	331.69
436.05	334.64
436.42	337.46
436.79	340.07
437.16	342.80
437.53	345.69
437.90	348.79
438.27	351.73
438.64	354.84
439.01	357.52
439.38	359.59
439.75	361.84
440.13	364.40
440.50	366.74
440.87	368.76
441.24	370.61
441.61	372.79
441.98	374.16
442.35	375.79
442.72	377.72
443.09	379.56
443.46	380.55
443.83	381.14
444.20	381.62
444.57	382.62
444.94	382.94
445.31	383.29
445.68	383.69
446.05	383.72
446.42	383.13
446.79	382.70
447.16	382.22
447.53	381.95
447.90	380.73
448.27	379.55
448.64	377.87
449.01	376.79
449.37	374.80
449.74	372.97
450.11	370.74
450.48	368.14
450.85	365.50
451.22	363.27
451.59	361.29
451.96	359.22
452.33	356.50
452.70	354.11
453.07	351.17
453.43	348.06
453.80	345.13
454.17	342.40
454.54	339.62
454.91	336.87
455.28	334.06
455.65	331.43
456.02	329.10
456.38	326.82
456.75	324.04
457.12	321.64
457.49	319.27
457.86	316.89
458.23	315.04
458.59	312.80
458.96	310.47
459.33	308.37
459.70	306.48
460.07	304.78
460.43	302.95
460.80	301.23
461.17	299.68
461.54	298.10
461.91	296.52
462.27	295.08
462.64	293.72
463.01	292.27
463.38	290.90
463.74	289.17
464.11	287.89
464.48	286.77
464.85	285.50
465.21	284.48
465.58	283.53
465.95	282.36
466.32	281.42
466.68	280.41
467.05	279.46
467.42	278.55
467.78	277.45
468.15	276.52
468.52	275.85
468.88	274.88
469.25	273.90
469.62	273.21
469.98	272.40
470.35	271.72
470.72	270.97
471.08	270.24
471.45	269.67
471.82	269.05
472.18	268.33
472.55	267.87
472.92	267.20
473.28	266.60
473.65	265.92
474.02	265.34
474.38	265.02
474.75	264.56
475.11	263.97
475.48	263.60
475.85	263.04
476.21	262.59
476.58	262.33
476.94	262.06
477.31	261.87
477.67	261.57
478.04	261.21
478.41	260.96
478.77	260.80
479.14	260.48
479.50	260.19
479.87	260.11
480.23	259.88
480.60	259.74
480.96	259.56
481.33	259.60
481.69	259.62
482.06	259.45
482.42	259.35
482.79	259.39
483.15	259.49
483.52	259.72
483.88	259.74
484.25	259.62
484.61	259.70
484.98	259.68
485.34	259.84
485.71	260.00
486.07	260.23
486.44	260.45
486.80	260.66
487.17	260.96
487.53	261.30
487.90	261.75
488.26	262.22
488.62	262.67
488.99	263.12
489.35	263.54
489.72	264.04
490.08	264.58
490.44	265.11
490.81	265.70
491.17	266.26
491.54	266.94
491.90	267.80
492.26	268.62
492.63	269.47
492.99	270.43
493.36	271.48
493.72	272.53
494.08	273.49
494.45	274.75
494.81	276.05
495.17	277.26
495.54	278.68
495.90	280.10
496.26	281.70
496.63	283.16
496.99	284.78
497.35	286.61
497.72	288.72
498.08	290.71
498.44	292.79
498.80	295.01
499.17	297.35
499.53	299.80
499.89	302.49
500.26	305.25
500.62	307.91
500.98	310.72
501.34	313.73
501.71	316.94
502.07	320.09
502.43	323.46
502.79	326.96
503.16	330.58
503.52	334.38
503.88	338.20
504.24	342.33
504.60	346.64
504.97	351.17
505.33	355.70
505.69	360.59
506.05	365.51
506.41	370.65
506.78	375.97
507.14	381.48
507.50	387.10
507.86	392.73
508.22	398.90
508.59	404.99
508.95	411.41
509.31	418.20
509.67	425.24
510.03	432.31
510.39	439.54
510.75	446.88
511.12	454.48
511.48	462.45
511.84	470.54
512.20	478.85
512.56	487.30
512.92	495.84
513.28	504.72
513.64	513.78
514.00	522.77
514.37	532.19
514.73	541.81
515.09	551.39
515.45	561.39
515.81	571.42
516.17	581.87
516.53	592.22
516.89	602.63
517.25	613.29
517.61	624.24
517.97	635.40
518.33	646.84
518.69	658.32
519.05	669.79
519.41	681.61
519.77	693.75
520.13	705.84
520.49	717.97
520.85	730.31
521.21	742.84
521.57	756.01
521.93	768.60
522.29	781.58
522.65	794.60
523.01	807.67
523.37	820.78
523.73	834.15
524.09	847.74
524.45	861.41
524.81	875.42
525.17	889.59
525.53	903.57
525.89	917.60
526.25	931.94
526.61	946.20
526.97	960.78
527.33	975.29
527.68	989.86
528.04	1004.65
528.40	1019.30
528.76	1034.26
529.12	1049.15
529.48	1064.31
529.84	1079.01
530.20	1094.14
530.56	1110.08
530.91	1125.99
531.27	1141.52
531.63	1156.77
531.99	1172.20
532.35	1187.23
532.71	1201.63
533.07	1217.05
533.42	1232.01
533.78	1247.15
534.14	1262.23
534.50	1276.93
534.86	1292.02
535.21	1306.68
535.57	1321.83
535.93	1336.77
536.29	1351.85
536.65	1366.64
537.00	1381.30
537.36	1396.53
537.72	1410.90
538.08	1424.62
538.44	1438.40
538.79	1452.48
539.15	1466.51
539.51	1481.10
539.87	1495.32
540.22	1509.88
540.58	1524.29
540.94	1538.65
541.29	1552.09
541.65	1565.76
542.01	1579.61
542.37	1592.64
542.72	1606.21
543.08	1619.06
543.44	1632.42
543.79	1644.60
544.15	1656.95
544.51	1670.13
544.87	1682.32
545.22	1694.89
545.58	1706.95
545.94	1718.98
546.29	1730.47
546.65	1741.92
547.01	1752.56
547.36	1763.26
547.72	1774.22
548.07	1784.35
548.43	1794.33
548.79	1804.90
549.14	1814.58
549.50	1824.17
549.86	1833.79
550.21	1843.13
550.57	1852.66
550.92	1861.29
551.28	1870.34
551.64	1878.87
551.99	1886.99
552.35	1895.35
552.70	1903.77
553.06	1912.62
553.41	1921.20
553.77	1929.69
554.13	1938.12
554.48	1946.26
554.84	1954.43
555.19	1962.00
555.55	1969.28
555.90	1976.36
556.26	1983.63
556.61	1990.92
556.97	1997.52
557.32	2004.24
557.68	2010.71
558.03	2017.43
558.39	2023.85
558.74	2031.07
559.10	2037.76
559.45	2044.45
559.81	2051.30
560.16	2057.05
560.52	2062.10
560.87	2067.80
561.23	2072.65
561.58	2077.82
561.94	2082.87
562.29	2087.51
562.64	2091.85
563.00	2096.89
563.35	2102.43
563.71	2107.80
564.06	2112.86
564.42	2118.06
564.77	2122.81
565.12	2127.62
565.48	2131.44
565.83	2135.06
566.19	2138.14
566.54	2141.53
566.89	2144.24
567.25	2146.61
567.60	2150.28
567.96	2153.81
568.31	2156.01
568.66	2158.90
569.02	2161.46
569.37	2163.29
569.72	2165.27
570.08	2167.05
570.43	2168.63
570.78	2169.91
571.14	2169.90
571.49	2170.80
571.84	2171.89
572.20	2172.39
572.55	2172.65
572.90	2172.70
573.26	2173.45
573.61	2173.17
573.96	2173.01
574.31	2172.19
574.67	2170.90
575.02	2169.09
575.37	2167.97
575.72	2166.43
576.08	2164.95
576.43	2163.19
576.78	2162.10
577.13	2161.03
577.49	2159.86
577.84	2158.00
578.19	2155.74
578.54	2153.72
578.90	2150.73
579.25	2147.26
579.60	2144.09
579.95	2140.84
580.30	2137.83
580.66	2134.13
581.01	2131.01
581.36	2127.72
581.71	2125.00
582.06	2121.90
582.42	2118.34
582.77	2113.91
583.12	2110.28
583.47	2107.01
583.82	2103.38
584.17	2099.08
584.53	2095.03
584.88	2090.79
585.23	2086.55
585.58	2082.65
585.93	2078.35
586.28	2074.76
586.63	2071.06
586.98	2067.70
587.34	2063.67
587.69	2059.63
588.04	2055.81
588.39	2051.72
588.74	2046.38
589.09	2040.83
589.44	2035.56
589.79	2031.11
590.14	2027.15
590.49	2022.19
590.84	2016.88
591.19	2012.24
591.54	2006.01
591.89	1999.69
592.25	1994.04
592.60	1987.53
592.95	1981.26
593.30	1975.33
593.65	1969.21
594.00	1962.83
594.35	1956.73
594.70	1950.40
595.05	1944.64
595.40	1937.78
595.75	1931.12
596.10	1925.44
596.45	1920.19
596.80	1915.32
597.15	1909.45
597.50	1903.00
597.85	1897.34
598.19	1891.86
598.54	1885.65
598.89	1881.25
599.24	1876.20
599.59	1870.28
599.94	1865.45
600.29	1859.72
600.64	1854.04
600.99	1847.35
601.34	1841.73
601.69	1835.09
602.04	1829.34
602.39	1823.06
602.74	1818.23
603.08	1813.19
603.43	1807.89
603.78	1801.74
604.13	1795.42
604.48	1789.00
604.83	1782.79
605.18	1776.62
605.53	1769.14
605.87	1761.56
606.22	1754.51
606.57	1747.57
606.92	1741.44
607.27	1735.07
607.62	1728.74
607.96	1722.18
608.31	1716.27
608.66	1708.95
609.01	1701.93
609.36	1694.26
609.70	1686.06
610.05	1677.83
610.40	1669.79
610.75	1661.74
611.10	1654.32
611.44	1645.88
611.79	1638.69
612.14	1631.16
612.49	1622.53
612.83	1614.79
613.18	1607.56
613.53	1600.10
613.88	1591.89
614.22	1583.84
614.57	1575.41
614.92	1567.47
615.27	1559.94
615.61	1552.02
615.96	1544.40
616.31	1536.90
616.65	1530.21
617.00	1523.44
617.35	1516.45
617.70	1508.81
618.04	1500.89
618.39	1493.19
618.74	1486.23
619.08	1478.33
619.43	1470.80
619.78	1464.03
620.12	1457.10
620.47	1449.60
620.82	1441.58
621.16	1434.45
621.51	1427.13
621.85	1419.82
622.20	1412.06
622.55	1404.40
622.89	1397.36
623.24	1390.71
623.59	1384.01
623.93	1376.52
624.28	1369.40
624.62	1361.58
624.97	1354.42
625.32	1348.13
625.66	1341.19
626.01	1334.20
626.35	1327.54
626.70	1320.45
627.04	1313.50
627.39	1306.39
627.73	1299.30
628.08	1292.56
628.43	1285.61
628.77	1278.55
629.12	1270.89
629.46	1263.76
629.81	1256.04
630.15	1248.28
630.50	1240.66
630.84	1232.31
631.19	1224.40
631.53	1216.96
631.88	1209.43
632.22	1201.65
632.57	1194.22
632.91	1186.44
633.26	1178.90
633.60	1171.03
633.95	1163.78
634.29	1156.50
634.64	1149.75
634.98	1142.68
635.32	1135.88
635.67	1129.20
636.01	1122.31
636.36	1115.91
636.70	1109.52
637.05	1103.34
637.39	1097.29
637.73	1090.51
638.08	1084.96
638.42	1079.51
638.77	1073.48
639.11	1067.46
639.45	1061.66
639.80	1054.90
640.14	1048.95
640.49	1042.80
640.83	1036.53
641.17	1030.17
641.52	1023.86
641.86	1017.13
642.20	1011.26
642.55	1004.80
642.89	998.51
643.23	992.06
643.58	986.04
643.92	979.61
644.26	973.35
644.61	967.14
644.95	961.26
645.29	954.69
645.64	947.98
645.98	941.66
646.32	935.78
646.66	929.59
647.01	923.60
647.35	917.70
647.69	911.54
648.04	905.85
648.38	900.04
648.72	893.80
649.06	887.54
649.41	881.44
649.75	875.31
650.09	869.02
650.43	863.26
650.78	856.94
651.12	850.89
651.46	845.13
651.80	839.33
652.14	833.59
652.49	827.80
652.83	822.26
653.17	816.45
653.51	810.73
653.85	805.00
654.20	799.47
654.54	793.62
654.88	788.03
655.22	782.17
655.56	776.21
655.90	770.87
656.25	765.54
656.59	759.96
656.93	754.68
657.27	749.52
657.61	744.13
657.95	739.38
658.29	734.30
658.64	728.94
658.98	723.74
659.32	718.23
659.66	713.14
660.00	707.87
660.34	702.66
660.68	697.80
661.02	692.73
661.36	687.84
661.70	683.10
662.05	678.47
662.39	674.07
662.73	669.54
663.07	664.93
663.41	660.68
663.75	656.50
664.09	652.10
664.43	647.47
664.77	642.95
665.11	638.51
665.45	634.24
665.79	630.13
666.13	625.69
666.47	621.68
666.81	617.59
667.15	613.33
667.49	609.26
667.83	605.01
668.17	601.04
668.51	597.08
668.85	593.01
669.19	589.13
669.53	585.11
669.87	581.33
670.21	577.71
670.55	573.82
670.89	570.21
671.23	566.60
671.57	563.30
671.91	559.90
672.25	556.29
672.58	552.83
672.92	549.36
673.26	546.00
673.60	542.54
673.94	539.25
674.28	536.19
674.62	533.21
674.96	530.13
675.30	527.31
675.64	524.17
675.97	521.22
676.31	518.36
676.65	515.49
676.99	512.84
677.33	509.62
677.67	506.84
678.01	503.52
678.34	500.60
678.68	497.67
679.02	494.82
679.36	492.13
679.70	489.41
680.04	486.65
680.37	483.78
680.71	481.13
681.05	478.72
681.39	476.12
681.73	473.47
682.06	470.96
682.40	468.34
682.74	465.70
683.08	463.08
683.42	460.39
683.75	457.80
684.09	455.07
684.43	452.67
684.77	450.20
685.10	448.04
685.44	445.69
685.78	443.46
686.12	441.25
686.45	438.96
686.79	436.40
687.13	434.15
687.46	431.94
687.80	429.66
688.14	427.14
688.48	424.94
688.81	422.71
689.15	420.62
689.49	418.20
689.82	416.14
690.16	414.01
690.50	411.98
690.83	409.96
691.17	407.84
691.51	405.84
691.84	403.97
692.18	401.83
692.52	399.75
692.85	397.65
693.19	395.64
693.52	393.55
693.86	391.80
694.20	389.96
694.53	388.33
694.87	386.71
695.21	384.86
695.54	382.93
695.88	381.03
696.21	379.00
696.55	377.28
696.88	375.53
697.22	373.87
697.56	372.16
697.89	370.40
698.23	368.81
698.56	367.23
698.90	365.57
699.23	363.99
699.57	362.32
699.90	360.78
700.24	359.06
700.58	357.46
700.91	355.94
701.25	354.40
701.58	352.75
701.92	351.17
702.25	349.73
702.59	348.33
702.92	346.95
703.26	345.54
703.59	344.22
703.93	342.98
704.26	341.63
704.60	340.25
704.93	338.93
705.26	337.64
705.60	336.33
705.93	335.02
706.27	333.75
706.60	332.59
706.94	331.31
707.27	330.03
707.61	328.80
707.94	327.59
708.27	326.44
708.61	325.12
708.94	323.93
709.28	322.81
709.61	321.78
709.94	320.68
710.28	319.59
710.61	318.56
710.95	317.34
711.28	316.32
711.61	315.20
711.95	314.25
712.28	313.00
712.61	311.88
712.95	310.74
713.28	309.72
713.61	308.76
713.95	307.76
714.28	307.04
714.61	306.20
714.95	305.30
715.28	304.33
715.61	303.45
715.95	302.62
716.28	301.73
716.61	300.81
716.95	299.88
717.28	299.10
717.61	298.16
717.94	297.31
718.28	296.37
718.61	295.60
718.94	294.67
719.27	294.10
719.61	293.34
719.94	292.69
720.27	291.98
720.60	291.19
720.94	290.51
721.27	289.70
721.60	288.93
721.93	288.23
722.27	287.59
722.60	286.97
722.93	286.30
723.26	285.65
723.59	284.95
723.93	284.42
724.26	283.85
724.59	283.26
724.92	282.72
725.25	282.31
725.59	281.74
725.92	281.27
726.25	280.65
726.58	280.19
726.91	279.67
727.24	279.13
727.57	278.70
727.91	278.10
728.24	277.59
728.57	277.08
728.90	276.60
729.23	275.91
729.56	275.43
729.89	274.95
730.22	274.40
730.55	273.93
730.89	273.39
731.22	272.75
731.55	272.28
731.88	271.78
732.21	271.08
732.54	270.51
732.87	270.00
733.20	269.54
733.53	269.00
733.86	268.52
734.19	267.92
734.52	267.46
734.85	267.15
735.18	266.63
735.51	266.31
735.84	265.84
736.17	265.55
736.50	264.98
736.83	264.70
737.16	264.27
737.49	263.77
737.82	263.41
738.15	263.05
738.48	262.65
738.81	262.22
739.14	261.87
739.47	261.59
739.80	261.26
740.13	260.90
740.46	260.56
740.79	260.18
741.12	259.90
741.45	259.44
741.78	259.00
742.11	258.71
742.44	258.25
742.77	257.93
743.10	257.60
743.43	257.40
743.75	256.83
744.08	256.81
744.41	256.63
744.74	256.29
745.07	256.06
745.40	255.78
745.73	255.54
746.06	255.25
746.39	254.84
746.71	254.49
747.04	254.11
747.37	253.73
747.70	253.41
748.03	253.10
748.36	252.92
748.68	252.61
749.01	252.29
749.34	252.03
749.67	251.81
750.00	251.60
750.33	251.42
750.65	251.14
750.98	250.60
751.31	250.28
751.64	250.04
751.97	249.77
752.29	249.48
752.62	249.05
752.95	248.83
753.28	248.68
753.60	248.49
753.93	248.31
754.26	248.16
754.59	247.77
754.91	247.49
755.24	247.23
755.57	246.94
755.90	246.76
756.22	246.51
756.55	246.21
756.88	245.87
757.20	245.55
757.53	245.41
757.86	245.29
758.19	245.17
758.51	244.95
758.84	244.69
759.17	244.49
759.49	244.43
759.82	244.33
760.15	244.12
760.47	243.85
760.80	243.69
761.13	243.59
761.45	243.50
761.78	243.42
762.11	243.16
762.43	243.09
762.76	242.96
763.08	242.89
763.41	242.82
763.74	242.66
764.06	242.54
764.39	242.34
764.71	242.20
765.04	241.98
765.37	241.80
765.69	241.61
766.02	241.59
766.34	241.28
766.67	241.05
767.00	240.95
767.32	241.00
767.65	240.97
767.97	240.85
768.30	240.70
768.62	240.53
768.95	240.50
769.27	240.37
769.60	240.20
769.92	240.07
770.25	239.87
770.57	239.76
770.90	239.55
771.22	239.40
771.55	239.19
771.87	239.10
772.20	238.98
772.52	239.10
772.85	239.07
773.17	239.08
773.50	238.90
773.82	238.70
774.15	238.35
774.47	238.04
774.80	237.79
775.12	237.77
775.45	237.62
775.77	237.46
776.09	237.38
776.42	237.38
776.74	237.21
777.07	237.03
777.39	236.95
777.72	236.91
778.04	236.82
778.36	236.74
778.69	236.70
779.01	236.58
779.33	236.30
779.66	236.01
779.98	235.84
780.31	235.72
780.63	235.79
780.95	235.90
781.28	235.77
781.60	235.79
781.92	235.65
782.25	235.66
782.57	235.52
782.89	235.37
783.22	235.11
783.54	234.98
783.86	234.88
784.19	234.70
784.51	234.63
784.83	234.49
785.16	234.40
785.48	234.20
785.80	234.21
786.12	234.14
786.45	234.08
786.77	234.05
787.09	234.04
787.42	233.91
787.74	233.79
788.06	233.84
788.38	233.66
788.71	233.64
789.03	233.42
789.35	233.42
789.67	233.31
789.99	233.30
790.32	233.32
790.64	233.34
790.96	233.57
791.28	233.52
791.61	233.56
791.93	233.50
792.25	233.50
792.57	233.53
792.89	233.37
793.21	233.46
793.54	233.36
793.86	233.28
794.18	233.21
794.50	233.16
794.82	233.04
795.14	233.05
795.47	232.91
795.79	232.96
796.11	232.94
796.43	232.92
796.75	232.82
797.07	232.76
797.39	232.85
797.71	232.57
798.04	232.46
798.36	232.44
798.68	232.37
799.00	232.33
799.32	232.15
799.64	232.23
799.96	232.09
800.28	232.19
800.60	232.14
800.92	232.09
801.24	231.91
801.56	231.90
801.89	231.89
802.21	231.95
802.53	231.99
802.85	231.98
803.17	232.03
803.49	232.07
803.81	232.06
804.13	231.80
804.45	231.73
804.77	231.75
805.09	231.71
805.41	231.71
805.73	231.60
806.05	231.51
806.37	231.61
806.69	231.54
807.01	231.51
807.33	231.58
807.65	231.55
807.97	231.72
808.28	231.69
808.60	231.60
808.92	231.60
809.24	231.67
809.56	231.63
809.88	231.56
810.20	231.45
810.52	231.47
810.84	231.52
811.16	231.61
811.48	231.66
811.80	231.59
812.12	231.53
812.43	231.67
812.75	231.66
813.07	231.59
813.39	231.60
813.71	231.54
814.03	231.47
814.35	231.47
814.67	231.37
814.98	231.37
815.30	231.38
815.62	231.33
815.94	231.13
816.26	231.22
816.58	231.20
816.89	231.38
817.21	231.20
817.53	231.20
817.85	231.12
818.17	231.00
818.48	230.97
818.80	231.04
819.12	230.88
819.44	230.81
819.76	230.70
820.07	230.69
820.39	230.56
820.71	230.60
821.03	230.53
821.34	230.47
821.66	230.51
821.98	230.49
822.30	230.38
822.61	230.42
822.93	230.31
823.25	230.34
823.57	230.17
823.88	230.25
824.20	230.15
824.52	230.22
824.83	230.22
825.15	230.17
825.47	230.10
825.79	230.21
826.10	230.25
826.42	230.19
826.74	230.18
827.05	230.29
827.37	230.17
827.69	230.28
828.00	230.31
828.32	230.28
828.64	230.32
828.95	230.51
829.27	230.52
829.58	230.44
829.90	230.41
830.22	230.36
830.53	230.26
830.85	230.35
831.17	230.11
831.48	230.10
831.80	230.07
832.11	230.07
832.43	229.95
832.75	229.98
833.06	230.13
833.38	230.16
833.69	229.98
834.01	230.11
834.32	230.06
834.64	230.01
834.96	229.93
835.27	229.90
835.59	229.82
835.90	229.78
836.22	229.80
836.53	229.79
836.85	229.82
837.16	229.97
837.48	229.89
837.79	230.01
838.11	230.02
838.42	230.13
838.74	230.10
839.05	230.12
839.37	230.11
839.68	230.02
840.00	229.92
840.31	230.13
840.63	229.94
840.94	229.93
841.26	229.99
841.57	230.08
841.88	229.97
842.20	229.84
842.51	229.80
842.83	229.73
843.14	229.81
843.46	229.91
843.77	229.89
844.08	229.92
844.40	229.90
844.71	229.91
845.03	229.88
845.34	229.87
845.65	229.83
845.97	229.86
846.28	229.84
846.60	229.82
846.91	229.67
847.22	229.77
847.54	229.81
847.85	229.75
848.16	229.74
848.48	229.72
848.79	229.83
849.10	229.83
849.42	229.90
849.73	229.78
850.04	229.67
850.36	229.54
850.67	229.58
850.98	229.58
851.30	229.59
851.61	229.60
851.92	229.61
852.23	229.72
852.55	229.76
852.86	229.70
853.17	229.67
853.49	229.73
853.80	229.66
854.11	229.51
854.42	229.57
854.74	229.41
855.05	229.45
855.36	229.34
855.67	229.41
855.99	229.48
856.30	229.66
856.61	229.66
856.92	229.71
857.23	229.73
857.55	229.68
857.86	229.59
858.17	229.48
858.48	229.40
858.79	229.32
859.11	229.25
859.42	229.16
859.73	229.25
860.04	229.18
860.35	229.12
860.66	229.07
860.98	228.93
861.29	229.00
861.60	228.93
861.91	228.96
862.22	228.80
862.53	228.62
862.84	228.38
863.16	228.33
863.47	228.31
863.78	228.23
864.09	228.18
864.40	228.25
864.71	228.33
865.02	228.21
865.33	228.18
865.64	228.16
865.95	228.20
866.27	228.23
866.58	228.27
866.89	228.21
867.20	228.24
867.51	228.25
867.82	228.27
868.13	228.37
868.44	228.40
868.75	228.48
869.06	228.48
869.37	228.43
869.68	228.41
869.99	228.37
870.30	228.41
870.61	228.50
870.92	228.40
871.23	228.45
871.54	228.66
871.85	228.71
872.16	228.77
872.47	228.73
872.78	228.62
873.09	228.60
873.40	228.66
873.71	228.70
874.02	228.71
874.33	228.83
874.64	228.71
874.95	228.67
875.26	228.68
875.56	228.71
875.87	228.82
876.18	228.88
876.49	229.11
876.80	229.06
877.11	229.11
877.42	229.14
877.73	229.14
878.04	229.05
878.35	229.10
878.66	229.05
878.96	229.17
879.27	229.15
879.58	229.16
879.89	229.28
880.20	229.32
880.51	229.40
880.82	229.22
881.12	229.33
881.43	229.36
881.74	229.37
882.05	229.40
882.36	229.39
882.67	229.40
882.97	229.21
883.28	229.24
883.59	229.17
883.90	229.21
884.21	229.21
884.51	229.20
884.82	229.14
885.13	229.16
885.44	229.08
885.74	229.13
886.05	229.11
886.36	229.08
886.67	228.96
886.98	228.96
887.28	229.03
887.59	229.02
887.90	228.93
888.20	228.96
888.51	229.02
888.82	228.99
889.13	228.99
889.43	229.13
889.74	229.14
890.05	229.13
890.35	229.16
890.66	229.10
890.97	228.99
891.28	228.99
891.58	228.93
891.89	228.90
892.20	228.93
892.50	228.88
892.81	228.82
893.12	228.81
893.42	228.81
893.73	228.78
894.04	228.72
894.34	228.75
894.65	228.66
894.95	228.63
895.26	228.61
895.57	228.69
895.87	228.50
896.18	228.51
896.48	228.49
896.79	228.48
897.10	228.44
897.40	228.55
897.71	228.50
898.01	228.54
898.32	228.60
898.63	228.42
898.93	228.50
899.24	228.43
899.54	228.50
899.85	228.36
900.15	228.38
900.46	228.39
900.76	228.39
901.07	228.37
901.38	228.37
901.68	228.37
901.99	228.24
902.29	228.20
902.60	228.16
902.90	228.20
903.21	228.06
903.51	228.08
903.82	228.11
904.12	228.13
904.43	228.11
904.73	228.08
905.03	228.25
905.34	228.34
905.64	228.44
905.95	228.49
906.25	228.55
906.56	228.46
906.86	228.55
907.17	228.53
907.47	228.45
907.77	228.35
908.08	228.40
908.38	228.50
908.69	228.57
908.99	228.60
909.30	228.55
909.60	228.63
909.90	228.70
910.21	228.60
910.51	228.60
910.81	228.58
911.12	228.60
911.42	228.61
911.73	228.53
912.03	228.50
912.33	228.45
912.64	228.52
912.94	228.55
913.24	228.46
913.55	228.44
913.85	228.55
914.15	228.70
914.46	228.72
914.76	228.60
915.06	228.58
915.37	228.65
915.67	228.74
915.97	228.81
916.27	228.72
916.58	228.87
916.88	228.91
917.18	228.95
917.49	229.05
917.79	228.98
918.09	229.08
918.39	229.21
918.70	229.25
919.00	229.32
919.30	229.49
919.60	229.54
919.91	229.59
920.21	229.63
920.51	229.54
920.81	229.59
921.12	229.73
921.42	229.79
921.72	229.77
922.02	229.80
922.32	229.80
922.63	229.90
922.93	230.00
923.23	230.09
923.53	230.07
923.83	230.08
924.13	230.16
924.44	230.22
924.74	230.14
925.04	230.21
925.34	230.11
925.64	230.03
925.94	229.96
926.24	230.09
926.55	230.05
926.85	230.04
927.15	229.93
927.45	229.90
927.75	229.84
928.05	229.75
928.35	229.62
928.65	229.63
928.95	229.56
929.26	229.48
929.56	229.43
929.86	229.37
930.16	229.25
930.46	229.17
930.76	229.12
931.06	229.03
931.36	228.87
931.66	228.92
931.96	228.89
932.26	228.90
932.56	228.83
932.86	228.86
933.16	228.89
933.46	228.86
933.76	228.72
934.06	228.69
934.36	228.80
934.66	228.74
934.96	228.61
935.26	228.50
935.56	228.49
935.86	228.36
936.16	228.34
936.46	228.30
936.76	228.20
937.06	228.01
937.36	228.04
937.66	228.02
937.96	227.94
938.26	227.92
938.56	227.90
938.86	227.80
939.16	227.75
939.46	227.74
939.76	227.74
940.06	227.71
940.35	227.76
940.65	227.50
940.95	227.57
941.25	227.59
941.55	227.63
941.85	227.62
942.15	227.68
942.45	227.73
942.75	227.71
943.04	227.78
943.34	227.92
943.64	227.88
943.94	227.91
944.24	227.90
944.54	227.82
944.84	227.86
945.13	227.85
945.43	227.78
945.73	227.82
946.03	227.83
946.33	227.85
946.62	227.77
946.92	227.87
947.22	227.83
947.52	227.82
947.82	227.85
948.11	227.83
948.41	227.78
948.71	227.80
949.01	227.81
949.31	227.82
949.60	227.87
949.90	227.89
950.20	228.07
950.50	228.08
950.79	228.20
951.09	228.28
951.39	228.37
951.69	228.53
951.98	228.57
952.28	228.60
952.58	228.58
952.87	228.72
953.17	228.74
953.47	228.82
953.76	228.86
954.06	228.95
954.36	228.94
954.66	229.03
954.95	229.16
955.25	229.29
955.55	229.27
955.84	229.21
956.14	229.29
956.44	229.16
956.73	229.14
957.03	229.12
957.32	229.06
957.62	229.00
957.92	229.01
958.21	228.98
958.51	229.14
958.81	229.23
959.10	229.26
959.40	229.40
959.69	229.54
959.99	229.64
960.29	229.56
960.58	229.50
960.88	229.62
961.17	229.50
961.47	229.39
961.76	229.43
962.06	229.36
962.36	229.29
962.65	229.37
962.95	229.39
963.24	229.42
963.54	229.52
963.83	229.55
964.13	229.46
964.42	229.34
964.72	229.22
965.01	229.19
965.31	229.07
965.60	229.05
965.90	229.02
966.19	228.91
966.49	228.92
966.78	228.92
967.08	228.88
967.37	228.92
967.67	228.95
967.96	228.98
968.26	228.92
968.55	228.91
968.85	228.80
969.14	228.76
969.43	228.71
969.73	228.66
970.02	228.56
970.32	228.61
970.61	228.61
970.91	228.55
971.20	228.49
971.49	228.36
971.79	228.27
972.08	228.04
972.38	228.04
972.67	228.03
972.96	228.03
973.26	227.85
973.55	227.88
973.85	227.83
974.14	227.76
974.43	227.76
974.73	227.65
975.02	227.69
975.31	227.56
975.61	227.47
975.90	227.38
976.19	227.43
976.49	227.41
976.78	227.50
977.07	227.44
977.37	227.48
977.66	227.63
977.95	227.50
978.24	227.58
978.54	227.68
978.83	227.69
979.12	227.60
979.42	227.61
979.71	227.52
980.00	227.60
980.29	227.61
980.59	227.69
980.88	227.79
981.17	227.77
981.46	227.88
981.76	227.88
982.05	228.00
982.34	228.01
982.63	227.98
982.93	228.06
983.22	228.12
983.51	228.14
983.80	228.17
984.09	228.33
984.39	228.38
984.68	228.30
984.97	228.35
985.26	228.38
985.55	228.45
985.85	228.58
986.14	228.53
986.43	228.61
986.72	228.57
987.01	228.56
987.30	228.64
987.59	228.78
987.89	228.85
988.18	228.85
988.47	228.88
988.76	228.95
989.05	228.83
989.34	228.87
989.63	228.99
989.92	229.10
990.22	229.10
990.51	229.14
990.80	229.20
991.09	229.28
991.38	229.42
991.67	229.45
991.96	229.40
992.25	229.45
992.54	229.42
992.83	229.53
993.12	229.56
993.41	229.59
993.70	229.65
993.99	229.70
994.28	229.68
994.58	229.70
994.87	229.71
995.16	229.68
995.45	229.72
995.74	229.59
996.03	229.63
996.32	229.77
996.61	229.83
996.90	229.80
997.19	229.66
997.48	229.68
997.77	229.72
998.06	229.70
998.34	229.63
998.63	229.68
998.92	229.63
999.21	229.68
999.50	229.71
999.79	229.54
1000.08	229.62
1000.37	229.64
1000.66	229.65
1000.95	229.61
1001.24	229.67
1001.53	229.59
1001.82	229.62
1002.11	229.52
1002.40	229.41
1002.68	229.35
1002.97	229.49
1003.26	229.58
1003.55	229.46
1003.84	229.46
1004.13	229.53
1004.42	229.64
1004.71	229.61
1004.99	229.55
1005.28	229.57
1005.57	229.39
1005.86	229.42
1006.15	229.37
1006.44	229.39
1006.72	229.26
1007.01	229.26
1007.30	229.25
1007.59	229.33
1007.88	229.19
1008.17	229.10
1008.45	229.02
1008.74	228.87
1009.03	228.63
1009.32	228.53
1009.60	228.47
1009.89	228.31
1010.18	228.10
1010.47	227.94
1010.76	227.82
1011.04	227.75
1011.33	227.65
1011.62	227.74
1011.91	227.67
1012.19	227.58
1012.48	227.43
1012.77	227.42
1013.05	227.40
1013.34	227.28
1013.63	227.08
1013.92	227.11
1014.20	227.10
1014.49	227.11
1014.78	227.15
1015.06	227.07
1015.35	227.06
1015.64	227.07
1015.92	227.15
1016.21	227.20
1016.50	227.26
1016.78	227.36
1017.07	227.46
1017.36	227.44
1017.64	227.41
1017.93	227.42
1018.22	227.40
1018.50	227.41
1018.79	227.38
1019.08	227.24
1019.36	227.32
1019.65	227.41
1019.93	227.42
1020.22	227.39
1020.51	227.42
1020.79	227.39
1021.08	227.60
1021.36	227.40
1021.65	226.00
1021.94	225.50
1022.22	228.00
1022.51	227.40
1022.79	226.70
1023.08	226.90
1023.36	228.40
1023.65	226.70
>>>>>End Processed Spectral Data<<<<<
