SpectraSuite Data File
++++++++++++++++++++++++++++++++++++
Date: Fri Feb 01 14:38:36 EST 2013
User: group
Dark Spectrum Present: No
Reference Spectrum Present: No
Number of Sampled Component Spectra: 1
Spectrometers: USB2E7196
Integration Time (usec): 70000 (USB2E7196)
Spectra Averaged: 10 (USB2E7196)
Boxcar Smoothing: 10 (USB2E7196)
Correct for Electrical Dark: No (USB2E7196)
Strobe/Lamp Enabled: No (USB2E7196)
Correct for Detector Non-linearity: No (USB2E7196)
Correct for Stray Light: No (USB2E7196)
Number of Pixels in Processed Spectrum: 2048
>>>>>Begin Processed Spectral Data<<<<<
339.09	0.00
339.48	215.60
339.86	217.50
340.24	221.10
340.63	220.70
341.01	226.00
341.39	223.10
341.78	224.50
342.16	225.10
342.54	226.20
342.93	214.85
343.31	225.69
343.69	226.32
344.07	226.85
344.46	227.18
344.84	227.61
345.22	227.75
345.60	228.01
345.99	228.18
346.37	228.35
346.75	228.51
347.13	228.49
347.52	228.61
347.90	228.63
348.28	228.60
348.66	228.62
349.05	228.63
349.43	228.74
349.81	228.67
350.19	228.69
350.57	228.79
350.96	228.91
351.34	228.95
351.72	228.89
352.10	228.89
352.48	228.96
352.87	229.00
353.25	229.01
353.63	228.94
354.01	229.02
354.39	229.09
354.77	229.16
355.15	229.28
355.54	229.26
355.92	229.39
356.30	229.50
356.68	229.58
357.06	229.70
357.44	229.64
357.82	229.72
358.20	229.80
358.58	229.78
358.97	229.80
359.35	229.98
359.73	230.18
360.11	230.22
360.49	230.28
360.87	230.20
361.25	230.30
361.63	230.48
362.01	230.46
362.39	230.44
362.77	230.38
363.15	230.27
363.53	230.37
363.91	230.23
364.29	230.30
364.67	230.10
365.05	230.07
365.43	230.20
365.81	230.24
366.19	230.29
366.57	230.39
366.95	230.28
367.33	230.11
367.71	230.01
368.09	230.05
368.47	229.92
368.85	229.98
369.23	229.89
369.61	229.71
369.99	229.69
370.37	229.66
370.75	229.75
371.13	229.71
371.51	229.64
371.89	229.68
372.27	229.57
372.65	229.65
373.03	229.62
373.41	229.50
373.78	229.42
374.16	229.28
374.54	229.11
374.92	229.15
375.30	229.09
375.68	228.99
376.06	228.86
376.44	228.77
376.82	228.67
377.19	228.59
377.57	228.56
377.95	228.43
378.33	228.29
378.71	228.05
379.09	227.95
379.47	227.89
379.84	227.77
380.22	227.70
380.60	227.58
380.98	227.36
381.36	227.25
381.73	227.16
382.11	227.08
382.49	227.02
382.87	226.88
383.25	226.82
383.62	226.99
384.00	226.86
384.38	226.86
384.76	226.76
385.13	226.79
385.51	226.75
385.89	226.70
386.27	226.59
386.64	226.44
387.02	226.31
387.40	226.25
387.78	226.10
388.15	226.10
388.53	225.99
388.91	225.96
389.29	225.84
389.66	225.89
390.04	225.87
390.42	225.78
390.79	225.78
391.17	225.70
391.55	225.38
391.92	225.44
392.30	225.48
392.68	225.48
393.05	225.50
393.43	225.60
393.81	225.69
394.18	225.81
394.56	225.86
394.94	226.02
395.31	226.00
395.69	226.16
396.06	226.21
396.44	226.35
396.82	226.49
397.19	226.73
397.57	226.64
397.95	226.76
398.32	226.86
398.70	226.92
399.07	227.13
399.45	227.27
399.82	227.43
400.20	227.50
400.58	227.57
400.95	227.53
401.33	227.64
401.70	227.85
402.08	227.97
402.45	228.21
402.83	228.39
403.20	228.54
403.58	228.65
403.95	228.81
404.33	228.92
404.71	229.02
405.08	229.35
405.46	229.50
405.83	229.62
406.21	229.86
406.58	230.09
406.96	230.30
407.33	230.60
407.70	230.75
408.08	231.16
408.45	231.45
408.83	231.78
409.20	231.93
409.58	232.10
409.95	232.41
410.33	232.72
410.70	233.00
411.08	233.37
411.45	233.74
411.82	234.06
412.20	234.46
412.57	235.03
412.95	235.18
413.32	235.70
413.69	236.10
414.07	236.55
414.44	237.15
414.82	237.60
415.19	238.13
415.56	238.72
415.94	239.34
416.31	240.05
416.68	240.77
417.06	241.68
417.43	242.55
417.81	243.51
418.18	244.42
418.55	245.42
418.93	246.43
419.30	247.56
419.67	248.72
420.04	249.90
420.42	251.15
420.79	252.68
421.16	254.09
421.54	255.61
421.91	257.29
422.28	258.72
422.66	260.44
423.03	262.09
423.40	263.88
423.77	265.57
424.15	267.44
424.52	269.31
424.89	271.30
425.26	273.19
425.64	275.03
426.01	277.10
426.38	279.27
426.75	281.54
427.13	283.82
427.50	286.12
427.87	288.63
428.24	291.00
428.61	293.22
428.99	295.81
429.36	298.60
429.73	301.13
430.10	303.97
430.47	306.78
430.85	309.77
431.22	312.76
431.59	316.02
431.96	318.90
432.33	322.31
432.70	325.64
433.08	329.49
433.45	333.05
433.82	336.49
434.19	340.28
434.56	344.08
434.93	347.74
435.30	351.52
435.68	355.35
436.05	359.29
436.42	363.30
436.79	366.90
437.16	370.80
437.53	374.81
437.90	378.84
438.27	382.73
438.64	386.66
439.01	390.46
439.38	393.68
439.75	397.02
440.13	400.60
440.50	403.98
440.87	406.83
441.24	409.88
441.61	413.20
441.98	415.60
442.35	418.42
442.72	421.19
443.09	423.94
443.46	425.85
443.83	426.92
444.20	427.71
444.57	429.31
444.94	430.18
445.31	431.03
445.68	431.91
446.05	432.40
446.42	432.22
446.79	431.85
447.16	431.68
447.53	431.87
447.90	430.76
448.27	429.50
448.64	427.60
449.01	426.26
449.37	424.00
449.74	421.71
450.11	419.02
450.48	415.99
450.85	412.71
451.22	409.94
451.59	407.38
451.96	405.15
452.33	401.70
452.70	398.54
453.07	394.86
453.43	390.96
453.80	387.25
454.17	383.80
454.54	380.58
454.91	376.98
455.28	373.20
455.65	369.78
456.02	366.61
456.38	363.82
456.75	360.25
457.12	357.15
457.49	354.13
457.86	351.10
458.23	348.54
458.59	345.77
458.96	342.97
459.33	340.57
459.70	337.97
460.07	335.90
460.43	333.41
460.80	331.16
461.17	329.24
461.54	327.21
461.91	325.23
462.27	323.13
462.64	321.40
463.01	319.41
463.38	317.63
463.74	315.58
464.11	313.90
464.48	312.45
464.85	310.90
465.21	309.75
465.58	308.42
465.95	306.93
466.32	305.68
466.68	304.34
467.05	303.09
467.42	301.87
467.78	300.56
468.15	299.37
468.52	298.39
468.88	297.18
469.25	295.99
469.62	295.01
469.98	294.00
470.35	292.95
470.72	292.07
471.08	291.08
471.45	290.32
471.82	289.53
472.18	288.57
472.55	287.68
472.92	286.73
473.28	285.84
473.65	284.96
474.02	284.15
474.38	283.46
474.75	282.84
475.11	282.15
475.48	281.53
475.85	280.96
476.21	280.33
476.58	279.72
476.94	279.34
477.31	278.76
477.67	278.28
478.04	277.80
478.41	277.35
478.77	277.13
479.14	276.62
479.50	276.20
479.87	276.04
480.23	275.86
480.60	275.54
480.96	275.34
481.33	275.32
481.69	275.19
482.06	275.05
482.42	274.73
482.79	274.66
483.15	274.52
483.52	274.59
483.88	274.50
484.25	274.33
484.61	274.12
484.98	274.17
485.34	274.20
485.71	274.28
486.07	274.33
486.44	274.07
486.80	274.14
487.17	274.05
487.53	274.13
487.90	274.22
488.26	274.52
488.62	274.72
488.99	274.69
489.35	274.88
489.72	274.96
490.08	275.10
490.44	275.16
490.81	275.35
491.17	275.48
491.54	275.80
491.90	276.06
492.26	276.39
492.63	276.62
492.99	276.71
493.36	277.06
493.72	277.34
494.08	277.74
494.45	278.17
494.81	278.63
495.17	278.82
495.54	279.19
495.90	279.37
496.26	279.61
496.63	280.04
496.99	280.25
497.35	280.52
497.72	280.96
498.08	281.22
498.44	281.51
498.80	281.76
499.17	282.06
499.53	282.43
499.89	282.86
500.26	283.14
500.62	283.67
500.98	283.86
501.34	284.14
501.71	284.50
502.07	284.73
502.43	285.05
502.79	285.39
503.16	285.62
503.52	285.99
503.88	286.33
504.24	286.60
504.60	287.04
504.97	287.47
505.33	287.79
505.69	288.40
506.05	288.93
506.41	289.52
506.78	289.95
507.14	290.32
507.50	290.77
507.86	291.23
508.22	291.67
508.59	292.20
508.95	292.70
509.31	293.25
509.67	293.86
510.03	294.45
510.39	295.13
510.75	295.85
511.12	296.51
511.48	297.18
511.84	297.91
512.20	298.55
512.56	299.39
512.92	300.22
513.28	301.02
513.64	301.86
514.00	302.73
514.37	303.71
514.73	304.71
515.09	305.86
515.45	307.02
515.81	308.26
516.17	309.47
516.53	310.93
516.89	312.18
517.25	313.60
517.61	315.17
517.97	316.78
518.33	318.38
518.69	320.06
519.05	321.88
519.41	323.71
519.77	325.76
520.13	327.73
520.49	329.76
520.85	331.68
521.21	333.99
521.57	336.38
521.93	338.69
522.29	341.17
522.65	343.48
523.01	346.07
523.37	348.67
523.73	351.33
524.09	353.99
524.45	356.92
524.81	359.75
525.17	362.84
525.53	365.94
525.89	369.04
526.25	372.46
526.61	375.78
526.97	379.21
527.33	382.77
527.68	386.56
528.04	390.21
528.40	394.22
528.76	397.99
529.12	401.73
529.48	405.92
529.84	410.04
530.20	414.32
530.56	418.78
530.91	423.19
531.27	427.91
531.63	432.66
531.99	437.38
532.35	442.18
532.71	446.90
533.07	451.73
533.42	456.91
533.78	461.88
534.14	466.94
534.50	471.98
534.86	477.20
535.21	482.24
535.57	487.65
535.93	493.10
536.29	498.76
536.65	504.36
537.00	509.68
537.36	515.26
537.72	520.92
538.08	526.48
538.44	531.92
538.79	537.56
539.15	543.16
539.51	548.77
539.87	554.81
540.22	560.71
540.58	566.83
540.94	572.65
541.29	578.55
541.65	584.60
542.01	590.91
542.37	596.90
542.72	603.12
543.08	609.20
543.44	615.09
543.79	620.69
544.15	626.78
544.51	633.02
544.87	639.30
545.22	645.44
545.58	651.66
545.94	657.90
546.29	664.05
546.65	670.24
547.01	676.40
547.36	682.13
547.72	688.06
548.07	694.06
548.43	700.03
548.79	706.09
549.14	711.88
549.50	717.71
549.86	723.29
550.21	729.16
550.57	735.23
550.92	741.26
551.28	747.49
551.64	753.56
551.99	759.62
552.35	765.29
552.70	771.11
553.06	776.80
553.41	782.74
553.77	788.57
554.13	794.11
554.48	800.12
554.84	806.04
555.19	811.58
555.55	817.25
555.90	822.55
556.26	828.07
556.61	833.69
556.97	838.99
557.32	844.78
557.68	850.04
558.03	855.19
558.39	860.39
558.74	865.65
559.10	870.55
559.45	875.51
559.81	881.08
560.16	885.88
560.52	890.92
560.87	895.89
561.23	900.45
561.58	905.53
561.94	909.90
562.29	914.34
562.64	919.04
563.00	923.32
563.35	928.09
563.71	932.93
564.06	937.40
564.42	941.70
564.77	945.84
565.12	950.33
565.48	954.74
565.83	958.78
566.19	962.95
566.54	967.03
566.89	970.84
567.25	974.60
567.60	978.80
567.96	982.70
568.31	986.44
568.66	990.21
569.02	993.54
569.37	997.03
569.72	1000.76
570.08	1004.01
570.43	1007.28
570.78	1010.45
571.14	1013.19
571.49	1016.14
571.84	1019.45
572.20	1022.13
572.55	1024.46
572.90	1026.61
573.26	1029.19
573.61	1031.07
573.96	1033.12
574.31	1034.98
574.67	1036.15
575.02	1037.55
575.37	1039.29
575.72	1040.71
576.08	1042.49
576.43	1044.26
576.78	1045.65
577.13	1046.83
577.49	1048.48
577.84	1049.65
578.19	1050.75
578.54	1051.72
578.90	1052.59
579.25	1052.84
579.60	1054.00
579.95	1054.64
580.30	1055.10
580.66	1055.68
581.01	1056.40
581.36	1056.90
581.71	1057.89
582.06	1058.63
582.42	1058.99
582.77	1059.07
583.12	1059.29
583.47	1059.37
583.82	1059.33
584.17	1059.74
584.53	1059.96
584.88	1059.79
585.23	1059.50
585.58	1059.32
585.93	1059.46
586.28	1059.41
586.63	1059.54
586.98	1059.43
587.34	1059.48
587.69	1059.53
588.04	1058.96
588.39	1058.69
588.74	1057.90
589.09	1056.91
589.44	1056.00
589.79	1055.54
590.14	1054.88
590.49	1053.91
590.84	1052.86
591.19	1051.78
591.54	1050.28
591.89	1048.46
592.25	1047.27
592.60	1046.12
592.95	1044.70
593.30	1042.93
593.65	1041.15
594.00	1039.39
594.35	1037.97
594.70	1036.10
595.05	1034.55
595.40	1032.93
595.75	1031.14
596.10	1029.96
596.45	1028.63
596.80	1027.40
597.15	1025.65
597.50	1023.79
597.85	1022.45
598.19	1021.10
598.54	1019.81
598.89	1018.35
599.24	1017.21
599.59	1015.34
599.94	1013.72
600.29	1012.00
600.64	1010.40
600.99	1008.56
601.34	1006.90
601.69	1004.39
602.04	1002.68
602.39	1000.76
602.74	999.35
603.08	997.52
603.43	995.72
603.78	993.73
604.13	991.79
604.48	989.87
604.83	988.08
605.18	985.89
605.53	983.33
605.87	980.57
606.22	978.69
606.57	976.19
606.92	973.82
607.27	971.49
607.62	969.57
607.96	967.10
608.31	965.03
608.66	962.46
609.01	959.82
609.36	956.83
609.70	953.44
610.05	950.35
610.40	947.47
610.75	944.34
611.10	941.25
611.44	937.65
611.79	934.74
612.14	931.44
612.49	927.85
612.83	924.40
613.18	921.39
613.53	917.71
613.88	914.38
614.22	911.16
614.57	907.72
614.92	904.07
615.27	900.66
615.61	897.13
615.96	893.79
616.31	890.65
616.65	887.88
617.00	885.13
617.35	881.76
617.70	878.31
618.04	874.96
618.39	871.66
618.74	868.89
619.08	865.25
619.43	862.27
619.78	859.39
620.12	856.43
620.47	853.06
620.82	849.87
621.16	846.60
621.51	843.70
621.85	840.48
622.20	837.02
622.55	834.10
622.89	830.90
623.24	827.81
623.59	824.77
623.93	821.55
624.28	818.62
624.62	815.50
624.97	812.65
625.32	809.45
625.66	806.34
626.01	803.05
626.35	800.01
626.70	796.60
627.04	793.66
627.39	790.47
627.73	787.43
628.08	784.38
628.43	781.41
628.77	777.96
629.12	774.79
629.46	771.57
629.81	768.12
630.15	764.60
630.50	761.11
630.84	757.53
631.19	753.77
631.53	750.10
631.88	746.62
632.22	742.79
632.57	739.60
632.91	735.98
633.26	732.68
633.60	729.18
633.95	725.77
634.29	722.28
634.64	719.18
634.98	715.76
635.32	712.40
635.67	709.25
636.01	706.03
636.36	702.66
636.70	699.76
637.05	696.73
637.39	693.88
637.73	690.84
638.08	688.15
638.42	685.65
638.77	682.74
639.11	679.87
639.45	676.98
639.80	673.86
640.14	671.00
640.49	667.91
640.83	664.83
641.17	662.02
641.52	658.93
641.86	655.73
642.20	652.98
642.55	650.08
642.89	647.12
643.23	644.20
643.58	641.55
643.92	638.44
644.26	635.30
644.61	632.52
644.95	629.77
645.29	626.47
645.64	623.14
645.98	620.10
646.32	617.20
646.66	614.15
647.01	611.21
647.35	608.42
647.69	605.55
648.04	602.66
648.38	599.55
648.72	596.40
649.06	593.30
649.41	590.11
649.75	586.89
650.09	583.69
650.43	580.52
650.78	577.23
651.12	574.37
651.46	571.41
651.80	568.29
652.14	565.59
652.49	562.66
652.83	559.90
653.17	557.13
653.51	554.09
653.85	551.25
654.20	548.18
654.54	545.05
654.88	542.09
655.22	539.13
655.56	536.19
655.90	533.43
656.25	530.80
656.59	528.15
656.93	525.62
657.27	523.10
657.61	520.23
657.95	517.97
658.29	515.35
658.64	512.80
658.98	510.20
659.32	507.17
659.66	504.76
660.00	502.16
660.34	499.37
660.68	496.64
661.02	494.10
661.36	491.80
661.70	489.47
662.05	487.20
662.39	484.99
662.73	482.72
663.07	480.56
663.41	478.27
663.75	475.88
664.09	473.54
664.43	471.13
664.77	468.99
665.11	466.66
665.45	464.38
665.79	462.12
666.13	459.80
666.47	457.64
666.81	455.37
667.15	452.93
667.49	450.78
667.83	448.91
668.17	446.74
668.51	444.60
668.85	442.50
669.19	440.41
669.53	438.38
669.87	436.23
670.21	434.07
670.55	431.97
670.89	430.20
671.23	428.20
671.57	426.26
671.91	424.46
672.25	422.42
672.58	420.61
672.92	418.71
673.26	417.00
673.60	415.42
673.94	413.70
674.28	412.22
674.62	410.71
674.96	408.80
675.30	407.31
675.64	405.62
675.97	403.80
676.31	402.23
676.65	400.54
676.99	399.11
677.33	397.65
677.67	396.25
678.01	394.56
678.34	393.03
678.68	391.57
679.02	390.05
679.36	388.57
679.70	386.92
680.04	385.46
680.37	383.89
680.71	382.22
681.05	380.90
681.39	379.54
681.73	378.14
682.06	376.85
682.40	375.53
682.74	374.10
683.08	372.91
683.42	371.41
683.75	370.07
684.09	368.65
684.43	367.14
684.77	365.68
685.10	364.31
685.44	362.94
685.78	361.57
686.12	360.15
686.45	358.79
686.79	357.50
687.13	356.28
687.46	354.95
687.80	353.73
688.14	352.25
688.48	350.74
688.81	349.29
689.15	348.04
689.49	346.54
689.82	345.32
690.16	344.05
690.50	342.85
690.83	341.70
691.17	340.40
691.51	339.32
691.84	338.15
692.18	336.99
692.52	335.71
692.85	334.74
693.19	333.63
693.52	332.53
693.86	331.32
694.20	330.12
694.53	329.08
694.87	327.88
695.21	326.73
695.54	325.58
695.88	324.39
696.21	323.16
696.55	322.19
696.88	321.10
697.22	320.00
697.56	318.99
697.89	317.91
698.23	316.91
698.56	315.95
698.90	315.00
699.23	313.91
699.57	313.00
699.90	311.80
700.24	310.81
700.58	309.78
700.91	308.97
701.25	308.15
701.58	307.35
701.92	306.48
702.25	305.57
702.59	304.77
702.92	304.15
703.26	303.47
703.59	302.65
703.93	302.05
704.26	301.17
704.60	300.42
704.93	299.65
705.26	298.90
705.60	298.07
705.93	297.21
706.27	296.48
706.60	295.72
706.94	295.03
707.27	294.30
707.61	293.59
707.94	292.83
708.27	292.00
708.61	291.11
708.94	290.50
709.28	289.91
709.61	289.27
709.94	288.63
710.28	287.84
710.61	287.21
710.95	286.38
711.28	285.88
711.61	285.05
711.95	284.35
712.28	283.56
712.61	282.95
712.95	282.50
713.28	281.98
713.61	281.41
713.95	280.84
714.28	280.27
714.61	279.68
714.95	279.17
715.28	278.59
715.61	278.09
715.95	277.55
716.28	276.98
716.61	276.40
716.95	275.71
717.28	275.19
717.61	274.61
717.94	274.04
718.28	273.40
718.61	272.97
718.94	272.54
719.27	272.23
719.61	271.80
719.94	271.23
720.27	270.69
720.60	270.18
720.94	269.64
721.27	269.19
721.60	268.85
721.93	268.27
722.27	267.91
722.60	267.49
722.93	266.93
723.26	266.49
723.59	266.14
723.93	265.81
724.26	265.50
724.59	265.14
724.92	264.85
725.25	264.60
725.59	264.23
725.92	263.93
726.25	263.56
726.58	263.10
726.91	262.76
727.24	262.44
727.57	262.21
727.91	261.92
728.24	261.64
728.57	261.24
728.90	261.03
729.23	260.76
729.56	260.48
729.89	260.21
730.22	259.94
730.55	259.61
730.89	259.26
731.22	258.91
731.55	258.56
731.88	258.22
732.21	257.82
732.54	257.44
732.87	257.06
733.20	256.74
733.53	256.45
733.86	256.10
734.19	255.80
734.52	255.44
734.85	255.22
735.18	254.80
735.51	254.60
735.84	254.31
736.17	254.04
736.50	253.72
736.83	253.70
737.16	253.44
737.49	253.09
737.82	252.80
738.15	252.50
738.48	252.25
738.81	252.11
739.14	251.98
739.47	251.76
739.80	251.44
740.13	251.31
740.46	251.05
740.79	250.86
741.12	250.63
741.45	250.43
741.78	250.03
742.11	249.92
742.44	249.54
742.77	249.21
743.10	248.95
743.43	248.61
743.75	248.04
744.08	247.97
744.41	247.76
744.74	247.59
745.07	247.39
745.40	247.18
745.73	246.96
746.06	246.62
746.39	246.50
746.71	246.24
747.04	246.01
747.37	245.81
747.70	245.57
748.03	245.36
748.36	245.27
748.68	245.06
749.01	244.80
749.34	244.71
749.67	244.62
750.00	244.44
750.33	244.47
750.65	244.32
750.98	244.00
751.31	243.83
751.64	243.69
751.97	243.62
752.29	243.34
752.62	243.03
752.95	242.83
753.28	242.52
753.60	242.45
753.93	242.26
754.26	242.14
754.59	241.92
754.91	241.78
755.24	241.49
755.57	241.36
755.90	241.21
756.22	241.05
756.55	240.92
756.88	240.64
757.20	240.33
757.53	240.17
757.86	239.91
758.19	239.83
758.51	239.62
758.84	239.41
759.17	239.31
759.49	239.19
759.82	239.25
760.15	239.17
760.47	239.10
760.80	238.89
761.13	238.68
761.45	238.59
761.78	238.33
762.11	238.19
762.43	238.05
762.76	237.91
763.08	237.84
763.41	237.63
763.74	237.54
764.06	237.42
764.39	237.30
764.71	237.23
765.04	237.09
765.37	236.98
765.69	236.79
766.02	236.71
766.34	236.63
766.67	236.32
767.00	236.35
767.32	236.33
767.65	236.40
767.97	236.30
768.30	236.22
768.62	236.13
768.95	236.02
769.27	235.91
769.60	235.81
769.92	235.64
770.25	235.58
770.57	235.51
770.90	235.49
771.22	235.47
771.55	235.36
771.87	235.32
772.20	235.14
772.52	235.26
772.85	235.47
773.17	235.36
773.50	235.30
773.82	235.07
774.15	234.86
774.47	234.61
774.80	234.60
775.12	234.50
775.45	234.49
775.77	234.40
776.09	234.39
776.42	234.38
776.74	234.40
777.07	234.35
777.39	234.34
777.72	234.24
778.04	234.16
778.36	234.14
778.69	234.16
779.01	234.23
779.33	234.13
779.66	233.91
779.98	233.89
780.31	233.98
780.63	234.09
780.95	234.00
781.28	234.00
781.60	233.92
781.92	233.90
782.25	233.86
782.57	233.93
782.89	233.94
783.22	233.86
783.54	233.73
783.86	233.68
784.19	233.51
784.51	233.52
784.83	233.44
785.16	233.38
785.48	233.27
785.80	233.24
786.12	233.17
786.45	233.12
786.77	233.15
787.09	233.06
787.42	232.98
787.74	233.00
788.06	232.97
788.38	232.84
788.71	232.83
789.03	232.87
789.35	232.85
789.67	232.76
789.99	232.73
790.32	232.77
790.64	232.74
790.96	232.90
791.28	232.84
791.61	232.81
791.93	232.86
792.25	232.73
792.57	232.84
792.89	232.70
793.21	232.64
793.54	232.54
793.86	232.50
794.18	232.43
794.50	232.36
794.82	232.33
795.14	232.45
795.47	232.41
795.79	232.30
796.11	232.25
796.43	232.25
796.75	232.20
797.07	232.11
797.39	232.05
797.71	231.84
798.04	231.81
798.36	231.82
798.68	231.67
799.00	231.74
799.32	231.53
799.64	231.55
799.96	231.50
800.28	231.55
800.60	231.44
800.92	231.35
801.24	231.31
801.56	231.24
801.89	231.13
802.21	231.13
802.53	231.03
802.85	230.97
803.17	230.97
803.49	230.89
803.81	230.82
804.13	230.75
804.45	230.71
804.77	230.64
805.09	230.60
805.41	230.57
805.73	230.58
806.05	230.54
806.37	230.49
806.69	230.44
807.01	230.29
807.33	230.30
807.65	230.29
807.97	230.25
808.28	230.20
808.60	230.19
808.92	230.05
809.24	230.17
809.56	230.08
809.88	230.02
810.20	229.93
810.52	229.91
810.84	229.86
811.16	229.87
811.48	229.88
811.80	229.88
812.12	229.87
812.43	229.79
812.75	229.75
813.07	229.65
813.39	229.77
813.71	229.76
814.03	229.69
814.35	229.68
814.67	229.74
814.98	229.76
815.30	229.67
815.62	229.61
815.94	229.46
816.26	229.50
816.58	229.40
816.89	229.50
817.21	229.59
817.53	229.64
817.85	229.67
818.17	229.61
818.48	229.55
818.80	229.65
819.12	229.67
819.44	229.67
819.76	229.70
820.07	229.52
820.39	229.59
820.71	229.64
821.03	229.68
821.34	229.65
821.66	229.64
821.98	229.70
822.30	229.77
822.61	229.96
822.93	229.92
823.25	229.93
823.57	229.87
823.88	229.83
824.20	229.73
824.52	229.69
824.83	229.66
825.15	229.77
825.47	229.70
825.79	229.73
826.10	229.75
826.42	229.76
826.74	229.73
827.05	229.67
827.37	229.64
827.69	229.66
828.00	229.70
828.32	229.77
828.64	229.75
828.95	229.80
829.27	229.69
829.58	229.69
829.90	229.74
830.22	229.85
830.53	229.70
830.85	229.71
831.17	229.73
831.48	229.82
831.80	229.77
832.11	229.79
832.43	229.74
832.75	229.76
833.06	229.86
833.38	229.83
833.69	229.80
834.01	229.77
834.32	229.63
834.64	229.54
834.96	229.46
835.27	229.55
835.59	229.46
835.90	229.49
836.22	229.43
836.53	229.30
836.85	229.23
837.16	229.51
837.48	229.56
837.79	229.53
838.11	229.50
838.42	229.47
838.74	229.46
839.05	229.32
839.37	229.23
839.68	229.13
840.00	229.12
840.31	229.12
840.63	229.11
840.94	229.08
841.26	229.07
841.57	228.94
841.88	228.74
842.20	228.80
842.51	228.79
842.83	228.82
843.14	228.98
843.46	228.83
843.77	228.65
844.08	228.57
844.40	228.49
844.71	228.36
845.03	228.28
845.34	228.17
845.65	228.24
845.97	228.22
846.28	228.10
846.60	228.12
846.91	228.00
847.22	227.99
847.54	228.08
847.85	228.02
848.16	228.04
848.48	228.11
848.79	228.04
849.10	227.98
849.42	227.97
849.73	227.84
850.04	227.93
850.36	227.87
850.67	227.89
850.98	227.95
851.30	227.97
851.61	227.99
851.92	228.03
852.23	228.10
852.55	228.13
852.86	228.15
853.17	228.16
853.49	228.27
853.80	228.37
854.11	228.27
854.42	228.32
854.74	228.30
855.05	228.25
855.36	228.25
855.67	228.27
855.99	228.28
856.30	228.59
856.61	228.57
856.92	228.57
857.23	228.57
857.55	228.52
857.86	228.55
858.17	228.61
858.48	228.63
858.79	228.52
859.11	228.57
859.42	228.67
859.73	228.65
860.04	228.64
860.35	228.49
860.66	228.53
860.98	228.50
861.29	228.61
861.60	228.62
861.91	228.65
862.22	228.59
862.53	228.59
862.84	228.34
863.16	228.45
863.47	228.47
863.78	228.49
864.09	228.51
864.40	228.60
864.71	228.59
865.02	228.57
865.33	228.53
865.64	228.43
865.95	228.33
866.27	228.43
866.58	228.43
866.89	228.54
867.20	228.60
867.51	228.55
867.82	228.53
868.13	228.61
868.44	228.51
868.75	228.58
869.06	228.55
869.37	228.52
869.68	228.42
869.99	228.46
870.30	228.47
870.61	228.52
870.92	228.46
871.23	228.41
871.54	228.47
871.85	228.59
872.16	228.70
872.47	228.70
872.78	228.67
873.09	228.59
873.40	228.59
873.71	228.51
874.02	228.70
874.33	228.78
874.64	228.73
874.95	228.87
875.26	228.86
875.56	228.94
875.87	228.95
876.18	229.01
876.49	229.07
876.80	229.10
877.11	229.08
877.42	229.08
877.73	229.08
878.04	229.00
878.35	229.00
878.66	228.84
878.96	228.87
879.27	228.84
879.58	228.79
879.89	228.74
880.20	228.83
880.51	228.70
880.82	228.59
881.12	228.56
881.43	228.39
881.74	228.25
882.05	228.13
882.36	228.17
882.67	228.16
882.97	228.02
883.28	227.95
883.59	227.89
883.90	227.87
884.21	227.82
884.51	227.78
884.82	227.73
885.13	227.82
885.44	227.77
885.74	227.83
886.05	227.79
886.36	227.77
886.67	227.65
886.98	227.71
887.28	227.83
887.59	227.81
887.90	227.84
888.20	227.87
888.51	228.02
888.82	227.98
889.13	227.96
889.43	228.10
889.74	227.96
890.05	227.98
890.35	227.96
890.66	227.99
890.97	227.99
891.28	227.93
891.58	227.97
891.89	227.97
892.20	227.88
892.50	227.90
892.81	227.86
893.12	227.93
893.42	227.84
893.73	227.73
894.04	227.84
894.34	227.87
894.65	227.90
894.95	227.74
895.26	227.71
895.57	227.80
895.87	227.70
896.18	227.78
896.48	227.76
896.79	227.73
897.10	227.77
897.40	227.84
897.71	227.85
898.01	227.76
898.32	227.88
898.63	227.91
898.93	228.01
899.24	228.07
899.54	228.10
899.85	228.16
900.15	228.13
900.46	228.03
900.76	228.12
901.07	228.10
901.38	228.13
901.68	228.21
901.99	228.10
902.29	228.04
902.60	228.02
902.90	228.01
903.21	228.05
903.51	228.00
903.82	227.98
904.12	227.99
904.43	228.05
904.73	228.05
905.03	227.95
905.34	228.13
905.64	228.11
905.95	227.99
906.25	228.00
906.56	228.00
906.86	228.01
907.17	227.98
907.47	227.95
907.77	227.99
908.08	227.91
908.38	227.89
908.69	228.04
908.99	228.05
909.30	228.16
909.60	228.10
909.90	228.20
910.21	228.20
910.51	228.20
910.81	228.16
911.12	228.07
911.42	228.11
911.73	227.91
912.03	227.94
912.33	228.09
912.64	228.04
912.94	228.02
913.24	228.00
913.55	228.00
913.85	228.01
914.15	227.94
914.46	227.93
914.76	227.97
915.06	227.88
915.37	227.93
915.67	227.94
915.97	228.09
916.27	228.02
916.58	228.01
916.88	228.00
917.18	228.02
917.49	228.20
917.79	228.19
918.09	228.18
918.39	228.16
918.70	228.23
919.00	228.25
919.30	228.37
919.60	228.42
919.91	228.32
920.21	228.36
920.51	228.40
920.81	228.48
921.12	228.43
921.42	228.40
921.72	228.43
922.02	228.31
922.32	228.28
922.63	228.26
922.93	228.40
923.23	228.40
923.53	228.42
923.83	228.28
924.13	228.42
924.44	228.46
924.74	228.47
925.04	228.43
925.34	228.40
925.64	228.30
925.94	228.24
926.24	228.39
926.55	228.40
926.85	228.45
927.15	228.40
927.45	228.40
927.75	228.43
928.05	228.40
928.35	228.53
928.65	228.54
928.95	228.58
929.26	228.46
929.56	228.51
929.86	228.50
930.16	228.51
930.46	228.43
930.76	228.38
931.06	228.35
931.36	228.32
931.66	228.39
931.96	228.50
932.26	228.52
932.56	228.44
932.86	228.49
933.16	228.38
933.46	228.38
933.76	228.33
934.06	228.28
934.36	228.33
934.66	228.25
934.96	228.30
935.26	228.35
935.56	228.43
935.86	228.41
936.16	228.46
936.46	228.45
936.76	228.41
937.06	228.44
937.36	228.40
937.66	228.36
937.96	228.32
938.26	228.20
938.56	228.20
938.86	228.22
939.16	228.20
939.46	228.38
939.76	228.49
940.06	228.50
940.35	228.58
940.65	228.49
940.95	228.46
941.25	228.35
941.55	228.33
941.85	228.16
942.15	228.10
942.45	228.17
942.75	228.18
943.04	228.19
943.34	228.17
943.64	228.14
943.94	228.08
944.24	228.15
944.54	228.24
944.84	228.35
945.13	228.30
945.43	228.33
945.73	228.17
946.03	228.03
946.33	228.11
946.62	228.01
946.92	228.09
947.22	228.10
947.52	228.00
947.82	228.04
948.11	228.15
948.41	228.16
948.71	228.02
949.01	228.05
949.31	228.08
949.60	228.07
949.90	228.13
950.20	228.06
950.50	228.05
950.79	228.02
951.09	227.92
951.39	227.83
951.69	227.81
951.98	227.86
952.28	227.92
952.58	227.88
952.87	227.96
953.17	227.97
953.47	227.95
953.76	228.03
954.06	227.90
954.36	227.87
954.66	227.90
954.95	227.97
955.25	227.98
955.55	227.94
955.84	228.01
956.14	228.10
956.44	228.23
956.73	228.19
957.03	228.10
957.32	228.13
957.62	228.21
957.92	228.22
958.21	228.24
958.51	228.41
958.81	228.41
959.10	228.31
959.40	228.36
959.69	228.41
959.99	228.45
960.29	228.52
960.58	228.45
960.88	228.54
961.17	228.51
961.47	228.50
961.76	228.49
962.06	228.43
962.36	228.34
962.65	228.30
962.95	228.35
963.24	228.35
963.54	228.33
963.83	228.41
964.13	228.46
964.42	228.35
964.72	228.16
965.01	228.22
965.31	228.22
965.60	228.08
965.90	228.21
966.19	228.15
966.49	228.15
966.78	228.23
967.08	228.15
967.37	228.18
967.67	228.24
967.96	228.36
968.26	228.47
968.55	228.51
968.85	228.50
969.14	228.48
969.43	228.49
969.73	228.54
970.02	228.44
970.32	228.37
970.61	228.49
970.91	228.48
971.20	228.44
971.49	228.51
971.79	228.63
972.08	228.50
972.38	228.55
972.67	228.51
972.96	228.54
973.26	228.56
973.55	228.66
973.85	228.63
974.14	228.61
974.43	228.61
974.73	228.65
975.02	228.71
975.31	228.78
975.61	228.87
975.90	228.80
976.19	228.86
976.49	228.92
976.78	228.86
977.07	228.91
977.37	229.00
977.66	229.07
977.95	228.96
978.24	228.97
978.54	229.04
978.83	229.07
979.12	229.04
979.42	229.03
979.71	228.93
980.00	228.83
980.29	228.78
980.59	228.62
980.88	228.59
981.17	228.57
981.46	228.53
981.76	228.44
982.05	228.50
982.34	228.49
982.63	228.46
982.93	228.51
983.22	228.55
983.51	228.47
983.80	228.41
984.09	228.32
984.39	228.28
984.68	228.28
984.97	228.26
985.26	228.18
985.55	228.15
985.85	227.96
986.14	228.05
986.43	228.01
986.72	227.97
987.01	227.88
987.30	227.73
987.59	227.61
987.89	227.67
988.18	227.61
988.47	227.60
988.76	227.53
989.05	227.55
989.34	227.41
989.63	227.43
989.92	227.43
990.22	227.52
990.51	227.50
990.80	227.40
991.09	227.41
991.38	227.42
991.67	227.42
991.96	227.61
992.25	227.67
992.54	227.62
992.83	227.66
993.12	227.68
993.41	227.65
993.70	227.76
993.99	227.80
994.28	227.87
994.58	227.92
994.87	227.91
995.16	227.90
995.45	227.95
995.74	227.89
996.03	227.71
996.32	227.76
996.61	227.81
996.90	227.85
997.19	227.86
997.48	227.82
997.77	227.71
998.06	227.65
998.34	227.55
998.63	227.63
998.92	227.61
999.21	227.70
999.50	227.77
999.79	227.74
1000.08	227.70
1000.37	227.60
1000.66	227.57
1000.95	227.69
1001.24	227.60
1001.53	227.58
1001.82	227.61
1002.11	227.77
1002.40	227.80
1002.68	227.75
1002.97	227.81
1003.26	227.83
1003.55	227.88
1003.84	227.99
1004.13	228.04
1004.42	228.03
1004.71	227.97
1004.99	228.10
1005.28	228.16
1005.57	228.20
1005.86	228.20
1006.15	228.22
1006.44	228.28
1006.72	228.30
1007.01	228.14
1007.30	228.23
1007.59	228.26
1007.88	228.23
1008.17	228.22
1008.45	228.24
1008.74	228.25
1009.03	228.20
1009.32	228.13
1009.60	228.17
1009.89	228.22
1010.18	228.23
1010.47	228.21
1010.76	228.27
1011.04	228.21
1011.33	228.27
1011.62	228.27
1011.91	228.32
1012.19	228.20
1012.48	228.15
1012.77	228.10
1013.05	228.23
1013.34	228.18
1013.63	228.11
1013.92	228.18
1014.20	228.17
1014.49	228.14
1014.78	228.18
1015.06	228.22
1015.35	228.19
1015.64	228.19
1015.92	228.21
1016.21	228.14
1016.50	228.13
1016.78	228.11
1017.07	228.15
1017.36	227.97
1017.64	228.00
1017.93	227.92
1018.22	227.94
1018.50	227.87
1018.79	227.94
1019.08	227.91
1019.36	227.90
1019.65	227.96
1019.93	228.04
1020.22	228.08
1020.51	228.17
1020.79	228.10
1021.08	226.90
1021.36	225.20
1021.65	228.90
1021.94	229.10
1022.22	227.50
1022.51	227.80
1022.79	230.00
1023.08	229.10
1023.36	230.70
1023.65	226.90
>>>>>End Processed Spectral Data<<<<<
