SpectraSuite Data File
++++++++++++++++++++++++++++++++++++
Date: Fri Feb 01 14:38:56 EST 2013
User: group
Dark Spectrum Present: No
Reference Spectrum Present: No
Number of Sampled Component Spectra: 1
Spectrometers: USB2E7196
Integration Time (usec): 70000 (USB2E7196)
Spectra Averaged: 10 (USB2E7196)
Boxcar Smoothing: 10 (USB2E7196)
Correct for Electrical Dark: No (USB2E7196)
Strobe/Lamp Enabled: No (USB2E7196)
Correct for Detector Non-linearity: No (USB2E7196)
Correct for Stray Light: No (USB2E7196)
Number of Pixels in Processed Spectrum: 2048
>>>>>Begin Processed Spectral Data<<<<<
339.09	0.00
339.48	217.60
339.86	216.70
340.24	219.10
340.63	221.30
341.01	226.10
341.39	223.80
341.78	225.80
342.16	225.90
342.54	226.10
342.93	214.99
343.31	225.80
343.69	226.38
344.07	226.78
344.46	227.29
344.84	227.67
345.22	227.77
345.60	227.96
345.99	228.08
346.37	228.26
346.75	228.31
347.13	228.37
347.52	228.36
347.90	228.57
348.28	228.47
348.66	228.46
349.05	228.51
349.43	228.52
349.81	228.55
350.19	228.58
350.57	228.51
350.96	228.61
351.34	228.72
351.72	228.66
352.10	228.92
352.48	228.84
352.87	228.86
353.25	228.92
353.63	228.96
354.01	229.03
354.39	228.99
354.77	229.12
355.15	229.24
355.54	229.24
355.92	229.20
356.30	229.44
356.68	229.73
357.06	229.74
357.44	229.80
357.82	229.77
358.20	229.94
358.58	230.10
358.97	230.17
359.35	230.14
359.73	230.30
360.11	230.24
360.49	230.32
360.87	230.35
361.25	230.37
361.63	230.38
362.01	230.45
362.39	230.47
362.77	230.44
363.15	230.45
363.53	230.43
363.91	230.37
364.29	230.29
364.67	230.04
365.05	229.97
365.43	229.99
365.81	230.14
366.19	230.17
366.57	230.15
366.95	230.06
367.33	230.03
367.71	229.87
368.09	229.84
368.47	229.70
368.85	229.58
369.23	229.59
369.61	229.61
369.99	229.59
370.37	229.57
370.75	229.56
371.13	229.33
371.51	229.30
371.89	229.20
372.27	229.19
372.65	229.11
373.03	229.04
373.41	228.96
373.78	228.82
374.16	228.61
374.54	228.39
374.92	228.34
375.30	228.24
375.68	228.18
376.06	228.13
376.44	228.18
376.82	228.20
377.19	228.13
377.57	228.00
377.95	227.75
378.33	227.68
378.71	227.53
379.09	227.56
379.47	227.51
379.84	227.51
380.22	227.36
380.60	227.21
380.98	227.10
381.36	226.91
381.73	226.71
382.11	226.63
382.49	226.65
382.87	226.60
383.25	226.53
383.62	226.70
384.00	226.62
384.38	226.48
384.76	226.39
385.13	226.28
385.51	226.18
385.89	226.18
386.27	226.03
386.64	226.05
387.02	225.94
387.40	225.79
387.78	225.84
388.15	225.77
388.53	225.76
388.91	225.78
389.29	225.81
389.66	225.95
390.04	225.94
390.42	226.00
390.79	225.89
391.17	225.93
391.55	225.70
391.92	225.69
392.30	225.77
392.68	225.74
393.05	225.75
393.43	225.73
393.81	225.70
394.18	225.73
394.56	225.73
394.94	225.86
395.31	225.89
395.69	225.98
396.06	226.08
396.44	226.14
396.82	226.13
397.19	226.30
397.57	226.20
397.95	226.31
398.32	226.23
398.70	226.33
399.07	226.38
399.45	226.47
399.82	226.53
400.20	226.60
400.58	226.66
400.95	226.76
401.33	227.06
401.70	227.31
402.08	227.48
402.45	227.55
402.83	227.63
403.20	227.84
403.58	227.91
403.95	228.10
404.33	228.25
404.71	228.49
405.08	228.76
405.46	229.08
405.83	229.20
406.21	229.38
406.58	229.62
406.96	229.85
407.33	229.97
407.70	230.23
408.08	230.65
408.45	230.92
408.83	231.15
409.20	231.40
409.58	231.63
409.95	231.92
410.33	232.28
410.70	232.61
411.08	232.96
411.45	233.26
411.82	233.61
412.20	234.07
412.57	234.42
412.95	234.56
413.32	234.98
413.69	235.49
414.07	235.96
414.44	236.37
414.82	236.85
415.19	237.47
415.56	238.07
415.94	238.52
416.31	239.20
416.68	239.88
417.06	240.63
417.43	241.32
417.81	242.16
418.18	243.08
418.55	243.95
418.93	244.86
419.30	245.79
419.67	246.80
420.04	247.84
420.42	248.94
420.79	250.30
421.16	251.56
421.54	252.92
421.91	254.26
422.28	255.89
422.66	257.49
423.03	259.13
423.40	260.70
423.77	262.37
424.15	264.18
424.52	266.00
424.89	267.87
425.26	269.72
425.64	271.50
426.01	273.26
426.38	275.24
426.75	277.35
427.13	279.44
427.50	281.51
427.87	283.73
428.24	286.08
428.61	288.29
428.99	290.60
429.36	293.12
429.73	295.71
430.10	298.03
430.47	300.60
430.85	303.20
431.22	305.90
431.59	308.91
431.96	311.50
432.33	314.46
432.70	317.39
433.08	320.93
433.45	324.19
433.82	327.50
434.19	331.22
434.56	334.57
434.93	338.00
435.30	341.39
435.68	345.05
436.05	348.64
436.42	352.16
436.79	355.58
437.16	359.09
437.53	362.81
437.90	366.60
438.27	370.27
438.64	374.06
439.01	377.64
439.38	380.46
439.75	383.49
440.13	386.88
440.50	390.15
440.87	392.67
441.24	395.36
441.61	398.32
441.98	400.38
442.35	403.00
442.72	405.67
443.09	408.17
443.46	409.74
443.83	410.75
444.20	411.62
444.57	412.72
444.94	413.36
445.31	413.99
445.68	414.68
446.05	414.98
446.42	414.60
446.79	414.31
447.16	414.24
447.53	414.04
447.90	412.98
448.27	411.72
448.64	409.94
449.01	408.78
449.37	406.63
449.74	404.40
450.11	401.94
450.48	398.88
450.85	396.01
451.22	393.52
451.59	391.22
451.96	389.02
452.33	385.98
452.70	383.21
453.07	379.80
453.43	376.33
453.80	373.10
454.17	369.80
454.54	366.54
454.91	363.19
455.28	360.09
455.65	356.96
456.02	354.18
456.38	351.58
456.75	348.26
457.12	345.39
457.49	342.75
457.86	339.94
458.23	337.74
458.59	335.10
458.96	332.44
459.33	329.96
459.70	327.73
460.07	325.80
460.43	323.65
460.80	321.70
461.17	319.79
461.54	317.59
461.91	315.91
462.27	314.10
462.64	312.38
463.01	310.53
463.38	308.95
463.74	306.99
464.11	305.48
464.48	304.21
464.85	302.80
465.21	301.68
465.58	300.48
465.95	299.17
466.32	297.96
466.68	296.75
467.05	295.63
467.42	294.40
467.78	293.30
468.15	292.13
468.52	291.18
468.88	290.09
469.25	289.16
469.62	288.21
469.98	287.23
470.35	286.50
470.72	285.67
471.08	284.67
471.45	283.81
471.82	282.99
472.18	282.10
472.55	281.41
472.92	280.48
473.28	279.80
473.65	278.92
474.02	278.36
474.38	277.77
474.75	277.18
475.11	276.53
475.48	276.02
475.85	275.43
476.21	274.83
476.58	274.34
476.94	273.96
477.31	273.59
477.67	273.27
478.04	272.85
478.41	272.50
478.77	272.29
479.14	271.82
479.50	271.51
479.87	271.20
480.23	270.94
480.60	270.66
480.96	270.45
481.33	270.40
481.69	270.03
482.06	269.86
482.42	269.71
482.79	269.56
483.15	269.36
483.52	269.37
483.88	269.30
484.25	269.21
484.61	269.17
484.98	268.95
485.34	268.84
485.71	268.75
486.07	268.77
486.44	268.55
486.80	268.76
487.17	268.82
487.53	268.94
487.90	269.04
488.26	269.25
488.62	269.36
488.99	269.27
489.35	269.46
489.72	269.49
490.08	269.63
490.44	269.71
490.81	269.85
491.17	269.91
491.54	270.13
491.90	270.25
492.26	270.27
492.63	270.61
492.99	270.87
493.36	271.17
493.72	271.26
494.08	271.55
494.45	271.70
494.81	272.02
495.17	272.20
495.54	272.51
495.90	272.74
496.26	272.92
496.63	273.29
496.99	273.55
497.35	274.01
497.72	274.32
498.08	274.64
498.44	274.97
498.80	275.40
499.17	275.75
499.53	276.21
499.89	276.70
500.26	277.04
500.62	277.41
500.98	277.64
501.34	278.15
501.71	278.62
502.07	279.14
502.43	279.42
502.79	279.80
503.16	280.15
503.52	280.62
503.88	281.05
504.24	281.65
504.60	282.25
504.97	282.76
505.33	283.30
505.69	283.89
506.05	284.49
506.41	285.00
506.78	285.61
507.14	286.22
507.50	286.92
507.86	287.71
508.22	288.50
508.59	289.45
508.95	290.25
509.31	291.23
509.67	292.07
510.03	293.04
510.39	294.19
510.75	295.25
511.12	296.32
511.48	297.55
511.84	298.70
512.20	299.86
512.56	301.11
512.92	302.38
513.28	303.90
513.64	305.29
514.00	306.91
514.37	308.60
514.73	310.29
515.09	312.00
515.45	313.65
515.81	315.50
516.17	317.26
516.53	319.29
516.89	321.14
517.25	323.22
517.61	325.55
517.97	327.81
518.33	330.21
518.69	332.63
519.05	335.09
519.41	337.73
519.77	340.57
520.13	343.30
520.49	346.25
520.85	349.07
521.21	352.22
521.57	355.36
521.93	358.36
522.29	361.54
522.65	364.94
523.01	368.41
523.37	371.81
523.73	375.51
524.09	379.11
524.45	382.98
524.81	386.80
525.17	390.65
525.53	394.67
525.89	398.75
526.25	403.00
526.61	407.41
526.97	411.64
527.33	416.00
527.68	420.75
528.04	425.51
528.40	430.35
528.76	435.31
529.12	440.18
529.48	445.20
529.84	450.06
530.20	455.20
530.56	460.52
530.91	466.00
531.27	471.38
531.63	477.04
531.99	482.56
532.35	488.28
532.71	494.05
533.07	499.61
533.42	505.64
533.78	511.58
534.14	517.42
534.50	523.43
534.86	529.63
535.21	535.37
535.57	541.41
535.93	547.59
536.29	553.81
536.65	559.90
537.00	566.21
537.36	572.84
537.72	579.25
538.08	585.55
538.44	591.89
538.79	598.38
539.15	604.67
539.51	611.34
539.87	618.04
540.22	624.70
540.58	631.66
540.94	638.04
541.29	644.70
541.65	651.28
542.01	658.16
542.37	664.75
542.72	671.70
543.08	678.42
543.44	685.18
543.79	691.65
544.15	698.56
544.51	705.64
544.87	712.39
545.22	719.07
545.58	725.83
545.94	732.38
546.29	739.19
546.65	745.86
547.01	752.13
547.36	758.57
547.72	765.03
548.07	771.10
548.43	777.56
548.79	783.74
549.14	790.11
549.50	796.18
549.86	802.34
550.21	808.30
550.57	814.60
550.92	820.78
551.28	826.84
551.64	833.05
551.99	839.24
552.35	845.61
552.70	851.64
553.06	857.59
553.41	863.56
553.77	869.43
554.13	875.45
554.48	881.92
554.84	887.74
555.19	893.33
555.55	899.58
555.90	905.29
556.26	911.15
556.61	916.98
556.97	922.50
557.32	928.31
557.68	934.30
558.03	939.81
558.39	945.06
558.74	950.82
559.10	956.10
559.45	961.00
559.81	966.15
560.16	971.28
560.52	976.45
560.87	981.98
561.23	986.85
561.58	992.01
561.94	996.26
562.29	1000.85
562.64	1005.52
563.00	1009.91
563.35	1014.95
563.71	1019.86
564.06	1024.39
564.42	1029.10
564.77	1033.40
565.12	1037.93
565.48	1042.46
565.83	1046.75
566.19	1050.91
566.54	1055.01
566.89	1059.17
567.25	1062.90
567.60	1067.05
567.96	1071.12
568.31	1074.75
568.66	1078.22
569.02	1081.79
569.37	1085.29
569.72	1088.72
570.08	1092.11
570.43	1095.35
570.78	1098.03
571.14	1100.88
571.49	1103.47
571.84	1106.70
572.20	1109.32
572.55	1111.50
572.90	1113.26
573.26	1115.71
573.61	1117.80
573.96	1119.90
574.31	1121.61
574.67	1123.11
575.02	1124.46
575.37	1125.71
575.72	1126.69
576.08	1128.09
576.43	1129.18
576.78	1130.60
577.13	1132.12
577.49	1133.43
577.84	1134.47
578.19	1135.38
578.54	1135.94
578.90	1136.64
579.25	1136.90
579.60	1137.42
579.95	1137.88
580.30	1138.29
580.66	1138.32
581.01	1138.51
581.36	1138.75
581.71	1139.02
582.06	1139.59
582.42	1139.60
582.77	1139.49
583.12	1139.61
583.47	1139.76
583.82	1139.90
584.17	1139.40
584.53	1139.09
584.88	1138.59
585.23	1138.28
585.58	1138.19
585.93	1137.82
586.28	1137.82
586.63	1137.36
586.98	1137.14
587.34	1136.68
587.69	1136.38
588.04	1136.04
588.39	1135.26
588.74	1134.02
589.09	1133.20
589.44	1131.45
589.79	1130.54
590.14	1129.77
590.49	1128.83
590.84	1127.62
591.19	1126.18
591.54	1124.82
591.89	1122.73
592.25	1121.47
592.60	1119.73
592.95	1117.86
593.30	1116.31
593.65	1114.38
594.00	1112.46
594.35	1110.92
594.70	1108.43
595.05	1106.71
595.40	1104.47
595.75	1102.37
596.10	1100.48
596.45	1098.73
596.80	1097.70
597.15	1095.86
597.50	1093.71
597.85	1091.94
598.19	1090.09
598.54	1088.23
598.89	1086.68
599.24	1085.52
599.59	1083.58
599.94	1081.77
600.29	1079.38
600.64	1076.95
600.99	1074.31
601.34	1072.04
601.69	1069.03
602.04	1067.08
602.39	1064.60
602.74	1063.00
603.08	1060.94
603.43	1059.07
603.78	1056.52
604.13	1053.95
604.48	1051.26
604.83	1048.99
605.18	1046.13
605.53	1043.32
605.87	1040.09
606.22	1037.34
606.57	1034.30
606.92	1031.33
607.27	1028.61
607.62	1026.56
607.96	1024.11
608.31	1021.93
608.66	1019.08
609.01	1016.06
609.36	1013.11
609.70	1009.76
610.05	1006.07
610.40	1002.96
610.75	999.29
611.10	996.04
611.44	992.51
611.79	989.50
612.14	985.92
612.49	982.31
612.83	978.90
613.18	975.62
613.53	971.97
613.88	968.37
614.22	964.90
614.57	961.24
614.92	957.44
615.27	953.89
615.61	949.80
615.96	946.35
616.31	943.27
616.65	940.40
617.00	937.18
617.35	933.62
617.70	929.83
618.04	926.00
618.39	922.21
618.74	918.63
619.08	914.73
619.43	911.35
619.78	907.99
620.12	904.67
620.47	901.18
620.82	897.40
621.16	893.69
621.51	890.48
621.85	887.12
622.20	883.17
622.55	879.53
622.89	876.30
623.24	872.81
623.59	869.24
623.93	865.32
624.28	861.78
624.62	858.50
624.97	855.40
625.32	852.44
625.66	849.21
626.01	846.04
626.35	842.85
626.70	839.36
627.04	836.12
627.39	832.20
627.73	828.79
628.08	825.57
628.43	822.27
628.77	818.37
629.12	814.37
629.46	810.97
629.81	807.00
630.15	803.32
630.50	799.46
630.84	795.36
631.19	791.49
631.53	787.60
631.88	783.44
632.22	779.27
632.57	775.67
632.91	771.90
633.26	767.76
633.60	763.62
633.95	759.88
634.29	756.18
634.64	752.80
634.98	748.98
635.32	745.42
635.67	742.15
636.01	738.59
636.36	735.41
636.70	732.10
637.05	729.04
637.39	725.78
637.73	722.60
638.08	719.78
638.42	716.62
638.77	713.67
639.11	710.56
639.45	707.45
639.80	704.10
640.14	700.78
640.49	697.75
640.83	694.74
641.17	691.35
641.52	687.85
641.86	684.40
642.20	681.24
642.55	677.91
642.89	674.64
643.23	671.44
643.58	668.35
643.92	664.91
644.26	661.52
644.61	658.52
644.95	655.19
645.29	651.71
645.64	648.41
645.98	645.12
646.32	641.96
646.66	638.73
647.01	635.54
647.35	632.50
647.69	629.06
648.04	626.17
648.38	623.12
648.72	619.99
649.06	616.70
649.41	613.57
649.75	610.18
650.09	606.78
650.43	603.28
650.78	599.83
651.12	596.65
651.46	593.65
651.80	590.34
652.14	587.42
652.49	584.40
652.83	581.41
653.17	578.21
653.51	575.03
653.85	572.06
654.20	568.78
654.54	565.38
654.88	562.38
655.22	558.97
655.56	555.72
655.90	552.72
656.25	549.99
656.59	547.09
656.93	544.20
657.27	541.19
657.61	538.54
657.95	535.76
658.29	533.04
658.64	530.18
658.98	527.07
659.32	524.00
659.66	521.23
660.00	518.33
660.34	515.45
660.68	512.62
661.02	509.61
661.36	507.00
661.70	504.57
662.05	502.21
662.39	499.86
662.73	497.40
663.07	495.09
663.41	492.54
663.75	489.97
664.09	487.60
664.43	485.08
664.77	482.86
665.11	480.40
665.45	478.04
665.79	475.72
666.13	473.52
666.47	471.17
666.81	468.68
667.15	466.17
667.49	463.92
667.83	461.80
668.17	459.59
668.51	457.32
668.85	455.07
669.19	453.00
669.53	450.69
669.87	448.47
670.21	446.10
670.55	444.08
670.89	442.22
671.23	440.27
671.57	438.36
671.91	436.16
672.25	434.10
672.58	432.10
672.92	429.91
673.26	427.92
673.60	426.07
673.94	424.25
674.28	422.62
674.62	420.85
674.96	419.17
675.30	417.60
675.64	415.88
675.97	414.11
676.31	412.20
676.65	410.40
676.99	408.79
677.33	407.08
677.67	405.38
678.01	403.36
678.34	401.53
678.68	399.91
679.02	398.35
679.36	396.76
679.70	395.09
680.04	393.56
680.37	391.95
680.71	390.31
681.05	388.75
681.39	387.07
681.73	385.54
682.06	384.09
682.40	382.53
682.74	381.17
683.08	379.74
683.42	378.30
683.75	376.94
684.09	375.39
684.43	373.94
684.77	372.42
685.10	371.05
685.44	369.73
685.78	368.33
686.12	366.79
686.45	365.36
686.79	363.91
687.13	362.54
687.46	361.20
687.80	359.87
688.14	358.54
688.48	357.25
688.81	355.75
689.15	354.34
689.49	352.94
689.82	351.56
690.16	350.09
690.50	348.77
690.83	347.52
691.17	346.17
691.51	344.80
691.84	343.64
692.18	342.40
692.52	341.12
692.85	339.84
693.19	338.63
693.52	337.36
693.86	336.10
694.20	334.84
694.53	333.73
694.87	332.58
695.21	331.22
695.54	330.11
695.88	328.98
696.21	327.78
696.55	326.62
696.88	325.44
697.22	324.37
697.56	323.20
697.89	322.07
698.23	321.10
698.56	320.21
698.90	319.12
699.23	318.06
699.57	317.00
699.90	316.00
700.24	315.04
700.58	314.04
700.91	313.19
701.25	312.28
701.58	311.44
701.92	310.41
702.25	309.57
702.59	308.56
702.92	307.69
703.26	306.84
703.59	306.07
703.93	305.22
704.26	304.41
704.60	303.66
704.93	302.75
705.26	301.90
705.60	301.00
705.93	300.11
706.27	299.25
706.60	298.40
706.94	297.65
707.27	296.73
707.61	296.02
707.94	295.25
708.27	294.48
708.61	293.46
708.94	292.74
709.28	291.91
709.61	291.29
709.94	290.70
710.28	289.86
710.61	289.15
710.95	288.40
711.28	287.71
711.61	286.97
711.95	286.36
712.28	285.75
712.61	285.10
712.95	284.56
713.28	284.06
713.61	283.52
713.95	282.79
714.28	282.27
714.61	281.67
714.95	281.03
715.28	280.42
715.61	279.94
715.95	279.37
716.28	278.97
716.61	278.36
716.95	277.87
717.28	277.53
717.61	276.90
717.94	276.35
718.28	275.73
718.61	275.12
718.94	274.66
719.27	274.19
719.61	273.64
719.94	273.10
720.27	272.52
720.60	272.10
720.94	271.70
721.27	271.25
721.60	270.87
721.93	270.42
722.27	270.05
722.60	269.68
722.93	269.39
723.26	268.98
723.59	268.55
723.93	268.03
724.26	267.60
724.59	267.26
724.92	266.94
725.25	266.78
725.59	266.47
725.92	266.06
726.25	265.58
726.58	265.42
726.91	265.00
727.24	264.78
727.57	264.36
727.91	263.99
728.24	263.66
728.57	263.26
728.90	262.93
729.23	262.48
729.56	262.11
729.89	261.69
730.22	261.27
730.55	260.98
730.89	260.64
731.22	260.27
731.55	259.95
731.88	259.66
732.21	259.16
732.54	258.90
732.87	258.61
733.20	258.43
733.53	257.97
733.86	257.68
734.19	257.23
734.52	256.97
734.85	256.86
735.18	256.57
735.51	256.35
735.84	256.12
736.17	255.89
736.50	255.54
736.83	255.43
737.16	255.11
737.49	254.88
737.82	254.67
738.15	254.31
738.48	254.06
738.81	253.80
739.14	253.54
739.47	253.21
739.80	252.95
740.13	252.70
740.46	252.37
740.79	252.09
741.12	251.85
741.45	251.54
741.78	251.11
742.11	250.87
742.44	250.59
742.77	250.27
743.10	250.09
743.43	249.75
743.75	249.43
744.08	249.48
744.41	249.11
744.74	248.92
745.07	248.66
745.40	248.34
745.73	248.09
746.06	247.87
746.39	247.69
746.71	247.39
747.04	247.18
747.37	247.04
747.70	246.93
748.03	246.70
748.36	246.50
748.68	246.25
749.01	245.90
749.34	245.62
749.67	245.49
750.00	245.26
750.33	245.24
750.65	244.95
750.98	244.54
751.31	244.34
751.64	244.14
751.97	244.10
752.29	243.93
752.62	243.64
752.95	243.51
753.28	243.27
753.60	243.03
753.93	242.76
754.26	242.54
754.59	242.20
754.91	242.06
755.24	241.99
755.57	241.88
755.90	241.79
756.22	241.65
756.55	241.41
756.88	241.22
757.20	240.91
757.53	240.70
757.86	240.60
758.19	240.48
758.51	240.19
758.84	239.90
759.17	239.77
759.49	239.70
759.82	239.54
760.15	239.46
760.47	239.35
760.80	239.18
761.13	239.11
761.45	239.08
761.78	238.94
762.11	238.80
762.43	238.58
762.76	238.45
763.08	238.40
763.41	238.29
763.74	238.19
764.06	238.13
764.39	237.98
764.71	237.77
765.04	237.69
765.37	237.63
765.69	237.54
766.02	237.48
766.34	237.33
766.67	237.17
767.00	237.14
767.32	237.07
767.65	237.11
767.97	237.00
768.30	236.84
768.62	236.80
768.95	236.62
769.27	236.59
769.60	236.56
769.92	236.41
770.25	236.32
770.57	236.21
770.90	236.19
771.22	236.12
771.55	236.05
771.87	235.99
772.20	235.89
772.52	236.05
772.85	236.17
773.17	236.03
773.50	236.01
773.82	235.86
774.15	235.86
774.47	235.65
774.80	235.55
775.12	235.52
775.45	235.42
775.77	235.34
776.09	235.26
776.42	235.28
776.74	235.30
777.07	235.22
777.39	235.15
777.72	234.99
778.04	234.91
778.36	234.83
778.69	234.72
779.01	234.65
779.33	234.47
779.66	234.20
779.98	234.20
780.31	234.20
780.63	234.15
780.95	234.02
781.28	233.93
781.60	233.89
781.92	233.89
782.25	233.70
782.57	233.77
782.89	233.67
783.22	233.42
783.54	233.28
783.86	233.29
784.19	233.20
784.51	233.18
784.83	233.12
785.16	233.08
785.48	233.01
785.80	232.98
786.12	232.85
786.45	232.78
786.77	232.79
787.09	232.63
787.42	232.55
787.74	232.49
788.06	232.55
788.38	232.46
788.71	232.38
789.03	232.39
789.35	232.24
789.67	232.25
789.99	232.24
790.32	232.10
790.64	232.10
790.96	232.20
791.28	232.11
791.61	232.08
791.93	232.07
792.25	232.05
792.57	232.13
792.89	232.00
793.21	231.92
793.54	231.77
793.86	231.77
794.18	231.67
794.50	231.58
794.82	231.48
795.14	231.47
795.47	231.48
795.79	231.41
796.11	231.35
796.43	231.31
796.75	231.26
797.07	231.21
797.39	231.22
797.71	231.10
798.04	231.09
798.36	231.09
798.68	231.00
799.00	231.05
799.32	230.85
799.64	230.90
799.96	230.93
800.28	230.99
800.60	230.87
800.92	230.92
801.24	230.86
801.56	230.90
801.89	230.82
802.21	230.68
802.53	230.70
802.85	230.70
803.17	230.70
803.49	230.70
803.81	230.67
804.13	230.52
804.45	230.44
804.77	230.40
805.09	230.40
805.41	230.31
805.73	230.21
806.05	230.18
806.37	230.12
806.69	230.12
807.01	230.15
807.33	230.17
807.65	230.02
807.97	230.23
808.28	230.20
808.60	230.17
808.92	230.30
809.24	230.44
809.56	230.51
809.88	230.42
810.20	230.35
810.52	230.32
810.84	230.20
811.16	230.20
811.48	230.17
811.80	230.32
812.12	230.42
812.43	230.40
812.75	230.44
813.07	230.51
813.39	230.45
813.71	230.43
814.03	230.46
814.35	230.44
814.67	230.31
814.98	230.22
815.30	230.30
815.62	230.24
815.94	230.15
816.26	230.14
816.58	230.13
816.89	230.22
817.21	230.25
817.53	230.36
817.85	230.23
818.17	230.26
818.48	230.11
818.80	230.16
819.12	230.09
819.44	230.00
819.76	230.04
820.07	229.96
820.39	229.78
820.71	229.81
821.03	229.85
821.34	229.84
821.66	229.85
821.98	229.75
822.30	229.64
822.61	229.62
822.93	229.52
823.25	229.51
823.57	229.38
823.88	229.43
824.20	229.31
824.52	229.44
824.83	229.45
825.15	229.29
825.47	229.27
825.79	229.27
826.10	229.30
826.42	229.21
826.74	229.22
827.05	229.30
827.37	229.31
827.69	229.21
828.00	229.22
828.32	229.25
828.64	229.32
828.95	229.42
829.27	229.35
829.58	229.40
829.90	229.38
830.22	229.39
830.53	229.31
830.85	229.37
831.17	229.35
831.48	229.28
831.80	229.26
832.11	229.18
832.43	229.17
832.75	229.06
833.06	229.19
833.38	229.23
833.69	229.18
834.01	229.10
834.32	229.20
834.64	229.20
834.96	229.15
835.27	229.06
835.59	228.98
835.90	228.97
836.22	228.95
836.53	228.97
836.85	228.97
837.16	229.25
837.48	229.26
837.79	229.30
838.11	229.32
838.42	229.52
838.74	229.62
839.05	229.72
839.37	229.81
839.68	229.65
840.00	229.60
840.31	229.73
840.63	229.73
840.94	229.70
841.26	229.71
841.57	229.77
841.88	229.81
842.20	229.92
842.51	229.93
842.83	230.01
843.14	230.22
843.46	230.22
843.77	230.00
844.08	230.11
844.40	230.08
844.71	230.09
845.03	230.07
845.34	230.01
845.65	230.06
845.97	230.08
846.28	230.18
846.60	230.23
846.91	230.12
847.22	230.19
847.54	230.21
847.85	230.14
848.16	230.12
848.48	230.14
848.79	230.18
849.10	230.23
849.42	230.12
849.73	229.84
850.04	229.87
850.36	229.90
850.67	229.82
850.98	229.80
851.30	229.80
851.61	229.66
851.92	229.68
852.23	229.59
852.55	229.59
852.86	229.43
853.17	229.42
853.49	229.46
853.80	229.37
854.11	229.33
854.42	229.42
854.74	229.34
855.05	229.37
855.36	229.09
855.67	229.04
855.99	229.01
856.30	229.23
856.61	229.20
856.92	229.20
857.23	229.17
857.55	229.11
857.86	229.09
858.17	229.12
858.48	229.03
858.79	228.90
859.11	228.86
859.42	228.85
859.73	228.81
860.04	228.77
860.35	228.76
860.66	228.69
860.98	228.60
861.29	228.63
861.60	228.56
861.91	228.70
862.22	228.71
862.53	228.65
862.84	228.44
863.16	228.35
863.47	228.18
863.78	228.06
864.09	228.09
864.40	228.10
864.71	228.14
865.02	228.22
865.33	228.23
865.64	228.16
865.95	228.18
866.27	228.27
866.58	228.17
866.89	228.10
867.20	228.08
867.51	227.99
867.82	228.00
868.13	228.02
868.44	227.94
868.75	227.99
869.06	227.97
869.37	227.89
869.68	227.92
869.99	228.04
870.30	227.99
870.61	227.93
870.92	227.88
871.23	227.89
871.54	227.85
871.85	227.89
872.16	227.96
872.47	227.90
872.78	227.87
873.09	227.95
873.40	227.95
873.71	228.03
874.02	228.11
874.33	228.12
874.64	228.11
874.95	228.22
875.26	228.02
875.56	228.06
875.87	228.13
876.18	228.16
876.49	228.34
876.80	228.39
877.11	228.39
877.42	228.28
877.73	228.20
878.04	228.15
878.35	228.16
878.66	228.13
878.96	228.22
879.27	228.14
879.58	228.18
879.89	228.23
880.20	228.30
880.51	228.19
880.82	228.21
881.12	228.24
881.43	228.12
881.74	228.23
882.05	228.17
882.36	228.19
882.67	228.24
882.97	228.07
883.28	228.08
883.59	228.10
883.90	228.24
884.21	228.31
884.51	228.37
884.82	228.40
885.13	228.43
885.44	228.48
885.74	228.56
886.05	228.45
886.36	228.37
886.67	228.22
886.98	228.41
887.28	228.31
887.59	228.36
887.90	228.41
888.20	228.44
888.51	228.50
888.82	228.47
889.13	228.46
889.43	228.53
889.74	228.60
890.05	228.60
890.35	228.56
890.66	228.61
890.97	228.53
891.28	228.52
891.58	228.51
891.89	228.43
892.20	228.36
892.50	228.34
892.81	228.40
893.12	228.47
893.42	228.37
893.73	228.41
894.04	228.30
894.34	228.32
894.65	228.24
894.95	228.20
895.26	228.29
895.57	228.35
895.87	228.25
896.18	228.20
896.48	228.22
896.79	228.21
897.10	228.18
897.40	228.19
897.71	228.20
898.01	228.21
898.32	228.22
898.63	228.14
898.93	228.14
899.24	228.11
899.54	228.09
899.85	228.11
900.15	228.10
900.46	228.07
900.76	228.07
901.07	228.07
901.38	228.09
901.68	228.08
901.99	227.96
902.29	227.95
902.60	228.00
902.90	228.02
903.21	228.01
903.51	228.00
903.82	228.08
904.12	228.09
904.43	228.09
904.73	228.10
905.03	228.16
905.34	228.41
905.64	228.47
905.95	228.40
906.25	228.38
906.56	228.39
906.86	228.39
907.17	228.40
907.47	228.45
907.77	228.46
908.08	228.41
908.38	228.46
908.69	228.46
908.99	228.48
909.30	228.46
909.60	228.46
909.90	228.48
910.21	228.51
910.51	228.36
910.81	228.37
911.12	228.44
911.42	228.55
911.73	228.38
912.03	228.33
912.33	228.46
912.64	228.46
912.94	228.46
913.24	228.45
913.55	228.46
913.85	228.47
914.15	228.53
914.46	228.51
914.76	228.49
915.06	228.47
915.37	228.38
915.67	228.35
915.97	228.36
916.27	228.34
916.58	228.27
916.88	228.37
917.18	228.48
917.49	228.63
917.79	228.50
918.09	228.63
918.39	228.78
918.70	228.82
919.00	228.84
919.30	229.00
919.60	229.02
919.91	229.02
920.21	229.00
920.51	229.03
920.81	229.08
921.12	229.11
921.42	229.14
921.72	229.25
922.02	229.24
922.32	229.29
922.63	229.35
922.93	229.44
923.23	229.52
923.53	229.43
923.83	229.18
924.13	229.21
924.44	229.15
924.74	229.14
925.04	229.12
925.34	229.17
925.64	229.07
925.94	229.00
926.24	229.08
926.55	229.01
926.85	229.06
927.15	229.08
927.45	229.04
927.75	229.12
928.05	229.01
928.35	228.99
928.65	229.12
928.95	229.00
929.26	229.00
929.56	228.98
929.86	229.00
930.16	228.95
930.46	229.00
930.76	228.98
931.06	229.01
931.36	228.88
931.66	228.86
931.96	228.73
932.26	228.85
932.56	228.69
932.86	228.78
933.16	228.73
933.46	228.66
933.76	228.67
934.06	228.62
934.36	228.74
934.66	228.78
934.96	228.62
935.26	228.68
935.56	228.64
935.86	228.55
936.16	228.62
936.46	228.64
936.76	228.51
937.06	228.47
937.36	228.38
937.66	228.49
937.96	228.41
938.26	228.49
938.56	228.40
938.86	228.50
939.16	228.43
939.46	228.36
939.76	228.37
940.06	228.25
940.35	228.24
940.65	228.12
940.95	228.10
941.25	228.06
941.55	227.98
941.85	227.99
942.15	228.00
942.45	227.96
942.75	228.05
943.04	228.12
943.34	228.03
943.64	227.96
943.94	227.80
944.24	227.89
944.54	227.86
944.84	227.97
945.13	227.91
945.43	227.93
945.73	227.92
946.03	227.96
946.33	227.97
946.62	227.92
946.92	227.89
947.22	227.89
947.52	227.95
947.82	227.95
948.11	227.92
948.41	227.90
948.71	227.78
949.01	227.71
949.31	227.70
949.60	227.79
949.90	227.80
950.20	227.91
950.50	227.90
950.79	227.90
951.09	227.76
951.39	227.85
951.69	227.87
951.98	227.96
952.28	228.00
952.58	228.04
952.87	228.00
953.17	228.12
953.47	228.12
953.76	228.16
954.06	228.22
954.36	228.21
954.66	228.28
954.95	228.36
955.25	228.38
955.55	228.35
955.84	228.27
956.14	228.36
956.44	228.31
956.73	228.31
957.03	228.39
957.32	228.44
957.62	228.32
957.92	228.31
958.21	228.20
958.51	228.40
958.81	228.44
959.10	228.50
959.40	228.51
959.69	228.49
959.99	228.49
960.29	228.46
960.58	228.45
960.88	228.50
961.17	228.43
961.47	228.52
961.76	228.65
962.06	228.79
962.36	228.71
962.65	228.81
962.95	228.79
963.24	228.67
963.54	228.79
963.83	228.82
964.13	228.90
964.42	228.90
964.72	228.67
965.01	228.72
965.31	228.74
965.60	228.74
965.90	228.90
966.19	228.87
966.49	228.91
966.78	228.87
967.08	228.78
967.37	228.86
967.67	228.78
967.96	228.80
968.26	228.70
968.55	228.73
968.85	228.63
969.14	228.64
969.43	228.62
969.73	228.43
970.02	228.48
970.32	228.35
970.61	228.20
970.91	228.10
971.20	228.04
971.49	228.03
971.79	227.95
972.08	227.82
972.38	227.74
972.67	227.68
972.96	227.77
973.26	227.77
973.55	227.79
973.85	227.74
974.14	227.69
974.43	227.76
974.73	227.80
975.02	227.82
975.31	227.76
975.61	227.80
975.90	227.90
976.19	227.87
976.49	227.91
976.78	228.11
977.07	228.19
977.37	228.27
977.66	228.27
977.95	228.25
978.24	228.17
978.54	228.30
978.83	228.26
979.12	228.22
979.42	228.15
979.71	228.09
980.00	228.10
980.29	227.99
980.59	227.91
980.88	227.94
981.17	228.00
981.46	228.07
981.76	228.07
982.05	228.18
982.34	228.21
982.63	228.23
982.93	228.30
983.22	228.39
983.51	228.37
983.80	228.43
984.09	228.44
984.39	228.55
984.68	228.45
984.97	228.51
985.26	228.40
985.55	228.46
985.85	228.48
986.14	228.58
986.43	228.69
986.72	228.66
987.01	228.45
987.30	228.47
987.59	228.42
987.89	228.49
988.18	228.42
988.47	228.30
988.76	228.30
989.05	228.24
989.34	228.12
989.63	228.17
989.92	228.13
990.22	228.17
990.51	228.20
990.80	228.30
991.09	228.31
991.38	228.48
991.67	228.57
991.96	228.58
992.25	228.59
992.54	228.49
992.83	228.55
993.12	228.70
993.41	228.75
993.70	228.77
993.99	228.84
994.28	228.96
994.58	229.03
994.87	229.01
995.16	228.98
995.45	229.02
995.74	228.99
996.03	228.96
996.32	228.99
996.61	229.01
996.90	228.98
997.19	228.96
997.48	228.84
997.77	228.87
998.06	228.86
998.34	228.85
998.63	228.94
998.92	228.91
999.21	228.95
999.50	228.88
999.79	228.89
1000.08	228.76
1000.37	228.64
1000.66	228.59
1000.95	228.64
1001.24	228.75
1001.53	228.78
1001.82	228.75
1002.11	228.81
1002.40	228.86
1002.68	228.80
1002.97	228.93
1003.26	228.96
1003.55	228.90
1003.84	228.87
1004.13	228.92
1004.42	228.92
1004.71	228.86
1004.99	228.92
1005.28	228.97
1005.57	229.07
1005.86	229.09
1006.15	229.00
1006.44	229.00
1006.72	228.96
1007.01	228.76
1007.30	228.67
1007.59	228.65
1007.88	228.61
1008.17	228.59
1008.45	228.40
1008.74	228.38
1009.03	228.20
1009.32	228.16
1009.60	228.34
1009.89	228.20
1010.18	228.12
1010.47	228.09
1010.76	228.12
1011.04	228.04
1011.33	227.96
1011.62	227.76
1011.91	227.70
1012.19	227.88
1012.48	227.81
1012.77	227.85
1013.05	227.99
1013.34	228.00
1013.63	228.03
1013.92	228.06
1014.20	227.97
1014.49	227.98
1014.78	228.08
1015.06	227.96
1015.35	227.92
1015.64	227.86
1015.92	227.91
1016.21	227.90
1016.50	227.92
1016.78	227.95
1017.07	227.93
1017.36	227.81
1017.64	227.88
1017.93	227.84
1018.22	227.73
1018.50	227.78
1018.79	227.79
1019.08	227.80
1019.36	227.81
1019.65	227.73
1019.93	227.72
1020.22	227.75
1020.51	227.93
1020.79	227.84
1021.08	227.70
1021.36	228.20
1021.65	227.70
1021.94	228.10
1022.22	228.30
1022.51	228.10
1022.79	227.90
1023.08	227.20
1023.36	230.50
1023.65	228.10
>>>>>End Processed Spectral Data<<<<<
