SpectraSuite Data File
++++++++++++++++++++++++++++++++++++
Date: Fri Feb 01 14:35:14 EST 2013
User: group
Dark Spectrum Present: No
Reference Spectrum Present: No
Number of Sampled Component Spectra: 1
Spectrometers: USB2E7196
Integration Time (usec): 70000 (USB2E7196)
Spectra Averaged: 10 (USB2E7196)
Boxcar Smoothing: 10 (USB2E7196)
Correct for Electrical Dark: No (USB2E7196)
Strobe/Lamp Enabled: No (USB2E7196)
Correct for Detector Non-linearity: No (USB2E7196)
Correct for Stray Light: No (USB2E7196)
Number of Pixels in Processed Spectrum: 2048
>>>>>Begin Processed Spectral Data<<<<<
339.09	0.00
339.48	217.30
339.86	216.60
340.24	217.20
340.63	217.30
341.01	225.00
341.39	223.10
341.78	224.40
342.16	225.50
342.54	227.00
342.93	213.86
343.31	224.57
343.69	225.01
344.07	225.51
344.46	226.04
344.84	226.55
345.22	226.74
345.60	226.97
345.99	227.09
346.37	227.15
346.75	227.18
347.13	227.21
347.52	227.22
347.90	227.38
348.28	227.30
348.66	227.33
349.05	227.34
349.43	227.46
349.81	227.57
350.19	227.56
350.57	227.62
350.96	227.71
351.34	227.87
351.72	228.01
352.10	228.06
352.48	227.98
352.87	228.02
353.25	228.07
353.63	228.13
354.01	228.27
354.39	228.34
354.77	228.38
355.15	228.52
355.54	228.57
355.92	228.60
356.30	228.78
356.68	229.04
357.06	229.12
357.44	229.09
357.82	229.16
358.20	229.24
358.58	229.27
358.97	229.40
359.35	229.47
359.73	229.48
360.11	229.61
360.49	229.88
360.87	229.97
361.25	229.99
361.63	230.08
362.01	230.09
362.39	230.20
362.77	230.43
363.15	230.41
363.53	230.42
363.91	230.51
364.29	230.47
364.67	230.21
365.05	230.27
365.43	230.32
365.81	230.37
366.19	230.49
366.57	230.68
366.95	230.69
367.33	230.76
367.71	230.80
368.09	230.69
368.47	230.57
368.85	230.46
369.23	230.43
369.61	230.29
369.99	230.44
370.37	230.47
370.75	230.46
371.13	230.48
371.51	230.50
371.89	230.41
372.27	230.49
372.65	230.55
373.03	230.56
373.41	230.55
373.78	230.47
374.16	230.36
374.54	230.32
374.92	230.27
375.30	230.23
375.68	230.13
376.06	230.25
376.44	230.21
376.82	230.29
377.19	230.29
377.57	230.35
377.95	230.15
378.33	230.03
378.71	229.76
379.09	229.70
379.47	229.61
379.84	229.52
380.22	229.41
380.60	229.30
380.98	229.26
381.36	229.13
381.73	229.05
382.11	228.96
382.49	228.80
382.87	228.60
383.25	228.50
383.62	228.62
384.00	228.38
384.38	228.29
384.76	228.19
385.13	228.17
385.51	228.09
385.89	227.98
386.27	227.93
386.64	227.96
387.02	227.91
387.40	227.94
387.78	227.90
388.15	227.71
388.53	227.66
388.91	227.56
389.29	227.57
389.66	227.54
390.04	227.48
390.42	227.49
390.79	227.58
391.17	227.48
391.55	227.30
391.92	227.31
392.30	227.30
392.68	227.24
393.05	227.30
393.43	227.30
393.81	227.36
394.18	227.35
394.56	227.31
394.94	227.36
395.31	227.26
395.69	227.34
396.06	227.52
396.44	227.58
396.82	227.61
397.19	227.75
397.57	227.74
397.95	227.84
398.32	227.83
398.70	227.87
399.07	227.98
399.45	228.01
399.82	228.18
400.20	228.29
400.58	228.40
400.95	228.30
401.33	228.49
401.70	228.71
402.08	228.82
402.45	229.02
402.83	229.23
403.20	229.49
403.58	229.63
403.95	229.90
404.33	230.06
404.71	230.33
405.08	230.70
405.46	231.01
405.83	231.32
406.21	231.62
406.58	231.93
406.96	232.35
407.33	232.88
407.70	233.39
408.08	234.00
408.45	234.57
408.83	235.20
409.20	235.73
409.58	236.16
409.95	236.86
410.33	237.44
410.70	238.07
411.08	238.81
411.45	239.58
411.82	240.36
412.20	241.40
412.57	242.42
412.95	243.28
413.32	244.30
413.69	245.40
414.07	246.59
414.44	247.86
414.82	249.17
415.19	250.52
415.56	251.79
415.94	253.23
416.31	254.91
416.68	256.60
417.06	258.51
417.43	260.39
417.81	262.41
418.18	264.61
418.55	266.89
418.93	269.13
419.30	271.76
419.67	274.31
420.04	276.87
420.42	279.58
420.79	282.81
421.16	286.17
421.54	289.50
421.91	293.01
422.28	296.54
422.66	300.39
423.03	304.04
423.40	307.96
423.77	312.02
424.15	316.33
424.52	320.65
424.89	325.30
425.26	330.02
425.64	334.40
426.01	339.24
426.38	344.20
426.75	349.46
427.13	354.63
427.50	360.10
427.87	365.92
428.24	371.76
428.61	377.08
428.99	383.03
429.36	389.65
429.73	395.97
430.10	402.36
430.47	408.70
430.85	415.57
431.22	422.70
431.59	430.24
431.96	437.39
432.33	445.36
432.70	452.87
433.08	461.60
433.45	470.08
433.82	478.49
434.19	488.04
434.56	497.27
434.93	506.03
435.30	514.67
435.68	524.40
436.05	534.07
436.42	543.54
436.79	552.16
437.16	561.45
437.53	571.13
437.90	580.83
438.27	590.49
438.64	600.41
439.01	609.64
439.38	617.81
439.75	625.58
440.13	634.70
440.50	643.44
440.87	650.66
441.24	658.19
441.61	666.22
441.98	672.10
442.35	679.00
442.72	686.35
443.09	693.69
443.46	698.06
443.83	701.05
444.20	704.12
444.57	708.31
444.94	710.71
445.31	713.28
445.68	715.78
446.05	717.34
446.42	717.24
446.79	717.15
447.16	716.97
447.53	717.22
447.90	714.82
448.27	712.47
448.64	708.44
449.01	705.91
449.37	700.72
449.74	695.64
450.11	689.23
450.48	682.02
450.85	674.82
451.22	668.79
451.59	662.98
451.96	657.42
452.33	649.42
452.70	642.11
453.07	633.52
453.43	624.60
453.80	616.07
454.17	607.97
454.54	600.17
454.91	591.79
455.28	583.53
455.65	575.54
456.02	567.47
456.38	560.92
456.75	552.40
457.12	545.51
457.49	538.52
457.86	531.82
458.23	526.02
458.59	519.27
458.96	512.64
459.33	506.83
459.70	500.96
460.07	496.36
460.43	491.02
460.80	485.71
461.17	481.03
461.54	476.30
461.91	471.70
462.27	467.02
462.64	463.00
463.01	458.61
463.38	454.53
463.74	450.33
464.11	446.63
464.48	443.16
464.85	439.34
465.21	436.47
465.58	433.53
465.95	429.76
466.32	426.83
466.68	423.80
467.05	420.87
467.42	417.76
467.78	414.53
468.15	411.60
468.52	409.47
468.88	406.74
469.25	404.19
469.62	401.98
469.98	399.69
470.35	397.64
470.72	395.60
471.08	393.40
471.45	391.53
471.82	389.49
472.18	387.50
472.55	385.95
472.92	384.05
473.28	382.52
473.65	381.04
474.02	379.52
474.38	378.15
474.75	376.99
475.11	375.86
475.48	374.85
475.85	373.88
476.21	372.95
476.58	372.16
476.94	371.50
477.31	370.80
477.67	370.07
478.04	369.41
478.41	368.96
478.77	368.64
479.14	368.20
479.50	367.84
479.87	367.80
480.23	367.58
480.60	367.47
480.96	367.15
481.33	367.18
481.69	367.23
482.06	367.25
482.42	367.05
482.79	367.06
483.15	367.32
483.52	367.80
483.88	368.15
484.25	368.46
484.61	368.86
484.98	369.35
485.34	370.16
485.71	370.97
486.07	371.84
486.44	372.47
486.80	373.43
487.17	374.45
487.53	375.55
487.90	376.76
488.26	378.11
488.62	379.47
488.99	381.07
489.35	382.38
489.72	384.01
490.08	385.78
490.44	387.55
490.81	389.15
491.17	390.77
491.54	392.66
491.90	394.56
492.26	396.60
492.63	398.68
492.99	400.57
493.36	402.53
493.72	404.66
494.08	406.98
494.45	409.46
494.81	412.01
495.17	414.60
495.54	417.23
495.90	419.91
496.26	422.54
496.63	425.11
496.99	428.15
497.35	430.96
497.72	433.87
498.08	436.72
498.44	440.02
498.80	443.26
499.17	446.40
499.53	449.57
499.89	452.62
500.26	455.70
500.62	458.97
500.98	462.33
501.34	465.54
501.71	468.77
502.07	471.89
502.43	474.94
502.79	478.02
503.16	481.20
503.52	484.46
503.88	487.70
504.24	490.80
504.60	493.75
504.97	496.86
505.33	500.11
505.69	503.44
506.05	506.40
506.41	509.34
506.78	512.14
507.14	515.03
507.50	517.95
507.86	520.91
508.22	523.76
508.59	526.52
508.95	529.43
509.31	532.14
509.67	534.78
510.03	537.56
510.39	540.17
510.75	542.71
511.12	544.96
511.48	547.29
511.84	549.72
512.20	552.05
512.56	554.30
512.92	556.22
513.28	558.11
513.64	560.02
514.00	562.00
514.37	563.97
514.73	565.88
515.09	567.69
515.45	569.47
515.81	571.26
516.17	572.85
516.53	574.47
516.89	576.13
517.25	577.62
517.61	579.04
517.97	580.33
518.33	581.58
518.69	582.95
519.05	584.35
519.41	585.73
519.77	587.11
520.13	588.49
520.49	589.78
520.85	591.27
521.21	592.55
521.57	593.98
521.93	595.04
522.29	596.38
522.65	597.59
523.01	598.58
523.37	599.44
523.73	600.63
524.09	601.63
524.45	602.73
524.81	603.89
525.17	605.21
525.53	606.47
525.89	607.84
526.25	609.10
526.61	610.19
526.97	611.42
527.33	612.65
527.68	613.97
528.04	615.32
528.40	616.40
528.76	618.12
529.12	619.43
529.48	621.14
529.84	622.44
530.20	624.01
530.56	625.80
530.91	627.68
531.27	629.22
531.63	630.92
531.99	632.81
532.35	634.70
532.71	636.40
533.07	638.40
533.42	640.31
533.78	642.37
534.14	644.51
534.50	646.43
534.86	648.55
535.21	650.55
535.57	652.74
535.93	655.00
536.29	657.08
536.65	659.33
537.00	661.54
537.36	664.08
537.72	666.10
538.08	668.45
538.44	670.76
538.79	673.34
539.15	675.71
539.51	678.36
539.87	681.01
540.22	683.88
540.58	686.56
540.94	689.45
541.29	692.13
541.65	694.90
542.01	697.95
542.37	700.73
542.72	703.71
543.08	706.44
543.44	709.53
543.79	712.08
544.15	715.24
544.51	718.53
544.87	721.59
545.22	725.13
545.58	728.28
545.94	731.22
546.29	734.15
546.65	737.13
547.01	739.88
547.36	742.97
547.72	745.82
548.07	748.84
548.43	751.57
548.79	754.80
549.14	757.74
549.50	760.60
549.86	763.81
550.21	766.66
550.57	770.29
550.92	773.37
551.28	776.67
551.64	779.72
551.99	782.60
552.35	785.59
552.70	788.49
553.06	791.87
553.41	795.37
553.77	798.83
554.13	802.32
554.48	805.92
554.84	808.99
555.19	812.24
555.55	815.30
555.90	818.30
556.26	821.27
556.61	824.38
556.97	827.48
557.32	830.61
557.68	834.01
558.03	837.03
558.39	840.06
558.74	843.30
559.10	846.08
559.45	849.40
559.81	852.81
560.16	855.81
560.52	858.65
560.87	861.54
561.23	864.35
561.58	867.46
561.94	870.13
562.29	872.90
562.64	875.42
563.00	878.36
563.35	881.46
563.71	884.70
564.06	887.64
564.42	890.14
564.77	892.74
565.12	895.35
565.48	897.74
565.83	900.30
566.19	902.80
566.54	905.51
566.89	907.96
567.25	910.29
567.60	913.05
567.96	915.48
568.31	917.77
568.66	920.09
569.02	922.17
569.37	924.03
569.72	926.19
570.08	928.18
570.43	929.89
570.78	931.74
571.14	933.10
571.49	934.96
571.84	937.33
572.20	938.72
572.55	940.34
572.90	941.66
573.26	943.05
573.61	944.35
573.96	945.60
574.31	946.30
574.67	946.88
575.02	947.34
575.37	948.20
575.72	948.67
576.08	949.47
576.43	949.91
576.78	951.09
577.13	951.93
577.49	952.83
577.84	953.71
578.19	954.34
578.54	954.76
578.90	954.79
579.25	954.38
579.60	954.61
579.95	954.54
580.30	954.70
580.66	954.46
581.01	954.31
581.36	953.91
581.71	953.84
582.06	953.93
582.42	953.90
582.77	953.30
583.12	953.02
583.47	952.66
583.82	952.51
584.17	951.73
584.53	951.06
584.88	950.59
585.23	949.82
585.58	948.91
585.93	948.05
586.28	947.73
586.63	947.49
586.98	946.99
587.34	946.20
587.69	945.67
588.04	945.03
588.39	944.48
588.74	943.80
589.09	943.00
589.44	941.85
589.79	940.95
590.14	940.27
590.49	939.40
590.84	938.16
591.19	937.00
591.54	935.52
591.89	933.73
592.25	932.40
592.60	930.55
592.95	928.67
593.30	926.99
593.65	925.02
594.00	923.14
594.35	921.60
594.70	919.67
595.05	917.75
595.40	915.85
595.75	913.60
596.10	911.78
596.45	910.34
596.80	908.87
597.15	906.95
597.50	904.83
597.85	903.15
598.19	901.51
598.54	899.59
598.89	897.86
599.24	896.37
599.59	894.42
599.94	893.01
600.29	891.69
600.64	889.75
600.99	887.38
601.34	885.59
601.69	883.25
602.04	881.28
602.39	878.96
602.74	877.10
603.08	875.46
603.43	873.59
603.78	871.40
604.13	869.03
604.48	867.00
604.83	864.88
605.18	862.59
605.53	859.94
605.87	857.24
606.22	855.12
606.57	852.86
606.92	850.30
607.27	848.06
607.62	845.85
607.96	844.11
608.31	842.47
608.66	839.65
609.01	837.14
609.36	834.60
609.70	831.78
610.05	828.88
610.40	825.95
610.75	822.95
611.10	819.77
611.44	816.65
611.79	813.58
612.14	810.72
612.49	807.44
612.83	804.66
613.18	801.67
613.53	798.44
613.88	795.10
614.22	792.08
614.57	788.75
614.92	785.34
615.27	782.22
615.61	778.69
615.96	775.72
616.31	772.90
616.65	770.22
617.00	767.56
617.35	764.62
617.70	761.66
618.04	758.38
618.39	755.48
618.74	752.84
619.08	749.97
619.43	747.06
619.78	744.44
620.12	741.40
620.47	738.67
620.82	735.68
621.16	733.02
621.51	730.05
621.85	727.22
622.20	724.16
622.55	721.10
622.89	718.62
623.24	716.01
623.59	713.26
623.93	710.41
624.28	707.80
624.62	705.35
624.97	702.88
625.32	700.49
625.66	697.98
626.01	695.07
626.35	692.12
626.70	689.40
627.04	686.91
627.39	684.27
627.73	681.60
628.08	679.01
628.43	676.41
628.77	673.88
629.12	671.00
629.46	668.36
629.81	665.35
630.15	662.32
630.50	659.39
630.84	656.21
631.19	653.11
631.53	650.13
631.88	647.07
632.22	643.69
632.57	640.89
632.91	637.81
633.26	635.19
633.60	632.62
633.95	629.74
634.29	626.76
634.64	624.16
634.98	621.19
635.32	618.63
635.67	616.00
636.01	613.26
636.36	610.69
636.70	608.16
637.05	605.80
637.39	603.40
637.73	600.96
638.08	598.85
638.42	596.73
638.77	594.28
639.11	591.88
639.45	589.50
639.80	587.00
640.14	584.60
640.49	582.07
640.83	579.35
641.17	576.89
641.52	574.29
641.86	571.63
642.20	569.44
642.55	566.88
642.89	564.16
643.23	561.72
643.58	559.54
643.92	557.22
644.26	554.70
644.61	552.36
644.95	550.02
645.29	547.22
645.64	544.43
645.98	541.92
646.32	539.52
646.66	537.05
647.01	534.39
647.35	532.00
647.69	529.60
648.04	527.52
648.38	524.93
648.72	522.41
649.06	520.03
649.41	517.51
649.75	515.09
650.09	512.71
650.43	510.30
650.78	507.41
651.12	504.87
651.46	502.53
651.80	500.16
652.14	497.60
652.49	495.38
652.83	493.33
653.17	490.89
653.51	488.28
653.85	486.17
654.20	483.93
654.54	481.38
654.88	478.91
655.22	476.31
655.56	474.13
655.90	472.10
656.25	469.85
656.59	467.60
656.93	465.40
657.27	463.22
657.61	460.90
657.95	459.17
658.29	457.11
658.64	454.91
658.98	452.61
659.32	450.56
659.66	448.48
660.00	446.30
660.34	444.37
660.68	442.40
661.02	440.36
661.36	438.40
661.70	436.56
662.05	434.78
662.39	433.06
662.73	431.32
663.07	429.50
663.41	427.81
663.75	426.11
664.09	424.30
664.43	422.35
664.77	420.76
665.11	418.84
665.45	417.10
665.79	415.55
666.13	413.78
666.47	412.24
666.81	410.40
667.15	408.63
667.49	406.92
667.83	405.48
668.17	403.97
668.51	402.36
668.85	400.84
669.19	399.38
669.53	397.81
669.87	396.15
670.21	394.62
670.55	392.86
670.89	391.53
671.23	390.15
671.57	388.89
671.91	387.48
672.25	386.12
672.58	384.81
672.92	383.28
673.26	382.10
673.60	380.59
673.94	379.51
674.28	378.38
674.62	377.21
674.96	375.86
675.30	374.46
675.64	373.33
675.97	372.06
676.31	370.77
676.65	369.47
676.99	368.24
677.33	367.00
677.67	365.97
678.01	364.52
678.34	363.27
678.68	362.10
679.02	360.92
679.36	359.69
679.70	358.44
680.04	357.33
680.37	356.03
680.71	354.80
681.05	353.56
681.39	352.44
681.73	351.45
682.06	350.30
682.40	349.17
682.74	347.86
683.08	346.88
683.42	345.70
683.75	344.72
684.09	343.66
684.43	342.56
684.77	341.48
685.10	340.49
685.44	339.30
685.78	338.22
686.12	337.01
686.45	335.87
686.79	334.80
687.13	333.70
687.46	332.70
687.80	331.71
688.14	330.62
688.48	329.48
688.81	328.21
689.15	327.28
689.49	326.16
689.82	325.11
690.16	323.92
690.50	322.87
690.83	321.79
691.17	320.68
691.51	319.75
691.84	318.71
692.18	317.75
692.52	316.85
692.85	315.80
693.19	314.82
693.52	314.05
693.86	313.10
694.20	312.15
694.53	311.19
694.87	310.21
695.21	309.25
695.54	308.20
695.88	307.25
696.21	306.20
696.55	305.37
696.88	304.58
697.22	303.73
697.56	302.88
697.89	302.08
698.23	301.40
698.56	300.43
698.90	299.64
699.23	298.71
699.57	297.86
699.90	297.09
700.24	296.26
700.58	295.41
700.91	294.55
701.25	293.97
701.58	293.30
701.92	292.68
702.25	292.07
702.59	291.45
702.92	290.85
703.26	290.25
703.59	289.63
703.93	289.17
704.26	288.50
704.60	287.92
704.93	287.14
705.26	286.51
705.60	285.97
705.93	285.39
706.27	284.94
706.60	284.48
706.94	284.02
707.27	283.38
707.61	282.82
707.94	282.38
708.27	281.64
708.61	281.00
708.94	280.54
709.28	279.95
709.61	279.50
709.94	279.06
710.28	278.49
710.61	278.05
710.95	277.46
711.28	277.20
711.61	276.67
711.95	276.25
712.28	275.72
712.61	275.16
712.95	274.67
713.28	274.25
713.61	273.73
713.95	273.29
714.28	273.05
714.61	272.57
714.95	272.09
715.28	271.69
715.61	271.32
715.95	270.74
716.28	270.39
716.61	269.91
716.95	269.40
717.28	269.05
717.61	268.46
717.94	267.96
718.28	267.34
718.61	266.92
718.94	266.60
719.27	266.24
719.61	266.00
719.94	265.70
720.27	265.20
720.60	264.85
720.94	264.42
721.27	264.04
721.60	263.81
721.93	263.42
722.27	263.17
722.60	262.86
722.93	262.55
723.26	262.24
723.59	261.85
723.93	261.64
724.26	261.30
724.59	261.09
724.92	260.79
725.25	260.50
725.59	260.11
725.92	259.80
726.25	259.48
726.58	259.23
726.91	258.79
727.24	258.42
727.57	258.03
727.91	257.66
728.24	257.45
728.57	257.02
728.90	256.76
729.23	256.38
729.56	256.09
729.89	255.87
730.22	255.51
730.55	255.24
730.89	254.90
731.22	254.70
731.55	254.31
731.88	254.11
732.21	253.80
732.54	253.60
732.87	253.28
733.20	253.02
733.53	252.67
733.86	252.42
734.19	252.27
734.52	252.06
734.85	252.05
735.18	251.71
735.51	251.53
735.84	251.23
736.17	251.06
736.50	250.71
736.83	250.50
737.16	250.20
737.49	250.09
737.82	249.84
738.15	249.59
738.48	249.41
738.81	249.21
739.14	248.98
739.47	248.78
739.80	248.66
740.13	248.29
740.46	248.01
740.79	247.89
741.12	247.52
741.45	247.32
741.78	246.98
742.11	246.82
742.44	246.62
742.77	246.52
743.10	246.26
743.43	246.03
743.75	245.83
744.08	245.95
744.41	245.74
744.74	245.47
745.07	245.30
745.40	245.17
745.73	245.03
746.06	244.87
746.39	244.76
746.71	244.49
747.04	244.44
747.37	244.27
747.70	244.11
748.03	244.10
748.36	243.96
748.68	243.90
749.01	243.56
749.34	243.27
749.67	243.12
750.00	242.99
750.33	242.99
750.65	242.83
750.98	242.43
751.31	242.20
751.64	242.11
751.97	242.02
752.29	241.90
752.62	241.58
752.95	241.32
753.28	241.16
753.60	241.11
753.93	241.06
754.26	240.87
754.59	240.73
754.91	240.60
755.24	240.47
755.57	240.09
755.90	240.14
756.22	240.04
756.55	239.73
756.88	239.53
757.20	239.39
757.53	239.16
757.86	238.98
758.19	238.95
758.51	238.85
758.84	238.66
759.17	238.54
759.49	238.46
759.82	238.55
760.15	238.50
760.47	238.34
760.80	238.09
761.13	238.01
761.45	237.83
761.78	237.58
762.11	237.47
762.43	237.39
762.76	237.20
763.08	237.21
763.41	237.21
763.74	237.13
764.06	236.99
764.39	236.90
764.71	236.87
765.04	236.80
765.37	236.66
765.69	236.57
766.02	236.40
766.34	236.31
766.67	236.09
767.00	236.02
767.32	235.97
767.65	236.03
767.97	235.97
768.30	235.85
768.62	235.80
768.95	235.62
769.27	235.56
769.60	235.50
769.92	235.29
770.25	235.23
770.57	235.16
770.90	234.99
771.22	234.92
771.55	234.80
771.87	234.62
772.20	234.48
772.52	234.52
772.85	234.65
773.17	234.57
773.50	234.49
773.82	234.39
774.15	234.22
774.47	234.06
774.80	233.99
775.12	233.89
775.45	233.77
775.77	233.76
776.09	233.75
776.42	233.66
776.74	233.72
777.07	233.74
777.39	233.57
777.72	233.49
778.04	233.47
778.36	233.44
778.69	233.47
779.01	233.45
779.33	233.21
779.66	232.93
779.98	232.73
780.31	232.76
780.63	232.70
780.95	232.70
781.28	232.63
781.60	232.50
781.92	232.51
782.25	232.57
782.57	232.55
782.89	232.50
783.22	232.49
783.54	232.41
783.86	232.27
784.19	232.31
784.51	232.42
784.83	232.28
785.16	232.18
785.48	232.08
785.80	232.14
786.12	232.17
786.45	232.15
786.77	232.30
787.09	232.37
787.42	232.33
787.74	232.27
788.06	232.47
788.38	232.57
788.71	232.53
789.03	232.49
789.35	232.50
789.67	232.46
789.99	232.44
790.32	232.42
790.64	232.47
790.96	232.51
791.28	232.43
791.61	232.51
791.93	232.62
792.25	232.71
792.57	232.83
792.89	232.78
793.21	232.95
793.54	232.88
793.86	232.77
794.18	232.81
794.50	232.81
794.82	232.69
795.14	232.69
795.47	232.75
795.79	232.79
796.11	232.76
796.43	232.79
796.75	232.78
797.07	232.75
797.39	232.64
797.71	232.70
798.04	232.68
798.36	232.57
798.68	232.48
799.00	232.47
799.32	232.31
799.64	232.28
799.96	232.10
800.28	232.15
800.60	232.10
800.92	232.01
801.24	231.98
801.56	231.95
801.89	231.88
802.21	231.79
802.53	231.79
802.85	231.78
803.17	231.88
803.49	231.87
803.81	231.81
804.13	231.93
804.45	231.79
804.77	231.80
805.09	231.89
805.41	231.83
805.73	231.71
806.05	231.55
806.37	231.55
806.69	231.52
807.01	231.46
807.33	231.49
807.65	231.41
807.97	231.43
808.28	231.34
808.60	231.35
808.92	231.33
809.24	231.35
809.56	231.27
809.88	230.98
810.20	230.78
810.52	230.73
810.84	230.61
811.16	230.45
811.48	230.44
811.80	230.43
812.12	230.37
812.43	230.31
812.75	230.35
813.07	230.31
813.39	230.31
813.71	230.26
814.03	230.15
814.35	230.12
814.67	229.98
814.98	229.94
815.30	229.85
815.62	229.77
815.94	229.60
816.26	229.59
816.58	229.48
816.89	229.58
817.21	229.57
817.53	229.50
817.85	229.59
818.17	229.47
818.48	229.25
818.80	229.25
819.12	229.25
819.44	229.21
819.76	229.10
820.07	229.05
820.39	229.01
820.71	228.97
821.03	228.85
821.34	228.85
821.66	228.85
821.98	228.83
822.30	228.81
822.61	228.87
822.93	228.80
823.25	228.95
823.57	229.01
823.88	229.04
824.20	228.94
824.52	228.95
824.83	228.87
825.15	228.94
825.47	229.02
825.79	228.99
826.10	229.00
826.42	228.91
826.74	228.86
827.05	228.86
827.37	228.90
827.69	228.93
828.00	228.89
828.32	228.85
828.64	228.87
828.95	229.01
829.27	229.02
829.58	229.03
829.90	229.02
830.22	228.98
830.53	228.95
830.85	228.98
831.17	228.88
831.48	228.92
831.80	228.93
832.11	228.81
832.43	228.85
832.75	228.90
833.06	229.20
833.38	229.28
833.69	229.33
834.01	229.42
834.32	229.44
834.64	229.59
834.96	229.70
835.27	229.70
835.59	229.68
835.90	229.62
836.22	229.60
836.53	229.66
836.85	229.63
837.16	229.82
837.48	229.87
837.79	229.95
838.11	229.97
838.42	230.09
838.74	230.20
839.05	230.14
839.37	230.08
839.68	229.93
840.00	229.83
840.31	229.81
840.63	229.76
840.94	229.78
841.26	229.73
841.57	229.60
841.88	229.63
842.20	229.47
842.51	229.42
842.83	229.45
843.14	229.60
843.46	229.60
843.77	229.50
844.08	229.46
844.40	229.48
844.71	229.44
845.03	229.23
845.34	229.19
845.65	229.14
845.97	229.14
846.28	229.04
846.60	229.17
846.91	229.12
847.22	229.06
847.54	229.12
847.85	229.05
848.16	229.02
848.48	228.92
848.79	229.07
849.10	229.07
849.42	229.03
849.73	228.78
850.04	228.79
850.36	228.62
850.67	228.56
850.98	228.47
851.30	228.47
851.61	228.50
851.92	228.50
852.23	228.55
852.55	228.50
852.86	228.54
853.17	228.43
853.49	228.50
853.80	228.48
854.11	228.43
854.42	228.47
854.74	228.38
855.05	228.37
855.36	228.22
855.67	228.16
855.99	228.09
856.30	228.31
856.61	228.26
856.92	228.39
857.23	228.38
857.55	228.39
857.86	228.40
858.17	228.41
858.48	228.38
858.79	228.36
859.11	228.31
859.42	228.25
859.73	228.23
860.04	228.16
860.35	228.11
860.66	228.02
860.98	227.97
861.29	228.09
861.60	228.01
861.91	228.03
862.22	228.12
862.53	228.23
862.84	228.05
863.16	228.05
863.47	227.81
863.78	227.92
864.09	227.94
864.40	227.97
864.71	228.05
865.02	228.00
865.33	227.92
865.64	227.91
865.95	227.92
866.27	228.09
866.58	228.10
866.89	228.15
867.20	228.11
867.51	228.12
867.82	228.09
868.13	228.23
868.44	228.20
868.75	228.21
869.06	228.14
869.37	228.15
869.68	228.10
869.99	228.19
870.30	228.23
870.61	228.31
870.92	228.29
871.23	228.28
871.54	228.36
871.85	228.42
872.16	228.61
872.47	228.66
872.78	228.61
873.09	228.67
873.40	228.70
873.71	228.80
874.02	228.78
874.33	228.81
874.64	228.74
874.95	228.80
875.26	228.72
875.56	228.74
875.87	228.76
876.18	228.80
876.49	229.05
876.80	229.00
877.11	228.95
877.42	228.98
877.73	228.97
878.04	229.02
878.35	229.09
878.66	229.07
878.96	229.03
879.27	228.96
879.58	228.90
879.89	228.91
880.20	228.90
880.51	228.97
880.82	229.04
881.12	229.10
881.43	229.09
881.74	229.12
882.05	229.16
882.36	229.21
882.67	229.14
882.97	228.93
883.28	228.94
883.59	228.86
883.90	228.82
884.21	228.84
884.51	228.78
884.82	228.72
885.13	228.64
885.44	228.68
885.74	228.65
886.05	228.72
886.36	228.66
886.67	228.66
886.98	228.72
887.28	228.62
887.59	228.58
887.90	228.59
888.20	228.65
888.51	228.63
888.82	228.51
889.13	228.55
889.43	228.65
889.74	228.57
890.05	228.65
890.35	228.70
890.66	228.63
890.97	228.59
891.28	228.55
891.58	228.58
891.89	228.60
892.20	228.51
892.50	228.41
892.81	228.41
893.12	228.30
893.42	228.23
893.73	228.21
894.04	228.16
894.34	228.16
894.65	228.05
894.95	228.05
895.26	228.08
895.57	228.21
895.87	228.08
896.18	228.13
896.48	228.15
896.79	228.14
897.10	228.10
897.40	228.06
897.71	228.14
898.01	228.12
898.32	228.08
898.63	228.14
898.93	228.18
899.24	228.23
899.54	228.28
899.85	228.23
900.15	228.19
900.46	228.15
900.76	228.15
901.07	228.14
901.38	228.12
901.68	228.12
901.99	228.06
902.29	228.06
902.60	228.04
902.90	227.98
903.21	227.98
903.51	228.07
903.82	228.10
904.12	228.01
904.43	228.04
904.73	228.01
905.03	228.02
905.34	228.21
905.64	228.14
905.95	228.14
906.25	228.13
906.56	228.17
906.86	228.25
907.17	228.28
907.47	228.37
907.77	228.29
908.08	228.38
908.38	228.39
908.69	228.40
908.99	228.43
909.30	228.56
909.60	228.58
909.90	228.54
910.21	228.57
910.51	228.56
910.81	228.47
911.12	228.48
911.42	228.42
911.73	228.23
912.03	228.30
912.33	228.42
912.64	228.49
912.94	228.47
913.24	228.50
913.55	228.48
913.85	228.46
914.15	228.57
914.46	228.48
914.76	228.40
915.06	228.41
915.37	228.44
915.67	228.37
915.97	228.37
916.27	228.39
916.58	228.40
916.88	228.45
917.18	228.52
917.49	228.67
917.79	228.71
918.09	228.81
918.39	228.84
918.70	228.72
919.00	228.63
919.30	228.73
919.60	228.69
919.91	228.67
920.21	228.67
920.51	228.69
920.81	228.71
921.12	228.74
921.42	228.83
921.72	228.68
922.02	228.66
922.32	228.58
922.63	228.55
922.93	228.55
923.23	228.47
923.53	228.40
923.83	228.34
924.13	228.32
924.44	228.24
924.74	228.27
925.04	228.37
925.34	228.41
925.64	228.38
925.94	228.29
926.24	228.43
926.55	228.31
926.85	228.27
927.15	228.33
927.45	228.25
927.75	228.13
928.05	228.16
928.35	228.07
928.65	228.00
928.95	228.04
929.26	227.98
929.56	228.07
929.86	228.16
930.16	228.04
930.46	227.98
930.76	227.93
931.06	227.82
931.36	227.63
931.66	227.59
931.96	227.50
932.26	227.53
932.56	227.39
932.86	227.50
933.16	227.47
933.46	227.31
933.76	227.31
934.06	227.40
934.36	227.49
934.66	227.54
934.96	227.66
935.26	227.53
935.56	227.56
935.86	227.55
936.16	227.40
936.46	227.41
936.76	227.54
937.06	227.48
937.36	227.46
937.66	227.59
937.96	227.63
938.26	227.59
938.56	227.65
938.86	227.54
939.16	227.55
939.46	227.50
939.76	227.62
940.06	227.70
940.35	227.57
940.65	227.50
940.95	227.48
941.25	227.40
941.55	227.51
941.85	227.59
942.15	227.60
942.45	227.73
942.75	227.73
943.04	227.77
943.34	227.86
943.64	227.86
943.94	227.79
944.24	227.79
944.54	227.80
944.84	227.77
945.13	227.89
945.43	227.81
945.73	227.97
946.03	227.94
946.33	227.95
946.62	228.03
946.92	228.10
947.22	228.20
947.52	228.30
947.82	228.39
948.11	228.27
948.41	228.30
948.71	228.30
949.01	228.33
949.31	228.24
949.60	228.28
949.90	228.32
950.20	228.38
950.50	228.43
950.79	228.49
951.09	228.59
951.39	228.59
951.69	228.72
951.98	228.75
952.28	228.82
952.58	228.80
952.87	228.81
953.17	228.82
953.47	228.79
953.76	228.68
954.06	228.69
954.36	228.74
954.66	228.65
954.95	228.71
955.25	228.69
955.55	228.79
955.84	228.82
956.14	228.86
956.44	228.89
956.73	228.92
957.03	228.97
957.32	228.92
957.62	228.93
957.92	228.89
958.21	228.80
958.51	228.97
958.81	229.01
959.10	229.03
959.40	229.16
959.69	229.11
959.99	229.17
960.29	228.97
960.58	229.01
960.88	229.06
961.17	228.98
961.47	229.06
961.76	228.98
962.06	228.91
962.36	228.84
962.65	228.80
962.95	228.71
963.24	228.64
963.54	228.70
963.83	228.72
964.13	228.73
964.42	228.79
964.72	228.58
965.01	228.43
965.31	228.34
965.60	228.18
965.90	228.21
966.19	228.20
966.49	228.23
966.78	228.16
967.08	228.13
967.37	228.07
967.67	227.99
967.96	227.98
968.26	227.89
968.55	228.00
968.85	227.98
969.14	227.99
969.43	228.05
969.73	228.03
970.02	227.98
970.32	227.82
970.61	227.70
970.91	227.73
971.20	227.77
971.49	227.85
971.79	227.83
972.08	227.73
972.38	227.66
972.67	227.73
972.96	227.61
973.26	227.62
973.55	227.76
973.85	227.77
974.14	227.80
974.43	227.80
974.73	227.70
975.02	227.59
975.31	227.57
975.61	227.48
975.90	227.44
976.19	227.36
976.49	227.42
976.78	227.32
977.07	227.27
977.37	227.28
977.66	227.21
977.95	227.18
978.24	227.25
978.54	227.29
978.83	227.26
979.12	227.43
979.42	227.38
979.71	227.36
980.00	227.37
980.29	227.35
980.59	227.43
980.88	227.60
981.17	227.67
981.46	227.73
981.76	227.77
982.05	227.73
982.34	227.82
982.63	227.90
982.93	228.00
983.22	228.07
983.51	228.10
983.80	228.17
984.09	228.27
984.39	228.20
984.68	228.23
984.97	228.20
985.26	228.22
985.55	228.34
985.85	228.20
986.14	228.30
986.43	228.26
986.72	228.28
987.01	228.20
987.30	228.24
987.59	228.21
987.89	228.30
988.18	228.30
988.47	228.28
988.76	228.23
989.05	228.24
989.34	228.17
989.63	228.27
989.92	228.20
990.22	228.21
990.51	228.27
990.80	228.32
991.09	228.39
991.38	228.30
991.67	228.15
991.96	228.18
992.25	228.15
992.54	228.23
992.83	228.17
993.12	228.17
993.41	228.17
993.70	228.35
993.99	228.29
994.28	228.39
994.58	228.45
994.87	228.41
995.16	228.46
995.45	228.46
995.74	228.39
996.03	228.50
996.32	228.43
996.61	228.50
996.90	228.42
997.19	228.44
997.48	228.48
997.77	228.66
998.06	228.69
998.34	228.71
998.63	228.71
998.92	228.80
999.21	228.77
999.50	228.90
999.79	228.74
1000.08	228.76
1000.37	228.82
1000.66	228.75
1000.95	228.86
1001.24	228.79
1001.53	228.81
1001.82	228.82
1002.11	228.79
1002.40	228.92
1002.68	228.99
1002.97	229.20
1003.26	229.19
1003.55	229.17
1003.84	229.06
1004.13	229.12
1004.42	229.05
1004.71	229.03
1004.99	228.90
1005.28	228.93
1005.57	228.84
1005.86	228.82
1006.15	228.83
1006.44	228.70
1006.72	228.84
1007.01	228.87
1007.30	228.84
1007.59	228.87
1007.88	228.95
1008.17	228.90
1008.45	228.81
1008.74	228.77
1009.03	228.68
1009.32	228.66
1009.60	228.73
1009.89	228.83
1010.18	228.74
1010.47	228.74
1010.76	228.72
1011.04	228.74
1011.33	228.74
1011.62	228.77
1011.91	228.74
1012.19	228.71
1012.48	228.73
1012.77	228.61
1013.05	228.57
1013.34	228.69
1013.63	228.66
1013.92	228.56
1014.20	228.55
1014.49	228.52
1014.78	228.49
1015.06	228.35
1015.35	228.40
1015.64	228.42
1015.92	228.30
1016.21	228.39
1016.50	228.47
1016.78	228.48
1017.07	228.60
1017.36	228.59
1017.64	228.57
1017.93	228.66
1018.22	228.66
1018.50	228.63
1018.79	228.79
1019.08	228.78
1019.36	228.70
1019.65	228.70
1019.93	228.72
1020.22	228.79
1020.51	228.87
1020.79	228.84
1021.08	228.20
1021.36	228.10
1021.65	230.80
1021.94	228.70
1022.22	227.80
1022.51	228.50
1022.79	228.40
1023.08	229.30
1023.36	230.30
1023.65	228.50
>>>>>End Processed Spectral Data<<<<<
