SpectraSuite Data File
++++++++++++++++++++++++++++++++++++
Date: Fri Feb 01 14:41:52 EST 2013
User: group
Dark Spectrum Present: No
Reference Spectrum Present: No
Number of Sampled Component Spectra: 1
Spectrometers: USB2E7196
Integration Time (usec): 70000 (USB2E7196)
Spectra Averaged: 10 (USB2E7196)
Boxcar Smoothing: 10 (USB2E7196)
Correct for Electrical Dark: No (USB2E7196)
Strobe/Lamp Enabled: No (USB2E7196)
Correct for Detector Non-linearity: No (USB2E7196)
Correct for Stray Light: No (USB2E7196)
Number of Pixels in Processed Spectrum: 2048
>>>>>Begin Processed Spectral Data<<<<<
339.09	0.00
339.48	217.20
339.86	216.40
340.24	219.00
340.63	221.90
341.01	225.70
341.39	222.30
341.78	225.40
342.16	227.20
342.54	226.90
342.93	214.94
343.31	225.81
343.69	226.26
344.07	226.77
344.46	227.20
344.84	227.54
345.22	227.74
345.60	227.96
345.99	228.10
346.37	228.16
346.75	228.16
347.13	228.36
347.52	228.46
347.90	228.50
348.28	228.55
348.66	228.63
349.05	228.60
349.43	228.59
349.81	228.64
350.19	228.67
350.57	228.74
350.96	228.86
351.34	228.94
351.72	229.09
352.10	229.20
352.48	229.32
352.87	229.30
353.25	229.32
353.63	229.42
354.01	229.49
354.39	229.63
354.77	229.75
355.15	229.72
355.54	229.92
355.92	229.87
356.30	229.96
356.68	230.03
357.06	230.07
357.44	230.10
357.82	230.13
358.20	230.20
358.58	230.34
358.97	230.38
359.35	230.40
359.73	230.45
360.11	230.48
360.49	230.49
360.87	230.53
361.25	230.61
361.63	230.77
362.01	230.79
362.39	230.71
362.77	230.72
363.15	230.72
363.53	230.63
363.91	230.66
364.29	230.58
364.67	230.43
365.05	230.55
365.43	230.64
365.81	230.69
366.19	230.72
366.57	230.83
366.95	230.77
367.33	230.83
367.71	230.76
368.09	230.78
368.47	230.69
368.85	230.80
369.23	230.77
369.61	230.64
369.99	230.68
370.37	230.65
370.75	230.78
371.13	230.73
371.51	230.65
371.89	230.59
372.27	230.59
372.65	230.68
373.03	230.55
373.41	230.39
373.78	230.31
374.16	230.22
374.54	229.95
374.92	229.86
375.30	229.79
375.68	229.70
376.06	229.58
376.44	229.60
376.82	229.47
377.19	229.44
377.57	229.40
377.95	229.28
378.33	229.26
378.71	229.01
379.09	228.89
379.47	228.86
379.84	228.83
380.22	228.70
380.60	228.54
380.98	228.46
381.36	228.42
381.73	228.27
382.11	228.23
382.49	228.14
382.87	228.16
383.25	228.01
383.62	228.30
384.00	228.25
384.38	228.10
384.76	228.07
385.13	228.05
385.51	227.93
385.89	227.78
386.27	227.62
386.64	227.60
387.02	227.64
387.40	227.58
387.78	227.59
388.15	227.51
388.53	227.55
388.91	227.62
389.29	227.61
389.66	227.69
390.04	227.65
390.42	227.66
390.79	227.59
391.17	227.60
391.55	227.34
391.92	227.44
392.30	227.49
392.68	227.40
393.05	227.37
393.43	227.46
393.81	227.51
394.18	227.58
394.56	227.65
394.94	227.63
395.31	227.52
395.69	227.61
396.06	227.85
396.44	227.80
396.82	227.86
397.19	228.00
397.57	228.02
397.95	228.13
398.32	228.25
398.70	228.34
399.07	228.45
399.45	228.53
399.82	228.50
400.20	228.54
400.58	228.66
400.95	228.70
401.33	228.84
401.70	229.20
402.08	229.42
402.45	229.56
402.83	229.81
403.20	230.14
403.58	230.34
403.95	230.42
404.33	230.66
404.71	230.80
405.08	231.11
405.46	231.26
405.83	231.53
406.21	231.74
406.58	232.02
406.96	232.25
407.33	232.46
407.70	232.76
408.08	233.24
408.45	233.59
408.83	233.93
409.20	234.20
409.58	234.40
409.95	234.70
410.33	235.12
410.70	235.43
411.08	235.80
411.45	236.07
411.82	236.49
412.20	236.93
412.57	237.58
412.95	237.98
413.32	238.57
413.69	239.10
414.07	239.70
414.44	240.32
414.82	241.08
415.19	241.84
415.56	242.77
415.94	243.53
416.31	244.48
416.68	245.44
417.06	246.49
417.43	247.44
417.81	248.58
418.18	249.69
418.55	250.92
418.93	252.29
419.30	253.76
419.67	255.18
420.04	256.66
420.42	258.13
420.79	260.00
421.16	261.75
421.54	263.49
421.91	265.46
422.28	267.33
422.66	269.21
423.03	271.11
423.40	273.01
423.77	275.02
424.15	277.19
424.52	279.35
424.89	281.75
425.26	284.06
425.64	286.11
426.01	288.42
426.38	290.78
426.75	293.19
427.13	295.51
427.50	298.08
427.87	300.71
428.24	303.28
428.61	305.67
428.99	308.48
429.36	311.53
429.73	314.42
430.10	317.33
430.47	320.27
430.85	323.42
431.22	326.56
431.59	329.95
431.96	333.19
432.33	336.72
432.70	340.07
433.08	343.98
433.45	347.80
433.82	351.61
434.19	355.80
434.56	359.76
434.93	363.69
435.30	367.48
435.68	371.70
436.05	375.81
436.42	379.79
436.79	383.33
437.16	387.14
437.53	391.20
437.90	395.31
438.27	399.25
438.64	403.36
439.01	407.14
439.38	410.50
439.75	413.43
440.13	417.06
440.50	420.33
440.87	423.14
441.24	425.98
441.61	429.03
441.98	431.17
442.35	433.69
442.72	436.21
443.09	438.81
443.46	440.26
443.83	441.00
444.20	441.73
444.57	442.90
444.94	443.26
445.31	443.54
445.68	443.95
446.05	444.06
446.42	443.35
446.79	442.64
447.16	441.99
447.53	441.57
447.90	439.71
448.27	438.00
448.64	435.66
449.01	433.92
449.37	431.06
449.74	428.25
450.11	425.16
450.48	421.77
450.85	418.09
451.22	414.94
451.59	412.09
451.96	409.14
452.33	405.55
452.70	402.29
453.07	398.27
453.43	393.97
453.80	389.98
454.17	386.12
454.54	382.46
454.91	378.45
455.28	374.50
455.65	371.00
456.02	367.68
456.38	364.46
456.75	360.62
457.12	357.26
457.49	354.01
457.86	350.71
458.23	347.91
458.59	344.99
458.96	341.86
459.33	339.21
459.70	336.59
460.07	334.27
460.43	331.67
460.80	329.38
461.17	327.40
461.54	325.12
461.91	323.00
462.27	320.87
462.64	319.03
463.01	317.04
463.38	315.08
463.74	312.98
464.11	311.25
464.48	309.73
464.85	308.21
465.21	306.97
465.58	305.65
465.95	304.14
466.32	302.74
466.68	301.41
467.05	299.96
467.42	298.54
467.78	297.22
468.15	296.00
468.52	295.03
468.88	293.73
469.25	292.70
469.62	291.87
469.98	290.95
470.35	289.89
470.72	289.06
471.08	288.04
471.45	287.16
471.82	286.34
472.18	285.45
472.55	284.69
472.92	283.84
473.28	283.11
473.65	282.26
474.02	281.67
474.38	281.12
474.75	280.56
475.11	280.05
475.48	279.42
475.85	278.86
476.21	278.36
476.58	278.07
476.94	277.84
477.31	277.42
477.67	277.00
478.04	276.80
478.41	276.55
478.77	276.64
479.14	276.36
479.50	276.23
479.87	276.15
480.23	276.17
480.60	276.16
480.96	276.07
481.33	276.28
481.69	276.22
482.06	276.25
482.42	276.44
482.79	276.66
483.15	277.00
483.52	277.35
483.88	277.61
484.25	277.78
484.61	278.12
484.98	278.49
485.34	279.11
485.71	279.71
486.07	280.33
486.44	280.78
486.80	281.60
487.17	282.41
487.53	283.31
487.90	284.10
488.26	285.19
488.62	286.45
488.99	287.46
489.35	288.62
489.72	289.92
490.08	291.18
490.44	292.48
490.81	294.06
491.17	295.56
491.54	297.30
491.90	299.30
492.26	301.22
492.63	303.32
492.99	305.26
493.36	307.69
493.72	310.18
494.08	312.70
494.45	315.44
494.81	318.32
495.17	321.31
495.54	324.48
495.90	327.66
496.26	330.90
496.63	334.55
496.99	338.50
497.35	342.50
497.72	346.69
498.08	351.14
498.44	355.73
498.80	360.73
499.17	365.82
499.53	370.87
499.89	376.26
500.26	381.90
500.62	387.80
500.98	393.74
501.34	400.18
501.71	406.83
502.07	413.69
502.43	420.62
502.79	427.78
503.16	435.54
503.52	443.64
503.88	451.91
504.24	460.36
504.60	469.01
504.97	478.37
505.33	488.04
505.69	498.10
506.05	508.20
506.41	518.45
506.78	528.96
507.14	539.91
507.50	551.28
507.86	562.98
508.22	575.05
508.59	587.33
508.95	600.11
509.31	613.18
509.67	626.70
510.03	640.75
510.39	654.94
510.75	669.40
511.12	684.02
511.48	699.03
511.84	714.50
512.20	730.06
512.56	746.12
512.92	762.46
513.28	778.85
513.64	795.77
514.00	812.66
514.37	830.30
514.73	848.04
515.09	865.83
515.45	884.22
515.81	902.66
516.17	921.68
516.53	940.75
516.89	960.02
517.25	979.48
517.61	999.39
517.97	1019.16
518.33	1039.07
518.69	1059.33
519.05	1080.20
519.41	1101.27
519.77	1122.87
520.13	1144.41
520.49	1165.77
520.85	1187.68
521.21	1209.21
521.57	1231.94
521.93	1253.70
522.29	1276.64
522.65	1299.13
523.01	1321.50
523.37	1343.90
523.73	1366.13
524.09	1388.93
524.45	1411.92
524.81	1435.30
525.17	1458.86
525.53	1482.63
525.89	1506.47
526.25	1530.17
526.61	1553.06
526.97	1576.83
527.33	1600.09
527.68	1623.47
528.04	1646.72
528.40	1670.15
528.76	1694.34
529.12	1718.36
529.48	1742.78
529.84	1765.84
530.20	1789.83
530.56	1814.57
530.91	1839.83
531.27	1864.61
531.63	1888.29
531.99	1911.91
532.35	1934.85
532.71	1957.52
533.07	1981.10
533.42	2004.04
533.78	2027.46
534.14	2051.04
534.50	2072.80
534.86	2095.83
535.21	2117.34
535.57	2140.40
535.93	2162.79
536.29	2184.91
536.65	2206.85
537.00	2227.98
537.36	2250.19
537.72	2271.53
538.08	2291.76
538.44	2311.30
538.79	2331.70
539.15	2351.33
539.51	2372.12
539.87	2393.34
540.22	2413.20
540.58	2433.20
540.94	2452.59
541.29	2471.19
541.65	2489.71
542.01	2509.48
542.37	2528.25
542.72	2547.50
543.08	2565.38
543.44	2583.56
543.79	2600.36
544.15	2616.84
544.51	2635.05
544.87	2651.98
545.22	2668.12
545.58	2684.34
545.94	2700.09
546.29	2715.42
546.65	2731.23
547.01	2745.30
547.36	2758.69
547.72	2772.34
548.07	2785.77
548.43	2799.60
548.79	2812.69
549.14	2825.27
549.50	2836.90
549.86	2847.40
550.21	2858.36
550.57	2869.83
550.92	2881.09
551.28	2891.88
551.64	2902.55
551.99	2912.37
552.35	2921.81
552.70	2931.96
553.06	2941.89
553.41	2951.63
553.77	2960.66
554.13	2970.09
554.48	2979.81
554.84	2989.17
555.19	2998.40
555.55	3006.78
555.90	3014.34
556.26	3021.81
556.61	3029.57
556.97	3036.76
557.32	3045.15
557.68	3052.68
558.03	3059.58
558.39	3065.82
558.74	3073.30
559.10	3079.99
559.45	3086.73
559.81	3094.05
560.16	3100.03
560.52	3104.98
560.87	3111.45
561.23	3116.06
561.58	3121.10
561.94	3125.44
562.29	3128.80
562.64	3132.52
563.00	3136.38
563.35	3141.48
563.71	3146.95
564.06	3151.86
564.42	3156.81
564.77	3160.92
565.12	3165.23
565.48	3169.16
565.83	3171.62
566.19	3174.40
566.54	3176.21
566.89	3177.83
567.25	3179.65
567.60	3182.28
567.96	3184.61
568.31	3185.24
568.66	3187.17
569.02	3188.40
569.37	3189.46
569.72	3190.93
570.08	3191.66
570.43	3191.82
570.78	3190.60
571.14	3188.74
571.49	3187.37
571.84	3186.90
572.20	3184.78
572.55	3182.91
572.90	3180.25
573.26	3179.18
573.61	3176.92
573.96	3174.92
574.31	3170.89
574.67	3166.06
575.02	3161.09
575.37	3157.24
575.72	3152.56
576.08	3148.95
576.43	3143.67
576.78	3138.70
577.13	3134.48
577.49	3129.66
577.84	3124.52
578.19	3119.63
578.54	3114.68
578.90	3108.33
579.25	3100.73
579.60	3094.76
579.95	3087.32
580.30	3080.00
580.66	3072.40
581.01	3064.92
581.36	3057.82
581.71	3051.90
582.06	3045.40
582.42	3038.49
582.77	3031.34
583.12	3024.24
583.47	3016.90
583.82	3010.32
584.17	3002.72
584.53	2995.08
584.88	2988.08
585.23	2980.60
585.58	2972.91
585.93	2965.27
586.28	2959.03
586.63	2952.30
586.98	2945.11
587.34	2937.98
587.69	2931.38
588.04	2924.62
588.39	2917.31
588.74	2908.58
589.09	2899.86
589.44	2890.61
589.79	2882.71
590.14	2874.95
590.49	2866.35
590.84	2857.07
591.19	2848.40
591.54	2838.32
591.89	2827.61
592.25	2817.55
592.60	2806.78
592.95	2796.64
593.30	2786.28
593.65	2774.95
594.00	2764.19
594.35	2754.62
594.70	2744.03
595.05	2734.03
595.40	2722.81
595.75	2711.63
596.10	2702.43
596.45	2693.25
596.80	2684.73
597.15	2675.19
597.50	2664.63
597.85	2655.67
598.19	2646.62
598.54	2637.17
598.89	2628.93
599.24	2620.63
599.59	2611.40
599.94	2603.09
600.29	2593.88
600.64	2584.98
600.99	2575.33
601.34	2566.27
601.69	2555.60
602.04	2546.52
602.39	2536.62
602.74	2528.08
603.08	2519.51
603.43	2510.31
603.78	2500.63
604.13	2491.10
604.48	2481.06
604.83	2471.62
605.18	2461.50
605.53	2450.36
605.87	2438.62
606.22	2428.21
606.57	2417.31
606.92	2406.88
607.27	2396.49
607.62	2386.64
607.96	2376.36
608.31	2366.82
608.66	2355.80
609.01	2344.58
609.36	2332.90
609.70	2320.89
610.05	2308.71
610.40	2297.60
610.75	2285.77
611.10	2273.98
611.44	2260.90
611.79	2249.70
612.14	2237.66
612.49	2224.73
612.83	2213.20
613.18	2201.53
613.53	2189.78
613.88	2177.60
614.22	2166.04
614.57	2153.58
614.92	2141.52
615.27	2129.83
615.61	2118.15
615.96	2106.86
616.31	2096.23
616.65	2086.40
617.00	2075.88
617.35	2065.29
617.70	2053.48
618.04	2041.60
618.39	2030.13
618.74	2019.87
619.08	2008.10
619.43	1997.10
619.78	1987.47
620.12	1977.00
620.47	1966.63
620.82	1955.09
621.16	1945.04
621.51	1934.28
621.85	1924.02
622.20	1912.93
622.55	1902.48
622.89	1891.80
623.24	1881.40
623.59	1871.16
623.93	1860.53
624.28	1850.12
624.62	1839.18
624.97	1829.06
625.32	1819.10
625.66	1809.22
626.01	1799.07
626.35	1788.94
626.70	1778.51
627.04	1768.04
627.39	1757.15
627.73	1746.64
628.08	1736.73
628.43	1725.91
628.77	1715.68
629.12	1704.85
629.46	1694.23
629.81	1682.68
630.15	1671.69
630.50	1660.80
630.84	1649.55
631.19	1638.00
631.53	1627.09
631.88	1616.32
632.22	1605.04
632.57	1594.93
632.91	1584.05
633.26	1573.20
633.60	1561.89
633.95	1551.53
634.29	1541.56
634.64	1532.11
634.98	1522.12
635.32	1512.35
635.67	1503.00
636.01	1493.07
636.36	1483.52
636.70	1474.19
637.05	1465.36
637.39	1456.35
637.73	1447.40
638.08	1438.85
638.42	1430.41
638.77	1421.78
639.11	1412.42
639.45	1403.54
639.80	1393.92
640.14	1384.86
640.49	1376.05
640.83	1367.06
641.17	1357.87
641.52	1348.17
641.86	1338.63
642.20	1329.97
642.55	1320.96
642.89	1312.06
643.23	1302.64
643.58	1294.08
643.92	1284.68
644.26	1275.64
644.61	1267.12
644.95	1258.42
645.29	1248.55
645.64	1238.76
645.98	1229.62
646.32	1221.38
646.66	1212.50
647.01	1203.77
647.35	1195.27
647.69	1186.53
648.04	1178.70
648.38	1170.16
648.72	1161.25
649.06	1152.05
649.41	1143.18
649.75	1134.11
650.09	1124.99
650.43	1116.43
650.78	1107.09
651.12	1098.59
651.46	1090.15
651.80	1081.30
652.14	1072.84
652.49	1064.81
652.83	1057.15
653.17	1048.61
653.51	1040.11
653.85	1032.21
654.20	1024.05
654.54	1015.36
654.88	1007.03
655.22	998.31
655.56	989.90
655.90	982.40
656.25	975.24
656.59	967.30
656.93	959.87
657.27	952.40
657.61	944.51
657.95	937.63
658.29	930.87
658.64	923.41
658.98	915.82
659.32	907.90
659.66	900.48
660.00	892.92
660.34	885.88
660.68	878.80
661.02	871.21
661.36	864.36
661.70	858.01
662.05	851.59
662.39	845.39
662.73	838.77
663.07	832.27
663.41	825.86
663.75	819.54
664.09	813.26
664.43	806.84
664.77	800.92
665.11	794.88
665.45	788.63
665.79	782.45
666.13	776.40
666.47	770.56
666.81	764.61
667.15	758.59
667.49	752.74
667.83	746.94
668.17	741.30
668.51	735.48
668.85	729.64
669.19	723.94
669.53	718.41
669.87	713.11
670.21	707.81
670.55	702.49
670.89	697.61
671.23	692.77
671.57	687.95
671.91	683.05
672.25	678.00
672.58	672.80
672.92	667.82
673.26	663.20
673.60	658.50
673.94	653.90
674.28	649.54
674.62	645.41
674.96	641.16
675.30	637.22
675.64	633.16
675.97	629.21
676.31	625.08
676.65	620.72
676.99	616.81
677.33	612.36
677.67	608.00
678.01	603.52
678.34	598.88
678.68	594.70
679.02	590.50
679.36	586.47
679.70	582.80
680.04	579.09
680.37	575.06
680.71	571.25
681.05	567.60
681.39	564.15
681.73	560.10
682.06	556.40
682.40	552.88
682.74	549.14
683.08	545.42
683.42	541.73
683.75	538.40
684.09	534.66
684.43	531.31
684.77	527.83
685.10	524.60
685.44	521.32
685.78	518.07
686.12	515.09
686.45	511.75
686.79	508.41
687.13	505.21
687.46	502.08
687.80	498.94
688.14	495.76
688.48	492.57
688.81	489.59
689.15	486.68
689.49	483.45
689.82	480.51
690.16	477.40
690.50	474.75
690.83	471.95
691.17	469.20
691.51	466.53
691.84	464.00
692.18	461.17
692.52	458.48
692.85	455.61
693.19	452.85
693.52	450.11
693.86	447.38
694.20	444.70
694.53	442.11
694.87	439.56
695.21	436.88
695.54	434.24
695.88	431.46
696.21	428.73
696.55	426.34
696.88	423.99
697.22	421.64
697.56	419.14
697.89	416.72
698.23	414.30
698.56	411.80
698.90	409.38
699.23	407.03
699.57	404.87
699.90	402.74
700.24	400.57
700.58	398.44
700.91	396.43
701.25	394.45
701.58	392.41
701.92	390.24
702.25	388.38
702.59	386.36
702.92	384.63
703.26	382.90
703.59	380.92
703.93	379.18
704.26	377.31
704.60	375.43
704.93	373.63
705.26	371.95
705.60	370.29
705.93	368.61
706.27	367.19
706.60	365.67
706.94	364.14
707.27	362.28
707.61	360.64
707.94	358.99
708.27	357.30
708.61	355.63
708.94	354.20
709.28	352.75
709.61	351.41
709.94	349.99
710.28	348.52
710.61	347.10
710.95	345.39
711.28	343.96
711.61	342.58
711.95	341.22
712.28	339.62
712.61	338.19
712.95	336.77
713.28	335.38
713.61	333.99
713.95	332.61
714.28	331.41
714.61	330.12
714.95	328.91
715.28	327.69
715.61	326.51
715.95	325.37
716.28	324.12
716.61	322.85
716.95	321.55
717.28	320.40
717.61	319.33
717.94	318.28
718.28	317.18
718.61	316.01
718.94	314.78
719.27	313.81
719.61	312.86
719.94	311.92
720.27	310.76
720.60	309.66
720.94	308.63
721.27	307.69
721.60	306.76
721.93	305.75
722.27	304.80
722.60	303.88
722.93	302.98
723.26	302.07
723.59	301.24
723.93	300.43
724.26	299.52
724.59	298.66
724.92	297.84
725.25	297.01
725.59	296.25
725.92	295.55
726.25	294.86
726.58	294.00
726.91	293.25
727.24	292.59
727.57	291.90
727.91	291.21
728.24	290.59
728.57	289.93
728.90	289.30
729.23	288.55
729.56	287.99
729.89	287.16
730.22	286.54
730.55	285.82
730.89	285.23
731.22	284.57
731.55	283.92
731.88	283.24
732.21	282.67
732.54	281.93
732.87	281.35
733.20	280.61
733.53	280.09
733.86	279.47
734.19	278.94
734.52	278.39
734.85	277.90
735.18	277.19
735.51	276.67
735.84	276.09
736.17	275.64
736.50	274.98
736.83	274.78
737.16	274.30
737.49	273.81
737.82	273.20
738.15	272.74
738.48	272.30
738.81	271.88
739.14	271.34
739.47	271.05
739.80	270.61
740.13	270.19
740.46	269.69
740.79	269.25
741.12	268.59
741.45	268.11
741.78	267.51
742.11	267.17
742.44	266.67
742.77	266.20
743.10	265.74
743.43	265.39
743.75	264.79
744.08	264.54
744.41	264.08
744.74	263.80
745.07	263.32
745.40	262.94
745.73	262.56
746.06	262.16
746.39	261.70
746.71	261.32
747.04	261.05
747.37	260.57
747.70	260.16
748.03	259.85
748.36	259.54
748.68	259.26
749.01	258.80
749.34	258.42
749.67	258.09
750.00	257.79
750.33	257.44
750.65	257.12
750.98	256.54
751.31	256.27
751.64	255.92
751.97	255.79
752.29	255.38
752.62	255.03
752.95	254.75
753.28	254.42
753.60	254.03
753.93	253.67
754.26	253.46
754.59	253.18
754.91	252.81
755.24	252.48
755.57	252.10
755.90	251.80
756.22	251.49
756.55	251.24
756.88	250.89
757.20	250.52
757.53	250.16
757.86	249.90
758.19	249.60
758.51	249.32
758.84	248.93
759.17	248.67
759.49	248.43
759.82	248.25
760.15	248.00
760.47	247.80
760.80	247.50
761.13	247.30
761.45	247.01
761.78	246.93
762.11	246.65
762.43	246.50
762.76	246.27
763.08	246.08
763.41	245.87
763.74	245.62
764.06	245.43
764.39	245.19
764.71	244.97
765.04	244.75
765.37	244.48
765.69	244.33
766.02	244.16
766.34	243.89
766.67	243.72
767.00	243.60
767.32	243.42
767.65	243.43
767.97	243.26
768.30	243.10
768.62	242.88
768.95	242.72
769.27	242.50
769.60	242.41
769.92	242.15
770.25	242.02
770.57	241.86
770.90	241.77
771.22	241.64
771.55	241.50
771.87	241.46
772.20	241.30
772.52	241.27
772.85	241.40
773.17	241.30
773.50	241.13
773.82	240.89
774.15	240.66
774.47	240.41
774.80	240.26
775.12	240.18
775.45	240.00
775.77	239.86
776.09	239.75
776.42	239.57
776.74	239.62
777.07	239.43
777.39	239.41
777.72	239.20
778.04	239.10
778.36	239.00
778.69	238.87
779.01	238.83
779.33	238.51
779.66	238.20
779.98	238.12
780.31	237.99
780.63	238.10
780.95	238.06
781.28	237.93
781.60	237.82
781.92	237.67
782.25	237.59
782.57	237.52
782.89	237.38
783.22	237.34
783.54	237.15
783.86	237.15
784.19	236.96
784.51	236.97
784.83	236.87
785.16	236.80
785.48	236.67
785.80	236.64
786.12	236.66
786.45	236.52
786.77	236.52
787.09	236.48
787.42	236.29
787.74	236.40
788.06	236.35
788.38	236.26
788.71	236.24
789.03	236.12
789.35	236.08
789.67	236.05
789.99	236.07
790.32	236.06
790.64	235.97
790.96	236.20
791.28	236.05
791.61	235.94
791.93	235.90
792.25	235.85
792.57	235.93
792.89	235.79
793.21	235.81
793.54	235.57
793.86	235.40
794.18	235.37
794.50	235.10
794.82	235.00
795.14	234.99
795.47	234.92
795.79	234.98
796.11	234.86
796.43	234.72
796.75	234.52
797.07	234.41
797.39	234.39
797.71	234.06
798.04	234.02
798.36	234.10
798.68	234.00
799.00	233.90
799.32	233.65
799.64	233.65
799.96	233.46
800.28	233.57
800.60	233.62
800.92	233.52
801.24	233.47
801.56	233.45
801.89	233.42
802.21	233.43
802.53	233.32
802.85	233.30
803.17	233.42
803.49	233.38
803.81	233.47
804.13	233.35
804.45	233.42
804.77	233.47
805.09	233.32
805.41	233.24
805.73	233.20
806.05	233.11
806.37	233.00
806.69	233.02
807.01	232.90
807.33	232.84
807.65	232.69
807.97	232.77
808.28	232.73
808.60	232.70
808.92	232.69
809.24	232.74
809.56	232.73
809.88	232.61
810.20	232.58
810.52	232.44
810.84	232.34
811.16	232.23
811.48	232.19
811.80	232.21
812.12	232.27
812.43	232.21
812.75	232.16
813.07	232.16
813.39	232.10
813.71	232.04
814.03	232.02
814.35	232.08
814.67	232.01
814.98	232.00
815.30	231.93
815.62	231.78
815.94	231.74
816.26	231.74
816.58	231.80
816.89	231.80
817.21	231.80
817.53	231.85
817.85	231.76
818.17	231.69
818.48	231.59
818.80	231.53
819.12	231.60
819.44	231.60
819.76	231.59
820.07	231.53
820.39	231.52
820.71	231.43
821.03	231.42
821.34	231.33
821.66	231.33
821.98	231.23
822.30	231.15
822.61	231.05
822.93	230.92
823.25	230.84
823.57	230.89
823.88	230.88
824.20	230.85
824.52	230.93
824.83	230.81
825.15	230.87
825.47	230.85
825.79	230.85
826.10	230.86
826.42	230.75
826.74	230.80
827.05	230.80
827.37	230.78
827.69	230.75
828.00	230.76
828.32	230.74
828.64	230.82
828.95	230.95
829.27	230.99
829.58	230.97
829.90	230.96
830.22	230.92
830.53	230.86
830.85	230.78
831.17	230.74
831.48	230.90
831.80	230.74
832.11	230.69
832.43	230.55
832.75	230.50
833.06	230.60
833.38	230.54
833.69	230.54
834.01	230.52
834.32	230.38
834.64	230.34
834.96	230.23
835.27	230.21
835.59	230.06
835.90	230.04
836.22	230.07
836.53	230.04
836.85	229.94
837.16	230.08
837.48	230.04
837.79	230.06
838.11	229.94
838.42	230.04
838.74	230.02
839.05	230.05
839.37	230.00
839.68	229.86
840.00	229.74
840.31	229.73
840.63	229.68
840.94	229.69
841.26	229.64
841.57	229.73
841.88	229.61
842.20	229.57
842.51	229.44
842.83	229.42
843.14	229.54
843.46	229.51
843.77	229.33
844.08	229.33
844.40	229.21
844.71	229.24
845.03	229.17
845.34	229.17
845.65	229.06
845.97	229.16
846.28	229.14
846.60	229.17
846.91	229.18
847.22	229.19
847.54	229.17
847.85	229.18
848.16	229.18
848.48	229.15
848.79	229.23
849.10	229.32
849.42	229.27
849.73	229.01
850.04	228.98
850.36	228.92
850.67	228.97
850.98	228.93
851.30	228.84
851.61	228.78
851.92	228.73
852.23	228.90
852.55	228.91
852.86	228.95
853.17	229.04
853.49	229.06
853.80	229.13
854.11	229.24
854.42	229.31
854.74	229.25
855.05	229.30
855.36	229.22
855.67	229.24
855.99	229.24
856.30	229.49
856.61	229.57
856.92	229.62
857.23	229.70
857.55	229.81
857.86	229.84
858.17	229.93
858.48	230.00
858.79	230.10
859.11	230.08
859.42	230.21
859.73	230.23
860.04	230.23
860.35	230.17
860.66	230.11
860.98	230.12
861.29	230.15
861.60	230.18
861.91	230.20
862.22	230.04
862.53	230.04
862.84	229.95
863.16	229.93
863.47	230.01
863.78	229.90
864.09	229.87
864.40	229.96
864.71	229.99
865.02	229.99
865.33	229.87
865.64	229.78
865.95	229.64
866.27	229.67
866.58	229.63
866.89	229.64
867.20	229.73
867.51	229.62
867.82	229.55
868.13	229.62
868.44	229.66
868.75	229.88
869.06	229.93
869.37	229.89
869.68	229.84
869.99	229.77
870.30	229.78
870.61	229.82
870.92	229.75
871.23	229.70
871.54	229.64
871.85	229.59
872.16	229.59
872.47	229.53
872.78	229.35
873.09	229.40
873.40	229.29
873.71	229.23
874.02	229.12
874.33	229.08
874.64	229.01
874.95	229.10
875.26	228.90
875.56	228.82
875.87	228.86
876.18	228.81
876.49	229.00
876.80	229.05
877.11	228.85
877.42	228.83
877.73	228.90
878.04	228.81
878.35	228.78
878.66	228.82
878.96	228.78
879.27	228.78
879.58	228.70
879.89	228.73
880.20	228.74
880.51	228.78
880.82	228.78
881.12	228.70
881.43	228.49
881.74	228.54
882.05	228.56
882.36	228.49
882.67	228.57
882.97	228.28
883.28	228.21
883.59	228.31
883.90	228.24
884.21	228.13
884.51	228.10
884.82	228.14
885.13	228.07
885.44	228.08
885.74	228.07
886.05	228.10
886.36	228.07
886.67	227.97
886.98	228.07
887.28	228.07
887.59	228.13
887.90	228.20
888.20	228.17
888.51	228.14
888.82	228.02
889.13	228.00
889.43	228.15
889.74	227.98
890.05	227.96
890.35	227.95
890.66	227.89
890.97	227.91
891.28	227.82
891.58	227.80
891.89	227.83
892.20	227.85
892.50	227.64
892.81	227.64
893.12	227.67
893.42	227.62
893.73	227.63
894.04	227.65
894.34	227.62
894.65	227.60
894.95	227.55
895.26	227.60
895.57	227.70
895.87	227.54
896.18	227.69
896.48	227.72
896.79	227.76
897.10	227.92
897.40	228.05
897.71	228.05
898.01	228.13
898.32	228.13
898.63	228.10
898.93	228.26
899.24	228.27
899.54	228.32
899.85	228.31
900.15	228.31
900.46	228.35
900.76	228.48
901.07	228.50
901.38	228.58
901.68	228.61
901.99	228.49
902.29	228.48
902.60	228.48
902.90	228.39
903.21	228.46
903.51	228.41
903.82	228.39
904.12	228.44
904.43	228.43
904.73	228.42
905.03	228.45
905.34	228.61
905.64	228.65
905.95	228.60
906.25	228.62
906.56	228.68
906.86	228.53
907.17	228.46
907.47	228.43
907.77	228.40
908.08	228.36
908.38	228.33
908.69	228.34
908.99	228.35
909.30	228.36
909.60	228.20
909.90	228.16
910.21	228.09
910.51	228.13
910.81	228.09
911.12	228.04
911.42	228.00
911.73	227.89
912.03	227.90
912.33	227.89
912.64	227.84
912.94	227.79
913.24	227.84
913.55	227.83
913.85	227.83
914.15	227.82
914.46	227.94
914.76	227.94
915.06	228.05
915.37	228.05
915.67	228.11
915.97	228.23
916.27	228.18
916.58	228.15
916.88	228.03
917.18	228.06
917.49	228.26
917.79	228.33
918.09	228.31
918.39	228.40
918.70	228.42
919.00	228.42
919.30	228.46
919.60	228.44
919.91	228.46
920.21	228.48
920.51	228.52
920.81	228.42
921.12	228.40
921.42	228.30
921.72	228.25
922.02	228.19
922.32	228.17
922.63	228.23
922.93	228.40
923.23	228.46
923.53	228.45
923.83	228.35
924.13	228.37
924.44	228.28
924.74	228.26
925.04	228.39
925.34	228.39
925.64	228.25
925.94	228.18
926.24	228.29
926.55	228.24
926.85	228.27
927.15	228.32
927.45	228.40
927.75	228.42
928.05	228.55
928.35	228.54
928.65	228.72
928.95	228.80
929.26	228.69
929.56	228.81
929.86	228.84
930.16	228.83
930.46	228.83
930.76	228.92
931.06	228.92
931.36	228.81
931.66	228.83
931.96	229.00
932.26	229.17
932.56	229.13
932.86	229.29
933.16	229.24
933.46	229.28
933.76	229.22
934.06	229.32
934.36	229.31
934.66	229.40
934.96	229.34
935.26	229.33
935.56	229.41
935.86	229.28
936.16	229.35
936.46	229.45
936.76	229.44
937.06	229.43
937.36	229.39
937.66	229.48
937.96	229.59
938.26	229.58
938.56	229.52
938.86	229.50
939.16	229.42
939.46	229.53
939.76	229.48
940.06	229.54
940.35	229.55
940.65	229.48
940.95	229.41
941.25	229.34
941.55	229.36
941.85	229.32
942.15	229.46
942.45	229.49
942.75	229.50
943.04	229.48
943.34	229.59
943.64	229.61
943.94	229.53
944.24	229.37
944.54	229.41
944.84	229.38
945.13	229.30
945.43	229.32
945.73	229.24
946.03	229.16
946.33	229.15
946.62	229.06
946.92	229.06
947.22	229.08
947.52	229.01
947.82	228.86
948.11	228.80
948.41	228.60
948.71	228.40
949.01	228.31
949.31	228.36
949.60	228.31
949.90	228.21
950.20	228.16
950.50	228.26
950.79	228.16
951.09	228.17
951.39	228.18
951.69	228.11
951.98	228.11
952.28	228.15
952.58	228.05
952.87	228.02
953.17	227.96
953.47	227.94
953.76	227.86
954.06	227.90
954.36	227.86
954.66	227.91
954.95	227.99
955.25	227.96
955.55	227.86
955.84	227.75
956.14	227.75
956.44	227.74
956.73	227.66
957.03	227.69
957.32	227.74
957.62	227.63
957.92	227.63
958.21	227.48
958.51	227.72
958.81	227.72
959.10	227.69
959.40	227.74
959.69	227.77
959.99	227.76
960.29	227.74
960.58	227.77
960.88	227.82
961.17	227.72
961.47	227.77
961.76	227.82
962.06	227.82
962.36	227.84
962.65	227.79
962.95	227.81
963.24	227.80
963.54	227.76
963.83	227.74
964.13	227.72
964.42	227.77
964.72	227.59
965.01	227.64
965.31	227.71
965.60	227.63
965.90	227.66
966.19	227.74
966.49	227.68
966.78	227.65
967.08	227.60
967.37	227.69
967.67	227.52
967.96	227.51
968.26	227.60
968.55	227.65
968.85	227.78
969.14	227.81
969.43	227.78
969.73	227.77
970.02	227.77
970.32	227.84
970.61	227.91
970.91	227.90
971.20	227.86
971.49	227.79
971.79	227.91
972.08	227.92
972.38	227.90
972.67	228.06
972.96	228.07
973.26	228.04
973.55	228.00
973.85	228.10
974.14	228.09
974.43	228.01
974.73	228.02
975.02	227.93
975.31	227.94
975.61	228.02
975.90	227.95
976.19	228.07
976.49	228.08
976.78	228.14
977.07	228.09
977.37	228.16
977.66	228.18
977.95	228.06
978.24	228.08
978.54	228.10
978.83	228.13
979.12	228.18
979.42	228.27
979.71	228.31
980.00	228.28
980.29	228.28
980.59	228.28
980.88	228.29
981.17	228.36
981.46	228.33
981.76	228.31
982.05	228.37
982.34	228.39
982.63	228.39
982.93	228.38
983.22	228.40
983.51	228.32
983.80	228.43
984.09	228.54
984.39	228.43
984.68	228.46
984.97	228.41
985.26	228.44
985.55	228.48
985.85	228.52
986.14	228.54
986.43	228.64
986.72	228.66
987.01	228.60
987.30	228.55
987.59	228.54
987.89	228.59
988.18	228.58
988.47	228.49
988.76	228.51
989.05	228.44
989.34	228.39
989.63	228.41
989.92	228.30
990.22	228.19
990.51	228.16
990.80	228.14
991.09	228.14
991.38	228.10
991.67	228.10
991.96	228.00
992.25	228.08
992.54	228.09
992.83	227.98
993.12	227.99
993.41	228.05
993.70	228.14
993.99	227.95
994.28	228.00
994.58	228.09
994.87	228.06
995.16	228.09
995.45	228.13
995.74	228.15
996.03	228.14
996.32	228.12
996.61	228.24
996.90	228.15
997.19	228.09
997.48	228.11
997.77	228.04
998.06	228.10
998.34	228.09
998.63	228.04
998.92	227.99
999.21	228.04
999.50	228.08
999.79	227.97
1000.08	228.03
1000.37	228.08
1000.66	228.02
1000.95	227.98
1001.24	227.99
1001.53	227.98
1001.82	227.90
1002.11	228.00
1002.40	228.12
1002.68	228.18
1002.97	228.31
1003.26	228.26
1003.55	228.26
1003.84	228.23
1004.13	228.21
1004.42	228.20
1004.71	228.09
1004.99	228.18
1005.28	228.17
1005.57	228.06
1005.86	228.00
1006.15	227.98
1006.44	227.89
1006.72	227.94
1007.01	227.95
1007.30	227.92
1007.59	227.97
1007.88	228.04
1008.17	228.02
1008.45	227.95
1008.74	227.83
1009.03	227.92
1009.32	227.95
1009.60	228.00
1009.89	228.02
1010.18	228.01
1010.47	228.10
1010.76	228.13
1011.04	228.26
1011.33	228.49
1011.62	228.60
1011.91	228.70
1012.19	228.70
1012.48	228.86
1012.77	228.90
1013.05	229.06
1013.34	229.10
1013.63	229.17
1013.92	229.23
1014.20	229.30
1014.49	229.33
1014.78	229.46
1015.06	229.36
1015.35	229.51
1015.64	229.43
1015.92	229.47
1016.21	229.58
1016.50	229.56
1016.78	229.62
1017.07	229.61
1017.36	229.36
1017.64	229.35
1017.93	229.30
1018.22	229.40
1018.50	229.27
1018.79	229.25
1019.08	229.13
1019.36	229.12
1019.65	229.05
1019.93	229.04
1020.22	229.02
1020.51	229.21
1020.79	229.11
1021.08	229.30
1021.36	228.30
1021.65	228.60
1021.94	229.10
1022.22	228.00
1022.51	228.80
1022.79	229.10
1023.08	229.90
1023.36	232.20
1023.65	228.00
>>>>>End Processed Spectral Data<<<<<
