SpectraSuite Data File
++++++++++++++++++++++++++++++++++++
Date: Fri Feb 01 14:40:18 EST 2013
User: group
Dark Spectrum Present: No
Reference Spectrum Present: No
Number of Sampled Component Spectra: 1
Spectrometers: USB2E7196
Integration Time (usec): 70000 (USB2E7196)
Spectra Averaged: 10 (USB2E7196)
Boxcar Smoothing: 10 (USB2E7196)
Correct for Electrical Dark: No (USB2E7196)
Strobe/Lamp Enabled: No (USB2E7196)
Correct for Detector Non-linearity: No (USB2E7196)
Correct for Stray Light: No (USB2E7196)
Number of Pixels in Processed Spectrum: 2048
>>>>>Begin Processed Spectral Data<<<<<
339.09	0.00
339.48	216.50
339.86	218.00
340.24	218.10
340.63	220.40
341.01	224.80
341.39	225.20
341.78	225.40
342.16	226.60
342.54	225.40
342.93	214.70
343.31	225.45
343.69	225.95
344.07	226.40
344.46	226.84
344.84	227.26
345.22	227.39
345.60	227.58
345.99	227.78
346.37	227.90
346.75	227.98
347.13	227.98
347.52	227.91
347.90	228.01
348.28	228.03
348.66	228.05
349.05	227.93
349.43	228.02
349.81	228.04
350.19	228.02
350.57	228.16
350.96	228.20
351.34	228.40
351.72	228.52
352.10	228.46
352.48	228.51
352.87	228.53
353.25	228.65
353.63	228.65
354.01	228.62
354.39	228.63
354.77	228.65
355.15	228.83
355.54	228.91
355.92	228.97
356.30	228.87
356.68	229.14
357.06	229.20
357.44	229.21
357.82	229.23
358.20	229.37
358.58	229.36
358.97	229.53
359.35	229.54
359.73	229.50
360.11	229.73
360.49	229.91
360.87	230.02
361.25	230.03
361.63	230.13
362.01	230.19
362.39	230.25
362.77	230.38
363.15	230.36
363.53	230.35
363.91	230.34
364.29	230.48
364.67	230.37
365.05	230.50
365.43	230.59
365.81	230.67
366.19	230.71
366.57	230.77
366.95	230.85
367.33	230.77
367.71	230.78
368.09	230.81
368.47	230.68
368.85	230.61
369.23	230.65
369.61	230.59
369.99	230.65
370.37	230.66
370.75	230.71
371.13	230.58
371.51	230.44
371.89	230.38
372.27	230.37
372.65	230.26
373.03	230.24
373.41	230.12
373.78	229.97
374.16	229.88
374.54	229.79
374.92	229.63
375.30	229.63
375.68	229.71
376.06	229.58
376.44	229.53
376.82	229.52
377.19	229.49
377.57	229.38
377.95	229.20
378.33	229.15
378.71	229.00
379.09	229.02
379.47	229.10
379.84	228.97
380.22	228.84
380.60	228.69
380.98	228.61
381.36	228.51
381.73	228.50
382.11	228.40
382.49	228.27
382.87	228.08
383.25	228.00
383.62	228.03
384.00	227.92
384.38	227.75
384.76	227.60
385.13	227.53
385.51	227.51
385.89	227.42
386.27	227.25
386.64	227.16
387.02	227.16
387.40	227.07
387.78	227.05
388.15	227.03
388.53	226.99
388.91	226.89
389.29	226.80
389.66	226.78
390.04	226.65
390.42	226.77
390.79	226.90
391.17	226.85
391.55	226.61
391.92	226.63
392.30	226.67
392.68	226.65
393.05	226.62
393.43	226.66
393.81	226.69
394.18	226.69
394.56	226.72
394.94	226.69
395.31	226.64
395.69	226.76
396.06	226.78
396.44	227.00
396.82	227.04
397.19	227.31
397.57	227.39
397.95	227.57
398.32	227.50
398.70	227.51
399.07	227.61
399.45	227.65
399.82	227.78
400.20	227.90
400.58	228.10
400.95	228.16
401.33	228.23
401.70	228.58
402.08	228.67
402.45	228.82
402.83	229.08
403.20	229.16
403.58	229.25
403.95	229.42
404.33	229.47
404.71	229.62
405.08	229.76
405.46	229.97
405.83	230.19
406.21	230.43
406.58	230.75
406.96	231.00
407.33	231.18
407.70	231.36
408.08	231.74
408.45	231.86
408.83	232.12
409.20	232.31
409.58	232.40
409.95	232.69
410.33	232.93
410.70	233.07
411.08	233.56
411.45	233.93
411.82	234.26
412.20	234.60
412.57	235.12
412.95	235.40
413.32	235.69
413.69	236.06
414.07	236.43
414.44	236.77
414.82	237.25
415.19	237.88
415.56	238.34
415.94	238.73
416.31	239.51
416.68	239.97
417.06	240.67
417.43	241.39
417.81	242.18
418.18	242.97
418.55	243.75
418.93	244.55
419.30	245.42
419.67	246.35
420.04	247.34
420.42	248.18
420.79	249.38
421.16	250.42
421.54	251.53
421.91	252.70
422.28	253.90
422.66	255.10
423.03	256.37
423.40	257.69
423.77	259.08
424.15	260.29
424.52	261.71
424.89	263.30
425.26	264.79
425.64	266.20
426.01	267.69
426.38	269.29
426.75	270.92
427.13	272.64
427.50	274.32
427.87	276.08
428.24	277.87
428.61	279.48
428.99	281.58
429.36	283.59
429.73	285.68
430.10	287.70
430.47	289.75
430.85	291.86
431.22	294.07
431.59	296.45
431.96	298.75
432.33	301.37
432.70	303.71
433.08	306.27
433.45	308.67
433.82	311.36
434.19	314.16
434.56	316.98
434.93	319.53
435.30	322.10
435.68	324.96
436.05	327.79
436.42	330.60
436.79	333.07
437.16	335.83
437.53	338.64
437.90	341.39
438.27	344.21
438.64	347.01
439.01	349.51
439.38	351.69
439.75	353.84
440.13	356.26
440.50	358.55
440.87	360.64
441.24	362.66
441.61	364.73
441.98	366.33
442.35	368.00
442.72	369.80
443.09	371.76
443.46	372.89
443.83	373.52
444.20	374.10
444.57	374.75
444.94	374.94
445.31	375.33
445.68	375.80
446.05	375.80
446.42	375.54
446.79	375.27
447.16	374.94
447.53	374.74
447.90	373.72
448.27	372.67
448.64	371.16
449.01	370.39
449.37	368.51
449.74	366.80
450.11	364.89
450.48	362.61
450.85	360.04
451.22	357.88
451.59	355.87
451.96	353.91
452.33	351.45
452.70	349.31
453.07	346.39
453.43	343.41
453.80	340.76
454.17	337.98
454.54	335.46
454.91	332.74
455.28	329.97
455.65	327.50
456.02	325.16
456.38	322.94
456.75	320.15
457.12	317.90
457.49	315.58
457.86	313.30
458.23	311.49
458.59	309.36
458.96	307.15
459.33	305.23
459.70	303.39
460.07	301.94
460.43	300.20
460.80	298.70
461.17	297.35
461.54	295.80
461.91	294.42
462.27	292.98
462.64	291.75
463.01	290.41
463.38	289.00
463.74	287.48
464.11	286.31
464.48	285.21
464.85	284.09
465.21	283.24
465.58	282.29
465.95	281.01
466.32	280.19
466.68	279.40
467.05	278.56
467.42	277.61
467.78	276.63
468.15	275.64
468.52	274.98
468.88	273.98
469.25	273.09
469.62	272.44
469.98	271.60
470.35	270.94
470.72	270.22
471.08	269.48
471.45	268.85
471.82	268.25
472.18	267.51
472.55	266.99
472.92	266.21
473.28	265.57
473.65	265.00
474.02	264.30
474.38	263.64
474.75	263.07
475.11	262.40
475.48	262.00
475.85	261.56
476.21	261.10
476.58	260.67
476.94	260.39
477.31	259.98
477.67	259.65
478.04	259.21
478.41	258.93
478.77	258.82
479.14	258.54
479.50	258.20
479.87	257.99
480.23	257.71
480.60	257.50
480.96	257.18
481.33	257.03
481.69	256.94
482.06	256.87
482.42	256.79
482.79	256.77
483.15	256.62
483.52	256.60
483.88	256.44
484.25	256.35
484.61	256.26
484.98	256.11
485.34	256.02
485.71	256.10
486.07	256.19
486.44	256.10
486.80	256.13
487.17	256.13
487.53	256.38
487.90	256.52
488.26	256.80
488.62	257.17
488.99	257.47
489.35	257.66
489.72	257.89
490.08	258.10
490.44	258.36
490.81	258.74
491.17	259.02
491.54	259.49
491.90	260.09
492.26	260.48
492.63	261.06
492.99	261.64
493.36	262.09
493.72	262.70
494.08	263.32
494.45	264.03
494.81	264.87
495.17	265.50
495.54	266.28
495.90	267.03
496.26	267.90
496.63	268.72
496.99	269.81
497.35	270.80
497.72	271.85
498.08	273.15
498.44	274.35
498.80	275.77
499.17	276.96
499.53	278.20
499.89	279.72
500.26	281.21
500.62	282.86
500.98	284.74
501.34	286.46
501.71	288.36
502.07	290.23
502.43	292.17
502.79	294.24
503.16	296.33
503.52	298.72
503.88	301.04
504.24	303.47
504.60	306.13
504.97	308.93
505.33	311.85
505.69	314.63
506.05	317.68
506.41	320.84
506.78	324.22
507.14	327.73
507.50	331.24
507.86	334.98
508.22	338.76
508.59	342.52
508.95	346.47
509.31	350.75
509.67	354.99
510.03	359.50
510.39	364.02
510.75	368.85
511.12	373.60
511.48	378.47
511.84	383.52
512.20	388.66
512.56	394.00
512.92	399.55
513.28	405.50
513.64	411.29
514.00	417.09
514.37	423.19
514.73	429.41
515.09	435.60
515.45	441.95
515.81	448.47
516.17	455.15
516.53	462.17
516.89	469.01
517.25	476.15
517.61	483.30
517.97	490.47
518.33	497.83
518.69	505.53
519.05	513.32
519.41	521.43
519.77	529.48
520.13	537.80
520.49	546.17
520.85	554.43
521.21	563.00
521.57	571.77
521.93	580.31
522.29	589.28
522.65	598.49
523.01	607.61
523.37	616.69
523.73	626.13
524.09	635.37
524.45	645.04
524.81	654.74
525.17	664.74
525.53	675.00
525.89	684.95
526.25	695.37
526.61	705.52
526.97	715.79
527.33	726.09
527.68	736.70
528.04	746.92
528.40	757.50
528.76	768.34
529.12	779.27
529.48	790.39
529.84	801.07
530.20	812.33
530.56	823.63
530.91	835.38
531.27	846.92
531.63	858.51
531.99	870.00
532.35	881.00
532.71	892.08
533.07	903.55
533.42	915.28
533.78	926.56
534.14	938.26
534.50	949.49
534.86	961.20
535.21	972.27
535.57	984.21
535.93	995.64
536.29	1007.11
536.65	1018.57
537.00	1029.96
537.36	1041.93
537.72	1053.20
538.08	1064.40
538.44	1075.38
538.79	1086.34
539.15	1097.52
539.51	1108.79
539.87	1120.83
540.22	1132.59
540.58	1144.13
540.94	1155.00
541.29	1165.86
541.65	1176.84
542.01	1188.20
542.37	1199.11
542.72	1210.11
543.08	1220.95
543.44	1232.13
543.79	1242.32
544.15	1252.71
544.51	1263.72
544.87	1273.84
545.22	1284.05
545.58	1293.97
545.94	1303.68
546.29	1313.71
546.65	1323.13
547.01	1332.38
547.36	1341.40
547.72	1350.47
548.07	1359.09
548.43	1368.20
548.79	1377.24
549.14	1385.80
549.50	1394.11
549.86	1402.19
550.21	1410.60
550.57	1418.83
550.92	1426.63
551.28	1434.71
551.64	1442.90
551.99	1450.61
552.35	1458.61
552.70	1466.06
553.06	1474.14
553.41	1481.98
553.77	1489.29
554.13	1497.00
554.48	1504.69
554.84	1512.03
555.19	1518.63
555.55	1525.98
555.90	1532.73
556.26	1539.32
556.61	1546.13
556.97	1552.21
557.32	1558.85
557.68	1564.76
558.03	1571.04
558.39	1577.46
558.74	1584.11
559.10	1590.03
559.45	1595.55
559.81	1601.57
560.16	1607.01
560.52	1612.51
560.87	1617.96
561.23	1622.83
561.58	1628.26
561.94	1633.41
562.29	1637.82
562.64	1642.77
563.00	1647.56
563.35	1652.93
563.71	1658.35
564.06	1663.39
564.42	1668.63
564.77	1673.30
565.12	1678.66
565.48	1682.96
565.83	1686.61
566.19	1690.84
566.54	1694.71
566.89	1698.20
567.25	1701.22
567.60	1705.75
567.96	1709.02
568.31	1712.64
568.66	1716.22
569.02	1718.95
569.37	1721.51
569.72	1724.65
570.08	1727.33
570.43	1729.59
570.78	1731.40
571.14	1732.67
571.49	1734.34
571.84	1736.45
572.20	1737.50
572.55	1738.54
572.90	1739.57
573.26	1741.15
573.61	1741.71
573.96	1742.45
574.31	1742.90
574.67	1742.87
575.02	1742.07
575.37	1741.86
575.72	1740.82
576.08	1740.91
576.43	1740.42
576.78	1739.62
577.13	1739.71
577.49	1739.34
577.84	1738.61
578.19	1737.95
578.54	1737.18
578.90	1735.30
579.25	1733.30
579.60	1732.19
579.95	1730.29
580.30	1728.30
580.66	1725.60
581.01	1723.24
581.36	1721.47
581.71	1719.93
582.06	1718.46
582.42	1716.51
582.77	1714.31
583.12	1712.14
583.47	1710.06
583.82	1708.10
584.17	1706.01
584.53	1703.47
584.88	1701.26
585.23	1698.63
585.58	1696.16
585.93	1693.41
586.28	1691.81
586.63	1689.73
586.98	1687.19
587.34	1684.57
587.69	1682.24
588.04	1680.44
588.39	1678.41
588.74	1674.64
589.09	1671.40
589.44	1667.79
589.79	1665.28
590.14	1662.78
590.49	1660.20
590.84	1656.64
591.19	1653.18
591.54	1649.11
591.89	1644.42
592.25	1640.29
592.60	1635.93
592.95	1631.26
593.30	1627.22
593.65	1622.15
594.00	1617.38
594.35	1613.18
594.70	1608.51
595.05	1604.04
595.40	1598.97
595.75	1593.70
596.10	1590.00
596.45	1586.00
596.80	1582.63
597.15	1578.23
597.50	1573.42
597.85	1569.07
598.19	1564.91
598.54	1560.77
598.89	1556.80
599.24	1553.27
599.59	1549.13
599.94	1545.52
600.29	1541.44
600.64	1536.86
600.99	1532.70
601.34	1528.79
601.69	1524.22
602.04	1519.89
602.39	1515.42
602.74	1511.59
603.08	1507.76
603.43	1503.50
603.78	1498.97
604.13	1493.97
604.48	1489.18
604.83	1484.71
605.18	1479.73
605.53	1474.06
605.87	1468.54
606.22	1463.75
606.57	1458.63
606.92	1453.75
607.27	1448.72
607.62	1444.13
607.96	1438.93
608.31	1434.11
608.66	1428.78
609.01	1423.03
609.36	1417.38
609.70	1411.26
610.05	1405.20
610.40	1399.25
610.75	1393.06
611.10	1386.93
611.44	1380.52
611.79	1374.66
612.14	1368.30
612.49	1361.70
612.83	1355.88
613.18	1350.00
613.53	1343.97
613.88	1337.40
614.22	1330.69
614.57	1324.27
614.92	1317.91
615.27	1312.40
615.61	1305.81
615.96	1299.38
616.31	1293.88
616.65	1288.91
617.00	1283.58
617.35	1278.00
617.70	1271.78
618.04	1265.51
618.39	1259.47
618.74	1253.90
619.08	1247.70
619.43	1242.26
619.78	1237.04
620.12	1231.17
620.47	1225.33
620.82	1219.24
621.16	1213.61
621.51	1208.26
621.85	1202.47
622.20	1196.14
622.55	1190.08
622.89	1184.58
623.24	1179.08
623.59	1173.41
623.93	1167.38
624.28	1161.47
624.62	1155.53
624.97	1150.37
625.32	1145.29
625.66	1139.64
626.01	1133.88
626.35	1127.91
626.70	1121.84
627.04	1116.16
627.39	1110.51
627.73	1104.86
628.08	1099.50
628.43	1093.87
628.77	1088.10
629.12	1082.05
629.46	1076.45
629.81	1070.38
630.15	1064.02
630.50	1058.00
630.84	1051.89
631.19	1045.53
631.53	1039.55
631.88	1033.44
632.22	1027.19
632.57	1021.23
632.91	1015.39
633.26	1009.53
633.60	1003.73
633.95	998.11
634.29	992.37
634.64	987.09
634.98	981.11
635.32	975.43
635.67	970.16
636.01	964.63
636.36	959.27
636.70	954.22
637.05	949.27
637.39	944.87
637.73	939.94
638.08	935.15
638.42	930.62
638.77	926.09
639.11	920.99
639.45	916.03
639.80	910.70
640.14	905.87
640.49	900.89
640.83	896.04
641.17	891.08
641.52	886.20
641.86	880.82
642.20	876.29
642.55	870.86
642.89	865.75
643.23	860.71
643.58	856.21
643.92	851.12
644.26	846.28
644.61	841.42
644.95	836.49
645.29	831.01
645.64	825.31
645.98	820.09
646.32	815.51
646.66	810.56
647.01	805.54
647.35	800.80
647.69	795.94
648.04	791.32
648.38	786.17
648.72	780.85
649.06	775.94
649.41	770.91
649.75	766.14
650.09	761.22
650.43	756.20
650.78	750.92
651.12	746.15
651.46	741.42
651.80	736.46
652.14	731.81
652.49	727.62
652.83	723.30
653.17	718.40
653.51	713.61
653.85	709.09
654.20	704.71
654.54	699.75
654.88	694.99
655.22	690.02
655.56	685.54
655.90	681.20
656.25	677.13
656.59	672.98
656.93	668.92
657.27	664.41
657.61	660.07
657.95	656.03
658.29	651.76
658.64	647.37
658.98	643.09
659.32	638.62
659.66	634.11
660.00	629.92
660.34	625.94
660.68	621.91
661.02	617.50
661.36	613.59
661.70	609.79
662.05	606.09
662.39	602.70
662.73	599.16
663.07	595.70
663.41	591.75
663.75	587.81
664.09	584.18
664.43	580.66
664.77	577.54
665.11	573.97
665.45	570.44
665.79	567.24
666.13	563.73
666.47	560.23
666.81	556.80
667.15	553.51
667.49	550.14
667.83	546.79
668.17	543.77
668.51	540.42
668.85	537.08
669.19	534.01
669.53	530.74
669.87	527.44
670.21	524.31
670.55	521.36
670.89	518.55
671.23	515.64
671.57	512.71
671.91	509.65
672.25	506.71
672.58	504.05
672.92	500.96
673.26	498.30
673.60	495.87
673.94	493.27
674.28	490.79
674.62	488.49
674.96	486.04
675.30	483.60
675.64	481.13
675.97	478.75
676.31	476.41
676.65	473.86
676.99	471.72
677.33	469.25
677.67	466.70
678.01	464.13
678.34	461.68
678.68	459.45
679.02	456.99
679.36	454.68
679.70	452.30
680.04	449.79
680.37	447.44
680.71	445.03
681.05	442.98
681.39	440.75
681.73	438.60
682.06	436.61
682.40	434.50
682.74	432.40
683.08	430.33
683.42	428.05
683.75	426.03
684.09	423.77
684.43	421.64
684.77	419.50
685.10	417.35
685.44	415.31
685.78	413.20
686.12	411.35
686.45	409.43
686.79	407.33
687.13	405.60
687.46	403.71
687.80	401.62
688.14	399.59
688.48	397.68
688.81	395.66
689.15	393.53
689.49	391.54
689.82	389.62
690.16	387.77
690.50	386.04
690.83	384.33
691.17	382.61
691.51	380.93
691.84	379.40
692.18	377.91
692.52	376.12
692.85	374.40
693.19	372.67
693.52	370.92
693.86	369.35
694.20	367.78
694.53	366.12
694.87	364.71
695.21	363.04
695.54	361.43
695.88	359.56
696.21	357.98
696.55	356.48
696.88	355.10
697.22	353.60
697.56	352.03
697.89	350.54
698.23	349.03
698.56	347.50
698.90	346.09
699.23	344.66
699.57	343.28
699.90	341.90
700.24	340.51
700.58	339.08
700.91	337.71
701.25	336.41
701.58	335.17
701.92	333.90
702.25	332.78
702.59	331.46
702.92	330.45
703.26	329.35
703.59	328.21
703.93	327.08
704.26	325.93
704.60	324.78
704.93	323.60
705.26	322.50
705.60	321.51
705.93	320.39
706.27	319.34
706.60	318.37
706.94	317.46
707.27	316.35
707.61	315.42
707.94	314.43
708.27	313.34
708.61	312.17
708.94	311.19
709.28	310.16
709.61	309.32
709.94	308.43
710.28	307.50
710.61	306.48
710.95	305.40
711.28	304.70
711.61	303.77
711.95	302.88
712.28	301.99
712.61	301.04
712.95	300.27
713.28	299.42
713.61	298.50
713.95	297.70
714.28	296.98
714.61	296.18
714.95	295.44
715.28	294.64
715.61	293.90
715.95	293.12
716.28	292.34
716.61	291.58
716.95	290.73
717.28	289.97
717.61	289.42
717.94	288.77
718.28	287.93
718.61	287.35
718.94	286.80
719.27	286.13
719.61	285.60
719.94	284.88
720.27	284.13
720.60	283.58
720.94	283.03
721.27	282.44
721.60	281.87
721.93	281.22
722.27	280.72
722.60	280.19
722.93	279.63
723.26	279.02
723.59	278.39
723.93	278.01
724.26	277.49
724.59	276.82
724.92	276.40
725.25	275.94
725.59	275.37
725.92	274.87
726.25	274.39
726.58	273.78
726.91	273.38
727.24	273.10
727.57	272.57
727.91	271.90
728.24	271.44
728.57	270.90
728.90	270.49
729.23	269.96
729.56	269.63
729.89	269.22
730.22	268.90
730.55	268.57
730.89	268.09
731.22	267.67
731.55	267.33
731.88	266.80
732.21	266.20
732.54	265.81
732.87	265.31
733.20	264.91
733.53	264.60
733.86	264.24
734.19	263.64
734.52	263.31
734.85	263.12
735.18	262.69
735.51	262.36
735.84	262.05
736.17	261.69
736.50	261.23
736.83	260.99
737.16	260.64
737.49	260.27
737.82	259.97
738.15	259.73
738.48	259.38
738.81	259.11
739.14	258.79
739.47	258.36
739.80	258.01
740.13	257.62
740.46	257.21
740.79	256.70
741.12	256.38
741.45	256.12
741.78	255.69
742.11	255.39
742.44	255.08
742.77	254.75
743.10	254.53
743.43	254.22
743.75	253.79
744.08	253.68
744.41	253.33
744.74	252.94
745.07	252.56
745.40	252.34
745.73	252.09
746.06	251.87
746.39	251.72
746.71	251.52
747.04	251.35
747.37	251.09
747.70	250.96
748.03	250.77
748.36	250.49
748.68	250.25
749.01	249.92
749.34	249.73
749.67	249.49
750.00	249.11
750.33	249.00
750.65	248.76
750.98	248.32
751.31	248.13
751.64	247.93
751.97	247.65
752.29	247.33
752.62	246.97
752.95	246.74
753.28	246.44
753.60	246.21
753.93	245.94
754.26	245.70
754.59	245.41
754.91	245.10
755.24	244.75
755.57	244.48
755.90	244.38
756.22	244.14
756.55	243.93
756.88	243.75
757.20	243.40
757.53	243.17
757.86	242.95
758.19	242.78
758.51	242.59
758.84	242.49
759.17	242.24
759.49	242.19
759.82	242.09
760.15	241.92
760.47	241.66
760.80	241.45
761.13	241.39
761.45	241.14
761.78	240.97
762.11	240.90
762.43	240.77
762.76	240.53
763.08	240.39
763.41	240.18
763.74	240.07
764.06	239.97
764.39	239.79
764.71	239.77
765.04	239.61
765.37	239.40
765.69	239.16
766.02	239.10
766.34	238.94
766.67	238.71
767.00	238.63
767.32	238.59
767.65	238.63
767.97	238.56
768.30	238.55
768.62	238.44
768.95	238.37
769.27	238.26
769.60	238.23
769.92	238.19
770.25	238.17
770.57	238.02
770.90	238.00
771.22	237.81
771.55	237.61
771.87	237.49
772.20	237.46
772.52	237.55
772.85	237.66
773.17	237.49
773.50	237.46
773.82	237.43
774.15	237.28
774.47	237.00
774.80	236.86
775.12	236.82
775.45	236.86
775.77	236.69
776.09	236.60
776.42	236.61
776.74	236.53
777.07	236.39
777.39	236.30
777.72	236.10
778.04	236.15
778.36	236.01
778.69	235.94
779.01	235.89
779.33	235.72
779.66	235.40
779.98	235.33
780.31	235.29
780.63	235.13
780.95	235.23
781.28	235.20
781.60	235.05
781.92	234.88
782.25	234.74
782.57	234.73
782.89	234.58
783.22	234.40
783.54	234.26
783.86	234.13
784.19	234.00
784.51	233.98
784.83	233.82
785.16	233.67
785.48	233.57
785.80	233.42
786.12	233.33
786.45	233.26
786.77	233.19
787.09	233.00
787.42	232.94
787.74	232.70
788.06	232.62
788.38	232.50
788.71	232.48
789.03	232.40
789.35	232.30
789.67	232.36
789.99	232.37
790.32	232.23
790.64	232.25
790.96	232.39
791.28	232.20
791.61	232.16
791.93	232.30
792.25	232.28
792.57	232.46
792.89	232.38
793.21	232.34
793.54	232.37
793.86	232.36
794.18	232.31
794.50	232.36
794.82	232.33
795.14	232.32
795.47	232.30
795.79	232.24
796.11	232.14
796.43	231.96
796.75	231.88
797.07	231.88
797.39	231.80
797.71	231.69
798.04	231.77
798.36	231.80
798.68	231.65
799.00	231.62
799.32	231.55
799.64	231.50
799.96	231.56
800.28	231.59
800.60	231.54
800.92	231.58
801.24	231.45
801.56	231.39
801.89	231.44
802.21	231.42
802.53	231.40
802.85	231.50
803.17	231.59
803.49	231.53
803.81	231.52
804.13	231.54
804.45	231.42
804.77	231.50
805.09	231.46
805.41	231.41
805.73	231.35
806.05	231.21
806.37	231.28
806.69	231.17
807.01	231.04
807.33	231.09
807.65	230.95
807.97	231.10
808.28	231.17
808.60	231.19
808.92	231.19
809.24	231.24
809.56	231.21
809.88	231.20
810.20	231.11
810.52	231.21
810.84	231.13
811.16	231.20
811.48	231.08
811.80	231.20
812.12	231.24
812.43	231.30
812.75	231.27
813.07	231.19
813.39	231.19
813.71	231.16
814.03	231.15
814.35	231.16
814.67	231.00
814.98	231.03
815.30	230.98
815.62	231.05
815.94	230.91
816.26	231.02
816.58	230.96
816.89	231.05
817.21	230.91
817.53	230.93
817.85	230.97
818.17	230.97
818.48	230.84
818.80	230.99
819.12	230.91
819.44	230.93
819.76	230.93
820.07	230.97
820.39	231.02
820.71	230.96
821.03	231.02
821.34	231.01
821.66	230.97
821.98	230.93
822.30	230.74
822.61	230.92
822.93	230.77
823.25	230.72
823.57	230.61
823.88	230.73
824.20	230.68
824.52	230.61
824.83	230.59
825.15	230.56
825.47	230.36
825.79	230.35
826.10	230.34
826.42	230.35
826.74	230.30
827.05	230.30
827.37	230.33
827.69	230.19
828.00	230.27
828.32	230.14
828.64	230.11
828.95	230.12
829.27	229.99
829.58	229.95
829.90	230.04
830.22	229.96
830.53	229.90
830.85	229.91
831.17	229.86
831.48	229.79
831.80	229.80
832.11	229.79
832.43	229.76
832.75	229.72
833.06	229.90
833.38	229.83
833.69	229.75
834.01	229.68
834.32	229.68
834.64	229.55
834.96	229.51
835.27	229.45
835.59	229.43
835.90	229.40
836.22	229.47
836.53	229.35
836.85	229.37
837.16	229.47
837.48	229.50
837.79	229.53
838.11	229.52
838.42	229.61
838.74	229.66
839.05	229.67
839.37	229.59
839.68	229.30
840.00	229.27
840.31	229.29
840.63	229.24
840.94	229.27
841.26	229.23
841.57	229.30
841.88	229.36
842.20	229.34
842.51	229.28
842.83	229.17
843.14	229.34
843.46	229.42
843.77	229.30
844.08	229.22
844.40	229.19
844.71	229.15
845.03	229.04
845.34	229.03
845.65	228.93
845.97	229.02
846.28	229.06
846.60	229.12
846.91	229.10
847.22	229.20
847.54	229.22
847.85	229.26
848.16	229.21
848.48	229.14
848.79	229.24
849.10	229.22
849.42	229.30
849.73	229.11
850.04	228.95
850.36	228.78
850.67	228.85
850.98	228.86
851.30	228.90
851.61	228.89
851.92	228.78
852.23	228.93
852.55	228.89
852.86	228.90
853.17	228.93
853.49	229.00
853.80	229.02
854.11	229.05
854.42	229.05
854.74	229.09
855.05	229.09
855.36	229.04
855.67	229.13
855.99	229.05
856.30	229.33
856.61	229.48
856.92	229.62
857.23	229.70
857.55	229.59
857.86	229.61
858.17	229.57
858.48	229.66
858.79	229.62
859.11	229.67
859.42	229.64
859.73	229.61
860.04	229.60
860.35	229.57
860.66	229.49
860.98	229.57
861.29	229.60
861.60	229.54
861.91	229.51
862.22	229.41
862.53	229.43
862.84	229.21
863.16	229.27
863.47	229.29
863.78	229.22
864.09	229.35
864.40	229.36
864.71	229.38
865.02	229.33
865.33	229.35
865.64	229.35
865.95	229.38
866.27	229.57
866.58	229.47
866.89	229.45
867.20	229.42
867.51	229.45
867.82	229.43
868.13	229.60
868.44	229.55
868.75	229.68
869.06	229.64
869.37	229.60
869.68	229.46
869.99	229.41
870.30	229.39
870.61	229.36
870.92	229.31
871.23	229.36
871.54	229.50
871.85	229.45
872.16	229.35
872.47	229.36
872.78	229.17
873.09	229.13
873.40	229.10
873.71	229.20
874.02	229.24
874.33	229.16
874.64	229.10
874.95	229.10
875.26	229.08
875.56	229.05
875.87	229.06
876.18	229.16
876.49	229.25
876.80	229.24
877.11	229.21
877.42	229.19
877.73	229.13
878.04	229.04
878.35	229.10
878.66	229.08
878.96	229.01
879.27	229.01
879.58	229.06
879.89	229.04
880.20	229.04
880.51	228.87
880.82	228.83
881.12	228.86
881.43	228.85
881.74	228.77
882.05	228.75
882.36	228.77
882.67	228.73
882.97	228.51
883.28	228.47
883.59	228.46
883.90	228.47
884.21	228.53
884.51	228.41
884.82	228.47
885.13	228.52
885.44	228.62
885.74	228.59
886.05	228.61
886.36	228.61
886.67	228.55
886.98	228.67
887.28	228.70
887.59	228.67
887.90	228.77
888.20	228.75
888.51	228.83
888.82	228.81
889.13	228.77
889.43	229.04
889.74	229.04
890.05	229.14
890.35	229.10
890.66	229.07
890.97	229.13
891.28	229.06
891.58	229.10
891.89	229.04
892.20	228.97
892.50	228.94
892.81	228.90
893.12	228.90
893.42	228.80
893.73	228.84
894.04	228.84
894.34	228.71
894.65	228.72
894.95	228.75
895.26	228.75
895.57	228.86
895.87	228.81
896.18	228.72
896.48	228.59
896.79	228.64
897.10	228.61
897.40	228.63
897.71	228.62
898.01	228.56
898.32	228.54
898.63	228.59
898.93	228.60
899.24	228.56
899.54	228.54
899.85	228.62
900.15	228.58
900.46	228.63
900.76	228.75
901.07	228.82
901.38	228.80
901.68	228.80
901.99	228.69
902.29	228.53
902.60	228.59
902.90	228.58
903.21	228.52
903.51	228.57
903.82	228.64
904.12	228.59
904.43	228.70
904.73	228.66
905.03	228.71
905.34	228.87
905.64	228.92
905.95	228.86
906.25	228.74
906.56	228.74
906.86	228.65
907.17	228.61
907.47	228.62
907.77	228.62
908.08	228.56
908.38	228.55
908.69	228.50
908.99	228.53
909.30	228.54
909.60	228.59
909.90	228.52
910.21	228.41
910.51	228.39
910.81	228.25
911.12	228.27
911.42	228.19
911.73	228.01
912.03	228.05
912.33	228.12
912.64	228.20
912.94	228.20
913.24	228.09
913.55	227.95
913.85	227.89
914.15	227.85
914.46	227.93
914.76	227.87
915.06	227.90
915.37	227.96
915.67	227.97
915.97	227.92
916.27	227.92
916.58	227.93
916.88	227.99
917.18	227.98
917.49	228.12
917.79	228.13
918.09	228.18
918.39	228.16
918.70	228.06
919.00	228.03
919.30	228.10
919.60	228.25
919.91	228.36
920.21	228.32
920.51	228.34
920.81	228.32
921.12	228.44
921.42	228.53
921.72	228.50
922.02	228.54
922.32	228.63
922.63	228.54
922.93	228.62
923.23	228.50
923.53	228.48
923.83	228.39
924.13	228.46
924.44	228.41
924.74	228.49
925.04	228.64
925.34	228.63
925.64	228.52
925.94	228.45
926.24	228.56
926.55	228.61
926.85	228.60
927.15	228.63
927.45	228.63
927.75	228.56
928.05	228.55
928.35	228.47
928.65	228.41
928.95	228.50
929.26	228.46
929.56	228.52
929.86	228.67
930.16	228.65
930.46	228.62
930.76	228.68
931.06	228.58
931.36	228.44
931.66	228.56
931.96	228.66
932.26	228.64
932.56	228.53
932.86	228.43
933.16	228.37
933.46	228.33
933.76	228.25
934.06	228.33
934.36	228.39
934.66	228.42
934.96	228.40
935.26	228.44
935.56	228.43
935.86	228.43
936.16	228.35
936.46	228.30
936.76	228.28
937.06	228.27
937.36	228.31
937.66	228.30
937.96	228.11
938.26	228.11
938.56	228.20
938.86	228.19
939.16	228.30
939.46	228.40
939.76	228.38
940.06	228.48
940.35	228.46
940.65	228.39
940.95	228.31
941.25	228.31
941.55	228.29
941.85	228.28
942.15	228.29
942.45	228.39
942.75	228.43
943.04	228.45
943.34	228.39
943.64	228.34
943.94	228.31
944.24	228.40
944.54	228.32
944.84	228.28
945.13	228.25
945.43	228.21
945.73	228.15
946.03	228.20
946.33	228.09
946.62	228.01
946.92	228.01
947.22	228.13
947.52	228.08
947.82	228.10
948.11	228.13
948.41	228.13
948.71	227.94
949.01	227.95
949.31	227.90
949.60	227.88
949.90	227.97
950.20	228.01
950.50	228.07
950.79	228.16
951.09	228.19
951.39	228.17
951.69	228.14
951.98	228.16
952.28	228.20
952.58	228.30
952.87	228.37
953.17	228.38
953.47	228.41
953.76	228.36
954.06	228.23
954.36	228.15
954.66	228.16
954.95	228.33
955.25	228.19
955.55	228.23
955.84	228.31
956.14	228.36
956.44	228.38
956.73	228.34
957.03	228.22
957.32	228.20
957.62	228.20
957.92	228.26
958.21	228.30
958.51	228.39
958.81	228.40
959.10	228.28
959.40	228.33
959.69	228.31
959.99	228.41
960.29	228.61
960.58	228.63
960.88	228.71
961.17	228.63
961.47	228.75
961.76	228.74
962.06	228.70
962.36	228.63
962.65	228.64
962.95	228.60
963.24	228.68
963.54	228.65
963.83	228.72
964.13	228.75
964.42	228.66
964.72	228.55
965.01	228.50
965.31	228.58
965.60	228.46
965.90	228.55
966.19	228.57
966.49	228.57
966.78	228.56
967.08	228.62
967.37	228.65
967.67	228.62
967.96	228.64
968.26	228.70
968.55	228.70
968.85	228.69
969.14	228.66
969.43	228.60
969.73	228.56
970.02	228.50
970.32	228.46
970.61	228.47
970.91	228.38
971.20	228.37
971.49	228.39
971.79	228.45
972.08	228.34
972.38	228.32
972.67	228.25
972.96	228.27
973.26	228.12
973.55	228.19
973.85	228.12
974.14	228.12
974.43	228.15
974.73	228.05
975.02	228.05
975.31	228.12
975.61	228.17
975.90	228.31
976.19	228.41
976.49	228.48
976.78	228.47
977.07	228.56
977.37	228.54
977.66	228.44
977.95	228.47
978.24	228.50
978.54	228.52
978.83	228.55
979.12	228.57
979.42	228.60
979.71	228.48
980.00	228.57
980.29	228.56
980.59	228.52
980.88	228.62
981.17	228.61
981.46	228.57
981.76	228.54
982.05	228.58
982.34	228.50
982.63	228.51
982.93	228.61
983.22	228.59
983.51	228.73
983.80	228.81
984.09	228.85
984.39	228.82
984.68	228.87
984.97	228.85
985.26	228.85
985.55	228.83
985.85	228.83
986.14	228.93
986.43	228.98
986.72	229.00
987.01	228.97
987.30	228.95
987.59	228.97
987.89	228.94
988.18	228.85
988.47	228.87
988.76	228.76
989.05	228.71
989.34	228.80
989.63	228.73
989.92	228.81
990.22	228.70
990.51	228.78
990.80	228.71
991.09	228.75
991.38	228.76
991.67	228.75
991.96	228.83
992.25	228.76
992.54	228.70
992.83	228.65
993.12	228.64
993.41	228.62
993.70	228.73
993.99	228.79
994.28	228.65
994.58	228.74
994.87	228.78
995.16	228.75
995.45	228.61
995.74	228.52
996.03	228.42
996.32	228.54
996.61	228.53
996.90	228.53
997.19	228.56
997.48	228.50
997.77	228.50
998.06	228.38
998.34	228.41
998.63	228.40
998.92	228.40
999.21	228.41
999.50	228.48
999.79	228.35
1000.08	228.34
1000.37	228.47
1000.66	228.26
1000.95	228.26
1001.24	228.28
1001.53	228.34
1001.82	228.25
1002.11	228.18
1002.40	228.16
1002.68	228.16
1002.97	228.23
1003.26	228.10
1003.55	228.11
1003.84	228.04
1004.13	228.20
1004.42	228.16
1004.71	228.17
1004.99	228.18
1005.28	228.24
1005.57	228.20
1005.86	228.17
1006.15	228.24
1006.44	228.16
1006.72	228.32
1007.01	228.21
1007.30	228.21
1007.59	228.32
1007.88	228.31
1008.17	228.39
1008.45	228.37
1008.74	228.30
1009.03	228.27
1009.32	228.29
1009.60	228.20
1009.89	228.29
1010.18	228.14
1010.47	228.09
1010.76	228.16
1011.04	228.12
1011.33	228.14
1011.62	228.18
1011.91	228.19
1012.19	228.07
1012.48	228.12
1012.77	228.13
1013.05	228.37
1013.34	228.32
1013.63	228.20
1013.92	228.31
1014.20	228.28
1014.49	228.21
1014.78	228.15
1015.06	228.01
1015.35	227.95
1015.64	228.10
1015.92	228.15
1016.21	228.14
1016.50	228.13
1016.78	228.11
1017.07	228.06
1017.36	228.08
1017.64	228.12
1017.93	228.13
1018.22	228.24
1018.50	228.24
1018.79	228.18
1019.08	228.04
1019.36	228.14
1019.65	228.14
1019.93	228.20
1020.22	228.30
1020.51	228.46
1020.79	228.48
1021.08	229.40
1021.36	228.40
1021.65	228.10
1021.94	228.20
1022.22	229.40
1022.51	228.60
1022.79	229.10
1023.08	229.70
1023.36	231.20
1023.65	227.20
>>>>>End Processed Spectral Data<<<<<
