SpectraSuite Data File
++++++++++++++++++++++++++++++++++++
Date: Fri Feb 01 14:38:34 EST 2013
User: group
Dark Spectrum Present: No
Reference Spectrum Present: No
Number of Sampled Component Spectra: 1
Spectrometers: USB2E7196
Integration Time (usec): 70000 (USB2E7196)
Spectra Averaged: 10 (USB2E7196)
Boxcar Smoothing: 10 (USB2E7196)
Correct for Electrical Dark: No (USB2E7196)
Strobe/Lamp Enabled: No (USB2E7196)
Correct for Detector Non-linearity: No (USB2E7196)
Correct for Stray Light: No (USB2E7196)
Number of Pixels in Processed Spectrum: 2048
>>>>>Begin Processed Spectral Data<<<<<
339.09	0.00
339.48	215.00
339.86	216.60
340.24	218.70
340.63	219.90
341.01	224.40
341.39	224.40
341.78	224.00
342.16	224.50
342.54	226.50
342.93	214.30
343.31	225.14
343.69	225.72
344.07	226.20
344.46	226.72
344.84	227.05
345.22	227.21
345.60	227.40
345.99	227.51
346.37	227.60
346.75	227.64
347.13	227.72
347.52	227.79
347.90	227.87
348.28	227.89
348.66	227.97
349.05	227.87
349.43	227.79
349.81	227.77
350.19	227.66
350.57	227.75
350.96	227.84
351.34	227.92
351.72	227.90
352.10	228.01
352.48	227.93
352.87	228.04
353.25	228.11
353.63	228.15
354.01	228.11
354.39	228.28
354.77	228.31
355.15	228.43
355.54	228.42
355.92	228.47
356.30	228.56
356.68	228.77
357.06	228.85
357.44	228.93
357.82	229.01
358.20	229.12
358.58	229.17
358.97	229.22
359.35	229.23
359.73	229.31
360.11	229.31
360.49	229.41
360.87	229.49
361.25	229.56
361.63	229.68
362.01	229.80
362.39	229.73
362.77	229.87
363.15	229.93
363.53	229.98
363.91	230.10
364.29	230.03
364.67	229.87
365.05	229.88
365.43	229.97
365.81	229.88
366.19	229.99
366.57	230.10
366.95	230.09
367.33	230.01
367.71	230.14
368.09	230.22
368.47	230.22
368.85	230.13
369.23	230.15
369.61	230.05
369.99	230.25
370.37	230.30
370.75	230.24
371.13	230.11
371.51	229.99
371.89	229.88
372.27	229.90
372.65	229.77
373.03	229.71
373.41	229.67
373.78	229.63
374.16	229.51
374.54	229.35
374.92	229.19
375.30	229.22
375.68	229.05
376.06	228.87
376.44	228.65
376.82	228.63
377.19	228.48
377.57	228.43
377.95	228.11
378.33	228.04
378.71	227.88
379.09	227.79
379.47	227.83
379.84	227.71
380.22	227.60
380.60	227.52
380.98	227.50
381.36	227.34
381.73	227.28
382.11	227.17
382.49	227.10
382.87	227.06
383.25	226.88
383.62	227.08
384.00	226.99
384.38	227.00
384.76	226.93
385.13	226.95
385.51	226.84
385.89	226.76
386.27	226.70
386.64	226.70
387.02	226.60
387.40	226.50
387.78	226.49
388.15	226.47
388.53	226.41
388.91	226.29
389.29	226.24
389.66	226.39
390.04	226.38
390.42	226.34
390.79	226.25
391.17	226.34
391.55	226.10
391.92	226.21
392.30	226.26
392.68	226.18
393.05	226.23
393.43	226.27
393.81	226.46
394.18	226.47
394.56	226.50
394.94	226.67
395.31	226.73
395.69	226.81
396.06	226.99
396.44	227.10
396.82	227.22
397.19	227.41
397.57	227.30
397.95	227.40
398.32	227.39
398.70	227.56
399.07	227.67
399.45	227.64
399.82	227.62
400.20	227.61
400.58	227.76
400.95	227.73
401.33	227.83
401.70	228.02
402.08	228.09
402.45	228.22
402.83	228.31
403.20	228.42
403.58	228.51
403.95	228.57
404.33	228.74
404.71	228.95
405.08	229.17
405.46	229.35
405.83	229.49
406.21	229.68
406.58	229.94
406.96	230.16
407.33	230.54
407.70	230.80
408.08	231.26
408.45	231.53
408.83	231.91
409.20	232.13
409.58	232.30
409.95	232.75
410.33	233.11
410.70	233.35
411.08	233.80
411.45	234.17
411.82	234.56
412.20	234.92
412.57	235.48
412.95	235.75
413.32	236.23
413.69	236.65
414.07	237.22
414.44	237.71
414.82	238.21
415.19	238.81
415.56	239.55
415.94	240.23
416.31	241.02
416.68	241.78
417.06	242.73
417.43	243.50
417.81	244.32
418.18	245.23
418.55	246.34
418.93	247.35
419.30	248.44
419.67	249.61
420.04	250.82
420.42	251.92
420.79	253.51
421.16	254.90
421.54	256.51
421.91	258.08
422.28	259.62
422.66	261.40
423.03	263.06
423.40	264.72
423.77	266.42
424.15	268.13
424.52	269.99
424.89	272.04
425.26	274.12
425.64	275.92
426.01	277.86
426.38	279.99
426.75	282.11
427.13	284.39
427.50	286.68
427.87	289.23
428.24	291.90
428.61	294.18
428.99	296.76
429.36	299.50
429.73	302.10
430.10	304.90
430.47	307.60
430.85	310.51
431.22	313.53
431.59	316.86
431.96	319.86
432.33	323.15
432.70	326.33
433.08	330.12
433.45	333.81
433.82	337.46
434.19	341.48
434.56	345.39
434.93	349.14
435.30	352.79
435.68	356.80
436.05	360.63
436.42	364.55
436.79	368.30
437.16	372.13
437.53	376.33
437.90	380.24
438.27	384.17
438.64	387.95
439.01	391.76
439.38	394.96
439.75	398.52
440.13	402.20
440.50	405.65
440.87	408.50
441.24	411.38
441.61	414.70
441.98	417.05
442.35	419.96
442.72	422.80
443.09	425.84
443.46	427.48
443.83	428.65
444.20	429.75
444.57	431.18
444.94	431.98
445.31	432.82
445.68	433.77
446.05	434.35
446.42	434.50
446.79	434.30
447.16	433.97
447.53	433.76
447.90	432.66
448.27	431.52
448.64	429.72
449.01	428.73
449.37	426.27
449.74	424.01
450.11	421.30
450.48	418.16
450.85	414.76
451.22	412.10
451.59	409.49
451.96	407.01
452.33	403.56
452.70	400.63
453.07	396.91
453.43	393.16
453.80	389.62
454.17	386.02
454.54	382.63
454.91	379.21
455.28	375.63
455.65	372.22
456.02	369.04
456.38	366.10
456.75	362.42
457.12	359.49
457.49	356.36
457.86	353.22
458.23	350.61
458.59	347.91
458.96	345.04
459.33	342.48
459.70	340.02
460.07	338.05
460.43	335.57
460.80	333.38
461.17	331.30
461.54	329.05
461.91	327.13
462.27	325.04
462.64	323.30
463.01	321.37
463.38	319.56
463.74	317.57
464.11	315.91
464.48	314.44
464.85	312.79
465.21	311.60
465.58	310.33
465.95	308.82
466.32	307.48
466.68	306.18
467.05	304.91
467.42	303.51
467.78	302.10
468.15	300.81
468.52	299.74
468.88	298.43
469.25	297.21
469.62	296.17
469.98	295.27
470.35	294.22
470.72	293.25
471.08	292.25
471.45	291.40
471.82	290.60
472.18	289.59
472.55	288.87
472.92	287.87
473.28	287.10
473.65	286.35
474.02	285.56
474.38	284.99
474.75	284.34
475.11	283.61
475.48	282.99
475.85	282.49
476.21	282.00
476.58	281.55
476.94	281.10
477.31	280.63
477.67	280.02
478.04	279.51
478.41	279.14
478.77	278.90
479.14	278.39
479.50	277.97
479.87	277.66
480.23	277.46
480.60	277.08
480.96	276.69
481.33	276.50
481.69	276.30
482.06	275.97
482.42	275.73
482.79	275.70
483.15	275.60
483.52	275.41
483.88	275.13
484.25	274.87
484.61	274.82
484.98	274.58
485.34	274.64
485.71	274.63
486.07	274.66
486.44	274.49
486.80	274.51
487.17	274.42
487.53	274.64
487.90	274.70
488.26	275.05
488.62	275.23
488.99	275.32
489.35	275.39
489.72	275.54
490.08	275.69
490.44	275.66
490.81	275.89
491.17	276.20
491.54	276.42
491.90	276.68
492.26	276.94
492.63	277.32
492.99	277.50
493.36	277.76
493.72	277.87
494.08	278.11
494.45	278.45
494.81	278.97
495.17	279.10
495.54	279.38
495.90	279.64
496.26	280.00
496.63	280.47
496.99	280.95
497.35	281.37
497.72	281.81
498.08	282.23
498.44	282.66
498.80	283.10
499.17	283.57
499.53	284.05
499.89	284.40
500.26	284.74
500.62	285.18
500.98	285.59
501.34	286.16
501.71	286.59
502.07	287.02
502.43	287.30
502.79	287.70
503.16	288.11
503.52	288.51
503.88	288.77
504.24	289.04
504.60	289.47
504.97	289.90
505.33	290.19
505.69	290.73
506.05	291.00
506.41	291.34
506.78	291.70
507.14	292.12
507.50	292.61
507.86	293.08
508.22	293.40
508.59	293.83
508.95	294.18
509.31	294.75
509.67	295.15
510.03	295.68
510.39	296.26
510.75	296.73
511.12	297.25
511.48	297.92
511.84	298.53
512.20	299.01
512.56	299.72
512.92	300.54
513.28	301.23
513.64	302.08
514.00	302.94
514.37	304.07
514.73	304.95
515.09	305.87
515.45	306.78
515.81	307.98
516.17	309.17
516.53	310.54
516.89	311.73
517.25	313.08
517.61	314.47
517.97	315.98
518.33	317.63
518.69	319.32
519.05	320.97
519.41	322.77
519.77	324.74
520.13	326.64
520.49	328.52
520.85	330.48
521.21	332.55
521.57	334.80
521.93	336.76
522.29	339.16
522.65	341.73
523.01	344.31
523.37	346.73
523.73	349.33
524.09	351.86
524.45	354.62
524.81	357.43
525.17	360.32
525.53	363.27
525.89	366.30
526.25	369.49
526.61	372.73
526.97	376.02
527.33	379.35
527.68	382.88
528.04	386.57
528.40	390.40
528.76	394.45
529.12	398.18
529.48	402.36
529.84	406.24
530.20	410.17
530.56	414.62
530.91	419.15
531.27	423.61
531.63	428.27
531.99	432.94
532.35	437.70
532.71	442.45
533.07	447.35
533.42	452.28
533.78	457.02
534.14	462.10
534.50	467.08
534.86	472.52
535.21	477.71
535.57	483.15
535.93	488.36
536.29	493.63
536.65	499.04
537.00	504.35
537.36	510.12
537.72	515.62
538.08	521.08
538.44	526.69
538.79	532.34
539.15	537.92
539.51	543.53
539.87	549.26
540.22	555.31
540.58	561.23
540.94	567.07
541.29	573.25
541.65	579.24
542.01	585.51
542.37	591.37
542.72	597.35
543.08	603.14
543.44	609.32
543.79	615.04
544.15	621.15
544.51	627.59
544.87	633.72
545.22	639.97
545.58	645.95
545.94	651.78
546.29	657.97
546.65	664.07
547.01	670.28
547.36	676.52
547.72	682.36
548.07	688.51
548.43	694.35
548.79	700.24
549.14	706.16
549.50	711.95
549.86	717.56
550.21	723.42
550.57	729.43
550.92	735.40
551.28	741.35
551.64	747.30
551.99	752.91
552.35	758.41
552.70	764.06
553.06	769.86
553.41	775.79
553.77	781.35
554.13	786.90
554.48	792.50
554.84	797.86
555.19	803.33
555.55	808.80
555.90	814.20
556.26	819.38
556.61	824.75
556.97	829.94
557.32	835.33
557.68	840.63
558.03	845.94
558.39	850.86
558.74	856.22
559.10	861.25
559.45	866.14
559.81	871.47
560.16	876.51
560.52	881.26
560.87	886.16
561.23	890.99
561.58	896.06
561.94	900.48
562.29	904.85
562.64	909.34
563.00	913.64
563.35	918.66
563.71	923.50
564.06	928.05
564.42	932.44
564.77	936.88
565.12	941.30
565.48	945.67
565.83	949.65
566.19	953.79
566.54	957.45
566.89	961.56
567.25	965.42
567.60	969.31
567.96	973.34
568.31	977.00
568.66	980.45
569.02	983.90
569.37	987.53
569.72	991.14
570.08	994.42
570.43	997.75
570.78	1000.35
571.14	1002.88
571.49	1005.63
571.84	1008.97
572.20	1011.48
572.55	1013.89
572.90	1016.20
573.26	1018.96
573.61	1021.07
573.96	1023.53
574.31	1025.37
574.67	1027.22
575.02	1028.89
575.37	1030.46
575.72	1031.83
576.08	1033.74
576.43	1035.03
576.78	1036.51
577.13	1038.00
577.49	1039.49
577.84	1040.68
578.19	1042.14
578.54	1043.72
578.90	1044.85
579.25	1045.20
579.60	1046.15
579.95	1046.80
580.30	1047.18
580.66	1047.75
581.01	1048.09
581.36	1048.57
581.71	1049.20
582.06	1049.77
582.42	1050.14
582.77	1050.73
583.12	1051.03
583.47	1051.10
583.82	1051.50
584.17	1051.46
584.53	1051.90
584.88	1051.95
585.23	1052.02
585.58	1051.76
585.93	1051.47
586.28	1051.54
586.63	1051.67
586.98	1051.51
587.34	1051.53
587.69	1051.69
588.04	1051.24
588.39	1051.58
588.74	1050.67
589.09	1049.80
589.44	1048.78
589.79	1048.30
590.14	1047.73
590.49	1047.10
590.84	1046.44
591.19	1045.55
591.54	1044.44
591.89	1042.61
592.25	1041.74
592.60	1040.30
592.95	1039.11
593.30	1037.39
593.65	1035.68
594.00	1033.94
594.35	1033.02
594.70	1031.21
595.05	1029.40
595.40	1027.88
595.75	1025.45
596.10	1024.50
596.45	1023.34
596.80	1022.09
597.15	1020.64
597.50	1018.90
597.85	1017.59
598.19	1015.81
598.54	1014.20
598.89	1012.77
599.24	1011.77
599.59	1009.93
599.94	1008.34
600.29	1006.62
600.64	1005.32
600.99	1003.16
601.34	1001.62
601.69	999.12
602.04	997.28
602.39	995.27
602.74	993.49
603.08	992.25
603.43	990.30
603.78	988.35
604.13	986.22
604.48	983.85
604.83	981.53
605.18	979.40
605.53	976.99
605.87	974.28
606.22	972.21
606.57	969.60
606.92	966.97
607.27	964.72
607.62	962.44
607.96	960.40
608.31	958.47
608.66	955.53
609.01	952.89
609.36	949.96
609.70	947.17
610.05	944.09
610.40	941.05
610.75	938.02
611.10	934.99
611.44	931.64
611.79	929.02
612.14	926.00
612.49	922.43
612.83	919.32
613.18	916.33
613.53	913.11
613.88	909.74
614.22	906.75
614.57	903.15
614.92	899.78
615.27	896.04
615.61	892.60
615.96	889.45
616.31	886.55
616.65	883.90
617.00	880.77
617.35	877.88
617.70	874.56
618.04	871.29
618.39	867.96
618.74	865.28
619.08	861.84
619.43	858.85
619.78	855.83
620.12	852.81
620.47	849.67
620.82	846.14
621.16	843.02
621.51	839.96
621.85	837.02
622.20	833.51
622.55	830.67
622.89	827.49
623.24	824.71
623.59	821.42
623.93	818.19
624.28	815.21
624.62	811.83
624.97	808.83
625.32	805.92
625.66	802.74
626.01	799.44
626.35	796.41
626.70	793.09
627.04	790.22
627.39	786.81
627.73	783.69
628.08	780.77
628.43	777.60
628.77	774.31
629.12	771.07
629.46	768.11
629.81	764.55
630.15	761.17
630.50	757.52
630.84	753.88
631.19	750.33
631.53	746.88
631.88	743.41
632.22	739.79
632.57	736.23
632.91	732.84
633.26	729.15
633.60	725.36
633.95	722.10
634.29	718.65
634.64	715.56
634.98	712.35
635.32	709.33
635.67	706.51
636.01	703.23
636.36	700.04
636.70	697.00
637.05	694.05
637.39	691.31
637.73	688.40
638.08	685.78
638.42	682.97
638.77	680.18
639.11	677.21
639.45	674.36
639.80	671.45
640.14	668.59
640.49	665.89
640.83	663.06
641.17	659.97
641.52	656.87
641.86	653.82
642.20	650.72
642.55	647.53
642.89	644.19
643.23	641.08
643.58	638.16
643.92	635.15
644.26	632.08
644.61	629.04
644.95	626.11
645.29	622.81
645.64	619.67
645.98	616.59
646.32	613.76
646.66	610.75
647.01	607.67
647.35	604.80
647.69	601.86
648.04	599.03
648.38	596.14
648.72	592.94
649.06	589.94
649.41	587.10
649.75	583.90
650.09	580.90
650.43	577.98
650.78	574.85
651.12	571.85
651.46	568.98
651.80	566.09
652.14	563.24
652.49	560.66
652.83	557.90
653.17	554.89
653.51	552.08
653.85	549.04
654.20	546.18
654.54	543.09
654.88	539.99
655.22	537.06
655.56	534.08
655.90	531.46
656.25	528.73
656.59	526.06
656.93	523.35
657.27	520.87
657.61	518.06
657.95	515.53
658.29	513.05
658.64	510.41
658.98	507.50
659.32	504.73
659.66	502.10
660.00	499.57
660.34	497.00
660.68	494.35
661.02	491.87
661.36	489.40
661.70	487.10
662.05	485.10
662.39	482.93
662.73	480.65
663.07	478.38
663.41	476.24
663.75	473.97
664.09	471.84
664.43	469.52
664.77	467.49
665.11	465.48
665.45	463.10
665.79	460.87
666.13	458.77
666.47	456.77
666.81	454.41
667.15	451.99
667.49	449.91
667.83	448.02
668.17	445.98
668.51	443.93
668.85	441.77
669.19	439.73
669.53	437.73
669.87	435.76
670.21	433.95
670.55	431.77
670.89	430.01
671.23	428.19
671.57	426.44
671.91	424.57
672.25	422.39
672.58	420.58
672.92	418.76
673.26	417.10
673.60	415.24
673.94	413.58
674.28	412.09
674.62	410.53
674.96	408.75
675.30	407.12
675.64	405.47
675.97	404.01
676.31	402.33
676.65	400.57
676.99	399.01
677.33	397.32
677.67	395.94
678.01	393.99
678.34	392.29
678.68	390.67
679.02	389.11
679.36	387.73
679.70	386.22
680.04	384.69
680.37	383.10
680.71	381.60
681.05	380.16
681.39	378.67
681.73	377.27
682.06	375.90
682.40	374.60
682.74	373.45
683.08	371.99
683.42	370.52
683.75	368.99
684.09	367.51
684.43	366.01
684.77	364.41
685.10	363.05
685.44	361.71
685.78	360.32
686.12	359.01
686.45	357.70
686.79	356.38
687.13	355.00
687.46	353.68
687.80	352.40
688.14	351.14
688.48	349.84
688.81	348.41
689.15	347.16
689.49	345.83
689.82	344.28
690.16	342.99
690.50	341.76
690.83	340.70
691.17	339.47
691.51	338.35
691.84	337.42
692.18	336.33
692.52	335.09
692.85	333.94
693.19	332.84
693.52	331.60
693.86	330.40
694.20	329.31
694.53	328.24
694.87	327.01
695.21	325.82
695.54	324.76
695.88	323.49
696.21	322.18
696.55	321.00
696.88	320.10
697.22	319.14
697.56	318.20
697.89	317.08
698.23	316.14
698.56	315.00
698.90	313.95
699.23	312.93
699.57	312.04
699.90	311.03
700.24	309.91
700.58	309.04
700.91	308.12
701.25	307.31
701.58	306.60
701.92	305.78
702.25	304.97
702.59	304.13
702.92	303.50
703.26	302.79
703.59	302.12
703.93	301.42
704.26	300.63
704.60	299.62
704.93	298.90
705.26	298.05
705.60	297.55
705.93	296.82
706.27	296.16
706.60	295.48
706.94	294.74
707.27	294.11
707.61	293.39
707.94	292.90
708.27	292.10
708.61	291.22
708.94	290.67
709.28	290.10
709.61	289.39
709.94	288.85
710.28	288.24
710.61	287.46
710.95	286.56
711.28	286.05
711.61	285.62
711.95	285.03
712.28	284.41
712.61	283.68
712.95	283.20
713.28	282.69
713.61	282.09
713.95	281.45
714.28	280.81
714.61	280.26
714.95	279.64
715.28	279.13
715.61	278.53
715.95	278.04
716.28	277.48
716.61	277.03
716.95	276.43
717.28	275.92
717.61	275.48
717.94	275.07
718.28	274.37
718.61	273.86
718.94	273.47
719.27	273.12
719.61	272.61
719.94	271.95
720.27	271.35
720.60	270.86
720.94	270.51
721.27	270.29
721.60	269.87
721.93	269.39
722.27	269.04
722.60	268.73
722.93	268.24
723.26	267.79
723.59	267.25
723.93	266.89
724.26	266.42
724.59	266.11
724.92	265.74
725.25	265.40
725.59	264.99
725.92	264.51
726.25	264.05
726.58	263.70
726.91	263.43
727.24	263.10
727.57	262.75
727.91	262.29
728.24	261.84
728.57	261.43
728.90	261.14
729.23	260.63
729.56	260.37
729.89	259.94
730.22	259.60
730.55	259.37
730.89	258.93
731.22	258.55
731.55	258.22
731.88	257.84
732.21	257.54
732.54	257.14
732.87	256.80
733.20	256.51
733.53	256.28
733.86	255.91
734.19	255.57
734.52	255.34
734.85	255.19
735.18	254.83
735.51	254.64
735.84	254.34
736.17	254.15
736.50	253.76
736.83	253.69
737.16	253.35
737.49	253.15
737.82	252.74
738.15	252.53
738.48	252.17
738.81	251.99
739.14	251.68
739.47	251.41
739.80	251.24
740.13	250.98
740.46	250.64
740.79	250.37
741.12	250.05
741.45	249.80
741.78	249.53
742.11	249.38
742.44	249.04
742.77	248.73
743.10	248.37
743.43	248.15
743.75	247.73
744.08	247.85
744.41	247.48
744.74	247.42
745.07	247.21
745.40	247.07
745.73	246.83
746.06	246.62
746.39	246.46
746.71	246.16
747.04	245.92
747.37	245.79
747.70	245.58
748.03	245.39
748.36	245.15
748.68	244.91
749.01	244.62
749.34	244.54
749.67	244.40
750.00	244.47
750.33	244.37
750.65	244.28
750.98	243.87
751.31	243.77
751.64	243.60
751.97	243.58
752.29	243.40
752.62	243.20
752.95	243.04
753.28	242.85
753.60	242.77
753.93	242.74
754.26	242.60
754.59	242.47
754.91	242.47
755.24	242.37
755.57	242.26
755.90	242.15
756.22	241.92
756.55	241.78
756.88	241.49
757.20	241.19
757.53	241.00
757.86	240.86
758.19	240.65
758.51	240.50
758.84	240.21
759.17	240.07
759.49	239.98
759.82	240.05
760.15	240.00
760.47	239.80
760.80	239.63
761.13	239.43
761.45	239.28
761.78	239.08
762.11	238.90
762.43	238.79
762.76	238.61
763.08	238.53
763.41	238.37
763.74	238.28
764.06	238.23
764.39	238.08
764.71	237.86
765.04	237.77
765.37	237.68
765.69	237.53
766.02	237.57
766.34	237.41
766.67	237.13
767.00	237.04
767.32	237.05
767.65	236.97
767.97	236.94
768.30	236.80
768.62	236.70
768.95	236.68
769.27	236.58
769.60	236.54
769.92	236.43
770.25	236.32
770.57	236.18
770.90	236.01
771.22	235.95
771.55	235.86
771.87	235.78
772.20	235.66
772.52	235.75
772.85	235.70
773.17	235.51
773.50	235.43
773.82	235.22
774.15	234.96
774.47	234.73
774.80	234.57
775.12	234.51
775.45	234.46
775.77	234.23
776.09	234.13
776.42	233.97
776.74	233.93
777.07	233.85
777.39	233.80
777.72	233.72
778.04	233.65
778.36	233.61
778.69	233.62
779.01	233.56
779.33	233.40
779.66	233.12
779.98	233.08
780.31	233.04
780.63	233.12
780.95	233.23
781.28	233.20
781.60	233.17
781.92	233.20
782.25	233.09
782.57	233.01
782.89	233.01
783.22	232.92
783.54	232.97
783.86	232.93
784.19	232.92
784.51	233.00
784.83	232.93
785.16	232.87
785.48	232.75
785.80	232.66
786.12	232.47
786.45	232.39
786.77	232.37
787.09	232.25
787.42	232.10
787.74	232.13
788.06	232.18
788.38	232.13
788.71	232.19
789.03	232.19
789.35	232.31
789.67	232.26
789.99	232.38
790.32	232.20
790.64	232.30
790.96	232.39
791.28	232.26
791.61	232.18
791.93	232.20
792.25	232.12
792.57	232.31
792.89	232.41
793.21	232.44
793.54	232.45
793.86	232.37
794.18	232.40
794.50	232.23
794.82	232.12
795.14	232.14
795.47	231.97
795.79	231.94
796.11	231.85
796.43	231.78
796.75	231.70
797.07	231.68
797.39	231.59
797.71	231.35
798.04	231.28
798.36	231.39
798.68	231.47
799.00	231.47
799.32	231.30
799.64	231.25
799.96	231.27
800.28	231.32
800.60	231.37
800.92	231.40
801.24	231.30
801.56	231.41
801.89	231.43
802.21	231.44
802.53	231.40
802.85	231.40
803.17	231.57
803.49	231.60
803.81	231.57
804.13	231.61
804.45	231.60
804.77	231.72
805.09	231.57
805.41	231.40
805.73	231.38
806.05	231.40
806.37	231.37
806.69	231.37
807.01	231.40
807.33	231.34
807.65	231.30
807.97	231.46
808.28	231.36
808.60	231.22
808.92	231.20
809.24	231.25
809.56	231.23
809.88	231.10
810.20	231.04
810.52	231.06
810.84	230.91
811.16	230.89
811.48	230.86
811.80	231.01
812.12	230.94
812.43	231.03
812.75	230.94
813.07	230.89
813.39	230.81
813.71	230.69
814.03	230.61
814.35	230.58
814.67	230.49
814.98	230.49
815.30	230.53
815.62	230.43
815.94	230.31
816.26	230.32
816.58	230.20
816.89	230.11
817.21	230.01
817.53	229.98
817.85	230.01
818.17	229.94
818.48	229.74
818.80	229.76
819.12	229.60
819.44	229.60
819.76	229.53
820.07	229.58
820.39	229.49
820.71	229.52
821.03	229.33
821.34	229.30
821.66	229.29
821.98	229.22
822.30	229.21
822.61	229.27
822.93	229.09
823.25	229.12
823.57	229.05
823.88	229.03
824.20	228.99
824.52	228.88
824.83	228.93
825.15	228.97
825.47	228.97
825.79	229.00
826.10	228.97
826.42	229.04
826.74	228.94
827.05	228.90
827.37	228.88
827.69	228.96
828.00	228.93
828.32	228.89
828.64	228.95
828.95	229.01
829.27	228.93
829.58	229.02
829.90	228.98
830.22	229.10
830.53	229.17
830.85	229.26
831.17	229.33
831.48	229.26
831.80	229.22
832.11	229.18
832.43	229.08
832.75	229.07
833.06	229.14
833.38	229.14
833.69	229.15
834.01	229.15
834.32	229.15
834.64	229.22
834.96	229.30
835.27	229.28
835.59	229.23
835.90	229.27
836.22	229.34
836.53	229.34
836.85	229.37
837.16	229.57
837.48	229.57
837.79	229.55
838.11	229.63
838.42	229.71
838.74	229.92
839.05	230.07
839.37	230.06
839.68	229.98
840.00	230.03
840.31	230.14
840.63	230.10
840.94	230.10
841.26	229.99
841.57	229.94
841.88	230.01
842.20	230.15
842.51	230.13
842.83	230.03
843.14	230.20
843.46	230.20
843.77	230.06
844.08	229.92
844.40	229.92
844.71	229.83
845.03	229.77
845.34	229.54
845.65	229.46
845.97	229.50
846.28	229.50
846.60	229.49
846.91	229.44
847.22	229.47
847.54	229.50
847.85	229.59
848.16	229.49
848.48	229.36
848.79	229.40
849.10	229.35
849.42	229.34
849.73	229.13
850.04	229.04
850.36	228.97
850.67	229.08
850.98	229.04
851.30	229.00
851.61	228.96
851.92	228.94
852.23	229.02
852.55	229.00
852.86	228.90
853.17	228.88
853.49	228.92
853.80	228.84
854.11	228.78
854.42	228.71
854.74	228.68
855.05	228.64
855.36	228.37
855.67	228.38
855.99	228.40
856.30	228.61
856.61	228.54
856.92	228.51
857.23	228.45
857.55	228.41
857.86	228.40
858.17	228.45
858.48	228.44
858.79	228.40
859.11	228.45
859.42	228.43
859.73	228.33
860.04	228.19
860.35	228.24
860.66	228.21
860.98	228.25
861.29	228.24
861.60	228.20
861.91	228.32
862.22	228.33
862.53	228.25
862.84	228.03
863.16	228.15
863.47	228.19
863.78	228.19
864.09	228.24
864.40	228.21
864.71	228.10
865.02	228.16
865.33	228.10
865.64	227.96
865.95	227.94
866.27	228.00
866.58	227.97
866.89	227.97
867.20	227.94
867.51	227.87
867.82	227.83
868.13	227.96
868.44	227.80
868.75	227.82
869.06	227.92
869.37	227.92
869.68	227.83
869.99	227.86
870.30	227.86
870.61	227.76
870.92	227.82
871.23	227.87
871.54	227.92
871.85	227.94
872.16	228.04
872.47	228.12
872.78	228.16
873.09	228.13
873.40	228.11
873.71	228.18
874.02	228.12
874.33	228.20
874.64	228.17
874.95	228.23
875.26	228.14
875.56	228.12
875.87	228.08
876.18	228.09
876.49	228.24
876.80	228.28
877.11	228.33
877.42	228.38
877.73	228.33
878.04	228.26
878.35	228.28
878.66	228.27
878.96	228.23
879.27	228.16
879.58	228.34
879.89	228.37
880.20	228.40
880.51	228.47
880.82	228.42
881.12	228.43
881.43	228.42
881.74	228.48
882.05	228.44
882.36	228.56
882.67	228.56
882.97	228.43
883.28	228.45
883.59	228.50
883.90	228.48
884.21	228.65
884.51	228.69
884.82	228.62
885.13	228.64
885.44	228.68
885.74	228.75
886.05	228.75
886.36	228.78
886.67	228.77
886.98	228.87
887.28	228.95
887.59	228.97
887.90	229.10
888.20	229.11
888.51	229.21
888.82	229.19
889.13	229.21
889.43	229.33
889.74	229.29
890.05	229.34
890.35	229.27
890.66	229.15
890.97	229.11
891.28	229.19
891.58	229.16
891.89	229.22
892.20	229.13
892.50	229.12
892.81	229.05
893.12	229.04
893.42	228.94
893.73	228.90
894.04	228.92
894.34	228.88
894.65	228.85
894.95	228.75
895.26	228.71
895.57	228.85
895.87	228.67
896.18	228.70
896.48	228.63
896.79	228.70
897.10	228.80
897.40	228.72
897.71	228.72
898.01	228.75
898.32	228.70
898.63	228.76
898.93	228.70
899.24	228.81
899.54	228.78
899.85	228.72
900.15	228.70
900.46	228.80
900.76	228.77
901.07	228.74
901.38	228.69
901.68	228.77
901.99	228.64
902.29	228.54
902.60	228.56
902.90	228.49
903.21	228.42
903.51	228.36
903.82	228.44
904.12	228.35
904.43	228.20
904.73	228.27
905.03	228.25
905.34	228.36
905.64	228.24
905.95	228.17
906.25	228.28
906.56	228.32
906.86	228.07
907.17	227.94
907.47	227.94
907.77	227.94
908.08	227.86
908.38	227.85
908.69	227.92
908.99	227.83
909.30	227.84
909.60	227.89
909.90	227.89
910.21	227.86
910.51	227.84
910.81	227.93
911.12	227.81
911.42	227.78
911.73	227.64
912.03	227.67
912.33	227.75
912.64	227.70
912.94	227.52
913.24	227.55
913.55	227.63
913.85	227.61
914.15	227.66
914.46	227.59
914.76	227.57
915.06	227.47
915.37	227.37
915.67	227.42
915.97	227.34
916.27	227.22
916.58	227.21
916.88	227.31
917.18	227.23
917.49	227.39
917.79	227.44
918.09	227.46
918.39	227.58
918.70	227.60
919.00	227.50
919.30	227.76
919.60	227.80
919.91	227.85
920.21	227.87
920.51	227.89
920.81	227.99
921.12	228.04
921.42	228.23
921.72	228.47
922.02	228.48
922.32	228.57
922.63	228.62
922.93	228.73
923.23	228.74
923.53	228.83
923.83	228.69
924.13	228.61
924.44	228.69
924.74	228.64
925.04	228.67
925.34	228.76
925.64	228.70
925.94	228.81
926.24	228.91
926.55	228.97
926.85	229.00
927.15	228.97
927.45	228.99
927.75	228.91
928.05	228.85
928.35	228.88
928.65	228.96
928.95	229.01
929.26	229.01
929.56	229.10
929.86	229.06
930.16	229.08
930.46	229.27
930.76	229.26
931.06	229.26
931.36	229.29
931.66	229.41
931.96	229.40
932.26	229.24
932.56	229.16
932.86	229.11
933.16	229.14
933.46	229.06
933.76	229.03
934.06	229.04
934.36	229.07
934.66	229.00
934.96	228.95
935.26	229.00
935.56	228.97
935.86	228.86
936.16	228.94
936.46	228.98
936.76	228.81
937.06	228.68
937.36	228.65
937.66	228.64
937.96	228.56
938.26	228.51
938.56	228.62
938.86	228.63
939.16	228.74
939.46	228.70
939.76	228.69
940.06	228.66
940.35	228.62
940.65	228.57
940.95	228.58
941.25	228.58
941.55	228.54
941.85	228.52
942.15	228.50
942.45	228.51
942.75	228.35
943.04	228.30
943.34	228.34
943.64	228.30
943.94	228.16
944.24	228.06
944.54	227.98
944.84	227.94
945.13	227.83
945.43	227.76
945.73	227.80
946.03	227.80
946.33	227.72
946.62	227.72
946.92	227.72
947.22	227.73
947.52	227.67
947.82	227.64
948.11	227.60
948.41	227.52
948.71	227.41
949.01	227.47
949.31	227.55
949.60	227.47
949.90	227.49
950.20	227.51
950.50	227.56
950.79	227.60
951.09	227.61
951.39	227.57
951.69	227.52
951.98	227.42
952.28	227.40
952.58	227.48
952.87	227.48
953.17	227.37
953.47	227.32
953.76	227.35
954.06	227.26
954.36	227.23
954.66	227.26
954.95	227.34
955.25	227.43
955.55	227.40
955.84	227.52
956.14	227.60
956.44	227.61
956.73	227.66
957.03	227.62
957.32	227.62
957.62	227.65
957.92	227.70
958.21	227.71
958.51	227.94
958.81	228.06
959.10	228.05
959.40	228.17
959.69	228.20
959.99	228.15
960.29	228.22
960.58	228.17
960.88	228.25
961.17	228.30
961.47	228.31
961.76	228.39
962.06	228.47
962.36	228.39
962.65	228.41
962.95	228.42
963.24	228.46
963.54	228.54
963.83	228.70
964.13	228.75
964.42	228.77
964.72	228.70
965.01	228.66
965.31	228.60
965.60	228.57
965.90	228.70
966.19	228.74
966.49	228.73
966.78	228.89
967.08	228.96
967.37	228.96
967.67	228.86
967.96	228.87
968.26	228.82
968.55	228.97
968.85	229.00
969.14	229.00
969.43	229.00
969.73	229.00
970.02	228.88
970.32	228.88
970.61	228.85
970.91	228.79
971.20	228.75
971.49	228.80
971.79	228.91
972.08	228.70
972.38	228.74
972.67	228.77
972.96	228.66
973.26	228.55
973.55	228.60
973.85	228.68
974.14	228.63
974.43	228.62
974.73	228.56
975.02	228.55
975.31	228.57
975.61	228.59
975.90	228.50
976.19	228.49
976.49	228.51
976.78	228.56
977.07	228.54
977.37	228.43
977.66	228.49
977.95	228.36
978.24	228.40
978.54	228.41
978.83	228.38
979.12	228.47
979.42	228.48
979.71	228.40
980.00	228.30
980.29	228.29
980.59	228.22
980.88	228.20
981.17	228.16
981.46	228.11
981.76	228.05
982.05	228.15
982.34	228.18
982.63	228.10
982.93	228.07
983.22	228.11
983.51	228.20
983.80	228.19
984.09	228.23
984.39	228.13
984.68	228.00
984.97	228.00
985.26	227.97
985.55	228.02
985.85	227.96
986.14	228.01
986.43	228.00
986.72	227.99
987.01	227.86
987.30	227.83
987.59	227.72
987.89	227.72
988.18	227.57
988.47	227.54
988.76	227.60
989.05	227.60
989.34	227.58
989.63	227.59
989.92	227.50
990.22	227.45
990.51	227.53
990.80	227.62
991.09	227.57
991.38	227.60
991.67	227.56
991.96	227.61
992.25	227.61
992.54	227.60
992.83	227.60
993.12	227.57
993.41	227.59
993.70	227.69
993.99	227.81
994.28	227.82
994.58	227.86
994.87	227.79
995.16	227.76
995.45	227.80
995.74	227.81
996.03	227.83
996.32	227.86
996.61	227.89
996.90	227.88
997.19	228.00
997.48	227.95
997.77	227.94
998.06	227.87
998.34	227.86
998.63	227.89
998.92	227.97
999.21	228.06
999.50	228.16
999.79	228.10
1000.08	227.97
1000.37	228.07
1000.66	228.11
1000.95	228.08
1001.24	228.16
1001.53	228.20
1001.82	228.20
1002.11	228.25
1002.40	228.28
1002.68	228.45
1002.97	228.60
1003.26	228.63
1003.55	228.66
1003.84	228.79
1004.13	228.88
1004.42	228.92
1004.71	228.91
1004.99	228.84
1005.28	228.94
1005.57	228.85
1005.86	228.86
1006.15	228.90
1006.44	228.81
1006.72	228.65
1007.01	228.68
1007.30	228.60
1007.59	228.64
1007.88	228.60
1008.17	228.57
1008.45	228.56
1008.74	228.33
1009.03	228.22
1009.32	228.10
1009.60	228.00
1009.89	227.89
1010.18	227.87
1010.47	227.83
1010.76	227.83
1011.04	227.81
1011.33	227.77
1011.62	227.79
1011.91	227.87
1012.19	227.81
1012.48	227.93
1012.77	228.04
1013.05	228.08
1013.34	228.16
1013.63	228.02
1013.92	228.04
1014.20	227.98
1014.49	228.01
1014.78	228.09
1015.06	228.06
1015.35	228.07
1015.64	228.13
1015.92	228.15
1016.21	228.03
1016.50	228.10
1016.78	228.03
1017.07	228.00
1017.36	227.94
1017.64	227.87
1017.93	227.85
1018.22	227.91
1018.50	227.78
1018.79	227.76
1019.08	227.71
1019.36	227.70
1019.65	227.66
1019.93	227.66
1020.22	227.80
1020.51	227.79
1020.79	227.78
1021.08	227.60
1021.36	226.70
1021.65	227.70
1021.94	227.60
1022.22	228.80
1022.51	227.20
1022.79	228.00
1023.08	229.20
1023.36	229.10
1023.65	227.70
>>>>>End Processed Spectral Data<<<<<
