SpectraSuite Data File
++++++++++++++++++++++++++++++++++++
Date: Fri Feb 01 14:38:08 EST 2013
User: group
Dark Spectrum Present: No
Reference Spectrum Present: No
Number of Sampled Component Spectra: 1
Spectrometers: USB2E7196
Integration Time (usec): 70000 (USB2E7196)
Spectra Averaged: 10 (USB2E7196)
Boxcar Smoothing: 10 (USB2E7196)
Correct for Electrical Dark: No (USB2E7196)
Strobe/Lamp Enabled: No (USB2E7196)
Correct for Detector Non-linearity: No (USB2E7196)
Correct for Stray Light: No (USB2E7196)
Number of Pixels in Processed Spectrum: 2048
>>>>>Begin Processed Spectral Data<<<<<
339.09	0.00
339.48	217.80
339.86	219.60
340.24	219.40
340.63	220.30
341.01	225.10
341.39	222.40
341.78	224.70
342.16	227.50
342.54	226.00
342.93	215.17
343.31	226.02
343.69	226.58
344.07	226.98
344.46	227.40
344.84	227.79
345.22	227.92
345.60	228.28
345.99	228.43
346.37	228.48
346.75	228.52
347.13	228.57
347.52	228.62
347.90	228.60
348.28	228.60
348.66	228.66
349.05	228.53
349.43	228.56
349.81	228.46
350.19	228.50
350.57	228.58
350.96	228.69
351.34	228.83
351.72	228.83
352.10	228.80
352.48	228.80
352.87	228.92
353.25	229.03
353.63	229.00
354.01	229.11
354.39	229.19
354.77	229.29
355.15	229.40
355.54	229.43
355.92	229.44
356.30	229.50
356.68	229.64
357.06	229.65
357.44	229.60
357.82	229.64
358.20	229.67
358.58	229.66
358.97	229.69
359.35	229.64
359.73	229.74
360.11	229.86
360.49	229.98
360.87	229.92
361.25	229.93
361.63	229.98
362.01	229.92
362.39	229.87
362.77	229.91
363.15	229.89
363.53	229.90
363.91	229.97
364.29	230.00
364.67	229.75
365.05	229.69
365.43	229.73
365.81	229.77
366.19	229.81
366.57	229.80
366.95	229.75
367.33	229.64
367.71	229.55
368.09	229.47
368.47	229.34
368.85	229.26
369.23	229.24
369.61	229.17
369.99	229.22
370.37	229.19
370.75	229.25
371.13	229.15
371.51	229.04
371.89	228.97
372.27	228.85
372.65	228.83
373.03	228.90
373.41	228.88
373.78	228.80
374.16	228.67
374.54	228.54
374.92	228.47
375.30	228.42
375.68	228.34
376.06	228.36
376.44	228.32
376.82	228.27
377.19	228.26
377.57	228.17
377.95	227.99
378.33	227.95
378.71	227.71
379.09	227.68
379.47	227.73
379.84	227.74
380.22	227.65
380.60	227.55
380.98	227.50
381.36	227.40
381.73	227.20
382.11	227.20
382.49	227.05
382.87	226.89
383.25	226.82
383.62	226.96
384.00	226.93
384.38	226.94
384.76	226.84
385.13	226.81
385.51	226.70
385.89	226.67
386.27	226.60
386.64	226.59
387.02	226.59
387.40	226.51
387.78	226.37
388.15	226.29
388.53	226.34
388.91	226.30
389.29	226.20
389.66	226.22
390.04	226.10
390.42	226.26
390.79	226.34
391.17	226.44
391.55	226.16
391.92	226.11
392.30	226.14
392.68	226.09
393.05	226.13
393.43	226.24
393.81	226.38
394.18	226.40
394.56	226.41
394.94	226.44
395.31	226.48
395.69	226.61
396.06	226.77
396.44	226.83
396.82	226.92
397.19	227.10
397.57	227.36
397.95	227.58
398.32	227.66
398.70	227.81
399.07	227.83
399.45	227.88
399.82	227.97
400.20	228.02
400.58	228.24
400.95	228.23
401.33	228.44
401.70	228.61
402.08	228.76
402.45	228.95
402.83	229.18
403.20	229.20
403.58	229.39
403.95	229.50
404.33	229.63
404.71	229.66
405.08	229.85
405.46	229.92
405.83	230.03
406.21	230.16
406.58	230.25
406.96	230.53
407.33	230.80
407.70	230.98
408.08	231.36
408.45	231.62
408.83	231.89
409.20	232.05
409.58	232.21
409.95	232.54
410.33	232.90
410.70	233.12
411.08	233.66
411.45	233.89
411.82	234.22
412.20	234.68
412.57	235.29
412.95	235.55
413.32	236.04
413.69	236.67
414.07	237.22
414.44	237.83
414.82	238.44
415.19	239.23
415.56	239.92
415.94	240.55
416.31	241.33
416.68	242.20
417.06	243.19
417.43	244.19
417.81	245.23
418.18	246.18
418.55	247.22
418.93	248.30
419.30	249.58
419.67	250.89
420.04	252.04
420.42	253.50
420.79	255.30
421.16	256.91
421.54	258.43
421.91	260.08
422.28	261.92
422.66	263.72
423.03	265.51
423.40	267.36
423.77	269.23
424.15	271.29
424.52	273.40
424.89	275.72
425.26	277.87
425.64	279.94
426.01	282.20
426.38	284.75
426.75	287.25
427.13	289.73
427.50	292.35
427.87	295.21
428.24	297.96
428.61	300.50
428.99	303.39
429.36	306.49
429.73	309.59
430.10	312.56
430.47	315.77
430.85	319.08
431.22	322.47
431.59	326.26
431.96	329.79
432.33	333.59
432.70	337.38
433.08	341.76
433.45	345.80
433.82	349.95
434.19	354.40
434.56	358.63
434.93	362.85
435.30	366.98
435.68	371.68
436.05	376.14
436.42	380.69
436.79	384.70
437.16	389.34
437.53	394.17
437.90	398.70
438.27	403.23
438.64	407.84
439.01	412.19
439.38	416.09
439.75	419.81
440.13	423.89
440.50	427.83
440.87	431.05
441.24	434.66
441.61	438.44
441.98	441.12
442.35	444.57
442.72	448.04
443.09	451.32
443.46	453.41
443.83	454.83
444.20	456.10
444.57	458.10
444.94	458.87
445.31	459.92
445.68	461.22
446.05	461.72
446.42	461.55
446.79	461.62
447.16	461.33
447.53	461.40
447.90	460.36
448.27	458.95
448.64	457.21
449.01	455.82
449.37	453.22
449.74	450.80
450.11	447.81
450.48	444.28
450.85	440.90
451.22	437.73
451.59	434.90
451.96	432.14
452.33	428.15
452.70	424.88
453.07	420.57
453.43	416.13
453.80	412.02
454.17	408.04
454.54	404.07
454.91	400.02
455.28	395.88
455.65	391.97
456.02	388.35
456.38	384.80
456.75	380.68
457.12	377.18
457.49	373.70
457.86	370.15
458.23	367.27
458.59	364.02
458.96	360.84
459.33	358.04
459.70	355.10
460.07	352.85
460.43	350.08
460.80	347.45
461.17	345.24
461.54	342.93
461.91	340.68
462.27	338.46
462.64	336.33
463.01	334.12
463.38	332.04
463.74	329.65
464.11	327.80
464.48	326.06
464.85	324.17
465.21	322.84
465.58	321.41
465.95	319.53
466.32	317.96
466.68	316.43
467.05	314.91
467.42	313.43
467.78	311.85
468.15	310.37
468.52	309.15
468.88	307.61
469.25	306.21
469.62	305.13
469.98	303.92
470.35	302.81
470.72	301.69
471.08	300.55
471.45	299.59
471.82	298.58
472.18	297.57
472.55	296.86
472.92	295.82
473.28	294.90
473.65	294.14
474.02	293.30
474.38	292.53
474.75	291.79
475.11	291.09
475.48	290.34
475.85	289.78
476.21	289.28
476.58	288.78
476.94	288.31
477.31	287.82
477.67	287.23
478.04	286.82
478.41	286.50
478.77	286.25
479.14	285.80
479.50	285.51
479.87	285.20
480.23	284.92
480.60	284.45
480.96	284.11
481.33	284.02
481.69	283.83
482.06	283.62
482.42	283.39
482.79	283.25
483.15	283.38
483.52	283.42
483.88	283.36
484.25	283.32
484.61	283.36
484.98	283.25
485.34	283.52
485.71	283.63
486.07	283.59
486.44	283.51
486.80	283.78
487.17	283.85
487.53	284.09
487.90	284.31
488.26	284.63
488.62	285.02
488.99	285.11
489.35	285.30
489.72	285.65
490.08	285.97
490.44	286.25
490.81	286.54
491.17	286.68
491.54	287.13
491.90	287.40
492.26	287.72
492.63	288.17
492.99	288.45
493.36	288.74
493.72	289.21
494.08	289.53
494.45	289.89
494.81	290.36
495.17	290.65
495.54	291.03
495.90	291.55
496.26	291.79
496.63	292.33
496.99	292.95
497.35	293.41
497.72	293.89
498.08	294.27
498.44	294.57
498.80	295.15
499.17	295.49
499.53	295.91
499.89	296.31
500.26	296.74
500.62	297.05
500.98	297.52
501.34	298.06
501.71	298.63
502.07	299.03
502.43	299.39
502.79	299.77
503.16	300.03
503.52	300.36
503.88	300.72
504.24	300.90
504.60	300.97
504.97	301.25
505.33	301.56
505.69	301.94
506.05	302.28
506.41	302.45
506.78	302.68
507.14	302.98
507.50	303.28
507.86	303.51
508.22	303.77
508.59	304.01
508.95	304.05
509.31	304.17
509.67	304.35
510.03	304.55
510.39	304.82
510.75	305.17
511.12	305.37
511.48	305.67
511.84	305.92
512.20	306.40
512.56	306.67
512.92	306.82
513.28	307.16
513.64	307.40
514.00	307.79
514.37	308.20
514.73	308.55
515.09	308.97
515.45	309.37
515.81	309.93
516.17	310.44
516.53	311.03
516.89	311.68
517.25	312.59
517.61	313.43
517.97	314.29
518.33	315.07
518.69	316.10
519.05	317.05
519.41	318.12
519.77	319.18
520.13	320.32
520.49	321.65
520.85	322.79
521.21	324.37
521.57	325.70
521.93	327.13
522.29	328.74
522.65	330.25
523.01	332.02
523.37	333.69
523.73	335.63
524.09	337.50
524.45	339.48
524.81	341.23
525.17	343.26
525.53	345.32
525.89	347.63
526.25	349.86
526.61	352.18
526.97	354.58
527.33	357.10
527.68	359.89
528.04	362.56
528.40	365.45
528.76	368.22
529.12	371.25
529.48	374.23
529.84	377.34
530.20	380.53
530.56	383.81
530.91	387.22
531.27	390.54
531.63	394.18
531.99	397.79
532.35	401.50
532.71	405.40
533.07	409.50
533.42	413.45
533.78	417.52
534.14	421.85
534.50	425.94
534.86	430.27
535.21	434.28
535.57	438.60
535.93	442.96
536.29	447.55
536.65	452.16
537.00	456.69
537.36	461.40
537.72	466.25
538.08	471.02
538.44	475.89
538.79	480.74
539.15	485.66
539.51	490.64
539.87	495.85
540.22	500.63
540.58	505.60
540.94	510.68
541.29	515.89
541.65	520.90
542.01	526.50
542.37	531.74
542.72	536.98
543.08	542.30
543.44	547.80
543.79	552.94
544.15	558.24
544.51	564.05
544.87	569.47
545.22	574.95
545.58	580.45
545.94	585.59
546.29	591.29
546.65	596.69
547.01	601.87
547.36	607.15
547.72	612.73
548.07	618.18
548.43	623.40
548.79	628.71
549.14	634.06
549.50	639.21
549.86	644.38
550.21	649.82
550.57	655.38
550.92	660.56
551.28	665.75
551.64	671.09
551.99	676.24
552.35	681.51
552.70	686.63
553.06	691.88
553.41	697.53
553.77	702.54
554.13	708.01
554.48	713.57
554.84	718.74
555.19	723.82
555.55	729.13
555.90	734.22
556.26	739.19
556.61	744.34
556.97	749.38
557.32	754.50
557.68	759.52
558.03	764.47
558.39	769.50
558.74	774.78
559.10	779.77
559.45	784.62
559.81	789.63
560.16	794.60
560.52	799.24
560.87	803.95
561.23	808.76
561.58	813.47
561.94	817.93
562.29	822.26
562.64	826.76
563.00	831.06
563.35	836.15
563.71	840.78
564.06	845.28
564.42	849.75
564.77	854.05
565.12	858.89
565.48	863.23
565.83	867.14
566.19	871.13
566.54	875.11
566.89	878.96
567.25	882.83
567.60	886.65
567.96	890.70
568.31	894.47
568.66	898.17
569.02	901.72
569.37	905.14
569.72	908.75
570.08	912.10
570.43	915.43
570.78	918.20
571.14	921.24
571.49	924.09
571.84	927.39
572.20	930.14
572.55	932.16
572.90	934.54
573.26	937.35
573.61	939.95
573.96	942.21
574.31	944.37
574.67	946.28
575.02	948.30
575.37	950.28
575.72	951.76
576.08	953.52
576.43	954.94
576.78	956.84
577.13	958.98
577.49	960.50
577.84	961.99
578.19	963.40
578.54	964.68
578.90	965.81
579.25	966.19
579.60	967.31
579.95	968.68
580.30	969.28
580.66	970.06
581.01	970.74
581.36	971.71
581.71	972.64
582.06	973.37
582.42	973.97
582.77	973.94
583.12	974.50
583.47	974.92
583.82	975.59
584.17	975.63
584.53	975.58
584.88	976.01
585.23	975.77
585.58	976.01
585.93	976.10
586.28	976.45
586.63	976.98
586.98	977.30
587.34	976.96
587.69	977.01
588.04	976.98
588.39	977.14
588.74	976.39
589.09	976.03
589.44	975.34
589.79	975.17
590.14	975.20
590.49	974.97
590.84	974.47
591.19	974.05
591.54	973.09
591.89	972.01
592.25	970.95
592.60	970.12
592.95	968.75
593.30	967.69
593.65	966.50
594.00	965.04
594.35	963.97
594.70	962.56
595.05	961.72
595.40	960.15
595.75	958.27
596.10	957.39
596.45	956.20
596.80	955.60
597.15	954.15
597.50	952.86
597.85	951.74
598.19	950.39
598.54	948.73
598.89	947.53
599.24	946.51
599.59	945.34
599.94	944.28
600.29	943.01
600.64	941.59
600.99	939.75
601.34	938.25
601.69	936.19
602.04	934.99
602.39	933.12
602.74	932.00
603.08	930.59
603.43	929.01
603.78	927.22
604.13	925.24
604.48	923.39
604.83	921.79
605.18	919.80
605.53	917.57
605.87	915.35
606.22	913.69
606.57	911.52
606.92	909.40
607.27	907.37
607.62	905.56
607.96	903.63
608.31	901.98
608.66	899.66
609.01	897.46
609.36	895.06
609.70	892.35
610.05	889.40
610.40	886.96
610.75	884.34
611.10	881.67
611.44	878.62
611.79	876.19
612.14	873.17
612.49	869.74
612.83	867.12
613.18	864.25
613.53	861.31
613.88	858.26
614.22	855.35
614.57	852.09
614.92	848.88
615.27	845.79
615.61	842.39
615.96	839.95
616.31	836.96
616.65	834.10
617.00	831.44
617.35	829.04
617.70	826.07
618.04	822.71
618.39	819.83
618.74	817.25
619.08	813.99
619.43	811.10
619.78	808.69
620.12	805.85
620.47	802.99
620.82	799.96
621.16	796.97
621.51	794.06
621.85	791.29
622.20	788.38
622.55	785.48
622.89	782.95
623.24	779.83
623.59	777.30
623.93	774.66
624.28	771.75
624.62	768.48
624.97	765.60
625.32	763.18
625.66	760.45
626.01	757.59
626.35	754.82
626.70	752.02
627.04	749.18
627.39	746.08
627.73	743.24
628.08	740.47
628.43	737.76
628.77	734.76
629.12	731.82
629.46	729.03
629.81	725.74
630.15	722.38
630.50	719.30
630.84	715.88
631.19	712.52
631.53	709.60
631.88	706.41
632.22	703.09
632.57	700.16
632.91	696.84
633.26	693.64
633.60	690.37
633.95	687.15
634.29	684.16
634.64	681.42
634.98	678.50
635.32	675.85
635.67	672.92
636.01	670.23
636.36	667.28
636.70	664.33
637.05	661.91
637.39	659.33
637.73	656.56
638.08	654.22
638.42	651.83
638.77	649.20
639.11	646.65
639.45	644.10
639.80	641.25
640.14	638.68
640.49	636.02
640.83	633.51
641.17	630.94
641.52	628.12
641.86	625.41
642.20	622.76
642.55	619.70
642.89	617.12
643.23	614.40
643.58	611.94
643.92	609.22
644.26	606.56
644.61	604.07
644.95	601.33
645.29	598.20
645.64	595.03
645.98	592.13
646.32	589.43
646.66	586.78
647.01	583.98
647.35	581.20
647.69	578.64
648.04	575.90
648.38	573.23
648.72	570.36
649.06	567.48
649.41	564.90
649.75	562.14
650.09	559.29
650.43	556.33
650.78	553.38
651.12	550.59
651.46	547.74
651.80	544.89
652.14	542.20
652.49	539.75
652.83	537.25
653.17	534.67
653.51	531.98
653.85	529.32
654.20	526.73
654.54	524.14
654.88	521.12
655.22	518.39
655.56	515.57
655.90	513.26
656.25	510.72
656.59	508.08
656.93	505.57
657.27	503.16
657.61	500.71
657.95	498.23
658.29	495.94
658.64	493.44
658.98	490.90
659.32	488.55
659.66	486.17
660.00	483.72
660.34	481.26
660.68	478.81
661.02	476.29
661.36	473.90
661.70	471.63
662.05	469.64
662.39	467.68
662.73	465.70
663.07	463.46
663.41	461.29
663.75	459.06
664.09	457.00
664.43	454.95
664.77	452.92
665.11	450.94
665.45	448.74
665.79	446.76
666.13	444.71
666.47	442.51
666.81	440.41
667.15	438.30
667.49	436.38
667.83	434.49
668.17	432.47
668.51	430.41
668.85	428.54
669.19	426.72
669.53	424.63
669.87	422.62
670.21	420.73
670.55	418.92
670.89	417.36
671.23	415.67
671.57	413.87
671.91	412.11
672.25	410.37
672.58	408.81
672.92	406.96
673.26	405.48
673.60	403.96
673.94	402.29
674.28	400.86
674.62	399.30
674.96	397.85
675.30	396.60
675.64	395.22
675.97	393.74
676.31	392.15
676.65	390.79
676.99	389.37
677.33	387.87
677.67	386.33
678.01	384.64
678.34	383.00
678.68	381.60
679.02	380.20
679.36	378.80
679.70	377.34
680.04	375.90
680.37	374.44
680.71	373.03
681.05	371.73
681.39	370.41
681.73	369.07
682.06	367.73
682.40	366.39
682.74	365.08
683.08	363.75
683.42	362.34
683.75	361.08
684.09	359.72
684.43	358.39
684.77	357.15
685.10	356.00
685.44	354.88
685.78	353.64
686.12	352.31
686.45	350.98
686.79	349.71
687.13	348.49
687.46	347.22
687.80	346.09
688.14	344.93
688.48	343.75
688.81	342.56
689.15	341.39
689.49	340.18
689.82	339.03
690.16	337.81
690.50	336.78
690.83	335.50
691.17	334.28
691.51	333.29
691.84	332.20
692.18	330.99
692.52	329.82
692.85	328.56
693.19	327.50
693.52	326.40
693.86	325.32
694.20	324.39
694.53	323.29
694.87	322.24
695.21	321.16
695.54	320.06
695.88	319.03
696.21	318.00
696.55	316.96
696.88	315.87
697.22	314.91
697.56	314.00
697.89	313.01
698.23	312.13
698.56	311.10
698.90	310.13
699.23	309.14
699.57	308.15
699.90	307.24
700.24	306.34
700.58	305.46
700.91	304.62
701.25	303.88
701.58	303.28
701.92	302.38
702.25	301.57
702.59	300.81
702.92	300.05
703.26	299.42
703.59	298.60
703.93	298.03
704.26	297.23
704.60	296.38
704.93	295.73
705.26	294.93
705.60	294.32
705.93	293.70
706.27	293.00
706.60	292.42
706.94	291.86
707.27	291.16
707.61	290.64
707.94	290.05
708.27	289.30
708.61	288.48
708.94	287.82
709.28	287.14
709.61	286.57
709.94	285.97
710.28	285.14
710.61	284.64
710.95	283.75
711.28	283.43
711.61	282.91
711.95	282.38
712.28	281.90
712.61	281.33
712.95	280.86
713.28	280.48
713.61	279.91
713.95	279.33
714.28	278.88
714.61	278.28
714.95	277.64
715.28	277.05
715.61	276.56
715.95	276.03
716.28	275.51
716.61	274.96
716.95	274.46
717.28	273.99
717.61	273.40
717.94	273.06
718.28	272.39
718.61	271.88
718.94	271.33
719.27	270.85
719.61	270.36
719.94	269.77
720.27	269.21
720.60	268.77
720.94	268.27
721.27	267.85
721.60	267.40
721.93	267.03
722.27	266.85
722.60	266.43
722.93	266.04
723.26	265.60
723.59	265.10
723.93	264.80
724.26	264.46
724.59	264.10
724.92	263.64
725.25	263.20
725.59	262.74
725.92	262.49
726.25	262.03
726.58	261.66
726.91	261.38
727.24	261.00
727.57	260.78
727.91	260.55
728.24	260.27
728.57	259.85
728.90	259.42
729.23	258.88
729.56	258.68
729.89	258.34
730.22	258.03
730.55	257.71
730.89	257.29
731.22	257.00
731.55	256.66
731.88	256.34
732.21	256.03
732.54	255.84
732.87	255.52
733.20	255.29
733.53	255.07
733.86	254.70
734.19	254.54
734.52	254.10
734.85	253.87
735.18	253.50
735.51	253.41
735.84	253.26
736.17	253.08
736.50	252.62
736.83	252.57
737.16	252.37
737.49	252.09
737.82	251.78
738.15	251.49
738.48	251.29
738.81	251.10
739.14	250.92
739.47	250.67
739.80	250.19
740.13	250.00
740.46	249.60
740.79	249.33
741.12	249.01
741.45	248.63
741.78	248.31
742.11	248.10
742.44	247.93
742.77	247.70
743.10	247.47
743.43	247.20
743.75	246.77
744.08	246.76
744.41	246.63
744.74	246.49
745.07	246.27
745.40	246.14
745.73	246.05
746.06	245.82
746.39	245.67
746.71	245.60
747.04	245.35
747.37	245.21
747.70	245.13
748.03	244.95
748.36	244.94
748.68	244.75
749.01	244.63
749.34	244.40
749.67	244.26
750.00	244.06
750.33	244.10
750.65	244.10
750.98	243.67
751.31	243.61
751.64	243.41
751.97	243.41
752.29	243.26
752.62	242.98
752.95	242.93
753.28	242.72
753.60	242.63
753.93	242.64
754.26	242.49
754.59	242.30
754.91	242.11
755.24	241.99
755.57	241.82
755.90	241.62
756.22	241.36
756.55	241.14
756.88	240.98
757.20	240.72
757.53	240.49
757.86	240.44
758.19	240.36
758.51	240.31
758.84	240.10
759.17	239.87
759.49	239.83
759.82	239.76
760.15	239.69
760.47	239.56
760.80	239.33
761.13	239.36
761.45	239.23
761.78	239.17
762.11	239.14
762.43	239.10
762.76	238.97
763.08	238.92
763.41	238.78
763.74	238.69
764.06	238.58
764.39	238.45
764.71	238.35
765.04	238.08
765.37	237.97
765.69	237.86
766.02	237.77
766.34	237.52
766.67	237.35
767.00	237.27
767.32	237.25
767.65	237.23
767.97	237.10
768.30	236.96
768.62	236.79
768.95	236.59
769.27	236.37
769.60	236.39
769.92	236.31
770.25	236.24
770.57	236.12
770.90	235.95
771.22	235.82
771.55	235.62
771.87	235.50
772.20	235.36
772.52	235.39
772.85	235.49
773.17	235.43
773.50	235.26
773.82	235.06
774.15	234.85
774.47	234.64
774.80	234.47
775.12	234.40
775.45	234.43
775.77	234.30
776.09	234.30
776.42	234.19
776.74	234.10
777.07	234.00
777.39	233.95
777.72	233.93
778.04	233.80
778.36	233.80
778.69	233.69
779.01	233.56
779.33	233.36
779.66	233.10
779.98	233.07
780.31	233.05
780.63	233.07
780.95	233.06
781.28	233.03
781.60	232.90
781.92	232.89
782.25	232.74
782.57	232.72
782.89	232.64
783.22	232.57
783.54	232.51
783.86	232.52
784.19	232.40
784.51	232.44
784.83	232.46
785.16	232.42
785.48	232.62
785.80	232.66
786.12	232.70
786.45	232.70
786.77	232.67
787.09	232.59
787.42	232.60
787.74	232.56
788.06	232.56
788.38	232.63
788.71	232.62
789.03	232.63
789.35	232.70
789.67	232.68
789.99	232.63
790.32	232.53
790.64	232.56
790.96	232.78
791.28	232.72
791.61	232.71
791.93	232.73
792.25	232.54
792.57	232.63
792.89	232.56
793.21	232.59
793.54	232.57
793.86	232.56
794.18	232.49
794.50	232.40
794.82	232.36
795.14	232.34
795.47	232.31
795.79	232.31
796.11	232.23
796.43	232.19
796.75	232.19
797.07	232.20
797.39	232.14
797.71	232.01
798.04	231.94
798.36	231.90
798.68	231.77
799.00	231.75
799.32	231.72
799.64	231.69
799.96	231.61
800.28	231.69
800.60	231.65
800.92	231.61
801.24	231.63
801.56	231.63
801.89	231.57
802.21	231.61
802.53	231.50
802.85	231.47
803.17	231.60
803.49	231.51
803.81	231.50
804.13	231.53
804.45	231.38
804.77	231.43
805.09	231.50
805.41	231.51
805.73	231.47
806.05	231.42
806.37	231.36
806.69	231.40
807.01	231.34
807.33	231.37
807.65	231.33
807.97	231.44
808.28	231.30
808.60	231.30
808.92	231.19
809.24	231.28
809.56	231.26
809.88	231.09
810.20	231.09
810.52	231.14
810.84	230.97
811.16	230.95
811.48	230.90
811.80	230.83
812.12	230.76
812.43	230.76
812.75	230.59
813.07	230.62
813.39	230.50
813.71	230.39
814.03	230.33
814.35	230.28
814.67	230.12
814.98	230.20
815.30	230.12
815.62	230.02
815.94	229.97
816.26	230.01
816.58	229.93
816.89	229.93
817.21	229.79
817.53	229.86
817.85	229.81
818.17	229.73
818.48	229.62
818.80	229.74
819.12	229.74
819.44	229.68
819.76	229.54
820.07	229.53
820.39	229.47
820.71	229.46
821.03	229.36
821.34	229.31
821.66	229.32
821.98	229.32
822.30	229.43
822.61	229.48
822.93	229.43
823.25	229.39
823.57	229.39
823.88	229.42
824.20	229.35
824.52	229.40
824.83	229.41
825.15	229.43
825.47	229.34
825.79	229.36
826.10	229.36
826.42	229.38
826.74	229.42
827.05	229.43
827.37	229.36
827.69	229.39
828.00	229.45
828.32	229.34
828.64	229.39
828.95	229.36
829.27	229.39
829.58	229.38
829.90	229.55
830.22	229.40
830.53	229.44
830.85	229.48
831.17	229.46
831.48	229.42
831.80	229.50
832.11	229.51
832.43	229.48
832.75	229.55
833.06	229.59
833.38	229.46
833.69	229.39
834.01	229.34
834.32	229.36
834.64	229.35
834.96	229.36
835.27	229.33
835.59	229.37
835.90	229.26
836.22	229.30
836.53	229.13
836.85	229.30
837.16	229.46
837.48	229.50
837.79	229.55
838.11	229.51
838.42	229.52
838.74	229.46
839.05	229.49
839.37	229.44
839.68	229.31
840.00	229.46
840.31	229.57
840.63	229.62
840.94	229.65
841.26	229.61
841.57	229.65
841.88	229.68
842.20	229.74
842.51	229.70
842.83	229.58
843.14	229.82
843.46	229.70
843.77	229.57
844.08	229.63
844.40	229.57
844.71	229.63
845.03	229.49
845.34	229.45
845.65	229.37
845.97	229.40
846.28	229.50
846.60	229.41
846.91	229.25
847.22	229.16
847.54	229.10
847.85	229.02
848.16	228.93
848.48	228.85
848.79	228.85
849.10	228.85
849.42	228.92
849.73	228.73
850.04	228.73
850.36	228.65
850.67	228.51
850.98	228.55
851.30	228.48
851.61	228.50
851.92	228.55
852.23	228.60
852.55	228.60
852.86	228.62
853.17	228.62
853.49	228.66
853.80	228.81
854.11	228.89
854.42	228.89
854.74	229.03
855.05	229.00
855.36	228.89
855.67	228.81
855.99	228.73
856.30	228.93
856.61	228.93
856.92	228.91
857.23	228.89
857.55	228.81
857.86	228.83
858.17	228.85
858.48	228.80
858.79	228.75
859.11	228.79
859.42	228.76
859.73	228.77
860.04	228.88
860.35	228.78
860.66	228.74
860.98	228.75
861.29	228.65
861.60	228.64
861.91	228.70
862.22	228.79
862.53	228.75
862.84	228.45
863.16	228.49
863.47	228.42
863.78	228.38
864.09	228.47
864.40	228.50
864.71	228.46
865.02	228.53
865.33	228.43
865.64	228.26
865.95	228.21
866.27	228.32
866.58	228.26
866.89	228.27
867.20	228.21
867.51	228.24
867.82	228.22
868.13	228.33
868.44	228.18
868.75	228.10
869.06	228.16
869.37	228.18
869.68	228.25
869.99	228.29
870.30	228.38
870.61	228.43
870.92	228.28
871.23	228.32
871.54	228.38
871.85	228.50
872.16	228.57
872.47	228.61
872.78	228.44
873.09	228.54
873.40	228.58
873.71	228.65
874.02	228.63
874.33	228.60
874.64	228.57
874.95	228.64
875.26	228.73
875.56	228.86
875.87	228.94
876.18	228.76
876.49	228.93
876.80	228.84
877.11	228.76
877.42	228.86
877.73	228.92
878.04	228.84
878.35	228.78
878.66	228.84
878.96	228.85
879.27	228.98
879.58	228.97
879.89	228.98
880.20	229.04
880.51	229.10
880.82	229.20
881.12	229.20
881.43	229.10
881.74	229.11
882.05	229.00
882.36	228.97
882.67	229.12
882.97	229.03
883.28	229.13
883.59	229.11
883.90	229.21
884.21	229.19
884.51	229.19
884.82	229.30
885.13	229.33
885.44	229.29
885.74	229.15
886.05	229.06
886.36	229.00
886.67	228.87
886.98	228.88
887.28	228.77
887.59	228.78
887.90	228.90
888.20	228.79
888.51	228.80
888.82	228.80
889.13	228.80
889.43	228.89
889.74	228.87
890.05	228.86
890.35	228.79
890.66	228.78
890.97	228.72
891.28	228.66
891.58	228.60
891.89	228.60
892.20	228.63
892.50	228.59
892.81	228.60
893.12	228.64
893.42	228.72
893.73	228.74
894.04	228.65
894.34	228.51
894.65	228.60
894.95	228.49
895.26	228.54
895.57	228.56
895.87	228.38
896.18	228.35
896.48	228.36
896.79	228.33
897.10	228.31
897.40	228.27
897.71	228.25
898.01	228.21
898.32	228.27
898.63	228.22
898.93	228.25
899.24	228.28
899.54	228.19
899.85	228.00
900.15	228.09
900.46	227.96
900.76	228.00
901.07	227.87
901.38	227.97
901.68	227.93
901.99	227.85
902.29	227.84
902.60	227.80
902.90	227.66
903.21	227.61
903.51	227.61
903.82	227.72
904.12	227.76
904.43	227.79
904.73	227.63
905.03	227.66
905.34	227.88
905.64	227.84
905.95	227.86
906.25	227.84
906.56	227.79
906.86	227.94
907.17	227.95
907.47	227.99
907.77	227.95
908.08	227.92
908.38	227.99
908.69	227.89
908.99	227.92
909.30	228.06
909.60	228.07
909.90	228.12
910.21	227.99
910.51	227.91
910.81	227.85
911.12	227.95
911.42	227.97
911.73	227.69
912.03	227.69
912.33	227.74
912.64	227.81
912.94	227.77
913.24	227.76
913.55	227.68
913.85	227.69
914.15	227.79
914.46	227.80
914.76	227.74
915.06	227.91
915.37	227.88
915.67	227.79
915.97	227.88
916.27	227.87
916.58	228.05
916.88	228.01
917.18	228.03
917.49	228.28
917.79	228.24
918.09	228.35
918.39	228.47
918.70	228.41
919.00	228.32
919.30	228.43
919.60	228.38
919.91	228.47
920.21	228.49
920.51	228.33
920.81	228.36
921.12	228.46
921.42	228.40
921.72	228.44
922.02	228.54
922.32	228.50
922.63	228.42
922.93	228.36
923.23	228.36
923.53	228.45
923.83	228.15
924.13	228.20
924.44	228.15
924.74	228.14
925.04	228.29
925.34	228.46
925.64	228.46
925.94	228.58
926.24	228.65
926.55	228.69
926.85	228.77
927.15	228.68
927.45	228.54
927.75	228.61
928.05	228.62
928.35	228.59
928.65	228.61
928.95	228.73
929.26	228.74
929.56	228.78
929.86	228.73
930.16	228.77
930.46	228.70
930.76	228.74
931.06	228.68
931.36	228.49
931.66	228.40
931.96	228.31
932.26	228.21
932.56	228.15
932.86	228.15
933.16	228.18
933.46	228.28
933.76	228.30
934.06	228.26
934.36	228.38
934.66	228.29
934.96	228.29
935.26	228.24
935.56	228.19
935.86	228.17
936.16	228.10
936.46	228.15
936.76	228.11
937.06	228.04
937.36	228.00
937.66	228.01
937.96	227.92
938.26	227.82
938.56	227.84
938.86	227.88
939.16	227.89
939.46	227.80
939.76	227.63
940.06	227.62
940.35	227.59
940.65	227.37
940.95	227.47
941.25	227.46
941.55	227.40
941.85	227.36
942.15	227.35
942.45	227.44
942.75	227.35
943.04	227.40
943.34	227.45
943.64	227.45
943.94	227.48
944.24	227.54
944.54	227.61
944.84	227.65
945.13	227.50
945.43	227.39
945.73	227.41
946.03	227.49
946.33	227.48
946.62	227.50
946.92	227.52
947.22	227.47
947.52	227.49
947.82	227.55
948.11	227.56
948.41	227.66
948.71	227.46
949.01	227.56
949.31	227.59
949.60	227.67
949.90	227.66
950.20	227.74
950.50	227.72
950.79	227.58
951.09	227.62
951.39	227.68
951.69	227.75
951.98	227.88
952.28	227.90
952.58	227.80
952.87	227.80
953.17	227.92
953.47	227.96
953.76	227.97
954.06	227.99
954.36	227.99
954.66	227.98
954.95	228.23
955.25	228.21
955.55	228.24
955.84	228.19
956.14	228.25
956.44	228.27
956.73	228.33
957.03	228.49
957.32	228.45
957.62	228.57
957.92	228.56
958.21	228.48
958.51	228.69
958.81	228.82
959.10	228.87
959.40	228.94
959.69	228.98
959.99	229.00
960.29	228.94
960.58	228.98
960.88	228.97
961.17	228.93
961.47	229.01
961.76	228.90
962.06	228.93
962.36	228.94
962.65	228.91
962.95	228.89
963.24	228.86
963.54	228.98
963.83	228.90
964.13	228.95
964.42	228.97
964.72	228.86
965.01	228.79
965.31	228.87
965.60	228.69
965.90	228.80
966.19	228.71
966.49	228.69
966.78	228.67
967.08	228.76
967.37	228.71
967.67	228.61
967.96	228.70
968.26	228.71
968.55	228.67
968.85	228.59
969.14	228.61
969.43	228.61
969.73	228.43
970.02	228.39
970.32	228.36
970.61	228.27
970.91	228.18
971.20	228.25
971.49	228.05
971.79	228.04
972.08	227.73
972.38	227.74
972.67	227.79
972.96	227.78
973.26	227.57
973.55	227.51
973.85	227.50
974.14	227.56
974.43	227.41
974.73	227.39
975.02	227.45
975.31	227.45
975.61	227.37
975.90	227.40
976.19	227.38
976.49	227.39
976.78	227.29
977.07	227.26
977.37	227.20
977.66	227.32
977.95	227.33
978.24	227.41
978.54	227.50
978.83	227.49
979.12	227.48
979.42	227.56
979.71	227.60
980.00	227.59
980.29	227.49
980.59	227.55
980.88	227.60
981.17	227.60
981.46	227.58
981.76	227.67
982.05	227.71
982.34	227.80
982.63	227.74
982.93	227.88
983.22	227.90
983.51	227.96
983.80	227.93
984.09	228.00
984.39	228.03
984.68	227.95
984.97	227.96
985.26	228.05
985.55	228.10
985.85	228.20
986.14	228.18
986.43	228.20
986.72	228.11
987.01	228.06
987.30	228.03
987.59	228.04
987.89	228.15
988.18	228.10
988.47	228.03
988.76	228.06
989.05	228.11
989.34	228.05
989.63	228.15
989.92	228.10
990.22	228.07
990.51	228.13
990.80	228.22
991.09	228.23
991.38	228.33
991.67	228.34
991.96	228.26
992.25	228.40
992.54	228.46
992.83	228.53
993.12	228.60
993.41	228.67
993.70	228.86
993.99	228.87
994.28	228.97
994.58	229.08
994.87	229.21
995.16	229.14
995.45	229.30
995.74	229.23
996.03	229.34
996.32	229.45
996.61	229.46
996.90	229.46
997.19	229.51
997.48	229.41
997.77	229.38
998.06	229.42
998.34	229.32
998.63	229.32
998.92	229.49
999.21	229.51
999.50	229.52
999.79	229.35
1000.08	229.27
1000.37	229.26
1000.66	229.26
1000.95	229.23
1001.24	229.31
1001.53	229.25
1001.82	229.19
1002.11	229.15
1002.40	229.06
1002.68	229.03
1002.97	229.18
1003.26	229.07
1003.55	229.17
1003.84	229.06
1004.13	229.07
1004.42	229.19
1004.71	229.20
1004.99	229.10
1005.28	229.10
1005.57	228.98
1005.86	228.88
1006.15	228.84
1006.44	228.72
1006.72	228.65
1007.01	228.50
1007.30	228.43
1007.59	228.43
1007.88	228.34
1008.17	228.27
1008.45	228.18
1008.74	228.09
1009.03	227.85
1009.32	227.86
1009.60	227.70
1009.89	227.70
1010.18	227.57
1010.47	227.49
1010.76	227.41
1011.04	227.38
1011.33	227.58
1011.62	227.69
1011.91	227.74
1012.19	227.69
1012.48	227.70
1012.77	227.72
1013.05	227.76
1013.34	227.81
1013.63	227.83
1013.92	227.88
1014.20	227.84
1014.49	227.91
1014.78	227.95
1015.06	227.97
1015.35	227.93
1015.64	227.98
1015.92	228.09
1016.21	228.18
1016.50	228.14
1016.78	228.16
1017.07	228.21
1017.36	227.95
1017.64	227.83
1017.93	227.92
1018.22	228.00
1018.50	227.99
1018.79	228.05
1019.08	228.04
1019.36	227.94
1019.65	227.94
1019.93	228.06
1020.22	228.19
1020.51	228.34
1020.79	228.26
1021.08	227.90
1021.36	227.10
1021.65	229.40
1021.94	227.80
1022.22	226.90
1022.51	228.90
1022.79	229.90
1023.08	229.50
1023.36	230.90
1023.65	225.60
>>>>>End Processed Spectral Data<<<<<
