SpectraSuite Data File
++++++++++++++++++++++++++++++++++++
Date: Fri Feb 01 14:39:42 EST 2013
User: group
Dark Spectrum Present: No
Reference Spectrum Present: No
Number of Sampled Component Spectra: 1
Spectrometers: USB2E7196
Integration Time (usec): 70000 (USB2E7196)
Spectra Averaged: 10 (USB2E7196)
Boxcar Smoothing: 10 (USB2E7196)
Correct for Electrical Dark: No (USB2E7196)
Strobe/Lamp Enabled: No (USB2E7196)
Correct for Detector Non-linearity: No (USB2E7196)
Correct for Stray Light: No (USB2E7196)
Number of Pixels in Processed Spectrum: 2048
>>>>>Begin Processed Spectral Data<<<<<
339.09	0.00
339.48	215.60
339.86	218.50
340.24	220.70
340.63	220.80
341.01	224.80
341.39	222.90
341.78	225.30
342.16	226.10
342.54	227.00
342.93	215.07
343.31	225.92
343.69	226.50
344.07	226.82
344.46	227.16
344.84	227.57
345.22	227.77
345.60	228.10
345.99	228.29
346.37	228.40
346.75	228.49
347.13	228.53
347.52	228.62
347.90	228.72
348.28	228.60
348.66	228.72
349.05	228.57
349.43	228.70
349.81	228.79
350.19	228.95
350.57	229.00
350.96	229.16
351.34	229.24
351.72	229.36
352.10	229.60
352.48	229.68
352.87	229.74
353.25	229.67
353.63	229.65
354.01	229.65
354.39	229.74
354.77	229.90
355.15	229.96
355.54	229.99
355.92	229.94
356.30	230.08
356.68	230.25
357.06	230.28
357.44	230.27
357.82	230.26
358.20	230.28
358.58	230.21
358.97	230.09
359.35	230.19
359.73	230.19
360.11	230.12
360.49	230.17
360.87	230.15
361.25	230.35
361.63	230.54
362.01	230.54
362.39	230.40
362.77	230.34
363.15	230.42
363.53	230.30
363.91	230.30
364.29	230.22
364.67	230.08
365.05	230.10
365.43	230.06
365.81	230.08
366.19	230.05
366.57	230.17
366.95	230.18
367.33	230.09
367.71	230.09
368.09	230.18
368.47	230.17
368.85	230.14
369.23	230.09
369.61	229.88
369.99	229.94
370.37	230.03
370.75	230.04
371.13	229.87
371.51	229.96
371.89	229.93
372.27	229.95
372.65	229.77
373.03	229.72
373.41	229.76
373.78	229.73
374.16	229.61
374.54	229.42
374.92	229.30
375.30	229.20
375.68	229.06
376.06	228.95
376.44	228.90
376.82	228.71
377.19	228.59
377.57	228.50
377.95	228.41
378.33	228.34
378.71	228.23
379.09	228.17
379.47	228.04
379.84	227.95
380.22	227.87
380.60	227.88
380.98	227.64
381.36	227.36
381.73	227.13
382.11	227.12
382.49	227.09
382.87	227.01
383.25	226.93
383.62	227.10
384.00	227.00
384.38	226.97
384.76	227.01
385.13	227.03
385.51	226.98
385.89	226.89
386.27	226.82
386.64	226.70
387.02	226.77
387.40	226.72
387.78	226.72
388.15	226.62
388.53	226.59
388.91	226.67
389.29	226.76
389.66	226.84
390.04	226.80
390.42	226.89
390.79	226.85
391.17	226.90
391.55	226.70
391.92	226.66
392.30	226.62
392.68	226.56
393.05	226.65
393.43	226.67
393.81	226.77
394.18	226.83
394.56	226.92
394.94	226.89
395.31	226.95
395.69	226.99
396.06	227.11
396.44	227.28
396.82	227.39
397.19	227.53
397.57	227.58
397.95	227.68
398.32	227.65
398.70	227.93
399.07	228.00
399.45	227.97
399.82	228.07
400.20	228.21
400.58	228.34
400.95	228.30
401.33	228.50
401.70	228.65
402.08	228.73
402.45	228.86
402.83	229.00
403.20	229.21
403.58	229.35
403.95	229.51
404.33	229.63
404.71	229.86
405.08	230.04
405.46	230.29
405.83	230.50
406.21	230.69
406.58	230.81
406.96	231.08
407.33	231.41
407.70	231.59
408.08	231.86
408.45	232.15
408.83	232.37
409.20	232.46
409.58	232.57
409.95	232.86
410.33	233.14
410.70	233.39
411.08	233.63
411.45	233.93
411.82	234.16
412.20	234.35
412.57	234.70
412.95	234.96
413.32	235.41
413.69	235.81
414.07	236.27
414.44	236.64
414.82	237.00
415.19	237.44
415.56	237.98
415.94	238.30
416.31	238.88
416.68	239.49
417.06	240.22
417.43	240.88
417.81	241.57
418.18	242.30
418.55	243.13
418.93	243.99
419.30	244.87
419.67	245.76
420.04	246.66
420.42	247.67
420.79	249.01
421.16	250.03
421.54	251.15
421.91	252.35
422.28	253.64
422.66	254.96
423.03	256.40
423.40	257.76
423.77	259.27
424.15	260.67
424.52	262.20
424.89	263.86
425.26	265.42
425.64	266.87
426.01	268.54
426.38	270.12
426.75	271.83
427.13	273.67
427.50	275.58
427.87	277.59
428.24	279.36
428.61	281.01
428.99	283.01
429.36	285.11
429.73	287.16
430.10	289.30
430.47	291.58
430.85	293.67
431.22	296.07
431.59	298.63
431.96	301.01
432.33	303.52
432.70	306.09
433.08	309.04
433.45	311.84
433.82	314.60
434.19	317.53
434.56	320.52
434.93	323.31
435.30	326.12
435.68	329.15
436.05	332.23
436.42	335.26
436.79	338.00
437.16	341.00
437.53	344.05
437.90	347.07
438.27	349.92
438.64	353.06
439.01	355.95
439.38	358.37
439.75	360.73
440.13	363.56
440.50	366.09
440.87	368.19
441.24	370.48
441.61	372.80
441.98	374.63
442.35	376.69
442.72	378.73
443.09	380.74
443.46	382.11
443.83	382.87
444.20	383.42
444.57	384.53
444.94	384.87
445.31	385.42
445.68	386.21
446.05	386.49
446.42	386.15
446.79	385.91
447.16	385.64
447.53	385.56
447.90	384.45
448.27	383.41
448.64	381.95
449.01	380.81
449.37	378.95
449.74	377.10
450.11	374.90
450.48	372.53
450.85	370.03
451.22	367.90
451.59	365.91
451.96	364.04
452.33	361.29
452.70	358.97
453.07	356.09
453.43	352.92
453.80	350.07
454.17	347.33
454.54	344.60
454.91	341.74
455.28	338.91
455.65	336.33
456.02	333.90
456.38	331.55
456.75	328.82
457.12	326.42
457.49	324.22
457.86	321.88
458.23	319.88
458.59	317.62
458.96	315.28
459.33	313.27
459.70	311.29
460.07	309.79
460.43	307.94
460.80	306.16
461.17	304.65
461.54	303.05
461.91	301.50
462.27	300.00
462.64	298.51
463.01	297.05
463.38	295.71
463.74	294.03
464.11	292.80
464.48	291.58
464.85	290.26
465.21	289.18
465.58	288.11
465.95	286.77
466.32	285.81
466.68	284.72
467.05	283.66
467.42	282.50
467.78	281.42
468.15	280.47
468.52	279.68
468.88	278.46
469.25	277.57
469.62	276.82
469.98	275.87
470.35	275.17
470.72	274.28
471.08	273.32
471.45	272.64
471.82	271.86
472.18	271.07
472.55	270.42
472.92	269.76
473.28	268.97
473.65	268.34
474.02	267.71
474.38	267.25
474.75	266.73
475.11	266.36
475.48	265.83
475.85	265.39
476.21	264.95
476.58	264.59
476.94	264.19
477.31	263.71
477.67	263.28
478.04	262.88
478.41	262.41
478.77	262.30
479.14	261.78
479.50	261.46
479.87	261.31
480.23	261.02
480.60	260.69
480.96	260.56
481.33	260.41
481.69	260.17
482.06	259.92
482.42	259.77
482.79	259.51
483.15	259.32
483.52	259.25
483.88	259.05
484.25	258.86
484.61	258.68
484.98	258.64
485.34	258.70
485.71	258.75
486.07	259.04
486.44	259.00
486.80	259.09
487.17	259.14
487.53	259.11
487.90	259.24
488.26	259.40
488.62	259.52
488.99	259.68
489.35	259.81
489.72	259.90
490.08	259.96
490.44	260.17
490.81	260.29
491.17	260.31
491.54	260.63
491.90	261.00
492.26	261.29
492.63	261.52
492.99	261.68
493.36	261.91
493.72	262.02
494.08	262.30
494.45	262.74
494.81	263.10
495.17	263.49
495.54	264.06
495.90	264.42
496.26	264.89
496.63	265.35
496.99	265.95
497.35	266.63
497.72	267.25
498.08	267.79
498.44	268.41
498.80	269.16
499.17	269.78
499.53	270.38
499.89	271.17
500.26	272.01
500.62	272.80
500.98	273.77
501.34	274.84
501.71	275.83
502.07	276.91
502.43	278.01
502.79	279.07
503.16	280.03
503.52	281.39
503.88	282.68
504.24	284.05
504.60	285.34
504.97	286.74
505.33	288.33
505.69	289.87
506.05	291.44
506.41	293.08
506.78	294.86
507.14	296.60
507.50	298.44
507.86	300.40
508.22	302.52
508.59	304.56
508.95	306.75
509.31	309.14
509.67	311.43
510.03	313.98
510.39	316.52
510.75	319.18
511.12	321.63
511.48	324.43
511.84	327.10
512.20	329.99
512.56	332.96
512.92	336.11
513.28	339.36
513.64	342.85
514.00	346.42
514.37	349.84
514.73	353.57
515.09	357.40
515.45	361.20
515.81	365.03
516.17	368.90
516.53	372.80
516.89	376.83
517.25	381.30
517.61	385.57
517.97	390.01
518.33	394.59
518.69	399.24
519.05	403.99
519.41	408.99
519.77	414.29
520.13	419.39
520.49	424.47
520.85	429.83
521.21	435.40
521.57	440.99
521.93	446.62
522.29	452.47
522.65	458.15
523.01	464.06
523.37	470.00
523.73	476.28
524.09	482.60
524.45	488.76
524.81	495.03
525.17	501.87
525.53	508.73
525.89	515.46
526.25	522.45
526.61	529.11
526.97	536.20
527.33	543.11
527.68	550.62
528.04	557.78
528.40	565.19
528.76	572.56
529.12	580.07
529.48	587.72
529.84	595.15
530.20	603.19
530.56	611.39
530.91	619.65
531.27	627.87
531.63	635.76
531.99	643.94
532.35	652.08
532.71	659.73
533.07	667.84
533.42	676.43
533.78	684.78
534.14	693.46
534.50	701.89
534.86	710.57
535.21	718.94
535.57	727.68
535.93	736.26
536.29	745.02
536.65	753.68
537.00	762.60
537.36	771.71
537.72	780.35
538.08	788.72
538.44	797.02
538.79	805.42
539.15	814.28
539.51	823.08
539.87	831.90
540.22	841.08
540.58	849.95
540.94	858.65
541.29	867.33
541.65	876.06
542.01	885.12
542.37	893.81
542.72	902.42
543.08	911.01
543.44	919.84
543.79	928.09
544.15	936.63
544.51	945.30
544.87	953.74
545.22	962.15
545.58	970.74
545.94	978.91
546.29	987.44
546.65	995.82
547.01	1003.96
547.36	1012.17
547.72	1019.82
548.07	1027.73
548.43	1035.14
548.79	1042.73
549.14	1050.36
549.50	1057.52
549.86	1064.76
550.21	1072.26
550.57	1079.92
550.92	1087.11
551.28	1094.25
551.64	1101.25
551.99	1108.02
552.35	1114.78
552.70	1121.60
553.06	1128.48
553.41	1135.92
553.77	1142.60
554.13	1149.14
554.48	1155.81
554.84	1162.35
555.19	1169.00
555.55	1175.55
555.90	1181.84
556.26	1188.56
556.61	1194.68
556.97	1200.39
557.32	1206.52
557.68	1212.23
558.03	1217.83
558.39	1223.58
558.74	1229.72
559.10	1235.57
559.45	1241.43
559.81	1247.61
560.16	1253.05
560.52	1258.05
560.87	1263.59
561.23	1268.37
561.58	1273.66
561.94	1278.47
562.29	1282.84
562.64	1287.42
563.00	1292.00
563.35	1297.40
563.71	1301.87
564.06	1306.95
564.42	1311.89
564.77	1316.68
565.12	1321.22
565.48	1326.17
565.83	1330.10
566.19	1334.43
566.54	1338.10
566.89	1341.72
567.25	1345.17
567.60	1349.38
567.96	1353.56
568.31	1356.53
568.66	1360.30
569.02	1363.77
569.37	1367.24
569.72	1370.79
570.08	1373.85
570.43	1376.78
570.78	1379.10
571.14	1381.67
571.49	1384.09
571.84	1386.93
572.20	1388.76
572.55	1390.80
572.90	1392.16
573.26	1394.14
573.61	1395.50
573.96	1396.98
574.31	1397.91
574.67	1398.81
575.02	1399.59
575.37	1400.12
575.72	1400.69
576.08	1401.42
576.43	1401.69
576.78	1402.17
577.13	1402.85
577.49	1403.48
577.84	1403.90
578.19	1403.79
578.54	1403.69
578.90	1402.89
579.25	1402.10
579.60	1401.85
579.95	1401.07
580.30	1400.31
580.66	1399.48
581.01	1398.36
581.36	1397.74
581.71	1397.26
582.06	1396.39
582.42	1395.00
582.77	1393.82
583.12	1393.10
583.47	1391.96
583.82	1391.10
584.17	1389.83
584.53	1388.11
584.88	1386.95
585.23	1385.18
585.58	1384.15
585.93	1382.94
586.28	1382.12
586.63	1380.80
586.98	1379.18
587.34	1378.09
587.69	1376.64
588.04	1375.30
588.39	1373.98
588.74	1371.65
589.09	1369.93
589.44	1367.53
589.79	1365.59
590.14	1364.01
590.49	1362.03
590.84	1359.99
591.19	1357.79
591.54	1355.10
591.89	1352.12
592.25	1349.50
592.60	1346.77
592.95	1343.97
593.30	1341.05
593.65	1337.87
594.00	1334.84
594.35	1332.55
594.70	1329.24
595.05	1326.34
595.40	1322.97
595.75	1319.58
596.10	1316.99
596.45	1313.96
596.80	1311.89
597.15	1309.22
597.50	1305.99
597.85	1302.95
598.19	1300.21
598.54	1297.46
598.89	1294.75
599.24	1292.90
599.59	1289.92
599.94	1287.36
600.29	1284.06
600.64	1280.71
600.99	1277.26
601.34	1274.23
601.69	1270.42
602.04	1267.30
602.39	1263.95
602.74	1261.38
603.08	1258.79
603.43	1255.98
603.78	1252.66
604.13	1248.99
604.48	1245.29
604.83	1242.06
605.18	1238.86
605.53	1234.59
605.87	1229.96
606.22	1226.30
606.57	1221.99
606.92	1218.24
607.27	1214.55
607.62	1211.38
607.96	1208.30
608.31	1204.89
608.66	1200.77
609.01	1196.51
609.36	1192.10
609.70	1187.58
610.05	1182.74
610.40	1178.24
610.75	1173.59
611.10	1169.16
611.44	1164.34
611.79	1160.18
612.14	1155.54
612.49	1150.30
612.83	1145.79
613.18	1141.61
613.53	1137.03
613.88	1132.00
614.22	1127.10
614.57	1121.54
614.92	1116.63
615.27	1111.78
615.61	1106.97
615.96	1102.25
616.31	1098.34
616.65	1094.75
617.00	1090.87
617.35	1086.23
617.70	1081.38
618.04	1076.74
618.39	1072.16
618.74	1068.00
619.08	1063.25
619.43	1058.47
619.78	1053.93
620.12	1049.74
620.47	1045.34
620.82	1040.62
621.16	1036.66
621.51	1032.37
621.85	1028.36
622.20	1023.36
622.55	1018.74
622.89	1014.53
623.24	1010.64
623.59	1005.92
623.93	1001.10
624.28	996.60
624.62	992.49
624.97	988.35
625.32	984.06
625.66	979.79
626.01	975.31
626.35	970.83
626.70	966.58
627.04	962.55
627.39	957.64
627.73	952.93
628.08	948.51
628.43	943.71
628.77	939.10
629.12	934.33
629.46	930.20
629.81	925.17
630.15	920.08
630.50	915.06
630.84	910.10
631.19	905.05
631.53	900.06
631.88	895.01
632.22	889.90
632.57	885.37
632.91	880.60
633.26	875.50
633.60	870.82
633.95	866.20
634.29	861.57
634.64	857.27
634.98	852.80
635.32	848.46
635.67	844.39
636.01	839.93
636.36	835.69
636.70	831.48
637.05	827.53
637.39	823.59
637.73	819.47
638.08	815.90
638.42	812.01
638.77	808.21
639.11	804.30
639.45	800.49
639.80	796.20
640.14	792.08
640.49	788.29
640.83	784.26
641.17	780.30
641.52	776.18
641.86	772.20
642.20	768.30
642.55	764.43
642.89	760.24
643.23	756.17
643.58	752.51
643.92	748.07
644.26	744.04
644.61	740.12
644.95	736.03
645.29	731.33
645.64	727.38
645.98	723.28
646.32	719.46
646.66	715.38
647.01	711.31
647.35	707.48
647.69	703.58
648.04	699.78
648.38	695.88
648.72	691.64
649.06	687.48
649.41	683.46
649.75	679.26
650.09	675.20
650.43	671.08
650.78	666.92
651.12	662.95
651.46	659.11
651.80	655.18
652.14	651.53
652.49	648.04
652.83	644.19
653.17	640.30
653.51	636.40
653.85	632.61
654.20	628.99
654.54	625.08
654.88	621.30
655.22	617.42
655.56	613.59
655.90	609.95
656.25	606.60
656.59	602.99
656.93	599.29
657.27	595.98
657.61	592.53
657.95	589.11
658.29	585.99
658.64	582.48
658.98	579.02
659.32	575.28
659.66	571.76
660.00	568.30
660.34	564.76
660.68	561.32
661.02	557.91
661.36	554.76
661.70	551.56
662.05	548.58
662.39	545.56
662.73	542.47
663.07	539.70
663.41	536.67
663.75	533.69
664.09	530.76
664.43	527.60
664.77	524.85
665.11	521.95
665.45	518.96
665.79	516.14
666.13	513.28
666.47	510.75
666.81	507.86
667.15	504.90
667.49	502.36
667.83	499.74
668.17	497.06
668.51	494.12
668.85	491.28
669.19	488.69
669.53	486.12
669.87	483.27
670.21	480.84
670.55	478.23
670.89	475.94
671.23	473.74
671.57	471.35
671.91	468.85
672.25	466.45
672.58	464.17
672.92	461.72
673.26	459.49
673.60	457.15
673.94	455.07
674.28	453.04
674.62	450.91
674.96	448.90
675.30	447.00
675.64	445.13
675.97	443.19
676.31	441.01
676.65	438.94
676.99	437.16
677.33	434.97
677.67	432.99
678.01	430.78
678.34	428.70
678.68	426.63
679.02	424.75
679.36	422.92
679.70	421.05
680.04	419.23
680.37	417.22
680.71	415.36
681.05	413.59
681.39	411.88
681.73	409.88
682.06	408.00
682.40	406.28
682.74	404.44
683.08	402.80
683.42	401.02
683.75	399.38
684.09	397.55
684.43	395.80
684.77	394.13
685.10	392.61
685.44	390.98
685.78	389.39
686.12	387.77
686.45	385.83
686.79	384.21
687.13	382.60
687.46	380.87
687.80	379.22
688.14	377.37
688.48	375.65
688.81	374.01
689.15	372.42
689.49	370.64
689.82	369.10
690.16	367.41
690.50	365.95
690.83	364.32
691.17	362.77
691.51	361.25
691.84	359.85
692.18	358.28
692.52	356.74
692.85	355.42
693.19	354.03
693.52	352.68
693.86	351.18
694.20	349.70
694.53	348.50
694.87	347.06
695.21	345.69
695.54	344.33
695.88	343.04
696.21	341.64
696.55	340.33
696.88	339.00
697.22	337.75
697.56	336.56
697.89	335.30
698.23	334.09
698.56	332.89
698.90	331.52
699.23	330.03
699.57	328.70
699.90	327.39
700.24	326.03
700.58	324.77
700.91	323.59
701.25	322.56
701.58	321.35
701.92	320.16
702.25	319.21
702.59	318.11
702.92	317.17
703.26	316.15
703.59	315.08
703.93	314.20
704.26	313.16
704.60	311.91
704.93	311.03
705.26	309.98
705.60	309.04
705.93	308.15
706.27	307.41
706.60	306.59
706.94	305.84
707.27	304.91
707.61	304.05
707.94	303.18
708.27	302.23
708.61	301.35
708.94	300.59
709.28	299.74
709.61	298.95
709.94	298.11
710.28	297.35
710.61	296.62
710.95	295.56
711.28	294.93
711.61	294.26
711.95	293.36
712.28	292.63
712.61	291.78
712.95	291.09
713.28	290.40
713.61	289.78
713.95	289.01
714.28	288.40
714.61	287.82
714.95	287.27
715.28	286.57
715.61	285.86
715.95	285.35
716.28	284.72
716.61	284.20
716.95	283.56
717.28	282.95
717.61	282.41
717.94	281.97
718.28	281.31
718.61	280.80
718.94	280.29
719.27	279.71
719.61	279.29
719.94	278.80
720.27	278.17
720.60	277.68
720.94	277.12
721.27	276.64
721.60	276.21
721.93	275.47
722.27	275.09
722.60	274.75
722.93	274.19
723.26	273.78
723.59	273.18
723.93	272.74
724.26	272.24
724.59	271.90
724.92	271.56
725.25	271.23
725.59	270.77
725.92	270.31
726.25	270.00
726.58	269.49
726.91	269.02
727.24	268.76
727.57	268.32
727.91	267.84
728.24	267.43
728.57	267.01
728.90	266.79
729.23	266.25
729.56	265.89
729.89	265.44
730.22	264.98
730.55	264.73
730.89	264.31
731.22	264.10
731.55	263.56
731.88	263.05
732.21	262.53
732.54	262.10
732.87	261.78
733.20	261.32
733.53	261.09
733.86	260.75
734.19	260.21
734.52	259.81
734.85	259.68
735.18	259.31
735.51	258.90
735.84	258.63
736.17	258.42
736.50	257.93
736.83	257.87
737.16	257.58
737.49	257.10
737.82	256.79
738.15	256.33
738.48	256.09
738.81	255.74
739.14	255.44
739.47	255.12
739.80	254.89
740.13	254.69
740.46	254.28
740.79	253.90
741.12	253.69
741.45	253.32
741.78	252.86
742.11	252.57
742.44	252.39
742.77	252.05
743.10	251.59
743.43	251.38
743.75	250.92
744.08	250.89
744.41	250.65
744.74	250.48
745.07	250.27
745.40	250.09
745.73	249.92
746.06	249.69
746.39	249.43
746.71	249.01
747.04	248.68
747.37	248.40
747.70	248.21
748.03	247.89
748.36	247.70
748.68	247.51
749.01	247.34
749.34	247.07
749.67	246.92
750.00	246.84
750.33	246.72
750.65	246.52
750.98	246.06
751.31	245.88
751.64	245.73
751.97	245.50
752.29	245.10
752.62	244.82
752.95	244.66
753.28	244.52
753.60	244.46
753.93	244.47
754.26	244.24
754.59	244.09
754.91	243.99
755.24	243.89
755.57	243.73
755.90	243.53
756.22	243.45
756.55	243.12
756.88	242.94
757.20	242.68
757.53	242.47
757.86	242.34
758.19	242.28
758.51	242.08
758.84	241.99
759.17	241.98
759.49	241.85
759.82	241.74
760.15	241.70
760.47	241.59
760.80	241.27
761.13	241.36
761.45	241.14
761.78	240.92
762.11	240.82
762.43	240.73
762.76	240.69
763.08	240.50
763.41	240.46
763.74	240.39
764.06	240.34
764.39	240.31
764.71	240.17
765.04	240.00
765.37	239.88
765.69	239.71
766.02	239.69
766.34	239.53
766.67	239.41
767.00	239.33
767.32	239.29
767.65	239.42
767.97	239.25
768.30	239.16
768.62	239.21
768.95	239.02
769.27	238.91
769.60	238.82
769.92	238.66
770.25	238.56
770.57	238.49
770.90	238.29
771.22	238.12
771.55	238.08
771.87	238.06
772.20	237.97
772.52	237.96
772.85	238.05
773.17	238.03
773.50	237.87
773.82	237.62
774.15	237.42
774.47	237.08
774.80	236.93
775.12	236.85
775.45	236.71
775.77	236.64
776.09	236.52
776.42	236.39
776.74	236.41
777.07	236.37
777.39	236.24
777.72	236.28
778.04	236.00
778.36	235.78
778.69	235.62
779.01	235.54
779.33	235.23
779.66	234.79
779.98	234.61
780.31	234.51
780.63	234.59
780.95	234.46
781.28	234.47
781.60	234.39
781.92	234.26
782.25	234.08
782.57	233.99
782.89	234.00
783.22	233.81
783.54	233.65
783.86	233.47
784.19	233.36
784.51	233.20
784.83	233.30
785.16	233.26
785.48	233.14
785.80	233.00
786.12	233.03
786.45	232.98
786.77	232.94
787.09	232.91
787.42	232.68
787.74	232.65
788.06	232.50
788.38	232.40
788.71	232.39
789.03	232.40
789.35	232.33
789.67	232.08
789.99	232.09
790.32	232.10
790.64	232.08
790.96	232.20
791.28	232.18
791.61	232.15
791.93	232.12
792.25	232.13
792.57	232.17
792.89	232.20
793.21	232.12
793.54	232.15
793.86	232.02
794.18	232.06
794.50	232.01
794.82	232.01
795.14	232.11
795.47	232.16
795.79	232.17
796.11	232.27
796.43	232.33
796.75	232.41
797.07	232.34
797.39	232.41
797.71	232.29
798.04	232.29
798.36	232.30
798.68	232.31
799.00	232.35
799.32	232.33
799.64	232.29
799.96	232.47
800.28	232.55
800.60	232.60
800.92	232.52
801.24	232.52
801.56	232.49
801.89	232.33
802.21	232.31
802.53	232.18
802.85	232.14
803.17	232.22
803.49	232.07
803.81	232.00
804.13	231.91
804.45	231.83
804.77	231.80
805.09	231.72
805.41	231.70
805.73	231.58
806.05	231.57
806.37	231.68
806.69	231.50
807.01	231.43
807.33	231.46
807.65	231.56
807.97	231.64
808.28	231.66
808.60	231.69
808.92	231.58
809.24	231.71
809.56	231.60
809.88	231.52
810.20	231.55
810.52	231.63
810.84	231.71
811.16	231.68
811.48	231.74
811.80	231.89
812.12	231.77
812.43	231.74
812.75	231.64
813.07	231.45
813.39	231.43
813.71	231.33
814.03	231.17
814.35	231.10
814.67	230.92
814.98	230.88
815.30	230.83
815.62	230.79
815.94	230.61
816.26	230.60
816.58	230.53
816.89	230.51
817.21	230.47
817.53	230.25
817.85	230.28
818.17	230.16
818.48	229.95
818.80	230.01
819.12	230.02
819.44	229.93
819.76	229.91
820.07	229.85
820.39	229.84
820.71	229.87
821.03	229.79
821.34	229.76
821.66	229.72
821.98	229.73
822.30	229.71
822.61	229.74
822.93	229.67
823.25	229.53
823.57	229.41
823.88	229.38
824.20	229.38
824.52	229.22
824.83	229.15
825.15	229.11
825.47	228.97
825.79	228.94
826.10	228.91
826.42	228.79
826.74	228.93
827.05	228.90
827.37	228.90
827.69	228.90
828.00	228.95
828.32	228.90
828.64	228.85
828.95	229.00
829.27	229.04
829.58	229.01
829.90	229.10
830.22	229.26
830.53	229.17
830.85	229.16
831.17	229.20
831.48	229.33
831.80	229.27
832.11	229.38
832.43	229.42
832.75	229.33
833.06	229.54
833.38	229.46
833.69	229.41
834.01	229.43
834.32	229.45
834.64	229.45
834.96	229.57
835.27	229.57
835.59	229.48
835.90	229.42
836.22	229.49
836.53	229.50
836.85	229.39
837.16	229.61
837.48	229.67
837.79	229.75
838.11	229.69
838.42	229.68
838.74	229.56
839.05	229.54
839.37	229.66
839.68	229.57
840.00	229.49
840.31	229.55
840.63	229.55
840.94	229.53
841.26	229.49
841.57	229.32
841.88	229.40
842.20	229.41
842.51	229.39
842.83	229.47
843.14	229.55
843.46	229.62
843.77	229.54
844.08	229.57
844.40	229.46
844.71	229.48
845.03	229.59
845.34	229.73
845.65	229.78
845.97	229.83
846.28	229.86
846.60	229.87
846.91	229.94
847.22	230.00
847.54	230.13
847.85	230.22
848.16	230.38
848.48	230.34
848.79	230.41
849.10	230.53
849.42	230.39
849.73	230.23
850.04	230.21
850.36	230.10
850.67	230.14
850.98	230.11
851.30	230.09
851.61	230.04
851.92	229.99
852.23	229.94
852.55	229.93
852.86	229.89
853.17	229.93
853.49	229.94
853.80	229.91
854.11	229.75
854.42	229.64
854.74	229.55
855.05	229.47
855.36	229.30
855.67	229.19
855.99	229.26
856.30	229.45
856.61	229.33
856.92	229.25
857.23	229.18
857.55	229.27
857.86	229.19
858.17	229.22
858.48	229.16
858.79	229.10
859.11	229.12
859.42	229.00
859.73	228.89
860.04	228.81
860.35	228.71
860.66	228.66
860.98	228.60
861.29	228.62
861.60	228.63
861.91	228.62
862.22	228.59
862.53	228.53
862.84	228.33
863.16	228.30
863.47	228.22
863.78	228.19
864.09	228.02
864.40	228.05
864.71	227.99
865.02	228.04
865.33	228.06
865.64	228.06
865.95	228.11
866.27	228.25
866.58	228.12
866.89	228.20
867.20	228.18
867.51	228.15
867.82	228.01
868.13	228.00
868.44	227.99
868.75	228.11
869.06	228.09
869.37	228.07
869.68	228.14
869.99	228.22
870.30	228.23
870.61	228.35
870.92	228.33
871.23	228.29
871.54	228.23
871.85	228.19
872.16	228.09
872.47	228.06
872.78	227.95
873.09	228.07
873.40	228.10
873.71	228.10
874.02	228.16
874.33	228.25
874.64	228.30
874.95	228.31
875.26	228.23
875.56	228.26
875.87	228.34
876.18	228.29
876.49	228.53
876.80	228.43
877.11	228.36
877.42	228.32
877.73	228.38
878.04	228.41
878.35	228.47
878.66	228.49
878.96	228.51
879.27	228.57
879.58	228.59
879.89	228.54
880.20	228.63
880.51	228.70
880.82	228.73
881.12	228.78
881.43	228.82
881.74	228.77
882.05	228.80
882.36	228.77
882.67	228.86
882.97	228.61
883.28	228.71
883.59	228.74
883.90	228.80
884.21	228.82
884.51	228.76
884.82	228.71
885.13	228.77
885.44	228.75
885.74	228.70
886.05	228.70
886.36	228.66
886.67	228.60
886.98	228.60
887.28	228.61
887.59	228.60
887.90	228.54
888.20	228.48
888.51	228.50
888.82	228.47
889.13	228.49
889.43	228.62
889.74	228.56
890.05	228.48
890.35	228.44
890.66	228.46
890.97	228.55
891.28	228.45
891.58	228.43
891.89	228.40
892.20	228.56
892.50	228.43
892.81	228.46
893.12	228.43
893.42	228.35
893.73	228.34
894.04	228.31
894.34	228.26
894.65	228.23
894.95	228.20
895.26	228.17
895.57	228.12
895.87	228.01
896.18	228.02
896.48	228.03
896.79	228.10
897.10	227.96
897.40	227.83
897.71	227.92
898.01	227.96
898.32	228.03
898.63	227.83
898.93	227.83
899.24	227.86
899.54	227.84
899.85	227.99
900.15	227.93
900.46	227.90
900.76	227.94
901.07	227.95
901.38	227.92
901.68	227.96
901.99	227.83
902.29	227.86
902.60	227.85
902.90	227.82
903.21	227.76
903.51	227.81
903.82	227.99
904.12	227.95
904.43	227.89
904.73	227.84
905.03	227.91
905.34	228.14
905.64	228.02
905.95	228.09
906.25	227.98
906.56	228.01
906.86	228.01
907.17	228.07
907.47	228.11
907.77	228.12
908.08	228.09
908.38	228.23
908.69	228.18
908.99	228.23
909.30	228.34
909.60	228.30
909.90	228.36
910.21	228.33
910.51	228.35
910.81	228.40
911.12	228.37
911.42	228.42
911.73	228.21
912.03	228.29
912.33	228.24
912.64	228.17
912.94	228.20
913.24	228.19
913.55	228.22
913.85	228.24
914.15	228.32
914.46	228.41
914.76	228.40
915.06	228.43
915.37	228.46
915.67	228.45
915.97	228.51
916.27	228.44
916.58	228.45
916.88	228.47
917.18	228.47
917.49	228.70
917.79	228.66
918.09	228.77
918.39	228.84
918.70	228.92
919.00	228.93
919.30	228.91
919.60	228.92
919.91	228.83
920.21	228.90
920.51	228.84
920.81	228.84
921.12	228.96
921.42	228.99
921.72	229.03
922.02	228.99
922.32	229.07
922.63	229.13
922.93	229.14
923.23	229.16
923.53	229.16
923.83	229.02
924.13	229.08
924.44	229.02
924.74	229.01
925.04	229.13
925.34	229.12
925.64	229.08
925.94	229.00
926.24	229.15
926.55	229.06
926.85	229.08
927.15	229.05
927.45	229.02
927.75	228.93
928.05	228.82
928.35	228.82
928.65	228.74
928.95	228.67
929.26	228.60
929.56	228.65
929.86	228.62
930.16	228.55
930.46	228.51
930.76	228.51
931.06	228.49
931.36	228.33
931.66	228.39
931.96	228.51
932.26	228.65
932.56	228.60
932.86	228.65
933.16	228.57
933.46	228.53
933.76	228.42
934.06	228.57
934.36	228.68
934.66	228.67
934.96	228.69
935.26	228.70
935.56	228.69
935.86	228.64
936.16	228.61
936.46	228.58
936.76	228.45
937.06	228.41
937.36	228.37
937.66	228.36
937.96	228.37
938.26	228.24
938.56	228.14
938.86	228.07
939.16	228.08
939.46	228.08
939.76	228.12
940.06	228.10
940.35	227.99
940.65	227.85
940.95	227.98
941.25	228.02
941.55	228.00
941.85	227.97
942.15	227.93
942.45	228.00
942.75	227.99
943.04	228.12
943.34	228.10
943.64	228.04
943.94	228.02
944.24	228.02
944.54	228.10
944.84	228.11
945.13	228.17
945.43	228.15
945.73	228.17
946.03	228.02
946.33	228.07
946.62	228.02
946.92	228.02
947.22	228.00
947.52	228.00
947.82	228.07
948.11	228.08
948.41	228.06
948.71	228.03
949.01	228.07
949.31	228.01
949.60	228.02
949.90	228.05
950.20	228.07
950.50	228.03
950.79	227.90
951.09	227.98
951.39	227.83
951.69	227.82
951.98	227.91
952.28	227.99
952.58	227.99
952.87	228.09
953.17	228.18
953.47	228.06
953.76	227.92
954.06	227.90
954.36	227.92
954.66	227.96
954.95	228.03
955.25	228.08
955.55	228.04
955.84	228.02
956.14	228.10
956.44	228.17
956.73	228.19
957.03	228.18
957.32	228.17
957.62	228.24
957.92	228.20
958.21	228.12
958.51	228.34
958.81	228.37
959.10	228.34
959.40	228.36
959.69	228.40
959.99	228.41
960.29	228.40
960.58	228.40
960.88	228.40
961.17	228.34
961.47	228.34
961.76	228.40
962.06	228.45
962.36	228.43
962.65	228.37
962.95	228.31
963.24	228.50
963.54	228.44
963.83	228.50
964.13	228.64
964.42	228.60
964.72	228.47
965.01	228.45
965.31	228.41
965.60	228.30
965.90	228.46
966.19	228.52
966.49	228.54
966.78	228.41
967.08	228.47
967.37	228.47
967.67	228.39
967.96	228.33
968.26	228.48
968.55	228.32
968.85	228.32
969.14	228.40
969.43	228.31
969.73	228.37
970.02	228.31
970.32	228.23
970.61	228.25
970.91	228.19
971.20	228.05
971.49	228.08
971.79	228.17
972.08	227.98
972.38	228.02
972.67	227.95
972.96	228.09
973.26	227.90
973.55	228.01
973.85	228.02
974.14	228.10
974.43	228.05
974.73	228.18
975.02	228.08
975.31	227.99
975.61	228.00
975.90	227.92
976.19	227.96
976.49	227.95
976.78	228.02
977.07	228.07
977.37	228.23
977.66	228.28
977.95	228.29
978.24	228.40
978.54	228.35
978.83	228.39
979.12	228.33
979.42	228.44
979.71	228.43
980.00	228.45
980.29	228.45
980.59	228.32
980.88	228.37
981.17	228.47
981.46	228.54
981.76	228.60
982.05	228.76
982.34	228.71
982.63	228.78
982.93	228.75
983.22	228.72
983.51	228.69
983.80	228.70
984.09	228.69
984.39	228.62
984.68	228.63
984.97	228.63
985.26	228.62
985.55	228.69
985.85	228.57
986.14	228.65
986.43	228.75
986.72	228.80
987.01	228.68
987.30	228.65
987.59	228.61
987.89	228.47
988.18	228.31
988.47	228.31
988.76	228.14
989.05	228.15
989.34	228.14
989.63	228.12
989.92	228.05
990.22	227.97
990.51	227.93
990.80	227.88
991.09	227.89
991.38	227.94
991.67	227.83
991.96	227.79
992.25	227.65
992.54	227.43
992.83	227.43
993.12	227.42
993.41	227.44
993.70	227.45
993.99	227.45
994.28	227.44
994.58	227.39
994.87	227.42
995.16	227.37
995.45	227.39
995.74	227.38
996.03	227.41
996.32	227.44
996.61	227.48
996.90	227.40
997.19	227.35
997.48	227.40
997.77	227.40
998.06	227.43
998.34	227.48
998.63	227.59
998.92	227.63
999.21	227.61
999.50	227.60
999.79	227.62
1000.08	227.66
1000.37	227.66
1000.66	227.72
1000.95	227.74
1001.24	227.66
1001.53	227.62
1001.82	227.60
1002.11	227.57
1002.40	227.62
1002.68	227.64
1002.97	227.88
1003.26	227.87
1003.55	227.77
1003.84	227.78
1004.13	227.91
1004.42	227.95
1004.71	227.97
1004.99	227.85
1005.28	227.87
1005.57	227.89
1005.86	227.87
1006.15	227.93
1006.44	227.99
1006.72	228.09
1007.01	228.14
1007.30	228.25
1007.59	228.17
1007.88	228.22
1008.17	228.19
1008.45	228.10
1008.74	228.13
1009.03	228.06
1009.32	228.10
1009.60	228.15
1009.89	228.22
1010.18	228.09
1010.47	228.10
1010.76	228.14
1011.04	228.25
1011.33	228.32
1011.62	228.32
1011.91	228.36
1012.19	228.35
1012.48	228.36
1012.77	228.32
1013.05	228.43
1013.34	228.52
1013.63	228.63
1013.92	228.73
1014.20	228.74
1014.49	228.75
1014.78	228.85
1015.06	228.70
1015.35	228.82
1015.64	228.87
1015.92	228.92
1016.21	228.98
1016.50	228.92
1016.78	228.85
1017.07	228.88
1017.36	228.80
1017.64	228.87
1017.93	228.87
1018.22	228.92
1018.50	228.90
1018.79	228.91
1019.08	228.84
1019.36	228.71
1019.65	228.59
1019.93	228.55
1020.22	228.63
1020.51	228.83
1020.79	228.73
1021.08	229.60
1021.36	227.70
1021.65	229.50
1021.94	228.70
1022.22	227.50
1022.51	226.90
1022.79	229.30
1023.08	229.00
1023.36	231.90
1023.65	228.60
>>>>>End Processed Spectral Data<<<<<
