SpectraSuite Data File
++++++++++++++++++++++++++++++++++++
Date: Fri Feb 01 14:42:09 EST 2013
User: group
Dark Spectrum Present: No
Reference Spectrum Present: No
Number of Sampled Component Spectra: 1
Spectrometers: USB2E7196
Integration Time (usec): 70000 (USB2E7196)
Spectra Averaged: 10 (USB2E7196)
Boxcar Smoothing: 10 (USB2E7196)
Correct for Electrical Dark: No (USB2E7196)
Strobe/Lamp Enabled: No (USB2E7196)
Correct for Detector Non-linearity: No (USB2E7196)
Correct for Stray Light: No (USB2E7196)
Number of Pixels in Processed Spectrum: 2048
>>>>>Begin Processed Spectral Data<<<<<
339.09	0.00
339.48	215.20
339.86	217.20
340.24	220.20
340.63	221.00
341.01	224.70
341.39	224.20
341.78	224.70
342.16	225.90
342.54	226.90
342.93	214.66
343.31	225.42
343.69	226.01
344.07	226.53
344.46	226.87
344.84	227.24
345.22	227.40
345.60	227.61
345.99	227.79
346.37	227.94
346.75	228.07
347.13	228.09
347.52	228.15
347.90	228.31
348.28	228.44
348.66	228.52
349.05	228.48
349.43	228.57
349.81	228.58
350.19	228.60
350.57	228.68
350.96	228.75
351.34	228.96
351.72	229.05
352.10	229.05
352.48	229.21
352.87	229.29
353.25	229.30
353.63	229.40
354.01	229.44
354.39	229.48
354.77	229.47
355.15	229.61
355.54	229.81
355.92	229.81
356.30	229.87
356.68	230.07
357.06	230.15
357.44	230.10
357.82	230.20
358.20	230.36
358.58	230.30
358.97	230.37
359.35	230.46
359.73	230.55
360.11	230.58
360.49	230.62
360.87	230.58
361.25	230.74
361.63	230.71
362.01	230.80
362.39	230.75
362.77	230.86
363.15	230.91
363.53	230.84
363.91	230.80
364.29	230.80
364.67	230.55
365.05	230.55
365.43	230.61
365.81	230.56
366.19	230.62
366.57	230.74
366.95	230.67
367.33	230.54
367.71	230.51
368.09	230.59
368.47	230.53
368.85	230.51
369.23	230.48
369.61	230.45
369.99	230.40
370.37	230.43
370.75	230.41
371.13	230.36
371.51	230.23
371.89	230.30
372.27	230.20
372.65	230.24
373.03	230.14
373.41	230.01
373.78	230.01
374.16	229.85
374.54	229.73
374.92	229.63
375.30	229.58
375.68	229.49
376.06	229.41
376.44	229.32
376.82	229.33
377.19	229.23
377.57	229.13
377.95	229.02
378.33	228.86
378.71	228.65
379.09	228.53
379.47	228.55
379.84	228.25
380.22	228.14
380.60	227.98
380.98	227.93
381.36	228.01
381.73	227.90
382.11	227.86
382.49	227.75
382.87	227.74
383.25	227.69
383.62	227.81
384.00	227.70
384.38	227.64
384.76	227.64
385.13	227.67
385.51	227.65
385.89	227.58
386.27	227.70
386.64	227.71
387.02	227.68
387.40	227.66
387.78	227.81
388.15	227.89
388.53	227.89
388.91	227.92
389.29	227.77
389.66	227.78
390.04	227.78
390.42	227.92
390.79	227.96
391.17	227.92
391.55	227.83
391.92	227.91
392.30	227.99
392.68	227.88
393.05	227.85
393.43	227.90
393.81	228.04
394.18	227.92
394.56	228.02
394.94	228.13
395.31	228.17
395.69	228.20
396.06	228.22
396.44	228.26
396.82	228.25
397.19	228.45
397.57	228.41
397.95	228.51
398.32	228.45
398.70	228.51
399.07	228.73
399.45	228.72
399.82	228.85
400.20	228.91
400.58	229.05
400.95	229.10
401.33	229.25
401.70	229.48
402.08	229.70
402.45	229.82
402.83	230.00
403.20	230.19
403.58	230.45
403.95	230.67
404.33	230.89
404.71	231.18
405.08	231.48
405.46	231.77
405.83	232.00
406.21	232.22
406.58	232.51
406.96	232.65
407.33	232.96
407.70	233.28
408.08	233.84
408.45	234.22
408.83	234.66
409.20	234.90
409.58	235.22
409.95	235.59
410.33	235.96
410.70	236.33
411.08	236.84
411.45	237.23
411.82	237.75
412.20	238.34
412.57	238.98
412.95	239.39
413.32	240.07
413.69	240.66
414.07	241.38
414.44	242.12
414.82	242.93
415.19	243.70
415.56	244.56
415.94	245.27
416.31	246.23
416.68	247.21
417.06	248.41
417.43	249.49
417.81	250.65
418.18	251.93
418.55	253.37
418.93	254.58
419.30	256.02
419.67	257.52
420.04	259.05
420.42	260.70
420.79	262.65
421.16	264.43
421.54	266.39
421.91	268.44
422.28	270.47
422.66	272.70
423.03	275.06
423.40	277.19
423.77	279.40
424.15	281.79
424.52	284.14
424.89	286.78
425.26	289.17
425.64	291.58
426.01	294.16
426.38	296.85
426.75	299.76
427.13	302.48
427.50	305.42
427.87	308.34
428.24	311.22
428.61	314.03
428.99	317.16
429.36	320.51
429.73	323.77
430.10	327.06
430.47	330.27
430.85	333.49
431.22	336.95
431.59	340.85
431.96	344.50
432.33	348.52
432.70	352.24
433.08	356.81
433.45	360.99
433.82	365.19
434.19	369.69
434.56	374.13
434.93	378.24
435.30	382.31
435.68	387.01
436.05	391.53
436.42	395.97
436.79	399.97
437.16	404.34
437.53	408.99
437.90	413.48
438.27	417.87
438.64	422.38
439.01	426.68
439.38	430.23
439.75	433.50
440.13	437.50
440.50	441.36
440.87	444.31
441.24	447.38
441.61	450.90
441.98	453.26
442.35	456.14
442.72	459.33
443.09	462.23
443.46	463.81
443.83	464.67
444.20	465.36
444.57	466.68
444.94	467.21
445.31	467.50
445.68	468.01
446.05	468.10
446.42	467.54
446.79	466.72
447.16	465.93
447.53	465.39
447.90	463.40
448.27	461.39
448.64	458.80
449.01	456.98
449.37	453.54
449.74	450.68
450.11	447.03
450.48	442.96
450.85	438.90
451.22	435.47
451.59	432.20
451.96	429.05
452.33	424.85
452.70	420.86
453.07	416.38
453.43	411.72
453.80	407.20
454.17	402.93
454.54	398.90
454.91	394.50
455.28	390.24
455.65	386.29
456.02	382.52
456.38	379.12
456.75	374.80
457.12	371.28
457.49	367.50
457.86	363.95
458.23	360.93
458.59	357.68
458.96	354.32
459.33	351.37
459.70	348.40
460.07	346.04
460.43	343.22
460.80	340.75
461.17	338.50
461.54	336.28
461.91	333.91
462.27	331.59
462.64	329.73
463.01	327.64
463.38	325.60
463.74	323.21
464.11	321.27
464.48	319.73
464.85	317.93
465.21	316.53
465.58	315.17
465.95	313.41
466.32	311.85
466.68	310.35
467.05	308.91
467.42	307.52
467.78	306.01
468.15	304.64
468.52	303.44
468.88	301.97
469.25	300.56
469.62	299.44
469.98	298.30
470.35	297.23
470.72	296.16
471.08	294.99
471.45	294.18
471.82	293.25
472.18	292.27
472.55	291.54
472.92	290.68
473.28	289.90
473.65	289.20
474.02	288.54
474.38	287.94
474.75	287.37
475.11	286.75
475.48	286.33
475.85	285.96
476.21	285.54
476.58	285.06
476.94	284.71
477.31	284.47
477.67	284.27
478.04	283.84
478.41	283.53
478.77	283.66
479.14	283.39
479.50	283.32
479.87	283.44
480.23	283.40
480.60	283.38
480.96	283.24
481.33	283.35
481.69	283.47
482.06	283.60
482.42	283.89
482.79	284.05
483.15	284.26
483.52	284.77
483.88	285.01
484.25	285.51
484.61	286.03
484.98	286.58
485.34	287.31
485.71	288.14
486.07	289.07
486.44	289.68
486.80	290.51
487.17	291.50
487.53	292.50
487.90	293.69
488.26	294.90
488.62	296.30
488.99	297.74
489.35	299.20
489.72	300.73
490.08	302.21
490.44	303.97
490.81	305.97
491.17	307.79
491.54	310.05
491.90	312.24
492.26	314.59
492.63	316.97
492.99	319.28
493.36	321.95
493.72	324.79
494.08	327.70
494.45	330.99
494.81	334.36
495.17	337.76
495.54	341.40
495.90	345.25
496.26	349.36
496.63	353.50
496.99	358.09
497.35	362.75
497.72	367.70
498.08	372.95
498.44	378.32
498.80	383.99
499.17	389.75
499.53	395.76
499.89	402.19
500.26	408.75
500.62	415.54
500.98	422.61
501.34	430.08
501.71	437.90
502.07	445.77
502.43	454.06
502.79	462.54
503.16	471.43
503.52	480.66
503.88	489.93
504.24	499.80
504.60	509.72
504.97	520.30
505.33	531.22
505.69	542.61
506.05	553.87
506.41	565.62
506.78	577.84
507.14	590.40
507.50	603.46
507.86	616.99
508.22	630.82
508.59	645.08
508.95	659.81
509.31	674.78
509.67	690.33
510.03	706.07
510.39	722.12
510.75	738.67
511.12	755.61
511.48	772.98
511.84	790.56
512.20	808.34
512.56	826.71
512.92	845.18
513.28	864.24
513.64	883.68
514.00	903.38
514.37	923.64
514.73	944.00
515.09	964.44
515.45	985.18
515.81	1006.39
516.17	1028.03
516.53	1049.84
516.89	1071.94
517.25	1094.21
517.61	1116.62
517.97	1139.43
518.33	1161.79
518.69	1184.72
519.05	1208.39
519.41	1232.29
519.77	1256.99
520.13	1281.35
520.49	1305.73
520.85	1330.20
521.21	1354.81
521.57	1380.22
521.93	1404.27
522.29	1429.77
522.65	1455.01
523.01	1480.32
523.37	1505.20
523.73	1530.16
524.09	1555.63
524.45	1581.40
524.81	1607.14
525.17	1633.46
525.53	1659.54
525.89	1686.33
526.25	1712.83
526.61	1738.30
526.97	1764.27
527.33	1790.10
527.68	1816.37
528.04	1842.65
528.40	1868.68
528.76	1896.04
529.12	1922.22
529.48	1949.53
529.84	1975.09
530.20	2001.32
530.56	2028.13
530.91	2056.05
531.27	2083.03
531.63	2108.98
531.99	2135.12
532.35	2160.87
532.71	2185.99
533.07	2211.51
533.42	2236.79
533.78	2262.20
534.14	2287.76
534.50	2312.08
534.86	2336.34
535.21	2360.04
535.57	2385.09
535.93	2409.78
536.29	2433.28
536.65	2457.00
537.00	2479.92
537.36	2503.80
537.72	2527.07
538.08	2549.29
538.44	2571.02
538.79	2592.85
539.15	2614.25
539.51	2636.31
539.87	2658.21
540.22	2680.21
540.58	2702.73
540.94	2723.75
541.29	2743.96
541.65	2764.35
542.01	2785.55
542.37	2806.19
542.72	2826.23
543.08	2845.30
543.44	2864.33
543.79	2881.94
544.15	2900.40
544.51	2919.73
544.87	2938.34
545.22	2955.79
545.58	2973.33
545.94	2989.02
546.29	3005.37
546.65	3021.40
547.01	3036.48
547.36	3051.33
547.72	3065.83
548.07	3079.39
548.43	3093.23
548.79	3106.67
549.14	3119.28
549.50	3131.49
549.86	3143.44
550.21	3155.45
550.57	3167.16
550.92	3178.66
551.28	3190.60
551.64	3201.25
551.99	3211.71
552.35	3221.46
552.70	3231.60
553.06	3241.87
553.41	3252.28
553.77	3262.60
554.13	3273.15
554.48	3282.66
554.84	3291.60
555.19	3300.71
555.55	3309.11
555.90	3316.94
556.26	3325.30
556.61	3334.21
556.97	3341.33
557.32	3349.13
557.68	3356.71
558.03	3363.81
558.39	3370.67
558.74	3378.24
559.10	3384.96
559.45	3391.60
559.81	3399.12
560.16	3404.83
560.52	3410.00
560.87	3416.44
561.23	3420.49
561.58	3425.14
561.94	3429.51
562.29	3433.14
562.64	3436.26
563.00	3439.89
563.35	3444.95
563.71	3449.65
564.06	3454.03
564.42	3458.88
564.77	3463.08
565.12	3466.75
565.48	3470.35
565.83	3472.31
566.19	3473.92
566.54	3475.56
566.89	3476.72
567.25	3477.53
567.60	3479.95
567.96	3481.50
568.31	3482.12
568.66	3483.19
569.02	3483.47
569.37	3483.52
569.72	3484.97
570.08	3485.30
570.43	3484.77
570.78	3483.26
571.14	3481.59
571.49	3479.81
571.84	3479.30
572.20	3476.39
572.55	3473.21
572.90	3469.70
573.26	3467.86
573.61	3465.58
573.96	3462.50
574.31	3457.68
574.67	3452.18
575.02	3446.59
575.37	3442.28
575.72	3435.97
576.08	3430.97
576.43	3425.70
576.78	3420.39
577.13	3415.10
577.49	3409.53
577.84	3404.06
578.19	3397.94
578.54	3391.01
578.90	3383.83
579.25	3374.74
579.60	3367.28
579.95	3360.28
580.30	3352.70
580.66	3344.09
581.01	3334.67
581.36	3327.04
581.71	3320.72
582.06	3313.49
582.42	3306.19
582.77	3297.55
583.12	3289.69
583.47	3281.81
583.82	3273.98
584.17	3265.04
584.53	3256.24
584.88	3247.96
585.23	3239.35
585.58	3231.20
585.93	3223.16
586.28	3215.07
586.63	3207.36
586.98	3199.41
587.34	3191.14
587.69	3182.64
588.04	3174.38
588.39	3167.18
588.74	3156.63
589.09	3146.12
589.44	3135.61
589.79	3125.99
590.14	3117.35
590.49	3108.42
590.84	3098.38
591.19	3088.63
591.54	3078.08
591.89	3066.45
592.25	3055.69
592.60	3044.20
592.95	3032.80
593.30	3021.28
593.65	3009.47
594.00	2997.99
594.35	2987.46
594.70	2975.39
595.05	2964.55
595.40	2952.95
595.75	2940.61
596.10	2931.20
596.45	2921.35
596.80	2912.20
597.15	2901.81
597.50	2890.20
597.85	2879.72
598.19	2869.93
598.54	2858.96
598.89	2849.25
599.24	2840.42
599.59	2830.08
599.94	2820.61
600.29	2810.30
600.64	2800.43
600.99	2789.30
601.34	2778.55
601.69	2766.91
602.04	2757.16
602.39	2746.24
602.74	2736.57
603.08	2726.70
603.43	2716.06
603.78	2705.00
604.13	2693.56
604.48	2681.92
604.83	2671.17
605.18	2660.15
605.53	2647.85
605.87	2635.67
606.22	2624.54
606.57	2612.24
606.92	2601.18
607.27	2590.02
607.62	2579.41
607.96	2568.26
608.31	2557.93
608.66	2546.19
609.01	2534.24
609.36	2521.14
609.70	2508.16
610.05	2494.85
610.40	2482.43
610.75	2469.29
611.10	2456.77
611.44	2443.56
611.79	2431.84
612.14	2418.81
612.49	2404.96
612.83	2392.11
613.18	2379.66
613.53	2367.08
613.88	2353.83
614.22	2340.70
614.57	2326.90
614.92	2314.00
615.27	2300.97
615.61	2287.84
615.96	2275.63
616.31	2263.88
616.65	2253.18
617.00	2241.91
617.35	2230.17
617.70	2217.79
618.04	2205.25
618.39	2193.15
618.74	2181.91
619.08	2168.79
619.43	2157.24
619.78	2146.03
620.12	2134.50
620.47	2123.02
620.82	2110.50
621.16	2099.16
621.51	2087.22
621.85	2075.97
622.20	2062.80
622.55	2051.10
622.89	2039.54
623.24	2028.26
623.59	2016.87
623.93	2004.66
624.28	1993.09
624.62	1981.61
624.97	1970.45
625.32	1959.65
625.66	1948.42
626.01	1936.94
626.35	1926.01
626.70	1914.37
627.04	1903.61
627.39	1891.87
627.73	1880.16
628.08	1869.40
628.43	1857.97
628.77	1846.95
629.12	1835.24
629.46	1824.73
629.81	1812.60
630.15	1800.44
630.50	1788.57
630.84	1775.98
631.19	1763.61
631.53	1751.85
631.88	1739.37
632.22	1726.80
632.57	1715.66
632.91	1703.94
633.26	1692.18
633.60	1680.03
633.95	1668.68
634.29	1657.17
634.64	1646.86
634.98	1635.85
635.32	1625.42
635.67	1615.08
636.01	1604.28
636.36	1593.54
636.70	1583.39
637.05	1573.53
637.39	1564.02
637.73	1554.11
638.08	1545.00
638.42	1536.09
638.77	1526.31
639.11	1517.04
639.45	1507.47
639.80	1497.28
640.14	1487.34
640.49	1477.74
640.83	1468.35
641.17	1458.70
641.52	1448.34
641.86	1437.78
642.20	1428.29
642.55	1418.21
642.89	1408.32
643.23	1398.54
643.58	1389.51
643.92	1379.36
644.26	1369.44
644.61	1359.95
644.95	1350.03
645.29	1339.32
645.64	1328.98
645.98	1319.40
646.32	1309.85
646.66	1300.18
647.01	1290.27
647.35	1281.04
647.69	1271.27
648.04	1262.31
648.38	1252.62
648.72	1243.15
649.06	1233.68
649.41	1224.28
649.75	1214.02
650.09	1204.44
650.43	1194.90
650.78	1184.86
651.12	1175.41
651.46	1166.06
651.80	1156.87
652.14	1147.70
652.49	1138.99
652.83	1130.29
653.17	1120.65
653.51	1111.38
653.85	1102.56
654.20	1093.84
654.54	1084.37
654.88	1075.40
655.22	1065.76
655.56	1056.46
655.90	1047.73
656.25	1039.36
656.59	1030.63
656.93	1022.69
657.27	1014.34
657.61	1005.60
657.95	997.81
658.29	989.82
658.64	981.89
658.98	973.10
659.32	964.72
659.66	956.93
660.00	948.83
660.34	941.04
660.68	933.60
661.02	925.69
661.36	918.43
661.70	911.17
662.05	904.12
662.39	897.64
662.73	890.56
663.07	883.77
663.41	876.87
663.75	869.81
664.09	862.94
664.43	856.14
664.77	849.84
665.11	843.03
665.45	836.33
665.79	829.72
666.13	823.51
666.47	817.04
666.81	810.14
667.15	803.22
667.49	797.23
667.83	790.78
668.17	784.76
668.51	778.03
668.85	771.78
669.19	765.71
669.53	759.52
669.87	753.80
670.21	748.02
670.55	742.33
670.89	736.95
671.23	731.38
671.57	725.90
671.91	720.49
672.25	714.99
672.58	709.66
672.92	704.31
673.26	699.06
673.60	694.10
673.94	689.04
674.28	684.90
674.62	679.83
674.96	675.13
675.30	670.35
675.64	665.72
675.97	661.18
676.31	656.82
676.65	652.22
676.99	647.86
677.33	643.20
677.67	638.55
678.01	634.03
678.34	629.39
678.68	624.80
679.02	620.23
679.36	615.82
679.70	611.67
680.04	607.41
680.37	603.08
680.71	598.86
681.05	595.27
681.39	591.00
681.73	586.99
682.06	583.05
682.40	579.22
682.74	575.32
683.08	571.45
683.42	567.36
683.75	563.46
684.09	559.46
684.43	555.62
684.77	551.99
685.10	548.26
685.44	544.70
685.78	541.15
686.12	537.49
686.45	534.07
686.79	530.25
687.13	526.76
687.46	523.42
687.80	520.10
688.14	516.49
688.48	513.08
688.81	509.69
689.15	506.29
689.49	502.93
689.82	499.84
690.16	496.71
690.50	493.68
690.83	490.52
691.17	487.55
691.51	484.63
691.84	481.56
692.18	478.55
692.52	475.55
692.85	472.66
693.19	469.91
693.52	466.86
693.86	464.16
694.20	461.33
694.53	458.61
694.87	455.62
695.21	452.75
695.54	449.90
695.88	447.32
696.21	444.54
696.55	441.89
696.88	439.27
697.22	436.70
697.56	433.94
697.89	431.27
698.23	428.73
698.56	426.20
698.90	423.61
699.23	420.86
699.57	418.33
699.90	415.95
700.24	413.42
700.58	411.07
700.91	408.70
701.25	406.40
701.58	404.09
701.92	402.01
702.25	399.84
702.59	397.61
702.92	395.44
703.26	393.35
703.59	391.27
703.93	389.40
704.26	387.24
704.60	385.29
704.93	383.34
705.26	381.39
705.60	379.51
705.93	377.81
706.27	376.25
706.60	374.59
706.94	372.75
707.27	370.86
707.61	369.19
707.94	367.57
708.27	365.88
708.61	364.10
708.94	362.37
709.28	360.76
709.61	359.34
709.94	357.91
710.28	356.39
710.61	354.84
710.95	353.17
711.28	351.72
711.61	350.32
711.95	348.91
712.28	347.27
712.61	345.62
712.95	344.07
713.28	342.69
713.61	341.28
713.95	339.80
714.28	338.66
714.61	337.33
714.95	336.00
715.28	334.67
715.61	333.29
715.95	332.00
716.28	330.68
716.61	329.25
716.95	327.91
717.28	326.73
717.61	325.60
717.94	324.49
718.28	323.20
718.61	321.94
718.94	320.97
719.27	320.09
719.61	319.27
719.94	318.18
720.27	316.99
720.60	315.90
720.94	314.93
721.27	313.84
721.60	312.92
721.93	311.86
722.27	311.07
722.60	310.30
722.93	309.44
723.26	308.63
723.59	307.84
723.93	306.91
724.26	306.01
724.59	305.01
724.92	304.02
725.25	303.30
725.59	302.49
725.92	301.65
726.25	300.72
726.58	299.96
726.91	299.22
727.24	298.41
727.57	297.65
727.91	296.96
728.24	296.13
728.57	295.27
728.90	294.62
729.23	293.62
729.56	292.91
729.89	292.29
730.22	291.39
730.55	290.58
730.89	289.87
731.22	289.14
731.55	288.49
731.88	287.84
732.21	286.98
732.54	286.24
732.87	285.56
733.20	284.97
733.53	284.26
733.86	283.59
734.19	282.94
734.52	282.33
734.85	281.71
735.18	281.11
735.51	280.49
735.84	279.80
736.17	279.26
736.50	278.56
736.83	278.14
737.16	277.74
737.49	277.17
737.82	276.60
738.15	276.12
738.48	275.63
738.81	275.11
739.14	274.60
739.47	274.11
739.80	273.47
740.13	273.02
740.46	272.45
740.79	271.95
741.12	271.46
741.45	270.89
741.78	270.35
742.11	269.85
742.44	269.30
742.77	268.76
743.10	268.20
743.43	267.67
743.75	266.91
744.08	266.70
744.41	266.21
744.74	265.75
745.07	265.35
745.40	264.84
745.73	264.41
746.06	264.08
746.39	263.63
746.71	263.22
747.04	262.67
747.37	262.20
747.70	261.73
748.03	261.33
748.36	261.01
748.68	260.54
749.01	260.20
749.34	259.80
749.67	259.47
750.00	259.14
750.33	258.88
750.65	258.58
750.98	257.91
751.31	257.57
751.64	257.21
751.97	256.80
752.29	256.50
752.62	256.14
752.95	255.72
753.28	255.38
753.60	254.98
753.93	254.67
754.26	254.43
754.59	254.03
754.91	253.74
755.24	253.42
755.57	253.13
755.90	252.92
756.22	252.67
756.55	252.43
756.88	252.12
757.20	251.70
757.53	251.31
757.86	251.11
758.19	251.00
758.51	250.82
758.84	250.61
759.17	250.33
759.49	249.99
759.82	249.97
760.15	249.76
760.47	249.57
760.80	249.35
761.13	249.08
761.45	249.03
761.78	248.69
762.11	248.41
762.43	248.17
762.76	247.74
763.08	247.57
763.41	247.32
763.74	247.13
764.06	246.95
764.39	246.77
764.71	246.47
765.04	246.20
765.37	245.96
765.69	245.66
766.02	245.50
766.34	245.38
766.67	245.10
767.00	244.96
767.32	244.89
767.65	244.78
767.97	244.60
768.30	244.33
768.62	244.33
768.95	244.11
769.27	243.96
769.60	243.92
769.92	243.68
770.25	243.52
770.57	243.42
770.90	243.32
771.22	243.20
771.55	243.06
771.87	242.89
772.20	242.71
772.52	242.74
772.85	242.72
773.17	242.55
773.50	242.26
773.82	242.14
774.15	241.87
774.47	241.63
774.80	241.48
775.12	241.26
775.45	241.03
775.77	240.87
776.09	240.70
776.42	240.57
776.74	240.56
777.07	240.39
777.39	240.25
777.72	240.01
778.04	239.89
778.36	239.80
778.69	239.77
779.01	239.56
779.33	239.31
779.66	239.07
779.98	238.92
780.31	238.85
780.63	238.71
780.95	238.66
781.28	238.47
781.60	238.29
781.92	238.20
782.25	238.12
782.57	238.02
782.89	237.90
783.22	237.70
783.54	237.56
783.86	237.44
784.19	237.34
784.51	237.39
784.83	237.14
785.16	236.99
785.48	236.78
785.80	236.70
786.12	236.53
786.45	236.40
786.77	236.26
787.09	236.10
787.42	235.87
787.74	235.75
788.06	235.65
788.38	235.61
788.71	235.56
789.03	235.44
789.35	235.46
789.67	235.39
789.99	235.32
790.32	235.15
790.64	235.04
790.96	235.05
791.28	234.90
791.61	234.95
791.93	234.84
792.25	234.73
792.57	234.80
792.89	234.77
793.21	234.75
793.54	234.73
793.86	234.71
794.18	234.71
794.50	234.63
794.82	234.65
795.14	234.50
795.47	234.40
795.79	234.37
796.11	234.30
796.43	234.23
796.75	234.24
797.07	234.17
797.39	234.17
797.71	233.99
798.04	233.92
798.36	233.74
798.68	233.78
799.00	233.83
799.32	233.81
799.64	233.74
799.96	233.68
800.28	233.60
800.60	233.52
800.92	233.62
801.24	233.51
801.56	233.42
801.89	233.44
802.21	233.49
802.53	233.47
802.85	233.39
803.17	233.55
803.49	233.49
803.81	233.49
804.13	233.42
804.45	233.47
804.77	233.38
805.09	233.47
805.41	233.45
805.73	233.32
806.05	233.14
806.37	233.16
806.69	233.03
807.01	233.07
807.33	233.02
807.65	232.83
807.97	232.92
808.28	232.94
808.60	232.88
808.92	232.89
809.24	232.91
809.56	232.90
809.88	232.72
810.20	232.67
810.52	232.69
810.84	232.79
811.16	232.66
811.48	232.69
811.80	232.71
812.12	232.69
812.43	232.81
812.75	232.79
813.07	232.83
813.39	232.86
813.71	232.85
814.03	232.76
814.35	232.81
814.67	232.73
814.98	232.78
815.30	232.85
815.62	232.68
815.94	232.53
816.26	232.54
816.58	232.45
816.89	232.50
817.21	232.45
817.53	232.35
817.85	232.35
818.17	232.29
818.48	232.18
818.80	232.10
819.12	232.00
819.44	231.96
819.76	231.80
820.07	231.81
820.39	231.69
820.71	231.72
821.03	231.77
821.34	231.73
821.66	231.71
821.98	231.67
822.30	231.75
822.61	231.87
822.93	231.80
823.25	231.73
823.57	231.58
823.88	231.60
824.20	231.59
824.52	231.56
824.83	231.49
825.15	231.32
825.47	231.31
825.79	231.19
826.10	231.12
826.42	231.07
826.74	230.99
827.05	231.01
827.37	230.98
827.69	230.80
828.00	230.83
828.32	230.74
828.64	230.69
828.95	230.70
829.27	230.61
829.58	230.53
829.90	230.55
830.22	230.61
830.53	230.45
830.85	230.31
831.17	230.24
831.48	230.26
831.80	230.41
832.11	230.29
832.43	230.23
832.75	230.25
833.06	230.43
833.38	230.40
833.69	230.21
834.01	230.15
834.32	230.09
834.64	229.97
834.96	229.98
835.27	229.87
835.59	229.70
835.90	229.63
836.22	229.63
836.53	229.60
836.85	229.50
837.16	229.72
837.48	229.73
837.79	229.75
838.11	229.77
838.42	229.64
838.74	229.74
839.05	229.66
839.37	229.61
839.68	229.48
840.00	229.40
840.31	229.41
840.63	229.46
840.94	229.44
841.26	229.36
841.57	229.29
841.88	229.24
842.20	229.23
842.51	229.32
842.83	229.30
843.14	229.43
843.46	229.50
843.77	229.40
844.08	229.31
844.40	229.30
844.71	229.23
845.03	229.29
845.34	229.18
845.65	229.32
845.97	229.26
846.28	229.14
846.60	229.19
846.91	229.25
847.22	229.10
847.54	229.10
847.85	229.11
848.16	229.06
848.48	229.08
848.79	229.21
849.10	229.02
849.42	229.04
849.73	228.90
850.04	228.90
850.36	228.80
850.67	228.91
850.98	228.95
851.30	228.94
851.61	228.90
851.92	228.97
852.23	229.00
852.55	229.05
852.86	229.12
853.17	229.19
853.49	229.26
853.80	229.46
854.11	229.59
854.42	229.69
854.74	229.70
855.05	229.79
855.36	229.70
855.67	229.85
855.99	229.75
856.30	230.02
856.61	230.01
856.92	230.12
857.23	230.17
857.55	230.07
857.86	230.21
858.17	230.28
858.48	230.26
858.79	230.23
859.11	230.35
859.42	230.50
859.73	230.51
860.04	230.47
860.35	230.49
860.66	230.41
860.98	230.41
861.29	230.44
861.60	230.36
861.91	230.42
862.22	230.35
862.53	230.32
862.84	230.06
863.16	230.04
863.47	229.93
863.78	229.84
864.09	229.96
864.40	229.78
864.71	229.76
865.02	229.82
865.33	229.82
865.64	229.68
865.95	229.53
866.27	229.58
866.58	229.55
866.89	229.51
867.20	229.54
867.51	229.55
867.82	229.56
868.13	229.58
868.44	229.54
868.75	229.58
869.06	229.63
869.37	229.72
869.68	229.62
869.99	229.67
870.30	229.63
870.61	229.54
870.92	229.61
871.23	229.59
871.54	229.51
871.85	229.55
872.16	229.50
872.47	229.49
872.78	229.32
873.09	229.30
873.40	229.08
873.71	229.00
874.02	228.96
874.33	228.85
874.64	228.80
874.95	228.67
875.26	228.62
875.56	228.56
875.87	228.39
876.18	228.38
876.49	228.45
876.80	228.39
877.11	228.35
877.42	228.38
877.73	228.33
878.04	228.21
878.35	227.97
878.66	228.05
878.96	227.95
879.27	227.90
879.58	227.95
879.89	228.11
880.20	228.16
880.51	228.10
880.82	228.06
881.12	228.06
881.43	228.02
881.74	227.98
882.05	228.05
882.36	228.03
882.67	228.02
882.97	227.83
883.28	227.78
883.59	227.78
883.90	227.71
884.21	227.80
884.51	227.97
884.82	228.08
885.13	228.01
885.44	228.04
885.74	228.15
886.05	228.10
886.36	228.09
886.67	228.05
886.98	228.13
887.28	228.24
887.59	228.26
887.90	228.38
888.20	228.34
888.51	228.42
888.82	228.50
889.13	228.56
889.43	228.85
889.74	229.05
890.05	229.10
890.35	229.12
890.66	229.10
890.97	229.00
891.28	229.03
891.58	229.14
891.89	229.18
892.20	229.10
892.50	229.10
892.81	229.03
893.12	229.07
893.42	229.00
893.73	229.06
894.04	229.12
894.34	229.11
894.65	229.19
894.95	229.09
895.26	229.06
895.57	229.22
895.87	228.97
896.18	228.93
896.48	228.90
896.79	228.92
897.10	228.91
897.40	228.96
897.71	229.00
898.01	228.96
898.32	228.96
898.63	229.00
898.93	228.97
899.24	229.03
899.54	228.94
899.85	228.94
900.15	228.98
900.46	229.00
900.76	229.06
901.07	229.03
901.38	229.04
901.68	229.16
901.99	229.02
902.29	229.00
902.60	229.07
902.90	229.10
903.21	229.00
903.51	229.01
903.82	229.03
904.12	228.97
904.43	228.92
904.73	228.95
905.03	228.98
905.34	229.12
905.64	229.13
905.95	229.19
906.25	229.13
906.56	229.06
906.86	229.03
907.17	228.89
907.47	228.90
907.77	228.91
908.08	228.75
908.38	228.71
908.69	228.77
908.99	228.68
909.30	228.63
909.60	228.63
909.90	228.60
910.21	228.59
910.51	228.60
910.81	228.67
911.12	228.66
911.42	228.68
911.73	228.55
912.03	228.42
912.33	228.41
912.64	228.39
912.94	228.29
913.24	228.22
913.55	228.30
913.85	228.22
914.15	228.35
914.46	228.40
914.76	228.40
915.06	228.34
915.37	228.37
915.67	228.39
915.97	228.43
916.27	228.41
916.58	228.33
916.88	228.38
917.18	228.30
917.49	228.38
917.79	228.31
918.09	228.36
918.39	228.48
918.70	228.47
919.00	228.49
919.30	228.57
919.60	228.53
919.91	228.56
920.21	228.61
920.51	228.47
920.81	228.50
921.12	228.48
921.42	228.51
921.72	228.49
922.02	228.46
922.32	228.43
922.63	228.45
922.93	228.59
923.23	228.53
923.53	228.56
923.83	228.42
924.13	228.51
924.44	228.45
924.74	228.50
925.04	228.54
925.34	228.56
925.64	228.50
925.94	228.54
926.24	228.61
926.55	228.54
926.85	228.55
927.15	228.60
927.45	228.55
927.75	228.53
928.05	228.57
928.35	228.55
928.65	228.57
928.95	228.57
929.26	228.42
929.56	228.43
929.86	228.50
930.16	228.53
930.46	228.43
930.76	228.45
931.06	228.38
931.36	228.34
931.66	228.39
931.96	228.44
932.26	228.47
932.56	228.40
932.86	228.47
933.16	228.46
933.46	228.39
933.76	228.48
934.06	228.58
934.36	228.67
934.66	228.65
934.96	228.65
935.26	228.67
935.56	228.78
935.86	228.66
936.16	228.66
936.46	228.65
936.76	228.67
937.06	228.64
937.36	228.71
937.66	228.76
937.96	228.84
938.26	228.77
938.56	228.83
938.86	228.86
939.16	229.00
939.46	229.07
939.76	229.16
940.06	229.17
940.35	229.07
940.65	228.98
940.95	228.99
941.25	229.03
941.55	229.04
941.85	228.95
942.15	229.11
942.45	229.16
942.75	229.17
943.04	229.17
943.34	229.29
943.64	229.25
943.94	229.22
944.24	229.14
944.54	229.20
944.84	229.10
945.13	229.06
945.43	228.91
945.73	228.90
946.03	228.82
946.33	228.77
946.62	228.80
946.92	228.72
947.22	228.73
947.52	228.75
947.82	228.79
948.11	228.80
948.41	228.79
948.71	228.68
949.01	228.69
949.31	228.59
949.60	228.46
949.90	228.50
950.20	228.43
950.50	228.40
950.79	228.36
951.09	228.29
951.39	228.24
951.69	228.20
951.98	228.11
952.28	228.15
952.58	228.19
952.87	228.12
953.17	228.20
953.47	228.19
953.76	228.11
954.06	227.93
954.36	227.87
954.66	227.81
954.95	227.84
955.25	227.91
955.55	228.04
955.84	228.03
956.14	227.92
956.44	228.01
956.73	228.00
957.03	228.02
957.32	228.05
957.62	228.00
957.92	228.03
958.21	228.17
958.51	228.21
958.81	228.03
959.10	228.09
959.40	228.09
959.69	228.12
959.99	228.21
960.29	228.31
960.58	228.32
960.88	228.42
961.17	228.30
961.47	228.21
961.76	228.12
962.06	228.17
962.36	228.28
962.65	228.26
962.95	228.27
963.24	228.20
963.54	228.23
963.83	228.32
964.13	228.40
964.42	228.32
964.72	228.25
965.01	228.40
965.31	228.44
965.60	228.33
965.90	228.47
966.19	228.32
966.49	228.30
966.78	228.27
967.08	228.25
967.37	228.29
967.67	228.27
967.96	228.37
968.26	228.35
968.55	228.35
968.85	228.40
969.14	228.44
969.43	228.43
969.73	228.43
970.02	228.34
970.32	228.24
970.61	228.18
970.91	228.16
971.20	228.11
971.49	228.14
971.79	228.24
972.08	228.07
972.38	228.23
972.67	228.34
972.96	228.44
973.26	228.43
973.55	228.53
973.85	228.60
974.14	228.57
974.43	228.66
974.73	228.60
975.02	228.57
975.31	228.50
975.61	228.48
975.90	228.41
976.19	228.46
976.49	228.46
976.78	228.43
977.07	228.38
977.37	228.40
977.66	228.32
977.95	228.26
978.24	228.30
978.54	228.22
978.83	228.20
979.12	228.20
979.42	228.22
979.71	228.20
980.00	228.20
980.29	228.17
980.59	228.10
980.88	228.14
981.17	228.10
981.46	228.12
981.76	228.18
982.05	228.40
982.34	228.43
982.63	228.49
982.93	228.58
983.22	228.64
983.51	228.71
983.80	228.73
984.09	228.77
984.39	228.70
984.68	228.61
984.97	228.52
985.26	228.41
985.55	228.26
985.85	228.24
986.14	228.32
986.43	228.35
986.72	228.30
987.01	228.23
987.30	228.18
987.59	228.24
987.89	228.35
988.18	228.28
988.47	228.20
988.76	228.25
989.05	228.24
989.34	228.27
989.63	228.34
989.92	228.38
990.22	228.31
990.51	228.36
990.80	228.38
991.09	228.31
991.38	228.50
991.67	228.56
991.96	228.50
992.25	228.30
992.54	228.22
992.83	228.20
993.12	228.25
993.41	228.29
993.70	228.25
993.99	228.24
994.28	228.12
994.58	228.20
994.87	228.07
995.16	228.08
995.45	228.04
995.74	227.89
996.03	227.81
996.32	227.83
996.61	227.92
996.90	227.99
997.19	228.01
997.48	227.86
997.77	227.90
998.06	227.99
998.34	228.06
998.63	228.06
998.92	228.14
999.21	228.13
999.50	228.17
999.79	228.14
1000.08	228.08
1000.37	228.17
1000.66	228.12
1000.95	228.19
1001.24	228.22
1001.53	228.32
1001.82	228.31
1002.11	228.41
1002.40	228.45
1002.68	228.45
1002.97	228.57
1003.26	228.64
1003.55	228.69
1003.84	228.69
1004.13	228.74
1004.42	228.80
1004.71	228.87
1004.99	228.84
1005.28	228.80
1005.57	228.75
1005.86	228.81
1006.15	228.78
1006.44	228.70
1006.72	228.76
1007.01	228.91
1007.30	228.84
1007.59	228.76
1007.88	228.85
1008.17	228.78
1008.45	228.87
1008.74	228.82
1009.03	228.77
1009.32	228.73
1009.60	228.77
1009.89	228.73
1010.18	228.64
1010.47	228.67
1010.76	228.68
1011.04	228.71
1011.33	228.78
1011.62	228.74
1011.91	228.78
1012.19	228.81
1012.48	228.95
1012.77	228.93
1013.05	228.97
1013.34	228.97
1013.63	229.01
1013.92	229.04
1014.20	228.98
1014.49	228.94
1014.78	228.99
1015.06	228.88
1015.35	228.97
1015.64	229.02
1015.92	229.01
1016.21	229.00
1016.50	228.97
1016.78	228.90
1017.07	228.83
1017.36	228.78
1017.64	228.78
1017.93	228.73
1018.22	228.68
1018.50	228.63
1018.79	228.57
1019.08	228.38
1019.36	228.45
1019.65	228.42
1019.93	228.33
1020.22	228.45
1020.51	228.47
1020.79	228.33
1021.08	227.40
1021.36	228.90
1021.65	227.30
1021.94	227.90
1022.22	229.30
1022.51	229.10
1022.79	228.10
1023.08	229.50
1023.36	229.90
1023.65	226.90
>>>>>End Processed Spectral Data<<<<<
