SpectraSuite Data File
++++++++++++++++++++++++++++++++++++
Date: Fri Feb 01 14:38:54 EST 2013
User: group
Dark Spectrum Present: No
Reference Spectrum Present: No
Number of Sampled Component Spectra: 1
Spectrometers: USB2E7196
Integration Time (usec): 70000 (USB2E7196)
Spectra Averaged: 10 (USB2E7196)
Boxcar Smoothing: 10 (USB2E7196)
Correct for Electrical Dark: No (USB2E7196)
Strobe/Lamp Enabled: No (USB2E7196)
Correct for Detector Non-linearity: No (USB2E7196)
Correct for Stray Light: No (USB2E7196)
Number of Pixels in Processed Spectrum: 2048
>>>>>Begin Processed Spectral Data<<<<<
339.09	0.00
339.48	217.50
339.86	218.60
340.24	220.10
340.63	220.40
341.01	224.50
341.39	222.50
341.78	224.90
342.16	226.10
342.54	225.80
342.93	214.70
343.31	225.59
343.69	226.03
344.07	226.49
344.46	226.89
344.84	227.26
345.22	227.41
345.60	227.68
345.99	227.80
346.37	227.83
346.75	227.99
347.13	228.07
347.52	228.12
347.90	228.23
348.28	228.22
348.66	228.28
349.05	228.12
349.43	228.17
349.81	228.14
350.19	228.25
350.57	228.41
350.96	228.39
351.34	228.35
351.72	228.46
352.10	228.53
352.48	228.51
352.87	228.51
353.25	228.57
353.63	228.68
354.01	228.64
354.39	228.70
354.77	228.63
355.15	228.75
355.54	228.72
355.92	228.74
356.30	228.79
356.68	228.94
357.06	229.08
357.44	229.19
357.82	229.16
358.20	229.24
358.58	229.19
358.97	229.24
359.35	229.34
359.73	229.45
360.11	229.44
360.49	229.54
360.87	229.70
361.25	229.78
361.63	229.81
362.01	230.01
362.39	230.03
362.77	230.19
363.15	230.27
363.53	230.38
363.91	230.49
364.29	230.50
364.67	230.41
365.05	230.52
365.43	230.52
365.81	230.66
366.19	230.66
366.57	230.88
366.95	230.89
367.33	230.81
367.71	230.84
368.09	230.82
368.47	230.80
368.85	230.77
369.23	230.81
369.61	230.79
369.99	230.82
370.37	230.91
370.75	231.02
371.13	230.89
371.51	230.84
371.89	230.69
372.27	230.68
372.65	230.57
373.03	230.42
373.41	230.42
373.78	230.23
374.16	230.08
374.54	229.98
374.92	229.85
375.30	229.83
375.68	229.71
376.06	229.67
376.44	229.59
376.82	229.50
377.19	229.44
377.57	229.29
377.95	229.21
378.33	229.07
378.71	228.79
379.09	228.72
379.47	228.61
379.84	228.58
380.22	228.47
380.60	228.34
380.98	228.30
381.36	228.15
381.73	228.05
382.11	228.02
382.49	227.88
382.87	227.84
383.25	227.70
383.62	227.79
384.00	227.69
384.38	227.64
384.76	227.61
385.13	227.52
385.51	227.53
385.89	227.30
386.27	227.18
386.64	227.16
387.02	227.12
387.40	226.97
387.78	226.91
388.15	226.88
388.53	226.84
388.91	226.85
389.29	226.87
389.66	226.97
390.04	226.88
390.42	226.78
390.79	226.82
391.17	226.88
391.55	226.65
391.92	226.63
392.30	226.61
392.68	226.50
393.05	226.54
393.43	226.42
393.81	226.54
394.18	226.53
394.56	226.52
394.94	226.50
395.31	226.61
395.69	226.68
396.06	226.71
396.44	226.84
396.82	226.74
397.19	226.84
397.57	226.79
397.95	226.88
398.32	227.08
398.70	227.10
399.07	227.20
399.45	227.33
399.82	227.38
400.20	227.52
400.58	227.56
400.95	227.63
401.33	227.84
401.70	228.06
402.08	228.22
402.45	228.31
402.83	228.64
403.20	228.66
403.58	228.73
403.95	228.94
404.33	229.03
404.71	229.26
405.08	229.50
405.46	229.70
405.83	229.91
406.21	229.99
406.58	230.24
406.96	230.35
407.33	230.53
407.70	230.84
408.08	231.07
408.45	231.41
408.83	231.59
409.20	231.84
409.58	231.96
409.95	232.23
410.33	232.60
410.70	232.57
411.08	233.02
411.45	233.37
411.82	233.72
412.20	234.17
412.57	234.65
412.95	234.97
413.32	235.41
413.69	235.90
414.07	236.41
414.44	236.78
414.82	237.38
415.19	238.04
415.56	238.59
415.94	239.24
416.31	239.89
416.68	240.58
417.06	241.35
417.43	242.10
417.81	243.10
418.18	243.90
418.55	245.00
418.93	245.99
419.30	247.03
419.67	247.97
420.04	249.02
420.42	250.06
420.79	251.33
421.16	252.71
421.54	254.06
421.91	255.38
422.28	256.85
422.66	258.36
423.03	259.85
423.40	261.36
423.77	262.98
424.15	264.64
424.52	266.38
424.89	268.25
425.26	270.10
425.64	271.57
426.01	273.51
426.38	275.53
426.75	277.52
427.13	279.49
427.50	281.73
427.87	284.03
428.24	286.28
428.61	288.41
428.99	290.70
429.36	293.13
429.73	295.55
430.10	298.19
430.47	300.75
430.85	303.29
431.22	305.93
431.59	308.86
431.96	311.61
432.33	314.63
432.70	317.59
433.08	321.12
433.45	324.47
433.82	327.74
434.19	331.27
434.56	334.66
434.93	338.15
435.30	341.39
435.68	345.06
436.05	348.66
436.42	352.05
436.79	355.30
437.16	358.77
437.53	362.64
437.90	366.11
438.27	369.62
438.64	373.26
439.01	376.80
439.38	379.66
439.75	382.63
440.13	385.99
440.50	389.12
440.87	391.67
441.24	394.38
441.61	397.33
441.98	399.41
442.35	402.01
442.72	404.53
443.09	407.19
443.46	408.69
443.83	409.64
444.20	410.63
444.57	412.05
444.94	412.83
445.31	413.44
445.68	414.41
446.05	414.69
446.42	414.58
446.79	414.41
447.16	414.28
447.53	414.21
447.90	413.15
448.27	412.03
448.64	410.44
449.01	409.31
449.37	407.11
449.74	405.13
450.11	402.59
450.48	399.77
450.85	396.84
451.22	394.43
451.59	392.22
451.96	390.11
452.33	387.06
452.70	384.22
453.07	380.93
453.43	377.37
453.80	374.20
454.17	370.94
454.54	367.93
454.91	364.50
455.28	361.22
455.65	358.03
456.02	355.18
456.38	352.41
456.75	349.11
457.12	346.28
457.49	343.43
457.86	340.70
458.23	338.39
458.59	335.76
458.96	332.98
459.33	330.66
459.70	328.30
460.07	326.32
460.43	324.24
460.80	322.11
461.17	320.20
461.54	318.25
461.91	316.46
462.27	314.54
462.64	313.01
463.01	311.18
463.38	309.62
463.74	307.68
464.11	306.06
464.48	304.72
464.85	303.30
465.21	302.17
465.58	300.95
465.95	299.51
466.32	298.17
466.68	296.97
467.05	295.73
467.42	294.49
467.78	293.22
468.15	291.99
468.52	291.01
468.88	289.84
469.25	288.76
469.62	287.92
469.98	286.81
470.35	285.87
470.72	285.11
471.08	283.98
471.45	283.14
471.82	282.36
472.18	281.50
472.55	280.77
472.92	279.93
473.28	279.14
473.65	278.44
474.02	277.80
474.38	277.36
474.75	276.71
475.11	275.96
475.48	275.40
475.85	274.62
476.21	274.16
476.58	273.70
476.94	273.28
477.31	272.68
477.67	272.28
478.04	271.86
478.41	271.40
478.77	271.38
479.14	270.99
479.50	270.65
479.87	270.34
480.23	270.03
480.60	269.70
480.96	269.45
481.33	269.24
481.69	269.02
482.06	268.66
482.42	268.50
482.79	268.39
483.15	268.20
483.52	268.30
483.88	268.02
484.25	267.78
484.61	267.71
484.98	267.75
485.34	267.78
485.71	267.79
486.07	267.68
486.44	267.49
486.80	267.53
487.17	267.61
487.53	267.73
487.90	267.84
488.26	268.10
488.62	268.21
488.99	268.25
489.35	268.50
489.72	268.60
490.08	268.74
490.44	269.02
490.81	269.33
491.17	269.68
491.54	269.95
491.90	270.24
492.26	270.34
492.63	270.47
492.99	270.70
493.36	270.91
493.72	271.39
494.08	271.69
494.45	271.94
494.81	272.25
495.17	272.48
495.54	272.74
495.90	272.91
496.26	273.24
496.63	273.61
496.99	273.88
497.35	274.29
497.72	274.70
498.08	275.02
498.44	275.37
498.80	275.72
499.17	276.21
499.53	276.59
499.89	277.16
500.26	277.60
500.62	278.06
500.98	278.64
501.34	279.00
501.71	279.48
502.07	279.98
502.43	280.50
502.79	280.92
503.16	281.40
503.52	282.07
503.88	282.59
504.24	283.12
504.60	283.73
504.97	284.31
505.33	284.82
505.69	285.50
506.05	286.06
506.41	286.64
506.78	287.26
507.14	287.93
507.50	288.60
507.86	289.39
508.22	290.18
508.59	290.79
508.95	291.75
509.31	292.72
509.67	293.56
510.03	294.36
510.39	295.41
510.75	296.45
511.12	297.41
511.48	298.57
511.84	299.63
512.20	300.80
512.56	302.06
512.92	303.41
513.28	304.65
513.64	306.06
514.00	307.55
514.37	309.08
514.73	310.64
515.09	312.26
515.45	313.85
515.81	315.52
516.17	317.38
516.53	319.16
516.89	321.02
517.25	323.14
517.61	325.38
517.97	327.47
518.33	329.75
518.69	332.10
519.05	334.50
519.41	337.07
519.77	339.80
520.13	342.43
520.49	345.09
520.85	347.89
521.21	350.87
521.57	353.77
521.93	356.65
522.29	359.89
522.65	363.15
523.01	366.56
523.37	369.93
523.73	373.47
524.09	377.02
524.45	380.63
524.81	384.46
525.17	388.28
525.53	392.31
525.89	396.47
526.25	400.57
526.61	404.67
526.97	409.08
527.33	413.22
527.68	417.87
528.04	422.50
528.40	427.17
528.76	431.93
529.12	436.69
529.48	441.76
529.84	446.58
530.20	451.74
530.56	457.15
530.91	462.40
531.27	467.87
531.63	473.48
531.99	478.99
532.35	484.32
532.71	489.84
533.07	495.61
533.42	501.48
533.78	507.15
534.14	513.07
534.50	518.72
534.86	524.90
535.21	530.64
535.57	536.76
535.93	543.12
536.29	549.28
536.65	555.70
537.00	561.72
537.36	568.30
537.72	574.65
538.08	580.85
538.44	587.30
538.79	593.82
539.15	599.96
539.51	606.61
539.87	613.32
540.22	620.08
540.58	626.77
540.94	633.05
541.29	639.73
541.65	646.37
542.01	653.58
542.37	660.28
542.72	667.05
543.08	673.87
543.44	680.45
543.79	687.02
544.15	693.89
544.51	701.34
544.87	708.05
545.22	714.70
545.58	721.34
545.94	727.94
546.29	734.50
546.65	741.09
547.01	747.66
547.36	754.37
547.72	760.67
548.07	767.29
548.43	773.73
548.79	780.10
549.14	786.69
549.50	792.54
549.86	798.58
550.21	804.92
550.57	811.22
550.92	817.34
551.28	823.57
551.64	829.44
551.99	835.31
552.35	841.40
552.70	847.51
553.06	853.80
553.41	860.10
553.77	866.04
554.13	872.00
554.48	877.80
554.84	883.81
555.19	889.45
555.55	895.01
555.90	900.91
556.26	906.82
556.61	912.40
556.97	917.78
557.32	923.37
557.68	928.81
558.03	934.20
558.39	939.78
558.74	945.68
559.10	950.95
559.45	955.96
559.81	961.31
560.16	966.25
560.52	971.16
560.87	976.23
561.23	981.19
561.58	986.40
561.94	991.21
562.29	995.63
562.64	1000.59
563.00	1005.27
563.35	1009.96
563.71	1014.80
564.06	1019.43
564.42	1024.23
564.77	1029.11
565.12	1033.86
565.48	1038.41
565.83	1042.47
566.19	1046.11
566.54	1050.44
566.89	1054.50
567.25	1058.39
567.60	1062.80
567.96	1066.79
568.31	1070.70
568.66	1074.30
569.02	1077.60
569.37	1081.03
569.72	1084.71
570.08	1088.03
570.43	1090.69
570.78	1093.71
571.14	1096.42
571.49	1099.23
571.84	1102.43
572.20	1104.85
572.55	1107.10
572.90	1109.06
573.26	1111.60
573.61	1114.04
573.96	1115.90
574.31	1117.66
574.67	1119.00
575.02	1120.26
575.37	1121.84
575.72	1122.70
576.08	1124.11
576.43	1125.30
576.78	1126.68
577.13	1127.62
577.49	1128.80
577.84	1130.28
578.19	1131.23
578.54	1132.04
578.90	1132.51
579.25	1132.60
579.60	1132.93
579.95	1133.30
580.30	1133.67
580.66	1133.48
581.01	1133.34
581.36	1133.65
581.71	1134.11
582.06	1134.60
582.42	1134.50
582.77	1134.40
583.12	1134.49
583.47	1134.22
583.82	1134.45
584.17	1133.91
584.53	1133.89
584.88	1133.54
585.23	1133.17
585.58	1132.66
585.93	1132.02
586.28	1131.78
586.63	1131.67
586.98	1131.33
587.34	1130.72
587.69	1130.31
588.04	1129.97
588.39	1129.69
588.74	1128.52
589.09	1127.54
589.44	1126.06
589.79	1125.60
590.14	1124.70
590.49	1123.64
590.84	1122.47
591.19	1121.13
591.54	1119.63
591.89	1117.69
592.25	1116.26
592.60	1114.73
592.95	1112.87
593.30	1111.12
593.65	1109.13
594.00	1106.98
594.35	1105.67
594.70	1103.74
595.05	1101.90
595.40	1099.84
595.75	1097.36
596.10	1095.65
596.45	1093.91
596.80	1092.52
597.15	1090.18
597.50	1088.01
597.85	1086.18
598.19	1084.61
598.54	1082.69
598.89	1081.26
599.24	1079.56
599.59	1077.61
599.94	1075.71
600.29	1073.71
600.64	1071.68
600.99	1069.59
601.34	1067.54
601.69	1064.82
602.04	1062.76
602.39	1060.56
602.74	1058.60
603.08	1056.68
603.43	1054.50
603.78	1052.05
604.13	1049.76
604.48	1047.41
604.83	1045.02
605.18	1042.62
605.53	1039.44
605.87	1036.69
606.22	1033.81
606.57	1030.97
606.92	1028.33
607.27	1025.60
607.62	1023.48
607.96	1020.95
608.31	1018.49
608.66	1015.48
609.01	1012.34
609.36	1008.85
609.70	1005.33
610.05	1001.93
610.40	998.83
610.75	995.47
611.10	992.11
611.44	988.13
611.79	984.87
612.14	981.44
612.49	977.64
612.83	974.34
613.18	970.99
613.53	967.68
613.88	963.91
614.22	960.03
614.57	956.14
614.92	951.89
615.27	948.35
615.61	944.41
615.96	940.77
616.31	937.50
616.65	934.68
617.00	931.52
617.35	928.15
617.70	924.42
618.04	920.84
618.39	917.27
618.74	914.14
619.08	910.33
619.43	906.82
619.78	903.60
620.12	900.28
620.47	896.76
620.82	892.97
621.16	889.54
621.51	886.22
621.85	882.95
622.20	879.55
622.55	875.99
622.89	872.52
623.24	869.48
623.59	865.77
623.93	862.16
624.28	858.69
624.62	855.15
624.97	852.13
625.32	849.14
625.66	845.97
626.01	842.74
626.35	839.46
626.70	835.94
627.04	832.49
627.39	828.81
627.73	825.30
628.08	821.99
628.43	818.83
628.77	815.37
629.12	811.76
629.46	808.27
629.81	804.64
630.15	800.85
630.50	797.04
630.84	793.33
631.19	789.38
631.53	785.54
631.88	781.65
632.22	777.27
632.57	773.32
632.91	769.30
633.26	765.37
633.60	761.60
633.95	757.87
634.29	754.04
634.64	750.77
634.98	747.00
635.32	743.74
635.67	740.19
636.01	736.67
636.36	733.11
636.70	729.64
637.05	726.30
637.39	723.40
637.73	720.08
638.08	717.18
638.42	714.05
638.77	710.99
639.11	707.81
639.45	704.84
639.80	701.33
640.14	698.10
640.49	694.87
640.83	691.62
641.17	688.64
641.52	685.48
641.86	681.96
642.20	678.81
642.55	675.46
642.89	672.30
643.23	669.10
643.58	666.17
643.92	663.00
644.26	659.80
644.61	656.73
644.95	653.64
645.29	650.16
645.64	646.63
645.98	643.42
646.32	640.47
646.66	637.32
647.01	634.37
647.35	631.48
647.69	628.39
648.04	625.61
648.38	622.10
648.72	618.71
649.06	615.65
649.41	612.51
649.75	609.06
650.09	605.82
650.43	602.71
650.78	599.23
651.12	596.11
651.46	592.93
651.80	589.44
652.14	586.23
652.49	583.19
652.83	580.56
653.17	577.41
653.51	574.09
653.85	570.90
654.20	567.61
654.54	564.26
654.88	561.18
655.22	557.68
655.56	554.67
655.90	551.82
656.25	548.88
656.59	545.83
656.93	542.90
657.27	539.96
657.61	536.87
657.95	534.18
658.29	531.45
658.64	528.51
658.98	525.78
659.32	522.79
659.66	519.92
660.00	516.92
660.34	513.88
660.68	511.17
661.02	508.37
661.36	505.88
661.70	503.16
662.05	500.67
662.39	498.27
662.73	495.81
663.07	493.36
663.41	490.92
663.75	488.55
664.09	486.19
664.43	483.86
664.77	481.55
665.11	479.24
665.45	476.77
665.79	474.62
666.13	472.23
666.47	469.88
666.81	467.33
667.15	464.85
667.49	462.72
667.83	460.70
668.17	458.47
668.51	456.09
668.85	453.95
669.19	451.75
669.53	449.61
669.87	447.46
670.21	445.33
670.55	443.06
670.89	441.10
671.23	439.12
671.57	437.01
671.91	434.96
672.25	432.85
672.58	430.83
672.92	428.77
673.26	426.88
673.60	425.09
673.94	423.53
674.28	422.11
674.62	420.50
674.96	418.60
675.30	416.79
675.64	415.13
675.97	413.37
676.31	411.52
676.65	409.62
676.99	408.17
677.33	406.46
677.67	404.86
678.01	402.93
678.34	401.07
678.68	399.35
679.02	397.64
679.36	395.98
679.70	394.22
680.04	392.65
680.37	390.92
680.71	389.22
681.05	387.63
681.39	385.86
681.73	384.10
682.06	382.61
682.40	381.36
682.74	379.83
683.08	378.40
683.42	376.91
683.75	375.70
684.09	374.00
684.43	372.56
684.77	371.02
685.10	369.67
685.44	368.23
685.78	366.79
686.12	365.48
686.45	364.02
686.79	362.78
687.13	361.48
687.46	360.13
687.80	358.98
688.14	357.59
688.48	356.27
688.81	354.93
689.15	353.66
689.49	352.17
689.82	350.95
690.16	349.63
690.50	348.44
690.83	346.97
691.17	345.71
691.51	344.45
691.84	343.33
692.18	342.20
692.52	341.01
692.85	339.84
693.19	338.56
693.52	337.50
693.86	336.24
694.20	334.91
694.53	333.90
694.87	332.71
695.21	331.55
695.54	330.37
695.88	329.23
696.21	327.81
696.55	326.89
696.88	325.68
697.22	324.65
697.56	323.52
697.89	322.52
698.23	321.40
698.56	320.33
698.90	319.40
699.23	318.24
699.57	317.22
699.90	316.18
700.24	315.10
700.58	314.09
700.91	313.16
701.25	312.25
701.58	311.32
701.92	310.30
702.25	309.37
702.59	308.56
702.92	307.84
703.26	307.07
703.59	306.25
703.93	305.68
704.26	304.81
704.60	304.04
704.93	303.16
705.26	302.47
705.60	301.77
705.93	300.90
706.27	300.38
706.60	299.68
706.94	299.05
707.27	298.23
707.61	297.48
707.94	296.76
708.27	296.14
708.61	295.29
708.94	294.59
709.28	293.92
709.61	293.20
709.94	292.30
710.28	291.74
710.61	291.00
710.95	290.13
711.28	289.59
711.61	288.82
711.95	288.18
712.28	287.47
712.61	286.74
712.95	286.08
713.28	285.37
713.61	284.69
713.95	283.96
714.28	283.47
714.61	282.74
714.95	282.18
715.28	281.27
715.61	280.59
715.95	280.02
716.28	279.37
716.61	278.87
716.95	278.34
717.28	277.74
717.61	277.10
717.94	276.60
718.28	275.90
718.61	275.49
718.94	274.95
719.27	274.42
719.61	273.79
719.94	273.20
720.27	272.58
720.60	272.01
720.94	271.59
721.27	271.15
721.60	270.80
721.93	270.24
722.27	270.02
722.60	269.69
722.93	269.25
723.26	268.87
723.59	268.31
723.93	267.93
724.26	267.44
724.59	266.89
724.92	266.38
725.25	265.91
725.59	265.39
725.92	264.98
726.25	264.45
726.58	264.25
726.91	263.89
727.24	263.49
727.57	263.19
727.91	262.70
728.24	262.32
728.57	261.90
728.90	261.66
729.23	261.16
729.56	260.85
729.89	260.54
730.22	260.12
730.55	259.78
730.89	259.42
731.22	259.10
731.55	258.79
731.88	258.44
732.21	258.20
732.54	257.90
732.87	257.62
733.20	257.42
733.53	257.03
733.86	256.67
734.19	256.40
734.52	256.15
734.85	255.96
735.18	255.64
735.51	255.44
735.84	255.05
736.17	254.94
736.50	254.48
736.83	254.42
737.16	254.21
737.49	254.04
737.82	253.74
738.15	253.52
738.48	253.43
738.81	253.22
739.14	252.92
739.47	252.75
739.80	252.52
740.13	252.22
740.46	251.97
740.79	251.78
741.12	251.50
741.45	251.10
741.78	250.84
742.11	250.62
742.44	250.29
742.77	250.20
743.10	249.90
743.43	249.78
743.75	249.33
744.08	249.36
744.41	249.08
744.74	248.92
745.07	248.75
745.40	248.52
745.73	248.40
746.06	248.28
746.39	248.06
746.71	247.86
747.04	247.75
747.37	247.57
747.70	247.45
748.03	247.28
748.36	247.32
748.68	247.15
749.01	247.05
749.34	246.92
749.67	246.73
750.00	246.67
750.33	246.69
750.65	246.45
750.98	245.98
751.31	245.79
751.64	245.61
751.97	245.43
752.29	245.29
752.62	245.04
752.95	244.91
753.28	244.70
753.60	244.48
753.93	244.23
754.26	244.04
754.59	243.88
754.91	243.72
755.24	243.54
755.57	243.29
755.90	243.06
756.22	242.78
756.55	242.53
756.88	242.20
757.20	241.81
757.53	241.68
757.86	241.63
758.19	241.50
758.51	241.34
758.84	241.09
759.17	240.83
759.49	240.70
759.82	240.61
760.15	240.48
760.47	240.40
760.80	240.23
761.13	240.19
761.45	239.99
761.78	239.82
762.11	239.61
762.43	239.50
762.76	239.41
763.08	239.37
763.41	239.22
763.74	239.10
764.06	239.01
764.39	238.89
764.71	238.64
765.04	238.50
765.37	238.33
765.69	238.19
766.02	238.10
766.34	237.92
766.67	237.66
767.00	237.59
767.32	237.46
767.65	237.41
767.97	237.25
768.30	237.13
768.62	237.00
768.95	236.91
769.27	236.74
769.60	236.65
769.92	236.50
770.25	236.33
770.57	236.15
770.90	236.04
771.22	235.84
771.55	235.74
771.87	235.64
772.20	235.50
772.52	235.53
772.85	235.61
773.17	235.51
773.50	235.39
773.82	235.20
774.15	235.08
774.47	234.90
774.80	234.74
775.12	234.66
775.45	234.60
775.77	234.45
776.09	234.49
776.42	234.30
776.74	234.35
777.07	234.32
777.39	234.37
777.72	234.34
778.04	234.41
778.36	234.39
778.69	234.37
779.01	234.35
779.33	234.25
779.66	234.02
779.98	234.00
780.31	233.86
780.63	233.89
780.95	233.81
781.28	233.84
781.60	233.81
781.92	233.77
782.25	233.70
782.57	233.61
782.89	233.60
783.22	233.60
783.54	233.47
783.86	233.42
784.19	233.38
784.51	233.30
784.83	233.21
785.16	233.23
785.48	233.25
785.80	233.24
786.12	233.23
786.45	233.23
786.77	233.17
787.09	233.28
787.42	233.26
787.74	233.29
788.06	233.24
788.38	233.21
788.71	233.20
789.03	233.25
789.35	233.33
789.67	233.24
789.99	233.20
790.32	233.17
790.64	233.16
790.96	233.21
791.28	233.20
791.61	233.20
791.93	233.20
792.25	233.13
792.57	233.18
792.89	233.13
793.21	233.10
793.54	233.13
793.86	233.08
794.18	233.01
794.50	233.01
794.82	232.99
795.14	232.99
795.47	232.89
795.79	232.81
796.11	232.77
796.43	232.65
796.75	232.66
797.07	232.64
797.39	232.73
797.71	232.60
798.04	232.59
798.36	232.52
798.68	232.39
799.00	232.25
799.32	232.22
799.64	232.21
799.96	232.17
800.28	232.06
800.60	231.99
800.92	231.96
801.24	231.78
801.56	231.69
801.89	231.59
802.21	231.60
802.53	231.52
802.85	231.50
803.17	231.55
803.49	231.45
803.81	231.36
804.13	231.15
804.45	231.10
804.77	230.95
805.09	230.93
805.41	230.84
805.73	230.88
806.05	230.72
806.37	230.62
806.69	230.45
807.01	230.34
807.33	230.28
807.65	230.16
807.97	230.20
808.28	230.14
808.60	230.12
808.92	229.93
809.24	230.02
809.56	229.96
809.88	229.92
810.20	229.90
810.52	229.88
810.84	229.75
811.16	229.67
811.48	229.65
811.80	229.64
812.12	229.71
812.43	229.63
812.75	229.63
813.07	229.53
813.39	229.55
813.71	229.61
814.03	229.55
814.35	229.45
814.67	229.39
814.98	229.35
815.30	229.42
815.62	229.46
815.94	229.24
816.26	229.31
816.58	229.26
816.89	229.17
817.21	229.16
817.53	229.28
817.85	229.31
818.17	229.30
818.48	229.17
818.80	229.06
819.12	229.02
819.44	228.99
819.76	229.05
820.07	229.01
820.39	229.09
820.71	229.22
821.03	229.32
821.34	229.30
821.66	229.41
821.98	229.32
822.30	229.40
822.61	229.56
822.93	229.45
823.25	229.59
823.57	229.63
823.88	229.56
824.20	229.65
824.52	229.65
824.83	229.69
825.15	229.73
825.47	229.84
825.79	229.93
826.10	229.94
826.42	229.85
826.74	229.88
827.05	229.81
827.37	229.76
827.69	229.71
828.00	229.82
828.32	229.83
828.64	229.80
828.95	229.81
829.27	229.85
829.58	229.85
829.90	229.72
830.22	229.83
830.53	229.91
830.85	229.79
831.17	229.79
831.48	229.81
831.80	229.88
832.11	229.80
832.43	229.71
832.75	229.68
833.06	229.82
833.38	229.83
833.69	229.78
834.01	229.83
834.32	229.91
834.64	229.80
834.96	229.72
835.27	229.75
835.59	229.80
835.90	229.72
836.22	229.73
836.53	229.77
836.85	229.68
837.16	229.82
837.48	229.79
837.79	229.82
838.11	229.82
838.42	229.70
838.74	229.75
839.05	229.82
839.37	229.85
839.68	229.77
840.00	229.70
840.31	229.72
840.63	229.51
840.94	229.50
841.26	229.50
841.57	229.50
841.88	229.54
842.20	229.40
842.51	229.35
842.83	229.28
843.14	229.30
843.46	229.32
843.77	229.17
844.08	229.12
844.40	229.05
844.71	229.01
845.03	228.90
845.34	228.82
845.65	228.71
845.97	228.72
846.28	228.74
846.60	228.78
846.91	228.72
847.22	228.76
847.54	228.73
847.85	228.61
848.16	228.53
848.48	228.40
848.79	228.46
849.10	228.49
849.42	228.56
849.73	228.40
850.04	228.30
850.36	228.20
850.67	228.18
850.98	228.16
851.30	228.12
851.61	228.14
851.92	228.21
852.23	228.38
852.55	228.37
852.86	228.27
853.17	228.17
853.49	228.22
853.80	228.38
854.11	228.30
854.42	228.45
854.74	228.49
855.05	228.51
855.36	228.40
855.67	228.42
855.99	228.27
856.30	228.56
856.61	228.53
856.92	228.53
857.23	228.60
857.55	228.54
857.86	228.49
858.17	228.66
858.48	228.60
858.79	228.45
859.11	228.37
859.42	228.44
859.73	228.49
860.04	228.46
860.35	228.39
860.66	228.47
860.98	228.41
861.29	228.31
861.60	228.26
861.91	228.31
862.22	228.21
862.53	228.35
862.84	228.03
863.16	228.14
863.47	228.15
863.78	228.17
864.09	228.26
864.40	228.45
864.71	228.25
865.02	228.27
865.33	228.27
865.64	228.27
865.95	228.30
866.27	228.50
866.58	228.52
866.89	228.51
867.20	228.41
867.51	228.45
867.82	228.60
868.13	228.70
868.44	228.70
868.75	228.75
869.06	228.76
869.37	228.89
869.68	228.90
869.99	228.87
870.30	229.02
870.61	229.07
870.92	228.93
871.23	228.97
871.54	229.03
871.85	229.07
872.16	229.16
872.47	229.00
872.78	228.87
873.09	228.83
873.40	228.76
873.71	228.73
874.02	228.71
874.33	228.76
874.64	228.72
874.95	228.74
875.26	228.83
875.56	228.79
875.87	228.77
876.18	228.70
876.49	228.93
876.80	228.72
877.11	228.63
877.42	228.62
877.73	228.72
878.04	228.66
878.35	228.73
878.66	228.68
878.96	228.79
879.27	228.71
879.58	228.71
879.89	228.73
880.20	228.87
880.51	228.91
880.82	228.81
881.12	228.74
881.43	228.72
881.74	228.62
882.05	228.57
882.36	228.48
882.67	228.53
882.97	228.30
883.28	228.30
883.59	228.24
883.90	228.19
884.21	228.24
884.51	228.15
884.82	228.03
885.13	228.06
885.44	227.98
885.74	228.13
886.05	228.19
886.36	228.21
886.67	228.09
886.98	228.14
887.28	228.08
887.59	228.14
887.90	228.05
888.20	228.04
888.51	227.97
888.82	228.02
889.13	227.96
889.43	228.07
889.74	228.07
890.05	228.13
890.35	228.20
890.66	228.16
890.97	228.23
891.28	228.20
891.58	228.22
891.89	228.19
892.20	228.13
892.50	228.03
892.81	228.03
893.12	228.03
893.42	227.92
893.73	228.05
894.04	228.02
894.34	228.11
894.65	228.10
894.95	228.24
895.26	228.17
895.57	228.29
895.87	228.17
896.18	228.17
896.48	228.30
896.79	228.21
897.10	228.28
897.40	228.25
897.71	228.34
898.01	228.24
898.32	228.31
898.63	228.29
898.93	228.23
899.24	228.10
899.54	228.22
899.85	228.15
900.15	228.00
900.46	228.01
900.76	227.93
901.07	227.84
901.38	227.84
901.68	227.91
901.99	227.74
902.29	227.73
902.60	227.75
902.90	227.58
903.21	227.53
903.51	227.49
903.82	227.59
904.12	227.48
904.43	227.57
904.73	227.57
905.03	227.53
905.34	227.80
905.64	227.87
905.95	227.79
906.25	227.85
906.56	227.93
906.86	228.00
907.17	228.02
907.47	228.04
907.77	227.92
908.08	227.91
908.38	227.86
908.69	227.89
908.99	227.86
909.30	227.82
909.60	227.88
909.90	227.86
910.21	227.63
910.51	227.65
910.81	227.60
911.12	227.56
911.42	227.57
911.73	227.37
912.03	227.43
912.33	227.50
912.64	227.48
912.94	227.44
913.24	227.38
913.55	227.40
913.85	227.41
914.15	227.41
914.46	227.40
914.76	227.41
915.06	227.41
915.37	227.36
915.67	227.44
915.97	227.50
916.27	227.48
916.58	227.67
916.88	227.74
917.18	227.78
917.49	227.93
917.79	227.82
918.09	227.91
918.39	227.97
918.70	227.84
919.00	227.85
919.30	227.84
919.60	227.89
919.91	227.85
920.21	227.90
920.51	227.94
920.81	227.90
921.12	227.95
921.42	228.03
921.72	228.15
922.02	228.18
922.32	228.13
922.63	228.05
922.93	228.11
923.23	228.09
923.53	228.01
923.83	227.94
924.13	228.09
924.44	228.00
924.74	227.95
925.04	228.10
925.34	228.05
925.64	228.01
925.94	227.94
926.24	228.05
926.55	228.07
926.85	228.10
927.15	228.18
927.45	228.28
927.75	228.28
928.05	228.28
928.35	228.25
928.65	228.40
928.95	228.40
929.26	228.34
929.56	228.35
929.86	228.40
930.16	228.47
930.46	228.49
930.76	228.51
931.06	228.47
931.36	228.32
931.66	228.44
931.96	228.62
932.26	228.60
932.56	228.59
932.86	228.61
933.16	228.60
933.46	228.54
933.76	228.49
934.06	228.41
934.36	228.45
934.66	228.46
934.96	228.42
935.26	228.54
935.56	228.57
935.86	228.61
936.16	228.62
936.46	228.57
936.76	228.50
937.06	228.54
937.36	228.58
937.66	228.69
937.96	228.66
938.26	228.61
938.56	228.65
938.86	228.60
939.16	228.60
939.46	228.65
939.76	228.65
940.06	228.57
940.35	228.63
940.65	228.63
940.95	228.61
941.25	228.58
941.55	228.50
941.85	228.46
942.15	228.48
942.45	228.56
942.75	228.54
943.04	228.52
943.34	228.53
943.64	228.51
943.94	228.48
944.24	228.48
944.54	228.50
944.84	228.47
945.13	228.43
945.43	228.34
945.73	228.40
946.03	228.50
946.33	228.60
946.62	228.54
946.92	228.41
947.22	228.43
947.52	228.35
947.82	228.40
948.11	228.50
948.41	228.46
948.71	228.35
949.01	228.31
949.31	228.35
949.60	228.33
949.90	228.37
950.20	228.42
950.50	228.43
950.79	228.31
951.09	228.46
951.39	228.50
951.69	228.55
951.98	228.50
952.28	228.43
952.58	228.38
952.87	228.45
953.17	228.56
953.47	228.56
953.76	228.66
954.06	228.62
954.36	228.48
954.66	228.43
954.95	228.45
955.25	228.43
955.55	228.46
955.84	228.51
956.14	228.58
956.44	228.55
956.73	228.45
957.03	228.49
957.32	228.45
957.62	228.49
957.92	228.53
958.21	228.44
958.51	228.67
958.81	228.68
959.10	228.63
959.40	228.68
959.69	228.57
959.99	228.54
960.29	228.45
960.58	228.46
960.88	228.53
961.17	228.51
961.47	228.55
961.76	228.50
962.06	228.47
962.36	228.33
962.65	228.37
962.95	228.45
963.24	228.50
963.54	228.41
963.83	228.39
964.13	228.35
964.42	228.29
964.72	228.13
965.01	228.10
965.31	228.05
965.60	227.90
965.90	228.07
966.19	228.10
966.49	228.21
966.78	228.23
967.08	228.21
967.37	228.23
967.67	228.12
967.96	228.12
968.26	228.17
968.55	228.23
968.85	228.13
969.14	228.09
969.43	228.00
969.73	227.92
970.02	227.97
970.32	227.91
970.61	227.94
970.91	227.89
971.20	227.93
971.49	228.03
971.79	228.05
972.08	227.95
972.38	227.86
972.67	227.83
972.96	227.83
973.26	227.80
973.55	227.94
973.85	227.94
974.14	227.90
974.43	227.91
974.73	227.94
975.02	227.98
975.31	228.01
975.61	228.10
975.90	228.14
976.19	228.08
976.49	228.19
976.78	228.29
977.07	228.28
977.37	228.26
977.66	228.22
977.95	228.27
978.24	228.32
978.54	228.45
978.83	228.42
979.12	228.43
979.42	228.48
979.71	228.42
980.00	228.52
980.29	228.60
980.59	228.54
980.88	228.63
981.17	228.57
981.46	228.63
981.76	228.63
982.05	228.73
982.34	228.72
982.63	228.73
982.93	228.66
983.22	228.75
983.51	228.84
983.80	228.96
984.09	228.98
984.39	228.94
984.68	228.85
984.97	228.82
985.26	228.81
985.55	228.76
985.85	228.70
986.14	228.67
986.43	228.64
986.72	228.66
987.01	228.54
987.30	228.65
987.59	228.56
987.89	228.52
988.18	228.45
988.47	228.50
988.76	228.50
989.05	228.57
989.34	228.44
989.63	228.41
989.92	228.34
990.22	228.31
990.51	228.22
990.80	228.21
991.09	228.34
991.38	228.31
991.67	228.30
991.96	228.37
992.25	228.41
992.54	228.32
992.83	228.33
993.12	228.31
993.41	228.30
993.70	228.41
993.99	228.50
994.28	228.55
994.58	228.60
994.87	228.51
995.16	228.53
995.45	228.58
995.74	228.53
996.03	228.49
996.32	228.53
996.61	228.59
996.90	228.60
997.19	228.51
997.48	228.52
997.77	228.50
998.06	228.43
998.34	228.39
998.63	228.49
998.92	228.46
999.21	228.48
999.50	228.42
999.79	228.32
1000.08	228.25
1000.37	228.23
1000.66	228.17
1000.95	228.19
1001.24	228.11
1001.53	228.13
1001.82	228.11
1002.11	228.17
1002.40	228.12
1002.68	228.20
1002.97	228.33
1003.26	228.28
1003.55	228.30
1003.84	228.29
1004.13	228.35
1004.42	228.38
1004.71	228.30
1004.99	228.31
1005.28	228.37
1005.57	228.32
1005.86	228.42
1006.15	228.38
1006.44	228.43
1006.72	228.41
1007.01	228.46
1007.30	228.49
1007.59	228.53
1007.88	228.55
1008.17	228.56
1008.45	228.58
1008.74	228.51
1009.03	228.58
1009.32	228.66
1009.60	228.69
1009.89	228.74
1010.18	228.62
1010.47	228.57
1010.76	228.65
1011.04	228.61
1011.33	228.69
1011.62	228.79
1011.91	228.71
1012.19	228.72
1012.48	228.67
1012.77	228.62
1013.05	228.60
1013.34	228.56
1013.63	228.46
1013.92	228.52
1014.20	228.43
1014.49	228.43
1014.78	228.40
1015.06	228.32
1015.35	228.34
1015.64	228.35
1015.92	228.37
1016.21	228.40
1016.50	228.41
1016.78	228.48
1017.07	228.59
1017.36	228.44
1017.64	228.36
1017.93	228.37
1018.22	228.30
1018.50	228.31
1018.79	228.44
1019.08	228.45
1019.36	228.48
1019.65	228.53
1019.93	228.63
1020.22	228.63
1020.51	228.72
1020.79	228.79
1021.08	226.60
1021.36	227.90
1021.65	229.70
1021.94	229.20
1022.22	228.00
1022.51	228.70
1022.79	231.20
1023.08	227.40
1023.36	231.10
1023.65	228.60
>>>>>End Processed Spectral Data<<<<<
