SpectraSuite Data File
++++++++++++++++++++++++++++++++++++
Date: Fri Feb 01 14:40:20 EST 2013
User: group
Dark Spectrum Present: No
Reference Spectrum Present: No
Number of Sampled Component Spectra: 1
Spectrometers: USB2E7196
Integration Time (usec): 70000 (USB2E7196)
Spectra Averaged: 10 (USB2E7196)
Boxcar Smoothing: 10 (USB2E7196)
Correct for Electrical Dark: No (USB2E7196)
Strobe/Lamp Enabled: No (USB2E7196)
Correct for Detector Non-linearity: No (USB2E7196)
Correct for Stray Light: No (USB2E7196)
Number of Pixels in Processed Spectrum: 2048
>>>>>Begin Processed Spectral Data<<<<<
339.09	0.00
339.48	215.80
339.86	216.20
340.24	219.10
340.63	219.00
341.01	223.80
341.39	221.80
341.78	223.50
342.16	227.00
342.54	225.10
342.93	214.11
343.31	224.98
343.69	225.59
344.07	226.10
344.46	226.52
344.84	226.94
345.22	227.15
345.60	227.47
345.99	227.70
346.37	227.78
346.75	227.89
347.13	228.06
347.52	228.13
347.90	228.22
348.28	228.19
348.66	228.16
349.05	228.22
349.43	228.30
349.81	228.27
350.19	228.30
350.57	228.35
350.96	228.47
351.34	228.50
351.72	228.50
352.10	228.63
352.48	228.74
352.87	228.75
353.25	228.76
353.63	228.79
354.01	228.76
354.39	228.83
354.77	228.95
355.15	229.03
355.54	229.13
355.92	229.18
356.30	229.27
356.68	229.57
357.06	229.68
357.44	229.70
357.82	229.80
358.20	229.86
358.58	229.90
358.97	229.90
359.35	230.05
359.73	230.23
360.11	230.24
360.49	230.25
360.87	230.32
361.25	230.48
361.63	230.54
362.01	230.66
362.39	230.73
362.77	230.70
363.15	230.80
363.53	230.76
363.91	230.82
364.29	230.90
364.67	230.73
365.05	230.69
365.43	230.75
365.81	230.86
366.19	230.96
366.57	231.09
366.95	231.20
367.33	231.13
367.71	230.95
368.09	230.90
368.47	230.90
368.85	230.91
369.23	230.84
369.61	230.83
369.99	230.81
370.37	230.70
370.75	230.84
371.13	230.65
371.51	230.59
371.89	230.60
372.27	230.58
372.65	230.47
373.03	230.41
373.41	230.28
373.78	230.07
374.16	229.94
374.54	229.72
374.92	229.60
375.30	229.44
375.68	229.40
376.06	229.37
376.44	229.30
376.82	229.22
377.19	229.14
377.57	229.00
377.95	228.91
378.33	228.92
378.71	228.73
379.09	228.71
379.47	228.77
379.84	228.57
380.22	228.42
380.60	228.30
380.98	228.27
381.36	228.21
381.73	228.15
382.11	228.13
382.49	228.08
382.87	227.90
383.25	227.87
383.62	228.07
384.00	228.03
384.38	227.92
384.76	227.98
385.13	228.03
385.51	227.95
385.89	227.95
386.27	227.83
386.64	227.69
387.02	227.61
387.40	227.38
387.78	227.40
388.15	227.38
388.53	227.37
388.91	227.27
389.29	227.17
389.66	227.17
390.04	227.08
390.42	227.10
390.79	227.06
391.17	227.08
391.55	226.87
391.92	226.80
392.30	226.73
392.68	226.55
393.05	226.47
393.43	226.54
393.81	226.49
394.18	226.44
394.56	226.53
394.94	226.58
395.31	226.69
395.69	226.78
396.06	226.81
396.44	226.84
396.82	226.84
397.19	227.01
397.57	226.98
397.95	227.03
398.32	227.02
398.70	227.13
399.07	227.13
399.45	227.14
399.82	227.20
400.20	227.36
400.58	227.51
400.95	227.51
401.33	227.55
401.70	227.75
402.08	227.90
402.45	228.04
402.83	228.20
403.20	228.24
403.58	228.23
403.95	228.36
404.33	228.58
404.71	228.82
405.08	229.05
405.46	229.20
405.83	229.37
406.21	229.54
406.58	229.75
406.96	229.96
407.33	230.11
407.70	230.39
408.08	230.71
408.45	230.95
408.83	231.26
409.20	231.54
409.58	231.71
409.95	231.98
410.33	232.18
410.70	232.49
411.08	232.79
411.45	233.19
411.82	233.43
412.20	233.75
412.57	234.15
412.95	234.36
413.32	234.81
413.69	235.23
414.07	235.72
414.44	236.16
414.82	236.72
415.19	237.20
415.56	237.72
415.94	238.20
416.31	238.82
416.68	239.34
417.06	240.10
417.43	240.76
417.81	241.54
418.18	242.40
418.55	243.23
418.93	244.08
419.30	244.95
419.67	245.93
420.04	246.82
420.42	247.79
420.79	248.95
421.16	250.05
421.54	251.30
421.91	252.35
422.28	253.61
422.66	254.90
423.03	256.31
423.40	257.49
423.77	258.90
424.15	260.31
424.52	261.89
424.89	263.37
425.26	264.90
425.64	266.26
426.01	267.76
426.38	269.26
426.75	270.98
427.13	272.70
427.50	274.37
427.87	276.31
428.24	278.22
428.61	279.97
428.99	281.96
429.36	283.84
429.73	285.96
430.10	287.81
430.47	289.86
430.85	291.99
431.22	294.36
431.59	296.65
431.96	298.80
432.33	301.19
432.70	303.44
433.08	306.26
433.45	308.91
433.82	311.51
434.19	314.46
434.56	317.20
434.93	319.70
435.30	322.34
435.68	325.00
436.05	327.54
436.42	330.24
436.79	332.81
437.16	335.68
437.53	338.42
437.90	341.34
438.27	343.99
438.64	346.75
439.01	349.37
439.38	351.70
439.75	353.96
440.13	356.58
440.50	359.08
440.87	360.86
441.24	362.82
441.61	365.06
441.98	366.47
442.35	368.28
442.72	370.18
443.09	372.01
443.46	373.32
443.83	374.05
444.20	374.56
444.57	375.22
444.94	375.52
445.31	375.99
445.68	376.58
446.05	376.69
446.42	376.28
446.79	375.70
447.16	375.30
447.53	375.00
447.90	373.65
448.27	372.49
448.64	370.98
449.01	369.93
449.37	367.89
449.74	366.07
450.11	364.02
450.48	361.54
450.85	358.99
451.22	356.70
451.59	354.79
451.96	353.00
452.33	350.57
452.70	348.12
453.07	345.23
453.43	342.09
453.80	339.30
454.17	336.68
454.54	334.20
454.91	331.41
455.28	328.70
455.65	326.39
456.02	324.16
456.38	322.09
456.75	319.36
457.12	317.02
457.49	314.84
457.86	312.50
458.23	310.72
458.59	308.67
458.96	306.62
459.33	304.63
459.70	302.71
460.07	301.07
460.43	299.40
460.80	297.87
461.17	296.57
461.54	295.06
461.91	293.64
462.27	292.21
462.64	290.96
463.01	289.52
463.38	288.23
463.74	286.52
464.11	285.16
464.48	284.18
464.85	283.16
465.21	282.19
465.58	281.35
465.95	280.21
466.32	279.34
466.68	278.28
467.05	277.33
467.42	276.39
467.78	275.50
468.15	274.45
468.52	273.63
468.88	272.59
469.25	271.78
469.62	271.08
469.98	270.29
470.35	269.57
470.72	269.02
471.08	268.17
471.45	267.64
471.82	267.20
472.18	266.48
472.55	265.92
472.92	265.29
473.28	264.53
473.65	263.97
474.02	263.43
474.38	263.06
474.75	262.64
475.11	262.17
475.48	261.75
475.85	261.39
476.21	261.02
476.58	260.59
476.94	260.30
477.31	259.87
477.67	259.55
478.04	259.18
478.41	258.93
478.77	258.89
479.14	258.58
479.50	258.30
479.87	258.11
480.23	257.91
480.60	257.70
480.96	257.53
481.33	257.49
481.69	257.30
482.06	257.15
482.42	256.98
482.79	256.72
483.15	256.57
483.52	256.55
483.88	256.58
484.25	256.62
484.61	256.62
484.98	256.63
485.34	256.72
485.71	256.83
486.07	256.66
486.44	256.50
486.80	256.54
487.17	256.52
487.53	256.71
487.90	256.89
488.26	257.19
488.62	257.37
488.99	257.43
489.35	257.61
489.72	257.78
490.08	258.09
490.44	258.55
490.81	258.85
491.17	259.26
491.54	259.58
491.90	260.02
492.26	260.37
492.63	260.88
492.99	261.35
493.36	261.84
493.72	262.58
494.08	263.22
494.45	264.10
494.81	264.82
495.17	265.47
495.54	266.27
495.90	267.02
496.26	268.05
496.63	269.11
496.99	270.21
497.35	271.36
497.72	272.58
498.08	273.65
498.44	275.07
498.80	276.42
499.17	277.89
499.53	279.30
499.89	280.90
500.26	282.43
500.62	284.08
500.98	285.79
501.34	287.64
501.71	289.51
502.07	291.40
502.43	293.48
502.79	295.61
503.16	297.85
503.52	300.30
503.88	302.72
504.24	305.18
504.60	307.79
504.97	310.55
505.33	313.22
505.69	316.40
506.05	319.36
506.41	322.46
506.78	325.63
507.14	329.03
507.50	332.61
507.86	336.31
508.22	340.19
508.59	344.12
508.95	348.30
509.31	352.68
509.67	356.88
510.03	361.30
510.39	366.10
510.75	370.81
511.12	375.57
511.48	380.50
511.84	385.74
512.20	391.01
512.56	396.54
512.92	402.38
513.28	407.99
513.64	413.96
514.00	420.12
514.37	426.51
514.73	432.77
515.09	439.26
515.45	445.96
515.81	452.60
516.17	459.53
516.53	466.50
516.89	473.50
517.25	480.99
517.61	488.39
517.97	495.78
518.33	503.64
518.69	511.51
519.05	519.71
519.41	527.91
519.77	536.52
520.13	544.96
520.49	553.53
520.85	562.20
521.21	571.03
521.57	580.04
521.93	588.76
522.29	598.25
522.65	607.28
523.01	616.60
523.37	626.05
523.73	635.56
524.09	645.00
524.45	654.78
524.81	664.85
525.17	675.16
525.53	685.26
525.89	695.40
526.25	705.84
526.61	716.14
526.97	726.73
527.33	737.00
527.68	747.75
528.04	758.44
528.40	769.26
528.76	780.36
529.12	791.36
529.48	802.47
529.84	812.93
530.20	824.51
530.56	836.25
530.91	847.99
531.27	859.60
531.63	871.40
531.99	883.02
532.35	894.41
532.71	905.75
533.07	917.85
533.42	929.74
533.78	941.27
534.14	952.80
534.50	964.20
534.86	976.19
535.21	987.67
535.57	999.46
535.93	1011.27
536.29	1023.02
536.65	1034.77
537.00	1046.63
537.36	1058.78
537.72	1070.26
538.08	1081.38
538.44	1092.75
538.79	1104.16
539.15	1115.33
539.51	1126.84
539.87	1138.12
540.22	1149.68
540.58	1161.00
540.94	1171.91
541.29	1183.13
541.65	1194.38
542.01	1205.96
542.37	1216.76
542.72	1227.59
543.08	1238.22
543.44	1248.98
543.79	1258.94
544.15	1269.38
544.51	1280.08
544.87	1290.84
545.22	1301.30
545.58	1311.45
545.94	1321.21
546.29	1331.05
546.65	1340.89
547.01	1350.62
547.36	1360.04
547.72	1369.21
548.07	1378.47
548.43	1387.63
548.79	1396.60
549.14	1405.25
549.50	1413.50
549.86	1422.01
550.21	1430.65
550.57	1439.54
550.92	1448.00
551.28	1456.32
551.64	1464.48
551.99	1472.59
552.35	1479.70
552.70	1487.60
553.06	1495.79
553.41	1503.61
553.77	1511.74
554.13	1519.11
554.48	1526.46
554.84	1533.69
555.19	1540.73
555.55	1547.38
555.90	1554.23
556.26	1560.94
556.61	1567.80
556.97	1574.11
557.32	1580.79
557.68	1587.33
558.03	1593.19
558.39	1599.10
558.74	1605.58
559.10	1611.67
559.45	1617.28
559.81	1624.30
560.16	1629.48
560.52	1634.67
560.87	1640.37
561.23	1645.16
561.58	1650.50
561.94	1655.55
562.29	1660.30
562.64	1665.14
563.00	1670.02
563.35	1675.02
563.71	1680.43
564.06	1685.45
564.42	1690.09
564.77	1694.44
565.12	1698.83
565.48	1703.30
565.83	1707.37
566.19	1711.08
566.54	1714.69
566.89	1718.15
567.25	1720.91
567.60	1725.32
567.96	1728.65
568.31	1731.78
568.66	1734.93
569.02	1737.86
569.37	1740.43
569.72	1743.61
570.08	1746.01
570.43	1748.35
570.78	1750.48
571.14	1751.61
571.49	1753.09
571.84	1755.43
572.20	1756.45
572.55	1757.30
572.90	1758.15
573.26	1759.73
573.61	1760.90
573.96	1761.52
574.31	1761.82
574.67	1761.85
575.02	1761.08
575.37	1761.16
575.72	1760.31
576.08	1759.93
576.43	1759.56
576.78	1759.10
577.13	1758.23
577.49	1757.76
577.84	1756.45
578.19	1755.64
578.54	1754.54
578.90	1753.26
579.25	1751.13
579.60	1750.03
579.95	1748.09
580.30	1746.19
580.66	1743.19
581.01	1740.94
581.36	1738.89
581.71	1737.16
582.06	1735.20
582.42	1732.98
582.77	1730.50
583.12	1728.14
583.47	1725.83
583.82	1723.80
584.17	1721.36
584.53	1719.17
584.88	1716.94
585.23	1714.43
585.58	1711.60
585.93	1709.22
586.28	1706.85
586.63	1704.73
586.98	1702.41
587.34	1700.29
587.69	1698.06
588.04	1696.06
588.39	1693.40
588.74	1689.82
589.09	1686.28
589.44	1682.46
589.79	1679.26
590.14	1676.16
590.49	1673.29
590.84	1669.86
591.19	1666.10
591.54	1661.83
591.89	1657.19
592.25	1653.40
592.60	1649.05
592.95	1644.41
593.30	1639.76
593.65	1635.12
594.00	1630.55
594.35	1626.29
594.70	1621.03
595.05	1616.23
595.40	1611.24
595.75	1606.12
596.10	1602.36
596.45	1598.85
596.80	1595.55
597.15	1591.53
597.50	1587.20
597.85	1583.07
598.19	1578.80
598.54	1574.72
598.89	1570.89
599.24	1567.62
599.59	1563.24
599.94	1559.62
600.29	1555.91
600.64	1551.56
600.99	1546.88
601.34	1542.48
601.69	1537.33
602.04	1533.48
602.39	1528.89
602.74	1524.96
603.08	1521.15
603.43	1516.70
603.78	1511.69
604.13	1506.33
604.48	1501.43
604.83	1496.78
605.18	1491.91
605.53	1486.56
605.87	1480.94
606.22	1476.22
606.57	1470.65
606.92	1465.12
607.27	1460.03
607.62	1455.00
607.96	1450.26
608.31	1445.41
608.66	1440.00
609.01	1434.57
609.36	1428.91
609.70	1423.05
610.05	1416.85
610.40	1410.97
610.75	1404.80
611.10	1398.81
611.44	1392.80
611.79	1387.06
612.14	1380.46
612.49	1373.57
612.83	1367.50
613.18	1361.47
613.53	1355.43
613.88	1349.03
614.22	1342.86
614.57	1336.36
614.92	1329.83
615.27	1324.10
615.61	1317.50
615.96	1311.52
616.31	1305.86
616.65	1300.41
617.00	1294.63
617.35	1288.96
617.70	1282.72
618.04	1276.40
618.39	1270.37
618.74	1264.96
619.08	1258.56
619.43	1253.03
619.78	1247.62
620.12	1242.06
620.47	1236.15
620.82	1229.57
621.16	1223.85
621.51	1218.03
621.85	1212.33
622.20	1206.26
622.55	1199.99
622.89	1194.46
623.24	1188.69
623.59	1182.86
623.93	1177.11
624.28	1171.64
624.62	1165.67
624.97	1160.10
625.32	1155.07
625.66	1149.67
626.01	1143.70
626.35	1137.79
626.70	1132.14
627.04	1126.64
627.39	1120.55
627.73	1114.74
628.08	1109.02
628.43	1103.02
628.77	1097.17
629.12	1091.23
629.46	1085.48
629.81	1079.23
630.15	1073.35
630.50	1067.14
630.84	1061.00
631.19	1054.37
631.53	1048.07
631.88	1041.69
632.22	1035.25
632.57	1029.02
632.91	1022.90
633.26	1016.79
633.60	1010.91
633.95	1004.85
634.29	999.21
634.64	993.66
634.98	987.62
635.32	982.40
635.67	977.12
636.01	971.78
636.36	966.20
636.70	961.08
637.05	956.03
637.39	950.79
637.73	945.90
638.08	941.07
638.42	936.14
638.77	931.32
639.11	926.34
639.45	921.51
639.80	916.37
640.14	910.96
640.49	905.88
640.83	901.00
641.17	895.94
641.52	890.45
641.86	885.30
642.20	880.65
642.55	875.35
642.89	870.43
643.23	865.29
643.58	860.58
643.92	855.39
644.26	850.28
644.61	845.55
644.95	840.04
645.29	834.37
645.64	829.21
645.98	824.16
646.32	819.29
646.66	814.40
647.01	809.50
647.35	804.79
647.69	799.96
648.04	795.32
648.38	789.99
648.72	784.69
649.06	779.91
649.41	775.17
649.75	770.39
650.09	765.23
650.43	760.40
650.78	755.08
651.12	750.19
651.46	745.54
651.80	740.67
652.14	736.31
652.49	731.78
652.83	727.25
653.17	722.38
653.51	717.62
653.85	712.79
654.20	708.15
654.54	703.36
654.88	698.67
655.22	693.74
655.56	689.43
655.90	685.42
656.25	680.80
656.59	676.43
656.93	672.08
657.27	667.88
657.61	663.28
657.95	659.25
658.29	654.92
658.64	650.50
658.98	646.09
659.32	641.47
659.66	637.26
660.00	633.08
660.34	628.92
660.68	624.90
661.02	621.02
661.36	617.04
661.70	613.26
662.05	609.50
662.39	605.70
662.73	601.99
663.07	598.23
663.41	594.73
663.75	590.90
664.09	587.20
664.43	583.44
664.77	580.17
665.11	576.72
665.45	573.39
665.79	569.93
666.13	566.36
666.47	563.13
666.81	559.57
667.15	556.02
667.49	552.57
667.83	549.54
668.17	546.11
668.51	542.75
668.85	539.35
669.19	536.21
669.53	533.21
669.87	530.03
670.21	526.95
670.55	523.65
670.89	520.89
671.23	517.91
671.57	515.15
671.91	512.10
672.25	508.95
672.58	505.97
672.92	503.16
673.26	500.63
673.60	497.96
673.94	495.68
674.28	493.30
674.62	490.90
674.96	488.19
675.30	485.78
675.64	483.32
675.97	480.97
676.31	478.45
676.65	475.82
676.99	473.62
677.33	471.07
677.67	468.67
678.01	465.88
678.34	463.53
678.68	460.90
679.02	458.44
679.36	456.19
679.70	453.84
680.04	451.57
680.37	449.04
680.71	446.77
681.05	444.29
681.39	441.98
681.73	439.88
682.06	437.80
682.40	435.70
682.74	433.58
683.08	431.44
683.42	429.30
683.75	427.21
684.09	424.88
684.43	423.02
684.77	421.08
685.10	419.08
685.44	416.97
685.78	415.18
686.12	413.29
686.45	411.28
686.79	409.40
687.13	407.43
687.46	405.52
687.80	403.52
688.14	401.47
688.48	399.52
688.81	397.51
689.15	395.72
689.49	393.80
689.82	391.90
690.16	390.05
690.50	388.27
690.83	386.55
691.17	384.62
691.51	382.72
691.84	381.01
692.18	379.44
692.52	377.72
692.85	375.85
693.19	374.25
693.52	372.53
693.86	370.77
694.20	369.15
694.53	367.49
694.87	365.94
695.21	364.50
695.54	362.81
695.88	361.15
696.21	359.40
696.55	357.78
696.88	356.32
697.22	354.72
697.56	353.19
697.89	351.73
698.23	350.36
698.56	348.83
698.90	347.32
699.23	345.61
699.57	344.10
699.90	342.83
700.24	341.36
700.58	340.10
700.91	338.73
701.25	337.49
701.58	336.36
701.92	334.94
702.25	333.60
702.59	332.54
702.92	331.28
703.26	330.07
703.59	328.98
703.93	327.87
704.26	326.65
704.60	325.49
704.93	324.23
705.26	323.10
705.60	322.15
705.93	321.00
706.27	320.12
706.60	319.24
706.94	318.28
707.27	317.20
707.61	316.25
707.94	315.36
708.27	314.25
708.61	313.19
708.94	312.27
709.28	311.40
709.61	310.43
709.94	309.62
710.28	308.70
710.61	307.80
710.95	306.76
711.28	306.12
711.61	305.23
711.95	304.45
712.28	303.62
712.61	302.76
712.95	301.99
713.28	301.17
713.61	300.22
713.95	299.33
714.28	298.64
714.61	297.76
714.95	296.85
715.28	296.08
715.61	295.18
715.95	294.52
716.28	293.71
716.61	292.87
716.95	292.07
717.28	291.35
717.61	290.53
717.94	289.80
718.28	288.93
718.61	288.14
718.94	287.46
719.27	286.71
719.61	285.93
719.94	285.30
720.27	284.49
720.60	283.86
720.94	283.20
721.27	282.43
721.60	281.91
721.93	281.38
722.27	280.87
722.60	280.23
722.93	279.56
723.26	279.01
723.59	278.47
723.93	277.92
724.26	277.35
724.59	276.80
724.92	276.28
725.25	275.88
725.59	275.47
725.92	274.99
726.25	274.50
726.58	274.00
726.91	273.37
727.24	273.05
727.57	272.56
727.91	272.00
728.24	271.49
728.57	270.97
728.90	270.42
729.23	269.94
729.56	269.75
729.89	269.26
730.22	268.75
730.55	268.20
730.89	267.81
731.22	267.39
731.55	266.90
731.88	266.42
732.21	265.91
732.54	265.38
732.87	264.95
733.20	264.60
733.53	264.23
733.86	263.92
734.19	263.41
734.52	263.03
734.85	262.86
735.18	262.40
735.51	262.07
735.84	261.78
736.17	261.31
736.50	260.80
736.83	260.69
737.16	260.44
737.49	260.19
737.82	259.74
738.15	259.42
738.48	259.10
738.81	258.77
739.14	258.41
739.47	258.18
739.80	257.89
740.13	257.59
740.46	257.32
740.79	257.02
741.12	256.66
741.45	256.35
741.78	255.99
742.11	255.96
742.44	255.58
742.77	255.29
743.10	254.96
743.43	254.73
743.75	254.21
744.08	254.03
744.41	253.73
744.74	253.48
745.07	253.13
745.40	252.97
745.73	252.77
746.06	252.44
746.39	252.25
746.71	251.86
747.04	251.61
747.37	251.29
747.70	250.94
748.03	250.78
748.36	250.68
748.68	250.34
749.01	250.07
749.34	249.82
749.67	249.49
750.00	249.34
750.33	249.14
750.65	249.01
750.98	248.49
751.31	248.20
751.64	248.00
751.97	248.03
752.29	247.62
752.62	247.34
752.95	247.21
753.28	246.91
753.60	246.66
753.93	246.45
754.26	246.23
754.59	246.00
754.91	245.74
755.24	245.32
755.57	245.07
755.90	244.74
756.22	244.57
756.55	244.41
756.88	244.18
757.20	243.98
757.53	243.73
757.86	243.65
758.19	243.56
758.51	243.20
758.84	242.90
759.17	242.80
759.49	242.62
759.82	242.57
760.15	242.37
760.47	242.21
760.80	241.98
761.13	241.86
761.45	241.74
761.78	241.68
762.11	241.63
762.43	241.50
762.76	241.40
763.08	241.26
763.41	241.04
763.74	240.86
764.06	240.56
764.39	240.37
764.71	240.26
765.04	240.03
765.37	239.95
765.69	239.76
766.02	239.69
766.34	239.53
766.67	239.18
767.00	239.20
767.32	239.18
767.65	239.17
767.97	239.05
768.30	238.86
768.62	238.59
768.95	238.37
769.27	238.22
769.60	238.10
769.92	237.92
770.25	237.96
770.57	237.72
770.90	237.63
771.22	237.57
771.55	237.38
771.87	237.34
772.20	237.28
772.52	237.36
772.85	237.56
773.17	237.52
773.50	237.50
773.82	237.29
774.15	237.15
774.47	236.86
774.80	236.75
775.12	236.74
775.45	236.67
775.77	236.67
776.09	236.64
776.42	236.52
776.74	236.57
777.07	236.37
777.39	236.40
777.72	236.20
778.04	236.16
778.36	236.15
778.69	236.06
779.01	236.10
779.33	235.77
779.66	235.28
779.98	235.05
780.31	235.04
780.63	235.00
780.95	234.99
781.28	235.06
781.60	234.95
781.92	234.88
782.25	234.97
782.57	234.89
782.89	234.88
783.22	234.86
783.54	234.71
783.86	234.73
784.19	234.67
784.51	234.81
784.83	234.62
785.16	234.50
785.48	234.49
785.80	234.35
786.12	234.29
786.45	234.31
786.77	234.28
787.09	234.06
787.42	233.98
787.74	233.96
788.06	233.85
788.38	233.81
788.71	233.77
789.03	233.70
789.35	233.69
789.67	233.58
789.99	233.52
790.32	233.59
790.64	233.46
790.96	233.59
791.28	233.46
791.61	233.44
791.93	233.46
792.25	233.38
792.57	233.42
792.89	233.43
793.21	233.43
793.54	233.56
793.86	233.55
794.18	233.41
794.50	233.27
794.82	233.26
795.14	233.31
795.47	233.23
795.79	233.12
796.11	233.05
796.43	232.99
796.75	232.94
797.07	232.88
797.39	232.88
797.71	232.71
798.04	232.62
798.36	232.61
798.68	232.56
799.00	232.54
799.32	232.36
799.64	232.46
799.96	232.31
800.28	232.21
800.60	232.16
800.92	232.23
801.24	232.08
801.56	232.04
801.89	231.93
802.21	231.98
802.53	231.91
802.85	231.86
803.17	231.82
803.49	231.79
803.81	231.68
804.13	231.69
804.45	231.53
804.77	231.50
805.09	231.41
805.41	231.38
805.73	231.31
806.05	231.36
806.37	231.23
806.69	231.20
807.01	231.17
807.33	231.25
807.65	231.13
807.97	231.29
808.28	231.17
808.60	231.17
808.92	231.07
809.24	231.12
809.56	231.00
809.88	231.00
810.20	230.98
810.52	230.92
810.84	230.80
811.16	230.83
811.48	230.95
811.80	231.03
812.12	231.06
812.43	231.10
812.75	231.06
813.07	231.02
813.39	231.05
813.71	231.00
814.03	230.91
814.35	230.90
814.67	230.84
814.98	230.87
815.30	230.83
815.62	230.77
815.94	230.58
816.26	230.66
816.58	230.55
816.89	230.47
817.21	230.51
817.53	230.57
817.85	230.51
818.17	230.39
818.48	230.37
818.80	230.27
819.12	230.21
819.44	230.10
819.76	230.02
820.07	230.06
820.39	230.05
820.71	230.04
821.03	230.13
821.34	230.11
821.66	230.08
821.98	229.99
822.30	230.04
822.61	230.10
822.93	230.08
823.25	230.09
823.57	230.06
823.88	230.00
824.20	230.02
824.52	230.01
824.83	229.97
825.15	229.68
825.47	229.66
825.79	229.55
826.10	229.51
826.42	229.46
826.74	229.39
827.05	229.38
827.37	229.33
827.69	229.29
828.00	229.17
828.32	229.13
828.64	229.10
828.95	229.08
829.27	229.16
829.58	229.10
829.90	229.13
830.22	229.20
830.53	229.10
830.85	228.94
831.17	228.95
831.48	228.96
831.80	229.16
832.11	229.13
832.43	229.25
832.75	229.32
833.06	229.44
833.38	229.36
833.69	229.31
834.01	229.31
834.32	229.24
834.64	229.23
834.96	229.25
835.27	229.33
835.59	229.34
835.90	229.29
836.22	229.23
836.53	229.22
836.85	229.12
837.16	229.46
837.48	229.47
837.79	229.48
838.11	229.50
838.42	229.43
838.74	229.51
839.05	229.47
839.37	229.50
839.68	229.33
840.00	229.44
840.31	229.48
840.63	229.54
840.94	229.61
841.26	229.65
841.57	229.75
841.88	229.73
842.20	229.67
842.51	229.60
842.83	229.60
843.14	229.70
843.46	229.80
843.77	229.56
844.08	229.64
844.40	229.66
844.71	229.64
845.03	229.64
845.34	229.64
845.65	229.63
845.97	229.56
846.28	229.67
846.60	229.66
846.91	229.59
847.22	229.59
847.54	229.52
847.85	229.57
848.16	229.40
848.48	229.35
848.79	229.50
849.10	229.52
849.42	229.58
849.73	229.43
850.04	229.41
850.36	229.39
850.67	229.37
850.98	229.24
851.30	229.35
851.61	229.47
851.92	229.43
852.23	229.42
852.55	229.50
852.86	229.49
853.17	229.51
853.49	229.67
853.80	229.75
854.11	229.72
854.42	229.68
854.74	229.74
855.05	229.89
855.36	229.75
855.67	229.75
855.99	229.74
856.30	229.96
856.61	229.88
856.92	229.90
857.23	229.93
857.55	229.96
857.86	229.77
858.17	229.69
858.48	229.67
858.79	229.75
859.11	229.73
859.42	229.65
859.73	229.51
860.04	229.30
860.35	229.17
860.66	229.19
860.98	229.09
861.29	229.04
861.60	228.92
861.91	228.95
862.22	228.89
862.53	228.90
862.84	228.62
863.16	228.75
863.47	228.73
863.78	228.57
864.09	228.60
864.40	228.72
864.71	228.77
865.02	228.61
865.33	228.42
865.64	228.30
865.95	228.34
866.27	228.60
866.58	228.66
866.89	228.66
867.20	228.58
867.51	228.71
867.82	228.74
868.13	228.83
868.44	228.74
868.75	228.79
869.06	228.74
869.37	228.83
869.68	228.63
869.99	228.59
870.30	228.68
870.61	228.77
870.92	228.80
871.23	228.73
871.54	228.89
871.85	228.94
872.16	229.03
872.47	228.94
872.78	228.75
873.09	228.75
873.40	228.74
873.71	228.85
874.02	228.76
874.33	228.76
874.64	228.63
874.95	228.75
875.26	228.63
875.56	228.72
875.87	228.71
876.18	228.86
876.49	229.13
876.80	229.14
877.11	229.11
877.42	229.05
877.73	229.02
878.04	228.93
878.35	228.97
878.66	228.98
878.96	229.07
879.27	229.00
879.58	229.07
879.89	229.05
880.20	229.02
880.51	229.06
880.82	229.01
881.12	229.02
881.43	228.95
881.74	229.07
882.05	229.05
882.36	229.01
882.67	228.97
882.97	228.67
883.28	228.62
883.59	228.54
883.90	228.50
884.21	228.55
884.51	228.58
884.82	228.54
885.13	228.58
885.44	228.53
885.74	228.54
886.05	228.49
886.36	228.46
886.67	228.30
886.98	228.39
887.28	228.45
887.59	228.39
887.90	228.36
888.20	228.34
888.51	228.28
888.82	228.19
889.13	228.18
889.43	228.38
889.74	228.29
890.05	228.22
890.35	228.30
890.66	228.19
890.97	228.16
891.28	228.16
891.58	228.05
891.89	228.05
892.20	228.10
892.50	228.09
892.81	228.11
893.12	228.24
893.42	228.16
893.73	228.12
894.04	228.23
894.34	228.23
894.65	228.27
894.95	228.24
895.26	228.33
895.57	228.39
895.87	228.25
896.18	228.45
896.48	228.53
896.79	228.38
897.10	228.46
897.40	228.50
897.71	228.43
898.01	228.45
898.32	228.54
898.63	228.46
898.93	228.48
899.24	228.42
899.54	228.45
899.85	228.44
900.15	228.46
900.46	228.40
900.76	228.46
901.07	228.34
901.38	228.40
901.68	228.45
901.99	228.39
902.29	228.35
902.60	228.17
902.90	228.10
903.21	228.14
903.51	228.11
903.82	228.20
904.12	228.22
904.43	228.28
904.73	228.18
905.03	228.21
905.34	228.34
905.64	228.34
905.95	228.38
906.25	228.34
906.56	228.36
906.86	228.38
907.17	228.39
907.47	228.45
907.77	228.40
908.08	228.30
908.38	228.24
908.69	228.21
908.99	228.26
909.30	228.40
909.60	228.41
909.90	228.46
910.21	228.35
910.51	228.49
910.81	228.43
911.12	228.46
911.42	228.45
911.73	228.27
912.03	228.34
912.33	228.23
912.64	228.29
912.94	228.20
913.24	228.18
913.55	228.12
913.85	228.07
914.15	228.14
914.46	228.24
914.76	228.27
915.06	228.30
915.37	228.32
915.67	228.21
915.97	228.22
916.27	228.21
916.58	228.14
916.88	228.01
917.18	228.07
917.49	228.22
917.79	228.30
918.09	228.31
918.39	228.38
918.70	228.38
919.00	228.39
919.30	228.58
919.60	228.61
919.91	228.61
920.21	228.69
920.51	228.65
920.81	228.64
921.12	228.66
921.42	228.69
921.72	228.72
922.02	228.75
922.32	228.83
922.63	228.80
922.93	229.01
923.23	229.10
923.53	229.10
923.83	228.97
924.13	228.96
924.44	229.07
924.74	229.10
925.04	229.19
925.34	229.23
925.64	229.03
925.94	228.97
926.24	229.09
926.55	229.12
926.85	229.12
927.15	229.02
927.45	228.93
927.75	228.85
928.05	228.86
928.35	228.85
928.65	228.79
928.95	228.88
929.26	228.81
929.56	228.83
929.86	228.78
930.16	228.81
930.46	228.78
930.76	228.68
931.06	228.57
931.36	228.55
931.66	228.56
931.96	228.65
932.26	228.72
932.56	228.67
932.86	228.71
933.16	228.66
933.46	228.75
933.76	228.76
934.06	228.82
934.36	228.87
934.66	228.85
934.96	228.86
935.26	228.81
935.56	228.75
935.86	228.64
936.16	228.60
936.46	228.55
936.76	228.53
937.06	228.47
937.36	228.44
937.66	228.47
937.96	228.40
938.26	228.36
938.56	228.41
938.86	228.41
939.16	228.31
939.46	228.39
939.76	228.42
940.06	228.41
940.35	228.34
940.65	228.26
940.95	228.23
941.25	228.20
941.55	228.15
941.85	228.22
942.15	228.25
942.45	228.39
942.75	228.37
943.04	228.33
943.34	228.50
943.64	228.45
943.94	228.34
944.24	228.30
944.54	228.28
944.84	228.10
945.13	228.10
945.43	228.07
945.73	228.00
946.03	227.94
946.33	227.90
946.62	227.92
946.92	227.89
947.22	228.01
947.52	227.97
947.82	227.97
948.11	227.87
948.41	227.87
948.71	227.76
949.01	227.77
949.31	227.70
949.60	227.63
949.90	227.66
950.20	227.69
950.50	227.66
950.79	227.64
951.09	227.73
951.39	227.66
951.69	227.68
951.98	227.70
952.28	227.71
952.58	227.75
952.87	227.80
953.17	227.85
953.47	227.77
953.76	227.81
954.06	227.76
954.36	227.74
954.66	227.70
954.95	227.83
955.25	227.82
955.55	227.93
955.84	227.95
956.14	227.99
956.44	227.95
956.73	228.04
957.03	228.07
957.32	228.07
957.62	228.03
957.92	228.11
958.21	228.17
958.51	228.38
958.81	228.43
959.10	228.41
959.40	228.45
959.69	228.48
959.99	228.50
960.29	228.54
960.58	228.52
960.88	228.69
961.17	228.66
961.47	228.78
961.76	228.78
962.06	228.76
962.36	228.74
962.65	228.85
962.95	228.83
963.24	228.86
963.54	228.99
963.83	229.12
964.13	229.04
964.42	228.90
964.72	228.75
965.01	228.75
965.31	228.71
965.60	228.75
965.90	228.90
966.19	228.88
966.49	228.95
966.78	228.92
967.08	228.82
967.37	228.88
967.67	228.74
967.96	228.81
968.26	228.80
968.55	228.90
968.85	228.78
969.14	228.70
969.43	228.61
969.73	228.51
970.02	228.41
970.32	228.38
970.61	228.48
970.91	228.42
971.20	228.40
971.49	228.42
971.79	228.31
972.08	228.08
972.38	228.10
972.67	228.05
972.96	228.11
973.26	228.05
973.55	228.03
973.85	228.02
974.14	227.99
974.43	227.99
974.73	227.88
975.02	227.92
975.31	227.97
975.61	228.09
975.90	228.00
976.19	228.02
976.49	228.06
976.78	228.07
977.07	228.03
977.37	228.04
977.66	228.11
977.95	228.20
978.24	228.25
978.54	228.30
978.83	228.33
979.12	228.33
979.42	228.40
979.71	228.39
980.00	228.34
980.29	228.32
980.59	228.23
980.88	228.30
981.17	228.29
981.46	228.22
981.76	228.17
982.05	228.31
982.34	228.22
982.63	228.16
982.93	228.09
983.22	228.14
983.51	228.19
983.80	228.13
984.09	228.15
984.39	228.23
984.68	228.22
984.97	228.24
985.26	228.21
985.55	228.26
985.85	228.10
986.14	228.09
986.43	228.09
986.72	228.13
987.01	228.01
987.30	228.04
987.59	228.00
987.89	227.97
988.18	227.94
988.47	228.03
988.76	228.06
989.05	228.13
989.34	228.12
989.63	228.25
989.92	228.20
990.22	228.11
990.51	228.06
990.80	227.98
991.09	227.99
991.38	228.04
991.67	227.91
991.96	227.96
992.25	228.00
992.54	227.90
992.83	227.90
993.12	228.04
993.41	228.05
993.70	228.28
993.99	228.37
994.28	228.35
994.58	228.39
994.87	228.43
995.16	228.43
995.45	228.49
995.74	228.30
996.03	228.46
996.32	228.55
996.61	228.56
996.90	228.70
997.19	228.64
997.48	228.63
997.77	228.65
998.06	228.71
998.34	228.83
998.63	228.90
998.92	228.89
999.21	228.90
999.50	228.90
999.79	228.83
1000.08	228.80
1000.37	228.77
1000.66	228.77
1000.95	228.87
1001.24	228.85
1001.53	228.89
1001.82	228.92
1002.11	228.85
1002.40	228.86
1002.68	228.85
1002.97	228.88
1003.26	228.91
1003.55	228.94
1003.84	229.00
1004.13	229.08
1004.42	229.06
1004.71	229.12
1004.99	229.11
1005.28	229.09
1005.57	229.19
1005.86	229.10
1006.15	229.14
1006.44	229.12
1006.72	229.15
1007.01	229.06
1007.30	229.15
1007.59	228.98
1007.88	229.00
1008.17	228.98
1008.45	228.88
1008.74	228.89
1009.03	228.89
1009.32	228.95
1009.60	228.93
1009.89	228.87
1010.18	228.73
1010.47	228.67
1010.76	228.60
1011.04	228.62
1011.33	228.56
1011.62	228.55
1011.91	228.62
1012.19	228.60
1012.48	228.57
1012.77	228.51
1013.05	228.67
1013.34	228.48
1013.63	228.50
1013.92	228.45
1014.20	228.41
1014.49	228.55
1014.78	228.51
1015.06	228.42
1015.35	228.34
1015.64	228.37
1015.92	228.42
1016.21	228.37
1016.50	228.33
1016.78	228.38
1017.07	228.40
1017.36	228.41
1017.64	228.30
1017.93	228.37
1018.22	228.36
1018.50	228.38
1018.79	228.32
1019.08	228.22
1019.36	228.22
1019.65	228.23
1019.93	228.23
1020.22	228.23
1020.51	228.27
1020.79	228.20
1021.08	229.00
1021.36	227.50
1021.65	227.20
1021.94	229.70
1022.22	226.40
1022.51	227.80
1022.79	227.70
1023.08	228.10
1023.36	231.80
1023.65	226.50
>>>>>End Processed Spectral Data<<<<<
