SpectraSuite Data File
++++++++++++++++++++++++++++++++++++
Date: Fri Feb 01 14:40:38 EST 2013
User: group
Dark Spectrum Present: No
Reference Spectrum Present: No
Number of Sampled Component Spectra: 1
Spectrometers: USB2E7196
Integration Time (usec): 70000 (USB2E7196)
Spectra Averaged: 10 (USB2E7196)
Boxcar Smoothing: 10 (USB2E7196)
Correct for Electrical Dark: No (USB2E7196)
Strobe/Lamp Enabled: No (USB2E7196)
Correct for Detector Non-linearity: No (USB2E7196)
Correct for Stray Light: No (USB2E7196)
Number of Pixels in Processed Spectrum: 2048
>>>>>Begin Processed Spectral Data<<<<<
339.09	0.00
339.48	217.00
339.86	219.90
340.24	219.00
340.63	220.80
341.01	225.70
341.39	224.60
341.78	225.20
342.16	227.30
342.54	227.30
342.93	215.57
343.31	226.44
343.69	227.02
344.07	227.31
344.46	227.85
344.84	228.17
345.22	228.25
345.60	228.41
345.99	228.63
346.37	228.55
346.75	228.62
347.13	228.69
347.52	228.65
347.90	228.71
348.28	228.71
348.66	228.87
349.05	228.80
349.43	228.71
349.81	228.78
350.19	228.71
350.57	228.76
350.96	228.75
351.34	228.77
351.72	228.81
352.10	228.98
352.48	228.93
352.87	229.00
353.25	229.13
353.63	229.26
354.01	229.15
354.39	229.40
354.77	229.41
355.15	229.46
355.54	229.57
355.92	229.57
356.30	229.64
356.68	229.81
357.06	229.89
357.44	229.93
357.82	229.91
358.20	230.03
358.58	230.20
358.97	230.19
359.35	230.22
359.73	230.32
360.11	230.32
360.49	230.38
360.87	230.37
361.25	230.40
361.63	230.44
362.01	230.57
362.39	230.48
362.77	230.48
363.15	230.56
363.53	230.51
363.91	230.56
364.29	230.55
364.67	230.36
365.05	230.34
365.43	230.30
365.81	230.20
366.19	230.28
366.57	230.18
366.95	230.15
367.33	230.22
367.71	230.14
368.09	230.12
368.47	230.12
368.85	230.11
369.23	230.10
369.61	229.91
369.99	229.89
370.37	229.96
370.75	230.09
371.13	229.93
371.51	229.81
371.89	229.71
372.27	229.70
372.65	229.59
373.03	229.56
373.41	229.55
373.78	229.52
374.16	229.25
374.54	229.14
374.92	229.18
375.30	229.07
375.68	228.92
376.06	228.86
376.44	228.78
376.82	228.77
377.19	228.72
377.57	228.78
377.95	228.63
378.33	228.46
378.71	228.21
379.09	228.20
379.47	228.18
379.84	228.07
380.22	227.96
380.60	227.90
380.98	227.88
381.36	227.77
381.73	227.69
382.11	227.72
382.49	227.63
382.87	227.53
383.25	227.40
383.62	227.61
384.00	227.56
384.38	227.47
384.76	227.47
385.13	227.42
385.51	227.34
385.89	227.40
386.27	227.31
386.64	227.28
387.02	227.14
387.40	227.04
387.78	227.01
388.15	226.98
388.53	226.96
388.91	226.86
389.29	226.92
389.66	226.87
390.04	226.73
390.42	226.88
390.79	226.85
391.17	226.90
391.55	226.72
391.92	226.76
392.30	226.76
392.68	226.75
393.05	226.76
393.43	226.72
393.81	226.70
394.18	226.82
394.56	226.90
394.94	227.09
395.31	227.16
395.69	227.25
396.06	227.30
396.44	227.37
396.82	227.44
397.19	227.43
397.57	227.52
397.95	227.72
398.32	227.66
398.70	227.73
399.07	227.80
399.45	227.82
399.82	227.90
400.20	228.05
400.58	228.11
400.95	228.03
401.33	228.21
401.70	228.43
402.08	228.39
402.45	228.42
402.83	228.60
403.20	228.69
403.58	228.74
403.95	228.89
404.33	228.95
404.71	229.10
405.08	229.34
405.46	229.50
405.83	229.73
406.21	229.87
406.58	230.07
406.96	230.18
407.33	230.44
407.70	230.61
408.08	230.95
408.45	231.18
408.83	231.53
409.20	231.72
409.58	231.89
409.95	232.30
410.33	232.72
410.70	232.96
411.08	233.41
411.45	233.74
411.82	234.01
412.20	234.40
412.57	234.89
412.95	235.11
413.32	235.49
413.69	235.89
414.07	236.25
414.44	236.81
414.82	237.42
415.19	237.90
415.56	238.46
415.94	238.87
416.31	239.56
416.68	240.20
417.06	241.00
417.43	241.69
417.81	242.46
418.18	243.17
418.55	243.96
418.93	244.76
419.30	245.59
419.67	246.52
420.04	247.53
420.42	248.48
420.79	249.81
421.16	250.98
421.54	252.17
421.91	253.50
422.28	254.64
422.66	255.94
423.03	257.38
423.40	258.70
423.77	260.12
424.15	261.59
424.52	263.11
424.89	264.64
425.26	266.27
425.64	267.70
426.01	269.28
426.38	270.90
426.75	272.70
427.13	274.49
427.50	276.40
427.87	278.25
428.24	280.09
428.61	281.80
428.99	283.87
429.36	286.02
429.73	288.13
430.10	290.32
430.47	292.38
430.85	294.31
431.22	296.60
431.59	299.10
431.96	301.34
432.33	303.83
432.70	306.29
433.08	309.11
433.45	311.83
433.82	314.55
434.19	317.45
434.56	320.15
434.93	322.89
435.30	325.52
435.68	328.44
436.05	331.40
436.42	334.18
436.79	336.62
437.16	339.34
437.53	342.31
437.90	345.03
438.27	347.99
438.64	351.00
439.01	353.59
439.38	355.77
439.75	357.89
440.13	360.45
440.50	362.77
440.87	364.60
441.24	366.50
441.61	368.56
441.98	370.04
442.35	371.84
442.72	373.81
443.09	375.67
443.46	376.70
443.83	377.11
444.20	377.73
444.57	378.70
444.94	378.90
445.31	379.16
445.68	379.56
446.05	379.67
446.42	379.14
446.79	378.69
447.16	378.19
447.53	377.86
447.90	376.64
448.27	375.46
448.64	373.87
449.01	372.74
449.37	370.79
449.74	368.87
450.11	366.81
450.48	364.28
450.85	361.73
451.22	359.65
451.59	357.67
451.96	355.58
452.33	352.80
452.70	350.40
453.07	347.41
453.43	344.38
453.80	341.44
454.17	338.87
454.54	336.26
454.91	333.54
455.28	330.92
455.65	328.30
456.02	326.02
456.38	323.82
456.75	321.15
457.12	318.95
457.49	316.78
457.86	314.40
458.23	312.49
458.59	310.43
458.96	308.11
459.33	306.26
459.70	304.40
460.07	302.90
460.43	301.19
460.80	299.66
461.17	298.19
461.54	296.61
461.91	294.99
462.27	293.64
462.64	292.32
463.01	290.82
463.38	289.62
463.74	288.03
464.11	286.73
464.48	285.62
464.85	284.34
465.21	283.40
465.58	282.47
465.95	281.24
466.32	280.20
466.68	279.40
467.05	278.40
467.42	277.50
467.78	276.49
468.15	275.46
468.52	274.68
468.88	273.75
469.25	272.90
469.62	272.29
469.98	271.44
470.35	270.81
470.72	270.15
471.08	269.26
471.45	268.57
471.82	268.00
472.18	267.30
472.55	266.76
472.92	266.01
473.28	265.39
473.65	264.80
474.02	264.21
474.38	263.64
474.75	263.20
475.11	262.65
475.48	262.29
475.85	262.04
476.21	261.66
476.58	261.25
476.94	260.88
477.31	260.50
477.67	260.23
478.04	259.77
478.41	259.46
478.77	259.37
479.14	259.08
479.50	258.75
479.87	258.65
480.23	258.41
480.60	258.37
480.96	258.21
481.33	258.24
481.69	258.15
482.06	258.05
482.42	257.91
482.79	257.87
483.15	257.71
483.52	257.69
483.88	257.55
484.25	257.64
484.61	257.74
484.98	257.78
485.34	257.87
485.71	258.10
486.07	258.27
486.44	258.37
486.80	258.56
487.17	258.81
487.53	258.99
487.90	259.30
488.26	259.50
488.62	259.90
488.99	260.14
489.35	260.43
489.72	260.86
490.08	261.21
490.44	261.53
490.81	262.09
491.17	262.50
491.54	263.13
491.90	263.83
492.26	264.50
492.63	265.19
492.99	265.94
493.36	266.63
493.72	267.49
494.08	268.22
494.45	269.17
494.81	270.20
495.17	271.38
495.54	272.52
495.90	273.66
496.26	274.81
496.63	276.05
496.99	277.51
497.35	278.88
497.72	280.60
498.08	282.33
498.44	284.10
498.80	285.95
499.17	287.87
499.53	289.68
499.89	291.76
500.26	293.91
500.62	295.96
500.98	298.40
501.34	300.84
501.71	303.59
502.07	306.24
502.43	309.01
502.79	311.90
503.16	315.09
503.52	318.52
503.88	321.75
504.24	325.39
504.60	329.07
504.97	332.93
505.33	337.00
505.69	341.22
506.05	345.34
506.41	349.79
506.78	354.23
507.14	358.97
507.50	363.83
507.86	369.01
508.22	374.30
508.59	379.67
508.95	385.13
509.31	390.88
509.67	396.95
510.03	402.92
510.39	409.14
510.75	415.36
511.12	421.69
511.48	428.39
511.84	435.10
512.20	441.99
512.56	449.05
512.92	456.17
513.28	463.79
513.64	471.41
514.00	479.14
514.37	487.20
514.73	495.56
515.09	503.87
515.45	512.35
515.81	520.85
516.17	529.70
516.53	538.80
516.89	547.80
517.25	557.04
517.61	566.50
517.97	575.90
518.33	585.63
518.69	595.54
519.05	605.67
519.41	616.10
519.77	626.87
520.13	637.65
520.49	648.15
520.85	658.75
521.21	669.86
521.57	681.12
521.93	692.25
522.29	703.57
522.65	714.80
523.01	726.17
523.37	737.84
523.73	749.78
524.09	761.56
524.45	773.56
524.81	785.53
525.17	798.23
525.53	810.77
525.89	823.43
526.25	836.20
526.61	848.77
526.97	861.45
527.33	874.00
527.68	887.18
528.04	900.41
528.40	913.58
528.76	926.95
529.12	940.48
529.48	954.06
529.84	966.87
530.20	980.87
530.56	994.94
530.91	1009.49
531.27	1023.24
531.63	1037.10
531.99	1050.90
532.35	1064.84
532.71	1078.07
533.07	1091.78
533.42	1105.32
533.78	1119.23
534.14	1133.20
534.50	1146.64
534.86	1160.31
535.21	1173.56
535.57	1187.74
535.93	1201.60
536.29	1215.07
536.65	1228.30
537.00	1241.47
537.36	1255.48
537.72	1268.74
538.08	1281.56
538.44	1293.99
538.79	1307.14
539.15	1319.88
539.51	1333.19
539.87	1346.55
540.22	1360.02
540.58	1373.54
540.94	1386.43
541.29	1398.90
541.65	1411.52
542.01	1424.67
542.37	1437.23
542.72	1449.64
543.08	1461.71
543.44	1473.60
543.79	1484.96
544.15	1496.77
544.51	1509.24
544.87	1521.15
545.22	1532.47
545.58	1543.93
545.94	1554.75
546.29	1565.52
546.65	1576.60
547.01	1586.84
547.36	1597.28
547.72	1607.21
548.07	1616.88
548.43	1626.82
548.79	1636.44
549.14	1645.66
549.50	1654.61
549.86	1663.52
550.21	1672.45
550.57	1681.26
550.92	1690.43
551.28	1699.32
551.64	1707.94
551.99	1715.67
552.35	1723.35
552.70	1731.49
553.06	1739.71
553.41	1748.32
553.77	1756.35
554.13	1764.07
554.48	1772.10
554.84	1779.08
555.19	1786.44
555.55	1793.63
555.90	1800.17
556.26	1807.05
556.61	1814.23
556.97	1820.47
557.32	1827.57
557.68	1833.89
558.03	1840.08
558.39	1846.25
558.74	1852.95
559.10	1859.21
559.45	1865.80
559.81	1872.45
560.16	1878.05
560.52	1883.33
560.87	1889.01
561.23	1893.90
561.58	1899.43
561.94	1904.60
562.29	1909.63
562.64	1914.35
563.00	1918.89
563.35	1924.78
563.71	1929.88
564.06	1934.81
564.42	1940.24
564.77	1944.46
565.12	1949.50
565.48	1953.75
565.83	1957.38
566.19	1960.97
566.54	1964.15
566.89	1967.02
567.25	1970.01
567.60	1973.79
567.96	1977.42
568.31	1980.21
568.66	1983.11
569.02	1985.83
569.37	1987.95
569.72	1990.41
570.08	1992.51
570.43	1994.67
570.78	1996.09
571.14	1997.28
571.49	1998.84
571.84	2000.26
572.20	2001.36
572.55	2001.78
572.90	2002.28
573.26	2003.30
573.61	2003.96
573.96	2004.65
574.31	2004.47
574.67	2003.50
575.02	2002.51
575.37	2001.65
575.72	2000.31
576.08	1999.64
576.43	1998.42
576.78	1997.24
577.13	1996.60
577.49	1995.83
577.84	1994.44
578.19	1992.88
578.54	1990.97
578.90	1987.86
579.25	1984.90
579.60	1982.38
579.95	1979.53
580.30	1976.53
580.66	1973.13
581.01	1970.09
581.36	1966.98
581.71	1964.52
582.06	1962.19
582.42	1959.06
582.77	1955.77
583.12	1952.86
583.47	1949.90
583.82	1946.89
584.17	1943.56
584.53	1939.69
584.88	1936.03
585.23	1932.56
585.58	1929.11
585.93	1926.13
586.28	1923.27
586.63	1920.21
586.98	1916.96
587.34	1913.59
587.69	1910.64
588.04	1907.33
588.39	1903.80
588.74	1899.56
589.09	1895.56
589.44	1890.85
589.79	1887.29
590.14	1883.86
590.49	1879.44
590.84	1874.97
591.19	1870.43
591.54	1865.29
591.89	1859.68
592.25	1854.90
592.60	1849.38
592.95	1843.54
593.30	1837.52
593.65	1831.80
594.00	1826.34
594.35	1821.38
594.70	1815.97
595.05	1810.58
595.40	1804.95
595.75	1798.83
596.10	1793.78
596.45	1788.45
596.80	1784.07
597.15	1778.62
597.50	1772.55
597.85	1767.91
598.19	1762.86
598.54	1758.00
598.89	1753.65
599.24	1749.31
599.59	1743.84
599.94	1738.95
600.29	1734.10
600.64	1729.25
600.99	1723.96
601.34	1718.55
601.69	1712.31
602.04	1706.79
602.39	1701.09
602.74	1696.39
603.08	1691.88
603.43	1686.71
603.78	1681.27
604.13	1675.24
604.48	1669.13
604.83	1663.85
605.18	1658.00
605.53	1651.72
605.87	1644.58
606.22	1638.18
606.57	1631.69
606.92	1625.43
607.27	1619.60
607.62	1613.70
607.96	1607.75
608.31	1602.30
608.66	1595.93
609.01	1589.62
609.36	1582.76
609.70	1575.69
610.05	1568.04
610.40	1561.04
610.75	1553.78
611.10	1546.63
611.44	1539.11
611.79	1532.98
612.14	1525.56
612.49	1517.81
612.83	1510.54
613.18	1503.78
613.53	1496.96
613.88	1489.84
614.22	1483.05
614.57	1475.52
614.92	1468.31
615.27	1461.66
615.61	1454.32
615.96	1447.48
616.31	1441.15
616.65	1435.43
617.00	1429.37
617.35	1422.80
617.70	1415.73
618.04	1408.78
618.39	1401.92
618.74	1395.69
619.08	1388.18
619.43	1381.61
619.78	1375.12
620.12	1368.52
620.47	1361.70
620.82	1354.60
621.16	1347.79
621.51	1340.94
621.85	1334.43
622.20	1327.48
622.55	1320.30
622.89	1313.67
623.24	1307.25
623.59	1300.42
623.93	1293.52
624.28	1286.77
624.62	1280.02
624.97	1273.44
625.32	1267.22
625.66	1261.16
626.01	1254.73
626.35	1248.50
626.70	1242.09
627.04	1235.86
627.39	1229.00
627.73	1222.38
628.08	1216.12
628.43	1209.62
628.77	1203.15
629.12	1196.27
629.46	1189.59
629.81	1182.80
630.15	1175.63
630.50	1168.45
630.84	1160.99
631.19	1153.76
631.53	1146.66
631.88	1139.89
632.22	1132.94
632.57	1126.36
632.91	1119.41
633.26	1112.54
633.60	1105.52
633.95	1098.54
634.29	1091.74
634.64	1085.87
634.98	1079.30
635.32	1072.95
635.67	1067.24
636.01	1060.98
636.36	1054.85
636.70	1049.05
637.05	1043.20
637.39	1037.69
637.73	1031.89
638.08	1026.62
638.42	1021.46
638.77	1015.75
639.11	1009.86
639.45	1004.14
639.80	998.00
640.14	991.98
640.49	986.32
640.83	980.49
641.17	974.80
641.52	969.11
641.86	962.98
642.20	957.79
642.55	951.90
642.89	945.85
643.23	939.86
643.58	934.45
643.92	928.46
644.26	922.70
644.61	916.95
644.95	911.29
645.29	905.27
645.64	898.97
645.98	893.44
646.32	887.88
646.66	882.28
647.01	876.92
647.35	871.50
647.69	865.69
648.04	860.46
648.38	854.91
648.72	849.01
649.06	843.49
649.41	837.90
649.75	832.17
650.09	826.40
650.43	821.05
650.78	815.14
651.12	809.68
651.46	804.20
651.80	798.76
652.14	793.46
652.49	788.36
652.83	783.15
653.17	777.64
653.51	772.35
653.85	767.23
654.20	761.83
654.54	756.46
654.88	751.31
655.22	745.84
655.56	740.51
655.90	735.47
656.25	730.48
656.59	725.24
656.93	720.43
657.27	715.68
657.61	710.56
657.95	706.11
658.29	701.14
658.64	696.39
658.98	691.40
659.32	686.47
659.66	681.60
660.00	676.79
660.34	672.11
660.68	667.66
661.02	662.78
661.36	658.25
661.70	653.92
662.05	649.67
662.39	645.46
662.73	641.29
663.07	637.36
663.41	633.24
663.75	629.10
664.09	624.91
664.43	620.84
664.77	616.86
665.11	612.99
665.45	609.27
665.79	605.40
666.13	601.74
666.47	598.03
666.81	594.06
667.15	590.20
667.49	586.66
667.83	583.00
668.17	579.20
668.51	575.41
668.85	571.66
669.19	568.16
669.53	564.75
669.87	561.27
670.21	557.87
670.55	554.24
670.89	551.20
671.23	547.94
671.57	544.50
671.91	541.43
672.25	537.96
672.58	534.68
672.92	531.31
673.26	528.07
673.60	524.91
673.94	522.19
674.28	519.44
674.62	516.62
674.96	513.65
675.30	511.04
675.64	508.27
675.97	505.62
676.31	502.73
676.65	499.82
676.99	497.25
677.33	494.18
677.67	491.53
678.01	488.63
678.34	485.86
678.68	483.23
679.02	480.52
679.36	477.96
679.70	475.35
680.04	472.88
680.37	470.42
680.71	467.85
681.05	465.40
681.39	462.99
681.73	460.40
682.06	457.95
682.40	455.67
682.74	453.14
683.08	450.72
683.42	448.35
683.75	445.98
684.09	443.29
684.43	441.11
684.77	438.88
685.10	436.50
685.44	434.24
685.78	432.19
686.12	429.80
686.45	427.44
686.79	425.27
687.13	423.04
687.46	420.68
687.80	418.63
688.14	416.28
688.48	414.17
688.81	411.94
689.15	409.78
689.49	407.63
689.82	405.78
690.16	403.57
690.50	401.68
690.83	399.76
691.17	397.91
691.51	395.97
691.84	393.97
692.18	392.16
692.52	390.28
692.85	388.28
693.19	386.56
693.52	384.87
693.86	383.09
694.20	381.42
694.53	379.76
694.87	377.93
695.21	376.18
695.54	374.19
695.88	372.27
696.21	370.68
696.55	369.00
696.88	367.32
697.22	365.87
697.56	364.31
697.89	362.63
698.23	361.05
698.56	359.51
698.90	358.14
699.23	356.40
699.57	354.88
699.90	353.39
700.24	351.84
700.58	350.32
700.91	348.70
701.25	347.22
701.58	345.87
701.92	344.48
702.25	343.08
702.59	341.91
702.92	340.71
703.26	339.31
703.59	337.96
703.93	336.85
704.26	335.48
704.60	334.00
704.93	332.85
705.26	331.58
705.60	330.39
705.93	329.17
706.27	328.06
706.60	327.00
706.94	325.79
707.27	324.62
707.61	323.49
707.94	322.53
708.27	321.34
708.61	320.16
708.94	319.08
709.28	318.10
709.61	317.12
709.94	316.20
710.28	315.36
710.61	314.42
710.95	313.21
711.28	312.29
711.61	311.29
711.95	310.24
712.28	309.31
712.61	308.30
712.95	307.41
713.28	306.58
713.61	305.58
713.95	304.69
714.28	303.90
714.61	302.97
714.95	302.06
715.28	301.17
715.61	300.21
715.95	299.34
716.28	298.48
716.61	297.60
716.95	296.80
717.28	295.93
717.61	295.17
717.94	294.43
718.28	293.55
718.61	292.84
718.94	292.20
719.27	291.57
719.61	290.86
719.94	290.03
720.27	289.22
720.60	288.58
720.94	288.03
721.27	287.40
721.60	286.79
721.93	286.18
722.27	285.76
722.60	285.32
722.93	284.77
723.26	284.18
723.59	283.55
723.93	282.94
724.26	282.41
724.59	281.81
724.92	281.24
725.25	280.71
725.59	280.17
725.92	279.55
726.25	278.93
726.58	278.42
726.91	277.93
727.24	277.46
727.57	276.89
727.91	276.31
728.24	275.73
728.57	275.17
728.90	274.67
729.23	273.99
729.56	273.51
729.89	272.93
730.22	272.37
730.55	271.79
730.89	271.31
731.22	270.75
731.55	270.14
731.88	269.60
732.21	269.13
732.54	268.55
732.87	268.12
733.20	267.62
733.53	267.23
733.86	266.81
734.19	266.38
734.52	266.03
734.85	265.62
735.18	265.10
735.51	264.88
735.84	264.47
736.17	264.12
736.50	263.58
736.83	263.48
737.16	263.20
737.49	262.94
737.82	262.50
738.15	262.19
738.48	261.92
738.81	261.59
739.14	261.31
739.47	261.08
739.80	260.70
740.13	260.34
740.46	259.88
740.79	259.49
741.12	259.09
741.45	258.70
741.78	258.26
742.11	258.00
742.44	257.30
742.77	256.96
743.10	256.59
743.43	256.20
743.75	255.58
744.08	255.38
744.41	255.07
744.74	254.66
745.07	254.27
745.40	253.91
745.73	253.66
746.06	253.32
746.39	253.06
746.71	252.68
747.04	252.49
747.37	252.31
747.70	252.11
748.03	251.83
748.36	251.64
748.68	251.39
749.01	251.13
749.34	251.01
749.67	250.67
750.00	250.40
750.33	250.29
750.65	250.12
750.98	249.68
751.31	249.40
751.64	249.26
751.97	249.16
752.29	248.95
752.62	248.60
752.95	248.37
753.28	248.11
753.60	247.95
753.93	247.71
754.26	247.39
754.59	247.11
754.91	246.90
755.24	246.67
755.57	246.49
755.90	246.31
756.22	246.13
756.55	246.01
756.88	245.80
757.20	245.53
757.53	245.23
757.86	245.12
758.19	245.02
758.51	244.84
758.84	244.47
759.17	244.33
759.49	244.29
759.82	244.14
760.15	243.98
760.47	243.86
760.80	243.70
761.13	243.62
761.45	243.35
761.78	243.18
762.11	243.01
762.43	242.83
762.76	242.58
763.08	242.46
763.41	242.36
763.74	242.27
764.06	242.18
764.39	242.00
764.71	241.80
765.04	241.48
765.37	241.29
765.69	241.28
766.02	241.02
766.34	240.82
766.67	240.62
767.00	240.51
767.32	240.49
767.65	240.43
767.97	240.33
768.30	240.23
768.62	240.11
768.95	239.93
769.27	239.86
769.60	239.83
769.92	239.61
770.25	239.33
770.57	239.18
770.90	239.00
771.22	238.96
771.55	238.84
771.87	238.89
772.20	238.76
772.52	238.64
772.85	238.90
773.17	238.70
773.50	238.61
773.82	238.44
774.15	238.18
774.47	237.95
774.80	237.81
775.12	237.67
775.45	237.52
775.77	237.35
776.09	237.15
776.42	236.92
776.74	236.89
777.07	236.89
777.39	236.79
777.72	236.68
778.04	236.44
778.36	236.31
778.69	236.12
779.01	236.05
779.33	235.85
779.66	235.40
779.98	235.38
780.31	235.32
780.63	235.20
780.95	235.14
781.28	235.09
781.60	234.85
781.92	234.80
782.25	234.72
782.57	234.74
782.89	234.55
783.22	234.58
783.54	234.41
783.86	234.35
784.19	234.30
784.51	234.28
784.83	234.22
785.16	234.11
785.48	234.01
785.80	233.95
786.12	233.92
786.45	233.89
786.77	233.81
787.09	233.60
787.42	233.65
787.74	233.54
788.06	233.44
788.38	233.34
788.71	233.20
789.03	233.18
789.35	233.05
789.67	233.06
789.99	233.05
790.32	233.03
790.64	233.00
790.96	232.98
791.28	232.84
791.61	232.84
791.93	232.85
792.25	232.83
792.57	232.94
792.89	232.80
793.21	232.86
793.54	232.91
793.86	232.93
794.18	232.83
794.50	232.76
794.82	232.77
795.14	232.79
795.47	232.84
795.79	232.79
796.11	232.80
796.43	232.89
796.75	232.84
797.07	232.86
797.39	232.78
797.71	232.68
798.04	232.71
798.36	232.70
798.68	232.63
799.00	232.60
799.32	232.46
799.64	232.68
799.96	232.66
800.28	232.72
800.60	232.70
800.92	232.69
801.24	232.73
801.56	232.68
801.89	232.72
802.21	232.68
802.53	232.59
802.85	232.65
803.17	232.72
803.49	232.70
803.81	232.74
804.13	232.67
804.45	232.68
804.77	232.68
805.09	232.68
805.41	232.74
805.73	232.75
806.05	232.73
806.37	232.63
806.69	232.53
807.01	232.36
807.33	232.34
807.65	232.24
807.97	232.34
808.28	232.40
808.60	232.36
808.92	232.38
809.24	232.44
809.56	232.30
809.88	232.18
810.20	232.03
810.52	232.00
810.84	231.99
811.16	231.92
811.48	231.78
811.80	231.72
812.12	231.61
812.43	231.61
812.75	231.55
813.07	231.46
813.39	231.30
813.71	231.15
814.03	231.14
814.35	231.16
814.67	230.95
814.98	230.72
815.30	230.62
815.62	230.58
815.94	230.41
816.26	230.43
816.58	230.43
816.89	230.31
817.21	230.10
817.53	230.05
817.85	230.06
818.17	230.06
818.48	229.99
818.80	229.90
819.12	229.80
819.44	229.77
819.76	229.73
820.07	229.84
820.39	229.97
820.71	229.81
821.03	229.73
821.34	229.71
821.66	229.86
821.98	229.84
822.30	229.70
822.61	229.86
822.93	229.79
823.25	229.58
823.57	229.61
823.88	229.75
824.20	229.76
824.52	229.67
824.83	229.52
825.15	229.51
825.47	229.58
825.79	229.57
826.10	229.50
826.42	229.43
826.74	229.46
827.05	229.36
827.37	229.38
827.69	229.38
828.00	229.35
828.32	229.23
828.64	229.24
828.95	229.40
829.27	229.33
829.58	229.33
829.90	229.44
830.22	229.45
830.53	229.33
830.85	229.23
831.17	229.26
831.48	229.40
831.80	229.54
832.11	229.52
832.43	229.51
832.75	229.40
833.06	229.52
833.38	229.41
833.69	229.35
834.01	229.53
834.32	229.49
834.64	229.50
834.96	229.65
835.27	229.71
835.59	229.60
835.90	229.60
836.22	229.56
836.53	229.55
836.85	229.63
837.16	229.91
837.48	229.99
837.79	230.07
838.11	230.17
838.42	230.08
838.74	230.10
839.05	230.11
839.37	230.24
839.68	230.19
840.00	230.30
840.31	230.43
840.63	230.27
840.94	230.33
841.26	230.34
841.57	230.20
841.88	230.18
842.20	230.23
842.51	230.17
842.83	230.22
843.14	230.38
843.46	230.30
843.77	230.10
844.08	230.16
844.40	230.00
844.71	229.90
845.03	229.87
845.34	229.84
845.65	229.80
845.97	229.80
846.28	229.79
846.60	229.76
846.91	229.78
847.22	229.82
847.54	229.86
847.85	229.86
848.16	230.02
848.48	229.91
848.79	229.96
849.10	230.01
849.42	230.02
849.73	229.80
850.04	229.84
850.36	229.87
850.67	229.87
850.98	229.88
851.30	229.93
851.61	229.80
851.92	229.82
852.23	229.92
852.55	229.89
852.86	229.94
853.17	229.94
853.49	229.88
853.80	229.86
854.11	229.76
854.42	229.74
854.74	229.58
855.05	229.60
855.36	229.42
855.67	229.33
855.99	229.31
856.30	229.60
856.61	229.58
856.92	229.48
857.23	229.37
857.55	229.46
857.86	229.38
858.17	229.60
858.48	229.58
858.79	229.48
859.11	229.55
859.42	229.39
859.73	229.27
860.04	229.28
860.35	229.17
860.66	229.24
860.98	229.23
861.29	229.30
861.60	229.27
861.91	229.27
862.22	229.31
862.53	229.31
862.84	229.07
863.16	229.09
863.47	229.00
863.78	229.06
864.09	228.88
864.40	228.95
864.71	228.90
865.02	228.88
865.33	228.85
865.64	228.80
865.95	228.83
866.27	228.96
866.58	228.88
866.89	228.97
867.20	228.96
867.51	228.95
867.82	228.78
868.13	228.82
868.44	228.87
868.75	228.84
869.06	228.83
869.37	228.87
869.68	228.78
869.99	228.82
870.30	228.78
870.61	228.93
870.92	228.77
871.23	228.60
871.54	228.69
871.85	228.76
872.16	228.76
872.47	228.73
872.78	228.67
873.09	228.66
873.40	228.73
873.71	228.72
874.02	228.67
874.33	228.85
874.64	228.85
874.95	228.88
875.26	228.91
875.56	228.90
875.87	228.77
876.18	228.88
876.49	229.10
876.80	229.07
877.11	228.93
877.42	229.05
877.73	229.18
878.04	229.07
878.35	229.03
878.66	228.97
878.96	228.93
879.27	228.85
879.58	228.83
879.89	228.66
880.20	228.67
880.51	228.69
880.82	228.60
881.12	228.59
881.43	228.53
881.74	228.47
882.05	228.44
882.36	228.55
882.67	228.50
882.97	228.29
883.28	228.24
883.59	228.29
883.90	228.30
884.21	228.19
884.51	228.32
884.82	228.30
885.13	228.38
885.44	228.48
885.74	228.53
886.05	228.53
886.36	228.57
886.67	228.50
886.98	228.56
887.28	228.53
887.59	228.56
887.90	228.52
888.20	228.55
888.51	228.56
888.82	228.53
889.13	228.52
889.43	228.72
889.74	228.81
890.05	228.86
890.35	228.87
890.66	228.89
890.97	228.77
891.28	228.70
891.58	228.72
891.89	228.62
892.20	228.61
892.50	228.58
892.81	228.60
893.12	228.64
893.42	228.58
893.73	228.60
894.04	228.67
894.34	228.71
894.65	228.64
894.95	228.61
895.26	228.59
895.57	228.63
895.87	228.45
896.18	228.37
896.48	228.40
896.79	228.34
897.10	228.40
897.40	228.38
897.71	228.47
898.01	228.42
898.32	228.45
898.63	228.46
898.93	228.44
899.24	228.43
899.54	228.39
899.85	228.49
900.15	228.40
900.46	228.31
900.76	228.38
901.07	228.41
901.38	228.50
901.68	228.55
901.99	228.32
902.29	228.32
902.60	228.35
902.90	228.25
903.21	228.28
903.51	228.35
903.82	228.38
904.12	228.36
904.43	228.40
904.73	228.37
905.03	228.30
905.34	228.57
905.64	228.56
905.95	228.62
906.25	228.55
906.56	228.57
906.86	228.62
907.17	228.54
907.47	228.50
907.77	228.43
908.08	228.37
908.38	228.49
908.69	228.54
908.99	228.63
909.30	228.66
909.60	228.55
909.90	228.51
910.21	228.45
910.51	228.48
910.81	228.43
911.12	228.45
911.42	228.61
911.73	228.31
912.03	228.39
912.33	228.33
912.64	228.26
912.94	228.25
913.24	228.21
913.55	228.19
913.85	228.15
914.15	228.21
914.46	228.27
914.76	228.31
915.06	228.21
915.37	228.15
915.67	228.19
915.97	228.22
916.27	228.12
916.58	228.14
916.88	228.06
917.18	228.16
917.49	228.30
917.79	228.25
918.09	228.36
918.39	228.36
918.70	228.43
919.00	228.51
919.30	228.62
919.60	228.61
919.91	228.61
920.21	228.74
920.51	228.63
920.81	228.55
921.12	228.59
921.42	228.80
921.72	228.75
922.02	228.70
922.32	228.77
922.63	228.82
922.93	228.87
923.23	228.93
923.53	228.87
923.83	228.84
924.13	228.80
924.44	228.84
924.74	228.89
925.04	228.88
925.34	228.91
925.64	228.84
925.94	228.90
926.24	229.03
926.55	228.97
926.85	229.08
927.15	229.21
927.45	229.18
927.75	229.11
928.05	229.19
928.35	229.18
928.65	229.25
928.95	229.31
929.26	229.32
929.56	229.37
929.86	229.44
930.16	229.34
930.46	229.32
930.76	229.22
931.06	229.12
931.36	228.98
931.66	229.07
931.96	229.20
932.26	229.20
932.56	229.08
932.86	229.18
933.16	229.16
933.46	229.10
933.76	229.05
934.06	229.10
934.36	229.10
934.66	229.13
934.96	229.08
935.26	229.10
935.56	229.14
935.86	229.10
936.16	229.02
936.46	228.93
936.76	228.92
937.06	228.97
937.36	228.92
937.66	229.06
937.96	228.90
938.26	228.87
938.56	228.85
938.86	228.90
939.16	228.86
939.46	228.81
939.76	228.76
940.06	228.79
940.35	228.58
940.65	228.55
940.95	228.47
941.25	228.34
941.55	228.26
941.85	228.23
942.15	228.24
942.45	228.32
942.75	228.41
943.04	228.30
943.34	228.34
943.64	228.30
943.94	228.29
944.24	228.29
944.54	228.24
944.84	228.13
945.13	228.04
945.43	228.02
945.73	228.01
946.03	228.02
946.33	228.00
946.62	228.02
946.92	228.02
947.22	228.07
947.52	228.12
947.82	228.11
948.11	228.02
948.41	227.95
948.71	227.88
949.01	227.88
949.31	228.01
949.60	228.00
949.90	228.04
950.20	227.90
950.50	227.78
950.79	227.82
951.09	227.92
951.39	227.95
951.69	227.91
951.98	227.92
952.28	227.91
952.58	227.91
952.87	227.99
953.17	228.00
953.47	228.00
953.76	227.99
954.06	227.85
954.36	227.89
954.66	227.89
954.95	227.83
955.25	227.85
955.55	227.80
955.84	227.79
956.14	227.77
956.44	227.84
956.73	227.89
957.03	227.86
957.32	227.84
957.62	227.87
957.92	227.95
958.21	227.91
958.51	228.10
958.81	228.10
959.10	228.10
959.40	228.07
959.69	228.19
959.99	228.19
960.29	228.39
960.58	228.37
960.88	228.49
961.17	228.58
961.47	228.54
961.76	228.60
962.06	228.62
962.36	228.65
962.65	228.77
962.95	228.82
963.24	228.81
963.54	228.85
963.83	228.81
964.13	228.84
964.42	228.87
964.72	228.67
965.01	228.70
965.31	228.68
965.60	228.65
965.90	228.64
966.19	228.68
966.49	228.61
966.78	228.63
967.08	228.64
967.37	228.58
967.67	228.62
967.96	228.67
968.26	228.70
968.55	228.77
968.85	228.73
969.14	228.77
969.43	228.79
969.73	228.76
970.02	228.84
970.32	228.79
970.61	228.78
970.91	228.85
971.20	228.85
971.49	228.86
971.79	228.94
972.08	228.90
972.38	228.79
972.67	228.79
972.96	228.79
973.26	228.72
973.55	228.77
973.85	228.70
974.14	228.62
974.43	228.58
974.73	228.54
975.02	228.42
975.31	228.37
975.61	228.33
975.90	228.25
976.19	228.17
976.49	228.09
976.78	228.03
977.07	227.95
977.37	227.88
977.66	227.86
977.95	227.81
978.24	227.78
978.54	227.93
978.83	227.78
979.12	227.81
979.42	227.85
979.71	227.75
980.00	227.82
980.29	227.77
980.59	227.72
980.88	227.74
981.17	227.71
981.46	227.72
981.76	227.71
982.05	227.80
982.34	227.80
982.63	227.84
982.93	227.88
983.22	227.91
983.51	227.99
983.80	228.03
984.09	228.07
984.39	228.00
984.68	227.99
984.97	228.09
985.26	228.01
985.55	227.95
985.85	227.91
986.14	227.88
986.43	227.91
986.72	227.94
987.01	227.89
987.30	227.84
987.59	227.81
987.89	227.70
988.18	227.66
988.47	227.70
988.76	227.63
989.05	227.66
989.34	227.72
989.63	227.71
989.92	227.67
990.22	227.56
990.51	227.54
990.80	227.50
991.09	227.57
991.38	227.57
991.67	227.60
991.96	227.66
992.25	227.80
992.54	227.77
992.83	227.64
993.12	227.68
993.41	227.79
993.70	227.94
993.99	228.03
994.28	228.09
994.58	228.09
994.87	228.12
995.16	228.04
995.45	228.02
995.74	227.90
996.03	227.91
996.32	228.06
996.61	228.09
996.90	228.10
997.19	228.08
997.48	228.09
997.77	228.11
998.06	228.10
998.34	227.99
998.63	228.02
998.92	228.25
999.21	228.17
999.50	228.10
999.79	227.92
1000.08	227.94
1000.37	228.00
1000.66	227.92
1000.95	227.94
1001.24	227.99
1001.53	227.99
1001.82	228.08
1002.11	228.10
1002.40	228.07
1002.68	228.12
1002.97	228.26
1003.26	228.25
1003.55	228.22
1003.84	228.20
1004.13	228.25
1004.42	228.27
1004.71	228.27
1004.99	228.12
1005.28	228.25
1005.57	228.30
1005.86	228.39
1006.15	228.41
1006.44	228.23
1006.72	228.34
1007.01	228.37
1007.30	228.33
1007.59	228.30
1007.88	228.33
1008.17	228.28
1008.45	228.31
1008.74	228.41
1009.03	228.29
1009.32	228.27
1009.60	228.36
1009.89	228.37
1010.18	228.26
1010.47	228.29
1010.76	228.31
1011.04	228.34
1011.33	228.30
1011.62	228.34
1011.91	228.40
1012.19	228.35
1012.48	228.42
1012.77	228.40
1013.05	228.52
1013.34	228.62
1013.63	228.59
1013.92	228.58
1014.20	228.61
1014.49	228.47
1014.78	228.43
1015.06	228.30
1015.35	228.48
1015.64	228.45
1015.92	228.42
1016.21	228.54
1016.50	228.44
1016.78	228.39
1017.07	228.45
1017.36	228.40
1017.64	228.44
1017.93	228.36
1018.22	228.35
1018.50	228.27
1018.79	228.20
1019.08	227.99
1019.36	227.97
1019.65	228.05
1019.93	228.06
1020.22	228.07
1020.51	228.20
1020.79	228.15
1021.08	227.70
1021.36	226.80
1021.65	226.70
1021.94	226.50
1022.22	228.70
1022.51	228.70
1022.79	228.60
1023.08	228.50
1023.36	229.80
1023.65	228.60
>>>>>End Processed Spectral Data<<<<<
