SpectraSuite Data File
++++++++++++++++++++++++++++++++++++
Date: Fri Feb 01 14:36:00 EST 2013
User: group
Dark Spectrum Present: No
Reference Spectrum Present: No
Number of Sampled Component Spectra: 1
Spectrometers: USB2E7196
Integration Time (usec): 70000 (USB2E7196)
Spectra Averaged: 10 (USB2E7196)
Boxcar Smoothing: 10 (USB2E7196)
Correct for Electrical Dark: No (USB2E7196)
Strobe/Lamp Enabled: No (USB2E7196)
Correct for Detector Non-linearity: No (USB2E7196)
Correct for Stray Light: No (USB2E7196)
Number of Pixels in Processed Spectrum: 2048
>>>>>Begin Processed Spectral Data<<<<<
339.09	0.00
339.48	215.80
339.86	219.90
340.24	217.40
340.63	220.60
341.01	225.50
341.39	223.90
341.78	224.80
342.16	225.90
342.54	225.10
342.93	214.82
343.31	225.68
343.69	226.30
344.07	226.61
344.46	227.18
344.84	227.47
345.22	227.58
345.60	227.84
345.99	228.03
346.37	228.18
346.75	228.40
347.13	228.52
347.52	228.52
347.90	228.45
348.28	228.41
348.66	228.42
349.05	228.41
349.43	228.49
349.81	228.50
350.19	228.50
350.57	228.59
350.96	228.62
351.34	228.60
351.72	228.64
352.10	228.77
352.48	228.74
352.87	228.84
353.25	228.87
353.63	228.90
354.01	229.00
354.39	228.93
354.77	229.01
355.15	229.04
355.54	229.19
355.92	229.35
356.30	229.36
356.68	229.50
357.06	229.52
357.44	229.49
357.82	229.51
358.20	229.70
358.58	229.80
358.97	229.93
359.35	230.10
359.73	230.15
360.11	230.20
360.49	230.27
360.87	230.31
361.25	230.43
361.63	230.51
362.01	230.51
362.39	230.66
362.77	230.62
363.15	230.65
363.53	230.66
363.91	230.64
364.29	230.73
364.67	230.60
365.05	230.56
365.43	230.61
365.81	230.63
366.19	230.58
366.57	230.69
366.95	230.57
367.33	230.46
367.71	230.39
368.09	230.32
368.47	230.28
368.85	230.19
369.23	230.07
369.61	229.99
369.99	229.93
370.37	229.90
370.75	229.96
371.13	229.89
371.51	229.81
371.89	229.81
372.27	229.75
372.65	229.68
373.03	229.70
373.41	229.60
373.78	229.50
374.16	229.31
374.54	229.17
374.92	229.02
375.30	229.01
375.68	228.92
376.06	228.89
376.44	228.76
376.82	228.83
377.19	228.82
377.57	228.70
377.95	228.49
378.33	228.50
378.71	228.25
379.09	228.27
379.47	228.13
379.84	227.94
380.22	227.80
380.60	227.73
380.98	227.65
381.36	227.64
381.73	227.60
382.11	227.58
382.49	227.52
382.87	227.40
383.25	227.20
383.62	227.33
384.00	227.24
384.38	227.28
384.76	227.14
385.13	227.20
385.51	227.15
385.89	227.17
386.27	227.00
386.64	227.02
387.02	226.78
387.40	226.72
387.78	226.66
388.15	226.75
388.53	226.73
388.91	226.70
389.29	226.56
389.66	226.49
390.04	226.49
390.42	226.39
390.79	226.55
391.17	226.70
391.55	226.53
391.92	226.64
392.30	226.66
392.68	226.69
393.05	226.70
393.43	226.66
393.81	226.75
394.18	226.73
394.56	226.83
394.94	226.95
395.31	226.94
395.69	227.14
396.06	227.24
396.44	227.34
396.82	227.42
397.19	227.67
397.57	227.74
397.95	227.77
398.32	227.90
398.70	227.96
399.07	228.04
399.45	228.11
399.82	228.11
400.20	228.17
400.58	228.28
400.95	228.28
401.33	228.44
401.70	228.74
402.08	228.99
402.45	229.12
402.83	229.40
403.20	229.79
403.58	229.99
403.95	230.16
404.33	230.33
404.71	230.39
405.08	230.74
405.46	230.94
405.83	231.31
406.21	231.61
406.58	231.88
406.96	232.10
407.33	232.48
407.70	232.95
408.08	233.48
408.45	233.88
408.83	234.41
409.20	234.91
409.58	235.19
409.95	235.74
410.33	236.31
410.70	236.74
411.08	237.29
411.45	237.94
411.82	238.52
412.20	239.27
412.57	240.31
412.95	240.87
413.32	241.86
413.69	242.55
414.07	243.47
414.44	244.61
414.82	245.78
415.19	246.99
415.56	248.06
415.94	249.40
416.31	250.85
416.68	252.29
417.06	253.95
417.43	255.52
417.81	257.25
418.18	259.05
418.55	261.11
418.93	263.05
419.30	265.02
419.67	267.25
420.04	269.47
420.42	271.72
420.79	274.58
421.16	277.21
421.54	280.15
421.91	283.12
422.28	286.15
422.66	289.28
423.03	292.42
423.40	295.75
423.77	298.99
424.15	302.50
424.52	306.07
424.89	309.93
425.26	313.86
425.64	317.38
426.01	321.33
426.38	325.50
426.75	329.79
427.13	334.30
427.50	338.93
427.87	343.60
428.24	348.33
428.61	352.79
428.99	357.95
429.36	363.51
429.73	368.69
430.10	373.83
430.47	379.30
430.85	384.75
431.22	390.50
431.59	396.78
431.96	402.74
432.33	409.41
432.70	415.92
433.08	423.35
433.45	430.49
433.82	437.44
434.19	445.06
434.56	452.81
434.93	460.01
435.30	467.19
435.68	475.35
436.05	483.25
436.42	491.06
436.79	498.16
437.16	505.80
437.53	514.11
437.90	522.18
438.27	530.10
438.64	538.33
439.01	546.06
439.38	552.87
439.75	559.39
440.13	566.80
440.50	573.82
440.87	579.62
441.24	585.94
441.61	592.63
441.98	597.70
442.35	603.40
442.72	609.47
443.09	615.60
443.46	619.47
443.83	622.24
444.20	624.73
444.57	627.92
444.94	630.05
445.31	631.96
445.68	634.10
446.05	635.43
446.42	635.62
446.79	635.38
447.16	635.32
447.53	635.76
447.90	633.92
448.27	631.96
448.64	628.72
449.01	626.50
449.37	622.23
449.74	617.98
450.11	612.58
450.48	606.88
450.85	600.63
451.22	595.57
451.59	590.54
451.96	585.91
452.33	579.76
452.70	573.75
453.07	566.66
453.43	559.43
453.80	552.21
454.17	545.38
454.54	538.94
454.91	531.91
455.28	524.86
455.65	518.20
456.02	511.61
456.38	506.07
456.75	498.93
457.12	492.99
457.49	487.27
457.86	481.66
458.23	476.60
458.59	471.11
458.96	465.43
459.33	460.76
459.70	455.92
460.07	451.78
460.43	447.13
460.80	442.60
461.17	438.59
461.54	434.54
461.91	430.65
462.27	426.76
462.64	423.33
463.01	419.63
463.38	416.14
463.74	412.39
464.11	409.27
464.48	406.50
464.85	403.48
465.21	400.85
465.58	398.46
465.95	395.35
466.32	392.91
466.68	390.34
467.05	387.70
467.42	385.06
467.78	382.39
468.15	379.91
468.52	378.15
468.88	375.70
469.25	373.64
469.62	371.81
469.98	370.07
470.35	368.30
470.72	366.59
471.08	364.80
471.45	363.31
471.82	361.56
472.18	359.75
472.55	358.48
472.92	357.11
473.28	355.65
473.65	354.47
474.02	353.08
474.38	351.90
474.75	350.99
475.11	350.02
475.48	349.01
475.85	348.11
476.21	347.35
476.58	346.70
476.94	346.03
477.31	345.36
477.67	344.67
478.04	344.16
478.41	343.61
478.77	343.17
479.14	342.74
479.50	342.45
479.87	342.26
480.23	341.95
480.60	341.68
480.96	341.44
481.33	341.24
481.69	341.17
482.06	341.09
482.42	340.95
482.79	340.81
483.15	341.10
483.52	341.45
483.88	341.61
484.25	341.74
484.61	342.06
484.98	342.40
485.34	342.86
485.71	343.36
486.07	343.85
486.44	344.22
486.80	344.86
487.17	345.57
487.53	346.48
487.90	347.34
488.26	348.31
488.62	349.41
488.99	350.35
489.35	351.30
489.72	352.52
490.08	353.88
490.44	355.05
490.81	356.33
491.17	357.50
491.54	358.77
491.90	360.12
492.26	361.51
492.63	362.98
492.99	364.43
493.36	365.88
493.72	367.61
494.08	369.09
494.45	370.69
494.81	372.33
495.17	373.90
495.54	375.65
495.90	377.35
496.26	379.02
496.63	380.96
496.99	383.08
497.35	384.88
497.72	386.51
498.08	388.41
498.44	390.35
498.80	392.42
499.17	394.49
499.53	396.42
499.89	398.41
500.26	400.35
500.62	402.09
500.98	404.08
501.34	405.90
501.71	408.12
502.07	409.94
502.43	411.90
502.79	413.83
503.16	415.70
503.52	417.60
503.88	419.34
504.24	421.00
504.60	422.72
504.97	424.60
505.33	426.50
505.69	428.58
506.05	430.35
506.41	431.99
506.78	433.49
507.14	435.19
507.50	436.82
507.86	438.38
508.22	440.10
508.59	441.51
508.95	442.90
509.31	444.30
509.67	445.87
510.03	447.15
510.39	448.50
510.75	449.77
511.12	450.95
511.48	452.15
511.84	453.35
512.20	454.24
512.56	455.35
512.92	456.40
513.28	456.94
513.64	457.58
514.00	458.28
514.37	459.19
514.73	459.73
515.09	460.33
515.45	460.90
515.81	461.59
516.17	462.19
516.53	462.84
516.89	463.27
517.25	463.63
517.61	464.17
517.97	464.65
518.33	465.04
518.69	465.38
519.05	465.88
519.41	466.42
519.77	467.16
520.13	467.54
520.49	468.02
520.85	468.68
521.21	469.17
521.57	469.73
521.93	470.02
522.29	470.80
522.65	471.18
523.01	471.75
523.37	472.18
523.73	472.84
524.09	473.30
524.45	473.93
524.81	474.50
525.17	475.22
525.53	476.02
525.89	476.77
526.25	477.73
526.61	478.38
526.97	479.14
527.33	479.83
527.68	480.85
528.04	481.62
528.40	482.47
528.76	483.61
529.12	484.89
529.48	486.30
529.84	487.34
530.20	488.71
530.56	490.20
530.91	491.66
531.27	493.11
531.63	494.91
531.99	496.66
532.35	498.48
532.71	500.15
533.07	501.90
533.42	503.90
533.78	505.74
534.14	507.93
534.50	509.94
534.86	512.01
535.21	514.07
535.57	516.51
535.93	518.96
536.29	521.53
536.65	523.77
537.00	525.96
537.36	528.52
537.72	531.29
538.08	533.87
538.44	536.40
538.79	539.07
539.15	541.60
539.51	544.35
539.87	547.34
540.22	550.35
540.58	553.19
540.94	556.08
541.29	559.06
541.65	562.10
542.01	565.40
542.37	568.87
542.72	572.10
543.08	575.23
543.44	578.64
543.79	581.78
544.15	585.10
544.51	588.81
544.87	592.22
545.22	595.64
545.58	599.20
545.94	602.68
546.29	606.24
546.65	609.90
547.01	613.50
547.36	617.04
547.72	620.71
548.07	624.38
548.43	628.11
548.79	632.03
549.14	635.71
549.50	639.20
549.86	642.64
550.21	646.16
550.57	650.09
550.92	653.65
551.28	657.51
551.64	661.43
551.99	665.16
552.35	668.98
552.70	672.70
553.06	676.53
553.41	680.67
553.77	684.43
554.13	688.23
554.48	691.97
554.84	695.80
555.19	699.56
555.55	703.56
555.90	707.19
556.26	710.95
556.61	714.46
556.97	718.26
557.32	722.20
557.68	726.06
558.03	730.02
558.39	733.78
558.74	737.47
559.10	741.17
559.45	744.83
559.81	748.80
560.16	752.55
560.52	756.08
560.87	759.81
561.23	763.43
561.58	767.27
561.94	770.81
562.29	774.18
562.64	777.42
563.00	780.69
563.35	784.42
563.71	788.08
564.06	791.96
564.42	795.34
564.77	798.33
565.12	801.58
565.48	804.97
565.83	808.14
566.19	811.24
566.54	814.45
566.89	817.66
567.25	820.85
567.60	824.02
567.96	827.34
568.31	830.08
568.66	832.93
569.02	835.48
569.37	838.42
569.72	841.30
570.08	844.06
570.43	846.92
570.78	849.06
571.14	851.12
571.49	853.42
571.84	856.01
572.20	858.45
572.55	860.96
572.90	862.73
573.26	865.18
573.61	867.40
573.96	869.24
574.31	870.61
574.67	871.84
575.02	873.22
575.37	874.63
575.72	875.85
576.08	877.34
576.43	878.73
576.78	879.86
577.13	881.24
577.49	882.77
577.84	883.80
578.19	885.10
578.54	886.15
578.90	886.80
579.25	887.21
579.60	887.87
579.95	888.18
580.30	888.61
580.66	888.67
581.01	888.80
581.36	889.26
581.71	890.18
582.06	890.44
582.42	891.05
582.77	891.18
583.12	891.53
583.47	891.80
583.82	892.10
584.17	892.20
584.53	892.03
584.88	891.90
585.23	891.97
585.58	891.74
585.93	891.58
586.28	891.95
586.63	892.34
586.98	892.47
587.34	892.38
587.69	892.54
588.04	892.37
588.39	892.07
588.74	891.56
589.09	890.68
589.44	890.18
589.79	889.53
590.14	889.35
590.49	888.88
590.84	887.98
591.19	887.18
591.54	886.28
591.89	885.08
592.25	884.17
592.60	882.83
592.95	881.84
593.30	880.56
593.65	879.11
594.00	877.90
594.35	876.97
594.70	875.43
595.05	873.85
595.40	872.66
595.75	871.33
596.10	870.00
596.45	869.34
596.80	868.49
597.15	867.28
597.50	865.69
597.85	864.54
598.19	863.43
598.54	862.36
598.89	861.14
599.24	860.25
599.59	858.88
599.94	857.60
600.29	856.03
600.64	854.85
600.99	852.83
601.34	851.16
601.69	848.87
602.04	847.67
602.39	846.06
602.74	844.45
603.08	843.08
603.43	841.72
603.78	839.63
604.13	837.80
604.48	835.97
604.83	834.40
605.18	832.56
605.53	830.66
605.87	828.37
606.22	826.30
606.57	824.17
606.92	822.09
607.27	820.39
607.62	818.77
607.96	816.94
608.31	815.55
608.66	813.40
609.01	811.80
609.36	809.35
609.70	806.97
610.05	804.48
610.40	802.30
610.75	799.55
611.10	797.24
611.44	794.84
611.79	792.52
612.14	789.78
612.49	786.67
612.83	783.98
613.18	781.55
613.53	779.10
613.88	776.37
614.22	773.63
614.57	770.50
614.92	767.55
615.27	764.83
615.61	761.87
615.96	759.16
616.31	756.42
616.65	754.27
617.00	751.80
617.35	749.33
617.70	746.63
618.04	744.02
618.39	741.52
618.74	738.74
619.08	735.79
619.43	733.10
619.78	730.82
620.12	728.30
620.47	725.39
620.82	722.48
621.16	719.96
621.51	717.66
621.85	715.23
622.20	712.59
622.55	709.91
622.89	707.49
623.24	704.79
623.59	702.20
623.93	699.53
624.28	696.78
624.62	694.37
624.97	691.79
625.32	689.50
625.66	687.00
626.01	684.58
626.35	681.93
626.70	679.29
627.04	676.72
627.39	674.00
627.73	671.67
628.08	669.32
628.43	666.55
628.77	663.81
629.12	661.20
629.46	658.70
629.81	655.83
630.15	653.35
630.50	650.67
630.84	647.78
631.19	644.78
631.53	642.31
631.88	639.47
632.22	636.49
632.57	633.86
632.91	631.00
633.26	628.10
633.60	625.66
633.95	623.15
634.29	620.70
634.64	618.27
634.98	615.71
635.32	613.17
635.67	610.95
636.01	608.43
636.36	605.87
636.70	603.50
637.05	601.12
637.39	598.52
637.73	596.30
638.08	594.32
638.42	592.15
638.77	589.67
639.11	587.27
639.45	584.91
639.80	582.19
640.14	579.90
640.49	577.64
640.83	575.14
641.17	572.84
641.52	570.51
641.86	568.06
642.20	565.74
642.55	563.40
642.89	560.96
643.23	558.50
643.58	556.39
643.92	554.06
644.26	551.70
644.61	549.56
644.95	547.26
645.29	544.56
645.64	542.04
645.98	539.63
646.32	537.48
646.66	535.30
647.01	533.19
647.35	530.95
647.69	528.62
648.04	526.61
648.38	524.09
648.72	521.39
649.06	519.12
649.41	516.85
649.75	514.47
650.09	512.10
650.43	509.84
650.78	507.30
651.12	505.08
651.46	502.95
651.80	500.43
652.14	498.26
652.49	496.11
652.83	493.99
653.17	491.79
653.51	489.33
653.85	487.08
654.20	484.74
654.54	482.04
654.88	479.68
655.22	477.17
655.56	475.01
655.90	472.92
656.25	470.69
656.59	468.44
656.93	466.52
657.27	464.45
657.61	462.19
657.95	460.26
658.29	457.87
658.64	455.64
658.98	453.50
659.32	451.18
659.66	449.10
660.00	447.20
660.34	445.15
660.68	443.14
661.02	440.97
661.36	439.11
661.70	437.46
662.05	435.60
662.39	433.80
662.73	431.88
663.07	430.27
663.41	428.49
663.75	426.61
664.09	424.68
664.43	422.90
664.77	421.21
665.11	419.40
665.45	417.70
665.79	416.07
666.13	414.53
666.47	412.84
666.81	410.94
667.15	408.97
667.49	407.27
667.83	405.67
668.17	404.04
668.51	402.31
668.85	400.63
669.19	399.24
669.53	397.59
669.87	395.95
670.21	394.27
670.55	392.69
670.89	391.33
671.23	389.92
671.57	388.38
671.91	386.90
672.25	385.19
672.58	383.85
672.92	382.40
673.26	380.88
673.60	379.51
673.94	378.36
674.28	377.26
674.62	376.07
674.96	374.68
675.30	373.44
675.64	372.13
675.97	370.92
676.31	369.56
676.65	368.27
676.99	367.30
677.33	365.90
677.67	364.84
678.01	363.51
678.34	362.10
678.68	360.89
679.02	359.75
679.36	358.69
679.70	357.39
680.04	356.15
680.37	354.92
680.71	353.83
681.05	352.67
681.39	351.54
681.73	350.45
682.06	349.48
682.40	348.45
682.74	347.37
683.08	346.28
683.42	345.28
683.75	344.26
684.09	342.99
684.43	342.00
684.77	340.84
685.10	339.62
685.44	338.55
685.78	337.61
686.12	336.55
686.45	335.61
686.79	334.62
687.13	333.71
687.46	332.72
687.80	331.64
688.14	330.49
688.48	329.46
688.81	328.36
689.15	327.40
689.49	326.32
689.82	325.27
690.16	324.22
690.50	323.13
690.83	322.15
691.17	321.18
691.51	320.24
691.84	319.30
692.18	318.48
692.52	317.63
692.85	316.60
693.19	315.73
693.52	314.76
693.86	313.84
694.20	312.84
694.53	311.97
694.87	311.06
695.21	310.17
695.54	309.19
695.88	308.30
696.21	307.25
696.55	306.32
696.88	305.48
697.22	304.57
697.56	303.89
697.89	303.03
698.23	302.25
698.56	301.52
698.90	300.59
699.23	299.72
699.57	298.99
699.90	298.19
700.24	297.26
700.58	296.43
700.91	295.66
701.25	295.06
701.58	294.46
701.92	293.70
702.25	293.09
702.59	292.30
702.92	291.60
703.26	290.98
703.59	290.33
703.93	289.81
704.26	289.19
704.60	288.39
704.93	287.77
705.26	287.10
705.60	286.46
705.93	285.95
706.27	285.38
706.60	284.81
706.94	284.40
707.27	283.83
707.61	283.30
707.94	282.71
708.27	281.98
708.61	281.30
708.94	280.76
709.28	280.28
709.61	279.81
709.94	279.31
710.28	278.77
710.61	278.28
710.95	277.67
711.28	277.25
711.61	276.82
711.95	276.30
712.28	275.68
712.61	275.04
712.95	274.54
713.28	274.06
713.61	273.44
713.95	272.87
714.28	272.41
714.61	271.93
714.95	271.56
715.28	271.07
715.61	270.61
715.95	270.27
716.28	269.71
716.61	269.30
716.95	268.85
717.28	268.41
717.61	267.97
717.94	267.59
718.28	267.04
718.61	266.61
718.94	266.27
719.27	266.07
719.61	265.72
719.94	265.33
720.27	264.84
720.60	264.58
720.94	264.18
721.27	263.81
721.60	263.47
721.93	263.06
722.27	262.79
722.60	262.50
722.93	262.11
723.26	261.86
723.59	261.53
723.93	261.27
724.26	260.97
724.59	260.70
724.92	260.40
725.25	260.22
725.59	259.83
725.92	259.55
726.25	259.10
726.58	258.82
726.91	258.60
727.24	258.41
727.57	257.97
727.91	257.70
728.24	257.50
728.57	257.28
728.90	256.99
729.23	256.63
729.56	256.42
729.89	256.07
730.22	255.71
730.55	255.45
730.89	255.16
731.22	254.87
731.55	254.63
731.88	254.25
732.21	253.85
732.54	253.53
732.87	253.21
733.20	252.96
733.53	252.71
733.86	252.43
734.19	252.14
734.52	251.91
734.85	251.71
735.18	251.38
735.51	251.21
735.84	250.95
736.17	250.81
736.50	250.48
736.83	250.52
737.16	250.24
737.49	250.02
737.82	249.78
738.15	249.58
738.48	249.36
738.81	249.23
739.14	248.98
739.47	248.82
739.80	248.61
740.13	248.47
740.46	248.20
740.79	247.88
741.12	247.73
741.45	247.53
741.78	247.27
742.11	247.13
742.44	246.80
742.77	246.70
743.10	246.31
743.43	246.10
743.75	245.68
744.08	245.81
744.41	245.62
744.74	245.40
745.07	245.13
745.40	244.91
745.73	244.74
746.06	244.65
746.39	244.37
746.71	244.20
747.04	243.90
747.37	243.82
747.70	243.69
748.03	243.41
748.36	243.16
748.68	242.94
749.01	242.71
749.34	242.42
749.67	242.37
750.00	242.25
750.33	242.22
750.65	241.97
750.98	241.60
751.31	241.36
751.64	241.09
751.97	241.12
752.29	240.91
752.62	240.66
752.95	240.43
753.28	240.40
753.60	240.15
753.93	240.16
754.26	239.93
754.59	239.70
754.91	239.62
755.24	239.62
755.57	239.48
755.90	239.39
756.22	239.31
756.55	238.92
756.88	238.91
757.20	238.52
757.53	238.52
757.86	238.38
758.19	238.28
758.51	238.23
758.84	237.94
759.17	237.78
759.49	237.73
759.82	237.79
760.15	237.66
760.47	237.65
760.80	237.46
761.13	237.44
761.45	237.32
761.78	237.16
762.11	236.96
762.43	236.90
762.76	236.74
763.08	236.65
763.41	236.65
763.74	236.48
764.06	236.58
764.39	236.51
764.71	236.45
765.04	236.37
765.37	236.38
765.69	236.46
766.02	236.52
766.34	236.41
766.67	236.37
767.00	236.34
767.32	236.38
767.65	236.42
767.97	236.35
768.30	236.37
768.62	236.39
768.95	236.40
769.27	236.35
769.60	236.35
769.92	236.42
770.25	236.37
770.57	236.30
770.90	236.17
771.22	236.08
771.55	236.07
771.87	236.12
772.20	235.95
772.52	235.96
772.85	236.01
773.17	235.96
773.50	235.69
773.82	235.67
774.15	235.45
774.47	235.22
774.80	235.13
775.12	235.09
775.45	235.07
775.77	235.07
776.09	234.97
776.42	234.94
776.74	234.82
777.07	234.80
777.39	234.78
777.72	234.68
778.04	234.59
778.36	234.36
778.69	234.16
779.01	234.16
779.33	233.98
779.66	233.82
779.98	233.79
780.31	233.83
780.63	233.79
780.95	233.77
781.28	233.75
781.60	233.68
781.92	233.59
782.25	233.32
782.57	233.23
782.89	233.20
783.22	233.05
783.54	232.97
783.86	232.92
784.19	232.74
784.51	232.73
784.83	232.61
785.16	232.60
785.48	232.66
785.80	232.55
786.12	232.42
786.45	232.27
786.77	232.20
787.09	232.01
787.42	231.86
787.74	231.80
788.06	231.79
788.38	231.78
788.71	231.77
789.03	231.88
789.35	231.76
789.67	231.68
789.99	231.71
790.32	231.62
790.64	231.66
790.96	231.83
791.28	231.74
791.61	231.65
791.93	231.64
792.25	231.44
792.57	231.56
792.89	231.45
793.21	231.49
793.54	231.31
793.86	231.35
794.18	231.31
794.50	231.33
794.82	231.23
795.14	231.19
795.47	231.15
795.79	231.24
796.11	231.23
796.43	231.25
796.75	231.17
797.07	231.12
797.39	231.07
797.71	230.90
798.04	230.88
798.36	230.91
798.68	230.93
799.00	230.96
799.32	230.97
799.64	230.96
799.96	230.93
800.28	231.11
800.60	231.09
800.92	231.10
801.24	231.03
801.56	231.07
801.89	231.05
802.21	231.10
802.53	230.96
802.85	230.96
803.17	231.00
803.49	231.07
803.81	231.07
804.13	230.99
804.45	231.07
804.77	231.08
805.09	231.10
805.41	231.08
805.73	231.02
806.05	230.92
806.37	231.02
806.69	231.04
807.01	230.96
807.33	231.03
807.65	230.94
807.97	230.99
808.28	230.90
808.60	230.76
808.92	230.69
809.24	230.81
809.56	230.92
809.88	230.83
810.20	230.73
810.52	230.82
810.84	230.73
811.16	230.62
811.48	230.70
811.80	230.73
812.12	230.72
812.43	230.84
812.75	230.87
813.07	230.80
813.39	230.81
813.71	230.74
814.03	230.67
814.35	230.73
814.67	230.63
814.98	230.70
815.30	230.76
815.62	230.68
815.94	230.47
816.26	230.36
816.58	230.29
816.89	230.28
817.21	230.12
817.53	230.14
817.85	230.14
818.17	229.98
818.48	229.95
818.80	229.88
819.12	229.81
819.44	229.70
819.76	229.73
820.07	229.58
820.39	229.50
820.71	229.47
821.03	229.38
821.34	229.32
821.66	229.28
821.98	229.28
822.30	229.25
822.61	229.30
822.93	229.08
823.25	229.04
823.57	229.04
823.88	229.08
824.20	229.08
824.52	229.04
824.83	229.07
825.15	229.02
825.47	228.96
825.79	228.96
826.10	228.89
826.42	228.84
826.74	228.95
827.05	229.01
827.37	229.05
827.69	229.04
828.00	229.15
828.32	229.05
828.64	229.00
828.95	229.11
829.27	229.12
829.58	229.19
829.90	229.17
830.22	229.13
830.53	229.10
830.85	229.05
831.17	229.00
831.48	228.88
831.80	228.81
832.11	228.77
832.43	228.69
832.75	228.63
833.06	228.67
833.38	228.46
833.69	228.40
834.01	228.24
834.32	228.21
834.64	228.09
834.96	228.15
835.27	228.25
835.59	228.18
835.90	228.08
836.22	228.11
836.53	228.14
836.85	228.09
837.16	228.25
837.48	228.20
837.79	228.30
838.11	228.36
838.42	228.41
838.74	228.55
839.05	228.61
839.37	228.69
839.68	228.59
840.00	228.70
840.31	228.82
840.63	228.99
840.94	228.97
841.26	229.00
841.57	229.00
841.88	229.02
842.20	229.04
842.51	229.09
842.83	229.12
843.14	229.32
843.46	229.37
843.77	229.28
844.08	229.30
844.40	229.24
844.71	229.19
845.03	229.21
845.34	229.20
845.65	229.10
845.97	229.10
846.28	229.22
846.60	229.25
846.91	229.17
847.22	229.11
847.54	229.22
847.85	229.23
848.16	229.28
848.48	229.21
848.79	229.35
849.10	229.38
849.42	229.49
849.73	229.37
850.04	229.36
850.36	229.30
850.67	229.50
850.98	229.65
851.30	229.77
851.61	229.73
851.92	229.67
852.23	229.73
852.55	229.78
852.86	229.69
853.17	229.76
853.49	229.80
853.80	229.83
854.11	229.85
854.42	229.87
854.74	229.86
855.05	229.84
855.36	229.70
855.67	229.61
855.99	229.55
856.30	229.74
856.61	229.69
856.92	229.68
857.23	229.50
857.55	229.30
857.86	229.21
858.17	229.25
858.48	229.26
858.79	229.26
859.11	229.29
859.42	229.20
859.73	229.05
860.04	228.97
860.35	228.93
860.66	228.85
860.98	228.88
861.29	228.88
861.60	228.88
861.91	228.81
862.22	228.86
862.53	228.80
862.84	228.55
863.16	228.68
863.47	228.67
863.78	228.63
864.09	228.63
864.40	228.69
864.71	228.60
865.02	228.60
865.33	228.61
865.64	228.50
865.95	228.54
866.27	228.69
866.58	228.82
866.89	228.78
867.20	228.63
867.51	228.54
867.82	228.43
868.13	228.38
868.44	228.33
868.75	228.31
869.06	228.27
869.37	228.20
869.68	228.04
869.99	228.02
870.30	228.01
870.61	228.02
870.92	227.92
871.23	227.88
871.54	227.83
871.85	227.70
872.16	227.73
872.47	227.64
872.78	227.49
873.09	227.33
873.40	227.30
873.71	227.39
874.02	227.37
874.33	227.38
874.64	227.44
874.95	227.54
875.26	227.45
875.56	227.44
875.87	227.48
876.18	227.48
876.49	227.76
876.80	227.81
877.11	227.77
877.42	227.79
877.73	227.85
878.04	227.89
878.35	227.97
878.66	228.03
878.96	228.14
879.27	228.15
879.58	228.19
879.89	228.22
880.20	228.36
880.51	228.47
880.82	228.52
881.12	228.52
881.43	228.47
881.74	228.53
882.05	228.65
882.36	228.66
882.67	228.73
882.97	228.45
883.28	228.41
883.59	228.50
883.90	228.62
884.21	228.73
884.51	228.76
884.82	228.79
885.13	228.85
885.44	228.83
885.74	228.89
886.05	228.94
886.36	228.95
886.67	228.93
886.98	228.96
887.28	228.94
887.59	228.97
887.90	229.04
888.20	229.05
888.51	229.01
888.82	229.01
889.13	229.02
889.43	229.24
889.74	229.27
890.05	229.28
890.35	229.25
890.66	229.10
890.97	229.14
891.28	229.07
891.58	228.96
891.89	229.02
892.20	228.93
892.50	228.90
892.81	228.92
893.12	228.94
893.42	228.85
893.73	228.90
894.04	228.89
894.34	228.88
894.65	228.90
894.95	228.92
895.26	228.94
895.57	229.08
895.87	228.88
896.18	228.95
896.48	229.00
896.79	228.95
897.10	229.07
897.40	228.94
897.71	229.03
898.01	229.03
898.32	229.03
898.63	229.11
898.93	229.11
899.24	229.20
899.54	229.10
899.85	229.13
900.15	229.16
900.46	229.20
900.76	229.14
901.07	229.17
901.38	229.12
901.68	229.11
901.99	228.87
902.29	228.89
902.60	228.79
902.90	228.70
903.21	228.76
903.51	228.68
903.82	228.78
904.12	228.73
904.43	228.68
904.73	228.55
905.03	228.56
905.34	228.78
905.64	228.63
905.95	228.58
906.25	228.51
906.56	228.40
906.86	228.31
907.17	228.33
907.47	228.21
907.77	228.11
908.08	228.02
908.38	228.10
908.69	228.06
908.99	228.10
909.30	228.09
909.60	227.99
909.90	228.07
910.21	228.07
910.51	227.95
910.81	228.11
911.12	228.13
911.42	228.08
911.73	227.80
912.03	227.86
912.33	227.78
912.64	227.80
912.94	227.80
913.24	227.75
913.55	227.72
913.85	227.72
914.15	227.87
914.46	227.91
914.76	227.88
915.06	227.83
915.37	227.84
915.67	227.82
915.97	227.89
916.27	227.80
916.58	227.72
916.88	227.80
917.18	227.77
917.49	228.04
917.79	228.11
918.09	228.21
918.39	228.30
918.70	228.41
919.00	228.36
919.30	228.39
919.60	228.38
919.91	228.41
920.21	228.48
920.51	228.39
920.81	228.48
921.12	228.55
921.42	228.66
921.72	228.60
922.02	228.63
922.32	228.58
922.63	228.60
922.93	228.74
923.23	228.75
923.53	228.65
923.83	228.47
924.13	228.43
924.44	228.39
924.74	228.44
925.04	228.64
925.34	228.69
925.64	228.72
925.94	228.80
926.24	228.94
926.55	228.87
926.85	228.86
927.15	228.83
927.45	228.84
927.75	228.88
928.05	228.96
928.35	228.96
928.65	229.08
928.95	229.14
929.26	229.08
929.56	229.16
929.86	229.27
930.16	229.22
930.46	229.23
930.76	229.23
931.06	229.09
931.36	228.94
931.66	229.03
931.96	229.04
932.26	229.02
932.56	228.87
932.86	228.90
933.16	228.93
933.46	228.98
933.76	228.88
934.06	228.90
934.36	228.93
934.66	228.92
934.96	228.89
935.26	228.83
935.56	228.82
935.86	228.67
936.16	228.62
936.46	228.55
936.76	228.40
937.06	228.40
937.36	228.38
937.66	228.31
937.96	228.28
938.26	228.28
938.56	228.21
938.86	228.16
939.16	228.18
939.46	228.13
939.76	228.00
940.06	227.95
940.35	227.87
940.65	227.76
940.95	227.65
941.25	227.56
941.55	227.49
941.85	227.40
942.15	227.47
942.45	227.48
942.75	227.46
943.04	227.50
943.34	227.37
943.64	227.36
943.94	227.34
944.24	227.16
944.54	227.04
944.84	227.08
945.13	227.05
945.43	226.96
945.73	227.03
946.03	227.08
946.33	227.13
946.62	227.00
946.92	226.95
947.22	227.11
947.52	227.03
947.82	227.00
948.11	227.00
948.41	226.93
948.71	226.82
949.01	226.89
949.31	227.00
949.60	227.08
949.90	227.03
950.20	227.01
950.50	227.10
950.79	227.12
951.09	227.15
951.39	227.10
951.69	227.10
951.98	226.96
952.28	227.01
952.58	226.97
952.87	227.11
953.17	227.20
953.47	227.07
953.76	227.20
954.06	227.30
954.36	227.28
954.66	227.36
954.95	227.42
955.25	227.46
955.55	227.43
955.84	227.46
956.14	227.52
956.44	227.65
956.73	227.71
957.03	227.76
957.32	227.75
957.62	227.93
957.92	228.11
958.21	228.25
958.51	228.41
958.81	228.56
959.10	228.55
959.40	228.60
959.69	228.67
959.99	228.75
960.29	228.73
960.58	228.82
960.88	228.90
961.17	228.97
961.47	228.99
961.76	228.96
962.06	229.06
962.36	229.05
962.65	228.94
962.95	228.98
963.24	229.02
963.54	229.05
963.83	229.15
964.13	229.05
964.42	229.05
964.72	228.96
965.01	229.00
965.31	228.99
965.60	228.98
965.90	229.16
966.19	229.06
966.49	229.15
966.78	229.16
967.08	229.15
967.37	229.08
967.67	229.10
967.96	229.21
968.26	229.20
968.55	229.28
968.85	229.42
969.14	229.33
969.43	229.31
969.73	229.34
970.02	229.22
970.32	229.31
970.61	229.35
970.91	229.24
971.20	229.13
971.49	229.06
971.79	229.04
972.08	228.89
972.38	228.88
972.67	228.79
972.96	228.76
973.26	228.67
973.55	228.81
973.85	228.70
974.14	228.60
974.43	228.56
974.73	228.50
975.02	228.30
975.31	228.27
975.61	228.15
975.90	228.01
976.19	227.87
976.49	227.77
976.78	227.68
977.07	227.70
977.37	227.72
977.66	227.70
977.95	227.70
978.24	227.66
978.54	227.63
978.83	227.63
979.12	227.62
979.42	227.52
979.71	227.45
980.00	227.53
980.29	227.55
980.59	227.45
980.88	227.40
981.17	227.37
981.46	227.45
981.76	227.45
982.05	227.59
982.34	227.65
982.63	227.67
982.93	227.69
983.22	227.68
983.51	227.61
983.80	227.65
984.09	227.66
984.39	227.61
984.68	227.69
984.97	227.68
985.26	227.71
985.55	227.78
985.85	227.61
986.14	227.59
986.43	227.55
986.72	227.61
987.01	227.51
987.30	227.60
987.59	227.61
987.89	227.71
988.18	227.67
988.47	227.62
988.76	227.60
989.05	227.63
989.34	227.65
989.63	227.76
989.92	227.75
990.22	227.79
990.51	227.76
990.80	227.63
991.09	227.70
991.38	227.68
991.67	227.63
991.96	227.77
992.25	227.69
992.54	227.80
992.83	227.86
993.12	227.90
993.41	228.03
993.70	228.04
993.99	228.06
994.28	228.08
994.58	228.30
994.87	228.37
995.16	228.38
995.45	228.39
995.74	228.35
996.03	228.41
996.32	228.41
996.61	228.40
996.90	228.45
997.19	228.44
997.48	228.48
997.77	228.56
998.06	228.55
998.34	228.75
998.63	228.80
998.92	228.75
999.21	228.90
999.50	228.87
999.79	228.93
1000.08	228.95
1000.37	228.99
1000.66	228.84
1000.95	228.84
1001.24	228.81
1001.53	228.87
1001.82	228.94
1002.11	228.97
1002.40	229.01
1002.68	229.24
1002.97	229.43
1003.26	229.43
1003.55	229.38
1003.84	229.29
1004.13	229.35
1004.42	229.25
1004.71	229.11
1004.99	229.10
1005.28	229.10
1005.57	229.10
1005.86	229.00
1006.15	229.06
1006.44	228.98
1006.72	229.07
1007.01	228.94
1007.30	229.05
1007.59	229.05
1007.88	228.90
1008.17	228.79
1008.45	228.70
1008.74	228.54
1009.03	228.36
1009.32	228.34
1009.60	228.31
1009.89	228.39
1010.18	228.26
1010.47	228.11
1010.76	228.04
1011.04	228.01
1011.33	227.97
1011.62	227.96
1011.91	227.98
1012.19	227.87
1012.48	227.95
1012.77	227.93
1013.05	228.14
1013.34	228.06
1013.63	227.91
1013.92	227.96
1014.20	228.00
1014.49	227.93
1014.78	228.04
1015.06	228.00
1015.35	227.92
1015.64	227.98
1015.92	228.00
1016.21	227.98
1016.50	228.08
1016.78	228.29
1017.07	228.31
1017.36	228.31
1017.64	228.17
1017.93	228.08
1018.22	228.08
1018.50	227.96
1018.79	227.89
1019.08	227.70
1019.36	227.68
1019.65	227.68
1019.93	227.69
1020.22	227.71
1020.51	227.80
1020.79	227.73
1021.08	228.10
1021.36	226.90
1021.65	227.70
1021.94	226.40
1022.22	228.30
1022.51	227.20
1022.79	227.60
1023.08	228.30
1023.36	229.00
1023.65	228.20
>>>>>End Processed Spectral Data<<<<<
