SpectraSuite Data File
++++++++++++++++++++++++++++++++++++
Date: Fri Feb 01 14:33:33 EST 2013
User: group
Dark Spectrum Present: No
Reference Spectrum Present: No
Number of Sampled Component Spectra: 1
Spectrometers: USB2E7196
Integration Time (usec): 70000 (USB2E7196)
Spectra Averaged: 10 (USB2E7196)
Boxcar Smoothing: 10 (USB2E7196)
Correct for Electrical Dark: No (USB2E7196)
Strobe/Lamp Enabled: No (USB2E7196)
Correct for Detector Non-linearity: No (USB2E7196)
Correct for Stray Light: No (USB2E7196)
Number of Pixels in Processed Spectrum: 2048
>>>>>Begin Processed Spectral Data<<<<<
339.09	0.00
339.48	214.90
339.86	217.20
340.24	219.30
340.63	222.00
341.01	223.50
341.39	224.80
341.78	223.30
342.16	225.90
342.54	227.00
342.93	214.80
343.31	225.65
343.69	226.26
344.07	226.83
344.46	227.21
344.84	227.63
345.22	227.91
345.60	228.11
345.99	228.33
346.37	228.58
346.75	228.67
347.13	228.78
347.52	228.90
347.90	228.94
348.28	228.97
348.66	229.01
349.05	228.98
349.43	229.07
349.81	229.16
350.19	229.23
350.57	229.23
350.96	229.30
351.34	229.40
351.72	229.54
352.10	229.59
352.48	229.78
352.87	229.71
353.25	229.81
353.63	229.96
354.01	230.04
354.39	229.98
354.77	230.09
355.15	230.18
355.54	230.28
355.92	230.27
356.30	230.29
356.68	230.56
357.06	230.70
357.44	230.71
357.82	230.68
358.20	230.78
358.58	230.88
358.97	230.95
359.35	231.03
359.73	231.10
360.11	231.19
360.49	231.17
360.87	231.19
361.25	231.15
361.63	231.18
362.01	231.32
362.39	231.37
362.77	231.36
363.15	231.37
363.53	231.39
363.91	231.40
364.29	231.46
364.67	231.29
365.05	231.26
365.43	231.24
365.81	231.25
366.19	231.23
366.57	231.20
366.95	231.24
367.33	231.20
367.71	231.09
368.09	231.09
368.47	231.02
368.85	231.05
369.23	231.13
369.61	230.97
369.99	230.92
370.37	230.87
370.75	230.94
371.13	230.79
371.51	230.70
371.89	230.77
372.27	230.65
372.65	230.56
373.03	230.38
373.41	230.32
373.78	230.27
374.16	230.14
374.54	229.98
374.92	229.83
375.30	229.68
375.68	229.50
376.06	229.40
376.44	229.30
376.82	229.15
377.19	228.92
377.57	228.86
377.95	228.63
378.33	228.58
378.71	228.27
379.09	228.37
379.47	228.30
379.84	228.13
380.22	228.18
380.60	228.08
380.98	228.10
381.36	228.09
381.73	227.92
382.11	227.90
382.49	227.89
382.87	227.78
383.25	227.80
383.62	228.15
384.00	228.03
384.38	228.00
384.76	228.06
385.13	228.09
385.51	228.02
385.89	227.98
386.27	227.91
386.64	228.00
387.02	227.82
387.40	227.71
387.78	227.62
388.15	227.53
388.53	227.58
388.91	227.53
389.29	227.55
389.66	227.70
390.04	227.67
390.42	227.72
390.79	227.79
391.17	227.82
391.55	227.56
391.92	227.64
392.30	227.72
392.68	227.67
393.05	227.81
393.43	227.91
393.81	228.10
394.18	228.17
394.56	228.21
394.94	228.30
395.31	228.43
395.69	228.67
396.06	228.79
396.44	228.84
396.82	229.00
397.19	229.18
397.57	229.25
397.95	229.43
398.32	229.59
398.70	229.66
399.07	229.80
399.45	229.94
399.82	230.07
400.20	230.24
400.58	230.48
400.95	230.59
401.33	230.79
401.70	231.12
402.08	231.39
402.45	231.70
402.83	231.98
403.20	232.29
403.58	232.51
403.95	232.80
404.33	233.07
404.71	233.40
405.08	233.89
405.46	234.25
405.83	234.70
406.21	235.16
406.58	235.78
406.96	236.23
407.33	236.88
407.70	237.47
408.08	238.32
408.45	239.02
408.83	239.72
409.20	240.39
409.58	241.01
409.95	241.82
410.33	242.57
410.70	243.50
411.08	244.53
411.45	245.61
411.82	246.67
412.20	248.00
412.57	249.29
412.95	250.39
413.32	251.83
413.69	253.35
414.07	254.85
414.44	256.50
414.82	258.30
415.19	260.28
415.56	262.32
415.94	264.44
416.31	266.81
416.68	269.21
417.06	271.99
417.43	274.57
417.81	277.51
418.18	280.69
418.55	283.97
418.93	287.40
419.30	291.06
419.67	294.78
420.04	298.60
420.42	302.74
420.79	307.32
421.16	311.96
421.54	316.70
421.91	321.70
422.28	326.71
422.66	332.12
423.03	337.44
423.40	343.10
423.77	348.97
424.15	354.95
424.52	361.17
424.89	367.98
425.26	374.64
425.64	381.03
426.01	387.99
426.38	395.12
426.75	402.35
427.13	409.83
427.50	418.13
427.87	426.55
428.24	434.89
428.61	443.04
428.99	451.62
429.36	461.21
429.73	470.53
430.10	479.80
430.47	489.27
430.85	498.79
431.22	509.09
431.59	519.86
431.96	530.41
432.33	541.95
432.70	553.30
433.08	566.43
433.45	578.84
433.82	590.98
434.19	604.64
434.56	617.92
434.93	630.53
435.30	643.06
435.68	657.06
436.05	670.93
436.42	684.33
436.79	697.06
437.16	710.33
437.53	724.61
437.90	738.88
438.27	752.70
438.64	767.26
439.01	780.49
439.38	792.78
439.75	804.23
440.13	817.49
440.50	829.99
440.87	840.32
441.24	851.30
441.61	863.41
441.98	872.24
442.35	882.83
442.72	893.58
443.09	904.13
443.46	910.57
443.83	915.09
444.20	919.71
444.57	925.93
444.94	929.51
445.31	933.11
445.68	936.28
446.05	938.75
446.42	938.97
446.79	939.00
447.16	938.69
447.53	939.39
447.90	935.85
448.27	932.33
448.64	926.47
449.01	922.90
449.37	915.04
449.74	907.90
450.11	898.24
450.48	887.99
450.85	877.40
451.22	868.58
451.59	860.47
451.96	852.52
452.33	840.99
452.70	830.85
453.07	818.41
453.43	805.97
453.80	793.62
454.17	781.83
454.54	770.63
454.91	758.37
455.28	745.85
455.65	734.89
456.02	723.04
456.38	713.50
456.75	700.75
457.12	690.60
457.49	680.23
457.86	670.56
458.23	661.89
458.59	652.24
458.96	642.62
459.33	633.96
459.70	625.27
460.07	618.40
460.43	610.33
460.80	602.63
461.17	596.09
461.54	589.20
461.91	582.54
462.27	575.70
462.64	569.89
463.01	563.80
463.38	557.30
463.74	551.35
464.11	545.92
464.48	541.25
464.85	536.10
465.21	532.07
465.58	527.97
465.95	522.94
466.32	518.70
466.68	514.65
467.05	510.43
467.42	506.07
467.78	501.56
468.15	497.50
468.52	494.33
468.88	490.08
469.25	486.43
469.62	483.43
469.98	480.24
470.35	477.23
470.72	474.23
471.08	471.36
471.45	468.86
471.82	466.11
472.18	463.17
472.55	460.89
472.92	458.48
473.28	456.10
473.65	454.03
474.02	451.80
474.38	449.90
474.75	448.37
475.11	446.72
475.48	445.38
475.85	444.12
476.21	443.01
476.58	442.13
476.94	441.28
477.31	440.53
477.67	439.64
478.04	438.79
478.41	438.47
478.77	438.22
479.14	437.77
479.50	437.64
479.87	437.80
480.23	438.05
480.60	437.90
480.96	437.99
481.33	438.46
481.69	438.88
482.06	439.32
482.42	439.41
482.79	439.96
483.15	440.80
483.52	441.95
483.88	442.90
484.25	443.85
484.61	445.10
484.98	446.03
485.34	447.58
485.71	449.34
486.07	450.83
486.44	452.23
486.80	454.04
487.17	456.09
487.53	458.40
487.90	460.66
488.26	463.24
488.62	465.90
488.99	468.36
489.35	471.27
489.72	474.09
490.08	477.40
490.44	480.62
490.81	484.12
491.17	487.28
491.54	491.01
491.90	494.79
492.26	498.63
492.63	502.87
492.99	506.99
493.36	511.22
493.72	515.92
494.08	520.69
494.45	525.25
494.81	530.10
495.17	534.92
495.54	539.99
495.90	545.27
496.26	550.57
496.63	556.19
496.99	561.97
497.35	568.02
497.72	574.00
498.08	579.96
498.44	586.02
498.80	592.74
499.17	599.10
499.53	605.57
499.89	612.05
500.26	618.59
500.62	625.28
500.98	632.24
501.34	639.09
501.71	646.22
502.07	653.56
502.43	660.57
502.79	668.13
503.16	675.46
503.52	682.69
503.88	690.01
504.24	697.50
504.60	704.88
504.97	712.40
505.33	720.15
505.69	728.51
506.05	736.24
506.41	743.66
506.78	751.26
507.14	758.85
507.50	766.82
507.86	774.77
508.22	782.64
508.59	789.98
508.95	798.00
509.31	805.62
509.67	813.56
510.03	821.45
510.39	828.80
510.75	836.38
511.12	843.96
511.48	851.67
511.84	859.11
512.20	866.54
512.56	873.79
512.92	881.07
513.28	888.04
513.64	895.01
514.00	901.94
514.37	908.85
514.73	915.83
515.09	922.10
515.45	928.35
515.81	934.66
516.17	941.28
516.53	947.51
516.89	953.70
517.25	959.61
517.61	965.42
517.97	971.19
518.33	976.37
518.69	981.90
519.05	987.64
519.41	993.41
519.77	999.04
520.13	1004.51
520.49	1009.36
520.85	1014.16
521.21	1019.38
521.57	1024.58
521.93	1029.15
522.29	1034.33
522.65	1039.39
523.01	1044.20
523.37	1048.64
523.73	1053.22
524.09	1057.39
524.45	1061.75
524.81	1066.10
525.17	1070.77
525.53	1075.48
525.89	1080.10
526.25	1084.70
526.61	1088.08
526.97	1091.70
527.33	1095.12
527.68	1099.06
528.04	1103.07
528.40	1106.90
528.76	1111.01
529.12	1114.71
529.48	1119.02
529.84	1122.22
530.20	1126.00
530.56	1130.16
530.91	1134.62
531.27	1138.40
531.63	1141.88
531.99	1145.44
532.35	1148.66
532.71	1151.70
533.07	1154.77
533.42	1158.10
533.78	1161.15
534.14	1164.48
534.50	1167.27
534.86	1170.60
535.21	1173.37
535.57	1176.67
535.93	1179.73
536.29	1182.19
536.65	1184.84
537.00	1187.00
537.36	1189.90
537.72	1192.60
538.08	1194.44
538.44	1196.29
538.79	1198.55
539.15	1200.94
539.51	1203.44
539.87	1206.26
540.22	1208.64
540.58	1211.67
540.94	1213.96
541.29	1216.08
541.65	1218.54
542.01	1221.21
542.37	1223.34
542.72	1225.49
543.08	1227.30
543.44	1229.30
543.79	1230.63
544.15	1232.56
544.51	1235.01
544.87	1237.25
545.22	1238.68
545.58	1240.59
545.94	1242.06
546.29	1243.69
546.65	1245.13
547.01	1246.33
547.36	1247.37
547.72	1248.61
548.07	1249.27
548.43	1250.38
548.79	1251.46
549.14	1252.30
549.50	1252.95
549.86	1253.91
550.21	1254.88
550.57	1255.78
550.92	1256.62
551.28	1257.80
551.64	1258.50
551.99	1259.05
552.35	1259.44
552.70	1260.32
553.06	1261.31
553.41	1262.08
553.77	1263.00
554.13	1263.91
554.48	1265.12
554.84	1265.52
555.19	1266.34
555.55	1267.19
555.90	1267.72
556.26	1268.30
556.61	1269.14
556.97	1269.73
557.32	1270.28
557.68	1270.54
558.03	1271.08
558.39	1271.29
558.74	1271.92
559.10	1272.67
559.45	1273.15
559.81	1273.90
560.16	1274.32
560.52	1274.50
560.87	1275.11
561.23	1274.98
561.58	1275.39
561.94	1275.30
562.29	1275.48
562.64	1275.35
563.00	1275.02
563.35	1275.70
563.71	1276.52
564.06	1276.60
564.42	1277.18
564.77	1277.30
565.12	1277.68
565.48	1278.26
565.83	1278.41
566.19	1278.68
566.54	1278.34
566.89	1278.25
567.25	1278.04
567.60	1278.02
567.96	1278.07
568.31	1278.02
568.66	1277.81
569.02	1277.40
569.37	1276.80
569.72	1276.76
570.08	1276.48
570.43	1276.19
570.78	1275.03
571.14	1273.73
571.49	1272.95
571.84	1272.25
572.20	1271.06
572.55	1269.98
572.90	1268.31
573.26	1267.69
573.61	1266.49
573.96	1265.20
574.31	1263.36
574.67	1261.20
575.02	1259.14
575.37	1257.25
575.72	1254.98
576.08	1253.23
576.43	1251.10
576.78	1249.10
577.13	1247.08
577.49	1245.20
577.84	1243.07
578.19	1241.00
578.54	1239.09
578.90	1236.73
579.25	1233.84
579.60	1231.84
579.95	1229.20
580.30	1226.68
580.66	1223.43
581.01	1220.36
581.36	1217.93
581.71	1215.77
582.06	1213.22
582.42	1210.61
582.77	1207.46
583.12	1204.85
583.47	1202.30
583.82	1199.85
584.17	1197.21
584.53	1194.25
584.88	1191.48
585.23	1188.70
585.58	1185.79
585.93	1182.67
586.28	1180.28
586.63	1177.86
586.98	1175.00
587.34	1172.40
587.69	1169.68
588.04	1167.26
588.39	1164.88
588.74	1161.32
589.09	1158.27
589.44	1155.15
589.79	1152.44
590.14	1149.88
590.49	1146.58
590.84	1143.09
591.19	1140.05
591.54	1136.15
591.89	1132.40
592.25	1128.96
592.60	1124.97
592.95	1121.35
593.30	1117.50
593.65	1113.20
594.00	1109.18
594.35	1105.93
594.70	1102.09
595.05	1098.22
595.40	1094.13
595.75	1090.01
596.10	1086.49
596.45	1083.00
596.80	1079.82
597.15	1076.13
597.50	1072.51
597.85	1069.35
598.19	1066.13
598.54	1062.53
598.89	1059.48
599.24	1056.53
599.59	1053.05
599.94	1049.70
600.29	1046.32
600.64	1042.88
600.99	1039.48
601.34	1036.07
601.69	1031.62
602.04	1027.88
602.39	1024.30
602.74	1021.04
603.08	1017.72
603.43	1014.70
603.78	1010.94
604.13	1007.17
604.48	1003.45
604.83	999.73
605.18	995.91
605.53	991.71
605.87	987.36
606.22	983.57
606.57	979.57
606.92	975.44
607.27	972.10
607.62	968.73
607.96	965.18
608.31	961.59
608.66	957.51
609.01	953.86
609.36	949.85
609.70	945.38
610.05	941.00
610.40	936.72
610.75	932.32
611.10	928.00
611.44	923.49
611.79	919.39
612.14	915.10
612.49	910.38
612.83	906.20
613.18	902.33
613.53	898.20
613.88	893.93
614.22	889.60
614.57	884.85
614.92	880.40
615.27	876.20
615.61	871.83
615.96	867.71
616.31	863.60
616.65	859.80
617.00	856.44
617.35	852.61
617.70	848.37
618.04	844.20
618.39	840.08
618.74	836.27
619.08	832.14
619.43	828.29
619.78	824.59
620.12	820.62
620.47	816.69
620.82	812.81
621.16	808.79
621.51	805.32
621.85	801.45
622.20	797.43
622.55	793.62
622.89	790.02
623.24	786.43
623.59	782.94
623.93	779.38
624.28	775.68
624.62	772.00
624.97	768.73
625.32	765.31
625.66	762.05
626.01	758.54
626.35	755.08
626.70	751.52
627.04	748.13
627.39	744.70
627.73	741.20
628.08	737.60
628.43	734.19
628.77	730.50
629.12	726.94
629.46	723.50
629.81	719.83
630.15	715.98
630.50	712.39
630.84	708.58
631.19	704.72
631.53	700.98
631.88	697.25
632.22	693.42
632.57	690.21
632.91	686.45
633.26	682.93
633.60	679.18
633.95	675.59
634.29	672.06
634.64	668.98
634.98	665.43
635.32	662.14
635.67	659.12
636.01	655.85
636.36	652.73
636.70	649.47
637.05	646.34
637.39	643.53
637.73	640.63
638.08	637.95
638.42	635.16
638.77	632.14
639.11	629.21
639.45	626.37
639.80	623.11
640.14	620.27
640.49	617.42
640.83	614.48
641.17	611.71
641.52	608.93
641.86	605.76
642.20	603.10
642.55	600.24
642.89	597.30
643.23	594.42
643.58	591.85
643.92	588.95
644.26	586.25
644.61	583.39
644.95	580.56
645.29	577.30
645.64	574.19
645.98	571.24
646.32	568.37
646.66	565.52
647.01	562.68
647.35	560.01
647.69	557.19
648.04	554.71
648.38	551.72
648.72	548.75
649.06	545.93
649.41	543.05
649.75	540.10
650.09	537.30
650.43	534.54
650.78	531.60
651.12	528.80
651.46	526.03
651.80	523.40
652.14	520.68
652.49	518.30
652.83	515.90
653.17	513.31
653.51	510.66
653.85	507.98
654.20	505.11
654.54	502.25
654.88	499.45
655.22	496.53
655.56	494.03
655.90	491.67
656.25	489.18
656.59	486.69
656.93	484.34
657.27	481.92
657.61	479.31
657.95	476.96
658.29	474.72
658.64	472.34
658.98	469.83
659.32	467.40
659.66	464.93
660.00	462.35
660.34	460.06
660.68	457.87
661.02	455.60
661.36	453.64
661.70	451.57
662.05	449.49
662.39	447.71
662.73	445.61
663.07	443.60
663.41	441.58
663.75	439.66
664.09	437.62
664.43	435.65
664.77	433.90
665.11	432.03
665.45	430.15
665.79	428.19
666.13	426.34
666.47	424.35
666.81	422.43
667.15	420.59
667.49	418.82
667.83	417.14
668.17	415.46
668.51	413.64
668.85	411.89
669.19	410.36
669.53	408.57
669.87	406.92
670.21	405.23
670.55	403.50
670.89	401.86
671.23	400.41
671.57	398.85
671.91	397.23
672.25	395.53
672.58	393.89
672.92	392.32
673.26	390.96
673.60	389.64
673.94	388.40
674.28	387.26
674.62	386.03
674.96	384.52
675.30	383.12
675.64	381.75
675.97	380.37
676.31	378.99
676.65	377.58
676.99	376.39
677.33	375.08
677.67	373.68
678.01	372.13
678.34	370.81
678.68	369.35
679.02	368.03
679.36	366.75
679.70	365.46
680.04	364.30
680.37	362.87
680.71	361.68
681.05	360.32
681.39	358.93
681.73	357.55
682.06	356.46
682.40	355.32
682.74	354.06
683.08	352.93
683.42	351.61
683.75	350.39
684.09	348.99
684.43	347.77
684.77	346.73
685.10	345.59
685.44	344.27
685.78	343.24
686.12	342.22
686.45	341.07
686.79	339.93
687.13	338.85
687.46	337.75
687.80	336.50
688.14	335.36
688.48	334.27
688.81	333.20
689.15	332.11
689.49	330.80
689.82	329.73
690.16	328.50
690.50	327.57
690.83	326.62
691.17	325.53
691.51	324.39
691.84	323.42
692.18	322.50
692.52	321.45
692.85	320.37
693.19	319.23
693.52	318.30
693.86	317.33
694.20	316.24
694.53	315.17
694.87	314.20
695.21	313.20
695.54	312.24
695.88	311.09
696.21	310.10
696.55	309.24
696.88	308.29
697.22	307.45
697.56	306.55
697.89	305.45
698.23	304.70
698.56	303.83
698.90	302.87
699.23	301.85
699.57	301.10
699.90	300.25
700.24	299.46
700.58	298.50
700.91	297.78
701.25	297.16
701.58	296.60
701.92	295.83
702.25	295.11
702.59	294.35
702.92	293.81
703.26	292.96
703.59	292.37
703.93	291.95
704.26	291.21
704.60	290.48
704.93	289.91
705.26	289.24
705.60	288.80
705.93	288.24
706.27	287.79
706.60	287.30
706.94	286.76
707.27	286.13
707.61	285.56
707.94	285.14
708.27	284.46
708.61	283.79
708.94	283.25
709.28	282.76
709.61	282.29
709.94	281.82
710.28	281.32
710.61	280.73
710.95	280.00
711.28	279.60
711.61	279.22
711.95	278.77
712.28	278.21
712.61	277.53
712.95	277.00
713.28	276.55
713.61	275.95
713.95	275.39
714.28	275.02
714.61	274.71
714.95	273.94
715.28	273.42
715.61	272.94
715.95	272.53
716.28	272.05
716.61	271.61
716.95	270.94
717.28	270.53
717.61	270.11
717.94	269.76
718.28	269.19
718.61	268.70
718.94	268.36
719.27	268.06
719.61	267.72
719.94	267.35
720.27	266.88
720.60	266.53
720.94	266.16
721.27	265.82
721.60	265.39
721.93	265.25
722.27	265.02
722.60	264.67
722.93	264.23
723.26	263.85
723.59	263.47
723.93	263.18
724.26	262.96
724.59	262.58
724.92	262.25
725.25	261.97
725.59	261.60
725.92	261.27
726.25	260.79
726.58	260.41
726.91	260.14
727.24	259.78
727.57	259.37
727.91	259.00
728.24	258.56
728.57	258.20
728.90	257.75
729.23	257.23
729.56	256.94
729.89	256.70
730.22	256.42
730.55	256.11
730.89	255.81
731.22	255.41
731.55	255.17
731.88	254.82
732.21	254.61
732.54	254.25
732.87	253.90
733.20	253.68
733.53	253.44
733.86	253.04
734.19	252.76
734.52	252.52
734.85	252.41
735.18	252.20
735.51	251.98
735.84	251.76
736.17	251.58
736.50	251.33
736.83	251.27
737.16	250.93
737.49	250.65
737.82	250.41
738.15	250.17
738.48	249.88
738.81	249.64
739.14	249.32
739.47	249.14
739.80	248.83
740.13	248.70
740.46	248.41
740.79	248.25
741.12	248.02
741.45	247.82
741.78	247.53
742.11	247.29
742.44	247.06
742.77	246.90
743.10	246.60
743.43	246.20
743.75	245.76
744.08	245.91
744.41	245.70
744.74	245.62
745.07	245.39
745.40	245.16
745.73	245.09
746.06	244.97
746.39	244.80
746.71	244.63
747.04	244.40
747.37	244.27
747.70	244.15
748.03	244.07
748.36	243.93
748.68	243.82
749.01	243.63
749.34	243.49
749.67	243.31
750.00	243.23
750.33	243.34
750.65	243.25
750.98	242.80
751.31	242.71
751.64	242.63
751.97	242.55
752.29	242.63
752.62	242.36
752.95	242.19
753.28	242.09
753.60	242.03
753.93	242.00
754.26	241.90
754.59	241.66
754.91	241.51
755.24	241.32
755.57	241.15
755.90	241.07
756.22	241.03
756.55	240.90
756.88	240.80
757.20	240.63
757.53	240.48
757.86	240.32
758.19	240.15
758.51	240.01
758.84	239.79
759.17	239.60
759.49	239.47
759.82	239.40
760.15	239.29
760.47	239.19
760.80	238.98
761.13	238.93
761.45	238.91
761.78	238.80
762.11	238.71
762.43	238.50
762.76	238.29
763.08	238.19
763.41	238.08
763.74	237.98
764.06	237.87
764.39	237.80
764.71	237.80
765.04	237.78
765.37	237.62
765.69	237.65
766.02	237.48
766.34	237.37
766.67	237.30
767.00	237.30
767.32	237.31
767.65	237.31
767.97	237.22
768.30	237.04
768.62	236.97
768.95	236.87
769.27	236.84
769.60	236.83
769.92	236.65
770.25	236.55
770.57	236.40
770.90	236.21
771.22	236.11
771.55	235.93
771.87	235.88
772.20	235.71
772.52	235.63
772.85	235.76
773.17	235.63
773.50	235.47
773.82	235.33
774.15	235.11
774.47	234.87
774.80	234.73
775.12	234.67
775.45	234.57
775.77	234.49
776.09	234.42
776.42	234.29
776.74	234.25
777.07	234.18
777.39	234.08
777.72	234.00
778.04	233.90
778.36	233.79
778.69	233.62
779.01	233.51
779.33	233.32
779.66	233.00
779.98	232.96
780.31	232.87
780.63	232.81
780.95	232.72
781.28	232.65
781.60	232.52
781.92	232.52
782.25	232.39
782.57	232.23
782.89	232.15
783.22	232.13
783.54	232.00
783.86	231.95
784.19	231.89
784.51	231.98
784.83	231.89
785.16	231.96
785.48	231.89
785.80	231.90
786.12	231.90
786.45	231.97
786.77	232.10
787.09	232.13
787.42	232.05
787.74	232.10
788.06	232.12
788.38	232.07
788.71	231.96
789.03	232.05
789.35	232.12
789.67	232.10
789.99	232.17
790.32	232.20
790.64	232.27
790.96	232.42
791.28	232.30
791.61	232.26
791.93	232.15
792.25	232.27
792.57	232.34
792.89	232.37
793.21	232.39
793.54	232.32
793.86	232.28
794.18	232.28
794.50	232.26
794.82	232.33
795.14	232.44
795.47	232.46
795.79	232.43
796.11	232.44
796.43	232.44
796.75	232.34
797.07	232.30
797.39	232.16
797.71	232.11
798.04	232.10
798.36	232.13
798.68	232.23
799.00	232.30
799.32	232.26
799.64	232.22
799.96	232.14
800.28	232.11
800.60	232.15
800.92	232.18
801.24	232.11
801.56	232.19
801.89	232.05
802.21	232.00
802.53	231.95
802.85	231.95
803.17	232.10
803.49	232.12
803.81	232.12
804.13	232.15
804.45	232.00
804.77	232.02
805.09	231.92
805.41	231.80
805.73	231.59
806.05	231.55
806.37	231.51
806.69	231.49
807.01	231.48
807.33	231.40
807.65	231.31
807.97	231.32
808.28	231.20
808.60	231.19
808.92	231.23
809.24	231.29
809.56	231.20
809.88	230.99
810.20	230.91
810.52	230.94
810.84	230.90
811.16	230.87
811.48	230.79
811.80	230.89
812.12	230.87
812.43	230.93
812.75	230.85
813.07	230.73
813.39	230.70
813.71	230.55
814.03	230.47
814.35	230.38
814.67	230.30
814.98	230.15
815.30	230.17
815.62	230.05
815.94	229.95
816.26	229.97
816.58	229.91
816.89	229.97
817.21	229.82
817.53	229.85
817.85	229.80
818.17	229.75
818.48	229.61
818.80	229.61
819.12	229.43
819.44	229.34
819.76	229.47
820.07	229.38
820.39	229.41
820.71	229.46
821.03	229.48
821.34	229.48
821.66	229.47
821.98	229.42
822.30	229.46
822.61	229.48
822.93	229.46
823.25	229.43
823.57	229.32
823.88	229.40
824.20	229.30
824.52	229.41
824.83	229.48
825.15	229.53
825.47	229.53
825.79	229.62
826.10	229.65
826.42	229.57
826.74	229.51
827.05	229.59
827.37	229.61
827.69	229.58
828.00	229.67
828.32	229.71
828.64	229.81
828.95	229.82
829.27	229.91
829.58	229.81
829.90	229.88
830.22	229.81
830.53	229.77
830.85	229.78
831.17	229.71
831.48	229.61
831.80	229.62
832.11	229.69
832.43	229.70
832.75	229.71
833.06	229.82
833.38	229.97
833.69	229.90
834.01	229.89
834.32	229.96
834.64	229.82
834.96	229.82
835.27	229.77
835.59	229.82
835.90	229.73
836.22	229.83
836.53	229.85
836.85	229.98
837.16	230.26
837.48	230.31
837.79	230.39
838.11	230.39
838.42	230.47
838.74	230.51
839.05	230.54
839.37	230.60
839.68	230.50
840.00	230.54
840.31	230.66
840.63	230.61
840.94	230.62
841.26	230.59
841.57	230.58
841.88	230.56
842.20	230.50
842.51	230.46
842.83	230.52
843.14	230.64
843.46	230.65
843.77	230.53
844.08	230.42
844.40	230.40
844.71	230.43
845.03	230.34
845.34	230.27
845.65	230.28
845.97	230.29
846.28	230.25
846.60	230.20
846.91	230.09
847.22	230.06
847.54	230.05
847.85	230.10
848.16	230.14
848.48	230.10
848.79	230.10
849.10	230.04
849.42	229.95
849.73	229.76
850.04	229.73
850.36	229.63
850.67	229.63
850.98	229.56
851.30	229.62
851.61	229.52
851.92	229.56
852.23	229.53
852.55	229.43
852.86	229.45
853.17	229.39
853.49	229.34
853.80	229.34
854.11	229.33
854.42	229.31
854.74	229.23
855.05	229.13
855.36	229.15
855.67	229.07
855.99	229.05
856.30	229.30
856.61	229.17
856.92	229.08
857.23	229.08
857.55	229.06
857.86	228.99
858.17	229.04
858.48	228.85
858.79	228.75
859.11	228.74
859.42	228.69
859.73	228.60
860.04	228.62
860.35	228.48
860.66	228.38
860.98	228.40
861.29	228.48
861.60	228.40
861.91	228.40
862.22	228.46
862.53	228.32
862.84	228.07
863.16	228.14
863.47	228.16
863.78	228.17
864.09	228.11
864.40	228.11
864.71	228.11
865.02	228.16
865.33	228.20
865.64	228.20
865.95	228.20
866.27	228.40
866.58	228.37
866.89	228.46
867.20	228.48
867.51	228.39
867.82	228.25
868.13	228.45
868.44	228.37
868.75	228.49
869.06	228.68
869.37	228.73
869.68	228.74
869.99	228.76
870.30	228.86
870.61	229.02
870.92	229.00
871.23	229.05
871.54	229.20
871.85	229.23
872.16	229.25
872.47	229.24
872.78	229.06
873.09	229.08
873.40	229.06
873.71	229.11
874.02	229.21
874.33	229.33
874.64	229.33
874.95	229.45
875.26	229.35
875.56	229.28
875.87	229.30
876.18	229.25
876.49	229.55
876.80	229.43
877.11	229.37
877.42	229.34
877.73	229.30
878.04	229.18
878.35	229.19
878.66	229.20
878.96	229.19
879.27	229.30
879.58	229.36
879.89	229.46
880.20	229.48
880.51	229.48
880.82	229.46
881.12	229.46
881.43	229.31
881.74	229.31
882.05	229.33
882.36	229.26
882.67	229.38
882.97	229.16
883.28	229.23
883.59	229.19
883.90	229.18
884.21	229.26
884.51	229.29
884.82	229.23
885.13	229.18
885.44	229.23
885.74	229.23
886.05	229.12
886.36	229.09
886.67	229.02
886.98	229.04
887.28	228.99
887.59	228.92
887.90	228.99
888.20	228.93
888.51	228.89
888.82	228.93
889.13	228.87
889.43	228.85
889.74	228.75
890.05	228.72
890.35	228.73
890.66	228.61
890.97	228.45
891.28	228.46
891.58	228.48
891.89	228.41
892.20	228.26
892.50	228.31
892.81	228.25
893.12	228.27
893.42	228.19
893.73	228.21
894.04	228.15
894.34	228.14
894.65	228.12
894.95	228.10
895.26	228.07
895.57	228.18
895.87	228.00
896.18	228.05
896.48	228.10
896.79	228.02
897.10	228.09
897.40	228.24
897.71	228.15
898.01	228.13
898.32	228.24
898.63	228.26
898.93	228.31
899.24	228.34
899.54	228.38
899.85	228.36
900.15	228.36
900.46	228.44
900.76	228.40
901.07	228.44
901.38	228.49
901.68	228.54
901.99	228.40
902.29	228.47
902.60	228.45
902.90	228.48
903.21	228.50
903.51	228.47
903.82	228.49
904.12	228.60
904.43	228.75
904.73	228.69
905.03	228.80
905.34	228.91
905.64	228.92
905.95	228.88
906.25	228.93
906.56	228.97
906.86	229.00
907.17	229.11
907.47	229.24
907.77	229.17
908.08	229.20
908.38	229.16
908.69	229.10
908.99	229.17
909.30	229.15
909.60	229.26
909.90	229.34
910.21	229.23
910.51	229.29
910.81	229.22
911.12	229.32
911.42	229.29
911.73	229.11
912.03	229.07
912.33	229.08
912.64	229.04
912.94	229.04
913.24	229.03
913.55	228.94
913.85	228.77
914.15	228.91
914.46	228.89
914.76	229.02
915.06	229.08
915.37	229.05
915.67	228.99
915.97	228.98
916.27	228.93
916.58	229.01
916.88	228.92
917.18	228.87
917.49	228.84
917.79	228.90
918.09	228.90
918.39	229.09
918.70	229.10
919.00	229.09
919.30	229.04
919.60	228.95
919.91	228.90
920.21	228.96
920.51	228.83
920.81	228.74
921.12	228.72
921.42	228.72
921.72	228.68
922.02	228.72
922.32	228.63
922.63	228.61
922.93	228.60
923.23	228.54
923.53	228.54
923.83	228.45
924.13	228.45
924.44	228.45
924.74	228.32
925.04	228.41
925.34	228.38
925.64	228.36
925.94	228.41
926.24	228.53
926.55	228.53
926.85	228.54
927.15	228.49
927.45	228.45
927.75	228.37
928.05	228.40
928.35	228.36
928.65	228.44
928.95	228.43
929.26	228.41
929.56	228.57
929.86	228.50
930.16	228.48
930.46	228.36
930.76	228.30
931.06	228.19
931.36	228.06
931.66	228.12
931.96	228.15
932.26	228.09
932.56	228.05
932.86	228.02
933.16	228.01
933.46	228.07
933.76	228.00
934.06	228.13
934.36	228.16
934.66	228.10
934.96	228.11
935.26	228.00
935.56	228.09
935.86	228.03
936.16	228.12
936.46	228.17
936.76	228.25
937.06	228.26
937.36	228.24
937.66	228.28
937.96	228.32
938.26	228.34
938.56	228.42
938.86	228.42
939.16	228.56
939.46	228.62
939.76	228.66
940.06	228.68
940.35	228.62
940.65	228.60
940.95	228.67
941.25	228.58
941.55	228.69
941.85	228.68
942.15	228.70
942.45	228.69
942.75	228.69
943.04	228.75
943.34	228.86
943.64	228.96
943.94	228.91
944.24	228.79
944.54	228.75
944.84	228.73
945.13	228.60
945.43	228.52
945.73	228.65
946.03	228.57
946.33	228.59
946.62	228.60
946.92	228.60
947.22	228.62
947.52	228.65
947.82	228.62
948.11	228.59
948.41	228.60
948.71	228.64
949.01	228.63
949.31	228.59
949.60	228.51
949.90	228.47
950.20	228.46
950.50	228.43
950.79	228.46
951.09	228.40
951.39	228.44
951.69	228.32
951.98	228.16
952.28	228.13
952.58	228.18
952.87	228.20
953.17	228.24
953.47	228.21
953.76	228.28
954.06	228.23
954.36	228.24
954.66	228.12
954.95	228.05
955.25	228.03
955.55	227.89
955.84	227.91
956.14	227.97
956.44	228.02
956.73	228.04
957.03	228.04
957.32	228.11
957.62	228.20
957.92	228.30
958.21	228.25
958.51	228.56
958.81	228.51
959.10	228.50
959.40	228.43
959.69	228.38
959.99	228.33
960.29	228.38
960.58	228.31
960.88	228.40
961.17	228.48
961.47	228.46
961.76	228.53
962.06	228.49
962.36	228.47
962.65	228.40
962.95	228.46
963.24	228.48
963.54	228.39
963.83	228.34
964.13	228.19
964.42	228.14
964.72	227.91
965.01	227.86
965.31	227.83
965.60	227.74
965.90	227.94
966.19	227.93
966.49	227.90
966.78	227.80
967.08	227.83
967.37	227.72
967.67	227.73
967.96	227.75
968.26	227.76
968.55	227.70
968.85	227.75
969.14	227.72
969.43	227.69
969.73	227.74
970.02	227.78
970.32	227.91
970.61	228.01
970.91	228.00
971.20	228.02
971.49	228.00
971.79	228.07
972.08	227.90
972.38	227.88
972.67	227.88
972.96	228.07
973.26	228.00
973.55	228.20
973.85	228.14
974.14	228.20
974.43	228.20
974.73	228.20
975.02	228.20
975.31	228.20
975.61	228.13
975.90	228.05
976.19	228.02
976.49	228.05
976.78	228.08
977.07	228.05
977.37	228.12
977.66	228.16
977.95	228.22
978.24	228.35
978.54	228.33
978.83	228.37
979.12	228.21
979.42	228.26
979.71	228.11
980.00	228.10
980.29	228.10
980.59	228.12
980.88	228.26
981.17	228.27
981.46	228.28
981.76	228.41
982.05	228.53
982.34	228.54
982.63	228.50
982.93	228.44
983.22	228.47
983.51	228.39
983.80	228.40
984.09	228.36
984.39	228.28
984.68	228.40
984.97	228.41
985.26	228.43
985.55	228.45
985.85	228.47
986.14	228.61
986.43	228.48
986.72	228.42
987.01	228.32
987.30	228.25
987.59	228.28
987.89	228.17
988.18	228.08
988.47	228.08
988.76	228.04
989.05	227.97
989.34	228.01
989.63	228.08
989.92	228.00
990.22	228.00
990.51	228.02
990.80	227.95
991.09	227.91
991.38	227.95
991.67	227.82
991.96	227.79
992.25	227.77
992.54	227.89
992.83	227.97
993.12	227.98
993.41	228.13
993.70	228.20
993.99	228.26
994.28	228.38
994.58	228.37
994.87	228.34
995.16	228.48
995.45	228.45
995.74	228.36
996.03	228.43
996.32	228.45
996.61	228.46
996.90	228.48
997.19	228.40
997.48	228.40
997.77	228.42
998.06	228.42
998.34	228.35
998.63	228.24
998.92	228.20
999.21	228.20
999.50	228.10
999.79	227.99
1000.08	227.89
1000.37	227.83
1000.66	227.83
1000.95	227.96
1001.24	227.83
1001.53	227.85
1001.82	227.96
1002.11	227.92
1002.40	227.93
1002.68	228.05
1002.97	228.12
1003.26	228.11
1003.55	228.17
1003.84	228.25
1004.13	228.23
1004.42	228.20
1004.71	228.24
1004.99	228.26
1005.28	228.23
1005.57	228.26
1005.86	228.36
1006.15	228.50
1006.44	228.49
1006.72	228.40
1007.01	228.36
1007.30	228.49
1007.59	228.50
1007.88	228.45
1008.17	228.46
1008.45	228.43
1008.74	228.24
1009.03	228.31
1009.32	228.39
1009.60	228.28
1009.89	228.31
1010.18	228.33
1010.47	228.43
1010.76	228.35
1011.04	228.29
1011.33	228.37
1011.62	228.36
1011.91	228.27
1012.19	228.27
1012.48	228.30
1012.77	228.40
1013.05	228.51
1013.34	228.46
1013.63	228.44
1013.92	228.42
1014.20	228.48
1014.49	228.50
1014.78	228.60
1015.06	228.43
1015.35	228.54
1015.64	228.65
1015.92	228.70
1016.21	228.77
1016.50	228.72
1016.78	228.80
1017.07	228.95
1017.36	228.94
1017.64	228.90
1017.93	228.92
1018.22	228.89
1018.50	228.89
1018.79	228.90
1019.08	228.78
1019.36	228.84
1019.65	228.73
1019.93	228.75
1020.22	228.71
1020.51	228.86
1020.79	228.80
1021.08	228.30
1021.36	228.30
1021.65	229.10
1021.94	228.20
1022.22	229.10
1022.51	226.70
1022.79	228.50
1023.08	227.90
1023.36	231.90
1023.65	227.90
>>>>>End Processed Spectral Data<<<<<
