SpectraSuite Data File
++++++++++++++++++++++++++++++++++++
Date: Fri Feb 01 14:33:44 EST 2013
User: group
Dark Spectrum Present: No
Reference Spectrum Present: No
Number of Sampled Component Spectra: 1
Spectrometers: USB2E7196
Integration Time (usec): 70000 (USB2E7196)
Spectra Averaged: 10 (USB2E7196)
Boxcar Smoothing: 10 (USB2E7196)
Correct for Electrical Dark: No (USB2E7196)
Strobe/Lamp Enabled: No (USB2E7196)
Correct for Detector Non-linearity: No (USB2E7196)
Correct for Stray Light: No (USB2E7196)
Number of Pixels in Processed Spectrum: 2048
>>>>>Begin Processed Spectral Data<<<<<
339.09	0.00
339.48	215.00
339.86	216.80
340.24	219.10
340.63	219.40
341.01	224.10
341.39	221.40
341.78	224.20
342.16	225.90
342.54	225.90
342.93	214.33
343.31	225.22
343.69	225.83
344.07	226.31
344.46	226.72
344.84	227.12
345.22	227.30
345.60	227.61
345.99	227.86
346.37	228.03
346.75	228.16
347.13	228.18
347.52	228.31
347.90	228.40
348.28	228.40
348.66	228.42
349.05	228.26
349.43	228.24
349.81	228.37
350.19	228.44
350.57	228.62
350.96	228.74
351.34	228.82
351.72	229.00
352.10	229.12
352.48	229.23
352.87	229.26
353.25	229.33
353.63	229.47
354.01	229.54
354.39	229.60
354.77	229.58
355.15	229.72
355.54	229.79
355.92	229.80
356.30	229.93
356.68	230.26
357.06	230.47
357.44	230.60
357.82	230.68
358.20	230.77
358.58	230.85
358.97	230.91
359.35	230.96
359.73	230.99
360.11	231.18
360.49	231.24
360.87	231.35
361.25	231.50
361.63	231.59
362.01	231.66
362.39	231.68
362.77	231.91
363.15	231.97
363.53	232.01
363.91	232.09
364.29	232.14
364.67	231.92
365.05	231.91
365.43	231.90
365.81	231.92
366.19	232.00
366.57	232.01
366.95	231.96
367.33	231.96
367.71	231.97
368.09	231.79
368.47	231.71
368.85	231.61
369.23	231.65
369.61	231.51
369.99	231.44
370.37	231.42
370.75	231.38
371.13	231.24
371.51	231.17
371.89	231.09
372.27	231.02
372.65	230.90
373.03	230.80
373.41	230.74
373.78	230.70
374.16	230.52
374.54	230.34
374.92	230.23
375.30	230.18
375.68	230.00
376.06	229.98
376.44	229.87
376.82	229.93
377.19	229.72
377.57	229.61
377.95	229.40
378.33	229.25
378.71	229.10
379.09	229.04
379.47	228.84
379.84	228.78
380.22	228.59
380.60	228.52
380.98	228.39
381.36	228.33
381.73	228.12
382.11	228.07
382.49	227.99
382.87	227.97
383.25	227.88
383.62	228.04
384.00	227.89
384.38	227.88
384.76	227.81
385.13	227.83
385.51	227.67
385.89	227.75
386.27	227.75
386.64	227.68
387.02	227.65
387.40	227.68
387.78	227.58
388.15	227.62
388.53	227.54
388.91	227.65
389.29	227.58
389.66	227.64
390.04	227.60
390.42	227.66
390.79	227.65
391.17	227.63
391.55	227.35
391.92	227.48
392.30	227.55
392.68	227.54
393.05	227.59
393.43	227.84
393.81	227.86
394.18	227.93
394.56	228.04
394.94	228.20
395.31	228.31
395.69	228.53
396.06	228.58
396.44	228.65
396.82	228.80
397.19	229.11
397.57	229.21
397.95	229.36
398.32	229.39
398.70	229.44
399.07	229.68
399.45	229.88
399.82	229.98
400.20	230.10
400.58	230.21
400.95	230.30
401.33	230.52
401.70	230.92
402.08	231.00
402.45	231.26
402.83	231.58
403.20	231.71
403.58	231.91
403.95	232.24
404.33	232.62
404.71	232.83
405.08	233.22
405.46	233.55
405.83	234.03
406.21	234.52
406.58	234.97
406.96	235.35
407.33	235.90
407.70	236.46
408.08	237.28
408.45	238.04
408.83	238.67
409.20	239.28
409.58	239.92
409.95	240.91
410.33	241.72
410.70	242.33
411.08	243.47
411.45	244.45
411.82	245.48
412.20	246.63
412.57	247.95
412.95	249.00
413.32	250.30
413.69	251.64
414.07	253.20
414.44	254.80
414.82	256.47
415.19	258.26
415.56	260.25
415.94	262.17
416.31	264.43
416.68	266.74
417.06	269.28
417.43	271.66
417.81	274.37
418.18	277.22
418.55	280.33
418.93	283.58
419.30	286.95
419.67	290.49
420.04	294.14
420.42	297.96
420.79	302.20
421.16	306.55
421.54	310.90
421.91	315.51
422.28	320.63
422.66	325.82
423.03	330.94
423.40	336.05
423.77	341.55
424.15	347.06
424.52	352.90
424.89	359.32
425.26	365.48
425.64	371.27
426.01	377.57
426.38	384.49
426.75	391.34
427.13	398.32
427.50	405.87
427.87	413.60
428.24	421.34
428.61	428.86
428.99	436.97
429.36	445.79
429.73	454.37
430.10	462.66
430.47	471.25
430.85	480.23
431.22	489.73
431.59	499.77
431.96	509.68
432.33	520.40
432.70	530.78
433.08	542.94
433.45	554.50
433.82	566.23
434.19	578.74
434.56	590.98
434.93	602.95
435.30	614.60
435.68	627.69
436.05	640.70
436.42	653.43
436.79	665.32
437.16	677.99
437.53	691.27
437.90	704.64
438.27	717.57
438.64	731.42
439.01	743.72
439.38	754.89
439.75	765.39
440.13	777.84
440.50	789.46
440.87	799.20
441.24	809.28
441.61	820.31
441.98	828.68
442.35	838.52
442.72	848.49
443.09	858.33
443.46	864.62
443.83	868.88
444.20	872.94
444.57	878.45
444.94	882.01
445.31	885.49
445.68	888.44
446.05	891.00
446.42	891.04
446.79	891.31
447.16	891.66
447.53	892.33
447.90	889.02
448.27	885.76
448.64	880.50
449.01	877.27
449.37	870.06
449.74	863.17
450.11	854.29
450.48	844.68
450.85	834.56
451.22	826.35
451.59	818.53
451.96	811.20
452.33	800.47
452.70	790.80
453.07	779.27
453.43	767.74
453.80	756.16
454.17	744.76
454.54	734.30
454.91	722.42
455.28	711.13
455.65	700.67
456.02	689.82
456.38	680.87
456.75	669.21
457.12	659.60
457.49	650.11
457.86	641.25
458.23	633.25
458.59	624.57
458.96	615.45
459.33	607.38
459.70	599.35
460.07	593.05
460.43	585.58
460.80	578.29
461.17	572.05
461.54	565.41
461.91	559.20
462.27	552.76
462.64	547.23
463.01	541.25
463.38	535.38
463.74	529.82
464.11	524.51
464.48	520.24
464.85	515.30
465.21	511.47
465.58	507.36
465.95	502.60
466.32	498.68
466.68	494.62
467.05	490.73
467.42	486.71
467.78	482.50
468.15	478.41
468.52	475.53
468.88	471.65
469.25	468.27
469.62	465.58
469.98	462.61
470.35	459.78
470.72	457.09
471.08	454.18
471.45	451.71
471.82	449.17
472.18	446.26
472.55	444.44
472.92	442.05
473.28	439.93
473.65	437.95
474.02	435.88
474.38	434.17
474.75	432.68
475.11	431.10
475.48	429.79
475.85	428.97
476.21	427.85
476.58	426.88
476.94	426.09
477.31	425.18
477.67	424.40
478.04	423.73
478.41	423.18
478.77	422.71
479.14	422.13
479.50	421.99
479.87	422.11
480.23	422.00
480.60	421.93
480.96	421.88
481.33	422.23
481.69	422.65
482.06	422.87
482.42	423.06
482.79	423.34
483.15	424.16
483.52	424.87
483.88	425.67
484.25	426.47
484.61	427.44
484.98	428.57
485.34	429.78
485.71	431.49
486.07	432.93
486.44	434.51
486.80	436.42
487.17	438.16
487.53	440.06
487.90	442.13
488.26	444.20
488.62	446.56
488.99	448.74
489.35	451.16
489.72	453.97
490.08	456.96
490.44	459.92
490.81	462.95
491.17	465.84
491.54	469.02
491.90	472.39
492.26	476.03
492.63	479.57
492.99	483.29
493.36	486.85
493.72	490.85
494.08	494.94
494.45	499.11
494.81	503.65
495.17	508.17
495.54	512.80
495.90	517.66
496.26	522.32
496.63	527.24
496.99	532.29
497.35	537.58
497.72	542.84
498.08	548.15
498.44	553.48
498.80	559.38
499.17	565.21
499.53	570.93
499.89	576.76
500.26	582.61
500.62	588.58
500.98	594.78
501.34	600.90
501.71	607.04
502.07	613.00
502.43	619.10
502.79	625.26
503.16	631.48
503.52	637.77
503.88	644.12
504.24	650.56
504.60	656.98
504.97	663.55
505.33	669.95
505.69	677.18
506.05	683.76
506.41	690.02
506.78	696.39
507.14	702.93
507.50	709.44
507.86	715.95
508.22	722.46
508.59	728.85
508.95	735.30
509.31	741.63
509.67	748.22
510.03	754.46
510.39	760.70
510.75	767.08
511.12	773.51
511.48	779.69
511.84	785.68
512.20	792.01
512.56	798.11
512.92	804.24
513.28	809.76
513.64	815.43
514.00	821.12
514.37	827.01
514.73	832.62
515.09	837.87
515.45	843.45
515.81	848.51
516.17	853.96
516.53	859.50
516.89	864.73
517.25	869.64
517.61	874.67
517.97	879.46
518.33	883.95
518.69	888.38
519.05	892.98
519.41	897.80
519.77	902.16
520.13	906.38
520.49	910.57
520.85	914.39
521.21	918.31
521.57	922.68
521.93	925.92
522.29	929.93
522.65	933.71
523.01	937.05
523.37	940.61
523.73	943.86
524.09	946.92
524.45	950.26
524.81	954.06
525.17	957.81
525.53	961.49
525.89	964.88
526.25	968.16
526.61	971.41
526.97	974.36
527.33	977.44
527.68	980.35
528.04	983.25
528.40	986.60
528.76	989.95
529.12	993.09
529.48	996.58
529.84	999.19
530.20	1002.54
530.56	1006.01
530.91	1009.60
531.27	1012.89
531.63	1015.99
531.99	1018.68
532.35	1021.20
532.71	1023.59
533.07	1026.09
533.42	1028.99
533.78	1031.77
534.14	1034.49
534.50	1036.96
534.86	1039.61
535.21	1042.20
535.57	1044.97
535.93	1047.52
536.29	1050.23
536.65	1052.52
537.00	1054.74
537.36	1057.55
537.72	1059.89
538.08	1062.10
538.44	1064.09
538.79	1066.29
539.15	1068.61
539.51	1071.50
539.87	1074.11
540.22	1076.65
540.58	1079.52
540.94	1081.73
541.29	1083.76
541.65	1085.70
542.01	1088.35
542.37	1090.57
542.72	1092.67
543.08	1095.13
543.44	1097.34
543.79	1098.91
544.15	1101.15
544.51	1103.90
544.87	1106.39
545.22	1108.37
545.58	1110.54
545.94	1112.27
546.29	1114.28
546.65	1116.01
547.01	1117.71
547.36	1119.20
547.72	1120.79
548.07	1122.14
548.43	1123.78
548.79	1125.98
549.14	1128.12
549.50	1129.60
549.86	1130.98
550.21	1132.73
550.57	1134.15
550.92	1135.66
551.28	1137.30
551.64	1138.70
551.99	1139.84
552.35	1140.39
552.70	1141.71
553.06	1143.37
553.41	1145.22
553.77	1146.58
554.13	1148.30
554.48	1149.99
554.84	1151.48
555.19	1152.98
555.55	1154.51
555.90	1155.78
556.26	1156.78
556.61	1157.69
556.97	1158.89
557.32	1160.22
557.68	1161.32
558.03	1162.37
558.39	1163.54
558.74	1165.09
559.10	1166.25
559.45	1167.25
559.81	1168.96
560.16	1169.90
560.52	1170.84
560.87	1172.20
561.23	1173.29
561.58	1174.52
561.94	1175.18
562.29	1175.91
562.64	1176.47
563.00	1177.30
563.35	1178.53
563.71	1179.93
564.06	1181.02
564.42	1181.94
564.77	1183.01
565.12	1183.74
565.48	1184.67
565.83	1185.36
566.19	1186.05
566.54	1186.66
566.89	1187.39
567.25	1188.00
567.60	1188.93
567.96	1189.49
568.31	1189.67
568.66	1190.04
569.02	1189.93
569.37	1190.10
569.72	1190.56
570.08	1190.83
570.43	1190.94
570.78	1190.78
571.14	1190.06
571.49	1190.03
571.84	1189.97
572.20	1189.54
572.55	1189.33
572.90	1188.65
573.26	1188.40
573.61	1187.87
573.96	1186.91
574.31	1185.99
574.67	1184.59
575.02	1183.47
575.37	1182.00
575.72	1180.71
576.08	1179.22
576.43	1177.83
576.78	1176.87
577.13	1175.90
577.49	1174.96
577.84	1173.32
578.19	1171.89
578.54	1170.75
578.90	1168.90
579.25	1167.07
579.60	1165.22
579.95	1163.57
580.30	1161.66
580.66	1159.36
581.01	1157.29
581.36	1155.87
581.71	1154.12
582.06	1152.36
582.42	1150.30
582.77	1148.31
583.12	1146.09
583.47	1144.27
583.82	1142.50
584.17	1139.93
584.53	1137.40
584.88	1135.08
585.23	1133.19
585.58	1131.13
585.93	1128.85
586.28	1127.08
586.63	1125.04
586.98	1122.97
587.34	1120.74
587.69	1118.47
588.04	1116.40
588.39	1114.09
588.74	1110.76
589.09	1107.83
589.44	1105.36
589.79	1102.86
590.14	1100.37
590.49	1097.80
590.84	1094.90
591.19	1092.22
591.54	1089.29
591.89	1085.93
592.25	1083.02
592.60	1079.40
592.95	1075.78
593.30	1072.48
593.65	1069.01
594.00	1065.85
594.35	1063.31
594.70	1059.46
595.05	1056.43
595.40	1052.91
595.75	1049.53
596.10	1046.90
596.45	1044.02
596.80	1041.06
597.15	1038.11
597.50	1034.93
597.85	1031.73
598.19	1028.71
598.54	1025.47
598.89	1022.57
599.24	1020.18
599.59	1016.70
599.94	1013.89
600.29	1011.03
600.64	1007.73
600.99	1004.17
601.34	1000.56
601.69	996.65
602.04	993.79
602.39	990.44
602.74	987.71
603.08	984.83
603.43	981.78
603.78	978.41
604.13	975.05
604.48	971.43
604.83	968.35
605.18	965.38
605.53	961.83
605.87	958.22
606.22	954.78
606.57	950.88
606.92	947.59
607.27	944.33
607.62	941.28
607.96	938.28
608.31	935.51
608.66	932.10
609.01	928.29
609.36	924.56
609.70	920.50
610.05	916.29
610.40	912.22
610.75	908.20
611.10	904.37
611.44	899.96
611.79	896.29
612.14	892.50
612.49	888.10
612.83	884.30
613.18	880.47
613.53	876.65
613.88	872.75
614.22	868.89
614.57	864.51
614.92	860.36
615.27	856.16
615.61	851.89
615.96	847.98
616.31	844.36
616.65	841.08
617.00	837.80
617.35	834.20
617.70	830.14
618.04	826.13
618.39	822.24
618.74	818.90
619.08	815.01
619.43	810.85
619.78	807.25
620.12	803.75
620.47	799.86
620.82	795.89
621.16	792.22
621.51	788.89
621.85	785.66
622.20	781.81
622.55	778.13
622.89	774.67
623.24	771.53
623.59	767.95
623.93	764.22
624.28	760.58
624.62	757.05
624.97	753.81
625.32	750.55
625.66	747.53
626.01	744.25
626.35	740.81
626.70	737.51
627.04	734.30
627.39	730.61
627.73	727.26
628.08	724.18
628.43	720.73
628.77	717.10
629.12	713.25
629.46	709.85
629.81	706.28
630.15	702.51
630.50	698.77
630.84	695.15
631.19	691.41
631.53	688.04
631.88	684.21
632.22	680.61
632.57	677.48
632.91	673.86
633.26	670.26
633.60	666.80
633.95	663.39
634.29	660.10
634.64	657.11
634.98	653.99
635.32	650.82
635.67	648.12
636.01	645.02
636.36	642.15
636.70	639.22
637.05	636.55
637.39	633.80
637.73	631.00
638.08	628.32
638.42	625.77
638.77	622.92
639.11	620.32
639.45	617.64
639.80	614.68
640.14	611.93
640.49	609.17
640.83	606.36
641.17	603.70
641.52	600.93
641.86	597.98
642.20	595.29
642.55	592.56
642.89	589.66
643.23	586.82
643.58	584.26
643.92	581.37
644.26	578.35
644.61	575.85
644.95	573.22
645.29	570.19
645.64	567.28
645.98	564.43
646.32	561.88
646.66	559.15
647.01	556.40
647.35	553.67
647.69	551.12
648.04	548.79
648.38	546.11
648.72	543.50
649.06	540.72
649.41	537.87
649.75	534.97
650.09	532.10
650.43	529.40
650.78	526.54
651.12	524.01
651.46	521.73
651.80	518.84
652.14	516.14
652.49	513.86
652.83	511.33
653.17	508.77
653.51	506.11
653.85	503.59
654.20	501.17
654.54	498.56
654.88	495.87
655.22	493.05
655.56	490.43
655.90	487.97
656.25	485.53
656.59	483.19
656.93	480.81
657.27	478.52
657.61	476.02
657.95	473.76
658.29	471.55
658.64	469.06
658.98	466.77
659.32	464.50
659.66	462.33
660.00	460.14
660.34	458.02
660.68	455.76
661.02	453.60
661.36	451.32
661.70	449.42
662.05	447.43
662.39	445.58
662.73	443.61
663.07	441.61
663.41	439.78
663.75	437.79
664.09	435.89
664.43	433.85
664.77	432.18
665.11	430.43
665.45	428.45
665.79	426.64
666.13	424.74
666.47	422.74
666.81	420.71
667.15	418.72
667.49	416.71
667.83	415.14
668.17	413.29
668.51	411.51
668.85	409.53
669.19	407.84
669.53	406.03
669.87	404.25
670.21	402.47
670.55	400.77
670.89	399.27
671.23	397.70
671.57	396.07
671.91	394.32
672.25	392.68
672.58	391.13
672.92	389.47
673.26	388.08
673.60	386.65
673.94	385.21
674.28	383.90
674.62	382.69
674.96	381.21
675.30	379.80
675.64	378.44
675.97	377.23
676.31	375.86
676.65	374.52
676.99	373.16
677.33	371.79
677.67	370.30
678.01	368.76
678.34	367.39
678.68	366.26
679.02	364.98
679.36	363.73
679.70	362.50
680.04	361.25
680.37	359.90
680.71	358.63
681.05	357.29
681.39	356.08
681.73	354.81
682.06	353.57
682.40	352.52
682.74	351.35
683.08	350.30
683.42	349.20
683.75	348.02
684.09	346.98
684.43	345.90
684.77	344.84
685.10	343.82
685.44	342.79
685.78	341.77
686.12	340.79
686.45	339.66
686.79	338.50
687.13	337.56
687.46	336.58
687.80	335.62
688.14	334.55
688.48	333.42
688.81	332.35
689.15	331.38
689.49	330.25
689.82	329.24
690.16	328.06
690.50	326.94
690.83	325.97
691.17	324.94
691.51	323.91
691.84	323.00
692.18	322.01
692.52	321.00
692.85	319.87
693.19	318.90
693.52	317.95
693.86	316.99
694.20	316.03
694.53	315.08
694.87	313.97
695.21	313.10
695.54	312.25
695.88	311.37
696.21	310.33
696.55	309.50
696.88	308.62
697.22	307.79
697.56	306.98
697.89	306.18
698.23	305.30
698.56	304.41
698.90	303.55
699.23	302.66
699.57	301.90
699.90	301.09
700.24	300.10
700.58	299.16
700.91	298.31
701.25	297.81
701.58	297.15
701.92	296.44
702.25	295.76
702.59	295.02
702.92	294.32
703.26	293.68
703.59	293.01
703.93	292.50
704.26	291.71
704.60	291.05
704.93	290.34
705.26	289.67
705.60	289.20
705.93	288.56
706.27	288.08
706.60	287.47
706.94	286.81
707.27	286.40
707.61	285.94
707.94	285.44
708.27	284.60
708.61	284.02
708.94	283.50
709.28	282.93
709.61	282.37
709.94	281.86
710.28	281.29
710.61	280.72
710.95	279.84
711.28	279.50
711.61	278.91
711.95	278.39
712.28	277.85
712.61	277.23
712.95	276.73
713.28	276.18
713.61	275.57
713.95	275.24
714.28	274.67
714.61	274.16
714.95	273.56
715.28	273.03
715.61	272.47
715.95	272.00
716.28	271.55
716.61	271.11
716.95	270.61
717.28	270.25
717.61	269.77
717.94	269.41
718.28	268.80
718.61	268.43
718.94	268.00
719.27	267.58
719.61	267.11
719.94	266.70
720.27	266.22
720.60	265.88
720.94	265.42
721.27	265.07
721.60	264.75
721.93	264.54
722.27	264.30
722.60	263.98
722.93	263.60
723.26	263.17
723.59	262.87
723.93	262.45
724.26	262.06
724.59	261.74
724.92	261.49
725.25	261.30
725.59	260.90
725.92	260.70
726.25	260.39
726.58	260.19
726.91	259.82
727.24	259.56
727.57	259.26
727.91	258.79
728.24	258.47
728.57	258.17
728.90	257.93
729.23	257.47
729.56	257.18
729.89	256.83
730.22	256.58
730.55	256.15
730.89	255.92
731.22	255.63
731.55	255.35
731.88	255.00
732.21	254.58
732.54	254.30
732.87	253.96
733.20	253.67
733.53	253.45
733.86	253.30
734.19	253.12
734.52	253.00
734.85	253.04
735.18	252.74
735.51	252.47
735.84	252.11
736.17	251.93
736.50	251.63
736.83	251.63
737.16	251.46
737.49	251.30
737.82	251.09
738.15	250.83
738.48	250.60
738.81	250.42
739.14	250.20
739.47	250.00
739.80	249.76
740.13	249.59
740.46	249.35
740.79	249.20
741.12	248.91
741.45	248.56
741.78	248.21
742.11	248.06
742.44	247.84
742.77	247.70
743.10	247.44
743.43	247.17
743.75	246.84
744.08	246.93
744.41	246.68
744.74	246.54
745.07	246.40
745.40	246.29
745.73	246.08
746.06	245.95
746.39	245.78
746.71	245.59
747.04	245.44
747.37	245.26
747.70	245.00
748.03	244.73
748.36	244.59
748.68	244.43
749.01	244.27
749.34	244.09
749.67	243.90
750.00	243.72
750.33	243.80
750.65	243.57
750.98	243.09
751.31	243.03
751.64	242.89
751.97	242.75
752.29	242.61
752.62	242.46
752.95	242.35
753.28	242.18
753.60	242.01
753.93	241.80
754.26	241.62
754.59	241.54
754.91	241.53
755.24	241.36
755.57	241.23
755.90	240.96
756.22	240.80
756.55	240.70
756.88	240.59
757.20	240.28
757.53	240.19
757.86	240.16
758.19	240.00
758.51	239.77
758.84	239.68
759.17	239.48
759.49	239.31
759.82	239.29
760.15	239.18
760.47	239.10
760.80	238.95
761.13	238.83
761.45	238.66
761.78	238.40
762.11	238.30
762.43	238.15
762.76	238.10
763.08	237.96
763.41	237.83
763.74	237.79
764.06	237.68
764.39	237.58
764.71	237.44
765.04	237.33
765.37	237.23
765.69	237.08
766.02	237.00
766.34	236.93
766.67	236.78
767.00	236.66
767.32	236.56
767.65	236.64
767.97	236.58
768.30	236.49
768.62	236.47
768.95	236.40
769.27	236.33
769.60	236.41
769.92	236.43
770.25	236.32
770.57	236.20
770.90	236.09
771.22	236.02
771.55	235.88
771.87	235.82
772.20	235.76
772.52	235.94
772.85	236.08
773.17	236.08
773.50	235.91
773.82	235.92
774.15	235.86
774.47	235.71
774.80	235.61
775.12	235.57
775.45	235.47
775.77	235.44
776.09	235.41
776.42	235.25
776.74	235.23
777.07	235.20
777.39	235.20
777.72	235.17
778.04	235.06
778.36	234.96
778.69	234.82
779.01	234.80
779.33	234.60
779.66	234.32
779.98	234.20
780.31	234.23
780.63	234.23
780.95	234.15
781.28	234.12
781.60	234.10
781.92	234.04
782.25	234.01
782.57	233.90
782.89	233.87
783.22	233.82
783.54	233.76
783.86	233.62
784.19	233.63
784.51	233.53
784.83	233.41
785.16	233.38
785.48	233.34
785.80	233.34
786.12	233.20
786.45	233.22
786.77	233.17
787.09	233.07
787.42	233.00
787.74	233.00
788.06	232.94
788.38	232.91
788.71	232.84
789.03	232.77
789.35	232.81
789.67	232.70
789.99	232.68
790.32	232.53
790.64	232.55
790.96	232.59
791.28	232.68
791.61	232.61
791.93	232.64
792.25	232.61
792.57	232.64
792.89	232.62
793.21	232.50
793.54	232.50
793.86	232.50
794.18	232.49
794.50	232.37
794.82	232.28
795.14	232.20
795.47	232.20
795.79	232.23
796.11	232.10
796.43	231.96
796.75	231.87
797.07	231.85
797.39	231.83
797.71	231.60
798.04	231.56
798.36	231.61
798.68	231.61
799.00	231.64
799.32	231.51
799.64	231.49
799.96	231.50
800.28	231.46
800.60	231.26
800.92	231.25
801.24	231.24
801.56	231.26
801.89	231.29
802.21	231.30
802.53	231.25
802.85	231.25
803.17	231.47
803.49	231.49
803.81	231.45
804.13	231.44
804.45	231.43
804.77	231.42
805.09	231.39
805.41	231.37
805.73	231.21
806.05	231.13
806.37	231.07
806.69	231.01
807.01	231.09
807.33	231.15
807.65	231.02
807.97	231.20
808.28	231.19
808.60	231.17
808.92	231.18
809.24	231.27
809.56	231.35
809.88	231.29
810.20	231.25
810.52	231.30
810.84	231.24
811.16	231.15
811.48	231.14
811.80	231.21
812.12	231.10
812.43	231.24
812.75	231.30
813.07	231.21
813.39	231.23
813.71	231.11
814.03	231.14
814.35	231.08
814.67	230.94
814.98	230.90
815.30	230.83
815.62	230.75
815.94	230.70
816.26	230.65
816.58	230.61
816.89	230.59
817.21	230.55
817.53	230.55
817.85	230.64
818.17	230.60
818.48	230.56
818.80	230.66
819.12	230.60
819.44	230.55
819.76	230.60
820.07	230.58
820.39	230.49
820.71	230.48
821.03	230.60
821.34	230.55
821.66	230.55
821.98	230.62
822.30	230.57
822.61	230.58
822.93	230.49
823.25	230.32
823.57	230.20
823.88	230.22
824.20	230.13
824.52	230.05
824.83	229.98
825.15	229.89
825.47	229.82
825.79	229.71
826.10	229.63
826.42	229.70
826.74	229.67
827.05	229.65
827.37	229.74
827.69	229.60
828.00	229.57
828.32	229.57
828.64	229.47
828.95	229.49
829.27	229.43
829.58	229.36
829.90	229.29
830.22	229.34
830.53	229.23
830.85	229.28
831.17	229.24
831.48	229.25
831.80	229.22
832.11	229.24
832.43	229.36
832.75	229.39
833.06	229.33
833.38	229.22
833.69	229.25
834.01	229.12
834.32	229.09
834.64	228.99
834.96	229.02
835.27	228.93
835.59	228.92
835.90	228.83
836.22	228.88
836.53	228.94
836.85	228.89
837.16	229.10
837.48	228.89
837.79	229.04
838.11	229.00
838.42	228.99
838.74	228.99
839.05	228.97
839.37	228.94
839.68	228.82
840.00	228.91
840.31	228.94
840.63	228.82
840.94	228.80
841.26	228.87
841.57	228.76
841.88	228.79
842.20	228.74
842.51	228.75
842.83	228.72
843.14	228.99
843.46	229.05
843.77	228.85
844.08	229.03
844.40	228.91
844.71	228.82
845.03	228.84
845.34	228.74
845.65	228.65
845.97	228.65
846.28	228.73
846.60	228.68
846.91	228.61
847.22	228.72
847.54	228.80
847.85	228.83
848.16	228.84
848.48	228.82
848.79	228.89
849.10	228.96
849.42	228.94
849.73	228.79
850.04	228.76
850.36	228.69
850.67	228.67
850.98	228.72
851.30	228.84
851.61	228.90
851.92	229.03
852.23	229.14
852.55	229.11
852.86	229.18
853.17	229.24
853.49	229.31
853.80	229.31
854.11	229.37
854.42	229.39
854.74	229.34
855.05	229.40
855.36	229.29
855.67	229.26
855.99	229.25
856.30	229.48
856.61	229.44
856.92	229.48
857.23	229.52
857.55	229.49
857.86	229.45
858.17	229.47
858.48	229.41
858.79	229.37
859.11	229.42
859.42	229.29
859.73	229.28
860.04	229.33
860.35	229.28
860.66	229.18
860.98	229.09
861.29	229.11
861.60	229.13
861.91	229.22
862.22	229.16
862.53	229.19
862.84	228.90
863.16	228.94
863.47	228.93
863.78	228.91
864.09	228.90
864.40	228.85
864.71	228.84
865.02	228.82
865.33	228.75
865.64	228.66
865.95	228.67
866.27	228.74
866.58	228.67
866.89	228.70
867.20	228.74
867.51	228.70
867.82	228.70
868.13	228.74
868.44	228.62
868.75	228.69
869.06	228.62
869.37	228.53
869.68	228.53
869.99	228.62
870.30	228.60
870.61	228.54
870.92	228.50
871.23	228.39
871.54	228.34
871.85	228.32
872.16	228.38
872.47	228.25
872.78	228.14
873.09	228.06
873.40	228.01
873.71	227.93
874.02	228.04
874.33	228.04
874.64	227.93
874.95	227.99
875.26	227.93
875.56	227.98
875.87	228.04
876.18	228.00
876.49	228.12
876.80	228.10
877.11	228.07
877.42	228.26
877.73	228.30
878.04	228.32
878.35	228.37
878.66	228.34
878.96	228.45
879.27	228.52
879.58	228.55
879.89	228.44
880.20	228.57
880.51	228.53
880.82	228.54
881.12	228.53
881.43	228.52
881.74	228.46
882.05	228.43
882.36	228.55
882.67	228.60
882.97	228.41
883.28	228.42
883.59	228.46
883.90	228.38
884.21	228.45
884.51	228.48
884.82	228.46
885.13	228.54
885.44	228.51
885.74	228.40
886.05	228.44
886.36	228.50
886.67	228.44
886.98	228.50
887.28	228.56
887.59	228.64
887.90	228.69
888.20	228.74
888.51	228.79
888.82	228.71
889.13	228.72
889.43	228.90
889.74	228.84
890.05	228.82
890.35	228.89
890.66	228.76
890.97	228.70
891.28	228.69
891.58	228.65
891.89	228.75
892.20	228.80
892.50	228.78
892.81	228.79
893.12	228.77
893.42	228.67
893.73	228.69
894.04	228.66
894.34	228.66
894.65	228.73
894.95	228.78
895.26	228.77
895.57	228.82
895.87	228.71
896.18	228.85
896.48	228.90
896.79	228.84
897.10	228.99
897.40	229.11
897.71	229.18
898.01	229.17
898.32	229.13
898.63	229.11
898.93	229.14
899.24	229.15
899.54	229.09
899.85	229.02
900.15	228.99
900.46	229.09
900.76	229.03
901.07	228.90
901.38	228.81
901.68	228.89
901.99	228.80
902.29	228.69
902.60	228.64
902.90	228.62
903.21	228.60
903.51	228.58
903.82	228.54
904.12	228.51
904.43	228.55
904.73	228.54
905.03	228.46
905.34	228.64
905.64	228.59
905.95	228.60
906.25	228.64
906.56	228.59
906.86	228.49
907.17	228.52
907.47	228.51
907.77	228.48
908.08	228.40
908.38	228.48
908.69	228.51
908.99	228.37
909.30	228.36
909.60	228.43
909.90	228.37
910.21	228.26
910.51	228.12
910.81	228.08
911.12	228.04
911.42	228.16
911.73	228.03
912.03	228.05
912.33	228.12
912.64	228.09
912.94	228.01
913.24	228.02
913.55	227.98
913.85	228.02
914.15	228.15
914.46	228.19
914.76	228.05
915.06	228.07
915.37	228.17
915.67	228.16
915.97	228.06
916.27	227.97
916.58	227.91
916.88	228.02
917.18	228.05
917.49	228.17
917.79	228.17
918.09	228.08
918.39	228.20
918.70	228.14
919.00	228.25
919.30	228.38
919.60	228.30
919.91	228.36
920.21	228.41
920.51	228.36
920.81	228.30
921.12	228.32
921.42	228.24
921.72	228.33
922.02	228.35
922.32	228.49
922.63	228.59
922.93	228.79
923.23	228.73
923.53	228.81
923.83	228.72
924.13	228.75
924.44	228.71
924.74	228.73
925.04	228.84
925.34	228.80
925.64	228.88
925.94	228.97
926.24	229.02
926.55	229.01
926.85	228.98
927.15	229.09
927.45	229.12
927.75	229.20
928.05	229.16
928.35	229.18
928.65	229.21
928.95	229.21
929.26	229.12
929.56	229.27
929.86	229.16
930.16	229.13
930.46	229.13
930.76	229.23
931.06	229.21
931.36	229.22
931.66	229.34
931.96	229.26
932.26	229.30
932.56	229.23
932.86	229.26
933.16	229.30
933.46	229.14
933.76	229.17
934.06	229.20
934.36	229.27
934.66	229.30
934.96	229.19
935.26	229.20
935.56	229.29
935.86	229.23
936.16	229.19
936.46	229.14
936.76	229.11
937.06	229.17
937.36	229.20
937.66	229.20
937.96	229.13
938.26	229.11
938.56	229.00
938.86	229.04
939.16	229.06
939.46	229.10
939.76	229.19
940.06	229.20
940.35	229.13
940.65	228.92
940.95	228.90
941.25	228.77
941.55	228.73
941.85	228.68
942.15	228.67
942.45	228.76
942.75	228.78
943.04	228.76
943.34	228.74
943.64	228.62
943.94	228.54
944.24	228.48
944.54	228.42
944.84	228.47
945.13	228.37
945.43	228.29
945.73	228.24
946.03	228.22
946.33	228.10
946.62	228.02
946.92	228.10
947.22	228.10
947.52	228.24
947.82	228.30
948.11	228.30
948.41	228.29
948.71	228.22
949.01	228.25
949.31	228.19
949.60	228.02
949.90	228.07
950.20	228.10
950.50	227.95
950.79	227.93
951.09	228.00
951.39	228.06
951.69	228.11
951.98	228.15
952.28	228.10
952.58	228.29
952.87	228.35
953.17	228.42
953.47	228.47
953.76	228.45
954.06	228.39
954.36	228.23
954.66	228.31
954.95	228.31
955.25	228.39
955.55	228.47
955.84	228.51
956.14	228.48
956.44	228.46
956.73	228.47
957.03	228.55
957.32	228.46
957.62	228.40
957.92	228.31
958.21	228.26
958.51	228.47
958.81	228.38
959.10	228.35
959.40	228.40
959.69	228.35
959.99	228.34
960.29	228.26
960.58	228.42
960.88	228.47
961.17	228.45
961.47	228.47
961.76	228.40
962.06	228.50
962.36	228.42
962.65	228.40
962.95	228.50
963.24	228.56
963.54	228.59
963.83	228.60
964.13	228.76
964.42	228.67
964.72	228.58
965.01	228.58
965.31	228.64
965.60	228.61
965.90	228.70
966.19	228.74
966.49	228.80
966.78	228.82
967.08	228.81
967.37	228.93
967.67	228.78
967.96	228.93
968.26	228.88
968.55	229.00
968.85	229.01
969.14	229.09
969.43	229.06
969.73	229.09
970.02	229.10
970.32	229.03
970.61	229.03
970.91	228.88
971.20	228.91
971.49	228.88
971.79	228.87
972.08	228.87
972.38	228.81
972.67	228.95
972.96	228.87
973.26	228.70
973.55	228.78
973.85	228.87
974.14	228.80
974.43	228.77
974.73	228.78
975.02	228.80
975.31	228.78
975.61	228.74
975.90	228.75
976.19	228.65
976.49	228.72
976.78	228.79
977.07	228.89
977.37	228.83
977.66	228.81
977.95	228.78
978.24	228.72
978.54	228.73
978.83	228.65
979.12	228.69
979.42	228.69
979.71	228.65
980.00	228.56
980.29	228.54
980.59	228.41
980.88	228.47
981.17	228.37
981.46	228.42
981.76	228.31
982.05	228.33
982.34	228.39
982.63	228.37
982.93	228.34
983.22	228.33
983.51	228.30
983.80	228.40
984.09	228.37
984.39	228.31
984.68	228.37
984.97	228.34
985.26	228.29
985.55	228.28
985.85	228.20
986.14	228.20
986.43	228.14
986.72	228.19
987.01	228.03
987.30	228.09
987.59	228.04
987.89	228.10
988.18	227.96
988.47	227.94
988.76	227.93
989.05	227.92
989.34	227.95
989.63	228.00
989.92	227.97
990.22	227.96
990.51	227.96
990.80	227.94
991.09	227.95
991.38	228.01
991.67	228.15
991.96	228.15
992.25	228.28
992.54	228.37
992.83	228.46
993.12	228.42
993.41	228.47
993.70	228.45
993.99	228.50
994.28	228.61
994.58	228.69
994.87	228.58
995.16	228.59
995.45	228.53
995.74	228.55
996.03	228.61
996.32	228.62
996.61	228.71
996.90	228.62
997.19	228.60
997.48	228.59
997.77	228.56
998.06	228.50
998.34	228.50
998.63	228.42
998.92	228.44
999.21	228.61
999.50	228.65
999.79	228.70
1000.08	228.74
1000.37	228.72
1000.66	228.67
1000.95	228.78
1001.24	228.81
1001.53	228.87
1001.82	228.89
1002.11	228.80
1002.40	228.83
1002.68	228.84
1002.97	229.04
1003.26	229.00
1003.55	228.97
1003.84	228.95
1004.13	229.03
1004.42	228.98
1004.71	228.94
1004.99	228.88
1005.28	228.87
1005.57	228.80
1005.86	228.73
1006.15	228.76
1006.44	228.70
1006.72	228.67
1007.01	228.68
1007.30	228.64
1007.59	228.65
1007.88	228.63
1008.17	228.67
1008.45	228.66
1008.74	228.56
1009.03	228.52
1009.32	228.55
1009.60	228.59
1009.89	228.54
1010.18	228.55
1010.47	228.53
1010.76	228.66
1011.04	228.63
1011.33	228.74
1011.62	228.74
1011.91	228.69
1012.19	228.74
1012.48	228.89
1012.77	228.99
1013.05	229.04
1013.34	229.10
1013.63	229.00
1013.92	229.02
1014.20	229.07
1014.49	229.09
1014.78	229.13
1015.06	229.02
1015.35	229.05
1015.64	229.12
1015.92	229.15
1016.21	229.13
1016.50	229.17
1016.78	229.20
1017.07	229.33
1017.36	229.19
1017.64	229.10
1017.93	229.26
1018.22	229.11
1018.50	229.04
1018.79	229.01
1019.08	228.93
1019.36	228.88
1019.65	228.90
1019.93	228.85
1020.22	228.80
1020.51	228.86
1020.79	228.86
1021.08	228.40
1021.36	228.70
1021.65	229.20
1021.94	228.80
1022.22	227.50
1022.51	227.80
1022.79	228.00
1023.08	228.90
1023.36	230.70
1023.65	228.60
>>>>>End Processed Spectral Data<<<<<
