SpectraSuite Data File
++++++++++++++++++++++++++++++++++++
Date: Fri Feb 01 14:38:44 EST 2013
User: group
Dark Spectrum Present: No
Reference Spectrum Present: No
Number of Sampled Component Spectra: 1
Spectrometers: USB2E7196
Integration Time (usec): 70000 (USB2E7196)
Spectra Averaged: 10 (USB2E7196)
Boxcar Smoothing: 10 (USB2E7196)
Correct for Electrical Dark: No (USB2E7196)
Strobe/Lamp Enabled: No (USB2E7196)
Correct for Detector Non-linearity: No (USB2E7196)
Correct for Stray Light: No (USB2E7196)
Number of Pixels in Processed Spectrum: 2048
>>>>>Begin Processed Spectral Data<<<<<
339.09	0.00
339.48	216.50
339.86	217.40
340.24	219.60
340.63	219.80
341.01	224.30
341.39	222.10
341.78	224.90
342.16	225.70
342.54	227.50
342.93	214.93
343.31	225.86
343.69	226.44
344.07	226.86
344.46	227.36
344.84	227.76
345.22	227.92
345.60	228.19
345.99	228.42
346.37	228.52
346.75	228.48
347.13	228.48
347.52	228.56
347.90	228.61
348.28	228.60
348.66	228.52
349.05	228.39
349.43	228.31
349.81	228.40
350.19	228.53
350.57	228.63
350.96	228.70
351.34	228.69
351.72	228.63
352.10	228.80
352.48	228.82
352.87	228.88
353.25	229.03
353.63	229.14
354.01	229.05
354.39	229.09
354.77	229.13
355.15	229.21
355.54	229.16
355.92	229.10
356.30	229.16
356.68	229.37
357.06	229.45
357.44	229.55
357.82	229.50
358.20	229.42
358.58	229.37
358.97	229.38
359.35	229.44
359.73	229.61
360.11	229.63
360.49	229.60
360.87	229.66
361.25	229.68
361.63	229.70
362.01	229.82
362.39	229.89
362.77	230.03
363.15	230.07
363.53	230.10
363.91	230.07
364.29	230.07
364.67	229.96
365.05	230.04
365.43	229.97
365.81	230.00
366.19	230.16
366.57	230.35
366.95	230.31
367.33	230.25
367.71	230.21
368.09	230.16
368.47	230.03
368.85	229.99
369.23	229.99
369.61	229.93
369.99	229.89
370.37	229.86
370.75	229.82
371.13	229.71
371.51	229.76
371.89	229.79
372.27	229.73
372.65	229.71
373.03	229.61
373.41	229.56
373.78	229.50
374.16	229.24
374.54	229.06
374.92	229.02
375.30	228.90
375.68	228.66
376.06	228.60
376.44	228.76
376.82	228.66
377.19	228.46
377.57	228.23
377.95	228.15
378.33	228.07
378.71	228.00
379.09	228.08
379.47	227.91
379.84	227.79
380.22	227.70
380.60	227.55
380.98	227.50
381.36	227.40
381.73	227.31
382.11	227.25
382.49	227.13
382.87	226.99
383.25	226.99
383.62	227.25
384.00	227.17
384.38	226.93
384.76	226.98
385.13	227.08
385.51	227.17
385.89	227.10
386.27	227.04
386.64	226.91
387.02	226.78
387.40	226.73
387.78	226.75
388.15	226.74
388.53	226.66
388.91	226.57
389.29	226.53
389.66	226.53
390.04	226.48
390.42	226.51
390.79	226.59
391.17	226.51
391.55	226.28
391.92	226.37
392.30	226.36
392.68	226.30
393.05	226.30
393.43	226.30
393.81	226.30
394.18	226.32
394.56	226.40
394.94	226.43
395.31	226.46
395.69	226.56
396.06	226.70
396.44	226.69
396.82	226.78
397.19	227.05
397.57	227.08
397.95	227.26
398.32	227.32
398.70	227.40
399.07	227.53
399.45	227.59
399.82	227.66
400.20	227.78
400.58	227.81
400.95	227.78
401.33	227.96
401.70	228.20
402.08	228.27
402.45	228.31
402.83	228.50
403.20	228.68
403.58	228.74
403.95	228.86
404.33	229.18
404.71	229.30
405.08	229.55
405.46	229.64
405.83	229.80
406.21	229.86
406.58	230.15
406.96	230.31
407.33	230.59
407.70	230.70
408.08	231.12
408.45	231.45
408.83	231.87
409.20	232.11
409.58	232.25
409.95	232.62
410.33	233.04
410.70	233.28
411.08	233.61
411.45	233.99
411.82	234.36
412.20	234.75
412.57	235.13
412.95	235.30
413.32	235.82
413.69	236.36
414.07	236.97
414.44	237.40
414.82	238.04
415.19	238.64
415.56	239.34
415.94	239.85
416.31	240.60
416.68	241.27
417.06	242.07
417.43	242.91
417.81	243.77
418.18	244.71
418.55	245.74
418.93	246.77
419.30	247.76
419.67	248.79
420.04	249.85
420.42	251.06
420.79	252.56
421.16	253.90
421.54	255.31
421.91	256.71
422.28	258.20
422.66	259.73
423.03	261.30
423.40	262.92
423.77	264.64
424.15	266.30
424.52	268.03
424.89	269.80
425.26	271.74
425.64	273.49
426.01	275.31
426.38	277.37
426.75	279.41
427.13	281.62
427.50	283.88
427.87	286.26
428.24	288.60
428.61	290.66
428.99	293.08
429.36	295.68
429.73	298.23
430.10	300.90
430.47	303.50
430.85	306.26
431.22	309.07
431.59	312.22
431.96	315.03
432.33	318.20
432.70	321.40
433.08	324.93
433.45	328.45
433.82	331.89
434.19	335.47
434.56	339.09
434.93	342.56
435.30	346.13
435.68	350.10
436.05	353.87
436.42	357.60
436.79	361.08
437.16	364.70
437.53	368.56
437.90	372.21
438.27	375.94
438.64	379.81
439.01	383.38
439.38	386.57
439.75	389.74
440.13	393.30
440.50	396.60
440.87	399.41
441.24	402.10
441.61	405.31
441.98	407.65
442.35	410.41
442.72	413.10
443.09	415.83
443.46	417.36
443.83	418.51
444.20	419.71
444.57	421.12
444.94	421.84
445.31	422.80
445.68	423.79
446.05	424.41
446.42	424.29
446.79	424.27
447.16	423.86
447.53	423.80
447.90	422.67
448.27	421.65
448.64	419.87
449.01	418.80
449.37	416.45
449.74	414.20
450.11	411.64
450.48	408.74
450.85	405.62
451.22	403.02
451.59	400.57
451.96	398.16
452.33	394.95
452.70	392.17
453.07	388.52
453.43	384.78
453.80	381.33
454.17	377.87
454.54	374.47
454.91	371.06
455.28	367.72
455.65	364.64
456.02	361.58
456.38	358.83
456.75	355.26
457.12	352.40
457.49	349.60
457.86	346.66
458.23	344.29
458.59	341.49
458.96	338.75
459.33	336.36
459.70	333.98
460.07	332.06
460.43	329.65
460.80	327.42
461.17	325.56
461.54	323.39
461.91	321.50
462.27	319.63
462.64	317.90
463.01	315.93
463.38	314.00
463.74	311.92
464.11	310.34
464.48	309.00
464.85	307.36
465.21	306.07
465.58	304.77
465.95	303.20
466.32	301.94
466.68	300.67
467.05	299.36
467.42	297.97
467.78	296.47
468.15	295.23
468.52	294.30
468.88	293.04
469.25	291.79
469.62	290.90
469.98	289.86
470.35	288.97
470.72	288.11
471.08	287.12
471.45	286.36
471.82	285.44
472.18	284.56
472.55	283.95
472.92	283.15
473.28	282.44
473.65	281.74
474.02	280.96
474.38	280.32
474.75	279.75
475.11	279.11
475.48	278.67
475.85	278.15
476.21	277.61
476.58	277.12
476.94	276.83
477.31	276.24
477.67	275.86
478.04	275.40
478.41	275.08
478.77	274.89
479.14	274.47
479.50	274.13
479.87	273.87
480.23	273.59
480.60	273.40
480.96	273.14
481.33	273.00
481.69	272.82
482.06	272.66
482.42	272.42
482.79	272.19
483.15	272.07
483.52	272.08
483.88	272.00
484.25	271.85
484.61	271.82
484.98	271.81
485.34	271.79
485.71	271.76
486.07	271.69
486.44	271.56
486.80	271.60
487.17	271.67
487.53	271.68
487.90	271.70
488.26	271.86
488.62	272.08
488.99	272.08
489.35	272.22
489.72	272.43
490.08	272.65
490.44	272.90
490.81	273.12
491.17	273.25
491.54	273.44
491.90	273.73
492.26	273.97
492.63	274.12
492.99	274.30
493.36	274.56
493.72	274.88
494.08	275.22
494.45	275.63
494.81	275.99
495.17	276.43
495.54	276.82
495.90	277.05
496.26	277.24
496.63	277.73
496.99	278.13
497.35	278.36
497.72	278.75
498.08	279.08
498.44	279.37
498.80	279.74
499.17	280.22
499.53	280.59
499.89	281.00
500.26	281.46
500.62	281.82
500.98	282.26
501.34	282.65
501.71	283.00
502.07	283.33
502.43	283.63
502.79	283.90
503.16	284.30
503.52	284.70
503.88	285.06
504.24	285.40
504.60	285.81
504.97	286.31
505.33	286.78
505.69	287.38
506.05	287.90
506.41	288.40
506.78	288.76
507.14	289.25
507.50	289.81
507.86	290.44
508.22	291.10
508.59	291.68
508.95	292.31
509.31	293.05
509.67	293.60
510.03	294.30
510.39	295.12
510.75	295.82
511.12	296.66
511.48	297.59
511.84	298.41
512.20	299.25
512.56	300.19
512.92	301.18
513.28	302.20
513.64	303.23
514.00	304.39
514.37	305.71
514.73	307.13
515.09	308.40
515.45	309.69
515.81	311.03
516.17	312.55
516.53	314.00
516.89	315.56
517.25	317.30
517.61	319.12
517.97	320.90
518.33	322.79
518.69	324.77
519.05	326.90
519.41	329.12
519.77	331.56
520.13	333.76
520.49	336.11
520.85	338.51
521.21	340.96
521.57	343.67
521.93	346.34
522.29	348.95
522.65	351.72
523.01	354.60
523.37	357.40
523.73	360.38
524.09	363.60
524.45	366.74
524.81	370.06
525.17	373.47
525.53	377.06
525.89	380.55
526.25	384.13
526.61	387.80
526.97	391.57
527.33	395.41
527.68	399.66
528.04	403.71
528.40	407.81
528.76	412.15
529.12	416.43
529.48	420.90
529.84	425.30
530.20	430.07
530.56	434.94
530.91	440.09
531.27	445.26
531.63	450.28
531.99	455.39
532.35	460.52
532.71	465.81
533.07	470.75
533.42	476.44
533.78	481.84
534.14	487.30
534.50	492.46
534.86	498.02
535.21	503.51
535.57	509.18
535.93	515.15
536.29	521.09
536.65	526.92
537.00	532.80
537.36	538.90
537.72	544.80
538.08	550.52
538.44	556.50
538.79	562.28
539.15	568.17
539.51	574.27
539.87	580.56
540.22	586.67
540.58	593.09
540.94	599.03
541.29	605.17
541.65	611.42
542.01	618.06
542.37	624.32
542.72	630.62
543.08	637.04
543.44	643.36
543.79	649.57
544.15	656.06
544.51	662.73
544.87	669.00
545.22	675.28
545.58	681.88
545.94	687.72
546.29	694.29
546.65	700.65
547.01	707.09
547.36	713.48
547.72	719.54
548.07	725.56
548.43	731.88
548.79	738.10
549.14	744.19
549.50	750.20
549.86	756.38
550.21	762.17
550.57	768.23
550.92	774.03
551.28	779.85
551.64	785.68
551.99	791.38
552.35	797.56
552.70	803.22
553.06	809.30
553.41	815.56
553.77	821.32
554.13	827.24
554.48	832.94
554.84	838.58
555.19	844.37
555.55	850.49
555.90	855.89
556.26	861.71
556.61	867.20
556.97	872.65
557.32	878.00
557.68	883.79
558.03	889.08
558.39	894.30
558.74	900.00
559.10	905.38
559.45	910.57
559.81	915.65
560.16	921.11
560.52	925.69
560.87	930.81
561.23	935.68
561.58	940.67
561.94	945.21
562.29	949.63
562.64	954.20
563.00	958.53
563.35	963.45
563.71	968.18
564.06	972.74
564.42	977.22
564.77	981.70
565.12	986.09
565.48	990.59
565.83	994.99
566.19	999.18
566.54	1003.01
566.89	1006.91
567.25	1010.79
567.60	1014.88
567.96	1018.92
568.31	1022.58
568.66	1026.03
569.02	1029.50
569.37	1032.85
569.72	1036.14
570.08	1039.40
570.43	1042.72
570.78	1045.60
571.14	1047.96
571.49	1050.86
571.84	1054.12
572.20	1056.67
572.55	1059.21
572.90	1061.46
573.26	1063.65
573.61	1065.70
573.96	1068.23
574.31	1070.05
574.67	1071.21
575.02	1072.60
575.37	1074.36
575.72	1075.61
576.08	1077.20
576.43	1078.30
576.78	1080.09
577.13	1081.71
577.49	1083.07
577.84	1084.21
578.19	1085.38
578.54	1086.47
578.90	1087.14
579.25	1087.53
579.60	1088.10
579.95	1088.52
580.30	1088.78
580.66	1089.29
581.01	1089.63
581.36	1089.42
581.71	1089.87
582.06	1090.97
582.42	1091.18
582.77	1091.26
583.12	1091.33
583.47	1091.58
583.82	1091.70
584.17	1091.30
584.53	1091.09
584.88	1091.04
585.23	1090.45
585.58	1090.34
585.93	1090.23
586.28	1090.34
586.63	1090.31
586.98	1090.01
587.34	1089.83
587.69	1089.84
588.04	1089.49
588.39	1088.82
588.74	1088.01
589.09	1087.02
589.44	1085.60
589.79	1085.02
590.14	1084.26
590.49	1083.55
590.84	1082.33
591.19	1081.47
591.54	1080.34
591.89	1078.80
592.25	1077.64
592.60	1076.21
592.95	1074.30
593.30	1072.52
593.65	1070.65
594.00	1068.58
594.35	1067.68
594.70	1065.56
595.05	1063.69
595.40	1061.65
595.75	1059.87
596.10	1058.76
596.45	1057.25
596.80	1056.10
597.15	1054.14
597.50	1052.08
597.85	1050.59
598.19	1048.93
598.54	1047.18
598.89	1045.55
599.24	1044.29
599.59	1042.26
599.94	1040.72
600.29	1038.81
600.64	1036.98
600.99	1034.80
601.34	1033.01
601.69	1030.18
602.04	1028.28
602.39	1025.94
602.74	1024.12
603.08	1022.50
603.43	1020.36
603.78	1018.24
604.13	1015.64
604.48	1013.46
604.83	1011.27
605.18	1009.01
605.53	1006.43
605.87	1003.64
606.22	1001.16
606.57	998.33
606.92	995.69
607.27	993.42
607.62	991.55
607.96	989.58
608.31	987.60
608.66	984.83
609.01	982.26
609.36	979.12
609.70	976.26
610.05	972.98
610.40	969.75
610.75	966.46
611.10	963.40
611.44	960.04
611.79	956.87
612.14	953.75
612.49	949.84
612.83	946.45
613.18	943.20
613.53	939.96
613.88	936.63
614.22	933.34
614.57	929.50
614.92	925.80
615.27	922.21
615.61	918.51
615.96	915.33
616.31	912.20
616.65	909.39
617.00	906.38
617.35	903.38
617.70	899.90
618.04	896.61
618.39	893.26
618.74	890.34
619.08	886.94
619.43	883.63
619.78	880.73
620.12	877.51
620.47	874.10
620.82	870.47
621.16	867.09
621.51	863.80
621.85	860.62
622.20	856.86
622.55	853.33
622.89	849.96
623.24	846.66
623.59	843.18
623.93	839.98
624.28	836.54
624.62	833.07
624.97	830.00
625.32	826.75
625.66	823.57
626.01	820.40
626.35	816.97
626.70	813.62
627.04	810.38
627.39	806.84
627.73	803.48
628.08	800.12
628.43	796.95
628.77	793.51
629.12	789.89
629.46	786.79
629.81	783.12
630.15	779.50
630.50	775.78
630.84	772.06
631.19	768.25
631.53	764.72
631.88	761.12
632.22	757.05
632.57	753.57
632.91	749.71
633.26	745.89
633.60	742.52
633.95	738.93
634.29	735.36
634.64	732.40
634.98	728.90
635.32	725.91
635.67	722.46
636.01	719.29
636.36	716.09
636.70	712.81
637.05	709.62
637.39	706.68
637.73	703.63
638.08	700.69
638.42	697.83
638.77	694.75
639.11	691.67
639.45	688.81
639.80	685.68
640.14	682.89
640.49	679.97
640.83	676.71
641.17	673.60
641.52	670.51
641.86	667.03
642.20	664.18
642.55	660.98
642.89	658.02
643.23	654.83
643.58	652.09
643.92	648.79
644.26	645.96
644.61	643.01
644.95	639.80
645.29	636.40
645.64	633.00
645.98	629.76
646.32	626.81
646.66	623.82
647.01	620.53
647.35	617.49
647.69	614.39
648.04	611.72
648.38	608.75
648.72	605.56
649.06	602.47
649.41	599.49
649.75	596.33
650.09	593.04
650.43	590.02
650.78	586.60
651.12	583.52
651.46	580.39
651.80	577.23
652.14	574.45
652.49	571.79
652.83	569.00
653.17	566.12
653.51	562.97
653.85	559.89
654.20	556.99
654.54	553.75
654.88	550.77
655.22	547.52
655.56	544.55
655.90	541.72
656.25	539.08
656.59	536.34
656.93	533.60
657.27	530.93
657.61	527.90
657.95	525.40
658.29	522.84
658.64	520.22
658.98	517.31
659.32	514.37
659.66	511.59
660.00	508.81
660.34	506.14
660.68	503.43
661.02	500.75
661.36	498.27
661.70	495.88
662.05	493.66
662.39	491.24
662.73	488.77
663.07	486.44
663.41	484.19
663.75	481.71
664.09	479.27
664.43	477.15
664.77	474.98
665.11	472.58
665.45	470.25
665.79	467.88
666.13	465.59
666.47	463.27
666.81	460.95
667.15	458.57
667.49	456.34
667.83	454.50
668.17	452.35
668.51	450.14
668.85	447.93
669.19	445.67
669.53	443.40
669.87	441.17
670.21	439.04
670.55	436.79
670.89	434.79
671.23	432.89
671.57	430.70
671.91	428.68
672.25	426.62
672.58	424.83
672.92	422.90
673.26	421.16
673.60	419.54
673.94	417.84
674.28	416.35
674.62	414.70
674.96	412.92
675.30	411.31
675.64	409.44
675.97	407.70
676.31	406.02
676.65	404.45
676.99	403.20
677.33	401.49
677.67	399.94
678.01	398.29
678.34	396.46
678.68	394.84
679.02	393.30
679.36	391.78
679.70	390.08
680.04	388.58
680.37	386.93
680.71	385.25
681.05	383.75
681.39	382.21
681.73	380.69
682.06	379.26
682.40	377.90
682.74	376.69
683.08	375.41
683.42	373.94
683.75	372.54
684.09	370.84
684.43	369.42
684.77	368.03
685.10	366.61
685.44	365.28
685.78	363.93
686.12	362.61
686.45	361.37
686.79	360.12
687.13	358.84
687.46	357.67
687.80	356.52
688.14	355.17
688.48	353.87
688.81	352.59
689.15	351.30
689.49	349.88
689.82	348.49
690.16	347.14
690.50	345.94
690.83	344.75
691.17	343.43
691.51	342.32
691.84	341.03
692.18	339.86
692.52	338.68
692.85	337.32
693.19	336.22
693.52	335.02
693.86	333.81
694.20	332.63
694.53	331.58
694.87	330.28
695.21	329.25
695.54	328.06
695.88	326.90
696.21	325.68
696.55	324.68
696.88	323.59
697.22	322.51
697.56	321.42
697.89	320.36
698.23	319.41
698.56	318.28
698.90	317.33
699.23	316.22
699.57	315.32
699.90	314.38
700.24	313.19
700.58	312.15
700.91	311.10
701.25	310.23
701.58	309.24
701.92	308.39
702.25	307.36
702.59	306.37
702.92	305.39
703.26	304.50
703.59	303.67
703.93	303.00
704.26	302.09
704.60	301.29
704.93	300.41
705.26	299.50
705.60	298.74
705.93	297.94
706.27	297.23
706.60	296.51
706.94	295.90
707.27	295.14
707.61	294.40
707.94	293.60
708.27	292.69
708.61	291.83
708.94	291.20
709.28	290.50
709.61	289.83
709.94	289.29
710.28	288.69
710.61	287.94
710.95	287.09
711.28	286.49
711.61	285.71
711.95	285.10
712.28	284.43
712.61	283.83
712.95	283.12
713.28	282.53
713.61	281.80
713.95	281.10
714.28	280.54
714.61	280.10
714.95	279.66
715.28	279.10
715.61	278.54
715.95	277.88
716.28	277.26
716.61	276.72
716.95	276.13
717.28	275.63
717.61	275.11
717.94	274.62
718.28	274.09
718.61	273.59
718.94	273.07
719.27	272.72
719.61	272.17
719.94	271.79
720.27	271.33
720.60	270.90
720.94	270.61
721.27	270.19
721.60	269.72
721.93	269.32
722.27	269.10
722.60	268.73
722.93	268.36
723.26	268.08
723.59	267.66
723.93	267.30
724.26	266.90
724.59	266.55
724.92	266.20
725.25	265.79
725.59	265.39
725.92	265.14
726.25	264.68
726.58	264.37
726.91	263.97
727.24	263.64
727.57	263.35
727.91	262.86
728.24	262.63
728.57	262.27
728.90	262.06
729.23	261.52
729.56	261.28
729.89	260.99
730.22	260.56
730.55	260.22
730.89	259.84
731.22	259.57
731.55	259.18
731.88	258.92
732.21	258.57
732.54	258.40
732.87	258.01
733.20	257.78
733.53	257.49
733.86	257.19
734.19	256.84
734.52	256.51
734.85	256.38
735.18	256.02
735.51	255.72
735.84	255.30
736.17	255.15
736.50	254.82
736.83	254.64
737.16	254.46
737.49	254.33
737.82	254.03
738.15	253.62
738.48	253.40
738.81	253.05
739.14	252.81
739.47	252.53
739.80	252.29
740.13	252.03
740.46	251.73
740.79	251.56
741.12	251.30
741.45	251.01
741.78	250.68
742.11	250.43
742.44	250.15
742.77	250.00
743.10	249.58
743.43	249.20
743.75	248.83
744.08	248.82
744.41	248.59
744.74	248.50
745.07	248.36
745.40	248.20
745.73	248.05
746.06	247.82
746.39	247.55
746.71	247.19
747.04	246.97
747.37	246.79
747.70	246.53
748.03	246.21
748.36	246.05
748.68	245.83
749.01	245.47
749.34	245.34
749.67	245.06
750.00	244.86
750.33	244.89
750.65	244.70
750.98	244.23
751.31	244.03
751.64	243.76
751.97	243.58
752.29	243.24
752.62	242.98
752.95	242.82
753.28	242.65
753.60	242.53
753.93	242.36
754.26	242.25
754.59	242.08
754.91	242.00
755.24	241.71
755.57	241.46
755.90	241.44
756.22	241.22
756.55	241.08
756.88	240.96
757.20	240.60
757.53	240.29
757.86	240.14
758.19	239.91
758.51	239.71
758.84	239.46
759.17	239.42
759.49	239.36
759.82	239.35
760.15	239.30
760.47	239.19
760.80	239.00
761.13	238.85
761.45	238.68
761.78	238.51
762.11	238.39
762.43	238.33
762.76	238.20
763.08	238.12
763.41	238.06
763.74	237.97
764.06	238.00
764.39	237.91
764.71	237.80
765.04	237.66
765.37	237.62
765.69	237.67
766.02	237.56
766.34	237.44
766.67	237.16
767.00	237.03
767.32	237.05
767.65	237.12
767.97	237.03
768.30	236.90
768.62	236.90
768.95	236.84
769.27	236.70
769.60	236.59
769.92	236.45
770.25	236.23
770.57	236.13
770.90	236.03
771.22	236.10
771.55	235.99
771.87	235.90
772.20	235.90
772.52	235.93
772.85	236.02
773.17	235.94
773.50	235.97
773.82	235.87
774.15	235.74
774.47	235.58
774.80	235.51
775.12	235.51
775.45	235.38
775.77	235.39
776.09	235.37
776.42	235.33
776.74	235.34
777.07	235.24
777.39	235.23
777.72	235.05
778.04	234.90
778.36	234.90
778.69	234.89
779.01	234.71
779.33	234.43
779.66	234.27
779.98	234.16
780.31	234.12
780.63	234.19
780.95	234.06
781.28	233.99
781.60	233.83
781.92	233.78
782.25	233.72
782.57	233.58
782.89	233.51
783.22	233.40
783.54	233.28
783.86	233.29
784.19	233.20
784.51	233.26
784.83	233.13
785.16	233.04
785.48	233.01
785.80	233.03
786.12	232.98
786.45	232.78
786.77	232.70
787.09	232.70
787.42	232.46
787.74	232.48
788.06	232.44
788.38	232.41
788.71	232.27
789.03	232.20
789.35	232.23
789.67	232.10
789.99	232.13
790.32	232.03
790.64	232.05
790.96	232.04
791.28	231.93
791.61	231.94
791.93	231.93
792.25	231.89
792.57	231.83
792.89	231.88
793.21	231.83
793.54	231.84
793.86	231.73
794.18	231.84
794.50	231.68
794.82	231.64
795.14	231.63
795.47	231.62
795.79	231.66
796.11	231.61
796.43	231.56
796.75	231.56
797.07	231.55
797.39	231.52
797.71	231.40
798.04	231.36
798.36	231.36
798.68	231.25
799.00	231.20
799.32	231.22
799.64	231.19
799.96	231.26
800.28	231.28
800.60	231.25
800.92	231.19
801.24	231.22
801.56	231.16
801.89	231.10
802.21	231.13
802.53	231.04
802.85	231.05
803.17	231.14
803.49	231.03
803.81	231.02
804.13	230.95
804.45	230.90
804.77	230.91
805.09	230.95
805.41	230.95
805.73	230.88
806.05	230.72
806.37	230.61
806.69	230.57
807.01	230.51
807.33	230.48
807.65	230.38
807.97	230.50
808.28	230.54
808.60	230.50
808.92	230.46
809.24	230.60
809.56	230.67
809.88	230.65
810.20	230.68
810.52	230.68
810.84	230.73
811.16	230.73
811.48	230.68
811.80	230.67
812.12	230.69
812.43	230.75
812.75	230.82
813.07	230.80
813.39	230.78
813.71	230.75
814.03	230.81
814.35	230.78
814.67	230.70
814.98	230.73
815.30	230.75
815.62	230.72
815.94	230.62
816.26	230.59
816.58	230.52
816.89	230.45
817.21	230.42
817.53	230.36
817.85	230.31
818.17	230.33
818.48	230.33
818.80	230.34
819.12	230.40
819.44	230.37
819.76	230.46
820.07	230.49
820.39	230.48
820.71	230.42
821.03	230.37
821.34	230.27
821.66	230.20
821.98	230.08
822.30	230.12
822.61	230.17
822.93	230.09
823.25	230.10
823.57	230.10
823.88	230.22
824.20	230.23
824.52	230.32
824.83	230.20
825.15	230.02
825.47	229.90
825.79	229.89
826.10	229.80
826.42	229.76
826.74	229.66
827.05	229.62
827.37	229.59
827.69	229.67
828.00	229.70
828.32	229.63
828.64	229.71
828.95	229.69
829.27	229.62
829.58	229.50
829.90	229.50
830.22	229.59
830.53	229.45
830.85	229.34
831.17	229.25
831.48	229.39
831.80	229.45
832.11	229.48
832.43	229.31
832.75	229.28
833.06	229.22
833.38	229.23
833.69	229.20
834.01	229.18
834.32	229.09
834.64	229.08
834.96	229.10
835.27	229.03
835.59	229.04
835.90	228.90
836.22	228.90
836.53	228.89
836.85	228.76
837.16	228.83
837.48	228.90
837.79	229.05
838.11	228.91
838.42	228.90
838.74	228.98
839.05	228.98
839.37	229.04
839.68	228.94
840.00	228.99
840.31	228.93
840.63	228.88
840.94	228.83
841.26	228.83
841.57	228.76
841.88	228.87
842.20	228.77
842.51	228.87
842.83	228.89
843.14	229.01
843.46	228.98
843.77	228.96
844.08	228.93
844.40	228.85
844.71	228.84
845.03	228.82
845.34	228.81
845.65	228.79
845.97	228.81
846.28	228.92
846.60	228.92
846.91	229.04
847.22	229.04
847.54	229.18
847.85	229.17
848.16	229.20
848.48	229.09
848.79	229.16
849.10	229.14
849.42	229.16
849.73	228.97
850.04	229.03
850.36	229.00
850.67	229.05
850.98	229.00
851.30	229.13
851.61	229.18
851.92	229.17
852.23	229.28
852.55	229.24
852.86	229.27
853.17	229.25
853.49	229.16
853.80	229.22
854.11	229.21
854.42	229.32
854.74	229.32
855.05	229.38
855.36	229.40
855.67	229.48
855.99	229.51
856.30	229.76
856.61	229.72
856.92	229.68
857.23	229.60
857.55	229.64
857.86	229.60
858.17	229.57
858.48	229.55
858.79	229.55
859.11	229.60
859.42	229.67
859.73	229.59
860.04	229.60
860.35	229.55
860.66	229.52
860.98	229.43
861.29	229.52
861.60	229.52
861.91	229.44
862.22	229.30
862.53	229.22
862.84	229.08
863.16	229.13
863.47	229.08
863.78	229.00
864.09	228.94
864.40	228.96
864.71	228.84
865.02	228.81
865.33	228.68
865.64	228.55
865.95	228.40
866.27	228.48
866.58	228.52
866.89	228.56
867.20	228.42
867.51	228.26
867.82	228.11
868.13	228.12
868.44	228.10
868.75	228.11
869.06	228.10
869.37	228.10
869.68	228.02
869.99	228.02
870.30	228.16
870.61	228.19
870.92	228.08
871.23	228.21
871.54	228.25
871.85	228.28
872.16	228.33
872.47	228.30
872.78	228.24
873.09	228.24
873.40	228.14
873.71	228.24
874.02	228.31
874.33	228.30
874.64	228.28
874.95	228.33
875.26	228.35
875.56	228.35
875.87	228.24
876.18	228.22
876.49	228.34
876.80	228.16
877.11	228.11
877.42	228.19
877.73	228.05
878.04	228.02
878.35	228.11
878.66	228.13
878.96	228.08
879.27	228.07
879.58	227.99
879.89	228.03
880.20	228.04
880.51	228.03
880.82	227.98
881.12	227.99
881.43	227.97
881.74	227.90
882.05	227.93
882.36	228.07
882.67	228.13
882.97	227.97
883.28	227.97
883.59	227.97
883.90	227.88
884.21	228.03
884.51	228.03
884.82	227.96
885.13	227.93
885.44	228.08
885.74	228.03
886.05	228.07
886.36	227.92
886.67	227.87
886.98	228.02
887.28	228.11
887.59	228.09
887.90	228.11
888.20	228.13
888.51	228.19
888.82	228.07
889.13	228.06
889.43	228.24
889.74	228.40
890.05	228.38
890.35	228.53
890.66	228.46
890.97	228.49
891.28	228.51
891.58	228.55
891.89	228.49
892.20	228.51
892.50	228.54
892.81	228.70
893.12	228.77
893.42	228.66
893.73	228.67
894.04	228.73
894.34	228.75
894.65	228.80
894.95	228.75
895.26	228.79
895.57	228.88
895.87	228.79
896.18	228.73
896.48	228.85
896.79	228.72
897.10	228.84
897.40	228.88
897.71	228.98
898.01	228.99
898.32	229.06
898.63	229.11
898.93	229.04
899.24	229.01
899.54	228.99
899.85	229.00
900.15	228.99
900.46	228.97
900.76	229.01
901.07	229.04
901.38	229.04
901.68	228.99
901.99	228.93
902.29	228.94
902.60	228.97
902.90	228.99
903.21	229.07
903.51	229.02
903.82	229.04
904.12	229.00
904.43	228.88
904.73	228.84
905.03	228.87
905.34	229.10
905.64	229.18
905.95	229.19
906.25	229.23
906.56	229.28
906.86	229.25
907.17	229.05
907.47	228.96
907.77	228.94
908.08	228.98
908.38	228.93
908.69	228.85
908.99	228.80
909.30	228.72
909.60	228.61
909.90	228.58
910.21	228.38
910.51	228.36
910.81	228.41
911.12	228.36
911.42	228.37
911.73	228.15
912.03	228.09
912.33	228.05
912.64	228.00
912.94	227.83
913.24	227.82
913.55	227.90
913.85	227.96
914.15	227.95
914.46	227.94
914.76	228.02
915.06	228.04
915.37	228.06
915.67	228.00
915.97	228.02
916.27	227.99
916.58	228.09
916.88	227.96
917.18	227.90
917.49	228.05
917.79	227.98
918.09	228.05
918.39	228.06
918.70	228.04
919.00	228.08
919.30	228.23
919.60	228.16
919.91	228.09
920.21	228.04
920.51	227.96
920.81	227.94
921.12	227.85
921.42	227.75
921.72	227.64
922.02	227.63
922.32	227.71
922.63	227.64
922.93	227.67
923.23	227.79
923.53	227.83
923.83	227.71
924.13	227.70
924.44	227.65
924.74	227.72
925.04	227.80
925.34	227.78
925.64	227.71
925.94	227.77
926.24	227.99
926.55	227.92
926.85	227.98
927.15	227.98
927.45	227.96
927.75	228.05
928.05	228.16
928.35	228.23
928.65	228.20
928.95	228.24
929.26	228.21
929.56	228.22
929.86	228.28
930.16	228.25
930.46	228.27
930.76	228.31
931.06	228.20
931.36	228.23
931.66	228.27
931.96	228.37
932.26	228.47
932.56	228.33
932.86	228.48
933.16	228.56
933.46	228.63
933.76	228.75
934.06	228.92
934.36	229.05
934.66	229.01
934.96	229.10
935.26	229.22
935.56	229.25
935.86	229.20
936.16	229.18
936.46	229.16
936.76	229.25
937.06	229.20
937.36	229.28
937.66	229.27
937.96	229.29
938.26	229.30
938.56	229.28
938.86	229.30
939.16	229.26
939.46	229.29
939.76	229.19
940.06	229.12
940.35	229.03
940.65	228.89
940.95	228.92
941.25	228.90
941.55	228.80
941.85	228.80
942.15	228.80
942.45	228.83
942.75	228.85
943.04	228.90
943.34	228.93
943.64	228.80
943.94	228.70
944.24	228.68
944.54	228.65
944.84	228.68
945.13	228.62
945.43	228.71
945.73	228.70
946.03	228.68
946.33	228.65
946.62	228.64
946.92	228.70
947.22	228.73
947.52	228.72
947.82	228.76
948.11	228.73
948.41	228.62
948.71	228.66
949.01	228.62
949.31	228.47
949.60	228.35
949.90	228.44
950.20	228.44
950.50	228.35
950.79	228.32
951.09	228.30
951.39	228.21
951.69	228.06
951.98	227.98
952.28	228.00
952.58	227.91
952.87	227.95
953.17	227.95
953.47	227.93
953.76	227.85
954.06	227.78
954.36	227.73
954.66	227.80
954.95	227.70
955.25	227.75
955.55	227.80
955.84	227.80
956.14	227.83
956.44	227.81
956.73	227.84
957.03	227.81
957.32	227.70
957.62	227.86
957.92	227.94
958.21	227.94
958.51	228.16
958.81	228.28
959.10	228.24
959.40	228.29
959.69	228.21
959.99	228.18
960.29	228.27
960.58	228.33
960.88	228.41
961.17	228.44
961.47	228.49
961.76	228.54
962.06	228.64
962.36	228.58
962.65	228.63
962.95	228.66
963.24	228.74
963.54	228.78
963.83	228.73
964.13	228.61
964.42	228.62
964.72	228.47
965.01	228.44
965.31	228.39
965.60	228.36
965.90	228.56
966.19	228.62
966.49	228.70
966.78	228.63
967.08	228.59
967.37	228.68
967.67	228.61
967.96	228.57
968.26	228.50
968.55	228.53
968.85	228.54
969.14	228.46
969.43	228.40
969.73	228.36
970.02	228.43
970.32	228.58
970.61	228.62
970.91	228.57
971.20	228.56
971.49	228.60
971.79	228.52
972.08	228.34
972.38	228.26
972.67	228.28
972.96	228.41
973.26	228.49
973.55	228.43
973.85	228.46
974.14	228.49
974.43	228.58
974.73	228.71
975.02	228.76
975.31	228.84
975.61	228.90
975.90	228.92
976.19	228.91
976.49	228.87
976.78	228.84
977.07	228.91
977.37	228.95
977.66	228.97
977.95	229.06
978.24	229.12
978.54	229.25
978.83	229.13
979.12	229.06
979.42	229.01
979.71	229.12
980.00	229.11
980.29	229.06
980.59	229.01
980.88	228.91
981.17	228.88
981.46	228.89
981.76	228.76
982.05	228.83
982.34	228.74
982.63	228.81
982.93	228.86
983.22	228.88
983.51	228.89
983.80	228.87
984.09	228.75
984.39	228.71
984.68	228.61
984.97	228.61
985.26	228.58
985.55	228.62
985.85	228.50
986.14	228.52
986.43	228.57
986.72	228.52
987.01	228.41
987.30	228.39
987.59	228.27
987.89	228.34
988.18	228.25
988.47	228.27
988.76	228.16
989.05	228.08
989.34	227.99
989.63	228.05
989.92	228.03
990.22	228.10
990.51	228.04
990.80	228.01
991.09	227.94
991.38	228.06
991.67	228.06
991.96	227.96
992.25	227.94
992.54	227.91
992.83	227.93
993.12	228.02
993.41	228.08
993.70	228.16
993.99	228.11
994.28	228.14
994.58	228.12
994.87	228.08
995.16	228.05
995.45	228.02
995.74	227.91
996.03	227.88
996.32	227.83
996.61	227.88
996.90	227.95
997.19	227.92
997.48	227.86
997.77	227.73
998.06	227.81
998.34	227.82
998.63	227.76
998.92	227.83
999.21	227.79
999.50	227.65
999.79	227.65
1000.08	227.72
1000.37	227.80
1000.66	227.84
1000.95	227.90
1001.24	228.05
1001.53	228.13
1001.82	228.18
1002.11	228.20
1002.40	228.22
1002.68	228.31
1002.97	228.44
1003.26	228.51
1003.55	228.46
1003.84	228.44
1004.13	228.46
1004.42	228.35
1004.71	228.40
1004.99	228.34
1005.28	228.42
1005.57	228.47
1005.86	228.47
1006.15	228.49
1006.44	228.45
1006.72	228.51
1007.01	228.53
1007.30	228.51
1007.59	228.48
1007.88	228.43
1008.17	228.47
1008.45	228.42
1008.74	228.33
1009.03	228.20
1009.32	228.27
1009.60	228.38
1009.89	228.45
1010.18	228.48
1010.47	228.57
1010.76	228.61
1011.04	228.62
1011.33	228.66
1011.62	228.68
1011.91	228.64
1012.19	228.60
1012.48	228.66
1012.77	228.68
1013.05	228.73
1013.34	228.60
1013.63	228.63
1013.92	228.59
1014.20	228.56
1014.49	228.60
1014.78	228.52
1015.06	228.49
1015.35	228.37
1015.64	228.28
1015.92	228.31
1016.21	228.29
1016.50	228.25
1016.78	228.33
1017.07	228.34
1017.36	228.27
1017.64	228.30
1017.93	228.42
1018.22	228.41
1018.50	228.27
1018.79	228.17
1019.08	228.04
1019.36	228.19
1019.65	228.12
1019.93	228.22
1020.22	228.20
1020.51	228.31
1020.79	228.37
1021.08	228.30
1021.36	226.90
1021.65	227.80
1021.94	227.00
1022.22	229.30
1022.51	227.60
1022.79	229.10
1023.08	228.00
1023.36	230.40
1023.65	227.80
>>>>>End Processed Spectral Data<<<<<
