SpectraSuite Data File
++++++++++++++++++++++++++++++++++++
Date: Fri Feb 01 14:39:28 EST 2013
User: group
Dark Spectrum Present: No
Reference Spectrum Present: No
Number of Sampled Component Spectra: 1
Spectrometers: USB2E7196
Integration Time (usec): 70000 (USB2E7196)
Spectra Averaged: 10 (USB2E7196)
Boxcar Smoothing: 10 (USB2E7196)
Correct for Electrical Dark: No (USB2E7196)
Strobe/Lamp Enabled: No (USB2E7196)
Correct for Detector Non-linearity: No (USB2E7196)
Correct for Stray Light: No (USB2E7196)
Number of Pixels in Processed Spectrum: 2048
>>>>>Begin Processed Spectral Data<<<<<
339.09	0.00
339.48	216.20
339.86	217.40
340.24	219.90
340.63	221.10
341.01	225.50
341.39	223.50
341.78	226.70
342.16	225.90
342.54	226.30
342.93	214.80
343.31	225.63
343.69	226.15
344.07	226.63
344.46	227.08
344.84	227.37
345.22	227.44
345.60	227.69
345.99	227.76
346.37	227.84
346.75	227.84
347.13	227.95
347.52	227.90
347.90	228.01
348.28	227.97
348.66	228.01
349.05	227.99
349.43	227.99
349.81	228.04
350.19	227.98
350.57	228.06
350.96	228.10
351.34	228.20
351.72	228.17
352.10	228.22
352.48	228.23
352.87	228.40
353.25	228.50
353.63	228.55
354.01	228.57
354.39	228.65
354.77	228.73
355.15	228.88
355.54	228.92
355.92	228.96
356.30	229.05
356.68	229.25
357.06	229.40
357.44	229.40
357.82	229.56
358.20	229.69
358.58	229.69
358.97	229.80
359.35	229.79
359.73	229.95
360.11	229.98
360.49	230.01
360.87	229.95
361.25	230.11
361.63	230.18
362.01	230.21
362.39	230.29
362.77	230.36
363.15	230.31
363.53	230.33
363.91	230.28
364.29	230.24
364.67	230.04
365.05	229.94
365.43	230.03
365.81	229.98
366.19	229.98
366.57	230.03
366.95	229.97
367.33	229.95
367.71	229.90
368.09	230.02
368.47	229.99
368.85	229.89
369.23	229.82
369.61	229.74
369.99	229.82
370.37	229.63
370.75	229.76
371.13	229.70
371.51	229.61
371.89	229.64
372.27	229.64
372.65	229.56
373.03	229.58
373.41	229.54
373.78	229.43
374.16	229.33
374.54	229.27
374.92	229.21
375.30	229.16
375.68	229.02
376.06	228.87
376.44	228.82
376.82	228.87
377.19	228.80
377.57	228.63
377.95	228.45
378.33	228.52
378.71	228.20
379.09	228.20
379.47	228.17
379.84	228.11
380.22	228.00
380.60	227.91
380.98	227.77
381.36	227.61
381.73	227.53
382.11	227.46
382.49	227.38
382.87	227.31
383.25	227.20
383.62	227.48
384.00	227.35
384.38	227.20
384.76	227.07
385.13	227.07
385.51	226.96
385.89	226.83
386.27	226.72
386.64	226.81
387.02	226.71
387.40	226.71
387.78	226.62
388.15	226.66
388.53	226.56
388.91	226.45
389.29	226.45
389.66	226.46
390.04	226.41
390.42	226.43
390.79	226.33
391.17	226.43
391.55	226.17
391.92	226.28
392.30	226.33
392.68	226.34
393.05	226.20
393.43	226.33
393.81	226.44
394.18	226.41
394.56	226.44
394.94	226.59
395.31	226.51
395.69	226.60
396.06	226.62
396.44	226.72
396.82	226.87
397.19	226.94
397.57	226.94
397.95	227.02
398.32	227.13
398.70	227.24
399.07	227.28
399.45	227.35
399.82	227.41
400.20	227.57
400.58	227.69
400.95	227.85
401.33	227.98
401.70	228.18
402.08	228.44
402.45	228.49
402.83	228.62
403.20	228.84
403.58	228.99
403.95	229.10
404.33	229.22
404.71	229.35
405.08	229.55
405.46	229.70
405.83	229.88
406.21	230.00
406.58	230.13
406.96	230.30
407.33	230.52
407.70	230.63
408.08	230.90
408.45	231.14
408.83	231.33
409.20	231.50
409.58	231.63
409.95	231.80
410.33	232.14
410.70	232.27
411.08	232.53
411.45	232.83
411.82	233.14
412.20	233.61
412.57	234.08
412.95	234.31
413.32	234.76
413.69	235.11
414.07	235.54
414.44	236.03
414.82	236.49
415.19	237.08
415.56	237.57
415.94	238.08
416.31	238.75
416.68	239.42
417.06	240.24
417.43	240.91
417.81	241.70
418.18	242.39
418.55	243.25
418.93	244.18
419.30	244.93
419.67	245.92
420.04	246.86
420.42	247.76
420.79	249.00
421.16	250.12
421.54	251.50
421.91	252.67
422.28	254.02
422.66	255.46
423.03	256.76
423.40	258.16
423.77	259.64
424.15	261.00
424.52	262.50
424.89	264.11
425.26	265.81
425.64	267.35
426.01	269.12
426.38	270.85
426.75	272.72
427.13	274.63
427.50	276.65
427.87	278.59
428.24	280.57
428.61	282.55
428.99	284.75
429.36	286.82
429.73	289.13
430.10	291.27
430.47	293.34
430.85	295.64
431.22	298.11
431.59	300.68
431.96	303.21
432.33	305.87
432.70	308.49
433.08	311.46
433.45	314.34
433.82	317.15
434.19	320.39
434.56	323.38
434.93	326.22
435.30	328.98
435.68	332.27
436.05	335.53
436.42	338.51
436.79	341.35
437.16	344.48
437.53	347.67
437.90	350.86
438.27	354.10
438.64	357.28
439.01	360.40
439.38	362.93
439.75	365.46
440.13	368.34
440.50	371.09
440.87	373.35
441.24	375.61
441.61	378.20
441.98	379.95
442.35	382.17
442.72	384.48
443.09	386.61
443.46	387.80
443.83	388.62
444.20	389.43
444.57	390.49
444.94	391.14
445.31	391.77
445.68	392.50
446.05	392.95
446.42	392.88
446.79	392.61
447.16	392.28
447.53	392.21
447.90	391.19
448.27	390.10
448.64	388.54
449.01	387.61
449.37	385.63
449.74	383.78
450.11	381.45
450.48	378.76
450.85	376.15
451.22	374.03
451.59	371.91
451.96	369.87
452.33	367.17
452.70	364.58
453.07	361.55
453.43	358.36
453.80	355.29
454.17	352.37
454.54	349.47
454.91	346.58
455.28	343.60
455.65	340.90
456.02	338.39
456.38	335.98
456.75	332.95
457.12	330.45
457.49	327.93
457.86	325.42
458.23	323.60
458.59	321.29
458.96	318.95
459.33	316.87
459.70	314.83
460.07	313.17
460.43	311.27
460.80	309.40
461.17	307.79
461.54	306.05
461.91	304.35
462.27	302.80
462.64	301.36
463.01	299.80
463.38	298.28
463.74	296.50
464.11	295.13
464.48	293.94
464.85	292.69
465.21	291.81
465.58	290.91
465.95	289.61
466.32	288.66
466.68	287.62
467.05	286.58
467.42	285.56
467.78	284.34
468.15	283.27
468.52	282.47
468.88	281.25
469.25	280.17
469.62	279.45
469.98	278.51
470.35	277.67
470.72	276.81
471.08	276.03
471.45	275.39
471.82	274.72
472.18	274.01
472.55	273.36
472.92	272.54
473.28	271.77
473.65	271.12
474.02	270.33
474.38	269.72
474.75	269.25
475.11	268.61
475.48	268.13
475.85	267.66
476.21	267.09
476.58	266.81
476.94	266.47
477.31	265.84
477.67	265.40
478.04	265.07
478.41	264.76
478.77	264.53
479.14	264.06
479.50	263.80
479.87	263.44
480.23	263.15
480.60	262.86
480.96	262.63
481.33	262.50
481.69	262.43
482.06	262.21
482.42	262.00
482.79	261.74
483.15	261.62
483.52	261.52
483.88	261.35
484.25	261.19
484.61	261.10
484.98	261.12
485.34	261.22
485.71	261.22
486.07	261.27
486.44	261.14
486.80	261.20
487.17	261.15
487.53	261.15
487.90	261.21
488.26	261.32
488.62	261.47
488.99	261.51
489.35	261.58
489.72	261.73
490.08	261.83
490.44	262.04
490.81	262.21
491.17	262.35
491.54	262.60
491.90	262.84
492.26	263.00
492.63	263.20
492.99	263.46
493.36	263.73
493.72	263.92
494.08	264.26
494.45	264.64
494.81	265.02
495.17	265.38
495.54	265.72
495.90	266.04
496.26	266.34
496.63	266.73
496.99	267.17
497.35	267.64
497.72	268.16
498.08	268.70
498.44	269.22
498.80	269.87
499.17	270.45
499.53	271.08
499.89	271.82
500.26	272.50
500.62	273.05
500.98	273.85
501.34	274.70
501.71	275.51
502.07	276.30
502.43	277.14
502.79	278.12
503.16	278.98
503.52	279.96
503.88	280.92
504.24	282.00
504.60	283.02
504.97	284.13
505.33	285.29
505.69	286.52
506.05	287.76
506.41	289.06
506.78	290.50
507.14	291.82
507.50	293.44
507.86	295.05
508.22	296.78
508.59	298.17
508.95	299.90
509.31	301.78
509.67	303.66
510.03	305.60
510.39	307.41
510.75	309.57
511.12	311.66
511.48	313.89
511.84	316.24
512.20	318.59
512.56	321.00
512.92	323.53
513.28	326.13
513.64	328.82
514.00	331.51
514.37	334.30
514.73	337.38
515.09	340.28
515.45	343.26
515.81	346.39
516.17	349.90
516.53	353.21
516.89	356.38
517.25	359.80
517.61	363.50
517.97	367.20
518.33	370.96
518.69	374.93
519.05	378.98
519.41	383.12
519.77	387.42
520.13	391.86
520.49	396.13
520.85	400.56
521.21	405.38
521.57	410.21
521.93	414.85
522.29	419.80
522.65	424.70
523.01	429.65
523.37	434.68
523.73	439.67
524.09	444.93
524.45	450.38
524.81	456.09
525.17	461.81
525.53	467.72
525.89	473.64
526.25	479.82
526.61	485.91
526.97	491.91
527.33	498.21
527.68	504.70
528.04	511.18
528.40	517.79
528.76	524.32
529.12	531.11
529.48	538.22
529.84	544.94
530.20	552.15
530.56	559.51
530.91	567.01
531.27	574.60
531.63	581.88
531.99	589.47
532.35	596.72
532.71	603.81
533.07	611.46
533.42	619.06
533.78	626.55
534.14	634.16
534.50	641.69
534.86	649.45
535.21	656.99
535.57	665.01
535.93	673.08
536.29	681.29
536.65	689.02
537.00	696.87
537.36	705.05
537.72	713.09
538.08	721.04
538.44	728.60
538.79	736.56
539.15	744.52
539.51	752.65
539.87	761.14
540.22	769.37
540.58	777.61
540.94	785.60
541.29	793.79
541.65	801.92
542.01	810.27
542.37	818.36
542.72	826.60
543.08	834.36
543.44	842.21
543.79	849.54
544.15	857.34
544.51	865.53
544.87	873.28
545.22	880.89
545.58	888.64
545.94	896.32
546.29	904.02
546.65	912.04
547.01	919.52
547.36	926.95
547.72	934.64
548.07	942.30
548.43	949.59
548.79	956.53
549.14	963.77
549.50	970.70
549.86	977.57
550.21	984.35
550.57	991.69
550.92	998.65
551.28	1005.80
551.64	1012.86
551.99	1019.46
552.35	1026.33
552.70	1033.19
553.06	1040.00
553.41	1046.76
553.77	1053.26
554.13	1059.49
554.48	1065.98
554.84	1072.10
555.19	1078.18
555.55	1084.11
555.90	1090.24
556.26	1096.42
556.61	1102.30
556.97	1108.30
557.32	1114.43
557.68	1120.17
558.03	1125.89
558.39	1131.59
558.74	1137.45
559.10	1142.93
559.45	1148.61
559.81	1154.14
560.16	1159.28
560.52	1164.43
560.87	1170.00
561.23	1174.98
561.58	1179.88
561.94	1184.63
562.29	1189.40
562.64	1193.87
563.00	1198.52
563.35	1203.45
563.71	1208.51
564.06	1213.58
564.42	1218.29
564.77	1222.89
565.12	1227.53
565.48	1231.91
565.83	1235.80
566.19	1239.99
566.54	1244.18
566.89	1248.00
567.25	1251.62
567.60	1255.61
567.96	1259.50
568.31	1262.88
568.66	1266.28
569.02	1270.22
569.37	1273.37
569.72	1276.70
570.08	1279.71
570.43	1282.49
570.78	1285.10
571.14	1287.19
571.49	1289.32
571.84	1292.18
572.20	1294.42
572.55	1296.54
572.90	1298.42
573.26	1300.84
573.61	1302.35
573.96	1303.90
574.31	1305.02
574.67	1306.01
575.02	1307.11
575.37	1308.24
575.72	1309.08
576.08	1310.14
576.43	1310.67
576.78	1311.89
577.13	1312.66
577.49	1313.73
577.84	1314.39
578.19	1315.03
578.54	1315.40
578.90	1315.74
579.25	1315.07
579.60	1315.01
579.95	1314.58
580.30	1314.20
580.66	1313.64
581.01	1313.26
581.36	1312.92
581.71	1312.67
582.06	1312.40
582.42	1311.45
582.77	1310.33
583.12	1309.70
583.47	1309.03
583.82	1308.41
584.17	1307.26
584.53	1306.50
584.88	1305.69
585.23	1304.60
585.58	1303.70
585.93	1302.93
586.28	1302.15
586.63	1301.34
586.98	1300.40
587.34	1299.64
587.69	1298.74
588.04	1297.58
588.39	1296.68
588.74	1294.85
589.09	1292.94
589.44	1291.10
589.79	1289.97
590.14	1288.50
590.49	1286.62
590.84	1284.60
591.19	1282.73
591.54	1280.30
591.89	1277.42
592.25	1275.31
592.60	1272.52
592.95	1269.83
593.30	1267.06
593.65	1263.95
594.00	1261.40
594.35	1258.85
594.70	1255.56
595.05	1252.72
595.40	1249.69
595.75	1246.34
596.10	1243.57
596.45	1241.67
596.80	1239.64
597.15	1236.96
597.50	1234.39
597.85	1231.87
598.19	1229.65
598.54	1226.94
598.89	1224.91
599.24	1223.09
599.59	1219.94
599.94	1217.61
600.29	1215.10
600.64	1212.59
600.99	1209.54
601.34	1206.82
601.69	1203.63
602.04	1200.81
602.39	1198.14
602.74	1195.55
603.08	1193.08
603.43	1190.61
603.78	1187.20
604.13	1183.90
604.48	1180.84
604.83	1178.02
605.18	1174.99
605.53	1171.21
605.87	1167.48
606.22	1163.94
606.57	1160.10
606.92	1156.83
607.27	1154.24
607.62	1150.95
607.96	1147.76
608.31	1144.75
608.66	1140.80
609.01	1136.99
609.36	1133.51
609.70	1129.06
610.05	1124.82
610.40	1120.49
610.75	1116.32
611.10	1112.30
611.44	1107.83
611.79	1103.72
612.14	1099.09
612.49	1094.53
612.83	1090.25
613.18	1086.18
613.53	1081.99
613.88	1077.62
614.22	1073.38
614.57	1068.00
614.92	1063.46
615.27	1059.06
615.61	1054.56
615.96	1050.51
616.31	1046.49
616.65	1042.76
617.00	1038.98
617.35	1034.82
617.70	1030.59
618.04	1026.02
618.39	1022.03
618.74	1017.96
619.08	1013.57
619.43	1009.56
619.78	1005.72
620.12	1001.82
620.47	997.60
620.82	992.93
621.16	988.94
621.51	984.75
621.85	980.69
622.20	976.48
622.55	972.10
622.89	968.06
623.24	963.83
623.59	959.86
623.93	955.45
624.28	951.42
624.62	947.61
624.97	944.04
625.32	940.50
625.66	936.27
626.01	932.66
626.35	928.51
626.70	924.42
627.04	920.45
627.39	916.05
627.73	911.91
628.08	908.29
628.43	903.99
628.77	899.87
629.12	895.67
629.46	891.20
629.81	886.83
630.15	882.54
630.50	878.13
630.84	873.04
631.19	868.69
631.53	864.17
631.88	859.36
632.22	854.50
632.57	850.10
632.91	845.68
633.26	840.93
633.60	836.57
633.95	832.18
634.29	827.70
634.64	823.81
634.98	819.61
635.32	815.49
635.67	811.83
636.01	807.95
636.36	803.78
636.70	800.23
637.05	796.39
637.39	792.41
637.73	788.84
638.08	785.80
638.42	782.06
638.77	778.25
639.11	774.76
639.45	771.03
639.80	767.26
640.14	763.48
640.49	759.71
640.83	755.78
641.17	752.09
641.52	748.19
641.86	744.22
642.20	740.57
642.55	736.63
642.89	732.53
643.23	728.48
643.58	725.21
643.92	721.19
644.26	717.42
644.61	713.91
644.95	709.90
645.29	705.72
645.64	701.57
645.98	697.75
646.32	693.80
646.66	689.99
647.01	685.90
647.35	682.44
647.69	678.98
648.04	675.54
648.38	671.56
648.72	667.68
649.06	663.85
649.41	660.10
649.75	656.27
650.09	652.42
650.43	648.76
650.78	644.83
651.12	641.01
651.46	637.14
651.80	633.39
652.14	629.98
652.49	626.44
652.83	623.24
653.17	619.65
653.51	616.05
653.85	612.62
654.20	609.10
654.54	605.04
654.88	601.26
655.22	597.55
655.56	594.05
655.90	590.68
656.25	587.32
656.59	583.97
656.93	580.69
657.27	577.50
657.61	573.97
657.95	570.92
658.29	567.77
658.64	564.75
658.98	561.26
659.32	557.72
659.66	554.50
660.00	550.86
660.34	547.70
660.68	544.54
661.02	541.30
661.36	538.47
661.70	535.67
662.05	532.70
662.39	529.85
662.73	527.21
663.07	524.53
663.41	521.70
663.75	518.76
664.09	516.00
664.43	513.20
664.77	510.71
665.11	507.74
665.45	505.03
665.79	502.26
666.13	499.65
666.47	497.01
666.81	494.30
667.15	491.85
667.49	489.24
667.83	487.01
668.17	484.49
668.51	481.88
668.85	479.29
669.19	476.99
669.53	474.48
669.87	471.88
670.21	469.54
670.55	467.30
670.89	465.08
671.23	462.80
671.57	460.57
671.91	458.15
672.25	456.09
672.58	453.89
672.92	451.70
673.26	449.69
673.60	447.83
673.94	445.80
674.28	443.74
674.62	441.89
674.96	439.68
675.30	437.78
675.64	435.86
675.97	434.00
676.31	431.94
676.65	430.22
676.99	428.49
677.33	426.62
677.67	424.78
678.01	422.77
678.34	420.68
678.68	418.79
679.02	416.77
679.36	414.82
679.70	412.86
680.04	411.01
680.37	409.12
680.71	407.19
681.05	405.45
681.39	403.90
681.73	402.04
682.06	400.40
682.40	398.72
682.74	397.06
683.08	395.35
683.42	393.70
683.75	392.10
684.09	390.32
684.43	388.44
684.77	386.66
685.10	385.03
685.44	383.53
685.78	381.91
686.12	380.56
686.45	378.81
686.79	377.44
687.13	376.02
687.46	374.49
687.80	372.98
688.14	371.41
688.48	369.67
688.81	368.04
689.15	366.64
689.49	365.10
689.82	363.52
690.16	362.00
690.50	360.44
690.83	358.75
691.17	357.22
691.51	355.78
691.84	354.50
692.18	353.16
692.52	351.73
692.85	350.30
693.19	348.81
693.52	347.49
693.86	346.01
694.20	344.49
694.53	343.20
694.87	341.70
695.21	340.35
695.54	339.21
695.88	338.01
696.21	336.62
696.55	335.40
696.88	334.14
697.22	332.86
697.56	331.59
697.89	330.41
698.23	329.29
698.56	328.19
698.90	327.01
699.23	325.62
699.57	324.38
699.90	323.25
700.24	322.14
700.58	321.16
700.91	320.06
701.25	319.11
701.58	318.08
701.92	317.16
702.25	316.20
702.59	315.10
702.92	314.16
703.26	313.21
703.59	312.19
703.93	311.39
704.26	310.53
704.60	309.76
704.93	308.91
705.26	307.84
705.60	307.08
705.93	306.11
706.27	305.53
706.60	304.84
706.94	303.96
707.27	303.22
707.61	302.35
707.94	301.54
708.27	300.78
708.61	299.86
708.94	299.10
709.28	298.31
709.61	297.59
709.94	296.80
710.28	296.06
710.61	295.37
710.95	294.46
711.28	293.73
711.61	293.05
711.95	292.25
712.28	291.66
712.61	290.77
712.95	290.15
713.28	289.44
713.61	288.76
713.95	288.07
714.28	287.43
714.61	286.74
714.95	286.10
715.28	285.39
715.61	284.84
715.95	284.33
716.28	283.76
716.61	283.16
716.95	282.52
717.28	281.89
717.61	281.33
717.94	280.80
718.28	280.18
718.61	279.56
718.94	279.06
719.27	278.58
719.61	278.10
719.94	277.47
720.27	276.84
720.60	276.27
720.94	275.92
721.27	275.42
721.60	274.85
721.93	274.33
722.27	273.89
722.60	273.46
722.93	272.83
723.26	272.31
723.59	271.81
723.93	271.43
724.26	271.00
724.59	270.56
724.92	270.11
725.25	269.87
725.59	269.37
725.92	269.00
726.25	268.35
726.58	267.84
726.91	267.59
727.24	267.23
727.57	266.91
727.91	266.32
728.24	265.90
728.57	265.65
728.90	265.33
729.23	264.90
729.56	264.58
729.89	264.19
730.22	263.76
730.55	263.37
730.89	263.01
731.22	262.56
731.55	262.07
731.88	261.62
732.21	261.21
732.54	260.81
732.87	260.35
733.20	260.11
733.53	259.85
733.86	259.43
734.19	259.03
734.52	258.65
734.85	258.54
735.18	258.21
735.51	257.93
735.84	257.54
736.17	257.22
736.50	256.67
736.83	256.67
737.16	256.40
737.49	256.01
737.82	255.60
738.15	255.40
738.48	255.20
738.81	254.99
739.14	254.69
739.47	254.49
739.80	254.24
740.13	253.98
740.46	253.62
740.79	253.23
741.12	252.89
741.45	252.61
741.78	252.20
742.11	251.89
742.44	251.47
742.77	251.28
743.10	251.03
743.43	250.83
743.75	250.30
744.08	250.30
744.41	250.19
744.74	249.89
745.07	249.52
745.40	249.31
745.73	249.10
746.06	248.73
746.39	248.54
746.71	248.28
747.04	248.05
747.37	247.82
747.70	247.70
748.03	247.56
748.36	247.48
748.68	247.24
749.01	247.03
749.34	246.92
749.67	246.65
750.00	246.51
750.33	246.49
750.65	246.35
750.98	245.89
751.31	245.67
751.64	245.57
751.97	245.58
752.29	245.27
752.62	244.99
752.95	244.87
753.28	244.64
753.60	244.41
753.93	244.29
754.26	244.09
754.59	243.85
754.91	243.73
755.24	243.33
755.57	243.24
755.90	243.06
756.22	242.87
756.55	242.81
756.88	242.51
757.20	242.23
757.53	241.97
757.86	241.79
758.19	241.71
758.51	241.51
758.84	241.23
759.17	241.18
759.49	241.15
759.82	241.12
760.15	240.98
760.47	240.90
760.80	240.68
761.13	240.63
761.45	240.50
761.78	240.36
762.11	240.40
762.43	240.19
762.76	240.16
763.08	240.01
763.41	239.84
763.74	239.76
764.06	239.60
764.39	239.49
764.71	239.40
765.04	239.16
765.37	239.07
765.69	238.97
766.02	238.76
766.34	238.57
766.67	238.29
767.00	238.21
767.32	238.19
767.65	238.22
767.97	238.08
768.30	237.98
768.62	237.77
768.95	237.61
769.27	237.53
769.60	237.37
769.92	237.27
770.25	237.12
770.57	236.96
770.90	236.95
771.22	236.85
771.55	236.74
771.87	236.65
772.20	236.56
772.52	236.59
772.85	236.79
773.17	236.63
773.50	236.50
773.82	236.37
774.15	236.25
774.47	236.02
774.80	235.91
775.12	235.81
775.45	235.87
775.77	235.66
776.09	235.62
776.42	235.55
776.74	235.58
777.07	235.58
777.39	235.51
777.72	235.33
778.04	235.30
778.36	235.21
778.69	235.22
779.01	235.19
779.33	235.07
779.66	234.70
779.98	234.64
780.31	234.75
780.63	234.88
780.95	234.80
781.28	234.73
781.60	234.67
781.92	234.59
782.25	234.33
782.57	234.36
782.89	234.19
783.22	234.15
783.54	233.91
783.86	233.73
784.19	233.70
784.51	233.72
784.83	233.65
785.16	233.55
785.48	233.36
785.80	233.37
786.12	233.27
786.45	233.27
786.77	233.26
787.09	233.16
787.42	232.98
787.74	232.88
788.06	232.84
788.38	232.75
788.71	232.70
789.03	232.74
789.35	232.79
789.67	232.76
789.99	232.73
790.32	232.65
790.64	232.59
790.96	232.66
791.28	232.53
791.61	232.48
791.93	232.51
792.25	232.56
792.57	232.58
792.89	232.45
793.21	232.47
793.54	232.52
793.86	232.43
794.18	232.39
794.50	232.41
794.82	232.40
795.14	232.45
795.47	232.48
795.79	232.53
796.11	232.43
796.43	232.42
796.75	232.40
797.07	232.50
797.39	232.61
797.71	232.53
798.04	232.56
798.36	232.46
798.68	232.43
799.00	232.44
799.32	232.43
799.64	232.51
799.96	232.48
800.28	232.40
800.60	232.36
800.92	232.35
801.24	232.22
801.56	232.24
801.89	232.21
802.21	232.18
802.53	232.19
802.85	232.22
803.17	232.27
803.49	232.19
803.81	232.20
804.13	232.05
804.45	232.01
804.77	232.00
805.09	232.01
805.41	232.02
805.73	231.91
806.05	231.63
806.37	231.56
806.69	231.45
807.01	231.40
807.33	231.38
807.65	231.29
807.97	231.42
808.28	231.31
808.60	231.27
808.92	231.30
809.24	231.28
809.56	231.27
809.88	231.16
810.20	231.10
810.52	231.02
810.84	231.03
811.16	231.00
811.48	231.00
811.80	231.08
812.12	230.96
812.43	231.10
812.75	231.16
813.07	231.07
813.39	231.07
813.71	231.02
814.03	230.93
814.35	230.95
814.67	230.84
814.98	230.88
815.30	230.81
815.62	230.74
815.94	230.53
816.26	230.46
816.58	230.47
816.89	230.50
817.21	230.42
817.53	230.51
817.85	230.45
818.17	230.36
818.48	230.24
818.80	230.25
819.12	230.14
819.44	230.15
819.76	230.21
820.07	230.17
820.39	230.05
820.71	230.06
821.03	229.96
821.34	229.88
821.66	229.75
821.98	229.80
822.30	229.60
822.61	229.81
822.93	229.79
823.25	229.74
823.57	229.61
823.88	229.70
824.20	229.59
824.52	229.61
824.83	229.53
825.15	229.53
825.47	229.52
825.79	229.48
826.10	229.42
826.42	229.35
826.74	229.33
827.05	229.34
827.37	229.33
827.69	229.38
828.00	229.42
828.32	229.53
828.64	229.40
828.95	229.62
829.27	229.45
829.58	229.37
829.90	229.39
830.22	229.47
830.53	229.26
830.85	229.23
831.17	229.18
831.48	229.26
831.80	229.27
832.11	229.34
832.43	229.27
832.75	229.30
833.06	229.35
833.38	229.41
833.69	229.49
834.01	229.52
834.32	229.49
834.64	229.45
834.96	229.32
835.27	229.43
835.59	229.46
835.90	229.41
836.22	229.50
836.53	229.42
836.85	229.44
837.16	229.78
837.48	229.75
837.79	229.80
838.11	229.70
838.42	229.70
838.74	229.65
839.05	229.63
839.37	229.57
839.68	229.49
840.00	229.41
840.31	229.40
840.63	229.40
840.94	229.38
841.26	229.37
841.57	229.47
841.88	229.46
842.20	229.25
842.51	229.24
842.83	229.03
843.14	229.31
843.46	229.20
843.77	229.07
844.08	229.09
844.40	229.04
844.71	229.06
845.03	229.06
845.34	229.10
845.65	229.16
845.97	229.18
846.28	229.24
846.60	229.29
846.91	229.28
847.22	229.26
847.54	229.29
847.85	229.24
848.16	229.24
848.48	229.15
848.79	229.21
849.10	229.16
849.42	229.26
849.73	229.07
850.04	229.06
850.36	228.93
850.67	228.97
850.98	229.00
851.30	229.00
851.61	228.94
851.92	228.91
852.23	228.94
852.55	229.00
852.86	228.96
853.17	228.92
853.49	228.98
853.80	228.96
854.11	228.95
854.42	229.03
854.74	228.95
855.05	228.95
855.36	228.96
855.67	229.11
855.99	229.14
856.30	229.26
856.61	229.20
856.92	229.27
857.23	229.18
857.55	229.12
857.86	229.03
858.17	229.03
858.48	228.88
858.79	228.76
859.11	228.70
859.42	228.67
859.73	228.67
860.04	228.50
860.35	228.51
860.66	228.40
860.98	228.37
861.29	228.34
861.60	228.29
861.91	228.21
862.22	228.15
862.53	228.14
862.84	227.96
863.16	228.11
863.47	227.99
863.78	228.02
864.09	228.07
864.40	228.20
864.71	228.18
865.02	228.24
865.33	228.25
865.64	228.24
865.95	228.17
866.27	228.27
866.58	228.26
866.89	228.27
867.20	228.32
867.51	228.24
867.82	228.17
868.13	228.20
868.44	228.28
868.75	228.28
869.06	228.30
869.37	228.28
869.68	228.11
869.99	228.24
870.30	228.25
870.61	228.16
870.92	228.11
871.23	228.09
871.54	228.12
871.85	228.19
872.16	228.29
872.47	228.32
872.78	228.22
873.09	228.30
873.40	228.11
873.71	228.15
874.02	228.18
874.33	228.18
874.64	228.19
874.95	228.11
875.26	228.07
875.56	228.07
875.87	228.11
876.18	228.17
876.49	228.32
876.80	228.20
877.11	228.13
877.42	228.09
877.73	228.10
878.04	228.10
878.35	228.07
878.66	227.94
878.96	228.04
879.27	228.06
879.58	228.09
879.89	228.22
880.20	228.36
880.51	228.41
880.82	228.53
881.12	228.62
881.43	228.62
881.74	228.53
882.05	228.47
882.36	228.43
882.67	228.41
882.97	228.20
883.28	228.33
883.59	228.44
883.90	228.45
884.21	228.54
884.51	228.59
884.82	228.70
885.13	228.86
885.44	228.78
885.74	228.78
886.05	228.73
886.36	228.88
886.67	228.70
886.98	228.80
887.28	228.79
887.59	228.81
887.90	228.89
888.20	228.90
888.51	229.04
888.82	229.03
889.13	229.16
889.43	229.36
889.74	229.33
890.05	229.32
890.35	229.35
890.66	229.32
890.97	229.25
891.28	229.17
891.58	229.13
891.89	229.13
892.20	229.13
892.50	229.20
892.81	229.05
893.12	229.07
893.42	228.98
893.73	229.00
894.04	228.97
894.34	228.97
894.65	228.99
894.95	228.85
895.26	228.86
895.57	228.90
895.87	228.66
896.18	228.71
896.48	228.69
896.79	228.67
897.10	228.59
897.40	228.54
897.71	228.50
898.01	228.42
898.32	228.41
898.63	228.34
898.93	228.33
899.24	228.31
899.54	228.30
899.85	228.18
900.15	228.12
900.46	228.03
900.76	228.03
901.07	228.09
901.38	228.15
901.68	228.13
901.99	228.00
902.29	227.99
902.60	227.85
902.90	227.81
903.21	227.80
903.51	227.86
903.82	227.95
904.12	227.96
904.43	227.94
904.73	227.94
905.03	227.94
905.34	228.05
905.64	227.93
905.95	227.94
906.25	227.98
906.56	228.02
906.86	228.00
907.17	227.96
907.47	227.93
907.77	227.89
908.08	227.91
908.38	227.94
908.69	228.00
908.99	228.07
909.30	228.03
909.60	228.02
909.90	228.02
910.21	227.89
910.51	227.69
910.81	227.77
911.12	227.76
911.42	227.76
911.73	227.61
912.03	227.76
912.33	227.75
912.64	227.74
912.94	227.58
913.24	227.53
913.55	227.53
913.85	227.51
914.15	227.55
914.46	227.52
914.76	227.55
915.06	227.54
915.37	227.59
915.67	227.69
915.97	227.67
916.27	227.56
916.58	227.66
916.88	227.79
917.18	227.70
917.49	227.78
917.79	227.80
918.09	227.83
918.39	227.92
918.70	227.96
919.00	228.00
919.30	228.24
919.60	228.34
919.91	228.36
920.21	228.37
920.51	228.25
920.81	228.29
921.12	228.24
921.42	228.16
921.72	228.08
922.02	228.00
922.32	228.12
922.63	228.20
922.93	228.38
923.23	228.49
923.53	228.52
923.83	228.48
924.13	228.44
924.44	228.51
924.74	228.45
925.04	228.52
925.34	228.49
925.64	228.41
925.94	228.44
926.24	228.53
926.55	228.52
926.85	228.64
927.15	228.64
927.45	228.74
927.75	228.80
928.05	228.90
928.35	228.96
928.65	228.95
928.95	229.06
929.26	228.91
929.56	228.89
929.86	228.90
930.16	228.93
930.46	228.98
930.76	228.98
931.06	229.00
931.36	228.94
931.66	229.10
931.96	229.08
932.26	229.08
932.56	228.91
932.86	229.00
933.16	228.98
933.46	228.99
933.76	228.85
934.06	228.94
934.36	229.03
934.66	228.92
934.96	228.94
935.26	228.87
935.56	228.88
935.86	228.76
936.16	228.68
936.46	228.65
936.76	228.61
937.06	228.56
937.36	228.49
937.66	228.49
937.96	228.47
938.26	228.48
938.56	228.34
938.86	228.41
939.16	228.46
939.46	228.41
939.76	228.46
940.06	228.46
940.35	228.46
940.65	228.30
940.95	228.30
941.25	228.27
941.55	228.26
941.85	228.24
942.15	228.38
942.45	228.40
942.75	228.35
943.04	228.34
943.34	228.31
943.64	228.29
943.94	228.27
944.24	228.08
944.54	228.03
944.84	228.12
945.13	228.13
945.43	228.11
945.73	228.17
946.03	228.02
946.33	228.11
946.62	228.05
946.92	228.07
947.22	228.14
947.52	228.16
947.82	228.09
948.11	228.11
948.41	228.07
948.71	228.05
949.01	228.14
949.31	228.08
949.60	228.05
949.90	228.07
950.20	228.03
950.50	228.20
950.79	228.16
951.09	228.14
951.39	228.14
951.69	228.06
951.98	228.02
952.28	228.13
952.58	228.03
952.87	227.99
953.17	227.96
953.47	227.96
953.76	227.90
954.06	227.92
954.36	227.90
954.66	227.86
954.95	227.90
955.25	227.90
955.55	227.96
955.84	227.97
956.14	227.94
956.44	227.98
956.73	227.84
957.03	227.91
957.32	227.91
957.62	227.90
957.92	228.00
958.21	228.05
958.51	228.30
958.81	228.35
959.10	228.31
959.40	228.40
959.69	228.40
959.99	228.47
960.29	228.47
960.58	228.38
960.88	228.49
961.17	228.54
961.47	228.45
961.76	228.43
962.06	228.51
962.36	228.58
962.65	228.55
962.95	228.69
963.24	228.64
963.54	228.68
963.83	228.76
964.13	228.67
964.42	228.67
964.72	228.36
965.01	228.41
965.31	228.46
965.60	228.42
965.90	228.57
966.19	228.46
966.49	228.47
966.78	228.50
967.08	228.55
967.37	228.62
967.67	228.71
967.96	228.70
968.26	228.59
968.55	228.64
968.85	228.67
969.14	228.59
969.43	228.75
969.73	228.76
970.02	228.64
970.32	228.64
970.61	228.58
970.91	228.56
971.20	228.58
971.49	228.65
971.79	228.69
972.08	228.56
972.38	228.60
972.67	228.62
972.96	228.67
973.26	228.58
973.55	228.61
973.85	228.53
974.14	228.56
974.43	228.64
974.73	228.58
975.02	228.55
975.31	228.46
975.61	228.26
975.90	228.23
976.19	228.32
976.49	228.44
976.78	228.48
977.07	228.44
977.37	228.37
977.66	228.39
977.95	228.28
978.24	228.23
978.54	228.30
978.83	228.27
979.12	228.18
979.42	228.17
979.71	228.07
980.00	228.00
980.29	227.96
980.59	227.79
980.88	227.87
981.17	227.80
981.46	227.95
981.76	227.98
982.05	227.99
982.34	227.89
982.63	227.69
982.93	227.56
983.22	227.62
983.51	227.54
983.80	227.44
984.09	227.46
984.39	227.45
984.68	227.41
984.97	227.30
985.26	227.30
985.55	227.23
985.85	227.11
986.14	227.13
986.43	227.18
986.72	227.31
987.01	227.21
987.30	227.24
987.59	227.19
987.89	227.11
988.18	227.08
988.47	227.08
988.76	227.17
989.05	227.14
989.34	227.14
989.63	227.20
989.92	227.16
990.22	227.08
990.51	227.11
990.80	227.06
991.09	227.08
991.38	227.07
991.67	227.13
991.96	227.10
992.25	227.09
992.54	227.13
992.83	227.07
993.12	227.00
993.41	227.00
993.70	227.00
993.99	227.12
994.28	227.27
994.58	227.27
994.87	227.20
995.16	227.30
995.45	227.22
995.74	227.26
996.03	227.29
996.32	227.30
996.61	227.42
996.90	227.39
997.19	227.53
997.48	227.64
997.77	227.57
998.06	227.70
998.34	227.79
998.63	227.70
998.92	227.82
999.21	227.99
999.50	228.02
999.79	228.02
1000.08	228.01
1000.37	227.91
1000.66	227.97
1000.95	228.02
1001.24	228.10
1001.53	228.12
1001.82	228.17
1002.11	228.21
1002.40	228.31
1002.68	228.27
1002.97	228.49
1003.26	228.41
1003.55	228.32
1003.84	228.32
1004.13	228.31
1004.42	228.34
1004.71	228.44
1004.99	228.41
1005.28	228.39
1005.57	228.42
1005.86	228.43
1006.15	228.48
1006.44	228.40
1006.72	228.50
1007.01	228.52
1007.30	228.52
1007.59	228.58
1007.88	228.47
1008.17	228.52
1008.45	228.44
1008.74	228.37
1009.03	228.35
1009.32	228.27
1009.60	228.34
1009.89	228.49
1010.18	228.49
1010.47	228.44
1010.76	228.42
1011.04	228.38
1011.33	228.42
1011.62	228.40
1011.91	228.44
1012.19	228.41
1012.48	228.44
1012.77	228.34
1013.05	228.51
1013.34	228.46
1013.63	228.36
1013.92	228.54
1014.20	228.47
1014.49	228.49
1014.78	228.49
1015.06	228.40
1015.35	228.46
1015.64	228.40
1015.92	228.35
1016.21	228.35
1016.50	228.35
1016.78	228.32
1017.07	228.33
1017.36	228.25
1017.64	228.19
1017.93	228.14
1018.22	228.10
1018.50	228.10
1018.79	228.06
1019.08	227.75
1019.36	227.76
1019.65	227.83
1019.93	227.70
1020.22	227.60
1020.51	227.73
1020.79	227.75
1021.08	227.50
1021.36	227.40
1021.65	227.40
1021.94	225.60
1022.22	228.00
1022.51	227.40
1022.79	227.70
1023.08	225.90
1023.36	230.00
1023.65	228.10
>>>>>End Processed Spectral Data<<<<<
