SpectraSuite Data File
++++++++++++++++++++++++++++++++++++
Date: Fri Feb 01 14:41:35 EST 2013
User: group
Dark Spectrum Present: No
Reference Spectrum Present: No
Number of Sampled Component Spectra: 1
Spectrometers: USB2E7196
Integration Time (usec): 70000 (USB2E7196)
Spectra Averaged: 10 (USB2E7196)
Boxcar Smoothing: 10 (USB2E7196)
Correct for Electrical Dark: No (USB2E7196)
Strobe/Lamp Enabled: No (USB2E7196)
Correct for Detector Non-linearity: No (USB2E7196)
Correct for Stray Light: No (USB2E7196)
Number of Pixels in Processed Spectrum: 2048
>>>>>Begin Processed Spectral Data<<<<<
339.09	0.00
339.48	215.90
339.86	218.00
340.24	218.40
340.63	219.60
341.01	224.40
341.39	224.30
341.78	222.70
342.16	226.40
342.54	226.80
342.93	214.80
343.31	225.63
343.69	226.27
344.07	226.68
344.46	227.30
344.84	227.74
345.22	227.90
345.60	228.06
345.99	228.40
346.37	228.52
346.75	228.60
347.13	228.63
347.52	228.73
347.90	228.91
348.28	229.02
348.66	229.17
349.05	229.04
349.43	229.13
349.81	229.18
350.19	229.30
350.57	229.30
350.96	229.42
351.34	229.47
351.72	229.58
352.10	229.70
352.48	229.59
352.87	229.72
353.25	229.85
353.63	229.93
354.01	230.02
354.39	230.12
354.77	230.21
355.15	230.38
355.54	230.47
355.92	230.50
356.30	230.52
356.68	230.64
357.06	230.81
357.44	230.69
357.82	230.67
358.20	230.73
358.58	230.80
358.97	230.90
359.35	231.03
359.73	231.01
360.11	231.05
360.49	231.10
360.87	231.07
361.25	231.17
361.63	231.28
362.01	231.25
362.39	231.28
362.77	231.32
363.15	231.31
363.53	231.37
363.91	231.29
364.29	231.26
364.67	231.08
365.05	231.13
365.43	231.27
365.81	231.27
366.19	231.30
366.57	231.26
366.95	231.16
367.33	231.10
367.71	231.05
368.09	231.05
368.47	231.08
368.85	231.14
369.23	231.04
369.61	230.98
369.99	230.96
370.37	230.92
370.75	230.97
371.13	230.89
371.51	230.75
371.89	230.76
372.27	230.66
372.65	230.61
373.03	230.54
373.41	230.35
373.78	230.30
374.16	230.08
374.54	229.83
374.92	229.81
375.30	229.76
375.68	229.70
376.06	229.71
376.44	229.62
376.82	229.44
377.19	229.41
377.57	229.25
377.95	229.10
378.33	228.96
378.71	228.73
379.09	228.62
379.47	228.57
379.84	228.44
380.22	228.40
380.60	228.25
380.98	228.11
381.36	228.06
381.73	227.99
382.11	228.00
382.49	228.11
382.87	228.03
383.25	227.93
383.62	228.06
384.00	227.93
384.38	227.86
384.76	227.85
385.13	227.78
385.51	227.66
385.89	227.66
386.27	227.59
386.64	227.68
387.02	227.71
387.40	227.60
387.78	227.66
388.15	227.62
388.53	227.67
388.91	227.73
389.29	227.75
389.66	227.73
390.04	227.72
390.42	227.72
390.79	227.68
391.17	227.68
391.55	227.52
391.92	227.50
392.30	227.53
392.68	227.50
393.05	227.52
393.43	227.76
393.81	227.74
394.18	227.78
394.56	227.81
394.94	227.80
395.31	227.91
395.69	228.12
396.06	228.24
396.44	228.41
396.82	228.50
397.19	228.58
397.57	228.66
397.95	228.66
398.32	228.71
398.70	228.84
399.07	228.99
399.45	229.08
399.82	229.20
400.20	229.29
400.58	229.40
400.95	229.40
401.33	229.46
401.70	229.75
402.08	229.96
402.45	229.94
402.83	230.15
403.20	230.32
403.58	230.30
403.95	230.43
404.33	230.48
404.71	230.64
405.08	230.92
405.46	231.15
405.83	231.35
406.21	231.57
406.58	231.78
406.96	231.90
407.33	232.11
407.70	232.39
408.08	232.87
408.45	233.12
408.83	233.53
409.20	233.80
409.58	233.94
409.95	234.29
410.33	234.78
410.70	235.13
411.08	235.53
411.45	236.07
411.82	236.44
412.20	236.96
412.57	237.41
412.95	237.77
413.32	238.26
413.69	238.80
414.07	239.32
414.44	239.93
414.82	240.63
415.19	241.37
415.56	242.13
415.94	242.62
416.31	243.53
416.68	244.40
417.06	245.34
417.43	246.34
417.81	247.37
418.18	248.20
418.55	249.29
418.93	250.32
419.30	251.34
419.67	252.58
420.04	253.76
420.42	255.00
420.79	256.70
421.16	258.16
421.54	259.77
421.91	261.30
422.28	262.95
422.66	264.73
423.03	266.47
423.40	268.11
423.77	270.01
424.15	271.77
424.52	273.63
424.89	275.81
425.26	277.80
425.64	279.59
426.01	281.79
426.38	283.93
426.75	286.23
427.13	288.50
427.50	290.84
427.87	293.33
428.24	295.79
428.61	297.97
428.99	300.60
429.36	303.27
429.73	306.04
430.10	308.56
430.47	311.25
430.85	314.08
431.22	317.11
431.59	320.26
431.96	323.38
432.33	326.68
432.70	329.77
433.08	333.43
433.45	336.92
433.82	340.36
434.19	344.13
434.56	347.77
434.93	351.22
435.30	354.66
435.68	358.48
436.05	362.20
436.42	365.88
436.79	369.20
437.16	372.91
437.53	376.72
437.90	380.57
438.27	384.11
438.64	387.70
439.01	391.00
439.38	394.10
439.75	396.91
440.13	400.03
440.50	403.02
440.87	405.33
441.24	407.92
441.61	410.69
441.98	412.69
442.35	415.00
442.72	417.54
443.09	419.90
443.46	421.27
443.83	422.09
444.20	422.66
444.57	423.55
444.94	423.88
445.31	424.18
445.68	424.57
446.05	424.66
446.42	424.16
446.79	423.62
447.16	422.64
447.53	422.23
447.90	420.85
448.27	419.32
448.64	417.29
449.01	415.84
449.37	413.31
449.74	410.74
450.11	407.69
450.48	404.23
450.85	400.95
451.22	398.02
451.59	395.40
451.96	392.89
452.33	389.60
452.70	386.30
453.07	382.61
453.43	378.65
453.80	374.99
454.17	371.44
454.54	368.16
454.91	364.77
455.28	361.18
455.65	357.83
456.02	354.61
456.38	351.76
456.75	348.02
457.12	344.96
457.49	341.98
457.86	339.16
458.23	336.74
458.59	334.00
458.96	331.17
459.33	328.58
459.70	326.03
460.07	324.02
460.43	321.71
460.80	319.48
461.17	317.66
461.54	315.80
461.91	313.81
462.27	311.80
462.64	310.10
463.01	308.29
463.38	306.45
463.74	304.45
464.11	302.84
464.48	301.42
464.85	300.02
465.21	298.80
465.58	297.64
465.95	296.18
466.32	294.95
466.68	293.63
467.05	292.40
467.42	291.20
467.78	289.92
468.15	288.90
468.52	287.99
468.88	286.79
469.25	285.56
469.62	284.66
469.98	283.71
470.35	282.75
470.72	281.88
471.08	280.99
471.45	280.38
471.82	279.70
472.18	279.03
472.55	278.30
472.92	277.71
473.28	276.95
473.65	276.24
474.02	275.57
474.38	275.04
474.75	274.53
475.11	273.95
475.48	273.53
475.85	273.00
476.21	272.51
476.58	272.21
476.94	271.86
477.31	271.66
477.67	271.27
478.04	271.10
478.41	270.73
478.77	270.79
479.14	270.52
479.50	270.37
479.87	270.30
480.23	270.13
480.60	269.91
480.96	269.88
481.33	270.04
481.69	269.99
482.06	270.06
482.42	270.22
482.79	270.37
483.15	270.54
483.52	270.86
483.88	271.20
484.25	271.41
484.61	271.77
484.98	272.03
485.34	272.58
485.71	273.12
486.07	273.70
486.44	274.00
486.80	274.50
487.17	275.13
487.53	275.89
487.90	276.61
488.26	277.60
488.62	278.62
488.99	279.54
489.35	280.69
489.72	281.80
490.08	283.00
490.44	284.22
490.81	285.54
491.17	286.85
491.54	288.41
491.90	290.02
492.26	291.74
492.63	293.50
492.99	295.38
493.36	297.27
493.72	299.35
494.08	301.55
494.45	303.98
494.81	306.38
495.17	308.85
495.54	311.72
495.90	314.49
496.26	317.33
496.63	320.31
496.99	323.33
497.35	326.80
497.72	330.25
498.08	334.10
498.44	337.92
498.80	342.03
499.17	346.13
499.53	350.43
499.89	354.94
500.26	359.70
500.62	364.58
500.98	369.89
501.34	375.29
501.71	381.00
502.07	386.82
502.43	392.88
502.79	399.12
503.16	405.74
503.52	412.58
503.88	419.61
504.24	426.97
504.60	434.61
504.97	442.51
505.33	450.53
505.69	459.08
506.05	467.71
506.41	476.50
506.78	485.70
507.14	495.11
507.50	504.87
507.86	515.08
508.22	525.59
508.59	536.12
508.95	547.00
509.31	558.06
509.67	569.53
510.03	581.52
510.39	593.84
510.75	606.07
511.12	618.70
511.48	631.50
511.84	644.69
512.20	658.29
512.56	672.20
512.92	686.50
513.28	700.87
513.64	715.40
514.00	730.42
514.37	745.92
514.73	761.53
515.09	776.96
515.45	792.89
515.81	808.96
516.17	825.47
516.53	842.50
516.89	859.84
517.25	877.04
517.61	894.35
517.97	911.75
518.33	929.31
518.69	947.20
519.05	965.67
519.41	984.49
519.77	1003.46
520.13	1022.66
520.49	1041.78
520.85	1061.19
521.21	1080.70
521.57	1100.74
521.93	1119.80
522.29	1140.38
522.65	1160.70
523.01	1180.57
523.37	1200.55
523.73	1220.90
524.09	1240.94
524.45	1261.56
524.81	1282.43
525.17	1303.15
525.53	1324.32
525.89	1345.74
526.25	1367.16
526.61	1388.23
526.97	1409.43
527.33	1430.57
527.68	1451.63
528.04	1472.86
528.40	1494.00
528.76	1516.07
529.12	1537.66
529.48	1560.13
529.84	1580.49
530.20	1602.73
530.56	1625.24
530.91	1647.80
531.27	1670.08
531.63	1692.04
531.99	1713.64
532.35	1734.80
532.71	1755.82
533.07	1777.11
533.42	1798.40
533.78	1819.52
534.14	1840.58
534.50	1860.70
534.86	1881.47
535.21	1901.14
535.57	1922.08
535.93	1942.61
536.29	1962.39
536.65	1982.11
537.00	2001.37
537.36	2022.33
537.72	2041.33
538.08	2060.44
538.44	2079.12
538.79	2097.66
539.15	2116.08
539.51	2134.70
539.87	2153.86
540.22	2173.34
540.58	2192.57
540.94	2210.13
541.29	2227.64
541.65	2245.28
542.01	2263.40
542.37	2281.22
542.72	2298.96
543.08	2315.56
543.44	2332.38
543.79	2347.63
544.15	2363.71
544.51	2380.61
544.87	2395.62
545.22	2410.91
545.58	2426.26
545.94	2440.30
546.29	2454.51
546.65	2468.56
547.01	2482.13
547.36	2495.15
547.72	2507.48
548.07	2519.36
548.43	2532.22
548.79	2544.27
549.14	2556.04
549.50	2567.46
549.86	2577.76
550.21	2588.66
550.57	2599.47
550.92	2609.86
551.28	2621.12
551.64	2630.83
551.99	2640.20
552.35	2649.71
552.70	2659.39
553.06	2668.51
553.41	2678.71
553.77	2687.88
554.13	2697.25
554.48	2706.80
554.84	2715.42
555.19	2723.95
555.55	2732.17
555.90	2739.93
556.26	2747.75
556.61	2755.63
556.97	2762.65
557.32	2770.35
557.68	2777.61
558.03	2784.76
558.39	2791.59
558.74	2799.06
559.10	2806.42
559.45	2812.71
559.81	2820.48
560.16	2825.90
560.52	2831.23
560.87	2837.50
561.23	2842.73
561.58	2847.89
561.94	2852.13
562.29	2856.15
562.64	2860.29
563.00	2864.31
563.35	2869.52
563.71	2874.69
564.06	2879.40
564.42	2884.02
564.77	2888.38
565.12	2892.75
565.48	2896.85
565.83	2899.69
566.19	2902.61
566.54	2904.88
566.89	2906.94
567.25	2908.19
567.60	2911.32
567.96	2913.67
568.31	2914.61
568.66	2916.21
569.02	2917.77
569.37	2918.89
569.72	2920.56
570.08	2921.40
570.43	2922.26
570.78	2921.34
571.14	2920.10
571.49	2919.34
571.84	2919.73
572.20	2918.56
572.55	2916.70
572.90	2914.18
573.26	2912.82
573.61	2911.24
573.96	2908.91
574.31	2906.00
574.67	2902.46
575.02	2898.85
575.37	2895.73
575.72	2891.71
576.08	2888.00
576.43	2883.61
576.78	2879.82
577.13	2876.28
577.49	2872.79
577.84	2868.38
578.19	2864.56
578.54	2859.69
578.90	2854.53
579.25	2848.02
579.60	2842.11
579.95	2836.23
580.30	2830.57
580.66	2824.09
581.01	2817.07
581.36	2811.69
581.71	2806.93
582.06	2801.47
582.42	2795.02
582.77	2788.09
583.12	2781.71
583.47	2775.88
583.82	2770.94
584.17	2763.80
584.53	2756.60
584.88	2749.94
585.23	2742.67
585.58	2736.18
585.93	2730.11
586.28	2723.99
586.63	2717.95
586.98	2711.69
587.34	2705.72
587.69	2699.38
588.04	2693.38
588.39	2687.28
588.74	2678.94
589.09	2670.67
589.44	2662.33
589.79	2655.63
590.14	2649.27
590.49	2642.10
590.84	2633.73
591.19	2625.49
591.54	2617.06
591.89	2608.00
592.25	2599.20
592.60	2590.42
592.95	2581.18
593.30	2572.12
593.65	2562.80
594.00	2553.67
594.35	2545.09
594.70	2535.37
595.05	2526.18
595.40	2516.25
595.75	2506.39
596.10	2498.41
596.45	2490.33
596.80	2482.98
597.15	2474.66
597.50	2465.22
597.85	2457.03
598.19	2449.10
598.54	2440.09
598.89	2432.40
599.24	2426.04
599.59	2417.96
599.94	2410.31
600.29	2401.93
600.64	2393.68
600.99	2384.36
601.34	2375.54
601.69	2366.55
602.04	2358.14
602.39	2349.42
602.74	2341.81
603.08	2333.70
603.43	2325.61
603.78	2316.49
604.13	2307.16
604.48	2297.44
604.83	2288.53
605.18	2279.25
605.53	2269.00
605.87	2258.77
606.22	2249.37
606.57	2238.55
606.92	2229.16
607.27	2220.06
607.62	2211.31
607.96	2202.26
608.31	2193.46
608.66	2183.58
609.01	2173.34
609.36	2163.39
609.70	2152.43
610.05	2141.34
610.40	2130.83
610.75	2119.90
611.10	2109.65
611.44	2098.40
611.79	2088.30
612.14	2077.92
612.49	2065.96
612.83	2055.57
613.18	2045.36
613.53	2034.99
613.88	2023.80
614.22	2012.96
614.57	2001.17
614.92	1989.39
615.27	1978.74
615.61	1967.95
615.96	1957.86
616.31	1947.99
616.65	1938.30
617.00	1928.95
617.35	1919.27
617.70	1908.86
618.04	1897.87
618.39	1887.57
618.74	1877.92
619.08	1867.26
619.43	1857.09
619.78	1847.90
620.12	1837.61
620.47	1827.70
620.82	1816.89
621.16	1807.53
621.51	1797.68
621.85	1788.00
622.20	1778.11
622.55	1767.99
622.89	1758.34
623.24	1748.76
623.59	1739.34
623.93	1729.24
624.28	1719.54
624.62	1709.62
624.97	1700.23
625.32	1691.35
625.66	1682.04
626.01	1672.93
626.35	1663.51
626.70	1653.86
627.04	1644.92
627.39	1635.82
627.73	1626.31
628.08	1617.44
628.43	1607.71
628.77	1598.18
629.12	1588.60
629.46	1579.09
629.81	1569.07
630.15	1558.96
630.50	1548.69
630.84	1537.92
631.19	1527.92
631.53	1518.18
631.88	1508.07
632.22	1497.80
632.57	1488.14
632.91	1478.23
633.26	1468.05
633.60	1457.99
633.95	1448.36
634.29	1438.81
634.64	1429.68
634.98	1419.81
635.32	1410.56
635.67	1401.86
636.01	1392.94
636.36	1384.20
636.70	1375.66
637.05	1367.05
637.39	1358.93
637.73	1350.20
638.08	1342.45
638.42	1334.53
638.77	1326.11
639.11	1317.81
639.45	1309.51
639.80	1300.99
640.14	1292.67
640.49	1284.47
640.83	1276.51
641.17	1268.40
641.52	1259.68
641.86	1251.01
642.20	1243.44
642.55	1234.98
642.89	1226.63
643.23	1217.78
643.58	1209.81
643.92	1201.58
644.26	1193.38
644.61	1185.21
644.95	1177.49
645.29	1168.71
645.64	1159.86
645.98	1151.89
646.32	1143.88
646.66	1136.17
647.01	1128.05
647.35	1120.24
647.69	1112.17
648.04	1104.58
648.38	1096.23
648.72	1087.75
649.06	1079.69
649.41	1071.82
649.75	1063.70
650.09	1055.60
650.43	1047.84
650.78	1039.48
651.12	1031.30
651.46	1023.61
651.80	1015.80
652.14	1007.99
652.49	1000.57
652.83	992.95
653.17	984.97
653.51	977.30
653.85	969.68
654.20	962.11
654.54	954.20
654.88	946.76
655.22	938.64
655.56	931.15
655.90	924.40
656.25	917.42
656.59	909.97
656.93	903.20
657.27	896.00
657.61	888.68
657.95	881.97
658.29	875.40
658.64	868.54
658.98	861.62
659.32	854.60
659.66	847.72
660.00	841.33
660.34	834.57
660.68	828.11
661.02	821.34
661.36	814.90
661.70	808.79
662.05	802.70
662.39	797.04
662.73	791.02
663.07	785.03
663.41	779.26
663.75	773.36
664.09	767.40
664.43	761.75
664.77	756.74
665.11	751.32
665.45	745.79
665.79	740.30
666.13	734.60
666.47	729.15
666.81	723.61
667.15	717.88
667.49	712.64
667.83	707.51
668.17	702.47
668.51	697.27
668.85	692.00
669.19	687.05
669.53	681.99
669.87	677.11
670.21	672.44
670.55	667.45
670.89	662.95
671.23	658.35
671.57	653.84
671.91	649.00
672.25	644.27
672.58	639.62
672.92	635.10
673.26	630.86
673.60	626.81
673.94	622.81
674.28	619.00
674.62	615.21
674.96	611.22
675.30	607.25
675.64	603.48
675.97	599.52
676.31	595.62
676.65	591.72
676.99	587.89
677.33	583.86
677.67	580.12
678.01	576.18
678.34	572.50
678.68	568.86
679.02	565.17
679.36	561.72
679.70	558.20
680.04	554.56
680.37	551.16
680.71	547.64
681.05	544.42
681.39	541.02
681.73	537.53
682.06	534.41
682.40	531.19
682.74	527.80
683.08	524.65
683.42	521.21
683.75	518.00
684.09	514.75
684.43	511.52
684.77	508.50
685.10	505.27
685.44	501.94
685.78	498.93
686.12	495.94
686.45	492.74
686.79	489.66
687.13	486.75
687.46	483.61
687.80	480.58
688.14	477.43
688.48	474.51
688.81	471.61
689.15	468.43
689.49	465.56
689.82	462.70
690.16	459.68
690.50	457.15
690.83	454.46
691.17	451.80
691.51	449.18
691.84	446.50
692.18	444.04
692.52	441.54
692.85	438.75
693.19	436.24
693.52	433.69
693.86	431.20
694.20	428.68
694.53	426.36
694.87	423.87
695.21	421.39
695.54	418.83
695.88	416.33
696.21	414.00
696.55	411.65
696.88	409.53
697.22	407.53
697.56	405.25
697.89	403.01
698.23	400.75
698.56	398.58
698.90	396.46
699.23	394.15
699.57	392.10
699.90	390.07
700.24	387.92
700.58	386.06
700.91	384.13
701.25	382.30
701.58	380.24
701.92	378.40
702.25	376.74
702.59	375.13
702.92	373.43
703.26	371.72
703.59	370.13
703.93	368.48
704.26	366.81
704.60	365.18
704.93	363.50
705.26	362.00
705.60	360.43
705.93	358.92
706.27	357.46
706.60	356.00
706.94	354.50
707.27	352.89
707.61	351.39
707.94	350.02
708.27	348.51
708.61	347.09
708.94	345.77
709.28	344.30
709.61	342.91
709.94	341.64
710.28	340.13
710.61	338.85
710.95	337.28
711.28	336.02
711.61	334.61
711.95	333.40
712.28	332.10
712.61	330.72
712.95	329.40
713.28	328.25
713.61	326.88
713.95	325.82
714.28	324.78
714.61	323.61
714.95	322.38
715.28	321.18
715.61	319.97
715.95	318.91
716.28	317.73
716.61	316.64
716.95	315.46
717.28	314.59
717.61	313.34
717.94	312.54
718.28	311.47
718.61	310.62
718.94	309.64
719.27	308.70
719.61	307.91
719.94	307.06
720.27	306.03
720.60	305.12
720.94	304.20
721.27	303.40
721.60	302.46
721.93	301.69
722.27	300.93
722.60	300.20
722.93	299.40
723.26	298.72
723.59	297.85
723.93	297.10
724.26	296.19
724.59	295.52
724.92	294.60
725.25	293.86
725.59	293.07
725.92	292.28
726.25	291.50
726.58	290.75
726.91	289.97
727.24	289.38
727.57	288.80
727.91	288.07
728.24	287.40
728.57	286.74
728.90	285.91
729.23	285.16
729.56	284.60
729.89	283.80
730.22	283.04
730.55	282.41
730.89	281.83
731.22	281.35
731.55	280.60
731.88	279.95
732.21	279.22
732.54	278.55
732.87	278.03
733.20	277.43
733.53	276.90
733.86	276.36
734.19	275.63
734.52	275.06
734.85	274.61
735.18	273.95
735.51	273.52
735.84	273.19
736.17	272.80
736.50	272.22
736.83	272.00
737.16	271.59
737.49	271.09
737.82	270.50
738.15	269.95
738.48	269.50
738.81	269.17
739.14	268.84
739.47	268.40
739.80	267.91
740.13	267.45
740.46	266.89
740.79	266.41
741.12	266.20
741.45	265.83
741.78	265.34
742.11	264.87
742.44	264.38
742.77	263.87
743.10	263.32
743.43	262.88
743.75	262.19
744.08	262.04
744.41	261.69
744.74	261.32
745.07	261.00
745.40	260.73
745.73	260.35
746.06	260.00
746.39	259.59
746.71	259.28
747.04	258.97
747.37	258.73
747.70	258.43
748.03	257.98
748.36	257.63
748.68	257.33
749.01	256.98
749.34	256.68
749.67	256.41
750.00	256.15
750.33	255.89
750.65	255.68
750.98	255.08
751.31	254.87
751.64	254.61
751.97	254.34
752.29	254.06
752.62	253.74
752.95	253.32
753.28	253.15
753.60	252.78
753.93	252.58
754.26	252.24
754.59	251.88
754.91	251.52
755.24	251.21
755.57	250.84
755.90	250.77
756.22	250.44
756.55	250.12
756.88	249.90
757.20	249.50
757.53	249.25
757.86	248.99
758.19	248.72
758.51	248.42
758.84	248.18
759.17	247.80
759.49	247.50
759.82	247.40
760.15	247.10
760.47	246.94
760.80	246.67
761.13	246.57
761.45	246.45
761.78	246.22
762.11	246.10
762.43	245.99
762.76	245.67
763.08	245.54
763.41	245.36
763.74	245.17
764.06	244.98
764.39	244.69
764.71	244.49
765.04	244.27
765.37	244.15
765.69	243.91
766.02	243.76
766.34	243.63
766.67	243.44
767.00	243.27
767.32	243.11
767.65	242.97
767.97	242.74
768.30	242.49
768.62	242.34
768.95	242.06
769.27	241.97
769.60	241.83
769.92	241.57
770.25	241.51
770.57	241.38
770.90	241.21
771.22	241.12
771.55	241.02
771.87	240.80
772.20	240.61
772.52	240.67
772.85	240.73
773.17	240.60
773.50	240.35
773.82	240.26
774.15	239.99
774.47	239.73
774.80	239.49
775.12	239.38
775.45	239.35
775.77	239.25
776.09	238.97
776.42	238.89
776.74	238.93
777.07	238.71
777.39	238.55
777.72	238.45
778.04	238.33
778.36	238.29
778.69	238.20
779.01	238.23
779.33	237.92
779.66	237.73
779.98	237.55
780.31	237.53
780.63	237.53
780.95	237.64
781.28	237.53
781.60	237.47
781.92	237.38
782.25	237.26
782.57	237.11
782.89	237.11
783.22	236.89
783.54	236.61
783.86	236.48
784.19	236.38
784.51	236.44
784.83	236.44
785.16	236.15
785.48	236.22
785.80	236.01
786.12	235.97
786.45	235.89
786.77	235.87
787.09	235.71
787.42	235.58
787.74	235.49
788.06	235.60
788.38	235.61
788.71	235.50
789.03	235.37
789.35	235.31
789.67	235.23
789.99	235.18
790.32	235.22
790.64	235.18
790.96	235.29
791.28	235.18
791.61	235.17
791.93	235.21
792.25	234.96
792.57	235.13
792.89	235.06
793.21	235.00
793.54	234.98
793.86	234.97
794.18	234.89
794.50	234.74
794.82	234.52
795.14	234.53
795.47	234.57
795.79	234.66
796.11	234.62
796.43	234.53
796.75	234.52
797.07	234.43
797.39	234.35
797.71	234.20
798.04	234.11
798.36	234.04
798.68	234.09
799.00	234.11
799.32	233.90
799.64	233.90
799.96	233.89
800.28	233.77
800.60	233.84
800.92	233.89
801.24	233.92
801.56	233.98
801.89	233.85
802.21	233.73
802.53	233.68
802.85	233.73
803.17	233.84
803.49	233.67
803.81	233.58
804.13	233.62
804.45	233.47
804.77	233.43
805.09	233.38
805.41	233.24
805.73	233.22
806.05	233.18
806.37	233.06
806.69	232.92
807.01	232.91
807.33	232.73
807.65	232.59
807.97	232.48
808.28	232.42
808.60	232.42
808.92	232.43
809.24	232.35
809.56	232.18
809.88	232.04
810.20	232.20
810.52	232.21
810.84	232.18
811.16	232.14
811.48	232.12
811.80	232.06
812.12	232.02
812.43	231.97
812.75	231.90
813.07	231.82
813.39	231.88
813.71	231.86
814.03	231.72
814.35	231.62
814.67	231.66
814.98	231.57
815.30	231.52
815.62	231.51
815.94	231.39
816.26	231.47
816.58	231.41
816.89	231.33
817.21	231.29
817.53	231.20
817.85	231.25
818.17	231.21
818.48	231.15
818.80	231.17
819.12	231.14
819.44	231.11
819.76	231.11
820.07	231.05
820.39	231.01
820.71	231.12
821.03	231.09
821.34	231.00
821.66	231.00
821.98	231.07
822.30	230.97
822.61	231.14
822.93	231.12
823.25	231.13
823.57	231.13
823.88	231.12
824.20	231.21
824.52	231.18
824.83	231.20
825.15	231.14
825.47	231.16
825.79	231.20
826.10	231.11
826.42	231.15
826.74	231.11
827.05	231.15
827.37	231.14
827.69	231.17
828.00	231.10
828.32	231.09
828.64	230.94
828.95	231.02
829.27	230.85
829.58	230.86
829.90	230.85
830.22	230.74
830.53	230.67
830.85	230.57
831.17	230.52
831.48	230.48
831.80	230.56
832.11	230.46
832.43	230.43
832.75	230.46
833.06	230.57
833.38	230.47
833.69	230.42
834.01	230.36
834.32	230.23
834.64	230.20
834.96	230.22
835.27	230.17
835.59	230.09
835.90	230.10
836.22	229.97
836.53	229.95
836.85	229.95
837.16	230.13
837.48	230.10
837.79	230.15
838.11	230.16
838.42	230.05
838.74	230.09
839.05	229.96
839.37	229.94
839.68	229.68
840.00	229.71
840.31	229.79
840.63	229.83
840.94	229.85
841.26	229.78
841.57	229.74
841.88	229.73
842.20	229.72
842.51	229.68
842.83	229.61
843.14	229.67
843.46	229.67
843.77	229.60
844.08	229.53
844.40	229.44
844.71	229.30
845.03	229.26
845.34	229.16
845.65	229.20
845.97	229.25
846.28	229.30
846.60	229.40
846.91	229.18
847.22	229.08
847.54	229.06
847.85	229.16
848.16	229.10
848.48	229.08
848.79	229.17
849.10	229.06
849.42	229.05
849.73	228.90
850.04	228.83
850.36	228.81
850.67	228.86
850.98	228.80
851.30	228.84
851.61	228.77
851.92	228.80
852.23	228.81
852.55	228.76
852.86	228.70
853.17	228.58
853.49	228.67
853.80	228.75
854.11	228.80
854.42	228.79
854.74	228.76
855.05	228.75
855.36	228.60
855.67	228.71
855.99	228.75
856.30	228.97
856.61	229.07
856.92	229.05
857.23	229.08
857.55	229.06
857.86	229.03
858.17	229.14
858.48	229.11
858.79	229.08
859.11	228.97
859.42	229.02
859.73	228.93
860.04	228.96
860.35	228.97
860.66	228.97
860.98	228.92
861.29	228.94
861.60	228.91
861.91	229.00
862.22	228.97
862.53	229.08
862.84	228.83
863.16	228.82
863.47	228.82
863.78	228.84
864.09	228.88
864.40	228.99
864.71	229.02
865.02	229.09
865.33	229.12
865.64	229.24
865.95	229.25
866.27	229.46
866.58	229.48
866.89	229.49
867.20	229.48
867.51	229.56
867.82	229.56
868.13	229.70
868.44	229.66
868.75	229.70
869.06	229.53
869.37	229.57
869.68	229.55
869.99	229.44
870.30	229.38
870.61	229.30
870.92	229.27
871.23	229.28
871.54	229.26
871.85	229.20
872.16	229.25
872.47	229.29
872.78	229.13
873.09	229.11
873.40	229.04
873.71	229.05
874.02	228.95
874.33	228.96
874.64	228.89
874.95	228.83
875.26	228.71
875.56	228.69
875.87	228.76
876.18	228.77
876.49	229.01
876.80	228.92
877.11	228.93
877.42	228.99
877.73	228.90
878.04	228.95
878.35	228.96
878.66	228.87
878.96	228.79
879.27	228.83
879.58	228.84
879.89	228.83
880.20	228.89
880.51	228.92
880.82	228.85
881.12	228.94
881.43	228.92
881.74	229.03
882.05	229.03
882.36	229.01
882.67	228.98
882.97	228.73
883.28	228.70
883.59	228.87
883.90	228.74
884.21	228.81
884.51	228.79
884.82	228.71
885.13	228.71
885.44	228.63
885.74	228.64
886.05	228.55
886.36	228.55
886.67	228.41
886.98	228.45
887.28	228.50
887.59	228.47
887.90	228.41
888.20	228.34
888.51	228.49
888.82	228.51
889.13	228.48
889.43	228.60
889.74	228.69
890.05	228.58
890.35	228.55
890.66	228.58
890.97	228.52
891.28	228.56
891.58	228.61
891.89	228.70
892.20	228.66
892.50	228.71
892.81	228.63
893.12	228.58
893.42	228.47
893.73	228.53
894.04	228.54
894.34	228.58
894.65	228.59
894.95	228.52
895.26	228.40
895.57	228.54
895.87	228.43
896.18	228.42
896.48	228.42
896.79	228.44
897.10	228.40
897.40	228.44
897.71	228.48
898.01	228.43
898.32	228.47
898.63	228.45
898.93	228.38
899.24	228.48
899.54	228.53
899.85	228.59
900.15	228.57
900.46	228.51
900.76	228.54
901.07	228.62
901.38	228.60
901.68	228.65
901.99	228.56
902.29	228.55
902.60	228.56
902.90	228.56
903.21	228.60
903.51	228.68
903.82	228.64
904.12	228.71
904.43	228.71
904.73	228.70
905.03	228.91
905.34	229.20
905.64	229.16
905.95	229.26
906.25	229.19
906.56	229.18
906.86	229.13
907.17	229.17
907.47	229.15
907.77	229.15
908.08	229.18
908.38	229.12
908.69	229.25
908.99	229.34
909.30	229.42
909.60	229.39
909.90	229.27
910.21	229.30
910.51	229.20
910.81	229.26
911.12	229.19
911.42	229.05
911.73	228.82
912.03	228.90
912.33	228.80
912.64	228.91
912.94	228.93
913.24	228.95
913.55	228.88
913.85	228.92
914.15	229.08
914.46	229.09
914.76	229.12
915.06	229.06
915.37	228.93
915.67	228.88
915.97	228.89
916.27	228.85
916.58	228.78
916.88	228.71
917.18	228.64
917.49	228.80
917.79	228.80
918.09	228.87
918.39	228.88
918.70	228.92
919.00	228.83
919.30	228.87
919.60	228.81
919.91	228.86
920.21	228.76
920.51	228.59
920.81	228.59
921.12	228.62
921.42	228.58
921.72	228.64
922.02	228.62
922.32	228.62
922.63	228.62
922.93	228.72
923.23	228.77
923.53	228.75
923.83	228.60
924.13	228.67
924.44	228.64
924.74	228.61
925.04	228.62
925.34	228.60
925.64	228.47
925.94	228.47
926.24	228.47
926.55	228.40
926.85	228.45
927.15	228.44
927.45	228.32
927.75	228.27
928.05	228.18
928.35	228.19
928.65	228.23
928.95	228.28
929.26	228.23
929.56	228.27
929.86	228.23
930.16	228.24
930.46	228.13
930.76	227.99
931.06	227.94
931.36	227.96
931.66	228.03
931.96	228.07
932.26	228.22
932.56	228.09
932.86	228.17
933.16	228.18
933.46	228.11
933.76	228.15
934.06	228.26
934.36	228.36
934.66	228.32
934.96	228.28
935.26	228.17
935.56	228.20
935.86	228.14
936.16	228.13
936.46	228.18
936.76	228.20
937.06	228.29
937.36	228.29
937.66	228.21
937.96	228.09
938.26	228.08
938.56	227.96
938.86	228.01
939.16	228.00
939.46	227.98
939.76	228.00
940.06	228.03
940.35	228.09
940.65	228.00
940.95	228.05
941.25	227.98
941.55	228.07
941.85	228.12
942.15	228.22
942.45	228.34
942.75	228.22
943.04	228.19
943.34	228.23
943.64	228.25
943.94	228.32
944.24	228.31
944.54	228.36
944.84	228.40
945.13	228.49
945.43	228.49
945.73	228.44
946.03	228.36
946.33	228.39
946.62	228.16
946.92	228.27
947.22	228.25
947.52	228.24
947.82	228.21
948.11	228.08
948.41	227.97
948.71	227.99
949.01	228.11
949.31	228.12
949.60	228.08
949.90	228.18
950.20	228.13
950.50	228.30
950.79	228.27
951.09	228.32
951.39	228.26
951.69	228.26
951.98	228.30
952.28	228.40
952.58	228.25
952.87	228.39
953.17	228.35
953.47	228.39
953.76	228.47
954.06	228.47
954.36	228.50
954.66	228.48
954.95	228.48
955.25	228.46
955.55	228.48
955.84	228.45
956.14	228.40
956.44	228.41
956.73	228.37
957.03	228.34
957.32	228.29
957.62	228.29
957.92	228.28
958.21	228.31
958.51	228.50
958.81	228.67
959.10	228.61
959.40	228.60
959.69	228.57
959.99	228.50
960.29	228.57
960.58	228.52
960.88	228.62
961.17	228.44
961.47	228.43
961.76	228.30
962.06	228.31
962.36	228.26
962.65	228.34
962.95	228.28
963.24	228.28
963.54	228.32
963.83	228.34
964.13	228.34
964.42	228.30
964.72	228.15
965.01	228.09
965.31	228.12
965.60	228.15
965.90	228.14
966.19	228.17
966.49	228.12
966.78	228.18
967.08	228.11
967.37	228.26
967.67	228.26
967.96	228.32
968.26	228.32
968.55	228.28
968.85	228.20
969.14	228.15
969.43	228.12
969.73	228.10
970.02	228.08
970.32	228.05
970.61	228.00
970.91	227.90
971.20	227.92
971.49	227.95
971.79	227.98
972.08	228.01
972.38	228.08
972.67	228.11
972.96	228.14
973.26	228.13
973.55	228.20
973.85	228.16
974.14	228.16
974.43	228.14
974.73	228.13
975.02	228.15
975.31	228.23
975.61	228.23
975.90	228.22
976.19	228.23
976.49	228.23
976.78	228.21
977.07	228.27
977.37	228.22
977.66	228.16
977.95	228.20
978.24	228.22
978.54	228.25
978.83	228.18
979.12	228.17
979.42	228.20
979.71	228.13
980.00	228.19
980.29	228.28
980.59	228.29
980.88	228.39
981.17	228.33
981.46	228.34
981.76	228.44
982.05	228.50
982.34	228.53
982.63	228.71
982.93	228.77
983.22	228.81
983.51	228.88
983.80	228.97
984.09	228.86
984.39	228.78
984.68	228.76
984.97	228.82
985.26	228.84
985.55	228.76
985.85	228.85
986.14	228.82
986.43	228.98
986.72	228.98
987.01	228.82
987.30	228.85
987.59	228.85
987.89	228.77
988.18	228.69
988.47	228.60
988.76	228.43
989.05	228.37
989.34	228.20
989.63	228.35
989.92	228.23
990.22	228.25
990.51	228.26
990.80	228.27
991.09	228.27
991.38	228.23
991.67	228.33
991.96	228.24
992.25	228.26
992.54	228.04
992.83	228.00
993.12	228.08
993.41	228.11
993.70	228.17
993.99	228.25
994.28	228.20
994.58	228.28
994.87	228.28
995.16	228.33
995.45	228.43
995.74	228.22
996.03	228.32
996.32	228.31
996.61	228.39
996.90	228.34
997.19	228.29
997.48	228.21
997.77	228.16
998.06	228.16
998.34	228.20
998.63	228.30
998.92	228.31
999.21	228.35
999.50	228.31
999.79	228.31
1000.08	228.27
1000.37	228.26
1000.66	228.10
1000.95	228.16
1001.24	228.13
1001.53	228.07
1001.82	228.10
1002.11	228.10
1002.40	228.13
1002.68	228.17
1002.97	228.35
1003.26	228.33
1003.55	228.37
1003.84	228.34
1004.13	228.45
1004.42	228.32
1004.71	228.19
1004.99	228.18
1005.28	228.17
1005.57	228.16
1005.86	228.03
1006.15	228.02
1006.44	228.06
1006.72	228.08
1007.01	228.02
1007.30	228.13
1007.59	228.11
1007.88	228.09
1008.17	228.07
1008.45	227.99
1008.74	227.86
1009.03	227.79
1009.32	227.80
1009.60	227.77
1009.89	227.81
1010.18	227.67
1010.47	227.70
1010.76	227.74
1011.04	227.73
1011.33	227.85
1011.62	227.80
1011.91	227.90
1012.19	227.97
1012.48	228.00
1012.77	228.15
1013.05	228.32
1013.34	228.25
1013.63	228.37
1013.92	228.41
1014.20	228.35
1014.49	228.37
1014.78	228.40
1015.06	228.30
1015.35	228.33
1015.64	228.37
1015.92	228.31
1016.21	228.36
1016.50	228.29
1016.78	228.38
1017.07	228.31
1017.36	228.21
1017.64	228.29
1017.93	228.33
1018.22	228.26
1018.50	228.24
1018.79	228.19
1019.08	228.02
1019.36	228.06
1019.65	227.96
1019.93	227.99
1020.22	228.08
1020.51	228.27
1020.79	228.23
1021.08	227.40
1021.36	227.90
1021.65	228.10
1021.94	227.70
1022.22	229.20
1022.51	227.00
1022.79	229.10
1023.08	228.80
1023.36	231.70
1023.65	227.40
>>>>>End Processed Spectral Data<<<<<
