SpectraSuite Data File
++++++++++++++++++++++++++++++++++++
Date: Fri Feb 01 14:41:25 EST 2013
User: group
Dark Spectrum Present: No
Reference Spectrum Present: No
Number of Sampled Component Spectra: 1
Spectrometers: USB2E7196
Integration Time (usec): 70000 (USB2E7196)
Spectra Averaged: 10 (USB2E7196)
Boxcar Smoothing: 10 (USB2E7196)
Correct for Electrical Dark: No (USB2E7196)
Strobe/Lamp Enabled: No (USB2E7196)
Correct for Detector Non-linearity: No (USB2E7196)
Correct for Stray Light: No (USB2E7196)
Number of Pixels in Processed Spectrum: 2048
>>>>>Begin Processed Spectral Data<<<<<
339.09	0.00
339.48	217.30
339.86	216.90
340.24	219.10
340.63	219.90
341.01	223.60
341.39	223.10
341.78	224.50
342.16	223.00
342.54	227.40
342.93	214.46
343.31	225.33
343.69	225.74
344.07	226.19
344.46	226.61
344.84	227.08
345.22	227.26
345.60	227.52
345.99	227.70
346.37	227.95
346.75	227.96
347.13	228.02
347.52	228.19
347.90	228.31
348.28	228.32
348.66	228.41
349.05	228.46
349.43	228.63
349.81	228.61
350.19	228.75
350.57	228.85
350.96	229.01
351.34	229.04
351.72	229.25
352.10	229.48
352.48	229.60
352.87	229.61
353.25	229.76
353.63	229.89
354.01	230.00
354.39	230.13
354.77	230.31
355.15	230.40
355.54	230.47
355.92	230.43
356.30	230.50
356.68	230.67
357.06	230.71
357.44	230.70
357.82	230.85
358.20	230.84
358.58	230.90
358.97	231.06
359.35	231.20
359.73	231.16
360.11	231.16
360.49	231.16
360.87	231.31
361.25	231.34
361.63	231.40
362.01	231.49
362.39	231.44
362.77	231.45
363.15	231.45
363.53	231.44
363.91	231.39
364.29	231.43
364.67	231.25
365.05	231.30
365.43	231.36
365.81	231.38
366.19	231.51
366.57	231.56
366.95	231.47
367.33	231.43
367.71	231.54
368.09	231.53
368.47	231.60
368.85	231.49
369.23	231.52
369.61	231.43
369.99	231.37
370.37	231.46
370.75	231.45
371.13	231.39
371.51	231.31
371.89	231.31
372.27	231.22
372.65	231.19
373.03	231.10
373.41	231.00
373.78	230.96
374.16	230.87
374.54	230.81
374.92	230.72
375.30	230.66
375.68	230.48
376.06	230.40
376.44	230.31
376.82	230.20
377.19	230.09
377.57	230.00
377.95	229.87
378.33	229.69
378.71	229.54
379.09	229.50
379.47	229.49
379.84	229.40
380.22	229.35
380.60	229.25
380.98	229.18
381.36	229.10
381.73	228.89
382.11	228.67
382.49	228.49
382.87	228.38
383.25	228.28
383.62	228.45
384.00	228.37
384.38	228.42
384.76	228.44
385.13	228.36
385.51	228.24
385.89	228.22
386.27	228.25
386.64	228.24
387.02	228.13
387.40	227.97
387.78	227.93
388.15	227.92
388.53	227.80
388.91	227.83
389.29	227.71
389.66	227.69
390.04	227.70
390.42	227.71
390.79	227.80
391.17	227.77
391.55	227.49
391.92	227.54
392.30	227.36
392.68	227.35
393.05	227.30
393.43	227.26
393.81	227.23
394.18	227.16
394.56	227.24
394.94	227.33
395.31	227.33
395.69	227.44
396.06	227.31
396.44	227.39
396.82	227.30
397.19	227.41
397.57	227.46
397.95	227.60
398.32	227.56
398.70	227.66
399.07	227.73
399.45	227.83
399.82	227.89
400.20	227.98
400.58	227.93
400.95	228.01
401.33	228.25
401.70	228.42
402.08	228.51
402.45	228.57
402.83	228.70
403.20	228.87
403.58	228.94
403.95	229.23
404.33	229.43
404.71	229.59
405.08	229.93
405.46	230.13
405.83	230.32
406.21	230.60
406.58	230.77
406.96	231.06
407.33	231.30
407.70	231.56
408.08	231.84
408.45	232.14
408.83	232.60
409.20	232.80
409.58	233.03
409.95	233.49
410.33	233.92
410.70	234.26
411.08	234.66
411.45	234.98
411.82	235.36
412.20	235.82
412.57	236.51
412.95	236.81
413.32	237.40
413.69	237.99
414.07	238.55
414.44	239.14
414.82	239.72
415.19	240.43
415.56	241.10
415.94	241.85
416.31	242.69
416.68	243.44
417.06	244.44
417.43	245.37
417.81	246.25
418.18	247.09
418.55	248.07
418.93	249.14
419.30	250.27
419.67	251.38
420.04	252.62
420.42	253.74
420.79	255.37
421.16	256.75
421.54	258.27
421.91	259.83
422.28	261.43
422.66	263.08
423.03	264.83
423.40	266.55
423.77	268.36
424.15	270.18
424.52	271.98
424.89	273.92
425.26	275.91
425.64	277.69
426.01	279.70
426.38	281.75
426.75	283.86
427.13	286.16
427.50	288.45
427.87	290.74
428.24	293.15
428.61	295.18
428.99	297.75
429.36	300.30
429.73	302.87
430.10	305.42
430.47	308.02
430.85	310.57
431.22	313.34
431.59	316.24
431.96	318.97
432.33	322.03
432.70	325.06
433.08	328.50
433.45	331.88
433.82	335.19
434.19	338.82
434.56	342.36
434.93	345.52
435.30	348.98
435.68	352.56
436.05	355.89
436.42	359.30
436.79	362.38
437.16	365.65
437.53	369.10
437.90	372.44
438.27	375.80
438.64	379.37
439.01	382.58
439.38	385.27
439.75	387.80
440.13	390.84
440.50	393.57
440.87	395.80
441.24	398.13
441.61	400.72
441.98	402.55
442.35	404.71
442.72	407.08
443.09	409.21
443.46	410.27
443.83	411.16
444.20	411.85
444.57	412.73
444.94	413.07
445.31	413.42
445.68	413.91
446.05	413.91
446.42	413.18
446.79	412.50
447.16	411.98
447.53	411.74
447.90	410.32
448.27	408.82
448.64	406.79
449.01	405.26
449.37	402.82
449.74	400.39
450.11	397.59
450.48	394.46
450.85	391.09
451.22	388.38
451.59	385.80
451.96	383.27
452.33	379.91
452.70	376.97
453.07	373.41
453.43	369.68
453.80	366.27
454.17	362.95
454.54	359.81
454.91	356.42
455.28	353.10
455.65	349.85
456.02	346.94
456.38	344.25
456.75	340.97
457.12	338.02
457.49	335.23
457.86	332.50
458.23	330.14
458.59	327.65
458.96	325.13
459.33	322.71
459.70	320.44
460.07	318.63
460.43	316.58
460.80	314.57
461.17	312.79
461.54	310.99
461.91	309.33
462.27	307.46
462.64	305.89
463.01	304.19
463.38	302.68
463.74	300.88
464.11	299.50
464.48	298.21
464.85	296.75
465.21	295.80
465.58	294.66
465.95	293.29
466.32	292.18
466.68	291.08
467.05	290.05
467.42	288.92
467.78	287.75
468.15	286.55
468.52	285.68
468.88	284.66
469.25	283.59
469.62	282.67
469.98	281.88
470.35	281.08
470.72	280.28
471.08	279.38
471.45	278.70
471.82	277.91
472.18	277.04
472.55	276.53
472.92	275.63
473.28	275.01
473.65	274.40
474.02	273.74
474.38	273.24
474.75	272.71
475.11	272.15
475.48	271.75
475.85	271.33
476.21	270.96
476.58	270.56
476.94	270.21
477.31	269.80
477.67	269.47
478.04	269.11
478.41	268.81
478.77	268.86
479.14	268.55
479.50	268.42
479.87	268.45
480.23	268.30
480.60	268.33
480.96	268.27
481.33	268.30
481.69	268.25
482.06	268.22
482.42	268.15
482.79	268.10
483.15	268.09
483.52	268.34
483.88	268.39
484.25	268.57
484.61	268.88
484.98	269.13
485.34	269.61
485.71	270.07
486.07	270.49
486.44	270.77
486.80	271.26
487.17	271.74
487.53	272.36
487.90	273.13
488.26	273.83
488.62	274.41
488.99	275.15
489.35	275.96
489.72	276.78
490.08	277.90
490.44	279.07
490.81	280.27
491.17	281.25
491.54	282.62
491.90	283.77
492.26	285.15
492.63	286.69
492.99	288.03
493.36	289.64
493.72	291.37
494.08	293.09
494.45	295.14
494.81	297.20
495.17	299.51
495.54	301.81
495.90	304.23
496.26	306.89
496.63	309.64
496.99	312.56
497.35	315.65
497.72	318.80
498.08	322.17
498.44	325.56
498.80	329.35
499.17	333.22
499.53	337.43
499.89	341.67
500.26	346.08
500.62	350.60
500.98	355.41
501.34	360.46
501.71	365.71
502.07	371.06
502.43	376.43
502.79	381.95
503.16	387.81
503.52	393.92
503.88	400.20
504.24	406.80
504.60	413.80
504.97	420.98
505.33	428.21
505.69	436.09
506.05	444.12
506.41	452.13
506.78	460.40
507.14	468.99
507.50	477.79
507.86	486.96
508.22	496.55
508.59	506.12
508.95	516.14
509.31	526.47
509.67	537.12
510.03	548.09
510.39	559.07
510.75	570.54
511.12	582.23
511.48	594.24
511.84	606.51
512.20	618.84
512.56	631.68
512.92	644.77
513.28	657.92
513.64	671.40
514.00	685.27
514.37	699.44
514.73	713.60
515.09	727.73
515.45	742.42
515.81	757.38
516.17	772.88
516.53	788.38
516.89	803.87
517.25	819.48
517.61	835.50
517.97	851.84
518.33	868.26
518.69	884.53
519.05	901.51
519.41	918.68
519.77	936.35
520.13	953.62
520.49	971.36
520.85	988.86
521.21	1006.74
521.57	1025.03
521.93	1043.05
522.29	1061.96
522.65	1080.54
523.01	1098.76
523.37	1116.73
523.73	1135.31
524.09	1154.08
524.45	1173.30
524.81	1192.69
525.17	1212.44
525.53	1232.05
525.89	1251.90
526.25	1272.34
526.61	1291.45
526.97	1311.29
527.33	1330.97
527.68	1351.38
528.04	1371.21
528.40	1391.46
528.76	1411.87
529.12	1431.79
529.48	1451.86
529.84	1470.97
530.20	1491.77
530.56	1513.22
530.91	1534.82
531.27	1555.50
531.63	1575.89
531.99	1596.11
532.35	1615.97
532.71	1635.53
533.07	1655.71
533.42	1675.47
533.78	1695.13
534.14	1715.44
534.50	1734.41
534.86	1753.80
535.21	1772.49
535.57	1792.35
535.93	1811.67
536.29	1830.66
536.65	1849.66
537.00	1868.35
537.36	1887.84
537.72	1906.04
538.08	1923.73
538.44	1941.46
538.79	1959.29
539.15	1976.51
539.51	1994.70
539.87	2012.68
540.22	2029.85
540.58	2047.30
540.94	2064.06
541.29	2080.71
541.65	2097.50
542.01	2115.11
542.37	2131.73
542.72	2148.00
543.08	2163.32
543.44	2179.18
543.79	2194.03
544.15	2209.60
544.51	2226.08
544.87	2241.41
545.22	2256.26
545.58	2270.76
545.94	2284.09
546.29	2298.01
546.65	2311.70
547.01	2324.75
547.36	2337.34
547.72	2350.73
548.07	2363.01
548.43	2375.32
548.79	2387.43
549.14	2398.49
549.50	2409.36
549.86	2419.94
550.21	2430.41
550.57	2441.34
550.92	2451.90
551.28	2461.38
551.64	2471.10
551.99	2480.34
552.35	2489.61
552.70	2499.24
553.06	2509.13
553.41	2519.04
553.77	2527.94
554.13	2537.39
554.48	2546.06
554.84	2554.43
555.19	2562.55
555.55	2570.06
555.90	2577.72
556.26	2585.00
556.61	2592.90
556.97	2600.03
557.32	2607.83
557.68	2615.30
558.03	2622.28
558.39	2628.60
558.74	2636.69
559.10	2643.55
559.45	2649.62
559.81	2656.82
560.16	2662.36
560.52	2667.55
560.87	2673.63
561.23	2678.28
561.58	2683.75
561.94	2688.69
562.29	2693.36
562.64	2697.91
563.00	2702.92
563.35	2708.26
563.71	2713.77
564.06	2718.54
564.42	2722.96
564.77	2726.87
565.12	2731.40
565.48	2735.23
565.83	2738.80
566.19	2742.02
566.54	2744.64
566.89	2747.28
567.25	2748.67
567.60	2751.92
567.96	2754.06
568.31	2755.47
568.66	2757.92
569.02	2759.43
569.37	2760.20
569.72	2761.87
570.08	2762.45
570.43	2763.44
570.78	2762.75
571.14	2761.99
571.49	2761.56
571.84	2761.80
572.20	2760.77
572.55	2758.96
572.90	2757.21
573.26	2756.52
573.61	2754.85
573.96	2753.11
574.31	2750.48
574.67	2747.55
575.02	2744.44
575.37	2742.14
575.72	2738.57
576.08	2735.17
576.43	2731.28
576.78	2728.32
577.13	2725.26
577.49	2721.95
577.84	2718.50
578.19	2714.95
578.54	2710.92
578.90	2705.98
579.25	2700.15
579.60	2695.44
579.95	2690.43
580.30	2685.14
580.66	2678.34
581.01	2672.37
581.36	2666.80
581.71	2662.13
582.06	2657.05
582.42	2650.56
582.77	2644.54
583.12	2638.63
583.47	2633.61
583.82	2628.58
584.17	2622.44
584.53	2616.20
584.88	2610.25
585.23	2603.14
585.58	2597.33
585.93	2590.68
586.28	2585.47
586.63	2579.95
586.98	2574.26
587.34	2568.72
587.69	2562.90
588.04	2557.50
588.39	2551.86
588.74	2544.04
589.09	2536.52
589.44	2529.27
589.79	2523.21
590.14	2517.06
590.49	2510.53
590.84	2502.51
591.19	2494.85
591.54	2486.53
591.89	2477.40
592.25	2469.39
592.60	2461.01
592.95	2452.55
593.30	2444.30
593.65	2435.45
594.00	2427.08
594.35	2418.61
594.70	2409.33
595.05	2400.86
595.40	2391.64
595.75	2382.81
596.10	2375.85
596.45	2368.37
596.80	2361.09
597.15	2353.07
597.50	2344.05
597.85	2336.23
598.19	2329.04
598.54	2321.29
598.89	2314.09
599.24	2307.89
599.59	2300.18
599.94	2293.04
600.29	2285.12
600.64	2277.58
600.99	2268.94
601.34	2261.34
601.69	2252.65
602.04	2245.34
602.39	2237.32
602.74	2230.20
603.08	2222.42
603.43	2214.52
603.78	2206.50
604.13	2198.14
604.48	2189.61
604.83	2181.31
605.18	2173.24
605.53	2163.32
605.87	2153.44
606.22	2144.53
606.57	2134.57
606.92	2125.96
607.27	2117.35
607.62	2109.35
607.96	2100.55
608.31	2092.50
608.66	2082.73
609.01	2073.85
609.36	2063.60
609.70	2053.34
610.05	2043.03
610.40	2033.11
610.75	2022.88
611.10	2012.75
611.44	2001.98
611.79	1992.54
612.14	1982.36
612.49	1971.44
612.83	1961.43
613.18	1952.24
613.53	1942.35
613.88	1932.57
614.22	1922.14
614.57	1911.03
614.92	1900.65
615.27	1891.17
615.61	1880.90
615.96	1870.90
616.31	1861.42
616.65	1852.60
617.00	1843.77
617.35	1834.86
617.70	1825.21
618.04	1815.20
618.39	1805.48
618.74	1796.25
619.08	1786.01
619.43	1776.73
619.78	1767.70
620.12	1758.93
620.47	1749.30
620.82	1739.67
621.16	1730.46
621.51	1721.41
621.85	1712.31
622.20	1702.19
622.55	1692.38
622.89	1683.45
623.24	1674.58
623.59	1665.30
623.93	1656.20
624.28	1646.59
624.62	1636.74
624.97	1627.92
625.32	1619.22
625.66	1610.40
626.01	1601.53
626.35	1592.51
626.70	1583.43
627.04	1574.29
627.39	1564.73
627.73	1555.19
628.08	1546.32
628.43	1537.00
628.77	1527.80
629.12	1518.72
629.46	1509.75
629.81	1500.16
630.15	1490.28
630.50	1480.81
630.84	1470.98
631.19	1460.99
631.53	1451.90
631.88	1442.55
632.22	1432.43
632.57	1423.37
632.91	1413.51
633.26	1403.92
633.60	1394.30
633.95	1384.51
634.29	1375.25
634.64	1366.80
634.98	1358.08
635.32	1349.53
635.67	1341.60
636.01	1333.34
636.36	1324.64
636.70	1316.46
637.05	1308.73
637.39	1301.40
637.73	1293.59
638.08	1286.37
638.42	1278.92
638.77	1271.00
639.11	1263.19
639.45	1255.56
639.80	1247.54
640.14	1239.83
640.49	1232.02
640.83	1224.24
641.17	1216.68
641.52	1209.00
641.86	1200.88
642.20	1193.53
642.55	1185.53
642.89	1177.31
643.23	1169.00
643.58	1161.72
643.92	1153.85
644.26	1145.82
644.61	1137.97
644.95	1130.17
645.29	1121.43
645.64	1113.39
645.98	1105.70
646.32	1097.97
646.66	1090.35
647.01	1082.78
647.35	1075.47
647.69	1068.33
648.04	1061.29
648.38	1053.79
648.72	1045.99
649.06	1038.59
649.41	1030.79
649.75	1022.91
650.09	1015.46
650.43	1008.04
650.78	1000.00
651.12	992.25
651.46	984.76
651.80	977.07
652.14	969.81
652.49	962.92
652.83	955.92
653.17	948.55
653.51	941.46
653.85	934.43
654.20	927.15
654.54	919.72
654.88	912.40
655.22	904.95
655.56	897.77
655.90	891.05
656.25	884.12
656.59	877.24
656.93	870.97
657.27	864.23
657.61	857.24
657.95	851.23
658.29	845.14
658.64	838.71
658.98	832.11
659.32	825.08
659.66	818.86
660.00	812.30
660.34	806.09
660.68	799.92
661.02	793.67
661.36	787.76
661.70	781.94
662.05	776.18
662.39	770.83
662.73	765.30
663.07	759.56
663.41	754.12
663.75	748.71
664.09	742.97
664.43	737.51
664.77	732.51
665.11	727.13
665.45	721.62
665.79	716.49
666.13	711.33
666.47	706.54
666.81	700.80
667.15	695.58
667.49	690.40
667.83	685.51
668.17	680.65
668.51	675.46
668.85	670.48
669.19	665.72
669.53	660.85
669.87	656.13
670.21	651.53
670.55	646.85
670.89	642.48
671.23	638.20
671.57	633.65
671.91	629.09
672.25	624.73
672.58	620.51
672.92	616.10
673.26	611.92
673.60	607.76
673.94	604.25
674.28	600.82
674.62	597.33
674.96	593.27
675.30	589.52
675.64	586.00
675.97	582.25
676.31	578.53
676.65	574.69
676.99	571.17
677.33	567.46
677.67	563.92
678.01	560.09
678.34	556.37
678.68	552.94
679.02	549.51
679.36	545.96
679.70	542.56
680.04	539.30
680.37	535.82
680.71	532.63
681.05	529.35
681.39	525.94
681.73	522.63
682.06	519.67
682.40	516.61
682.74	513.52
683.08	510.43
683.42	507.22
683.75	504.20
684.09	500.85
684.43	497.97
684.77	494.83
685.10	491.96
685.44	489.11
685.78	486.30
686.12	483.39
686.45	480.65
686.79	477.70
687.13	474.84
687.46	472.18
687.80	469.40
688.14	466.49
688.48	463.82
688.81	460.85
689.15	458.19
689.49	455.47
689.82	452.71
690.16	450.19
690.50	447.60
690.83	445.20
691.17	442.81
691.51	440.42
691.84	438.21
692.18	435.65
692.52	433.36
692.85	430.94
693.19	428.59
693.52	426.25
693.86	423.93
694.20	421.48
694.53	419.16
694.87	416.72
695.21	414.39
695.54	411.84
695.88	409.69
696.21	407.30
696.55	405.11
696.88	403.02
697.22	400.79
697.56	398.67
697.89	396.41
698.23	394.24
698.56	392.08
698.90	389.81
699.23	387.63
699.57	385.52
699.90	383.44
700.24	381.61
700.58	379.55
700.91	377.77
701.25	376.05
701.58	374.43
701.92	372.58
702.25	370.92
702.59	369.37
702.92	367.70
703.26	366.03
703.59	364.25
703.93	362.72
704.26	361.10
704.60	359.52
704.93	357.97
705.26	356.40
705.60	354.84
705.93	353.33
706.27	352.21
706.60	350.78
706.94	349.39
707.27	347.69
707.61	346.34
707.94	344.89
708.27	343.31
708.61	341.80
708.94	340.49
709.28	339.13
709.61	337.80
709.94	336.59
710.28	335.26
710.61	333.95
710.95	332.37
711.28	331.35
711.61	330.07
711.95	328.78
712.28	327.58
712.61	326.32
712.95	325.23
713.28	323.97
713.61	322.80
713.95	321.60
714.28	320.44
714.61	319.41
714.95	318.36
715.28	317.28
715.61	316.04
715.95	314.98
716.28	313.77
716.61	312.66
716.95	311.53
717.28	310.60
717.61	309.67
717.94	308.87
718.28	307.68
718.61	306.77
718.94	305.89
719.27	304.97
719.61	304.16
719.94	303.28
720.27	302.34
720.60	301.31
720.94	300.46
721.27	299.87
721.60	299.09
721.93	298.21
722.27	297.55
722.60	296.95
722.93	296.10
723.26	295.41
723.59	294.72
723.93	293.92
724.26	293.15
724.59	292.41
724.92	291.58
725.25	290.98
725.59	290.30
725.92	289.65
726.25	288.94
726.58	288.28
726.91	287.58
727.24	286.87
727.57	286.43
727.91	285.89
728.24	285.05
728.57	284.28
728.90	283.61
729.23	283.00
729.56	282.38
729.89	281.86
730.22	281.35
730.55	280.80
730.89	280.22
731.22	279.73
731.55	279.09
731.88	278.58
732.21	277.92
732.54	277.38
732.87	276.89
733.20	276.39
733.53	275.81
733.86	275.33
734.19	274.84
734.52	274.26
734.85	273.82
735.18	273.49
735.51	273.13
735.84	272.73
736.17	272.25
736.50	271.75
736.83	271.44
737.16	270.89
737.49	270.25
737.82	269.80
738.15	269.34
738.48	268.82
738.81	268.35
739.14	267.97
739.47	267.44
739.80	266.94
740.13	266.41
740.46	266.01
740.79	265.47
741.12	265.05
741.45	264.47
741.78	263.78
742.11	263.27
742.44	262.66
742.77	262.22
743.10	261.77
743.43	261.26
743.75	260.56
744.08	260.34
744.41	259.96
744.74	259.45
745.07	258.92
745.40	258.66
745.73	258.39
746.06	257.95
746.39	257.56
746.71	257.05
747.04	256.75
747.37	256.32
747.70	255.96
748.03	255.57
748.36	255.24
748.68	255.10
749.01	254.72
749.34	254.39
749.67	254.04
750.00	253.72
750.33	253.60
750.65	253.41
750.98	253.03
751.31	252.78
751.64	252.57
751.97	252.37
752.29	252.04
752.62	251.64
752.95	251.28
753.28	250.99
753.60	250.86
753.93	250.68
754.26	250.40
754.59	250.05
754.91	249.74
755.24	249.53
755.57	249.12
755.90	248.89
756.22	248.66
756.55	248.33
756.88	248.01
757.20	247.62
757.53	247.32
757.86	247.02
758.19	246.76
758.51	246.57
758.84	246.33
759.17	246.15
759.49	246.05
759.82	246.01
760.15	245.86
760.47	245.63
760.80	245.30
761.13	245.19
761.45	245.06
761.78	244.90
762.11	244.71
762.43	244.54
762.76	244.49
763.08	244.26
763.41	244.09
763.74	243.95
764.06	243.80
764.39	243.65
764.71	243.52
765.04	243.33
765.37	243.16
765.69	243.04
766.02	242.98
766.34	242.73
766.67	242.44
767.00	242.36
767.32	242.33
767.65	242.20
767.97	242.09
768.30	242.07
768.62	242.00
768.95	241.79
769.27	241.71
769.60	241.44
769.92	241.36
770.25	241.30
770.57	241.09
770.90	240.89
771.22	240.74
771.55	240.54
771.87	240.59
772.20	240.43
772.52	240.43
772.85	240.48
773.17	240.41
773.50	240.32
773.82	240.22
774.15	240.01
774.47	239.96
774.80	239.86
775.12	239.75
775.45	239.56
775.77	239.68
776.09	239.52
776.42	239.58
776.74	239.49
777.07	239.32
777.39	239.34
777.72	239.31
778.04	239.16
778.36	239.05
778.69	238.92
779.01	238.91
779.33	238.67
779.66	238.37
779.98	238.21
780.31	238.09
780.63	238.02
780.95	237.88
781.28	237.70
781.60	237.56
781.92	237.39
782.25	237.33
782.57	237.05
782.89	236.99
783.22	236.84
783.54	236.78
783.86	236.73
784.19	236.51
784.51	236.41
784.83	236.32
785.16	236.27
785.48	236.07
785.80	235.92
786.12	235.80
786.45	235.65
786.77	235.63
787.09	235.56
787.42	235.41
787.74	235.32
788.06	235.26
788.38	235.12
788.71	235.08
789.03	235.00
789.35	235.07
789.67	235.02
789.99	234.81
790.32	234.67
790.64	234.58
790.96	234.71
791.28	234.56
791.61	234.53
791.93	234.49
792.25	234.51
792.57	234.58
792.89	234.60
793.21	234.47
793.54	234.37
793.86	234.31
794.18	234.16
794.50	234.07
794.82	234.04
795.14	233.99
795.47	233.91
795.79	233.74
796.11	233.56
796.43	233.48
796.75	233.50
797.07	233.49
797.39	233.50
797.71	233.34
798.04	233.39
798.36	233.36
798.68	233.30
799.00	233.20
799.32	233.14
799.64	233.05
799.96	233.13
800.28	233.06
800.60	232.92
800.92	232.95
801.24	232.89
801.56	232.99
801.89	233.03
802.21	233.02
802.53	233.04
802.85	233.05
803.17	233.07
803.49	232.99
803.81	232.97
804.13	232.86
804.45	232.79
804.77	232.64
805.09	232.59
805.41	232.67
805.73	232.63
806.05	232.51
806.37	232.56
806.69	232.54
807.01	232.50
807.33	232.59
807.65	232.51
807.97	232.59
808.28	232.47
808.60	232.37
808.92	232.31
809.24	232.47
809.56	232.53
809.88	232.33
810.20	232.34
810.52	232.33
810.84	232.34
811.16	232.41
811.48	232.46
811.80	232.55
812.12	232.47
812.43	232.50
812.75	232.45
813.07	232.35
813.39	232.21
813.71	232.20
814.03	232.26
814.35	232.33
814.67	232.25
814.98	232.29
815.30	232.30
815.62	232.24
815.94	232.05
816.26	232.00
816.58	232.06
816.89	232.02
817.21	232.08
817.53	232.10
817.85	232.02
818.17	231.96
818.48	231.84
818.80	231.86
819.12	231.85
819.44	231.81
819.76	231.80
820.07	231.81
820.39	231.81
820.71	231.76
821.03	231.67
821.34	231.67
821.66	231.52
821.98	231.52
822.30	231.57
822.61	231.68
822.93	231.63
823.25	231.60
823.57	231.53
823.88	231.34
824.20	231.22
824.52	231.15
824.83	231.09
825.15	231.00
825.47	230.86
825.79	230.71
826.10	230.67
826.42	230.60
826.74	230.60
827.05	230.57
827.37	230.46
827.69	230.43
828.00	230.28
828.32	230.27
828.64	230.22
828.95	230.20
829.27	230.09
829.58	229.96
829.90	229.85
830.22	229.85
830.53	229.89
830.85	229.92
831.17	229.86
831.48	229.83
831.80	229.71
832.11	229.69
832.43	229.65
832.75	229.63
833.06	229.64
833.38	229.50
833.69	229.38
834.01	229.36
834.32	229.31
834.64	229.37
834.96	229.28
835.27	229.21
835.59	229.11
835.90	229.05
836.22	229.01
836.53	229.08
836.85	229.03
837.16	229.18
837.48	229.15
837.79	229.24
838.11	229.28
838.42	229.42
838.74	229.43
839.05	229.44
839.37	229.38
839.68	229.26
840.00	229.31
840.31	229.41
840.63	229.35
840.94	229.29
841.26	229.27
841.57	229.35
841.88	229.21
842.20	229.14
842.51	229.07
842.83	229.09
843.14	229.26
843.46	229.40
843.77	229.26
844.08	229.14
844.40	229.11
844.71	229.17
845.03	229.08
845.34	229.07
845.65	229.13
845.97	229.15
846.28	229.24
846.60	229.27
846.91	229.24
847.22	229.22
847.54	229.32
847.85	229.51
848.16	229.46
848.48	229.58
848.79	229.67
849.10	229.75
849.42	229.79
849.73	229.63
850.04	229.60
850.36	229.57
850.67	229.79
850.98	229.79
851.30	229.79
851.61	229.84
851.92	229.81
852.23	229.83
852.55	229.85
852.86	229.90
853.17	229.93
853.49	229.93
853.80	230.10
854.11	230.18
854.42	230.02
854.74	230.05
855.05	230.02
855.36	230.04
855.67	230.04
855.99	230.05
856.30	230.24
856.61	230.19
856.92	230.21
857.23	230.15
857.55	230.12
857.86	230.04
858.17	230.12
858.48	230.20
858.79	230.12
859.11	230.20
859.42	230.22
859.73	230.26
860.04	230.30
860.35	230.14
860.66	230.02
860.98	230.07
861.29	230.02
861.60	230.05
861.91	229.92
862.22	229.83
862.53	229.67
862.84	229.51
863.16	229.50
863.47	229.39
863.78	229.31
864.09	229.29
864.40	229.33
864.71	229.15
865.02	229.08
865.33	229.05
865.64	228.95
865.95	228.74
866.27	228.81
866.58	228.69
866.89	228.63
867.20	228.62
867.51	228.51
867.82	228.53
868.13	228.61
868.44	228.46
868.75	228.53
869.06	228.61
869.37	228.53
869.68	228.47
869.99	228.39
870.30	228.32
870.61	228.30
870.92	228.15
871.23	228.15
871.54	228.11
871.85	228.07
872.16	228.09
872.47	228.18
872.78	227.91
873.09	227.93
873.40	228.03
873.71	227.91
874.02	227.99
874.33	227.94
874.64	227.82
874.95	228.02
875.26	228.00
875.56	227.98
875.87	227.94
876.18	227.87
876.49	228.20
876.80	228.28
877.11	228.20
877.42	228.19
877.73	228.26
878.04	228.24
878.35	228.33
878.66	228.30
878.96	228.24
879.27	228.42
879.58	228.34
879.89	228.34
880.20	228.50
880.51	228.42
880.82	228.49
881.12	228.53
881.43	228.56
881.74	228.55
882.05	228.58
882.36	228.58
882.67	228.66
882.97	228.33
883.28	228.25
883.59	228.37
883.90	228.49
884.21	228.52
884.51	228.58
884.82	228.58
885.13	228.55
885.44	228.56
885.74	228.47
886.05	228.64
886.36	228.64
886.67	228.62
886.98	228.80
887.28	228.83
887.59	228.85
887.90	228.90
888.20	228.86
888.51	228.97
888.82	229.06
889.13	229.15
889.43	229.52
889.74	229.62
890.05	229.65
890.35	229.65
890.66	229.66
890.97	229.70
891.28	229.74
891.58	229.82
891.89	229.85
892.20	229.90
892.50	229.89
892.81	229.80
893.12	229.83
893.42	229.64
893.73	229.63
894.04	229.58
894.34	229.52
894.65	229.52
894.95	229.49
895.26	229.50
895.57	229.49
895.87	229.22
896.18	229.24
896.48	229.25
896.79	229.33
897.10	229.33
897.40	229.31
897.71	229.32
898.01	229.23
898.32	229.31
898.63	229.24
898.93	229.28
899.24	229.35
899.54	229.29
899.85	229.40
900.15	229.37
900.46	229.38
900.76	229.43
901.07	229.40
901.38	229.40
901.68	229.42
901.99	229.37
902.29	229.37
902.60	229.30
902.90	229.27
903.21	229.09
903.51	229.04
903.82	229.05
904.12	228.96
904.43	228.91
904.73	228.78
905.03	228.76
905.34	228.76
905.64	228.70
905.95	228.73
906.25	228.64
906.56	228.59
906.86	228.56
907.17	228.59
907.47	228.64
907.77	228.52
908.08	228.43
908.38	228.45
908.69	228.46
908.99	228.50
909.30	228.44
909.60	228.43
909.90	228.33
910.21	228.20
910.51	228.16
910.81	228.17
911.12	228.33
911.42	228.35
911.73	228.19
912.03	228.23
912.33	228.20
912.64	228.22
912.94	228.12
913.24	228.10
913.55	227.91
913.85	227.90
914.15	227.97
914.46	227.94
914.76	227.88
915.06	227.85
915.37	227.77
915.67	227.78
915.97	227.84
916.27	227.84
916.58	227.98
916.88	228.02
917.18	228.04
917.49	227.99
917.79	227.96
918.09	228.02
918.39	228.12
918.70	228.17
919.00	228.20
919.30	228.36
919.60	228.33
919.91	228.39
920.21	228.39
920.51	228.36
920.81	228.31
921.12	228.36
921.42	228.39
921.72	228.42
922.02	228.53
922.32	228.58
922.63	228.66
922.93	228.70
923.23	228.75
923.53	228.71
923.83	228.68
924.13	228.77
924.44	228.81
924.74	228.85
925.04	228.85
925.34	228.88
925.64	228.88
925.94	228.80
926.24	228.98
926.55	228.96
926.85	229.03
927.15	229.14
927.45	229.15
927.75	229.22
928.05	229.27
928.35	229.12
928.65	229.15
928.95	229.18
929.26	229.20
929.56	229.14
929.86	229.21
930.16	229.30
930.46	229.21
930.76	229.24
931.06	229.20
931.36	229.12
931.66	229.14
931.96	229.12
932.26	229.24
932.56	229.24
932.86	229.23
933.16	229.19
933.46	229.16
933.76	229.20
934.06	229.15
934.36	229.20
934.66	229.25
934.96	229.30
935.26	229.28
935.56	229.23
935.86	229.22
936.16	229.28
936.46	229.20
936.76	229.28
937.06	229.15
937.36	229.10
937.66	229.13
937.96	229.04
938.26	229.04
938.56	229.01
938.86	228.87
939.16	228.96
939.46	229.00
939.76	229.03
940.06	228.97
940.35	228.97
940.65	228.82
940.95	228.80
941.25	228.56
941.55	228.50
941.85	228.43
942.15	228.49
942.45	228.47
942.75	228.35
943.04	228.31
943.34	228.35
943.64	228.30
943.94	228.20
944.24	228.20
944.54	228.17
944.84	228.14
945.13	228.20
945.43	228.11
945.73	228.01
946.03	227.97
946.33	227.90
946.62	227.80
946.92	227.82
947.22	227.82
947.52	227.91
947.82	228.01
948.11	227.98
948.41	227.89
948.71	227.75
949.01	227.87
949.31	227.85
949.60	227.83
949.90	227.90
950.20	227.90
950.50	227.84
950.79	227.81
951.09	227.84
951.39	227.73
951.69	227.66
951.98	227.80
952.28	227.84
952.58	227.86
952.87	227.89
953.17	227.90
953.47	227.84
953.76	227.83
954.06	227.72
954.36	227.83
954.66	227.82
954.95	227.90
955.25	227.87
955.55	227.80
955.84	227.75
956.14	227.61
956.44	227.66
956.73	227.72
957.03	227.71
957.32	227.77
957.62	227.84
957.92	227.86
958.21	227.81
958.51	227.99
958.81	227.98
959.10	228.04
959.40	228.07
959.69	228.07
959.99	228.11
960.29	228.16
960.58	228.07
960.88	228.15
961.17	228.19
961.47	228.22
961.76	228.34
962.06	228.38
962.36	228.41
962.65	228.46
962.95	228.50
963.24	228.51
963.54	228.49
963.83	228.46
964.13	228.52
964.42	228.43
964.72	228.22
965.01	228.15
965.31	228.08
965.60	227.98
965.90	228.13
966.19	228.18
966.49	228.16
966.78	228.15
967.08	228.18
967.37	228.22
967.67	228.24
967.96	228.17
968.26	228.22
968.55	228.26
968.85	228.18
969.14	228.13
969.43	228.05
969.73	228.06
970.02	227.99
970.32	227.91
970.61	227.92
970.91	227.83
971.20	227.86
971.49	227.80
971.79	227.89
972.08	227.78
972.38	227.65
972.67	227.64
972.96	227.66
973.26	227.59
973.55	227.62
973.85	227.56
974.14	227.54
974.43	227.46
974.73	227.49
975.02	227.48
975.31	227.36
975.61	227.36
975.90	227.24
976.19	227.20
976.49	227.29
976.78	227.31
977.07	227.43
977.37	227.40
977.66	227.48
977.95	227.40
978.24	227.41
978.54	227.46
978.83	227.47
979.12	227.46
979.42	227.45
979.71	227.36
980.00	227.36
980.29	227.36
980.59	227.38
980.88	227.31
981.17	227.30
981.46	227.35
981.76	227.41
982.05	227.63
982.34	227.72
982.63	227.71
982.93	227.68
983.22	227.66
983.51	227.78
983.80	227.71
984.09	227.77
984.39	227.79
984.68	227.74
984.97	227.74
985.26	227.71
985.55	227.74
985.85	227.72
986.14	227.76
986.43	227.83
986.72	227.87
987.01	227.90
987.30	227.93
987.59	228.03
987.89	228.07
988.18	227.94
988.47	227.95
988.76	227.91
989.05	227.92
989.34	227.90
989.63	227.91
989.92	228.00
990.22	228.05
990.51	228.01
990.80	228.07
991.09	228.18
991.38	228.16
991.67	228.11
991.96	228.17
992.25	228.04
992.54	228.07
992.83	228.08
993.12	228.12
993.41	228.19
993.70	228.25
993.99	228.27
994.28	228.26
994.58	228.34
994.87	228.34
995.16	228.37
995.45	228.33
995.74	228.36
996.03	228.37
996.32	228.40
996.61	228.47
996.90	228.52
997.19	228.40
997.48	228.42
997.77	228.40
998.06	228.30
998.34	228.40
998.63	228.38
998.92	228.45
999.21	228.40
999.50	228.42
999.79	228.40
1000.08	228.39
1000.37	228.40
1000.66	228.33
1000.95	228.44
1001.24	228.51
1001.53	228.62
1001.82	228.55
1002.11	228.52
1002.40	228.53
1002.68	228.56
1002.97	228.71
1003.26	228.72
1003.55	228.74
1003.84	228.80
1004.13	228.93
1004.42	228.93
1004.71	228.91
1004.99	228.89
1005.28	229.01
1005.57	228.87
1005.86	228.78
1006.15	228.79
1006.44	228.79
1006.72	228.74
1007.01	228.62
1007.30	228.55
1007.59	228.53
1007.88	228.47
1008.17	228.48
1008.45	228.40
1008.74	228.23
1009.03	228.13
1009.32	228.17
1009.60	228.24
1009.89	228.21
1010.18	228.18
1010.47	228.08
1010.76	227.99
1011.04	227.89
1011.33	228.10
1011.62	228.25
1011.91	228.29
1012.19	228.29
1012.48	228.34
1012.77	228.41
1013.05	228.48
1013.34	228.39
1013.63	228.32
1013.92	228.31
1014.20	228.26
1014.49	228.16
1014.78	228.23
1015.06	228.06
1015.35	227.95
1015.64	227.88
1015.92	227.82
1016.21	227.80
1016.50	227.93
1016.78	228.00
1017.07	228.10
1017.36	227.76
1017.64	227.68
1017.93	227.71
1018.22	227.78
1018.50	227.76
1018.79	227.79
1019.08	227.77
1019.36	227.90
1019.65	227.85
1019.93	227.91
1020.22	228.02
1020.51	228.17
1020.79	228.16
1021.08	229.80
1021.36	228.50
1021.65	228.90
1021.94	228.40
1022.22	228.80
1022.51	226.70
1022.79	228.10
1023.08	229.40
1023.36	229.40
1023.65	227.50
>>>>>End Processed Spectral Data<<<<<
