SpectraSuite Data File
++++++++++++++++++++++++++++++++++++
Date: Fri Feb 01 14:37:34 EST 2013
User: group
Dark Spectrum Present: No
Reference Spectrum Present: No
Number of Sampled Component Spectra: 1
Spectrometers: USB2E7196
Integration Time (usec): 70000 (USB2E7196)
Spectra Averaged: 10 (USB2E7196)
Boxcar Smoothing: 10 (USB2E7196)
Correct for Electrical Dark: No (USB2E7196)
Strobe/Lamp Enabled: No (USB2E7196)
Correct for Detector Non-linearity: No (USB2E7196)
Correct for Stray Light: No (USB2E7196)
Number of Pixels in Processed Spectrum: 2048
>>>>>Begin Processed Spectral Data<<<<<
339.09	0.00
339.48	218.00
339.86	218.40
340.24	218.80
340.63	220.90
341.01	224.30
341.39	224.00
341.78	226.70
342.16	226.40
342.54	225.40
342.93	214.89
343.31	225.72
343.69	226.16
344.07	226.54
344.46	226.97
344.84	227.35
345.22	227.55
345.60	227.73
345.99	227.88
346.37	227.98
346.75	228.12
347.13	228.01
347.52	228.07
347.90	228.15
348.28	228.07
348.66	228.21
349.05	228.23
349.43	228.39
349.81	228.37
350.19	228.35
350.57	228.30
350.96	228.34
351.34	228.41
351.72	228.51
352.10	228.59
352.48	228.64
352.87	228.60
353.25	228.60
353.63	228.65
354.01	228.64
354.39	228.69
354.77	228.64
355.15	228.80
355.54	228.76
355.92	228.85
356.30	228.90
356.68	229.11
357.06	229.13
357.44	229.12
357.82	229.19
358.20	229.33
358.58	229.43
358.97	229.41
359.35	229.49
359.73	229.51
360.11	229.64
360.49	229.67
360.87	229.80
361.25	229.92
361.63	230.00
362.01	230.03
362.39	230.16
362.77	230.24
363.15	230.31
363.53	230.44
363.91	230.46
364.29	230.63
364.67	230.35
365.05	230.32
365.43	230.33
365.81	230.44
366.19	230.34
366.57	230.45
366.95	230.48
367.33	230.46
367.71	230.46
368.09	230.48
368.47	230.50
368.85	230.46
369.23	230.50
369.61	230.46
369.99	230.52
370.37	230.39
370.75	230.52
371.13	230.39
371.51	230.28
371.89	230.20
372.27	230.14
372.65	230.13
373.03	230.13
373.41	230.06
373.78	229.96
374.16	229.82
374.54	229.59
374.92	229.58
375.30	229.52
375.68	229.47
376.06	229.32
376.44	229.31
376.82	229.18
377.19	229.07
377.57	228.93
377.95	228.78
378.33	228.80
378.71	228.52
379.09	228.56
379.47	228.52
379.84	228.42
380.22	228.24
380.60	228.10
380.98	227.94
381.36	227.90
381.73	227.76
382.11	227.81
382.49	227.83
382.87	227.70
383.25	227.52
383.62	227.72
384.00	227.61
384.38	227.44
384.76	227.43
385.13	227.45
385.51	227.42
385.89	227.28
386.27	227.15
386.64	227.14
387.02	227.04
387.40	226.93
387.78	226.85
388.15	226.81
388.53	226.84
388.91	226.82
389.29	226.70
389.66	226.71
390.04	226.63
390.42	226.60
390.79	226.54
391.17	226.49
391.55	226.19
391.92	226.20
392.30	226.19
392.68	226.17
393.05	226.08
393.43	226.02
393.81	226.09
394.18	226.11
394.56	226.10
394.94	226.07
395.31	226.07
395.69	226.20
396.06	226.32
396.44	226.28
396.82	226.25
397.19	226.41
397.57	226.39
397.95	226.58
398.32	226.49
398.70	226.59
399.07	226.70
399.45	226.73
399.82	226.85
400.20	226.98
400.58	227.14
400.95	227.19
401.33	227.35
401.70	227.53
402.08	227.61
402.45	227.77
402.83	228.04
403.20	228.19
403.58	228.34
403.95	228.53
404.33	228.76
404.71	229.03
405.08	229.31
405.46	229.67
405.83	229.76
406.21	230.07
406.58	230.35
406.96	230.60
407.33	230.94
407.70	231.20
408.08	231.61
408.45	231.90
408.83	232.20
409.20	232.58
409.58	232.79
409.95	233.13
410.33	233.54
410.70	233.81
411.08	234.32
411.45	234.80
411.82	235.21
412.20	235.76
412.57	236.42
412.95	236.86
413.32	237.47
413.69	238.07
414.07	238.79
414.44	239.49
414.82	240.26
415.19	241.14
415.56	241.98
415.94	242.80
416.31	243.72
416.68	244.76
417.06	245.85
417.43	247.07
417.81	248.33
418.18	249.57
418.55	250.98
418.93	252.45
419.30	253.79
419.67	255.22
420.04	256.79
420.42	258.38
420.79	260.27
421.16	262.11
421.54	264.08
421.91	266.13
422.28	268.19
422.66	270.41
423.03	272.54
423.40	274.83
423.77	277.20
424.15	279.66
424.52	282.18
424.89	284.75
425.26	287.30
425.64	289.76
426.01	292.54
426.38	295.28
426.75	298.03
427.13	301.05
427.50	304.30
427.87	307.56
428.24	310.78
428.61	313.82
428.99	317.19
429.36	321.01
429.73	324.66
430.10	328.31
430.47	332.04
430.85	335.79
431.22	339.66
431.59	343.89
431.96	347.90
432.33	352.40
432.70	356.69
433.08	361.75
433.45	366.64
433.82	371.44
434.19	376.70
434.56	382.08
434.93	387.13
435.30	392.02
435.68	397.37
436.05	402.60
436.42	407.81
436.79	412.57
437.16	417.55
437.53	422.77
437.90	428.04
438.27	433.29
438.64	438.66
439.01	443.92
439.38	448.48
439.75	452.98
440.13	458.04
440.50	462.82
440.87	466.92
441.24	470.83
441.61	475.24
441.98	478.58
442.35	482.29
442.72	486.28
443.09	490.35
443.46	492.82
443.83	494.73
444.20	496.39
444.57	498.70
444.94	500.06
445.31	501.44
445.68	502.81
446.05	503.57
446.42	503.76
446.79	503.61
447.16	503.54
447.53	503.57
447.90	502.22
448.27	500.95
448.64	498.51
449.01	497.34
449.37	494.33
449.74	491.47
450.11	487.86
450.48	483.60
450.85	479.20
451.22	475.65
451.59	472.26
451.96	469.10
452.33	464.58
452.70	460.57
453.07	455.60
453.43	450.65
453.80	446.04
454.17	441.29
454.54	436.78
454.91	431.88
455.28	427.19
455.65	422.43
456.02	417.82
456.38	414.05
456.75	409.08
457.12	405.04
457.49	401.02
457.86	397.13
458.23	394.07
458.59	390.50
458.96	386.85
459.33	383.53
459.70	380.26
460.07	377.57
460.43	374.44
460.80	371.36
461.17	368.58
461.54	365.72
461.91	363.13
462.27	360.50
462.64	358.10
463.01	355.44
463.38	353.07
463.74	350.69
464.11	348.45
464.48	346.44
464.85	344.32
465.21	342.73
465.58	340.97
465.95	338.80
466.32	337.00
466.68	335.25
467.05	333.40
467.42	331.52
467.78	329.69
468.15	327.85
468.52	326.79
468.88	325.14
469.25	323.67
469.62	322.24
469.98	320.92
470.35	319.59
470.72	318.34
471.08	317.10
471.45	315.92
471.82	314.81
472.18	313.49
472.55	312.52
472.92	311.27
473.28	310.41
473.65	309.37
474.02	308.32
474.38	307.51
474.75	306.80
475.11	306.00
475.48	305.35
475.85	304.73
476.21	304.00
476.58	303.53
476.94	302.95
477.31	302.43
477.67	301.83
478.04	301.47
478.41	301.08
478.77	300.78
479.14	300.28
479.50	299.88
479.87	299.75
480.23	299.59
480.60	299.30
480.96	298.90
481.33	298.80
481.69	298.66
482.06	298.33
482.42	297.98
482.79	297.92
483.15	297.79
483.52	297.99
483.88	298.03
484.25	297.92
484.61	297.81
484.98	297.89
485.34	298.07
485.71	298.14
486.07	298.35
486.44	298.38
486.80	298.70
487.17	298.98
487.53	299.34
487.90	299.52
488.26	299.89
488.62	300.24
488.99	300.47
489.35	300.93
489.72	301.42
490.08	302.05
490.44	302.50
490.81	303.11
491.17	303.41
491.54	303.85
491.90	304.42
492.26	305.05
492.63	305.66
492.99	306.15
493.36	306.73
493.72	307.24
494.08	307.79
494.45	308.50
494.81	309.20
495.17	309.71
495.54	310.55
495.90	311.28
496.26	311.96
496.63	312.71
496.99	313.48
497.35	314.11
497.72	314.70
498.08	315.37
498.44	315.99
498.80	316.77
499.17	317.58
499.53	318.33
499.89	318.88
500.26	319.43
500.62	320.01
500.98	320.66
501.34	321.40
501.71	322.15
502.07	322.68
502.43	323.31
502.79	323.90
503.16	324.33
503.52	324.78
503.88	325.27
504.24	325.76
504.60	326.13
504.97	326.69
505.33	327.17
505.69	327.66
506.05	327.96
506.41	328.23
506.78	328.45
507.14	328.68
507.50	329.19
507.86	329.50
508.22	329.88
508.59	329.99
508.95	330.21
509.31	330.42
509.67	330.60
510.03	330.75
510.39	330.80
510.75	330.89
511.12	330.91
511.48	331.00
511.84	331.06
512.20	331.06
512.56	331.18
512.92	331.25
513.28	331.29
513.64	331.40
514.00	331.44
514.37	331.45
514.73	331.44
515.09	331.39
515.45	331.48
515.81	331.47
516.17	331.74
516.53	331.79
516.89	331.89
517.25	332.02
517.61	332.20
517.97	332.57
518.33	332.87
518.69	333.30
519.05	333.72
519.41	334.15
519.77	334.77
520.13	335.14
520.49	335.61
520.85	336.11
521.21	336.77
521.57	337.41
521.93	338.22
522.29	339.09
522.65	339.93
523.01	340.83
523.37	341.70
523.73	342.50
524.09	343.59
524.45	344.65
524.81	345.81
525.17	347.02
525.53	348.28
525.89	349.53
526.25	351.01
526.61	352.32
526.97	353.77
527.33	355.13
527.68	356.99
528.04	358.86
528.40	360.60
528.76	362.52
529.12	364.55
529.48	366.55
529.84	368.64
530.20	370.91
530.56	373.29
530.91	375.90
531.27	378.65
531.63	381.15
531.99	383.76
532.35	386.45
532.71	389.06
533.07	392.09
533.42	395.19
533.78	398.24
534.14	401.43
534.50	404.62
534.86	408.07
535.21	411.26
535.57	414.76
535.93	418.35
536.29	422.09
536.65	425.84
537.00	429.48
537.36	433.40
537.72	437.33
538.08	441.33
538.44	445.14
538.79	449.09
539.15	453.16
539.51	457.32
539.87	461.68
540.22	465.86
540.58	470.04
540.94	474.38
541.29	478.69
541.65	483.13
542.01	487.64
542.37	492.14
542.72	496.58
543.08	500.99
543.44	505.59
543.79	509.68
544.15	514.20
544.51	519.28
544.87	523.92
545.22	528.65
545.58	533.20
545.94	537.97
546.29	542.64
546.65	547.37
547.01	552.22
547.36	556.89
547.72	561.70
548.07	566.55
548.43	571.33
548.79	576.16
549.14	581.08
549.50	585.92
549.86	590.70
550.21	595.59
550.57	600.62
550.92	605.50
551.28	610.64
551.64	615.52
551.99	620.10
552.35	625.05
552.70	629.83
553.06	634.62
553.41	639.51
553.77	644.43
554.13	649.30
554.48	654.18
554.84	659.02
555.19	664.19
555.55	669.06
555.90	673.83
556.26	678.58
556.61	683.33
556.97	687.87
557.32	692.73
557.68	697.44
558.03	702.14
558.39	706.86
558.74	711.54
559.10	716.39
559.45	721.05
559.81	725.83
560.16	730.35
560.52	735.24
560.87	739.81
561.23	744.17
561.58	748.93
561.94	753.10
562.29	757.49
562.64	761.41
563.00	765.53
563.35	769.98
563.71	774.25
564.06	778.69
564.42	782.97
564.77	786.98
565.12	791.27
565.48	795.32
565.83	799.09
566.19	803.08
566.54	806.75
566.89	810.51
567.25	814.16
567.60	817.92
567.96	821.39
568.31	824.89
568.66	828.47
569.02	831.68
569.37	835.32
569.72	838.79
570.08	842.00
570.43	845.37
570.78	848.19
571.14	851.26
571.49	853.66
571.84	856.92
572.20	859.50
572.55	862.03
572.90	864.48
573.26	867.30
573.61	869.79
573.96	872.20
574.31	874.10
574.67	875.81
575.02	877.70
575.37	879.69
575.72	881.29
576.08	883.31
576.43	885.04
576.78	886.79
577.13	888.40
577.49	890.63
577.84	892.14
578.19	893.84
578.54	895.34
578.90	896.74
579.25	897.28
579.60	898.58
579.95	899.65
580.30	900.86
580.66	901.52
581.01	902.12
581.36	902.88
581.71	904.07
582.06	905.38
582.42	906.23
582.77	906.86
583.12	907.81
583.47	908.23
583.82	908.83
584.17	908.90
584.53	909.01
584.88	909.10
585.23	909.39
585.58	909.31
585.93	909.36
586.28	910.06
586.63	910.90
586.98	910.89
587.34	911.17
587.69	911.07
588.04	911.40
588.39	911.63
588.74	911.15
589.09	910.99
589.44	910.42
589.79	910.20
590.14	910.02
590.49	909.40
590.84	909.02
591.19	908.90
591.54	908.47
591.89	907.74
592.25	907.31
592.60	906.29
592.95	905.47
593.30	904.40
593.65	903.15
594.00	901.96
594.35	901.67
594.70	900.50
595.05	899.54
595.40	898.21
595.75	896.98
596.10	896.35
596.45	895.44
596.80	894.84
597.15	893.77
597.50	892.60
597.85	891.90
598.19	891.11
598.54	889.64
598.89	888.74
599.24	887.90
599.59	886.55
599.94	885.51
600.29	884.80
600.64	883.71
600.99	882.36
601.34	881.12
601.69	879.40
602.04	877.83
602.39	876.36
602.74	875.20
603.08	874.10
603.43	873.04
603.78	871.53
604.13	869.80
604.48	868.29
604.83	866.68
605.18	865.07
605.53	863.12
605.87	861.16
606.22	859.49
606.57	857.78
606.92	855.72
607.27	854.21
607.62	852.52
607.96	850.89
608.31	849.33
608.66	847.36
609.01	845.19
609.36	843.28
609.70	840.80
610.05	838.26
610.40	836.05
610.75	833.48
611.10	830.93
611.44	828.07
611.79	825.63
612.14	823.23
612.49	820.21
612.83	817.69
613.18	815.32
613.53	812.47
613.88	809.58
614.22	807.20
614.57	804.40
614.92	801.33
615.27	798.76
615.61	795.71
615.96	793.10
616.31	790.46
616.65	788.21
617.00	786.08
617.35	783.90
617.70	781.19
618.04	778.34
618.39	775.89
618.74	773.47
619.08	770.68
619.43	768.11
619.78	765.78
620.12	763.10
620.47	760.33
620.82	757.68
621.16	755.17
621.51	752.45
621.85	749.70
622.20	747.08
622.55	744.46
622.89	741.87
623.24	739.21
623.59	736.72
623.93	733.81
624.28	731.20
624.62	728.44
624.97	725.79
625.32	723.36
625.66	720.71
626.01	718.20
626.35	715.66
626.70	712.94
627.04	710.37
627.39	707.78
627.73	705.38
628.08	702.94
628.43	700.24
628.77	697.49
629.12	694.70
629.46	691.93
629.81	688.68
630.15	685.90
630.50	683.04
630.84	680.08
631.19	677.21
631.53	674.19
631.88	671.12
632.22	668.13
632.57	665.46
632.91	662.67
633.26	659.74
633.60	656.71
633.95	654.02
634.29	651.26
634.64	648.53
634.98	645.79
635.32	643.27
635.67	640.85
636.01	638.42
636.36	635.76
636.70	633.18
637.05	630.86
637.39	628.58
637.73	626.14
638.08	623.88
638.42	621.63
638.77	619.22
639.11	616.82
639.45	614.37
639.80	611.76
640.14	609.07
640.49	606.84
640.83	604.60
641.17	602.06
641.52	599.61
641.86	597.17
642.20	594.70
642.55	591.98
642.89	589.41
643.23	586.83
643.58	584.47
643.92	581.96
644.26	579.54
644.61	577.08
644.95	574.72
645.29	572.01
645.64	569.21
645.98	566.81
646.32	564.33
646.66	561.73
647.01	559.26
647.35	556.98
647.69	554.36
648.04	551.84
648.38	549.26
648.72	546.73
649.06	543.83
649.41	541.17
649.75	538.47
650.09	536.00
650.43	533.37
650.78	530.83
651.12	528.38
651.46	526.09
651.80	523.58
652.14	520.93
652.49	518.73
652.83	516.42
653.17	513.88
653.51	511.42
653.85	509.20
654.20	506.61
654.54	504.12
654.88	501.56
655.22	499.01
655.56	496.51
655.90	494.00
656.25	491.87
656.59	489.50
656.93	487.28
657.27	484.88
657.61	482.47
657.95	480.27
658.29	478.06
658.64	475.58
658.98	473.07
659.32	470.65
659.66	468.12
660.00	465.87
660.34	463.44
660.68	461.30
661.02	458.91
661.36	456.85
661.70	454.70
662.05	452.82
662.39	450.90
662.73	449.06
663.07	447.12
663.41	445.07
663.75	443.24
664.09	441.30
664.43	439.36
664.77	437.60
665.11	435.79
665.45	433.86
665.79	431.97
666.13	430.18
666.47	428.40
666.81	426.49
667.15	424.50
667.49	422.77
667.83	420.85
668.17	419.09
668.51	417.19
668.85	415.36
669.19	413.52
669.53	411.72
669.87	409.92
670.21	408.35
670.55	406.74
670.89	405.16
671.23	403.71
671.57	402.12
671.91	400.54
672.25	398.80
672.58	397.25
672.92	395.65
673.26	394.23
673.60	392.91
673.94	391.50
674.28	390.25
674.62	388.99
674.96	387.59
675.30	386.25
675.64	384.97
675.97	383.58
676.31	382.26
676.65	381.05
676.99	379.74
677.33	378.19
677.67	376.98
678.01	375.49
678.34	374.08
678.68	372.79
679.02	371.46
679.36	370.16
679.70	368.87
680.04	367.51
680.37	366.10
680.71	364.66
681.05	363.49
681.39	362.34
681.73	361.01
682.06	359.91
682.40	358.72
682.74	357.46
683.08	356.36
683.42	354.98
683.75	353.80
684.09	352.45
684.43	351.20
684.77	349.86
685.10	348.71
685.44	347.46
685.78	346.28
686.12	345.10
686.45	343.83
686.79	342.64
687.13	341.68
687.46	340.60
687.80	339.51
688.14	338.35
688.48	337.05
688.81	335.98
689.15	334.89
689.49	333.81
689.82	332.80
690.16	331.66
690.50	330.78
690.83	329.58
691.17	328.54
691.51	327.61
691.84	326.63
692.18	325.49
692.52	324.35
692.85	323.24
693.19	322.28
693.52	321.35
693.86	320.18
694.20	319.02
694.53	317.93
694.87	316.90
695.21	315.98
695.54	314.91
695.88	313.77
696.21	312.68
696.55	311.73
696.88	310.73
697.22	309.85
697.56	308.98
697.89	308.11
698.23	307.28
698.56	306.50
698.90	305.71
699.23	304.87
699.57	304.10
699.90	303.23
700.24	302.24
700.58	301.28
700.91	300.63
701.25	300.05
701.58	299.29
701.92	298.49
702.25	297.60
702.59	297.01
702.92	296.33
703.26	295.62
703.59	294.86
703.93	294.23
704.26	293.52
704.60	292.80
704.93	292.06
705.26	291.39
705.60	290.71
705.93	290.00
706.27	289.49
706.60	288.94
706.94	288.44
707.27	287.75
707.61	287.19
707.94	286.56
708.27	285.71
708.61	285.15
708.94	284.66
709.28	284.06
709.61	283.38
709.94	282.91
710.28	282.43
710.61	281.88
710.95	281.22
711.28	280.78
711.61	280.13
711.95	279.66
712.28	279.14
712.61	278.44
712.95	277.91
713.28	277.45
713.61	276.90
713.95	276.22
714.28	275.89
714.61	275.38
714.95	274.89
715.28	274.46
715.61	274.00
715.95	273.50
716.28	273.16
716.61	272.68
716.95	272.13
717.28	271.68
717.61	271.30
717.94	270.87
718.28	270.23
718.61	269.85
718.94	269.37
719.27	268.94
719.61	268.68
719.94	268.22
720.27	267.63
720.60	267.25
720.94	266.96
721.27	266.56
721.60	266.23
721.93	265.90
722.27	265.64
722.60	265.28
722.93	264.94
723.26	264.49
723.59	264.13
723.93	263.83
724.26	263.46
724.59	263.11
724.92	262.83
725.25	262.52
725.59	262.11
725.92	261.92
726.25	261.55
726.58	261.18
726.91	260.97
727.24	260.66
727.57	260.19
727.91	259.70
728.24	259.41
728.57	259.03
728.90	258.67
729.23	258.20
729.56	257.96
729.89	257.53
730.22	257.27
730.55	256.98
730.89	256.72
731.22	256.45
731.55	256.13
731.88	255.68
732.21	255.45
732.54	255.17
732.87	254.73
733.20	254.40
733.53	254.09
733.86	253.72
734.19	253.50
734.52	253.34
734.85	253.36
735.18	252.94
735.51	252.77
735.84	252.48
736.17	252.20
736.50	251.84
736.83	251.92
737.16	251.68
737.49	251.45
737.82	251.01
738.15	250.71
738.48	250.28
738.81	250.11
739.14	249.81
739.47	249.54
739.80	249.38
740.13	249.28
740.46	249.00
740.79	248.75
741.12	248.47
741.45	248.13
741.78	247.73
742.11	247.66
742.44	247.38
742.77	247.17
743.10	247.03
743.43	246.84
743.75	246.30
744.08	246.24
744.41	245.92
744.74	245.75
745.07	245.51
745.40	245.45
745.73	245.21
746.06	245.05
746.39	244.74
746.71	244.48
747.04	244.16
747.37	244.00
747.70	243.83
748.03	243.66
748.36	243.52
748.68	243.34
749.01	243.06
749.34	242.98
749.67	242.80
750.00	242.56
750.33	242.45
750.65	242.35
750.98	242.00
751.31	241.93
751.64	241.86
751.97	241.79
752.29	241.66
752.62	241.56
752.95	241.44
753.28	241.40
753.60	241.25
753.93	241.13
754.26	241.02
754.59	240.86
754.91	240.73
755.24	240.70
755.57	240.60
755.90	240.50
756.22	240.17
756.55	240.06
756.88	239.89
757.20	239.69
757.53	239.56
757.86	239.48
758.19	239.40
758.51	239.31
758.84	239.21
759.17	239.14
759.49	239.07
759.82	239.13
760.15	239.09
760.47	239.00
760.80	238.86
761.13	238.77
761.45	238.69
761.78	238.65
762.11	238.49
762.43	238.47
762.76	238.43
763.08	238.50
763.41	238.46
763.74	238.47
764.06	238.45
764.39	238.38
764.71	238.26
765.04	238.15
765.37	237.99
765.69	237.83
766.02	237.68
766.34	237.53
766.67	237.17
767.00	237.11
767.32	237.16
767.65	237.24
767.97	237.12
768.30	237.02
768.62	236.84
768.95	236.76
769.27	236.64
769.60	236.52
769.92	236.37
770.25	236.20
770.57	236.04
770.90	235.84
771.22	235.72
771.55	235.68
771.87	235.61
772.20	235.58
772.52	235.62
772.85	235.74
773.17	235.66
773.50	235.60
773.82	235.36
774.15	235.13
774.47	234.85
774.80	234.85
775.12	234.77
775.45	234.70
775.77	234.61
776.09	234.50
776.42	234.43
776.74	234.43
777.07	234.45
777.39	234.44
777.72	234.50
778.04	234.46
778.36	234.40
778.69	234.28
779.01	234.18
779.33	233.97
779.66	233.65
779.98	233.61
780.31	233.53
780.63	233.63
780.95	233.63
781.28	233.68
781.60	233.44
781.92	233.30
782.25	233.21
782.57	233.11
782.89	232.93
783.22	232.81
783.54	232.72
783.86	232.60
784.19	232.61
784.51	232.53
784.83	232.40
785.16	232.25
785.48	232.23
785.80	232.13
786.12	232.08
786.45	232.01
786.77	231.91
787.09	231.88
787.42	231.85
787.74	231.75
788.06	231.69
788.38	231.67
788.71	231.70
789.03	231.67
789.35	231.73
789.67	231.77
789.99	231.78
790.32	231.64
790.64	231.63
790.96	231.61
791.28	231.45
791.61	231.45
791.93	231.44
792.25	231.37
792.57	231.58
792.89	231.64
793.21	231.73
793.54	231.71
793.86	231.72
794.18	231.70
794.50	231.66
794.82	231.63
795.14	231.68
795.47	231.66
795.79	231.75
796.11	231.65
796.43	231.65
796.75	231.63
797.07	231.72
797.39	231.71
797.71	231.54
798.04	231.50
798.36	231.48
798.68	231.43
799.00	231.50
799.32	231.34
799.64	231.30
799.96	231.21
800.28	231.29
800.60	231.30
800.92	231.28
801.24	231.33
801.56	231.31
801.89	231.31
802.21	231.35
802.53	231.37
802.85	231.40
803.17	231.45
803.49	231.39
803.81	231.41
804.13	231.40
804.45	231.41
804.77	231.46
805.09	231.45
805.41	231.50
805.73	231.45
806.05	231.40
806.37	231.32
806.69	231.34
807.01	231.24
807.33	231.20
807.65	231.06
807.97	231.06
808.28	230.99
808.60	230.99
808.92	230.86
809.24	230.80
809.56	230.70
809.88	230.61
810.20	230.60
810.52	230.48
810.84	230.36
811.16	230.27
811.48	230.29
811.80	230.37
812.12	230.34
812.43	230.19
812.75	230.16
813.07	230.06
813.39	229.95
813.71	229.98
814.03	229.84
814.35	229.83
814.67	229.64
814.98	229.70
815.30	229.59
815.62	229.60
815.94	229.43
816.26	229.45
816.58	229.37
816.89	229.38
817.21	229.41
817.53	229.38
817.85	229.49
818.17	229.38
818.48	229.18
818.80	229.17
819.12	229.28
819.44	229.17
819.76	229.11
820.07	229.20
820.39	229.02
820.71	229.08
821.03	229.01
821.34	229.04
821.66	229.00
821.98	229.06
822.30	228.93
822.61	229.07
822.93	228.95
823.25	229.00
823.57	228.90
823.88	228.77
824.20	228.76
824.52	228.75
824.83	228.73
825.15	228.72
825.47	228.64
825.79	228.54
826.10	228.59
826.42	228.61
826.74	228.46
827.05	228.51
827.37	228.43
827.69	228.44
828.00	228.43
828.32	228.34
828.64	228.25
828.95	228.43
829.27	228.41
829.58	228.47
829.90	228.46
830.22	228.53
830.53	228.58
830.85	228.58
831.17	228.50
831.48	228.50
831.80	228.53
832.11	228.58
832.43	228.66
832.75	228.63
833.06	228.71
833.38	228.81
833.69	228.74
834.01	228.80
834.32	228.78
834.64	228.81
834.96	228.86
835.27	229.00
835.59	228.97
835.90	228.88
836.22	228.99
836.53	228.94
836.85	228.94
837.16	229.14
837.48	229.30
837.79	229.42
838.11	229.53
838.42	229.54
838.74	229.55
839.05	229.53
839.37	229.59
839.68	229.62
840.00	229.61
840.31	229.79
840.63	229.77
840.94	229.89
841.26	229.85
841.57	229.85
841.88	229.85
842.20	229.81
842.51	229.79
842.83	229.67
843.14	229.90
843.46	229.90
843.77	229.78
844.08	229.64
844.40	229.52
844.71	229.44
845.03	229.41
845.34	229.47
845.65	229.50
845.97	229.56
846.28	229.60
846.60	229.57
846.91	229.51
847.22	229.55
847.54	229.57
847.85	229.63
848.16	229.66
848.48	229.64
848.79	229.71
849.10	229.75
849.42	229.89
849.73	229.69
850.04	229.66
850.36	229.63
850.67	229.61
850.98	229.73
851.30	229.77
851.61	229.91
851.92	229.82
852.23	229.85
852.55	229.80
852.86	229.72
853.17	229.71
853.49	229.77
853.80	229.70
854.11	229.71
854.42	229.70
854.74	229.65
855.05	229.61
855.36	229.47
855.67	229.66
855.99	229.58
856.30	229.81
856.61	229.73
856.92	229.63
857.23	229.68
857.55	229.54
857.86	229.49
858.17	229.39
858.48	229.24
858.79	229.10
859.11	229.04
859.42	229.03
859.73	229.00
860.04	228.89
860.35	228.89
860.66	228.67
860.98	228.58
861.29	228.67
861.60	228.60
861.91	228.66
862.22	228.34
862.53	228.27
862.84	227.87
863.16	228.02
863.47	228.01
863.78	227.86
864.09	227.76
864.40	227.71
864.71	227.63
865.02	227.70
865.33	227.69
865.64	227.60
865.95	227.41
866.27	227.50
866.58	227.48
866.89	227.47
867.20	227.58
867.51	227.57
867.82	227.52
868.13	227.53
868.44	227.56
868.75	227.74
869.06	227.68
869.37	227.79
869.68	227.72
869.99	227.77
870.30	227.84
870.61	227.93
870.92	227.90
871.23	227.95
871.54	228.05
871.85	228.21
872.16	228.27
872.47	228.32
872.78	228.28
873.09	228.35
873.40	228.39
873.71	228.43
874.02	228.42
874.33	228.28
874.64	228.31
874.95	228.31
875.26	228.18
875.56	228.25
875.87	228.26
876.18	228.30
876.49	228.52
876.80	228.52
877.11	228.60
877.42	228.75
877.73	228.88
878.04	228.83
878.35	228.80
878.66	228.85
878.96	228.94
879.27	228.87
879.58	228.95
879.89	228.88
880.20	228.91
880.51	228.94
880.82	229.05
881.12	229.00
881.43	228.93
881.74	228.90
882.05	228.88
882.36	228.90
882.67	228.85
882.97	228.67
883.28	228.84
883.59	228.71
883.90	228.66
884.21	228.63
884.51	228.72
884.82	228.63
885.13	228.68
885.44	228.80
885.74	228.80
886.05	228.71
886.36	228.89
886.67	228.84
886.98	228.92
887.28	228.99
887.59	229.10
887.90	229.10
888.20	229.15
888.51	229.18
888.82	229.13
889.13	229.12
889.43	229.37
889.74	229.32
890.05	229.40
890.35	229.40
890.66	229.28
890.97	229.12
891.28	229.21
891.58	229.21
891.89	229.10
892.20	229.18
892.50	229.15
892.81	229.02
893.12	229.06
893.42	228.97
893.73	228.95
894.04	228.85
894.34	228.97
894.65	228.95
894.95	228.93
895.26	228.99
895.57	229.14
895.87	228.80
896.18	228.75
896.48	228.70
896.79	228.73
897.10	228.78
897.40	228.79
897.71	228.71
898.01	228.69
898.32	228.70
898.63	228.60
898.93	228.59
899.24	228.51
899.54	228.47
899.85	228.53
900.15	228.42
900.46	228.38
900.76	228.40
901.07	228.34
901.38	228.28
901.68	228.24
901.99	228.03
902.29	228.05
902.60	228.03
902.90	228.06
903.21	227.95
903.51	227.90
903.82	228.01
904.12	227.91
904.43	227.83
904.73	227.77
905.03	227.71
905.34	227.76
905.64	227.76
905.95	227.76
906.25	227.70
906.56	227.75
906.86	227.77
907.17	227.60
907.47	227.65
907.77	227.58
908.08	227.51
908.38	227.60
908.69	227.61
908.99	227.59
909.30	227.63
909.60	227.66
909.90	227.66
910.21	227.55
910.51	227.57
910.81	227.60
911.12	227.62
911.42	227.70
911.73	227.62
912.03	227.67
912.33	227.71
912.64	227.74
912.94	227.75
913.24	227.74
913.55	227.81
913.85	227.80
914.15	228.01
914.46	228.08
914.76	227.97
915.06	227.94
915.37	227.94
915.67	227.92
915.97	227.94
916.27	228.00
916.58	228.00
916.88	228.04
917.18	228.01
917.49	228.07
917.79	228.01
918.09	228.12
918.39	228.22
918.70	228.15
919.00	228.16
919.30	228.23
919.60	228.25
919.91	228.23
920.21	228.32
920.51	228.20
920.81	228.17
921.12	228.40
921.42	228.40
921.72	228.50
922.02	228.45
922.32	228.48
922.63	228.46
922.93	228.56
923.23	228.60
923.53	228.64
923.83	228.63
924.13	228.80
924.44	228.64
924.74	228.66
925.04	228.75
925.34	228.71
925.64	228.60
925.94	228.51
926.24	228.66
926.55	228.66
926.85	228.78
927.15	228.88
927.45	228.82
927.75	228.92
928.05	228.81
928.35	228.95
928.65	229.00
928.95	229.08
929.26	229.02
929.56	228.97
929.86	229.07
930.16	229.10
930.46	228.98
930.76	229.01
931.06	228.94
931.36	228.89
931.66	229.00
931.96	229.00
932.26	229.04
932.56	228.91
932.86	228.85
933.16	228.71
933.46	228.55
933.76	228.48
934.06	228.40
934.36	228.44
934.66	228.32
934.96	228.27
935.26	228.23
935.56	228.30
935.86	228.30
936.16	228.20
936.46	228.07
936.76	228.18
937.06	228.19
937.36	228.12
937.66	228.04
937.96	227.87
938.26	227.85
938.56	227.88
938.86	227.90
939.16	228.00
939.46	228.06
939.76	228.10
940.06	228.03
940.35	227.96
940.65	227.90
940.95	227.84
941.25	227.78
941.55	227.76
941.85	227.77
942.15	227.86
942.45	227.86
942.75	227.95
943.04	227.90
943.34	227.86
943.64	227.90
943.94	227.90
944.24	227.99
944.54	228.09
944.84	228.03
945.13	228.01
945.43	227.87
945.73	227.89
946.03	227.93
946.33	227.90
946.62	227.90
946.92	227.95
947.22	228.05
947.52	228.07
947.82	228.08
948.11	227.99
948.41	227.85
948.71	227.83
949.01	227.67
949.31	227.59
949.60	227.56
949.90	227.57
950.20	227.54
950.50	227.60
950.79	227.60
951.09	227.70
951.39	227.63
951.69	227.66
951.98	227.76
952.28	227.76
952.58	227.93
952.87	227.94
953.17	227.90
953.47	227.91
953.76	227.93
954.06	227.87
954.36	227.95
954.66	228.07
954.95	228.19
955.25	228.44
955.55	228.59
955.84	228.59
956.14	228.77
956.44	228.88
956.73	228.80
957.03	228.75
957.32	228.80
957.62	228.91
957.92	228.99
958.21	228.93
958.51	229.23
958.81	229.22
959.10	229.31
959.40	229.48
959.69	229.44
959.99	229.50
960.29	229.55
960.58	229.49
960.88	229.50
961.17	229.50
961.47	229.43
961.76	229.39
962.06	229.54
962.36	229.46
962.65	229.42
962.95	229.48
963.24	229.47
963.54	229.44
963.83	229.46
964.13	229.43
964.42	229.37
964.72	229.23
965.01	229.21
965.31	229.16
965.60	229.09
965.90	229.34
966.19	229.30
966.49	229.29
966.78	229.31
967.08	229.30
967.37	229.33
967.67	229.28
967.96	229.32
968.26	229.34
968.55	229.25
968.85	229.23
969.14	229.18
969.43	229.20
969.73	229.16
970.02	229.12
970.32	229.10
970.61	229.12
970.91	229.00
971.20	228.94
971.49	228.87
971.79	228.85
972.08	228.50
972.38	228.52
972.67	228.54
972.96	228.54
973.26	228.44
973.55	228.44
973.85	228.39
974.14	228.34
974.43	228.27
974.73	228.28
975.02	228.23
975.31	228.24
975.61	228.16
975.90	228.08
976.19	227.90
976.49	227.97
976.78	227.88
977.07	227.84
977.37	227.86
977.66	227.95
977.95	227.85
978.24	227.90
978.54	227.83
978.83	227.74
979.12	227.63
979.42	227.73
979.71	227.60
980.00	227.52
980.29	227.51
980.59	227.46
980.88	227.41
981.17	227.35
981.46	227.32
981.76	227.33
982.05	227.35
982.34	227.40
982.63	227.28
982.93	227.25
983.22	227.16
983.51	227.07
983.80	227.05
984.09	227.07
984.39	227.07
984.68	227.10
984.97	227.11
985.26	227.16
985.55	227.06
985.85	227.05
986.14	227.13
986.43	227.02
986.72	226.96
987.01	226.92
987.30	227.05
987.59	227.01
987.89	227.00
988.18	226.93
988.47	226.99
988.76	227.00
989.05	227.01
989.34	227.08
989.63	227.20
989.92	227.17
990.22	227.20
990.51	227.19
990.80	227.11
991.09	227.12
991.38	227.17
991.67	227.25
991.96	227.28
992.25	227.30
992.54	227.39
992.83	227.48
993.12	227.55
993.41	227.55
993.70	227.72
993.99	227.81
994.28	228.00
994.58	228.07
994.87	228.10
995.16	228.20
995.45	228.24
995.74	228.21
996.03	228.31
996.32	228.41
996.61	228.48
996.90	228.64
997.19	228.76
997.48	228.79
997.77	228.73
998.06	228.70
998.34	228.76
998.63	228.80
998.92	228.80
999.21	228.97
999.50	229.06
999.79	228.98
1000.08	229.00
1000.37	228.87
1000.66	228.81
1000.95	229.01
1001.24	229.06
1001.53	229.10
1001.82	229.10
1002.11	229.15
1002.40	229.12
1002.68	229.15
1002.97	229.30
1003.26	229.22
1003.55	229.18
1003.84	229.18
1004.13	229.30
1004.42	229.28
1004.71	229.24
1004.99	229.33
1005.28	229.27
1005.57	229.15
1005.86	229.13
1006.15	229.07
1006.44	229.12
1006.72	229.16
1007.01	228.99
1007.30	228.93
1007.59	228.93
1007.88	228.84
1008.17	228.75
1008.45	228.73
1008.74	228.70
1009.03	228.46
1009.32	228.45
1009.60	228.49
1009.89	228.50
1010.18	228.32
1010.47	228.29
1010.76	228.22
1011.04	228.17
1011.33	228.15
1011.62	228.14
1011.91	228.12
1012.19	228.15
1012.48	228.07
1012.77	228.00
1013.05	228.05
1013.34	228.04
1013.63	227.99
1013.92	228.05
1014.20	228.02
1014.49	227.91
1014.78	227.89
1015.06	227.81
1015.35	227.74
1015.64	227.66
1015.92	227.65
1016.21	227.74
1016.50	227.72
1016.78	227.79
1017.07	227.76
1017.36	227.67
1017.64	227.68
1017.93	227.72
1018.22	227.70
1018.50	227.69
1018.79	227.65
1019.08	227.59
1019.36	227.60
1019.65	227.51
1019.93	227.50
1020.22	227.51
1020.51	227.70
1020.79	227.70
1021.08	228.10
1021.36	226.60
1021.65	226.70
1021.94	227.40
1022.22	228.10
1022.51	226.30
1022.79	227.90
1023.08	227.90
1023.36	231.00
1023.65	227.80
>>>>>End Processed Spectral Data<<<<<
