SpectraSuite Data File
++++++++++++++++++++++++++++++++++++
Date: Fri Feb 01 14:34:44 EST 2013
User: group
Dark Spectrum Present: No
Reference Spectrum Present: No
Number of Sampled Component Spectra: 1
Spectrometers: USB2E7196
Integration Time (usec): 70000 (USB2E7196)
Spectra Averaged: 10 (USB2E7196)
Boxcar Smoothing: 10 (USB2E7196)
Correct for Electrical Dark: No (USB2E7196)
Strobe/Lamp Enabled: No (USB2E7196)
Correct for Detector Non-linearity: No (USB2E7196)
Correct for Stray Light: No (USB2E7196)
Number of Pixels in Processed Spectrum: 2048
>>>>>Begin Processed Spectral Data<<<<<
339.09	0.00
339.48	216.10
339.86	217.10
340.24	220.00
340.63	219.70
341.01	225.30
341.39	222.70
341.78	224.20
342.16	226.80
342.54	225.20
342.93	214.61
343.31	225.49
343.69	225.97
344.07	226.42
344.46	226.82
344.84	227.27
345.22	227.39
345.60	227.59
345.99	227.72
346.37	227.79
346.75	227.88
347.13	227.98
347.52	227.99
347.90	228.03
348.28	228.11
348.66	228.19
349.05	228.17
349.43	228.30
349.81	228.27
350.19	228.26
350.57	228.26
350.96	228.30
351.34	228.30
351.72	228.40
352.10	228.60
352.48	228.65
352.87	228.69
353.25	228.70
353.63	228.78
354.01	228.88
354.39	228.91
354.77	228.94
355.15	228.99
355.54	229.08
355.92	229.12
356.30	229.19
356.68	229.26
357.06	229.35
357.44	229.50
357.82	229.62
358.20	229.72
358.58	229.71
358.97	229.81
359.35	229.99
359.73	230.17
360.11	230.21
360.49	230.25
360.87	230.30
361.25	230.46
361.63	230.68
362.01	230.75
362.39	230.82
362.77	231.02
363.15	230.96
363.53	231.02
363.91	231.01
364.29	231.00
364.67	230.88
365.05	230.91
365.43	230.78
365.81	230.73
366.19	230.84
366.57	231.03
366.95	231.02
367.33	230.90
367.71	230.80
368.09	230.82
368.47	230.85
368.85	230.78
369.23	230.76
369.61	230.60
369.99	230.62
370.37	230.67
370.75	230.72
371.13	230.73
371.51	230.59
371.89	230.51
372.27	230.50
372.65	230.46
373.03	230.38
373.41	230.40
373.78	230.30
374.16	230.03
374.54	229.86
374.92	229.74
375.30	229.76
375.68	229.67
376.06	229.65
376.44	229.46
376.82	229.34
377.19	229.23
377.57	229.17
377.95	229.07
378.33	228.87
378.71	228.64
379.09	228.60
379.47	228.56
379.84	228.58
380.22	228.51
380.60	228.54
380.98	228.43
381.36	228.22
381.73	228.20
382.11	228.20
382.49	228.08
382.87	227.92
383.25	227.72
383.62	227.83
384.00	227.60
384.38	227.65
384.76	227.73
385.13	227.72
385.51	227.67
385.89	227.53
386.27	227.50
386.64	227.54
387.02	227.45
387.40	227.45
387.78	227.38
388.15	227.38
388.53	227.14
388.91	227.03
389.29	227.08
389.66	227.02
390.04	227.02
390.42	227.13
390.79	227.27
391.17	227.30
391.55	227.09
391.92	227.11
392.30	227.06
392.68	227.00
393.05	227.06
393.43	227.01
393.81	227.02
394.18	227.02
394.56	226.99
394.94	227.04
395.31	227.05
395.69	227.10
396.06	227.15
396.44	227.34
396.82	227.50
397.19	227.76
397.57	227.83
397.95	227.92
398.32	227.96
398.70	227.95
399.07	228.20
399.45	228.36
399.82	228.42
400.20	228.57
400.58	228.63
400.95	228.76
401.33	228.86
401.70	229.27
402.08	229.40
402.45	229.58
402.83	229.84
403.20	229.99
403.58	230.23
403.95	230.47
404.33	230.74
404.71	231.03
405.08	231.33
405.46	231.73
405.83	232.18
406.21	232.58
406.58	233.09
406.96	233.50
407.33	233.95
407.70	234.54
408.08	235.23
408.45	235.92
408.83	236.40
409.20	237.05
409.58	237.53
409.95	238.27
410.33	239.06
410.70	239.82
411.08	240.61
411.45	241.43
411.82	242.42
412.20	243.39
412.57	244.59
412.95	245.47
413.32	246.63
413.69	247.85
414.07	249.01
414.44	250.31
414.82	251.60
415.19	253.21
415.56	254.86
415.94	256.52
416.31	258.36
416.68	260.33
417.06	262.53
417.43	264.59
417.81	266.90
418.18	269.14
418.55	271.70
418.93	274.54
419.30	277.33
419.67	280.12
420.04	283.02
420.42	286.16
420.79	289.84
421.16	293.40
421.54	296.95
421.91	300.86
422.28	305.02
422.66	309.29
423.03	313.51
423.40	317.80
423.77	322.38
424.15	327.18
424.52	331.81
424.89	337.15
425.26	342.25
425.64	347.13
426.01	352.58
426.38	358.12
426.75	363.60
427.13	369.43
427.50	375.56
427.87	382.12
428.24	388.50
428.61	394.35
428.99	401.03
429.36	408.46
429.73	415.56
430.10	422.55
430.47	429.80
430.85	437.23
431.22	445.10
431.59	453.32
431.96	461.20
432.33	470.19
432.70	478.78
433.08	489.09
433.45	498.57
433.82	507.90
434.19	518.35
434.56	528.61
434.93	538.39
435.30	548.10
435.68	558.72
436.05	569.22
436.42	580.00
436.79	589.66
437.16	599.86
437.53	610.81
437.90	621.64
438.27	632.38
438.64	643.42
439.01	653.73
439.38	662.96
439.75	671.70
440.13	681.81
440.50	691.19
440.87	698.88
441.24	707.11
441.61	716.32
441.98	723.34
442.35	731.28
442.72	739.30
443.09	747.35
443.46	752.55
443.83	756.20
444.20	759.50
444.57	764.22
444.94	766.90
445.31	769.73
445.68	772.47
446.05	774.21
446.42	774.43
446.79	774.32
447.16	774.20
447.53	774.62
447.90	772.25
448.27	769.74
448.64	765.30
449.01	762.84
449.37	756.87
449.74	751.08
450.11	743.78
450.48	735.93
450.85	727.77
451.22	720.85
451.59	714.52
451.96	708.40
452.33	699.49
452.70	691.77
453.07	682.00
453.43	672.20
453.80	662.59
454.17	653.37
454.54	644.79
454.91	635.29
455.28	626.00
455.65	617.05
456.02	608.01
456.38	600.62
456.75	590.91
457.12	582.98
457.49	575.14
457.86	567.83
458.23	561.54
458.59	554.16
458.96	546.68
459.33	540.17
459.70	533.67
460.07	528.33
460.43	522.16
460.80	516.44
461.17	511.33
461.54	506.20
461.91	501.09
462.27	495.87
462.64	491.50
463.01	486.60
463.38	481.78
463.74	477.17
464.11	473.03
464.48	469.37
464.85	465.29
465.21	462.03
465.58	458.67
465.95	454.60
466.32	451.37
466.68	448.17
467.05	444.70
467.42	441.27
467.78	437.92
468.15	434.54
468.52	431.99
468.88	428.64
469.25	425.70
469.62	423.34
469.98	420.71
470.35	418.36
470.72	416.08
471.08	413.76
471.45	411.77
471.82	409.51
472.18	407.05
472.55	405.46
472.92	403.43
473.28	401.65
473.65	399.90
474.02	398.26
474.38	396.81
474.75	395.50
475.11	394.07
475.48	392.97
475.85	392.09
476.21	391.12
476.58	390.51
476.94	389.73
477.31	388.89
477.67	388.21
478.04	387.40
478.41	386.78
478.77	386.44
479.14	385.82
479.50	385.55
479.87	385.60
480.23	385.40
480.60	385.10
480.96	384.76
481.33	384.91
481.69	385.00
482.06	385.02
482.42	385.03
482.79	385.16
483.15	385.53
483.52	386.18
483.88	386.67
484.25	386.99
484.61	387.68
484.98	388.45
485.34	389.28
485.71	390.28
486.07	391.43
486.44	392.43
486.80	393.58
487.17	394.81
487.53	396.26
487.90	397.72
488.26	399.51
488.62	401.38
488.99	402.90
489.35	404.61
489.72	406.60
490.08	408.82
490.44	410.98
490.81	412.92
491.17	414.88
491.54	417.30
491.90	419.69
492.26	422.16
492.63	424.54
492.99	427.10
493.36	429.79
493.72	432.60
494.08	435.45
494.45	438.45
494.81	441.66
495.17	444.72
495.54	447.99
495.90	451.29
496.26	454.33
496.63	457.87
496.99	461.37
497.35	465.01
497.72	468.62
498.08	472.20
498.44	476.11
498.80	480.20
499.17	483.97
499.53	487.91
499.89	491.85
500.26	495.72
500.62	499.73
500.98	503.93
501.34	508.00
501.71	512.27
502.07	516.30
502.43	520.25
502.79	524.47
503.16	528.58
503.52	532.63
503.88	536.75
504.24	540.72
504.60	545.00
504.97	549.10
505.33	553.15
505.69	557.72
506.05	561.90
506.41	565.78
506.78	569.71
507.14	573.82
507.50	577.98
507.86	582.00
508.22	586.16
508.59	589.94
508.95	593.74
509.31	597.50
509.67	601.41
510.03	605.36
510.39	608.80
510.75	612.60
511.12	616.37
511.48	620.25
511.84	623.73
512.20	627.10
512.56	630.47
512.92	633.81
513.28	636.75
513.64	639.83
514.00	642.94
514.37	646.29
514.73	649.51
515.09	652.01
515.45	654.76
515.81	657.23
516.17	660.11
516.53	662.71
516.89	665.19
517.25	667.59
517.61	669.81
517.97	672.33
518.33	674.42
518.69	676.55
519.05	678.83
519.41	681.18
519.77	683.68
520.13	685.78
520.49	687.73
520.85	689.81
521.21	691.95
521.57	694.05
521.93	695.66
522.29	697.34
522.65	699.56
523.01	701.44
523.37	702.97
523.73	704.62
524.09	706.50
524.45	708.26
524.81	710.18
525.17	711.95
525.53	713.78
525.89	715.82
526.25	717.67
526.61	718.90
526.97	720.46
527.33	721.88
527.68	723.84
528.04	725.68
528.40	727.40
528.76	729.45
529.12	731.27
529.48	733.29
529.84	735.04
530.20	736.82
530.56	738.90
530.91	741.20
531.27	743.27
531.63	745.14
531.99	747.04
532.35	749.08
532.71	751.08
533.07	753.04
533.42	755.00
533.78	757.22
534.14	759.62
534.50	761.77
534.86	763.89
535.21	765.74
535.57	767.93
535.93	770.12
536.29	772.05
536.65	774.11
537.00	776.04
537.36	778.45
537.72	780.57
538.08	783.06
538.44	785.34
538.79	787.48
539.15	789.83
539.51	792.43
539.87	794.90
540.22	797.30
540.58	800.03
540.94	802.36
541.29	804.56
541.65	806.91
542.01	809.92
542.37	812.45
542.72	814.88
543.08	817.46
543.44	820.02
543.79	822.38
544.15	825.31
544.51	828.63
544.87	831.24
545.22	834.29
545.58	837.03
545.94	839.79
546.29	842.57
546.65	845.19
547.01	847.79
547.36	850.40
547.72	853.28
548.07	856.09
548.43	858.82
548.79	861.63
549.14	864.51
549.50	867.05
549.86	869.67
550.21	872.69
550.57	875.52
550.92	878.14
551.28	880.93
551.64	883.45
551.99	886.08
552.35	888.71
552.70	891.17
553.06	893.70
553.41	896.38
553.77	899.09
554.13	901.88
554.48	904.85
554.84	907.75
555.19	910.49
555.55	913.22
555.90	915.92
556.26	918.45
556.61	921.00
556.97	923.60
557.32	926.39
557.68	928.73
558.03	931.24
558.39	933.63
558.74	936.44
559.10	939.09
559.45	941.45
559.81	944.44
560.16	946.74
560.52	949.20
560.87	951.83
561.23	954.17
561.58	957.03
561.94	959.08
562.29	961.18
562.64	963.46
563.00	965.50
563.35	968.06
563.71	970.84
564.06	973.55
564.42	975.70
564.77	977.86
565.12	980.53
565.48	982.98
565.83	985.48
566.19	987.72
566.54	989.59
566.89	991.61
567.25	993.39
567.60	996.03
567.96	998.14
568.31	999.94
568.66	1001.88
569.02	1003.11
569.37	1004.77
569.72	1006.73
570.08	1008.12
570.43	1009.51
570.78	1010.43
571.14	1011.34
571.49	1012.32
571.84	1014.05
572.20	1015.16
572.55	1015.78
572.90	1016.34
573.26	1017.30
573.61	1018.08
573.96	1018.80
574.31	1019.19
574.67	1019.38
575.02	1019.15
575.37	1019.28
575.72	1019.10
576.08	1019.33
576.43	1019.60
576.78	1019.79
577.13	1019.58
577.49	1019.80
577.84	1019.70
578.19	1019.67
578.54	1019.27
578.90	1018.85
579.25	1017.80
579.60	1017.30
579.95	1016.80
580.30	1016.45
580.66	1015.43
581.01	1014.28
581.36	1013.54
581.71	1012.65
582.06	1011.89
582.42	1011.16
582.77	1010.14
583.12	1009.29
583.47	1008.55
583.82	1007.76
584.17	1006.76
584.53	1005.54
584.88	1004.34
585.23	1003.29
585.58	1002.20
585.93	1001.10
586.28	1000.40
586.63	999.71
586.98	998.66
587.34	997.60
587.69	996.40
588.04	995.42
588.39	994.40
588.74	992.87
589.09	991.63
589.44	990.21
589.79	988.67
590.14	987.47
590.49	985.99
590.84	984.12
591.19	982.32
591.54	980.10
591.89	977.97
592.25	975.97
592.60	973.60
592.95	971.36
593.30	969.14
593.65	966.43
594.00	963.67
594.35	961.77
594.70	959.10
595.05	956.47
595.40	953.90
595.75	951.40
596.10	949.44
596.45	947.27
596.80	945.16
597.15	943.14
597.50	940.72
597.85	938.74
598.19	936.65
598.54	934.40
598.89	932.39
599.24	930.60
599.59	928.52
599.94	926.49
600.29	924.43
600.64	922.54
600.99	920.47
601.34	918.28
601.69	915.34
602.04	913.16
602.39	910.94
602.74	908.81
603.08	906.84
603.43	904.56
603.78	902.18
604.13	899.89
604.48	897.34
604.83	895.01
605.18	892.62
605.53	889.89
605.87	887.21
606.22	884.78
606.57	881.99
606.92	879.18
607.27	876.86
607.62	874.50
607.96	872.04
608.31	869.64
608.66	867.06
609.01	864.43
609.36	861.52
609.70	858.51
610.05	855.58
610.40	852.33
610.75	849.02
611.10	845.70
611.44	842.19
611.79	839.12
612.14	835.80
612.49	832.21
612.83	828.62
613.18	825.15
613.53	821.88
613.88	818.57
614.22	815.29
614.57	811.49
614.92	807.86
615.27	804.30
615.61	800.60
615.96	797.32
616.31	794.25
616.65	791.28
617.00	788.37
617.35	785.15
617.70	781.71
618.04	778.44
618.39	775.41
618.74	772.46
619.08	769.04
619.43	765.84
619.78	762.70
620.12	759.98
620.47	757.00
620.82	753.44
621.16	750.28
621.51	747.25
621.85	744.45
622.20	741.41
622.55	738.21
622.89	735.29
623.24	732.08
623.59	729.13
623.93	726.03
624.28	722.77
624.62	719.93
624.97	717.36
625.32	714.62
625.66	711.68
626.01	708.67
626.35	705.80
626.70	702.94
627.04	700.24
627.39	696.77
627.73	693.85
628.08	691.47
628.43	688.45
628.77	685.52
629.12	682.45
629.46	679.36
629.81	676.22
630.15	673.01
630.50	670.06
630.84	666.77
631.19	663.52
631.53	660.60
631.88	657.11
632.22	653.87
632.57	650.76
632.91	647.60
633.26	644.49
633.60	641.46
633.95	638.50
634.29	635.45
634.64	632.98
634.98	629.94
635.32	627.10
635.67	624.65
636.01	621.87
636.36	619.06
636.70	616.60
637.05	614.03
637.39	611.67
637.73	609.05
638.08	606.60
638.42	604.35
638.77	601.79
639.11	599.52
639.45	596.82
639.80	594.20
640.14	591.83
640.49	589.23
640.83	586.83
641.17	584.19
641.52	581.88
641.86	579.03
642.20	576.60
642.55	573.94
642.89	571.20
643.23	568.74
643.58	566.74
643.92	564.12
644.26	561.81
644.61	559.37
644.95	556.78
645.29	553.91
645.64	551.13
645.98	548.62
646.32	546.33
646.66	543.88
647.01	541.49
647.35	539.12
647.69	536.83
648.04	534.43
648.38	532.08
648.72	529.21
649.06	526.78
649.41	524.36
649.75	521.82
650.09	519.28
650.43	516.59
650.78	513.72
651.12	511.15
651.46	508.47
651.80	505.88
652.14	503.74
652.49	501.65
652.83	499.38
653.17	496.77
653.51	494.10
653.85	491.83
654.20	489.36
654.54	486.71
654.88	484.16
655.22	481.57
655.56	479.10
655.90	477.00
656.25	474.95
656.59	472.73
656.93	470.52
657.27	468.41
657.61	465.98
657.95	463.93
658.29	461.93
658.64	459.85
658.98	457.54
659.32	455.07
659.66	452.92
660.00	450.75
660.34	448.87
660.68	446.84
661.02	444.65
661.36	442.59
661.70	440.72
662.05	438.80
662.39	437.02
662.73	435.04
663.07	433.10
663.41	431.18
663.75	429.37
664.09	427.56
664.43	425.78
664.77	424.29
665.11	422.38
665.45	420.43
665.79	418.65
666.13	416.91
666.47	415.30
666.81	413.49
667.15	411.79
667.49	410.15
667.83	408.33
668.17	406.63
668.51	404.93
668.85	403.16
669.19	401.77
669.53	400.07
669.87	398.38
670.21	396.65
670.55	395.06
670.89	393.48
671.23	391.91
671.57	390.24
671.91	388.73
672.25	387.20
672.58	385.74
672.92	384.26
673.26	382.93
673.60	381.47
673.94	380.00
674.28	378.61
674.62	377.20
674.96	375.90
675.30	374.59
675.64	373.22
675.97	371.83
676.31	370.35
676.65	368.93
676.99	367.85
677.33	366.71
677.67	365.46
678.01	364.15
678.34	362.86
678.68	361.71
679.02	360.37
679.36	359.03
679.70	357.94
680.04	356.69
680.37	355.31
680.71	354.10
681.05	353.19
681.39	351.99
681.73	350.83
682.06	349.85
682.40	348.83
682.74	347.80
683.08	346.80
683.42	345.76
683.75	344.74
684.09	343.49
684.43	342.41
684.77	341.31
685.10	340.17
685.44	338.88
685.78	337.88
686.12	336.88
686.45	335.98
686.79	334.77
687.13	333.83
687.46	332.85
687.80	331.93
688.14	330.61
688.48	329.71
688.81	328.65
689.15	327.66
689.49	326.50
689.82	325.50
690.16	324.43
690.50	323.40
690.83	322.56
691.17	321.57
691.51	320.51
691.84	319.66
692.18	318.65
692.52	317.95
692.85	317.03
693.19	316.18
693.52	315.35
693.86	314.51
694.20	313.53
694.53	312.65
694.87	311.74
695.21	310.92
695.54	309.98
695.88	309.02
696.21	308.09
696.55	307.29
696.88	306.45
697.22	305.65
697.56	304.82
697.89	303.89
698.23	303.25
698.56	302.53
698.90	301.70
699.23	300.91
699.57	300.14
699.90	299.22
700.24	298.32
700.58	297.45
700.91	296.74
701.25	296.18
701.58	295.60
701.92	294.89
702.25	294.20
702.59	293.54
702.92	292.95
703.26	292.19
703.59	291.54
703.93	291.05
704.26	290.50
704.60	289.92
704.93	289.28
705.26	288.54
705.60	287.92
705.93	287.37
706.27	286.91
706.60	286.31
706.94	285.81
707.27	285.27
707.61	284.73
707.94	284.08
708.27	283.26
708.61	282.61
708.94	282.05
709.28	281.53
709.61	280.98
709.94	280.50
710.28	280.04
710.61	279.52
710.95	278.70
711.28	278.23
711.61	277.61
711.95	277.05
712.28	276.49
712.61	275.84
712.95	275.31
713.28	274.78
713.61	274.14
713.95	273.64
714.28	273.10
714.61	272.50
714.95	271.97
715.28	271.47
715.61	270.91
715.95	270.41
716.28	269.87
716.61	269.38
716.95	268.86
717.28	268.24
717.61	267.81
717.94	267.42
718.28	266.87
718.61	266.44
718.94	266.00
719.27	265.62
719.61	265.20
719.94	264.77
720.27	264.35
720.60	264.04
720.94	263.68
721.27	263.35
721.60	263.06
721.93	262.78
722.27	262.62
722.60	262.41
722.93	262.11
723.26	261.85
723.59	261.42
723.93	261.08
724.26	260.86
724.59	260.54
724.92	260.35
725.25	260.06
725.59	259.77
725.92	259.55
726.25	259.27
726.58	259.12
726.91	258.90
727.24	258.62
727.57	258.31
727.91	258.04
728.24	257.77
728.57	257.40
728.90	257.16
729.23	256.78
729.56	256.48
729.89	256.24
730.22	255.99
730.55	255.78
730.89	255.60
731.22	255.49
731.55	255.20
731.88	254.88
732.21	254.50
732.54	254.23
732.87	253.94
733.20	253.67
733.53	253.43
733.86	253.06
734.19	252.73
734.52	252.53
734.85	252.30
735.18	252.00
735.51	251.83
735.84	251.61
736.17	251.54
736.50	251.27
736.83	251.27
737.16	250.99
737.49	250.84
737.82	250.60
738.15	250.30
738.48	250.10
738.81	249.93
739.14	249.87
739.47	249.66
739.80	249.49
740.13	249.34
740.46	249.11
740.79	248.86
741.12	248.79
741.45	248.44
741.78	248.26
742.11	248.18
742.44	248.01
742.77	247.73
743.10	247.38
743.43	247.13
743.75	246.69
744.08	246.79
744.41	246.44
744.74	246.20
745.07	245.96
745.40	245.74
745.73	245.57
746.06	245.28
746.39	245.08
746.71	244.82
747.04	244.53
747.37	244.36
747.70	244.28
748.03	244.01
748.36	243.83
748.68	243.58
749.01	243.35
749.34	243.13
749.67	242.91
750.00	242.70
750.33	242.67
750.65	242.48
750.98	242.02
751.31	241.88
751.64	241.60
751.97	241.50
752.29	241.31
752.62	241.07
752.95	240.93
753.28	240.78
753.60	240.56
753.93	240.42
754.26	240.12
754.59	239.85
754.91	239.63
755.24	239.60
755.57	239.46
755.90	239.22
756.22	239.06
756.55	238.90
756.88	238.84
757.20	238.62
757.53	238.27
757.86	238.06
758.19	237.97
758.51	237.96
758.84	237.81
759.17	237.70
759.49	237.63
759.82	237.56
760.15	237.44
760.47	237.43
760.80	237.30
761.13	237.35
761.45	237.33
761.78	237.26
762.11	237.14
762.43	237.11
762.76	237.08
763.08	236.95
763.41	236.85
763.74	236.68
764.06	236.55
764.39	236.62
764.71	236.69
765.04	236.61
765.37	236.50
765.69	236.38
766.02	236.27
766.34	236.18
766.67	236.12
767.00	236.03
767.32	236.05
767.65	236.12
767.97	236.00
768.30	235.84
768.62	235.94
768.95	235.82
769.27	235.67
769.60	235.60
769.92	235.65
770.25	235.69
770.57	235.70
770.90	235.69
771.22	235.66
771.55	235.56
771.87	235.49
772.20	235.49
772.52	235.62
772.85	235.86
773.17	235.74
773.50	235.66
773.82	235.70
774.15	235.57
774.47	235.45
774.80	235.44
775.12	235.46
775.45	235.33
775.77	235.30
776.09	235.39
776.42	235.30
776.74	235.21
777.07	235.09
777.39	235.05
777.72	234.91
778.04	234.82
778.36	234.69
778.69	234.75
779.01	234.67
779.33	234.49
779.66	234.19
779.98	234.11
780.31	234.02
780.63	234.00
780.95	234.04
781.28	233.92
781.60	233.80
781.92	233.71
782.25	233.66
782.57	233.61
782.89	233.43
783.22	233.43
783.54	233.29
783.86	233.28
784.19	233.12
784.51	233.14
784.83	233.15
785.16	233.09
785.48	233.01
785.80	232.82
786.12	232.65
786.45	232.55
786.77	232.55
787.09	232.46
787.42	232.37
787.74	232.14
788.06	232.15
788.38	232.06
788.71	232.04
789.03	231.99
789.35	231.99
789.67	231.93
789.99	231.82
790.32	231.78
790.64	231.74
790.96	231.94
791.28	231.76
791.61	231.67
791.93	231.65
792.25	231.58
792.57	231.70
792.89	231.70
793.21	231.75
793.54	231.69
793.86	231.61
794.18	231.59
794.50	231.59
794.82	231.49
795.14	231.61
795.47	231.57
795.79	231.52
796.11	231.43
796.43	231.35
796.75	231.42
797.07	231.49
797.39	231.47
797.71	231.22
798.04	231.33
798.36	231.28
798.68	231.33
799.00	231.26
799.32	231.24
799.64	231.27
799.96	231.15
800.28	231.20
800.60	231.22
800.92	231.09
801.24	231.10
801.56	231.05
801.89	230.99
802.21	230.97
802.53	230.92
802.85	230.99
803.17	231.05
803.49	230.96
803.81	230.89
804.13	230.87
804.45	230.89
804.77	230.97
805.09	230.92
805.41	230.81
805.73	230.79
806.05	230.74
806.37	230.70
806.69	230.83
807.01	230.77
807.33	230.91
807.65	230.97
807.97	231.12
808.28	231.13
808.60	231.04
808.92	231.04
809.24	231.20
809.56	231.14
809.88	231.06
810.20	231.07
810.52	231.10
810.84	231.02
811.16	230.91
811.48	230.75
811.80	230.90
812.12	230.96
812.43	230.96
812.75	231.00
813.07	230.93
813.39	230.85
813.71	230.81
814.03	230.68
814.35	230.64
814.67	230.46
814.98	230.51
815.30	230.46
815.62	230.45
815.94	230.32
816.26	230.41
816.58	230.44
816.89	230.48
817.21	230.46
817.53	230.51
817.85	230.60
818.17	230.68
818.48	230.59
818.80	230.65
819.12	230.66
819.44	230.50
819.76	230.48
820.07	230.51
820.39	230.42
820.71	230.42
821.03	230.44
821.34	230.43
821.66	230.40
821.98	230.42
822.30	230.27
822.61	230.34
822.93	230.18
823.25	230.07
823.57	230.09
823.88	230.17
824.20	230.13
824.52	230.13
824.83	229.99
825.15	229.94
825.47	229.93
825.79	229.91
826.10	229.95
826.42	230.00
826.74	229.90
827.05	229.98
827.37	229.92
827.69	229.88
828.00	229.87
828.32	229.82
828.64	229.79
828.95	230.04
829.27	229.92
829.58	229.97
829.90	230.05
830.22	229.92
830.53	229.76
830.85	229.72
831.17	229.60
831.48	229.55
831.80	229.51
832.11	229.38
832.43	229.26
832.75	229.19
833.06	229.23
833.38	229.20
833.69	229.22
834.01	229.26
834.32	229.28
834.64	229.22
834.96	229.17
835.27	229.19
835.59	229.01
835.90	229.02
836.22	229.01
836.53	228.98
836.85	228.97
837.16	229.13
837.48	229.18
837.79	229.32
838.11	229.44
838.42	229.43
838.74	229.46
839.05	229.47
839.37	229.50
839.68	229.40
840.00	229.38
840.31	229.31
840.63	229.28
840.94	229.21
841.26	229.12
841.57	229.24
841.88	229.24
842.20	229.29
842.51	229.31
842.83	229.33
843.14	229.52
843.46	229.46
843.77	229.46
844.08	229.37
844.40	229.30
844.71	229.32
845.03	229.20
845.34	229.24
845.65	229.26
845.97	229.29
846.28	229.29
846.60	229.35
846.91	229.22
847.22	229.22
847.54	229.19
847.85	229.35
848.16	229.32
848.48	229.30
848.79	229.27
849.10	229.30
849.42	229.24
849.73	229.08
850.04	229.12
850.36	229.00
850.67	229.09
850.98	229.06
851.30	229.00
851.61	229.07
851.92	229.06
852.23	229.18
852.55	229.20
852.86	229.29
853.17	229.26
853.49	229.41
853.80	229.45
854.11	229.50
854.42	229.52
854.74	229.49
855.05	229.53
855.36	229.51
855.67	229.42
855.99	229.49
856.30	229.64
856.61	229.70
856.92	229.61
857.23	229.56
857.55	229.56
857.86	229.59
858.17	229.62
858.48	229.55
858.79	229.49
859.11	229.46
859.42	229.37
859.73	229.36
860.04	229.30
860.35	229.33
860.66	229.32
860.98	229.24
861.29	229.22
861.60	229.24
861.91	229.25
862.22	229.28
862.53	229.30
862.84	229.14
863.16	229.05
863.47	229.11
863.78	229.13
864.09	229.08
864.40	229.13
864.71	229.18
865.02	229.16
865.33	229.16
865.64	229.10
865.95	229.13
866.27	229.34
866.58	229.32
866.89	229.22
867.20	229.13
867.51	229.06
867.82	229.05
868.13	229.04
868.44	229.03
868.75	229.07
869.06	228.93
869.37	228.78
869.68	228.78
869.99	228.75
870.30	228.69
870.61	228.70
870.92	228.58
871.23	228.55
871.54	228.58
871.85	228.58
872.16	228.60
872.47	228.62
872.78	228.30
873.09	228.36
873.40	228.27
873.71	228.35
874.02	228.35
874.33	228.23
874.64	228.12
874.95	228.07
875.26	227.91
875.56	227.96
875.87	228.07
876.18	228.00
876.49	228.18
876.80	228.14
877.11	228.17
877.42	228.14
877.73	228.13
878.04	228.00
878.35	227.98
878.66	227.87
878.96	227.82
879.27	227.93
879.58	227.89
879.89	227.93
880.20	228.00
880.51	228.05
880.82	228.14
881.12	228.18
881.43	228.14
881.74	228.20
882.05	228.11
882.36	228.08
882.67	228.20
882.97	228.05
883.28	228.08
883.59	228.03
883.90	228.05
884.21	228.09
884.51	228.22
884.82	228.28
885.13	228.37
885.44	228.34
885.74	228.33
886.05	228.30
886.36	228.38
886.67	228.26
886.98	228.39
887.28	228.36
887.59	228.43
887.90	228.59
888.20	228.59
888.51	228.72
888.82	228.81
889.13	228.79
889.43	228.92
889.74	228.97
890.05	229.05
890.35	229.08
890.66	229.03
890.97	228.99
891.28	228.96
891.58	228.97
891.89	229.07
892.20	229.10
892.50	229.14
892.81	229.08
893.12	229.17
893.42	229.00
893.73	229.10
894.04	229.07
894.34	228.88
894.65	228.91
894.95	228.92
895.26	228.94
895.57	229.14
895.87	229.00
896.18	229.02
896.48	229.02
896.79	229.09
897.10	229.18
897.40	229.18
897.71	229.21
898.01	229.20
898.32	229.19
898.63	229.21
898.93	229.28
899.24	229.31
899.54	229.20
899.85	229.28
900.15	229.28
900.46	229.32
900.76	229.41
901.07	229.35
901.38	229.25
901.68	229.22
901.99	229.10
902.29	229.14
902.60	229.10
902.90	229.01
903.21	228.89
903.51	228.78
903.82	228.82
904.12	228.78
904.43	228.81
904.73	228.72
905.03	228.71
905.34	228.88
905.64	228.84
905.95	228.88
906.25	228.79
906.56	228.70
906.86	228.59
907.17	228.59
907.47	228.58
907.77	228.59
908.08	228.48
908.38	228.40
908.69	228.29
908.99	228.27
909.30	228.26
909.60	228.30
909.90	228.36
910.21	228.30
910.51	228.23
910.81	228.26
911.12	228.20
911.42	228.18
911.73	227.90
912.03	227.82
912.33	227.82
912.64	227.80
912.94	227.85
913.24	227.93
913.55	227.96
913.85	227.94
914.15	227.95
914.46	227.98
914.76	227.90
915.06	227.92
915.37	227.87
915.67	227.92
915.97	227.88
916.27	227.79
916.58	227.85
916.88	227.86
917.18	227.77
917.49	228.05
917.79	228.14
918.09	228.15
918.39	228.33
918.70	228.34
919.00	228.37
919.30	228.37
919.60	228.36
919.91	228.31
920.21	228.36
920.51	228.30
920.81	228.32
921.12	228.44
921.42	228.41
921.72	228.49
922.02	228.39
922.32	228.50
922.63	228.54
922.93	228.50
923.23	228.56
923.53	228.52
923.83	228.32
924.13	228.31
924.44	228.36
924.74	228.33
925.04	228.25
925.34	228.22
925.64	228.20
925.94	228.11
926.24	228.24
926.55	228.28
926.85	228.34
927.15	228.40
927.45	228.53
927.75	228.54
928.05	228.57
928.35	228.71
928.65	228.69
928.95	228.70
929.26	228.75
929.56	228.86
929.86	228.96
930.16	229.05
930.46	229.00
930.76	229.02
931.06	228.92
931.36	229.05
931.66	229.26
931.96	229.25
932.26	229.31
932.56	229.30
932.86	229.21
933.16	229.20
933.46	229.08
933.76	228.90
934.06	229.05
934.36	229.06
934.66	229.01
934.96	229.02
935.26	229.01
935.56	229.04
935.86	228.89
936.16	228.88
936.46	228.81
936.76	228.85
937.06	228.83
937.36	228.90
937.66	228.78
937.96	228.64
938.26	228.61
938.56	228.57
938.86	228.50
939.16	228.70
939.46	228.71
939.76	228.76
940.06	228.71
940.35	228.62
940.65	228.58
940.95	228.56
941.25	228.40
941.55	228.36
941.85	228.36
942.15	228.48
942.45	228.54
942.75	228.53
943.04	228.49
943.34	228.53
943.64	228.44
943.94	228.54
944.24	228.52
944.54	228.56
944.84	228.60
945.13	228.52
945.43	228.41
945.73	228.33
946.03	228.33
946.33	228.39
946.62	228.40
946.92	228.31
947.22	228.34
947.52	228.49
947.82	228.47
948.11	228.45
948.41	228.28
948.71	228.07
949.01	228.01
949.31	227.95
949.60	227.88
949.90	227.89
950.20	227.84
950.50	227.82
950.79	227.70
951.09	227.66
951.39	227.67
951.69	227.52
951.98	227.56
952.28	227.43
952.58	227.40
952.87	227.30
953.17	227.34
953.47	227.26
953.76	227.21
954.06	227.22
954.36	227.08
954.66	227.03
954.95	227.13
955.25	227.26
955.55	227.25
955.84	227.20
956.14	227.19
956.44	227.14
956.73	227.16
957.03	227.30
957.32	227.28
957.62	227.34
957.92	227.55
958.21	227.61
958.51	227.90
958.81	227.89
959.10	227.97
959.40	228.01
959.69	228.00
959.99	228.00
960.29	228.06
960.58	228.11
960.88	228.31
961.17	228.30
961.47	228.25
961.76	228.29
962.06	228.39
962.36	228.50
962.65	228.55
962.95	228.56
963.24	228.60
963.54	228.72
963.83	228.69
964.13	228.67
964.42	228.66
964.72	228.52
965.01	228.54
965.31	228.53
965.60	228.53
965.90	228.82
966.19	228.78
966.49	228.81
966.78	228.91
967.08	228.90
967.37	228.94
967.67	228.92
967.96	228.93
968.26	228.93
968.55	228.90
968.85	228.90
969.14	228.87
969.43	228.82
969.73	228.80
970.02	228.81
970.32	228.83
970.61	228.76
970.91	228.81
971.20	228.79
971.49	228.82
971.79	228.81
972.08	228.61
972.38	228.66
972.67	228.67
972.96	228.60
973.26	228.52
973.55	228.62
973.85	228.59
974.14	228.60
974.43	228.62
974.73	228.60
975.02	228.68
975.31	228.74
975.61	228.72
975.90	228.68
976.19	228.60
976.49	228.56
976.78	228.59
977.07	228.50
977.37	228.50
977.66	228.64
977.95	228.73
978.24	228.71
978.54	228.81
978.83	228.67
979.12	228.72
979.42	228.71
979.71	228.72
980.00	228.64
980.29	228.66
980.59	228.70
980.88	228.68
981.17	228.61
981.46	228.65
981.76	228.60
982.05	228.64
982.34	228.71
982.63	228.59
982.93	228.57
983.22	228.60
983.51	228.54
983.80	228.39
984.09	228.30
984.39	228.22
984.68	228.14
984.97	228.19
985.26	228.06
985.55	228.11
985.85	227.95
986.14	228.04
986.43	228.01
986.72	227.78
987.01	227.70
987.30	227.60
987.59	227.43
987.89	227.39
988.18	227.35
988.47	227.24
988.76	227.34
989.05	227.25
989.34	227.18
989.63	227.30
989.92	227.23
990.22	227.20
990.51	227.33
990.80	227.26
991.09	227.28
991.38	227.30
991.67	227.31
991.96	227.25
992.25	227.27
992.54	227.25
992.83	227.30
993.12	227.41
993.41	227.50
993.70	227.56
993.99	227.70
994.28	227.68
994.58	227.78
994.87	227.67
995.16	227.75
995.45	227.83
995.74	227.70
996.03	227.78
996.32	227.75
996.61	227.71
996.90	227.88
997.19	227.92
997.48	228.04
997.77	227.96
998.06	227.93
998.34	227.99
998.63	228.06
998.92	228.08
999.21	228.02
999.50	228.04
999.79	228.06
1000.08	228.02
1000.37	228.03
1000.66	227.98
1000.95	228.13
1001.24	228.12
1001.53	228.10
1001.82	228.07
1002.11	228.05
1002.40	228.13
1002.68	228.22
1002.97	228.20
1003.26	228.18
1003.55	228.18
1003.84	228.26
1004.13	228.51
1004.42	228.44
1004.71	228.39
1004.99	228.38
1005.28	228.49
1005.57	228.53
1005.86	228.58
1006.15	228.48
1006.44	228.53
1006.72	228.53
1007.01	228.50
1007.30	228.54
1007.59	228.50
1007.88	228.60
1008.17	228.60
1008.45	228.56
1008.74	228.43
1009.03	228.34
1009.32	228.37
1009.60	228.33
1009.89	228.28
1010.18	228.12
1010.47	228.06
1010.76	228.13
1011.04	228.22
1011.33	228.18
1011.62	228.15
1011.91	228.08
1012.19	228.19
1012.48	228.15
1012.77	228.15
1013.05	228.25
1013.34	228.24
1013.63	228.26
1013.92	228.30
1014.20	228.29
1014.49	228.30
1014.78	228.38
1015.06	228.41
1015.35	228.45
1015.64	228.47
1015.92	228.45
1016.21	228.47
1016.50	228.59
1016.78	228.49
1017.07	228.52
1017.36	228.47
1017.64	228.46
1017.93	228.60
1018.22	228.59
1018.50	228.56
1018.79	228.58
1019.08	228.55
1019.36	228.51
1019.65	228.50
1019.93	228.44
1020.22	228.46
1020.51	228.50
1020.79	228.40
1021.08	228.60
1021.36	227.60
1021.65	228.40
1021.94	229.80
1022.22	226.80
1022.51	227.70
1022.79	227.50
1023.08	227.80
1023.36	229.60
1023.65	227.00
>>>>>End Processed Spectral Data<<<<<
