SpectraSuite Data File
++++++++++++++++++++++++++++++++++++
Date: Fri Feb 01 14:38:04 EST 2013
User: group
Dark Spectrum Present: No
Reference Spectrum Present: No
Number of Sampled Component Spectra: 1
Spectrometers: USB2E7196
Integration Time (usec): 70000 (USB2E7196)
Spectra Averaged: 10 (USB2E7196)
Boxcar Smoothing: 10 (USB2E7196)
Correct for Electrical Dark: No (USB2E7196)
Strobe/Lamp Enabled: No (USB2E7196)
Correct for Detector Non-linearity: No (USB2E7196)
Correct for Stray Light: No (USB2E7196)
Number of Pixels in Processed Spectrum: 2048
>>>>>Begin Processed Spectral Data<<<<<
339.09	0.00
339.48	217.30
339.86	218.10
340.24	219.00
340.63	222.00
341.01	224.50
341.39	223.60
341.78	224.70
342.16	226.00
342.54	224.90
342.93	214.58
343.31	225.44
343.69	226.05
344.07	226.51
344.46	226.93
344.84	227.27
345.22	227.45
345.60	227.68
345.99	227.86
346.37	228.00
346.75	228.18
347.13	228.31
347.52	228.29
347.90	228.34
348.28	228.47
348.66	228.53
349.05	228.51
349.43	228.48
349.81	228.56
350.19	228.53
350.57	228.55
350.96	228.68
351.34	228.67
351.72	228.47
352.10	228.60
352.48	228.65
352.87	228.63
353.25	228.74
353.63	228.84
354.01	228.87
354.39	228.86
354.77	228.85
355.15	228.81
355.54	228.92
355.92	228.94
356.30	228.96
356.68	229.14
357.06	229.21
357.44	229.26
357.82	229.29
358.20	229.34
358.58	229.43
358.97	229.44
359.35	229.60
359.73	229.88
360.11	229.88
360.49	229.85
360.87	229.96
361.25	229.99
361.63	230.06
362.01	230.07
362.39	230.14
362.77	230.18
363.15	230.27
363.53	230.29
363.91	230.29
364.29	230.26
364.67	229.99
365.05	229.99
365.43	229.90
365.81	229.86
366.19	229.93
366.57	229.99
366.95	230.01
367.33	229.84
367.71	229.79
368.09	229.75
368.47	229.78
368.85	229.66
369.23	229.66
369.61	229.48
369.99	229.52
370.37	229.51
370.75	229.54
371.13	229.38
371.51	229.23
371.89	229.22
372.27	229.26
372.65	229.30
373.03	229.28
373.41	229.30
373.78	229.22
374.16	229.11
374.54	229.06
374.92	228.87
375.30	228.83
375.68	228.70
376.06	228.62
376.44	228.49
376.82	228.38
377.19	228.23
377.57	228.11
377.95	227.99
378.33	227.87
378.71	227.76
379.09	227.74
379.47	227.70
379.84	227.58
380.22	227.37
380.60	227.25
380.98	227.17
381.36	227.06
381.73	227.01
382.11	227.00
382.49	226.94
382.87	226.91
383.25	226.93
383.62	227.02
384.00	226.96
384.38	226.92
384.76	226.94
385.13	226.99
385.51	227.03
385.89	226.92
386.27	227.00
386.64	226.93
387.02	226.96
387.40	226.99
387.78	227.01
388.15	227.14
388.53	227.24
388.91	227.13
389.29	227.07
389.66	227.10
390.04	227.03
390.42	226.97
390.79	226.98
391.17	226.90
391.55	226.70
391.92	226.80
392.30	226.95
392.68	226.91
393.05	226.83
393.43	226.81
393.81	226.80
394.18	226.72
394.56	226.77
394.94	226.86
395.31	226.85
395.69	226.94
396.06	226.97
396.44	226.89
396.82	226.99
397.19	227.28
397.57	227.19
397.95	227.37
398.32	227.45
398.70	227.56
399.07	227.75
399.45	227.85
399.82	227.82
400.20	227.77
400.58	227.88
400.95	227.99
401.33	228.14
401.70	228.43
402.08	228.52
402.45	228.70
402.83	228.77
403.20	228.92
403.58	229.04
403.95	229.11
404.33	229.30
404.71	229.51
405.08	229.76
405.46	230.02
405.83	230.21
406.21	230.36
406.58	230.55
406.96	230.70
407.33	231.01
407.70	231.26
408.08	231.70
408.45	232.02
408.83	232.29
409.20	232.51
409.58	232.71
409.95	233.05
410.33	233.34
410.70	233.59
411.08	233.96
411.45	234.29
411.82	234.73
412.20	235.19
412.57	235.77
412.95	236.03
413.32	236.54
413.69	236.98
414.07	237.48
414.44	238.08
414.82	238.67
415.19	239.22
415.56	240.02
415.94	240.71
416.31	241.51
416.68	242.24
417.06	243.24
417.43	244.09
417.81	245.21
418.18	246.22
418.55	247.29
418.93	248.35
419.30	249.63
419.67	250.84
420.04	252.09
420.42	253.44
420.79	255.11
421.16	256.79
421.54	258.54
421.91	260.31
422.28	262.00
422.66	263.91
423.03	265.82
423.40	267.76
423.77	269.70
424.15	271.73
424.52	273.93
424.89	276.20
425.26	278.60
425.64	280.70
426.01	283.08
426.38	285.69
426.75	288.33
427.13	290.97
427.50	293.69
427.87	296.50
428.24	299.30
428.61	301.96
428.99	304.87
429.36	308.10
429.73	311.20
430.10	314.35
430.47	317.51
430.85	320.79
431.22	324.14
431.59	328.09
431.96	331.60
432.33	335.48
432.70	339.34
433.08	343.68
433.45	347.81
433.82	352.12
434.19	356.75
434.56	361.21
434.93	365.37
435.30	369.69
435.68	374.50
436.05	379.05
436.42	383.77
436.79	387.99
437.16	392.45
437.53	397.25
437.90	402.12
438.27	406.73
438.64	411.55
439.01	415.97
439.38	419.79
439.75	423.69
440.13	427.96
440.50	431.99
440.87	435.43
441.24	439.09
441.61	442.81
441.98	445.58
442.35	448.94
442.72	452.31
443.09	455.79
443.46	457.87
443.83	459.40
444.20	460.51
444.57	462.46
444.94	463.32
445.31	464.41
445.68	465.51
446.05	466.30
446.42	466.21
446.79	466.18
447.16	465.98
447.53	466.05
447.90	464.84
448.27	463.53
448.64	461.46
449.01	459.97
449.37	457.25
449.74	454.68
450.11	451.60
450.48	448.22
450.85	444.40
451.22	441.44
451.59	438.49
451.96	435.92
452.33	432.08
452.70	428.60
453.07	424.31
453.43	419.84
453.80	415.54
454.17	411.40
454.54	407.64
454.91	403.37
455.28	399.17
455.65	395.37
456.02	391.69
456.38	388.38
456.75	384.19
457.12	380.77
457.49	377.26
457.86	373.77
458.23	370.84
458.59	367.72
458.96	364.26
459.33	361.37
459.70	358.20
460.07	355.74
460.43	352.98
460.80	350.41
461.17	348.02
461.54	345.58
461.91	343.51
462.27	340.99
462.64	338.95
463.01	336.64
463.38	334.48
463.74	332.23
464.11	330.34
464.48	328.64
464.85	326.77
465.21	325.27
465.58	323.85
465.95	321.94
466.32	320.35
466.68	318.94
467.05	317.48
467.42	315.91
467.78	314.20
468.15	312.77
468.52	311.51
468.88	310.23
469.25	308.90
469.62	307.80
469.98	306.64
470.35	305.52
470.72	304.51
471.08	303.46
471.45	302.38
471.82	301.36
472.18	300.24
472.55	299.26
472.92	298.38
473.28	297.33
473.65	296.45
474.02	295.50
474.38	294.61
474.75	293.84
475.11	293.22
475.48	292.58
475.85	291.97
476.21	291.42
476.58	290.76
476.94	290.34
477.31	289.69
477.67	289.20
478.04	288.84
478.41	288.42
478.77	288.19
479.14	287.69
479.50	287.29
479.87	287.11
480.23	286.83
480.60	286.52
480.96	286.23
481.33	286.16
481.69	286.00
482.06	285.80
482.42	285.60
482.79	285.31
483.15	285.26
483.52	285.26
483.88	285.13
484.25	284.99
484.61	284.85
484.98	284.78
485.34	284.83
485.71	284.81
486.07	284.96
486.44	284.77
486.80	285.06
487.17	285.22
487.53	285.48
487.90	285.80
488.26	285.96
488.62	286.25
488.99	286.46
489.35	286.75
489.72	287.05
490.08	287.44
490.44	287.95
490.81	288.24
491.17	288.43
491.54	288.80
491.90	289.27
492.26	289.77
492.63	290.15
492.99	290.50
493.36	290.76
493.72	291.20
494.08	291.72
494.45	292.07
494.81	292.50
495.17	292.87
495.54	293.33
495.90	293.77
496.26	294.22
496.63	294.67
496.99	295.18
497.35	295.74
497.72	296.18
498.08	296.51
498.44	296.97
498.80	297.68
499.17	298.19
499.53	298.60
499.89	299.05
500.26	299.53
500.62	299.97
500.98	300.60
501.34	300.94
501.71	301.35
502.07	301.64
502.43	301.91
502.79	302.14
503.16	302.40
503.52	302.73
503.88	303.04
504.24	303.29
504.60	303.66
504.97	303.91
505.33	304.16
505.69	304.46
506.05	304.73
506.41	304.85
506.78	305.02
507.14	305.16
507.50	305.41
507.86	305.60
508.22	305.83
508.59	305.85
508.95	306.02
509.31	306.22
509.67	306.68
510.03	306.88
510.39	307.10
510.75	307.41
511.12	307.68
511.48	307.84
511.84	308.02
512.20	308.03
512.56	308.33
512.92	308.63
513.28	308.90
513.64	309.21
514.00	309.65
514.37	310.00
514.73	310.43
515.09	310.77
515.45	311.10
515.81	311.51
516.17	312.06
516.53	312.49
516.89	312.92
517.25	313.34
517.61	314.20
517.97	315.03
518.33	315.71
518.69	316.47
519.05	317.35
519.41	318.25
519.77	319.46
520.13	320.35
520.49	321.33
520.85	322.48
521.21	323.80
521.57	325.10
521.93	326.52
522.29	327.98
522.65	329.50
523.01	331.09
523.37	332.70
523.73	334.38
524.09	336.14
524.45	338.12
524.81	340.00
525.17	341.94
525.53	344.01
525.89	346.00
526.25	348.28
526.61	350.60
526.97	352.99
527.33	355.31
527.68	358.08
528.04	360.77
528.40	363.49
528.76	366.22
529.12	368.91
529.48	372.02
529.84	374.93
530.20	377.98
530.56	381.29
530.91	384.60
531.27	387.87
531.63	391.35
531.99	394.79
532.35	398.45
532.71	402.05
533.07	405.83
533.42	409.96
533.78	413.78
534.14	417.90
534.50	421.91
534.86	426.14
535.21	430.09
535.57	434.48
535.93	438.80
536.29	443.30
536.65	447.79
537.00	452.04
537.36	456.52
537.72	461.15
538.08	465.70
538.44	470.38
538.79	475.35
539.15	480.19
539.51	485.05
539.87	490.20
540.22	495.39
540.58	500.36
540.94	505.22
541.29	510.28
541.65	515.31
542.01	520.59
542.37	525.75
542.72	531.11
543.08	536.16
543.44	541.42
543.79	546.49
544.15	551.89
544.51	557.50
544.87	563.06
545.22	568.62
545.58	574.19
545.94	579.55
546.29	584.98
546.65	590.32
547.01	595.70
547.36	600.87
547.72	606.03
548.07	611.37
548.43	616.78
548.79	622.25
549.14	627.55
549.50	632.85
549.86	638.05
550.21	643.27
550.57	648.60
550.92	653.73
551.28	659.08
551.64	664.27
551.99	669.29
552.35	674.33
552.70	679.59
553.06	684.94
553.41	690.31
553.77	695.42
554.13	700.63
554.48	706.03
554.84	710.99
555.19	715.99
555.55	721.18
555.90	726.19
556.26	731.20
556.61	736.15
556.97	740.94
557.32	745.99
557.68	750.80
558.03	755.79
558.39	760.76
558.74	765.76
559.10	770.67
559.45	775.65
559.81	780.85
560.16	785.20
560.52	789.78
560.87	794.52
561.23	799.12
561.58	803.95
561.94	808.32
562.29	812.84
562.64	817.30
563.00	821.56
563.35	826.00
563.71	830.44
564.06	835.08
564.42	839.85
564.77	844.09
565.12	848.64
565.48	853.12
565.83	857.00
566.19	861.18
566.54	865.09
566.89	868.93
567.25	872.60
567.60	877.22
567.96	881.00
568.31	884.72
568.66	888.36
569.02	891.76
569.37	895.17
569.72	898.84
570.08	902.06
570.43	905.20
570.78	908.28
571.14	911.23
571.49	914.03
571.84	917.05
572.20	920.01
572.55	922.72
572.90	924.85
573.26	927.95
573.61	930.06
573.96	932.35
574.31	934.26
574.67	935.94
575.02	937.30
575.37	939.16
575.72	940.48
576.08	942.13
576.43	943.95
576.78	945.80
577.13	947.40
577.49	949.23
577.84	951.09
578.19	952.72
578.54	953.89
578.90	955.06
579.25	955.89
579.60	956.74
579.95	957.55
580.30	958.51
580.66	959.15
581.01	960.00
581.36	960.92
581.71	961.70
582.06	962.56
582.42	963.28
582.77	963.55
583.12	964.29
583.47	965.09
583.82	965.41
584.17	965.62
584.53	965.97
584.88	966.46
585.23	966.80
585.58	967.14
585.93	967.74
586.28	968.18
586.63	968.39
586.98	968.44
587.34	968.82
587.69	969.10
588.04	968.95
588.39	969.14
588.74	968.64
589.09	968.56
589.44	968.17
589.79	967.90
590.14	967.93
590.49	967.52
590.84	966.89
591.19	966.60
591.54	965.81
591.89	964.61
592.25	963.96
592.60	962.46
592.95	961.03
593.30	959.67
593.65	958.16
594.00	956.76
594.35	956.28
594.70	954.46
595.05	953.18
595.40	952.21
595.75	950.67
596.10	949.80
596.45	948.68
596.80	947.54
597.15	946.23
597.50	944.84
597.85	943.70
598.19	942.27
598.54	940.88
598.89	939.57
599.24	938.65
599.59	937.02
599.94	936.06
600.29	934.80
600.64	933.50
600.99	931.85
601.34	930.46
601.69	928.37
602.04	927.03
602.39	925.18
602.74	923.54
603.08	922.15
603.43	920.68
603.78	918.83
604.13	917.56
604.48	915.68
604.83	913.92
605.18	912.17
605.53	910.19
605.87	907.75
606.22	906.00
606.57	903.84
606.92	901.60
607.27	899.69
607.62	897.88
607.96	895.78
608.31	894.24
608.66	892.05
609.01	889.93
609.36	887.39
609.70	885.02
610.05	882.23
610.40	879.82
610.75	876.93
611.10	874.40
611.44	871.21
611.79	868.66
612.14	865.92
612.49	862.47
612.83	859.60
613.18	856.93
613.53	853.82
613.88	850.70
614.22	847.87
614.57	844.43
614.92	841.29
615.27	838.46
615.61	835.15
615.96	832.14
616.31	829.34
616.65	827.03
617.00	824.44
617.35	821.79
617.70	818.59
618.04	815.50
618.39	812.81
618.74	810.17
619.08	806.91
619.43	804.17
619.78	801.82
620.12	799.10
620.47	796.30
620.82	793.53
621.16	791.11
621.51	788.56
621.85	786.05
622.20	783.18
622.55	780.28
622.89	777.67
623.24	775.12
623.59	772.18
623.93	769.53
624.28	766.66
624.62	763.93
624.97	761.15
625.32	758.53
625.66	755.66
626.01	752.86
626.35	750.20
626.70	747.22
627.04	744.56
627.39	741.81
627.73	739.03
628.08	736.19
628.43	733.26
628.77	730.16
629.12	727.12
629.46	724.23
629.81	721.14
630.15	717.86
630.50	714.68
630.84	711.45
631.19	707.80
631.53	704.69
631.88	701.41
632.22	698.13
632.57	695.16
632.91	691.82
633.26	688.80
633.60	685.73
633.95	682.87
634.29	679.59
634.64	676.62
634.98	673.65
635.32	671.19
635.67	668.55
636.01	665.83
636.36	663.00
636.70	660.28
637.05	657.85
637.39	655.60
637.73	652.85
638.08	650.55
638.42	648.32
638.77	645.80
639.11	642.96
639.45	640.58
639.80	638.03
640.14	635.58
640.49	632.96
640.83	630.35
641.17	627.61
641.52	625.19
641.86	622.58
642.20	619.92
642.55	616.91
642.89	613.99
643.23	611.22
643.58	608.79
643.92	606.08
644.26	603.11
644.61	600.44
644.95	597.88
645.29	594.56
645.64	591.53
645.98	588.77
646.32	586.48
646.66	583.58
647.01	580.58
647.35	577.90
647.69	575.22
648.04	572.88
648.38	570.02
648.72	567.14
649.06	564.28
649.41	561.61
649.75	558.98
650.09	556.21
650.43	553.43
650.78	550.37
651.12	547.51
651.46	544.78
651.80	542.04
652.14	539.49
652.49	537.07
652.83	534.44
653.17	531.65
653.51	528.75
653.85	526.24
654.20	523.78
654.54	520.96
654.88	518.10
655.22	515.21
655.56	512.61
655.90	510.16
656.25	507.80
656.59	505.19
656.93	502.56
657.27	500.10
657.61	497.44
657.95	495.24
658.29	492.77
658.64	490.28
658.98	487.60
659.32	484.86
659.66	482.59
660.00	480.15
660.34	477.77
660.68	475.65
661.02	473.32
661.36	471.10
661.70	469.00
662.05	466.96
662.39	464.83
662.73	462.78
663.07	460.67
663.41	458.55
663.75	456.47
664.09	454.35
664.43	452.20
664.77	450.36
665.11	448.31
665.45	446.51
665.79	444.72
666.13	442.80
666.47	440.85
666.81	438.72
667.15	436.77
667.49	434.92
667.83	432.98
668.17	430.91
668.51	428.78
668.85	426.83
669.19	425.08
669.53	423.18
669.87	421.34
670.21	419.51
670.55	417.60
670.89	416.07
671.23	414.40
671.57	412.73
671.91	411.10
672.25	409.34
672.58	407.55
672.92	405.80
673.26	404.24
673.60	402.79
673.94	401.44
674.28	399.95
674.62	398.42
674.96	396.84
675.30	395.58
675.64	394.18
675.97	392.75
676.31	391.33
676.65	389.94
676.99	388.65
677.33	387.05
677.67	385.50
678.01	383.82
678.34	382.37
678.68	380.93
679.02	379.28
679.36	377.90
679.70	376.51
680.04	375.15
680.37	373.73
680.71	372.37
681.05	371.09
681.39	369.80
681.73	368.51
682.06	367.27
682.40	366.02
682.74	364.70
683.08	363.50
683.42	362.07
683.75	360.70
684.09	359.25
684.43	357.94
684.77	356.73
685.10	355.46
685.44	354.23
685.78	353.03
686.12	351.96
686.45	350.62
686.79	349.45
687.13	348.30
687.46	347.01
687.80	345.71
688.14	344.33
688.48	343.10
688.81	341.76
689.15	340.59
689.49	339.27
689.82	338.24
690.16	336.98
690.50	335.90
690.83	334.92
691.17	333.69
691.51	332.71
691.84	331.69
692.18	330.73
692.52	329.43
692.85	328.30
693.19	327.29
693.52	326.19
693.86	325.13
694.20	323.93
694.53	322.85
694.87	321.80
695.21	320.71
695.54	319.66
695.88	318.65
696.21	317.50
696.55	316.59
696.88	315.59
697.22	314.69
697.56	313.59
697.89	312.50
698.23	311.74
698.56	310.76
698.90	309.79
699.23	308.69
699.57	307.86
699.90	307.01
700.24	305.95
700.58	305.10
700.91	304.12
701.25	303.50
701.58	302.67
701.92	301.85
702.25	301.09
702.59	300.35
702.92	299.69
703.26	298.96
703.59	298.16
703.93	297.44
704.26	296.57
704.60	295.83
704.93	295.20
705.26	294.27
705.60	293.66
705.93	293.00
706.27	292.48
706.60	291.97
706.94	291.27
707.27	290.61
707.61	290.02
707.94	289.59
708.27	288.71
708.61	288.12
708.94	287.58
709.28	286.88
709.61	286.26
709.94	285.55
710.28	284.78
710.61	284.13
710.95	283.47
711.28	283.09
711.61	282.54
711.95	281.80
712.28	281.33
712.61	280.61
712.95	279.93
713.28	279.25
713.61	278.59
713.95	278.06
714.28	277.47
714.61	276.93
714.95	276.28
715.28	275.84
715.61	275.16
715.95	274.50
716.28	274.11
716.61	273.61
716.95	273.06
717.28	272.78
717.61	272.21
717.94	271.62
718.28	270.92
718.61	270.42
718.94	270.02
719.27	269.50
719.61	269.13
719.94	268.85
720.27	268.37
720.60	267.88
720.94	267.36
721.27	267.17
721.60	266.76
721.93	266.36
722.27	265.90
722.60	265.73
722.93	265.44
723.26	264.98
723.59	264.61
723.93	264.29
724.26	263.90
724.59	263.54
724.92	263.27
725.25	263.03
725.59	262.70
725.92	262.31
726.25	261.85
726.58	261.38
726.91	261.01
727.24	260.71
727.57	260.49
727.91	260.22
728.24	259.78
728.57	259.38
728.90	259.13
729.23	258.73
729.56	258.50
729.89	258.10
730.22	257.83
730.55	257.50
730.89	257.10
731.22	256.77
731.55	256.63
731.88	256.37
732.21	256.00
732.54	255.64
732.87	255.37
733.20	255.17
733.53	254.90
733.86	254.59
734.19	254.33
734.52	254.04
734.85	253.90
735.18	253.56
735.51	253.35
735.84	252.94
736.17	252.80
736.50	252.41
736.83	252.44
737.16	252.16
737.49	251.84
737.82	251.72
738.15	251.50
738.48	251.18
738.81	250.91
739.14	250.74
739.47	250.52
739.80	250.30
740.13	250.14
740.46	249.92
740.79	249.73
741.12	249.38
741.45	249.04
741.78	248.62
742.11	248.42
742.44	248.17
742.77	247.98
743.10	247.73
743.43	247.46
743.75	246.95
744.08	246.89
744.41	246.64
744.74	246.41
745.07	246.11
745.40	245.91
745.73	245.81
746.06	245.45
746.39	245.36
746.71	245.27
747.04	245.08
747.37	244.92
747.70	244.73
748.03	244.68
748.36	244.50
748.68	244.34
749.01	244.12
749.34	243.88
749.67	243.64
750.00	243.50
750.33	243.43
750.65	243.32
750.98	243.08
751.31	242.96
751.64	242.66
751.97	242.73
752.29	242.57
752.62	242.23
752.95	242.20
753.28	241.95
753.60	241.65
753.93	241.50
754.26	241.31
754.59	241.19
754.91	241.00
755.24	240.85
755.57	240.69
755.90	240.61
756.22	240.52
756.55	240.42
756.88	240.37
757.20	240.10
757.53	240.05
757.86	239.86
758.19	239.84
758.51	239.86
758.84	239.65
759.17	239.42
759.49	239.39
759.82	239.37
760.15	239.28
760.47	239.19
760.80	239.03
761.13	239.00
761.45	238.82
761.78	238.80
762.11	238.84
762.43	238.89
762.76	238.77
763.08	238.56
763.41	238.55
763.74	238.34
764.06	238.27
764.39	238.18
764.71	238.10
765.04	237.93
765.37	237.79
765.69	237.64
766.02	237.60
766.34	237.48
766.67	237.28
767.00	237.20
767.32	237.19
767.65	237.30
767.97	237.16
768.30	237.08
768.62	236.94
768.95	236.77
769.27	236.57
769.60	236.45
769.92	236.44
770.25	236.29
770.57	236.17
770.90	236.07
771.22	235.95
771.55	235.78
771.87	235.69
772.20	235.52
772.52	235.54
772.85	235.71
773.17	235.59
773.50	235.45
773.82	235.32
774.15	235.11
774.47	234.80
774.80	234.69
775.12	234.59
775.45	234.48
775.77	234.42
776.09	234.32
776.42	234.30
776.74	234.26
777.07	234.23
777.39	234.14
777.72	234.00
778.04	233.93
778.36	233.87
778.69	233.83
779.01	233.96
779.33	233.76
779.66	233.45
779.98	233.38
780.31	233.39
780.63	233.54
780.95	233.51
781.28	233.48
781.60	233.37
781.92	233.30
782.25	233.17
782.57	233.04
782.89	232.98
783.22	232.90
783.54	232.80
783.86	232.65
784.19	232.60
784.51	232.60
784.83	232.52
785.16	232.46
785.48	232.29
785.80	232.16
786.12	232.14
786.45	232.09
786.77	232.01
787.09	231.96
787.42	231.77
787.74	231.77
788.06	231.73
788.38	231.71
788.71	231.64
789.03	231.71
789.35	231.77
789.67	231.64
789.99	231.52
790.32	231.48
790.64	231.50
790.96	231.61
791.28	231.49
791.61	231.36
791.93	231.36
792.25	231.45
792.57	231.50
792.89	231.39
793.21	231.43
793.54	231.46
793.86	231.39
794.18	231.41
794.50	231.34
794.82	231.30
795.14	231.43
795.47	231.55
795.79	231.51
796.11	231.40
796.43	231.40
796.75	231.47
797.07	231.44
797.39	231.36
797.71	231.24
798.04	231.28
798.36	231.41
798.68	231.39
799.00	231.37
799.32	231.33
799.64	231.43
799.96	231.38
800.28	231.35
800.60	231.33
800.92	231.36
801.24	231.39
801.56	231.40
801.89	231.32
802.21	231.26
802.53	231.20
802.85	231.27
803.17	231.42
803.49	231.32
803.81	231.41
804.13	231.41
804.45	231.34
804.77	231.32
805.09	231.21
805.41	231.16
805.73	231.08
806.05	230.98
806.37	230.90
806.69	230.87
807.01	230.79
807.33	230.76
807.65	230.66
807.97	230.70
808.28	230.70
808.60	230.67
808.92	230.64
809.24	230.80
809.56	230.76
809.88	230.65
810.20	230.68
810.52	230.68
810.84	230.67
811.16	230.62
811.48	230.60
811.80	230.70
812.12	230.67
812.43	230.81
812.75	230.91
813.07	230.83
813.39	230.77
813.71	230.79
814.03	230.83
814.35	230.74
814.67	230.62
814.98	230.52
815.30	230.48
815.62	230.36
815.94	230.13
816.26	230.14
816.58	230.13
816.89	230.14
817.21	230.06
817.53	230.01
817.85	229.93
818.17	229.98
818.48	229.81
818.80	229.88
819.12	229.66
819.44	229.54
819.76	229.56
820.07	229.51
820.39	229.38
820.71	229.30
821.03	229.27
821.34	229.21
821.66	229.23
821.98	229.22
822.30	229.15
822.61	229.26
822.93	229.10
823.25	229.12
823.57	229.09
823.88	229.03
824.20	229.02
824.52	229.04
824.83	228.99
825.15	228.96
825.47	228.87
825.79	228.94
826.10	228.81
826.42	228.73
826.74	228.70
827.05	228.66
827.37	228.72
827.69	228.65
828.00	228.61
828.32	228.57
828.64	228.52
828.95	228.55
829.27	228.51
829.58	228.58
829.90	228.40
830.22	228.41
830.53	228.39
830.85	228.43
831.17	228.40
831.48	228.29
831.80	228.30
832.11	228.25
832.43	228.12
832.75	228.24
833.06	228.37
833.38	228.26
833.69	228.32
834.01	228.15
834.32	228.26
834.64	228.23
834.96	228.23
835.27	228.23
835.59	228.32
835.90	228.26
836.22	228.21
836.53	228.15
836.85	228.10
837.16	228.28
837.48	228.22
837.79	228.30
838.11	228.41
838.42	228.38
838.74	228.49
839.05	228.53
839.37	228.45
839.68	228.41
840.00	228.46
840.31	228.57
840.63	228.64
840.94	228.60
841.26	228.64
841.57	228.64
841.88	228.65
842.20	228.70
842.51	228.70
842.83	228.68
843.14	228.97
843.46	229.05
843.77	229.00
844.08	228.99
844.40	228.97
844.71	228.99
845.03	229.05
845.34	229.00
845.65	229.06
845.97	229.04
846.28	229.09
846.60	229.22
846.91	229.22
847.22	229.34
847.54	229.42
847.85	229.55
848.16	229.47
848.48	229.52
848.79	229.50
849.10	229.50
849.42	229.65
849.73	229.51
850.04	229.46
850.36	229.44
850.67	229.44
850.98	229.52
851.30	229.52
851.61	229.52
851.92	229.60
852.23	229.60
852.55	229.74
852.86	229.68
853.17	229.70
853.49	229.73
853.80	229.68
854.11	229.71
854.42	229.68
854.74	229.80
855.05	229.81
855.36	229.81
855.67	229.87
855.99	229.80
856.30	230.04
856.61	230.00
856.92	229.94
857.23	229.95
857.55	229.84
857.86	229.85
858.17	229.87
858.48	229.82
858.79	229.80
859.11	229.82
859.42	229.83
859.73	229.79
860.04	229.73
860.35	229.72
860.66	229.70
860.98	229.70
861.29	229.77
861.60	229.78
861.91	229.73
862.22	229.62
862.53	229.64
862.84	229.31
863.16	229.48
863.47	229.40
863.78	229.35
864.09	229.44
864.40	229.45
864.71	229.41
865.02	229.42
865.33	229.43
865.64	229.26
865.95	229.23
866.27	229.35
866.58	229.32
866.89	229.26
867.20	229.16
867.51	229.07
867.82	228.95
868.13	228.90
868.44	228.79
868.75	228.82
869.06	228.75
869.37	228.80
869.68	228.63
869.99	228.69
870.30	228.79
870.61	228.70
870.92	228.59
871.23	228.56
871.54	228.48
871.85	228.40
872.16	228.41
872.47	228.37
872.78	228.25
873.09	228.24
873.40	228.24
873.71	228.25
874.02	228.24
874.33	228.19
874.64	228.13
874.95	228.05
875.26	228.01
875.56	227.99
875.87	227.94
876.18	227.91
876.49	228.00
876.80	227.93
877.11	227.88
877.42	227.88
877.73	227.97
878.04	228.11
878.35	228.19
878.66	228.21
878.96	228.20
879.27	228.17
879.58	228.14
879.89	228.07
880.20	228.14
880.51	228.14
880.82	228.21
881.12	228.15
881.43	228.31
881.74	228.33
882.05	228.30
882.36	228.34
882.67	228.29
882.97	228.14
883.28	228.22
883.59	228.30
883.90	228.36
884.21	228.29
884.51	228.13
884.82	228.12
885.13	228.07
885.44	228.14
885.74	228.16
886.05	228.21
886.36	228.30
886.67	228.19
886.98	228.26
887.28	228.27
887.59	228.32
887.90	228.35
888.20	228.36
888.51	228.40
888.82	228.42
889.13	228.52
889.43	228.75
889.74	228.68
890.05	228.60
890.35	228.64
890.66	228.69
890.97	228.71
891.28	228.75
891.58	228.83
891.89	228.76
892.20	228.71
892.50	228.78
892.81	228.78
893.12	228.88
893.42	228.88
893.73	228.97
894.04	229.04
894.34	228.95
894.65	228.96
894.95	228.97
895.26	228.91
895.57	229.00
895.87	228.87
896.18	228.94
896.48	228.96
896.79	228.88
897.10	228.91
897.40	228.93
897.71	228.91
898.01	228.90
898.32	229.02
898.63	229.00
898.93	228.94
899.24	228.91
899.54	228.90
899.85	228.80
900.15	228.62
900.46	228.56
900.76	228.60
901.07	228.54
901.38	228.55
901.68	228.50
901.99	228.40
902.29	228.27
902.60	228.13
902.90	228.16
903.21	228.13
903.51	228.01
903.82	228.09
904.12	228.01
904.43	227.93
904.73	227.76
905.03	227.76
905.34	227.87
905.64	227.68
905.95	227.60
906.25	227.57
906.56	227.69
906.86	227.77
907.17	227.70
907.47	227.65
907.77	227.59
908.08	227.57
908.38	227.52
908.69	227.57
908.99	227.59
909.30	227.50
909.60	227.44
909.90	227.46
910.21	227.29
910.51	227.32
910.81	227.39
911.12	227.41
911.42	227.35
911.73	227.18
912.03	227.34
912.33	227.36
912.64	227.39
912.94	227.24
913.24	227.19
913.55	227.23
913.85	227.25
914.15	227.34
914.46	227.43
914.76	227.48
915.06	227.41
915.37	227.44
915.67	227.46
915.97	227.53
916.27	227.54
916.58	227.54
916.88	227.55
917.18	227.49
917.49	227.71
917.79	227.84
918.09	227.91
918.39	227.96
918.70	227.98
919.00	228.06
919.30	228.26
919.60	228.25
919.91	228.31
920.21	228.39
920.51	228.43
920.81	228.49
921.12	228.49
921.42	228.59
921.72	228.53
922.02	228.59
922.32	228.63
922.63	228.68
922.93	228.89
923.23	228.91
923.53	229.06
923.83	228.97
924.13	229.02
924.44	228.90
924.74	228.87
925.04	228.92
925.34	228.87
925.64	228.76
925.94	228.74
926.24	228.81
926.55	228.78
926.85	228.77
927.15	228.77
927.45	228.84
927.75	228.86
928.05	228.99
928.35	229.03
928.65	229.18
928.95	229.22
929.26	229.14
929.56	229.24
929.86	229.18
930.16	229.13
930.46	229.11
930.76	229.32
931.06	229.34
931.36	229.25
931.66	229.31
931.96	229.40
932.26	229.39
932.56	229.28
932.86	229.37
933.16	229.30
933.46	229.25
933.76	229.20
934.06	229.22
934.36	229.22
934.66	229.11
934.96	229.02
935.26	228.99
935.56	228.87
935.86	228.73
936.16	228.70
936.46	228.69
936.76	228.59
937.06	228.52
937.36	228.53
937.66	228.60
937.96	228.54
938.26	228.41
938.56	228.46
938.86	228.45
939.16	228.40
939.46	228.36
939.76	228.27
940.06	228.30
940.35	228.22
940.65	228.15
940.95	228.26
941.25	228.11
941.55	228.05
941.85	228.18
942.15	228.21
942.45	228.24
942.75	228.15
943.04	228.20
943.34	228.15
943.64	228.09
943.94	228.09
944.24	228.12
944.54	228.12
944.84	228.04
945.13	227.97
945.43	227.90
945.73	227.84
946.03	227.88
946.33	227.82
946.62	227.73
946.92	227.69
947.22	227.56
947.52	227.56
947.82	227.59
948.11	227.55
948.41	227.54
948.71	227.41
949.01	227.45
949.31	227.48
949.60	227.44
949.90	227.50
950.20	227.38
950.50	227.35
950.79	227.27
951.09	227.21
951.39	227.20
951.69	227.20
951.98	227.27
952.28	227.27
952.58	227.13
952.87	227.15
953.17	227.12
953.47	227.19
953.76	227.19
954.06	227.14
954.36	227.02
954.66	227.03
954.95	227.14
955.25	227.15
955.55	227.08
955.84	227.02
956.14	226.97
956.44	227.03
956.73	227.00
957.03	227.11
957.32	227.20
957.62	227.28
957.92	227.33
958.21	227.35
958.51	227.65
958.81	227.80
959.10	227.89
959.40	228.04
959.69	228.04
959.99	228.16
960.29	228.18
960.58	228.31
960.88	228.33
961.17	228.34
961.47	228.49
961.76	228.53
962.06	228.65
962.36	228.70
962.65	228.75
962.95	228.76
963.24	228.78
963.54	228.86
963.83	228.95
964.13	228.92
964.42	228.96
964.72	228.70
965.01	228.76
965.31	228.83
965.60	228.85
965.90	229.05
966.19	229.02
966.49	229.13
966.78	229.01
967.08	229.07
967.37	228.99
967.67	228.84
967.96	228.90
968.26	228.93
968.55	229.00
968.85	228.98
969.14	229.05
969.43	229.10
969.73	229.03
970.02	228.90
970.32	229.00
970.61	228.95
970.91	228.90
971.20	228.96
971.49	228.83
971.79	228.80
972.08	228.65
972.38	228.66
972.67	228.55
972.96	228.66
973.26	228.58
973.55	228.75
973.85	228.76
974.14	228.77
974.43	228.74
974.73	228.67
975.02	228.59
975.31	228.59
975.61	228.54
975.90	228.50
976.19	228.53
976.49	228.49
976.78	228.49
977.07	228.54
977.37	228.50
977.66	228.52
977.95	228.45
978.24	228.41
978.54	228.38
978.83	228.38
979.12	228.31
979.42	228.32
979.71	228.14
980.00	228.12
980.29	228.08
980.59	227.99
980.88	227.98
981.17	228.00
981.46	228.02
981.76	227.93
982.05	228.04
982.34	227.92
982.63	227.80
982.93	227.80
983.22	227.85
983.51	227.70
983.80	227.70
984.09	227.70
984.39	227.73
984.68	227.66
984.97	227.59
985.26	227.58
985.55	227.53
985.85	227.41
986.14	227.47
986.43	227.40
986.72	227.32
987.01	227.25
987.30	227.20
987.59	227.07
987.89	227.05
988.18	226.83
988.47	226.93
988.76	226.84
989.05	226.76
989.34	226.60
989.63	226.64
989.92	226.63
990.22	226.60
990.51	226.51
990.80	226.52
991.09	226.55
991.38	226.50
991.67	226.51
991.96	226.55
992.25	226.41
992.54	226.48
992.83	226.61
993.12	226.64
993.41	226.75
993.70	226.83
993.99	226.89
994.28	227.01
994.58	226.99
994.87	227.06
995.16	227.22
995.45	227.32
995.74	227.35
996.03	227.44
996.32	227.36
996.61	227.42
996.90	227.46
997.19	227.50
997.48	227.53
997.77	227.55
998.06	227.62
998.34	227.70
998.63	227.72
998.92	227.73
999.21	227.76
999.50	227.86
999.79	227.85
1000.08	227.95
1000.37	228.08
1000.66	228.10
1000.95	228.27
1001.24	228.22
1001.53	228.26
1001.82	228.25
1002.11	228.26
1002.40	228.41
1002.68	228.54
1002.97	228.74
1003.26	228.82
1003.55	228.83
1003.84	228.88
1004.13	229.01
1004.42	229.09
1004.71	229.12
1004.99	229.15
1005.28	229.39
1005.57	229.25
1005.86	229.28
1006.15	229.29
1006.44	229.27
1006.72	229.43
1007.01	229.40
1007.30	229.39
1007.59	229.30
1007.88	229.31
1008.17	229.32
1008.45	229.44
1008.74	229.40
1009.03	229.34
1009.32	229.30
1009.60	229.37
1009.89	229.38
1010.18	229.35
1010.47	229.27
1010.76	229.33
1011.04	229.17
1011.33	229.23
1011.62	229.16
1011.91	229.20
1012.19	229.19
1012.48	229.11
1012.77	229.02
1013.05	229.02
1013.34	228.92
1013.63	228.99
1013.92	228.89
1014.20	228.85
1014.49	228.69
1014.78	228.65
1015.06	228.45
1015.35	228.40
1015.64	228.32
1015.92	228.31
1016.21	228.27
1016.50	228.25
1016.78	228.08
1017.07	228.12
1017.36	227.78
1017.64	227.80
1017.93	227.73
1018.22	227.69
1018.50	227.65
1018.79	227.63
1019.08	227.59
1019.36	227.70
1019.65	227.70
1019.93	227.82
1020.22	227.85
1020.51	227.90
1020.79	227.79
1021.08	228.10
1021.36	227.70
1021.65	228.30
1021.94	228.20
1022.22	228.20
1022.51	228.60
1022.79	229.10
1023.08	228.80
1023.36	228.70
1023.65	226.50
>>>>>End Processed Spectral Data<<<<<
