SpectraSuite Data File
++++++++++++++++++++++++++++++++++++
Date: Fri Feb 01 14:41:42 EST 2013
User: group
Dark Spectrum Present: No
Reference Spectrum Present: No
Number of Sampled Component Spectra: 1
Spectrometers: USB2E7196
Integration Time (usec): 70000 (USB2E7196)
Spectra Averaged: 10 (USB2E7196)
Boxcar Smoothing: 10 (USB2E7196)
Correct for Electrical Dark: No (USB2E7196)
Strobe/Lamp Enabled: No (USB2E7196)
Correct for Detector Non-linearity: No (USB2E7196)
Correct for Stray Light: No (USB2E7196)
Number of Pixels in Processed Spectrum: 2048
>>>>>Begin Processed Spectral Data<<<<<
339.09	0.00
339.48	216.80
339.86	218.50
340.24	219.10
340.63	223.20
341.01	225.40
341.39	224.30
341.78	224.30
342.16	227.30
342.54	227.70
342.93	215.41
343.31	226.22
343.69	226.72
344.07	227.19
344.46	227.50
344.84	227.79
345.22	228.00
345.60	228.20
345.99	228.42
346.37	228.53
346.75	228.62
347.13	228.60
347.52	228.68
347.90	228.78
348.28	228.72
348.66	228.77
349.05	228.78
349.43	228.84
349.81	228.88
350.19	228.93
350.57	229.07
350.96	229.10
351.34	229.22
351.72	229.40
352.10	229.50
352.48	229.72
352.87	229.80
353.25	229.80
353.63	229.83
354.01	229.94
354.39	229.97
354.77	230.00
355.15	230.13
355.54	230.15
355.92	230.10
356.30	230.18
356.68	230.46
357.06	230.46
357.44	230.51
357.82	230.55
358.20	230.43
358.58	230.50
358.97	230.61
359.35	230.76
359.73	230.69
360.11	230.66
360.49	230.76
360.87	230.67
361.25	230.76
361.63	230.88
362.01	230.88
362.39	230.88
362.77	230.88
363.15	230.92
363.53	230.87
363.91	230.83
364.29	230.82
364.67	230.65
365.05	230.69
365.43	230.67
365.81	230.75
366.19	230.96
366.57	230.94
366.95	230.85
367.33	230.76
367.71	230.77
368.09	230.85
368.47	230.67
368.85	230.68
369.23	230.60
369.61	230.49
369.99	230.48
370.37	230.37
370.75	230.45
371.13	230.33
371.51	230.37
371.89	230.40
372.27	230.35
372.65	230.24
373.03	230.15
373.41	230.11
373.78	230.02
374.16	229.90
374.54	229.87
374.92	229.88
375.30	229.79
375.68	229.65
376.06	229.51
376.44	229.42
376.82	229.44
377.19	229.42
377.57	229.26
377.95	229.07
378.33	229.05
378.71	228.79
379.09	228.71
379.47	228.64
379.84	228.47
380.22	228.43
380.60	228.36
380.98	228.29
381.36	228.25
381.73	228.20
382.11	228.10
382.49	228.02
382.87	227.92
383.25	227.88
383.62	228.12
384.00	228.10
384.38	228.17
384.76	228.11
385.13	228.13
385.51	228.17
385.89	228.19
386.27	228.18
386.64	228.25
387.02	228.22
387.40	228.17
387.78	228.19
388.15	228.22
388.53	228.23
388.91	228.17
389.29	228.20
389.66	228.28
390.04	228.23
390.42	228.26
390.79	228.26
391.17	228.24
391.55	228.09
391.92	228.12
392.30	228.13
392.68	228.15
393.05	228.12
393.43	228.14
393.81	228.21
394.18	228.26
394.56	228.31
394.94	228.35
395.31	228.44
395.69	228.59
396.06	228.60
396.44	228.54
396.82	228.61
397.19	228.78
397.57	228.70
397.95	228.85
398.32	228.82
398.70	228.87
399.07	228.98
399.45	229.07
399.82	229.08
400.20	229.10
400.58	229.17
400.95	229.13
401.33	229.28
401.70	229.54
402.08	229.64
402.45	229.78
402.83	229.92
403.20	230.03
403.58	230.09
403.95	230.35
404.33	230.56
404.71	230.74
405.08	230.90
405.46	231.08
405.83	231.23
406.21	231.42
406.58	231.71
406.96	231.95
407.33	232.21
407.70	232.38
408.08	232.82
408.45	233.07
408.83	233.49
409.20	233.86
409.58	234.00
409.95	234.41
410.33	234.79
410.70	235.28
411.08	235.68
411.45	236.07
411.82	236.35
412.20	236.91
412.57	237.55
412.95	237.86
413.32	238.37
413.69	238.95
414.07	239.54
414.44	240.12
414.82	240.78
415.19	241.52
415.56	242.35
415.94	243.06
416.31	243.98
416.68	244.74
417.06	245.67
417.43	246.61
417.81	247.62
418.18	248.66
418.55	249.65
418.93	250.84
419.30	252.07
419.67	253.29
420.04	254.60
420.42	255.80
420.79	257.61
421.16	259.23
421.54	260.84
421.91	262.59
422.28	264.32
422.66	266.05
423.03	267.82
423.40	269.68
423.77	271.48
424.15	273.49
424.52	275.57
424.89	277.65
425.26	279.71
425.64	281.64
426.01	283.77
426.38	286.07
426.75	288.30
427.13	290.64
427.50	293.18
427.87	295.65
428.24	298.36
428.61	300.62
428.99	303.38
429.36	306.30
429.73	309.07
430.10	311.83
430.47	314.67
430.85	317.50
431.22	320.56
431.59	324.09
431.96	327.08
432.33	330.50
432.70	333.87
433.08	337.78
433.45	341.42
433.82	344.97
434.19	349.00
434.56	352.80
434.93	356.45
435.30	360.21
435.68	364.31
436.05	368.04
436.42	371.89
436.79	375.12
437.16	378.65
437.53	382.60
437.90	386.36
438.27	390.13
438.64	394.06
439.01	397.50
439.38	400.35
439.75	403.36
440.13	406.71
440.50	409.82
440.87	412.31
441.24	414.90
441.61	417.87
441.98	419.77
442.35	422.25
442.72	424.71
443.09	427.13
443.46	428.39
443.83	429.07
444.20	429.68
444.57	430.93
444.94	431.41
445.31	431.79
445.68	432.41
446.05	432.50
446.42	431.89
446.79	431.39
447.16	430.75
447.53	430.29
447.90	428.66
448.27	427.00
448.64	424.77
449.01	423.36
449.37	420.48
449.74	417.80
450.11	414.80
450.48	411.33
450.85	407.75
451.22	404.70
451.59	402.09
451.96	399.44
452.33	395.84
452.70	392.50
453.07	388.59
453.43	384.54
453.80	380.68
454.17	377.05
454.54	373.53
454.91	369.90
455.28	366.11
455.65	362.69
456.02	359.50
456.38	356.51
456.75	352.75
457.12	349.84
457.49	346.89
457.86	343.84
458.23	341.39
458.59	338.47
458.96	335.60
459.33	332.91
459.70	330.31
460.07	328.22
460.43	325.84
460.80	323.63
461.17	321.51
461.54	319.48
461.91	317.44
462.27	315.42
462.64	313.53
463.01	311.72
463.38	309.90
463.74	307.98
464.11	306.34
464.48	304.93
464.85	303.27
465.21	302.01
465.58	300.68
465.95	299.09
466.32	297.83
466.68	296.63
467.05	295.39
467.42	294.05
467.78	292.73
468.15	291.60
468.52	290.65
468.88	289.44
469.25	288.25
469.62	287.43
469.98	286.50
470.35	285.64
470.72	284.73
471.08	283.70
471.45	282.88
471.82	282.10
472.18	281.19
472.55	280.60
472.92	279.70
473.28	278.92
473.65	278.23
474.02	277.62
474.38	277.05
474.75	276.64
475.11	276.11
475.48	275.64
475.85	275.17
476.21	274.66
476.58	274.32
476.94	274.04
477.31	273.57
477.67	273.17
478.04	272.95
478.41	272.78
478.77	272.86
479.14	272.57
479.50	272.44
479.87	272.40
480.23	272.44
480.60	272.47
480.96	272.58
481.33	272.90
481.69	272.92
482.06	273.08
482.42	273.16
482.79	273.30
483.15	273.46
483.52	273.74
483.88	274.09
484.25	274.41
484.61	274.78
484.98	275.22
485.34	275.69
485.71	276.21
486.07	276.81
486.44	277.30
486.80	278.00
487.17	278.73
487.53	279.48
487.90	280.25
488.26	281.28
488.62	282.30
488.99	283.26
489.35	284.41
489.72	285.43
490.08	286.53
490.44	287.86
490.81	289.39
491.17	290.78
491.54	292.33
491.90	293.98
492.26	295.73
492.63	297.51
492.99	299.52
493.36	301.56
493.72	303.78
494.08	305.95
494.45	308.38
494.81	311.05
495.17	313.73
495.54	316.58
495.90	319.52
496.26	322.59
496.63	325.84
496.99	329.30
497.35	333.04
497.72	337.03
498.08	341.13
498.44	345.20
498.80	349.78
499.17	354.35
499.53	359.22
499.89	364.29
500.26	369.60
500.62	374.93
500.98	380.58
501.34	386.45
501.71	392.72
502.07	398.81
502.43	405.21
502.79	411.82
503.16	418.93
503.52	426.09
503.88	433.60
504.24	441.34
504.60	449.48
504.97	457.73
505.33	466.02
505.69	475.13
506.05	484.33
506.41	493.66
506.78	503.48
507.14	513.58
507.50	523.79
507.86	534.63
508.22	545.71
508.59	557.08
508.95	568.63
509.31	580.52
509.67	593.00
510.03	605.59
510.39	618.66
510.75	631.74
511.12	645.40
511.48	659.26
511.84	673.32
512.20	687.42
512.56	702.38
512.92	717.72
513.28	733.04
513.64	748.86
514.00	764.73
514.37	780.93
514.73	797.23
515.09	814.11
515.45	831.17
515.81	848.14
516.17	865.58
516.53	883.34
516.89	901.17
517.25	919.16
517.61	937.61
517.97	955.76
518.33	974.55
518.69	993.04
519.05	1012.38
519.41	1032.32
519.77	1052.67
520.13	1072.63
520.49	1092.67
520.85	1112.87
521.21	1132.99
521.57	1153.96
521.93	1174.45
522.29	1195.76
522.65	1216.35
523.01	1237.10
523.37	1258.03
523.73	1278.82
524.09	1300.04
524.45	1322.01
524.81	1344.22
525.17	1366.34
525.53	1389.02
525.89	1411.40
526.25	1434.10
526.61	1455.93
526.97	1477.93
527.33	1499.82
527.68	1522.22
528.04	1544.45
528.40	1566.76
528.76	1589.90
529.12	1612.54
529.48	1635.54
529.84	1657.50
530.20	1680.73
530.56	1703.96
530.91	1727.63
531.27	1751.05
531.63	1773.72
531.99	1795.87
532.35	1817.56
532.71	1839.18
533.07	1861.34
533.42	1882.87
533.78	1904.77
534.14	1926.92
534.50	1948.08
534.86	1969.88
535.21	1990.44
535.57	2012.19
535.93	2033.87
536.29	2054.30
536.65	2074.98
537.00	2095.00
537.36	2115.61
537.72	2135.31
538.08	2154.59
538.44	2173.70
538.79	2192.96
539.15	2212.04
539.51	2231.57
539.87	2251.50
540.22	2271.05
540.58	2290.38
540.94	2309.11
541.29	2327.51
541.65	2345.65
542.01	2364.38
542.37	2382.05
542.72	2400.02
543.08	2417.03
543.44	2433.70
543.79	2449.86
544.15	2466.25
544.51	2483.59
544.87	2499.78
545.22	2515.98
545.58	2531.69
545.94	2546.12
546.29	2560.39
546.65	2575.05
547.01	2588.97
547.36	2602.37
547.72	2615.36
548.07	2628.18
548.43	2640.80
548.79	2653.51
549.14	2665.52
549.50	2676.54
549.86	2687.46
550.21	2698.34
550.57	2709.76
550.92	2720.54
551.28	2731.50
551.64	2741.60
551.99	2751.56
552.35	2761.17
552.70	2771.19
553.06	2781.21
553.41	2791.39
553.77	2801.17
554.13	2810.36
554.48	2819.16
554.84	2828.24
555.19	2836.95
555.55	2844.83
555.90	2852.65
556.26	2860.24
556.61	2867.51
556.97	2875.10
557.32	2883.47
557.68	2890.56
558.03	2897.19
558.39	2904.22
558.74	2911.98
559.10	2918.93
559.45	2925.30
559.81	2932.88
560.16	2937.74
560.52	2942.82
560.87	2949.02
561.23	2953.82
561.58	2958.88
561.94	2963.60
562.29	2967.32
562.64	2971.30
563.00	2975.80
563.35	2981.20
563.71	2986.11
564.06	2991.51
564.42	2995.74
564.77	2999.06
565.12	3004.03
565.48	3007.94
565.83	3010.56
566.19	3013.11
566.54	3015.23
566.89	3016.94
567.25	3018.30
567.60	3021.45
567.96	3023.56
568.31	3024.50
568.66	3026.05
569.02	3027.47
569.37	3028.20
569.72	3029.50
570.08	3029.97
570.43	3029.87
570.78	3029.37
571.14	3028.07
571.49	3027.08
571.84	3027.69
572.20	3026.39
572.55	3024.25
572.90	3022.23
573.26	3020.50
573.61	3017.99
573.96	3015.62
574.31	3012.07
574.67	3007.92
575.02	3003.71
575.37	3000.57
575.72	2996.05
576.08	2992.36
576.43	2988.33
576.78	2984.47
577.13	2980.76
577.49	2977.35
577.84	2973.15
578.19	2968.46
578.54	2963.14
578.90	2957.22
579.25	2949.73
579.60	2944.01
579.95	2937.62
580.30	2931.00
580.66	2924.63
581.01	2918.04
581.36	2911.90
581.71	2906.86
582.06	2901.21
582.42	2894.51
582.77	2887.21
583.12	2881.33
583.47	2875.16
583.82	2869.28
584.17	2862.95
584.53	2855.70
584.88	2848.73
585.23	2841.80
585.58	2834.61
585.93	2827.94
586.28	2821.53
586.63	2815.62
586.98	2808.97
587.34	2802.81
587.69	2796.34
588.04	2789.67
588.39	2783.08
588.74	2774.20
589.09	2765.57
589.44	2757.39
589.79	2750.54
590.14	2743.45
590.49	2735.53
590.84	2726.64
591.19	2717.88
591.54	2708.31
591.89	2698.33
592.25	2689.32
592.60	2679.30
592.95	2670.09
593.30	2660.80
593.65	2650.68
594.00	2640.42
594.35	2631.32
594.70	2620.69
595.05	2611.68
595.40	2600.98
595.75	2590.58
596.10	2582.09
596.45	2573.79
596.80	2565.67
597.15	2556.54
597.50	2546.97
597.85	2537.82
598.19	2529.52
598.54	2520.67
598.89	2512.34
599.24	2504.95
599.59	2496.10
599.94	2487.86
600.29	2479.00
600.64	2470.11
600.99	2460.58
601.34	2452.08
601.69	2442.38
602.04	2433.59
602.39	2424.08
602.74	2416.53
603.08	2408.37
603.43	2400.24
603.78	2391.22
604.13	2381.38
604.48	2371.61
604.83	2362.46
605.18	2353.50
605.53	2343.04
605.87	2331.67
606.22	2322.03
606.57	2311.27
606.92	2301.47
607.27	2291.85
607.62	2282.31
607.96	2272.79
608.31	2264.21
608.66	2253.84
609.01	2243.46
609.36	2232.88
609.70	2221.05
610.05	2209.34
610.40	2198.24
610.75	2186.85
611.10	2175.60
611.44	2163.80
611.79	2153.23
612.14	2142.06
612.49	2129.54
612.83	2118.51
613.18	2108.06
613.53	2097.15
613.88	2085.78
614.22	2074.41
614.57	2062.95
614.92	2051.53
615.27	2040.69
615.61	2029.21
615.96	2018.62
616.31	2008.40
616.65	1999.01
617.00	1989.61
617.35	1979.60
617.70	1968.35
618.04	1957.39
618.39	1946.63
618.74	1936.67
619.08	1925.37
619.43	1915.31
619.78	1906.00
620.12	1895.65
620.47	1885.57
620.82	1874.87
621.16	1865.44
621.51	1855.08
621.85	1844.84
622.20	1834.44
622.55	1823.93
622.89	1814.09
623.24	1804.14
623.59	1794.34
623.93	1784.06
624.28	1773.79
624.62	1763.18
624.97	1754.17
625.32	1744.90
625.66	1735.23
626.01	1725.32
626.35	1715.75
626.70	1705.68
627.04	1696.08
627.39	1685.97
627.73	1675.79
628.08	1666.23
628.43	1655.93
628.77	1646.24
629.12	1636.08
629.46	1626.03
629.81	1615.56
630.15	1605.12
630.50	1594.80
630.84	1583.90
631.19	1573.17
631.53	1562.69
631.88	1552.39
632.22	1541.63
632.57	1531.58
632.91	1521.29
633.26	1511.28
633.60	1500.94
633.95	1490.59
634.29	1480.61
634.64	1471.71
634.98	1462.06
635.32	1452.43
635.67	1443.41
636.01	1434.14
636.36	1425.20
636.70	1416.02
637.05	1407.10
637.39	1398.43
637.73	1389.47
638.08	1381.18
638.42	1372.58
638.77	1364.30
639.11	1355.82
639.45	1347.21
639.80	1338.30
640.14	1329.81
640.49	1321.15
640.83	1312.43
641.17	1303.70
641.52	1294.80
641.86	1285.78
642.20	1277.23
642.55	1268.73
642.89	1260.04
643.23	1251.09
643.58	1242.94
643.92	1234.20
644.26	1225.76
644.61	1217.19
644.95	1208.70
645.29	1199.46
645.64	1190.39
645.98	1181.83
646.32	1173.64
646.66	1165.32
647.01	1156.69
647.35	1148.15
647.69	1139.86
648.04	1132.37
648.38	1124.30
648.72	1115.80
649.06	1107.37
649.41	1099.49
649.75	1090.55
650.09	1081.99
650.43	1073.83
650.78	1065.04
651.12	1057.01
651.46	1048.92
651.80	1040.92
652.14	1033.11
652.49	1025.56
652.83	1018.22
653.17	1010.11
653.51	1001.84
653.85	993.94
654.20	986.16
654.54	978.17
654.88	970.50
655.22	962.25
655.56	954.27
655.90	946.87
656.25	939.68
656.59	932.26
656.93	925.66
657.27	918.51
657.61	911.08
657.95	904.38
658.29	897.43
658.64	890.29
658.98	883.09
659.32	875.56
659.66	868.71
660.00	861.84
660.34	854.98
660.68	848.60
661.02	841.77
661.36	835.67
661.70	829.50
662.05	823.18
662.39	817.20
662.73	811.11
663.07	805.15
663.41	799.27
663.75	793.10
664.09	786.65
664.43	780.87
664.77	775.19
665.11	769.27
665.45	763.67
665.79	758.16
666.13	752.44
666.47	746.91
666.81	741.17
667.15	735.41
667.49	730.03
667.83	724.91
668.17	719.71
668.51	714.03
668.85	708.74
669.19	703.64
669.53	698.40
669.87	693.13
670.21	688.10
670.55	682.88
670.89	678.21
671.23	673.75
671.57	668.97
671.91	664.14
672.25	659.30
672.58	654.71
672.92	649.90
673.26	645.70
673.60	641.40
673.94	636.96
674.28	632.87
674.62	628.81
674.96	624.17
675.30	620.09
675.64	616.04
675.97	611.96
676.31	607.79
676.65	603.87
676.99	600.15
677.33	595.86
677.67	591.79
678.01	587.44
678.34	583.15
678.68	579.34
679.02	575.52
679.36	571.67
679.70	567.75
680.04	564.07
680.37	559.96
680.71	556.19
681.05	552.97
681.39	549.43
681.73	545.83
682.06	542.71
682.40	539.31
682.74	535.82
683.08	532.46
683.42	529.15
683.75	525.68
684.09	522.16
684.43	518.96
684.77	515.75
685.10	512.71
685.44	509.58
685.78	506.27
686.12	503.08
686.45	499.79
686.79	496.61
687.13	493.53
687.46	490.39
687.80	487.36
688.14	483.88
688.48	480.68
688.81	477.54
689.15	474.51
689.49	471.43
689.82	468.63
690.16	465.67
690.50	462.87
690.83	460.07
691.17	457.36
691.51	454.71
691.84	452.08
692.18	449.49
692.52	446.74
692.85	444.29
693.19	441.80
693.52	439.36
693.86	436.79
694.20	434.40
694.53	432.05
694.87	429.63
695.21	427.20
695.54	424.91
695.88	422.59
696.21	420.07
696.55	417.86
696.88	415.40
697.22	413.20
697.56	410.92
697.89	408.66
698.23	406.40
698.56	404.04
698.90	401.98
699.23	399.55
699.57	397.51
699.90	395.23
700.24	393.05
700.58	390.99
700.91	389.02
701.25	387.22
701.58	385.46
701.92	383.48
702.25	381.54
702.59	379.56
702.92	377.79
703.26	376.04
703.59	374.18
703.93	372.67
704.26	370.84
704.60	369.15
704.93	367.47
705.26	365.80
705.60	364.28
705.93	362.63
706.27	361.28
706.60	359.80
706.94	358.31
707.27	356.68
707.61	355.20
707.94	353.73
708.27	351.92
708.61	350.32
708.94	349.05
709.28	347.76
709.61	346.57
709.94	345.29
710.28	344.04
710.61	342.70
710.95	341.06
711.28	339.80
711.61	338.41
711.95	337.16
712.28	335.83
712.61	334.51
712.95	333.17
713.28	331.82
713.61	330.53
713.95	329.22
714.28	328.08
714.61	326.84
714.95	325.48
715.28	324.36
715.61	323.19
715.95	321.98
716.28	320.86
716.61	319.50
716.95	318.21
717.28	317.01
717.61	315.93
717.94	314.91
718.28	313.80
718.61	312.80
718.94	311.71
719.27	310.79
719.61	309.71
719.94	308.69
720.27	307.77
720.60	306.80
720.94	305.79
721.27	304.93
721.60	304.07
721.93	303.27
722.27	302.53
722.60	301.75
722.93	300.90
723.26	299.99
723.59	299.17
723.93	298.33
724.26	297.56
724.59	296.69
724.92	295.90
725.25	295.13
725.59	294.32
725.92	293.67
726.25	292.85
726.58	292.27
726.91	291.63
727.24	290.88
727.57	290.18
727.91	289.48
728.24	288.77
728.57	288.00
728.90	287.44
729.23	286.55
729.56	285.89
729.89	285.18
730.22	284.52
730.55	283.90
730.89	283.38
731.22	282.75
731.55	282.24
731.88	281.72
732.21	281.08
732.54	280.57
732.87	279.87
733.20	279.31
733.53	278.70
733.86	278.19
734.19	277.58
734.52	276.97
734.85	276.62
735.18	276.05
735.51	275.58
735.84	274.92
736.17	274.47
736.50	273.82
736.83	273.50
737.16	273.05
737.49	272.62
737.82	272.12
738.15	271.65
738.48	271.02
738.81	270.47
739.14	269.93
739.47	269.41
739.80	269.04
740.13	268.56
740.46	268.18
740.79	267.66
741.12	267.28
741.45	266.82
741.78	266.37
742.11	266.08
742.44	265.62
742.77	265.36
743.10	265.04
743.43	264.64
743.75	264.02
744.08	263.91
744.41	263.48
744.74	262.92
745.07	262.52
745.40	262.22
745.73	261.92
746.06	261.63
746.39	261.28
746.71	260.83
747.04	260.46
747.37	260.04
747.70	259.79
748.03	259.41
748.36	259.20
748.68	258.84
749.01	258.34
749.34	258.01
749.67	257.59
750.00	257.24
750.33	257.09
750.65	256.81
750.98	256.21
751.31	255.80
751.64	255.70
751.97	255.47
752.29	255.20
752.62	254.84
752.95	254.54
753.28	254.12
753.60	253.82
753.93	253.66
754.26	253.38
754.59	252.95
754.91	252.64
755.24	252.35
755.57	252.01
755.90	251.70
756.22	251.38
756.55	251.11
756.88	250.77
757.20	250.35
757.53	250.01
757.86	249.68
758.19	249.60
758.51	249.24
758.84	248.71
759.17	248.44
759.49	248.22
759.82	247.99
760.15	247.85
760.47	247.60
760.80	247.32
761.13	247.15
761.45	246.87
761.78	246.57
762.11	246.20
762.43	245.82
762.76	245.65
763.08	245.51
763.41	245.30
763.74	245.16
764.06	245.01
764.39	244.74
764.71	244.50
765.04	244.29
765.37	244.16
765.69	244.11
766.02	243.90
766.34	243.64
766.67	243.49
767.00	243.39
767.32	243.38
767.65	243.24
767.97	243.00
768.30	243.01
768.62	242.85
768.95	242.78
769.27	242.73
769.60	242.68
769.92	242.47
770.25	242.22
770.57	242.01
770.90	241.79
771.22	241.59
771.55	241.55
771.87	241.29
772.20	241.12
772.52	241.13
772.85	241.27
773.17	241.18
773.50	241.01
773.82	240.84
774.15	240.47
774.47	240.18
774.80	240.05
775.12	239.74
775.45	239.66
775.77	239.55
776.09	239.44
776.42	239.29
776.74	239.29
777.07	239.22
777.39	239.11
777.72	239.03
778.04	239.16
778.36	239.03
778.69	238.99
779.01	238.85
779.33	238.58
779.66	238.17
779.98	238.01
780.31	237.89
780.63	237.89
780.95	237.89
781.28	237.87
781.60	237.72
781.92	237.65
782.25	237.50
782.57	237.46
782.89	237.34
783.22	237.25
783.54	237.10
783.86	237.02
784.19	236.91
784.51	236.85
784.83	236.63
785.16	236.55
785.48	236.43
785.80	236.39
786.12	236.32
786.45	236.40
786.77	236.39
787.09	236.22
787.42	236.00
787.74	235.92
788.06	235.78
788.38	235.76
788.71	235.70
789.03	235.74
789.35	235.61
789.67	235.53
789.99	235.45
790.32	235.26
790.64	235.16
790.96	235.15
791.28	235.04
791.61	235.00
791.93	234.86
792.25	234.82
792.57	235.04
792.89	234.87
793.21	234.73
793.54	234.62
793.86	234.55
794.18	234.54
794.50	234.49
794.82	234.52
795.14	234.50
795.47	234.50
795.79	234.36
796.11	234.20
796.43	234.10
796.75	234.03
797.07	233.98
797.39	233.99
797.71	233.94
798.04	233.90
798.36	233.74
798.68	233.68
799.00	233.61
799.32	233.22
799.64	233.23
799.96	233.19
800.28	233.18
800.60	233.12
800.92	233.10
801.24	233.03
801.56	233.03
801.89	232.92
802.21	232.82
802.53	232.75
802.85	232.79
803.17	232.87
803.49	232.74
803.81	232.76
804.13	232.70
804.45	232.59
804.77	232.51
805.09	232.60
805.41	232.53
805.73	232.54
806.05	232.52
806.37	232.47
806.69	232.38
807.01	232.41
807.33	232.35
807.65	232.20
807.97	232.25
808.28	232.24
808.60	232.28
808.92	232.24
809.24	232.36
809.56	232.23
809.88	232.14
810.20	232.20
810.52	232.18
810.84	232.17
811.16	232.08
811.48	232.02
811.80	232.06
812.12	232.03
812.43	231.96
812.75	232.00
813.07	232.08
813.39	232.01
813.71	231.84
814.03	231.84
814.35	231.80
814.67	231.83
814.98	231.71
815.30	231.70
815.62	231.60
815.94	231.40
816.26	231.60
816.58	231.53
816.89	231.54
817.21	231.55
817.53	231.47
817.85	231.58
818.17	231.71
818.48	231.54
818.80	231.65
819.12	231.66
819.44	231.56
819.76	231.49
820.07	231.48
820.39	231.41
820.71	231.53
821.03	231.51
821.34	231.36
821.66	231.30
821.98	231.22
822.30	231.22
822.61	231.38
822.93	231.23
823.25	231.29
823.57	231.18
823.88	231.15
824.20	231.22
824.52	231.20
824.83	231.03
825.15	231.09
825.47	231.05
825.79	231.00
826.10	230.95
826.42	230.88
826.74	230.95
827.05	231.02
827.37	230.90
827.69	230.86
828.00	230.94
828.32	230.95
828.64	230.92
828.95	231.10
829.27	231.00
829.58	230.96
829.90	230.82
830.22	230.86
830.53	230.80
830.85	230.75
831.17	230.63
831.48	230.63
831.80	230.66
832.11	230.66
832.43	230.63
832.75	230.67
833.06	230.82
833.38	230.75
833.69	230.77
834.01	230.85
834.32	230.85
834.64	230.73
834.96	230.62
835.27	230.57
835.59	230.37
835.90	230.24
836.22	230.21
836.53	230.23
836.85	230.20
837.16	230.30
837.48	230.23
837.79	230.21
838.11	230.18
838.42	230.08
838.74	229.95
839.05	229.84
839.37	229.79
839.68	229.53
840.00	229.43
840.31	229.40
840.63	229.26
840.94	229.25
841.26	229.23
841.57	229.30
841.88	229.35
842.20	229.42
842.51	229.42
842.83	229.36
843.14	229.55
843.46	229.46
843.77	229.43
844.08	229.39
844.40	229.35
844.71	229.35
845.03	229.28
845.34	229.36
845.65	229.32
845.97	229.21
846.28	229.31
846.60	229.38
846.91	229.33
847.22	229.38
847.54	229.37
847.85	229.40
848.16	229.34
848.48	229.30
848.79	229.33
849.10	229.41
849.42	229.45
849.73	229.29
850.04	229.29
850.36	229.14
850.67	229.20
850.98	229.27
851.30	229.28
851.61	229.40
851.92	229.37
852.23	229.49
852.55	229.56
852.86	229.49
853.17	229.48
853.49	229.38
853.80	229.29
854.11	229.31
854.42	229.29
854.74	229.34
855.05	229.34
855.36	229.15
855.67	229.08
855.99	229.04
856.30	229.11
856.61	229.19
856.92	229.21
857.23	229.16
857.55	229.08
857.86	229.01
858.17	228.99
858.48	228.84
858.79	228.75
859.11	228.73
859.42	228.77
859.73	228.71
860.04	228.77
860.35	228.77
860.66	228.75
860.98	228.72
861.29	228.66
861.60	228.67
861.91	228.71
862.22	228.62
862.53	228.64
862.84	228.46
863.16	228.50
863.47	228.50
863.78	228.50
864.09	228.60
864.40	228.64
864.71	228.63
865.02	228.65
865.33	228.67
865.64	228.72
865.95	228.76
866.27	228.93
866.58	228.96
866.89	228.94
867.20	228.85
867.51	228.77
867.82	228.75
868.13	228.81
868.44	228.86
868.75	229.00
869.06	229.00
869.37	229.04
869.68	228.96
869.99	229.00
870.30	229.03
870.61	229.02
870.92	228.94
871.23	228.90
871.54	229.06
871.85	229.07
872.16	229.10
872.47	229.11
872.78	228.95
873.09	228.97
873.40	229.05
873.71	229.14
874.02	229.12
874.33	229.18
874.64	229.21
874.95	229.16
875.26	229.06
875.56	229.11
875.87	229.15
876.18	229.12
876.49	229.24
876.80	229.23
877.11	229.19
877.42	229.36
877.73	229.37
878.04	229.32
878.35	229.40
878.66	229.46
878.96	229.40
879.27	229.43
879.58	229.47
879.89	229.38
880.20	229.49
880.51	229.58
880.82	229.52
881.12	229.50
881.43	229.56
881.74	229.59
882.05	229.50
882.36	229.50
882.67	229.49
882.97	229.33
883.28	229.33
883.59	229.31
883.90	229.25
884.21	229.28
884.51	229.27
884.82	229.20
885.13	229.03
885.44	229.11
885.74	229.13
886.05	229.09
886.36	229.13
886.67	228.96
886.98	228.98
887.28	229.01
887.59	228.96
887.90	228.85
888.20	228.85
888.51	228.90
888.82	228.72
889.13	228.76
889.43	228.85
889.74	228.81
890.05	228.70
890.35	228.62
890.66	228.56
890.97	228.44
891.28	228.35
891.58	228.38
891.89	228.26
892.20	228.30
892.50	228.24
892.81	228.23
893.12	228.19
893.42	228.15
893.73	228.12
894.04	228.08
894.34	228.13
894.65	228.11
894.95	228.11
895.26	228.15
895.57	228.20
895.87	228.01
896.18	228.00
896.48	228.10
896.79	228.11
897.10	228.18
897.40	228.23
897.71	228.28
898.01	228.22
898.32	228.25
898.63	228.15
898.93	228.17
899.24	228.21
899.54	228.30
899.85	228.26
900.15	228.27
900.46	228.35
900.76	228.33
901.07	228.30
901.38	228.19
901.68	228.36
901.99	228.24
902.29	228.33
902.60	228.35
902.90	228.40
903.21	228.43
903.51	228.35
903.82	228.43
904.12	228.47
904.43	228.48
904.73	228.52
905.03	228.56
905.34	228.81
905.64	228.79
905.95	228.72
906.25	228.86
906.56	228.90
906.86	228.84
907.17	228.95
907.47	229.06
907.77	229.17
908.08	229.05
908.38	229.09
908.69	229.10
908.99	229.19
909.30	229.12
909.60	229.10
909.90	229.12
910.21	229.03
910.51	229.00
910.81	229.10
911.12	229.09
911.42	229.11
911.73	228.96
912.03	228.96
912.33	229.14
912.64	229.07
912.94	229.02
913.24	228.99
913.55	228.99
913.85	228.94
914.15	229.02
914.46	229.15
914.76	229.18
915.06	229.19
915.37	229.21
915.67	229.23
915.97	229.29
916.27	229.37
916.58	229.32
916.88	229.43
917.18	229.48
917.49	229.61
917.79	229.54
918.09	229.42
918.39	229.51
918.70	229.39
919.00	229.43
919.30	229.49
919.60	229.53
919.91	229.56
920.21	229.60
920.51	229.49
920.81	229.37
921.12	229.40
921.42	229.44
921.72	229.37
922.02	229.42
922.32	229.38
922.63	229.29
922.93	229.51
923.23	229.44
923.53	229.29
923.83	229.23
924.13	229.24
924.44	229.19
924.74	229.20
925.04	229.19
925.34	229.08
925.64	229.05
925.94	229.08
926.24	229.00
926.55	228.96
926.85	229.02
927.15	229.10
927.45	229.13
927.75	229.06
928.05	229.10
928.35	229.03
928.65	229.12
928.95	229.13
929.26	229.05
929.56	229.06
929.86	229.14
930.16	228.98
930.46	228.93
930.76	229.09
931.06	229.01
931.36	229.02
931.66	229.04
931.96	229.01
932.26	228.89
932.56	228.90
932.86	228.95
933.16	228.90
933.46	228.75
933.76	228.70
934.06	228.69
934.36	228.65
934.66	228.57
934.96	228.52
935.26	228.52
935.56	228.44
935.86	228.40
936.16	228.30
936.46	228.40
936.76	228.50
937.06	228.39
937.36	228.34
937.66	228.36
937.96	228.41
938.26	228.44
938.56	228.48
938.86	228.47
939.16	228.45
939.46	228.49
939.76	228.55
940.06	228.51
940.35	228.50
940.65	228.48
940.95	228.45
941.25	228.40
941.55	228.42
941.85	228.39
942.15	228.40
942.45	228.41
942.75	228.30
943.04	228.25
943.34	228.35
943.64	228.32
943.94	228.23
944.24	228.24
944.54	228.15
944.84	228.21
945.13	228.14
945.43	228.04
945.73	227.98
946.03	227.97
946.33	228.01
946.62	227.94
946.92	227.91
947.22	228.05
947.52	228.07
947.82	228.02
948.11	228.05
948.41	228.00
948.71	227.96
949.01	228.04
949.31	228.10
949.60	228.08
949.90	228.03
950.20	228.11
950.50	228.07
950.79	228.12
951.09	228.10
951.39	228.11
951.69	228.26
951.98	228.33
952.28	228.35
952.58	228.30
952.87	228.37
953.17	228.34
953.47	228.33
953.76	228.34
954.06	228.33
954.36	228.32
954.66	228.34
954.95	228.49
955.25	228.42
955.55	228.41
955.84	228.35
956.14	228.44
956.44	228.45
956.73	228.52
957.03	228.55
957.32	228.46
957.62	228.45
957.92	228.42
958.21	228.40
958.51	228.63
958.81	228.75
959.10	228.84
959.40	228.90
959.69	228.94
959.99	228.97
960.29	229.01
960.58	229.01
960.88	229.16
961.17	229.16
961.47	229.23
961.76	229.21
962.06	229.27
962.36	229.18
962.65	229.15
962.95	229.15
963.24	229.08
963.54	229.21
963.83	229.29
964.13	229.28
964.42	229.28
964.72	229.08
965.01	229.04
965.31	229.01
965.60	229.06
965.90	229.10
966.19	229.10
966.49	229.03
966.78	229.07
967.08	229.00
967.37	228.97
967.67	228.99
967.96	229.03
968.26	228.90
968.55	229.06
968.85	229.01
969.14	229.03
969.43	229.10
969.73	229.01
970.02	228.92
970.32	228.84
970.61	228.75
970.91	228.74
971.20	228.64
971.49	228.52
971.79	228.43
972.08	228.29
972.38	228.38
972.67	228.37
972.96	228.34
973.26	228.28
973.55	228.28
973.85	228.22
974.14	228.15
974.43	228.17
974.73	228.01
975.02	228.02
975.31	228.03
975.61	227.99
975.90	227.95
976.19	227.98
976.49	228.01
976.78	228.07
977.07	227.98
977.37	228.08
977.66	228.11
977.95	228.18
978.24	228.24
978.54	228.14
978.83	228.18
979.12	228.16
979.42	228.17
979.71	228.14
980.00	228.16
980.29	228.20
980.59	228.23
980.88	228.35
981.17	228.25
981.46	228.13
981.76	228.14
982.05	228.20
982.34	228.20
982.63	228.17
982.93	228.12
983.22	228.20
983.51	228.19
983.80	228.19
984.09	228.12
984.39	228.03
984.68	228.07
984.97	228.04
985.26	228.07
985.55	228.04
985.85	227.98
986.14	227.88
986.43	227.92
986.72	227.85
987.01	227.82
987.30	227.85
987.59	227.83
987.89	227.78
988.18	227.77
988.47	227.73
988.76	227.73
989.05	227.78
989.34	227.74
989.63	227.68
989.92	227.71
990.22	227.69
990.51	227.75
990.80	227.64
991.09	227.62
991.38	227.63
991.67	227.57
991.96	227.60
992.25	227.73
992.54	227.63
992.83	227.70
993.12	227.63
993.41	227.75
993.70	227.82
993.99	227.90
994.28	227.92
994.58	228.00
994.87	228.00
995.16	227.97
995.45	227.96
995.74	227.93
996.03	227.95
996.32	228.00
996.61	228.00
996.90	228.04
997.19	228.08
997.48	228.06
997.77	228.13
998.06	228.12
998.34	228.05
998.63	228.13
998.92	228.09
999.21	228.11
999.50	228.07
999.79	228.00
1000.08	228.03
1000.37	228.09
1000.66	228.02
1000.95	228.08
1001.24	228.16
1001.53	228.27
1001.82	228.31
1002.11	228.28
1002.40	228.34
1002.68	228.41
1002.97	228.52
1003.26	228.50
1003.55	228.44
1003.84	228.47
1004.13	228.48
1004.42	228.47
1004.71	228.33
1004.99	228.36
1005.28	228.39
1005.57	228.34
1005.86	228.33
1006.15	228.30
1006.44	228.15
1006.72	228.12
1007.01	228.05
1007.30	227.96
1007.59	227.92
1007.88	227.83
1008.17	227.80
1008.45	227.77
1008.74	227.71
1009.03	227.64
1009.32	227.63
1009.60	227.68
1009.89	227.67
1010.18	227.71
1010.47	227.66
1010.76	227.77
1011.04	227.73
1011.33	227.84
1011.62	227.93
1011.91	228.00
1012.19	227.96
1012.48	228.05
1012.77	228.06
1013.05	228.11
1013.34	228.12
1013.63	228.07
1013.92	228.14
1014.20	228.19
1014.49	228.23
1014.78	228.21
1015.06	228.14
1015.35	228.20
1015.64	228.14
1015.92	228.13
1016.21	228.10
1016.50	228.20
1016.78	228.19
1017.07	228.22
1017.36	228.14
1017.64	228.09
1017.93	228.10
1018.22	228.06
1018.50	227.99
1018.79	228.03
1019.08	228.06
1019.36	228.01
1019.65	228.03
1019.93	228.10
1020.22	228.17
1020.51	228.17
1020.79	228.16
1021.08	227.10
1021.36	227.00
1021.65	228.20
1021.94	229.00
1022.22	226.50
1022.51	228.10
1022.79	229.30
1023.08	229.90
1023.36	229.80
1023.65	228.10
>>>>>End Processed Spectral Data<<<<<
