SpectraSuite Data File
++++++++++++++++++++++++++++++++++++
Date: Fri Feb 01 14:34:59 EST 2013
User: group
Dark Spectrum Present: No
Reference Spectrum Present: No
Number of Sampled Component Spectra: 1
Spectrometers: USB2E7196
Integration Time (usec): 70000 (USB2E7196)
Spectra Averaged: 10 (USB2E7196)
Boxcar Smoothing: 10 (USB2E7196)
Correct for Electrical Dark: No (USB2E7196)
Strobe/Lamp Enabled: No (USB2E7196)
Correct for Detector Non-linearity: No (USB2E7196)
Correct for Stray Light: No (USB2E7196)
Number of Pixels in Processed Spectrum: 2048
>>>>>Begin Processed Spectral Data<<<<<
339.09	0.00
339.48	216.60
339.86	219.80
340.24	219.50
340.63	221.00
341.01	225.30
341.39	224.60
341.78	224.80
342.16	226.30
342.54	226.40
342.93	215.20
343.31	226.04
343.69	226.64
344.07	227.05
344.46	227.50
344.84	227.83
345.22	227.97
345.60	228.20
345.99	228.36
346.37	228.49
346.75	228.60
347.13	228.73
347.52	228.70
347.90	228.80
348.28	228.86
348.66	228.83
349.05	228.82
349.43	228.98
349.81	229.01
350.19	229.03
350.57	229.07
350.96	229.12
351.34	229.24
351.72	229.31
352.10	229.39
352.48	229.40
352.87	229.44
353.25	229.56
353.63	229.57
354.01	229.62
354.39	229.68
354.77	229.70
355.15	229.72
355.54	229.80
355.92	229.86
356.30	229.90
356.68	230.15
357.06	230.19
357.44	230.22
357.82	230.25
358.20	230.34
358.58	230.50
358.97	230.38
359.35	230.41
359.73	230.50
360.11	230.53
360.49	230.58
360.87	230.64
361.25	230.57
361.63	230.57
362.01	230.63
362.39	230.60
362.77	230.68
363.15	230.67
363.53	230.66
363.91	230.59
364.29	230.59
364.67	230.39
365.05	230.40
365.43	230.32
365.81	230.40
366.19	230.41
366.57	230.43
366.95	230.49
367.33	230.46
367.71	230.32
368.09	230.34
368.47	230.35
368.85	230.34
369.23	230.45
369.61	230.48
369.99	230.50
370.37	230.47
370.75	230.54
371.13	230.50
371.51	230.35
371.89	230.33
372.27	230.28
372.65	230.23
373.03	230.18
373.41	230.08
373.78	230.01
374.16	229.85
374.54	229.77
374.92	229.70
375.30	229.62
375.68	229.53
376.06	229.33
376.44	229.17
376.82	229.04
377.19	228.95
377.57	228.87
377.95	228.71
378.33	228.65
378.71	228.48
379.09	228.49
379.47	228.60
379.84	228.50
380.22	228.39
380.60	228.30
380.98	228.22
381.36	228.17
381.73	228.07
382.11	227.97
382.49	227.90
382.87	227.84
383.25	227.74
383.62	227.88
384.00	227.79
384.38	227.80
384.76	227.77
385.13	227.74
385.51	227.66
385.89	227.61
386.27	227.64
386.64	227.49
387.02	227.34
387.40	227.24
387.78	227.21
388.15	227.22
388.53	227.16
388.91	227.18
389.29	227.17
389.66	227.11
390.04	227.09
390.42	227.04
390.79	227.07
391.17	227.03
391.55	226.91
391.92	227.07
392.30	227.14
392.68	227.18
393.05	227.22
393.43	227.23
393.81	227.28
394.18	227.20
394.56	227.36
394.94	227.43
395.31	227.46
395.69	227.68
396.06	227.75
396.44	227.91
396.82	227.92
397.19	228.06
397.57	228.06
397.95	228.34
398.32	228.45
398.70	228.54
399.07	228.75
399.45	228.75
399.82	228.88
400.20	228.92
400.58	229.08
400.95	229.02
401.33	229.04
401.70	229.39
402.08	229.57
402.45	229.72
402.83	229.98
403.20	230.12
403.58	230.25
403.95	230.44
404.33	230.64
404.71	230.89
405.08	231.25
405.46	231.59
405.83	231.66
406.21	232.04
406.58	232.43
406.96	232.90
407.33	233.37
407.70	233.83
408.08	234.41
408.45	234.94
408.83	235.57
409.20	236.28
409.58	236.72
409.95	237.43
410.33	238.13
410.70	238.74
411.08	239.44
411.45	240.21
411.82	241.07
412.20	241.83
412.57	243.03
412.95	243.89
413.32	245.04
413.69	246.35
414.07	247.46
414.44	248.79
414.82	249.91
415.19	251.50
415.56	252.98
415.94	254.53
416.31	256.23
416.68	258.08
417.06	260.20
417.43	262.14
417.81	264.36
418.18	266.62
418.55	269.07
418.93	271.67
419.30	274.36
419.67	277.10
420.04	280.10
420.42	283.04
420.79	286.55
421.16	289.93
421.54	293.38
421.91	297.04
422.28	300.78
422.66	304.96
423.03	308.84
423.40	313.00
423.77	317.53
424.15	322.04
424.52	326.73
424.89	331.78
425.26	336.74
425.64	341.38
426.01	346.26
426.38	351.59
426.75	356.82
427.13	362.31
427.50	368.20
427.87	374.35
428.24	380.26
428.61	386.10
428.99	392.41
429.36	399.63
429.73	406.41
430.10	413.13
430.47	419.95
430.85	427.18
431.22	434.70
431.59	442.46
431.96	450.01
432.33	458.28
432.70	466.28
433.08	475.69
433.45	484.55
433.82	493.47
434.19	503.41
434.56	513.28
434.93	522.53
435.30	531.69
435.68	541.77
436.05	551.84
436.42	561.76
436.79	571.15
437.16	580.60
437.53	591.00
437.90	601.29
438.27	611.36
438.64	621.87
439.01	631.50
439.38	640.16
439.75	648.60
440.13	658.32
440.50	667.50
440.87	675.16
441.24	682.94
441.61	691.88
441.98	698.27
442.35	705.93
442.72	713.65
443.09	721.16
443.46	726.15
443.83	729.68
444.20	732.70
444.57	736.82
444.94	739.53
445.31	742.05
445.68	744.66
446.05	746.59
446.42	746.51
446.79	746.52
447.16	746.55
447.53	746.98
447.90	744.17
448.27	741.65
448.64	737.20
449.01	734.73
449.37	729.03
449.74	723.57
450.11	716.69
450.48	709.12
450.85	701.58
451.22	694.95
451.59	688.92
451.96	683.31
452.33	675.15
452.70	667.61
453.07	658.45
453.43	649.07
453.80	639.94
454.17	631.27
454.54	622.88
454.91	613.71
455.28	604.78
455.65	596.88
456.02	588.19
456.38	581.38
456.75	572.35
457.12	564.79
457.49	557.36
457.86	550.28
458.23	544.21
458.59	537.24
458.96	530.21
459.33	523.88
459.70	517.45
460.07	512.30
460.43	506.43
460.80	501.02
461.17	496.17
461.54	490.97
461.91	486.21
462.27	481.24
462.64	477.15
463.01	472.40
463.38	467.70
463.74	463.31
464.11	459.25
464.48	455.78
464.85	451.95
465.21	449.05
465.58	445.81
465.95	441.92
466.32	438.82
466.68	435.74
467.05	432.70
467.42	429.58
467.78	426.43
468.15	423.31
468.52	420.96
468.88	418.02
469.25	415.36
469.62	413.09
469.98	410.89
470.35	408.56
470.72	406.36
471.08	404.08
471.45	402.23
471.82	400.20
472.18	397.93
472.55	396.33
472.92	394.37
473.28	392.60
473.65	390.98
474.02	389.27
474.38	387.81
474.75	386.50
475.11	385.25
475.48	384.15
475.85	383.30
476.21	382.43
476.58	381.51
476.94	380.92
477.31	379.99
477.67	379.11
478.04	378.60
478.41	378.29
478.77	377.87
479.14	377.27
479.50	376.83
479.87	376.84
480.23	376.81
480.60	376.59
480.96	376.35
481.33	376.52
481.69	376.62
482.06	376.65
482.42	376.42
482.79	376.43
483.15	376.77
483.52	377.40
483.88	377.66
484.25	378.34
484.61	378.92
484.98	379.50
485.34	380.50
485.71	381.32
486.07	382.05
486.44	382.95
486.80	384.04
487.17	385.10
487.53	386.22
487.90	387.50
488.26	389.01
488.62	390.62
488.99	392.02
489.35	393.59
489.72	395.38
490.08	397.41
490.44	399.39
490.81	401.35
491.17	402.99
491.54	405.09
491.90	406.98
492.26	409.25
492.63	411.72
492.99	413.91
493.36	416.31
493.72	419.01
494.08	421.63
494.45	424.37
494.81	427.39
495.17	430.26
495.54	433.09
495.90	435.97
496.26	438.92
496.63	442.04
496.99	445.17
497.35	448.44
497.72	451.54
498.08	454.87
498.44	458.30
498.80	462.15
499.17	465.68
499.53	469.15
499.89	472.50
500.26	475.91
500.62	479.31
500.98	482.93
501.34	486.55
501.71	490.36
502.07	493.93
502.43	497.44
502.79	501.11
503.16	504.83
503.52	508.40
503.88	512.03
504.24	515.73
504.60	519.49
504.97	522.95
505.33	526.86
505.69	530.71
506.05	534.18
506.41	537.19
506.78	540.74
507.14	544.25
507.50	547.75
507.86	551.47
508.22	554.94
508.59	558.28
508.95	561.67
509.31	564.72
509.67	568.10
510.03	571.41
510.39	574.42
510.75	577.23
511.12	580.43
511.48	583.50
511.84	586.37
512.20	589.19
512.56	592.26
512.92	594.90
513.28	597.55
513.64	599.98
514.00	602.80
514.37	605.32
514.73	607.80
515.09	610.13
515.45	612.37
515.81	614.58
516.17	616.76
516.53	618.52
516.89	620.60
517.25	622.48
517.61	624.40
517.97	626.28
518.33	628.25
518.69	629.84
519.05	631.59
519.41	633.26
519.77	634.93
520.13	636.52
520.49	638.10
520.85	639.44
521.21	641.27
521.57	642.90
521.93	644.18
522.29	645.89
522.65	647.44
523.01	648.69
523.37	650.05
523.73	651.43
524.09	652.59
524.45	653.98
524.81	655.41
525.17	656.65
525.53	658.29
525.89	659.80
526.25	661.55
526.61	662.88
526.97	664.32
527.33	665.88
527.68	667.44
528.04	668.97
528.40	670.49
528.76	672.17
529.12	673.86
529.48	675.68
529.84	676.71
530.20	678.37
530.56	680.40
530.91	682.46
531.27	684.50
531.63	686.76
531.99	688.57
532.35	690.26
532.71	692.25
533.07	694.31
533.42	696.33
533.78	698.39
534.14	700.64
534.50	702.77
534.86	704.92
535.21	706.90
535.57	709.32
535.93	711.58
536.29	713.70
536.65	715.76
537.00	717.78
537.36	720.36
537.72	722.65
538.08	724.79
538.44	726.98
538.79	729.25
539.15	731.70
539.51	734.41
539.87	737.24
540.22	739.90
540.58	742.51
540.94	745.21
541.29	747.55
541.65	750.20
542.01	753.09
542.37	755.96
542.72	758.67
543.08	761.22
543.44	764.28
543.79	766.84
544.15	769.76
544.51	773.02
544.87	776.12
545.22	779.28
545.58	782.19
545.94	785.13
546.29	788.07
546.65	790.85
547.01	793.53
547.36	796.26
547.72	799.16
548.07	801.80
548.43	804.37
548.79	807.47
549.14	810.10
549.50	812.61
549.86	815.16
550.21	818.18
550.57	821.01
550.92	823.64
551.28	826.56
551.64	829.40
551.99	832.23
552.35	835.16
552.70	837.96
553.06	841.00
553.41	843.70
553.77	846.53
554.13	849.49
554.48	852.90
554.84	855.89
555.19	858.76
555.55	861.82
555.90	864.67
556.26	867.46
556.61	870.37
556.97	873.27
557.32	876.38
557.68	878.97
558.03	881.72
558.39	884.63
558.74	887.57
559.10	890.30
559.45	893.08
559.81	895.94
560.16	898.47
560.52	901.06
560.87	904.13
561.23	906.80
561.58	909.56
561.94	911.88
562.29	914.17
562.64	916.62
563.00	918.91
563.35	921.84
563.71	924.44
564.06	927.06
564.42	929.56
564.77	931.91
565.12	934.43
565.48	937.66
565.83	939.75
566.19	942.21
566.54	944.60
566.89	946.86
567.25	948.92
567.60	951.34
567.96	953.64
568.31	955.80
568.66	957.78
569.02	959.80
569.37	961.46
569.72	963.40
570.08	965.16
570.43	967.25
570.78	968.94
571.14	970.30
571.49	971.83
571.84	973.79
572.20	975.12
572.55	976.57
572.90	976.90
573.26	978.32
573.61	979.37
573.96	980.30
574.31	980.72
574.67	981.22
575.02	981.41
575.37	981.77
575.72	981.73
576.08	982.57
576.43	982.85
576.78	983.62
577.13	984.28
577.49	984.92
577.84	985.04
578.19	985.10
578.54	985.27
578.90	985.42
579.25	984.73
579.60	984.40
579.95	984.03
580.30	983.78
580.66	983.23
581.01	982.65
581.36	981.96
581.71	981.82
582.06	981.52
582.42	981.13
582.77	980.63
583.12	980.39
583.47	979.40
583.82	978.99
584.17	978.11
584.53	977.44
584.88	976.38
585.23	975.58
585.58	974.70
585.93	974.02
586.28	972.94
586.63	972.41
586.98	971.75
587.34	971.12
587.69	970.49
588.04	969.70
588.39	968.86
588.74	967.80
589.09	966.36
589.44	965.20
589.79	964.24
590.14	963.19
590.49	961.62
590.84	960.30
591.19	959.02
591.54	957.11
591.89	955.10
592.25	953.61
592.60	951.50
592.95	949.33
593.30	947.04
593.65	944.98
594.00	943.00
594.35	941.24
594.70	939.02
595.05	937.05
595.40	934.83
595.75	932.63
596.10	930.70
596.45	929.09
596.80	927.15
597.15	925.16
597.50	922.82
597.85	921.09
598.19	919.26
598.54	917.10
598.89	915.10
599.24	913.40
599.59	911.16
599.94	909.16
600.29	907.48
600.64	905.81
600.99	903.71
601.34	901.36
601.69	898.77
602.04	896.41
602.39	893.94
602.74	891.99
603.08	889.87
603.43	887.90
603.78	885.63
604.13	883.25
604.48	880.55
604.83	878.50
605.18	876.24
605.53	873.28
605.87	870.31
606.22	868.02
606.57	865.41
606.92	863.16
607.27	860.95
607.62	858.48
607.96	855.84
608.31	853.46
608.66	850.85
609.01	848.18
609.36	845.33
609.70	842.49
610.05	839.31
610.40	836.30
610.75	833.04
611.10	829.83
611.44	826.52
611.79	823.95
612.14	820.61
612.49	817.15
612.83	814.17
613.18	811.30
613.53	808.43
613.88	804.87
614.22	801.30
614.57	797.83
614.92	794.50
615.27	791.48
615.61	788.23
615.96	785.30
616.31	782.40
616.65	779.65
617.00	776.60
617.35	773.62
617.70	770.63
618.04	767.65
618.39	764.67
618.74	762.01
619.08	758.67
619.43	755.86
619.78	752.79
620.12	750.07
620.47	747.07
620.82	743.76
621.16	741.05
621.51	738.22
621.85	735.30
622.20	732.36
622.55	729.25
622.89	726.37
623.24	723.41
623.59	720.40
623.93	717.68
624.28	715.07
624.62	712.34
624.97	709.54
625.32	706.67
625.66	704.12
626.01	701.49
626.35	698.87
626.70	695.92
627.04	693.10
627.39	689.91
627.73	687.01
628.08	684.35
628.43	681.64
628.77	678.90
629.12	675.79
629.46	672.90
629.81	670.00
630.15	666.97
630.50	663.91
630.84	660.80
631.19	657.37
631.53	654.00
631.88	650.82
632.22	647.61
632.57	644.86
632.91	641.53
633.26	638.28
633.60	635.14
633.95	632.34
634.29	629.74
634.64	627.19
634.98	624.57
635.32	621.90
635.67	619.25
636.01	616.51
636.36	614.22
636.70	611.56
637.05	608.83
637.39	606.38
637.73	603.90
638.08	601.72
638.42	599.47
638.77	597.37
639.11	594.98
639.45	592.60
639.80	589.83
640.14	587.38
640.49	584.97
640.83	582.72
641.17	580.25
641.52	577.79
641.86	575.14
642.20	572.46
642.55	569.90
642.89	567.23
643.23	564.67
643.58	562.27
643.92	559.74
644.26	557.37
644.61	555.05
644.95	552.67
645.29	549.72
645.64	547.21
645.98	544.59
646.32	542.15
646.66	539.77
647.01	537.57
647.35	535.25
647.69	532.75
648.04	530.27
648.38	527.61
648.72	524.98
649.06	522.58
649.41	520.25
649.75	517.54
650.09	515.09
650.43	512.79
650.78	510.10
651.12	507.77
651.46	505.14
651.80	502.69
652.14	500.39
652.49	498.47
652.83	496.03
653.17	493.54
653.51	491.04
653.85	488.63
654.20	486.21
654.54	484.01
654.88	481.59
655.22	479.05
655.56	476.65
655.90	474.36
656.25	472.24
656.59	469.99
656.93	467.84
657.27	465.81
657.61	463.47
657.95	461.58
658.29	459.38
658.64	457.46
658.98	455.29
659.32	452.95
659.66	450.69
660.00	448.60
660.34	446.62
660.68	444.73
661.02	442.60
661.36	440.63
661.70	438.55
662.05	436.68
662.39	435.03
662.73	433.38
663.07	431.84
663.41	430.11
663.75	428.29
664.09	426.58
664.43	424.56
664.77	422.91
665.11	421.16
665.45	419.57
665.79	417.81
666.13	416.12
666.47	414.52
666.81	412.83
667.15	411.11
667.49	409.37
667.83	407.71
668.17	406.09
668.51	404.47
668.85	402.84
669.19	401.29
669.53	399.65
669.87	398.01
670.21	396.43
670.55	394.70
670.89	393.34
671.23	391.87
671.57	390.51
671.91	388.92
672.25	387.43
672.58	385.91
672.92	384.49
673.26	383.10
673.60	381.73
673.94	380.36
674.28	379.19
674.62	377.98
674.96	376.56
675.30	375.24
675.64	373.96
675.97	372.59
676.31	371.30
676.65	370.05
676.99	368.80
677.33	367.50
677.67	366.25
678.01	364.69
678.34	363.50
678.68	362.25
679.02	361.03
679.36	359.59
679.70	358.34
680.04	357.11
680.37	355.80
680.71	354.54
681.05	353.46
681.39	352.15
681.73	350.95
682.06	349.90
682.40	348.96
682.74	347.67
683.08	346.69
683.42	345.50
683.75	344.14
684.09	343.03
684.43	341.80
684.77	340.60
685.10	339.56
685.44	338.33
685.78	337.30
686.12	336.19
686.45	335.15
686.79	334.03
687.13	332.88
687.46	331.76
687.80	330.62
688.14	329.35
688.48	328.40
688.81	327.21
689.15	326.10
689.49	324.81
689.82	323.94
690.16	322.76
690.50	321.89
690.83	321.05
691.17	319.91
691.51	318.94
691.84	318.02
692.18	317.11
692.52	316.08
692.85	315.18
693.19	314.42
693.52	313.43
693.86	312.50
694.20	311.58
694.53	310.74
694.87	309.88
695.21	309.10
695.54	308.16
695.88	307.27
696.21	306.37
696.55	305.54
696.88	304.59
697.22	303.84
697.56	303.08
697.89	302.28
698.23	301.57
698.56	300.79
698.90	299.90
699.23	299.04
699.57	298.30
699.90	297.36
700.24	296.48
700.58	295.75
700.91	295.07
701.25	294.55
701.58	293.94
701.92	293.28
702.25	292.54
702.59	291.84
702.92	291.29
703.26	290.64
703.59	290.04
703.93	289.62
704.26	289.02
704.60	288.23
704.93	287.57
705.26	286.89
705.60	286.37
705.93	285.94
706.27	285.52
706.60	285.23
706.94	284.84
707.27	284.30
707.61	283.85
707.94	283.17
708.27	282.49
708.61	281.80
708.94	281.30
709.28	280.90
709.61	280.49
709.94	280.10
710.28	279.68
710.61	279.14
710.95	278.42
711.28	278.01
711.61	277.56
711.95	277.20
712.28	276.82
712.61	276.20
712.95	275.79
713.28	275.32
713.61	274.64
713.95	274.06
714.28	273.57
714.61	273.02
714.95	272.73
715.28	272.30
715.61	271.83
715.95	271.37
716.28	270.88
716.61	270.39
716.95	269.82
717.28	269.43
717.61	269.06
717.94	268.66
718.28	268.13
718.61	267.71
718.94	267.23
719.27	266.76
719.61	266.35
719.94	265.98
720.27	265.52
720.60	265.13
720.94	264.74
721.27	264.35
721.60	264.10
721.93	263.74
722.27	263.38
722.60	263.11
722.93	262.72
723.26	262.34
723.59	261.94
723.93	261.57
724.26	261.13
724.59	260.89
724.92	260.63
725.25	260.24
725.59	259.80
725.92	259.33
726.25	259.10
726.58	258.85
726.91	258.40
727.24	258.09
727.57	257.80
727.91	257.41
728.24	257.14
728.57	256.74
728.90	256.36
729.23	256.04
729.56	255.84
729.89	255.54
730.22	255.18
730.55	254.92
730.89	254.43
731.22	254.17
731.55	253.73
731.88	253.43
732.21	253.10
732.54	252.95
732.87	252.76
733.20	252.41
733.53	252.12
733.86	251.93
734.19	251.67
734.52	251.38
734.85	251.29
735.18	250.96
735.51	250.73
735.84	250.53
736.17	250.34
736.50	249.88
736.83	249.82
737.16	249.61
737.49	249.37
737.82	249.23
738.15	248.90
738.48	248.64
738.81	248.21
739.14	248.08
739.47	247.88
739.80	247.71
740.13	247.47
740.46	247.26
740.79	247.02
741.12	246.80
741.45	246.68
741.78	246.45
742.11	246.44
742.44	246.24
742.77	245.98
743.10	245.72
743.43	245.51
743.75	245.16
744.08	245.25
744.41	245.14
744.74	245.09
745.07	245.07
745.40	245.14
745.73	245.23
746.06	245.02
746.39	244.85
746.71	244.70
747.04	244.58
747.37	244.47
747.70	244.25
748.03	244.13
748.36	243.95
748.68	243.78
749.01	243.54
749.34	243.35
749.67	243.32
750.00	243.30
750.33	243.44
750.65	243.35
750.98	242.94
751.31	242.87
751.64	242.72
751.97	242.67
752.29	242.41
752.62	242.22
752.95	242.16
753.28	242.02
753.60	241.92
753.93	241.82
754.26	241.64
754.59	241.55
754.91	241.39
755.24	241.24
755.57	241.09
755.90	241.05
756.22	241.00
756.55	240.84
756.88	240.65
757.20	240.42
757.53	240.30
757.86	240.27
758.19	240.12
758.51	240.07
758.84	239.80
759.17	239.76
759.49	239.70
759.82	239.68
760.15	239.53
760.47	239.37
760.80	239.26
761.13	239.26
761.45	239.20
761.78	239.06
762.11	238.93
762.43	238.81
762.76	238.66
763.08	238.61
763.41	238.46
763.74	238.35
764.06	238.19
764.39	238.03
764.71	237.90
765.04	237.65
765.37	237.46
765.69	237.39
766.02	237.16
766.34	236.96
766.67	236.74
767.00	236.70
767.32	236.68
767.65	236.61
767.97	236.39
768.30	236.20
768.62	236.00
768.95	235.88
769.27	235.79
769.60	235.61
769.92	235.36
770.25	235.28
770.57	235.08
770.90	235.08
771.22	234.94
771.55	234.80
771.87	234.80
772.20	234.74
772.52	234.79
772.85	234.95
773.17	234.80
773.50	234.60
773.82	234.41
774.15	234.20
774.47	233.98
774.80	233.85
775.12	233.79
775.45	233.74
775.77	233.61
776.09	233.51
776.42	233.42
776.74	233.38
777.07	233.19
777.39	233.06
777.72	232.91
778.04	232.79
778.36	232.63
778.69	232.50
779.01	232.36
779.33	232.13
779.66	231.90
779.98	231.88
780.31	231.89
780.63	231.95
780.95	231.96
781.28	231.94
781.60	231.84
781.92	231.81
782.25	231.79
782.57	231.82
782.89	231.70
783.22	231.62
783.54	231.61
783.86	231.72
784.19	231.81
784.51	231.76
784.83	231.71
785.16	231.80
785.48	231.74
785.80	231.74
786.12	231.70
786.45	231.58
786.77	231.59
787.09	231.58
787.42	231.48
787.74	231.49
788.06	231.44
788.38	231.44
788.71	231.40
789.03	231.50
789.35	231.56
789.67	231.52
789.99	231.57
790.32	231.58
790.64	231.43
790.96	231.63
791.28	231.60
791.61	231.75
791.93	231.75
792.25	231.78
792.57	231.91
792.89	231.86
793.21	231.88
793.54	231.86
793.86	231.89
794.18	231.94
794.50	231.90
794.82	231.90
795.14	231.95
795.47	232.03
795.79	232.00
796.11	232.00
796.43	232.17
796.75	232.23
797.07	232.21
797.39	232.33
797.71	232.05
798.04	232.09
798.36	232.06
798.68	232.00
799.00	232.04
799.32	231.89
799.64	231.99
799.96	232.05
800.28	232.05
800.60	232.01
800.92	231.89
801.24	231.83
801.56	231.86
801.89	231.81
802.21	231.75
802.53	231.63
802.85	231.62
803.17	231.57
803.49	231.35
803.81	231.29
804.13	231.24
804.45	231.21
804.77	231.19
805.09	231.06
805.41	230.97
805.73	230.85
806.05	230.82
806.37	230.77
806.69	230.66
807.01	230.55
807.33	230.53
807.65	230.45
807.97	230.47
808.28	230.33
808.60	230.27
808.92	230.20
809.24	230.30
809.56	230.23
809.88	230.14
810.20	230.17
810.52	230.19
810.84	229.96
811.16	229.84
811.48	229.77
811.80	229.80
812.12	229.81
812.43	229.82
812.75	229.79
813.07	229.73
813.39	229.71
813.71	229.72
814.03	229.60
814.35	229.60
814.67	229.50
814.98	229.52
815.30	229.41
815.62	229.20
815.94	229.08
816.26	229.10
816.58	229.06
816.89	229.04
817.21	228.95
817.53	229.03
817.85	229.08
818.17	229.01
818.48	228.90
818.80	228.93
819.12	228.92
819.44	228.86
819.76	228.80
820.07	228.74
820.39	228.75
820.71	228.83
821.03	228.89
821.34	228.84
821.66	228.83
821.98	228.90
822.30	229.06
822.61	229.10
822.93	228.97
823.25	229.01
823.57	228.98
823.88	229.09
824.20	229.17
824.52	229.18
824.83	229.20
825.15	229.27
825.47	229.27
825.79	229.28
826.10	229.36
826.42	229.42
826.74	229.52
827.05	229.48
827.37	229.46
827.69	229.48
828.00	229.48
828.32	229.50
828.64	229.53
828.95	229.63
829.27	229.65
829.58	229.71
829.90	229.73
830.22	229.90
830.53	229.85
830.85	229.76
831.17	229.77
831.48	229.70
831.80	229.69
832.11	229.74
832.43	229.73
832.75	229.70
833.06	229.70
833.38	229.77
833.69	229.75
834.01	229.86
834.32	229.80
834.64	229.83
834.96	229.87
835.27	229.94
835.59	229.93
835.90	229.88
836.22	229.85
836.53	229.83
836.85	229.72
837.16	229.95
837.48	230.08
837.79	230.10
838.11	230.26
838.42	230.25
838.74	230.20
839.05	230.16
839.37	230.07
839.68	229.98
840.00	229.84
840.31	229.94
840.63	229.82
840.94	229.86
841.26	229.88
841.57	229.95
841.88	229.85
842.20	229.78
842.51	229.68
842.83	229.63
843.14	229.73
843.46	229.69
843.77	229.51
844.08	229.40
844.40	229.32
844.71	229.21
845.03	229.17
845.34	229.14
845.65	229.11
845.97	229.05
846.28	229.01
846.60	228.93
846.91	228.88
847.22	228.81
847.54	228.73
847.85	228.59
848.16	228.42
848.48	228.32
848.79	228.38
849.10	228.49
849.42	228.41
849.73	228.24
850.04	228.24
850.36	228.10
850.67	228.07
850.98	228.02
851.30	228.04
851.61	228.02
851.92	227.97
852.23	228.01
852.55	228.11
852.86	228.14
853.17	228.18
853.49	228.15
853.80	228.17
854.11	228.22
854.42	228.32
854.74	228.33
855.05	228.28
855.36	228.08
855.67	227.95
855.99	227.94
856.30	228.10
856.61	228.08
856.92	228.11
857.23	228.05
857.55	228.10
857.86	228.06
858.17	228.14
858.48	228.00
858.79	228.05
859.11	227.98
859.42	228.01
859.73	228.01
860.04	227.93
860.35	227.77
860.66	227.62
860.98	227.57
861.29	227.63
861.60	227.68
861.91	227.83
862.22	227.80
862.53	227.86
862.84	227.58
863.16	227.60
863.47	227.52
863.78	227.53
864.09	227.59
864.40	227.60
864.71	227.61
865.02	227.70
865.33	227.54
865.64	227.68
865.95	227.61
866.27	227.74
866.58	227.86
866.89	228.09
867.20	228.21
867.51	228.21
867.82	228.20
868.13	228.30
868.44	228.21
868.75	228.28
869.06	228.26
869.37	228.52
869.68	228.55
869.99	228.68
870.30	228.85
870.61	228.78
870.92	228.80
871.23	228.76
871.54	228.94
871.85	229.18
872.16	229.21
872.47	229.28
872.78	229.22
873.09	229.27
873.40	229.19
873.71	229.20
874.02	229.27
874.33	229.34
874.64	229.39
874.95	229.51
875.26	229.56
875.56	229.62
875.87	229.56
876.18	229.56
876.49	229.76
876.80	229.74
877.11	229.73
877.42	229.77
877.73	229.78
878.04	229.80
878.35	229.76
878.66	229.72
878.96	229.77
879.27	229.78
879.58	229.80
879.89	229.82
880.20	229.87
880.51	229.76
880.82	229.60
881.12	229.50
881.43	229.41
881.74	229.50
882.05	229.48
882.36	229.46
882.67	229.40
882.97	229.11
883.28	228.95
883.59	228.93
883.90	228.83
884.21	228.84
884.51	228.65
884.82	228.51
885.13	228.55
885.44	228.58
885.74	228.57
886.05	228.45
886.36	228.36
886.67	228.30
886.98	228.51
887.28	228.62
887.59	228.73
887.90	228.61
888.20	228.47
888.51	228.45
888.82	228.43
889.13	228.50
889.43	228.68
889.74	228.70
890.05	228.67
890.35	228.68
890.66	228.55
890.97	228.47
891.28	228.51
891.58	228.36
891.89	228.10
892.20	227.99
892.50	227.87
892.81	227.84
893.12	227.76
893.42	227.57
893.73	227.54
894.04	227.48
894.34	227.54
894.65	227.50
894.95	227.46
895.26	227.35
895.57	227.30
895.87	227.10
896.18	227.11
896.48	227.20
896.79	227.18
897.10	227.27
897.40	227.34
897.71	227.32
898.01	227.37
898.32	227.56
898.63	227.57
898.93	227.61
899.24	227.65
899.54	227.68
899.85	227.69
900.15	227.58
900.46	227.65
900.76	227.68
901.07	227.68
901.38	227.70
901.68	227.74
901.99	227.64
902.29	227.65
902.60	227.72
902.90	227.67
903.21	227.67
903.51	227.66
903.82	227.71
904.12	227.70
904.43	227.77
904.73	227.77
905.03	227.77
905.34	228.00
905.64	228.07
905.95	228.06
906.25	228.09
906.56	228.16
906.86	228.12
907.17	228.19
907.47	228.28
907.77	228.33
908.08	228.34
908.38	228.51
908.69	228.58
908.99	228.60
909.30	228.70
909.60	228.78
909.90	228.75
910.21	228.63
910.51	228.73
910.81	228.74
911.12	228.73
911.42	228.82
911.73	228.70
912.03	228.64
912.33	228.70
912.64	228.71
912.94	228.84
913.24	228.82
913.55	228.84
913.85	228.80
914.15	228.76
914.46	228.87
914.76	228.85
915.06	228.86
915.37	228.88
915.67	228.74
915.97	228.69
916.27	228.64
916.58	228.77
916.88	228.72
917.18	228.68
917.49	228.96
917.79	228.97
918.09	228.95
918.39	229.08
918.70	229.06
919.00	229.03
919.30	229.09
919.60	229.10
919.91	229.02
920.21	229.06
920.51	229.07
920.81	229.00
921.12	229.00
921.42	228.94
921.72	228.83
922.02	228.90
922.32	228.97
922.63	229.07
922.93	229.10
923.23	229.17
923.53	229.10
923.83	228.79
924.13	228.73
924.44	228.75
924.74	228.75
925.04	228.80
925.34	228.73
925.64	228.64
925.94	228.57
926.24	228.75
926.55	228.63
926.85	228.56
927.15	228.57
927.45	228.52
927.75	228.55
928.05	228.53
928.35	228.61
928.65	228.60
928.95	228.59
929.26	228.53
929.56	228.55
929.86	228.63
930.16	228.60
930.46	228.58
930.76	228.52
931.06	228.33
931.36	228.31
931.66	228.44
931.96	228.30
932.26	228.37
932.56	228.20
932.86	228.20
933.16	228.29
933.46	228.25
933.76	228.13
934.06	228.14
934.36	228.24
934.66	228.09
934.96	228.05
935.26	228.03
935.56	228.09
935.86	227.91
936.16	227.86
936.46	227.96
936.76	227.94
937.06	228.00
937.36	227.99
937.66	227.97
937.96	227.93
938.26	227.97
938.56	227.93
938.86	227.85
939.16	227.98
939.46	228.03
939.76	228.06
940.06	228.06
940.35	228.01
940.65	228.00
940.95	228.14
941.25	228.19
941.55	228.12
941.85	228.08
942.15	228.16
942.45	228.20
942.75	228.16
943.04	228.19
943.34	228.19
943.64	228.34
943.94	228.35
944.24	228.44
944.54	228.52
944.84	228.57
945.13	228.67
945.43	228.63
945.73	228.61
946.03	228.61
946.33	228.80
946.62	228.80
946.92	228.87
947.22	228.74
947.52	228.75
947.82	228.85
948.11	228.87
948.41	228.92
948.71	228.88
949.01	228.86
949.31	228.89
949.60	229.01
949.90	228.99
950.20	228.89
950.50	228.86
950.79	228.79
951.09	228.83
951.39	228.90
951.69	228.92
951.98	228.97
952.28	229.01
952.58	228.97
952.87	229.12
953.17	229.06
953.47	229.20
953.76	229.18
954.06	229.20
954.36	229.14
954.66	229.06
954.95	229.18
955.25	229.20
955.55	229.22
955.84	229.02
956.14	229.13
956.44	229.31
956.73	229.31
957.03	229.38
957.32	229.23
957.62	229.12
957.92	229.07
958.21	229.02
958.51	229.19
958.81	229.18
959.10	229.13
959.40	229.16
959.69	229.08
959.99	229.10
960.29	229.09
960.58	229.10
960.88	229.19
961.17	229.11
961.47	229.17
961.76	229.08
962.06	229.09
962.36	228.96
962.65	228.81
962.95	228.70
963.24	228.64
963.54	228.74
963.83	228.76
964.13	228.72
964.42	228.66
964.72	228.50
965.01	228.51
965.31	228.49
965.60	228.46
965.90	228.55
966.19	228.46
966.49	228.45
966.78	228.51
967.08	228.46
967.37	228.44
967.67	228.31
967.96	228.29
968.26	228.36
968.55	228.44
968.85	228.48
969.14	228.42
969.43	228.29
969.73	228.19
970.02	228.14
970.32	228.12
970.61	228.16
970.91	228.02
971.20	227.90
971.49	227.84
971.79	227.74
972.08	227.57
972.38	227.59
972.67	227.47
972.96	227.40
973.26	227.30
973.55	227.36
973.85	227.42
974.14	227.43
974.43	227.39
974.73	227.25
975.02	227.30
975.31	227.33
975.61	227.37
975.90	227.39
976.19	227.41
976.49	227.43
976.78	227.37
977.07	227.39
977.37	227.53
977.66	227.46
977.95	227.57
978.24	227.73
978.54	227.72
978.83	227.81
979.12	227.80
979.42	227.92
979.71	227.95
980.00	228.01
980.29	228.08
980.59	228.06
980.88	228.10
981.17	228.00
981.46	228.13
981.76	228.27
982.05	228.38
982.34	228.43
982.63	228.58
982.93	228.54
983.22	228.72
983.51	228.75
983.80	228.96
984.09	228.99
984.39	228.90
984.68	228.92
984.97	228.88
985.26	228.89
985.55	228.81
985.85	228.74
986.14	228.69
986.43	228.74
986.72	228.77
987.01	228.78
987.30	228.93
987.59	228.88
987.89	228.89
988.18	228.84
988.47	228.83
988.76	228.85
989.05	228.93
989.34	228.89
989.63	228.90
989.92	228.84
990.22	228.72
990.51	228.75
990.80	228.85
991.09	228.93
991.38	229.06
991.67	229.04
991.96	229.04
992.25	229.03
992.54	228.99
992.83	228.99
993.12	228.99
993.41	228.93
993.70	228.99
993.99	228.97
994.28	229.04
994.58	229.02
994.87	228.90
995.16	228.88
995.45	228.75
995.74	228.69
996.03	228.63
996.32	228.67
996.61	228.69
996.90	228.59
997.19	228.52
997.48	228.47
997.77	228.54
998.06	228.55
998.34	228.50
998.63	228.48
998.92	228.48
999.21	228.46
999.50	228.46
999.79	228.33
1000.08	228.35
1000.37	228.26
1000.66	228.22
1000.95	228.22
1001.24	228.23
1001.53	228.40
1001.82	228.38
1002.11	228.36
1002.40	228.24
1002.68	228.20
1002.97	228.30
1003.26	228.29
1003.55	228.30
1003.84	228.21
1004.13	228.21
1004.42	228.24
1004.71	228.16
1004.99	228.10
1005.28	228.04
1005.57	227.99
1005.86	227.93
1006.15	227.93
1006.44	227.89
1006.72	227.84
1007.01	227.86
1007.30	227.76
1007.59	227.57
1007.88	227.47
1008.17	227.51
1008.45	227.53
1008.74	227.58
1009.03	227.52
1009.32	227.52
1009.60	227.50
1009.89	227.50
1010.18	227.37
1010.47	227.39
1010.76	227.42
1011.04	227.43
1011.33	227.52
1011.62	227.59
1011.91	227.71
1012.19	227.65
1012.48	227.68
1012.77	227.76
1013.05	227.78
1013.34	227.81
1013.63	227.94
1013.92	228.07
1014.20	228.03
1014.49	228.13
1014.78	228.03
1015.06	227.96
1015.35	227.99
1015.64	228.08
1015.92	228.15
1016.21	228.30
1016.50	228.26
1016.78	228.30
1017.07	228.38
1017.36	228.42
1017.64	228.31
1017.93	228.36
1018.22	228.43
1018.50	228.45
1018.79	228.43
1019.08	228.40
1019.36	228.44
1019.65	228.46
1019.93	228.50
1020.22	228.46
1020.51	228.55
1020.79	228.65
1021.08	229.30
1021.36	228.40
1021.65	227.70
1021.94	228.40
1022.22	227.80
1022.51	230.00
1022.79	230.20
1023.08	226.70
1023.36	230.20
1023.65	228.80
>>>>>End Processed Spectral Data<<<<<
