SpectraSuite Data File
++++++++++++++++++++++++++++++++++++
Date: Fri Feb 01 14:38:38 EST 2013
User: group
Dark Spectrum Present: No
Reference Spectrum Present: No
Number of Sampled Component Spectra: 1
Spectrometers: USB2E7196
Integration Time (usec): 70000 (USB2E7196)
Spectra Averaged: 10 (USB2E7196)
Boxcar Smoothing: 10 (USB2E7196)
Correct for Electrical Dark: No (USB2E7196)
Strobe/Lamp Enabled: No (USB2E7196)
Correct for Detector Non-linearity: No (USB2E7196)
Correct for Stray Light: No (USB2E7196)
Number of Pixels in Processed Spectrum: 2048
>>>>>Begin Processed Spectral Data<<<<<
339.09	0.00
339.48	214.70
339.86	216.00
340.24	218.00
340.63	220.80
341.01	222.70
341.39	224.30
341.78	223.60
342.16	227.30
342.54	226.60
342.93	214.17
343.31	224.98
343.69	225.52
344.07	226.06
344.46	226.60
344.84	226.92
345.22	227.24
345.60	227.32
345.99	227.53
346.37	227.59
346.75	227.69
347.13	227.73
347.52	227.79
347.90	227.94
348.28	228.11
348.66	228.16
349.05	228.14
349.43	228.20
349.81	228.37
350.19	228.38
350.57	228.49
350.96	228.63
351.34	228.72
351.72	228.81
352.10	228.89
352.48	228.91
352.87	229.00
353.25	229.13
353.63	229.36
354.01	229.40
354.39	229.52
354.77	229.60
355.15	229.73
355.54	229.86
355.92	229.91
356.30	229.88
356.68	229.90
357.06	229.98
357.44	230.00
357.82	229.98
358.20	230.00
358.58	230.07
358.97	230.10
359.35	230.18
359.73	230.28
360.11	230.34
360.49	230.34
360.87	230.39
361.25	230.44
361.63	230.36
362.01	230.42
362.39	230.40
362.77	230.42
363.15	230.42
363.53	230.41
363.91	230.32
364.29	230.34
364.67	230.31
365.05	230.32
365.43	230.39
365.81	230.36
366.19	230.45
366.57	230.58
366.95	230.58
367.33	230.52
367.71	230.56
368.09	230.54
368.47	230.53
368.85	230.50
369.23	230.37
369.61	230.35
369.99	230.39
370.37	230.33
370.75	230.38
371.13	230.20
371.51	230.13
371.89	230.17
372.27	230.07
372.65	229.95
373.03	229.88
373.41	229.76
373.78	229.73
374.16	229.66
374.54	229.38
374.92	229.24
375.30	229.14
375.68	228.94
376.06	228.85
376.44	228.84
376.82	228.72
377.19	228.65
377.57	228.51
377.95	228.41
378.33	228.32
378.71	228.09
379.09	228.14
379.47	228.14
379.84	228.07
380.22	227.97
380.60	227.83
380.98	227.78
381.36	227.74
381.73	227.54
382.11	227.32
382.49	227.29
382.87	227.33
383.25	227.29
383.62	227.43
384.00	227.45
384.38	227.28
384.76	227.29
385.13	227.20
385.51	227.20
385.89	227.07
386.27	227.08
386.64	227.08
387.02	226.96
387.40	226.91
387.78	226.83
388.15	226.75
388.53	226.80
388.91	226.76
389.29	226.69
389.66	226.71
390.04	226.81
390.42	226.80
390.79	226.78
391.17	226.77
391.55	226.59
391.92	226.50
392.30	226.53
392.68	226.51
393.05	226.60
393.43	226.62
393.81	226.58
394.18	226.54
394.56	226.56
394.94	226.65
395.31	226.64
395.69	226.78
396.06	226.92
396.44	227.02
396.82	227.03
397.19	227.17
397.57	227.28
397.95	227.37
398.32	227.40
398.70	227.45
399.07	227.58
399.45	227.65
399.82	227.78
400.20	227.88
400.58	227.88
400.95	227.84
401.33	227.98
401.70	228.37
402.08	228.47
402.45	228.55
402.83	228.70
403.20	228.90
403.58	228.99
403.95	229.16
404.33	229.24
404.71	229.41
405.08	229.70
405.46	229.83
405.83	230.00
406.21	230.27
406.58	230.41
406.96	230.65
407.33	230.89
407.70	231.15
408.08	231.46
408.45	231.77
408.83	232.03
409.20	232.34
409.58	232.41
409.95	232.72
410.33	233.01
410.70	233.27
411.08	233.49
411.45	233.80
411.82	234.07
412.20	234.50
412.57	235.03
412.95	235.25
413.32	235.73
413.69	236.07
414.07	236.54
414.44	237.16
414.82	237.62
415.19	238.26
415.56	238.78
415.94	239.26
416.31	240.04
416.68	240.84
417.06	241.49
417.43	242.40
417.81	243.30
418.18	244.28
418.55	245.16
418.93	246.15
419.30	247.20
419.67	248.32
420.04	249.45
420.42	250.54
420.79	252.04
421.16	253.42
421.54	255.01
421.91	256.39
422.28	257.86
422.66	259.55
423.03	261.12
423.40	262.80
423.77	264.71
424.15	266.46
424.52	268.28
424.89	270.47
425.26	272.32
425.64	274.12
426.01	276.17
426.38	278.38
426.75	280.56
427.13	282.86
427.50	285.22
427.87	287.56
428.24	290.04
428.61	292.25
428.99	294.74
429.36	297.50
429.73	300.23
430.10	302.92
430.47	305.60
430.85	308.37
431.22	311.21
431.59	314.37
431.96	317.46
432.33	320.86
432.70	323.92
433.08	327.68
433.45	331.37
433.82	334.86
434.19	338.84
434.56	342.71
434.93	346.25
435.30	349.84
435.68	353.90
436.05	357.74
436.42	361.70
436.79	365.26
437.16	368.98
437.53	372.93
437.90	376.83
438.27	380.80
438.64	384.95
439.01	388.83
439.38	392.07
439.75	395.19
440.13	398.67
440.50	402.16
440.87	404.86
441.24	407.62
441.61	410.80
441.98	413.09
442.35	415.91
442.72	418.89
443.09	421.73
443.46	423.53
443.83	424.85
444.20	425.91
444.57	427.53
444.94	428.27
445.31	429.23
445.68	430.24
446.05	430.80
446.42	430.60
446.79	430.53
447.16	430.37
447.53	430.45
447.90	429.24
448.27	428.10
448.64	426.33
449.01	425.32
449.37	423.11
449.74	420.86
450.11	418.13
450.48	414.95
450.85	411.77
451.22	409.00
451.59	406.51
451.96	404.04
452.33	400.65
452.70	397.66
453.07	393.96
453.43	390.20
453.80	386.52
454.17	383.02
454.54	379.50
454.91	375.79
455.28	372.22
455.65	369.01
456.02	365.74
456.38	363.06
456.75	359.50
457.12	356.47
457.49	353.45
457.86	350.41
458.23	348.04
458.59	345.38
458.96	342.46
459.33	339.73
459.70	337.19
460.07	335.18
460.43	332.87
460.80	330.67
461.17	328.58
461.54	326.49
461.91	324.51
462.27	322.46
462.64	320.70
463.01	318.70
463.38	316.93
463.74	314.98
464.11	313.17
464.48	311.52
464.85	309.80
465.21	308.50
465.58	307.32
465.95	305.81
466.32	304.36
466.68	303.19
467.05	301.98
467.42	300.62
467.78	299.29
468.15	297.97
468.52	296.95
468.88	295.62
469.25	294.32
469.62	293.39
469.98	292.48
470.35	291.64
470.72	290.69
471.08	289.67
471.45	288.75
471.82	288.00
472.18	287.01
472.55	286.23
472.92	285.47
473.28	284.57
473.65	283.59
474.02	282.80
474.38	282.15
474.75	281.49
475.11	280.84
475.48	280.15
475.85	279.53
476.21	278.93
476.58	278.43
476.94	278.06
477.31	277.48
477.67	276.91
478.04	276.39
478.41	276.01
478.77	275.72
479.14	275.25
479.50	274.89
479.87	274.72
480.23	274.49
480.60	274.12
480.96	273.79
481.33	273.73
481.69	273.60
482.06	273.30
482.42	273.14
482.79	272.92
483.15	272.79
483.52	272.85
483.88	272.71
484.25	272.60
484.61	272.54
484.98	272.53
485.34	272.67
485.71	272.77
486.07	272.69
486.44	272.56
486.80	272.69
487.17	272.68
487.53	272.71
487.90	272.91
488.26	273.24
488.62	273.56
488.99	273.67
489.35	273.78
489.72	274.00
490.08	274.07
490.44	274.34
490.81	274.71
491.17	274.80
491.54	275.14
491.90	275.46
492.26	275.73
492.63	275.97
492.99	276.27
493.36	276.55
493.72	276.99
494.08	277.42
494.45	277.73
494.81	278.19
495.17	278.58
495.54	278.95
495.90	279.26
496.26	279.52
496.63	279.86
496.99	280.28
497.35	280.69
497.72	281.25
498.08	281.50
498.44	281.76
498.80	282.30
499.17	282.77
499.53	283.24
499.89	283.62
500.26	284.03
500.62	284.30
500.98	284.69
501.34	285.07
501.71	285.35
502.07	285.80
502.43	286.06
502.79	286.40
503.16	286.70
503.52	287.01
503.88	287.36
504.24	287.73
504.60	288.08
504.97	288.51
505.33	288.82
505.69	289.46
506.05	289.80
506.41	289.99
506.78	290.24
507.14	290.58
507.50	291.09
507.86	291.51
508.22	292.05
508.59	292.43
508.95	292.89
509.31	293.47
509.67	294.14
510.03	294.73
510.39	295.36
510.75	296.06
511.12	296.58
511.48	297.17
511.84	297.86
512.20	298.60
512.56	299.32
512.92	300.17
513.28	300.90
513.64	301.95
514.00	303.08
514.37	304.05
514.73	305.14
515.09	306.27
515.45	307.51
515.81	308.65
516.17	309.98
516.53	311.26
516.89	312.61
517.25	313.89
517.61	315.53
517.97	317.18
518.33	318.79
518.69	320.72
519.05	322.58
519.41	324.66
519.77	326.77
520.13	328.84
520.49	330.98
520.85	333.10
521.21	335.36
521.57	337.60
521.93	340.01
522.29	342.41
522.65	344.91
523.01	347.54
523.37	350.15
523.73	353.13
524.09	356.01
524.45	358.93
524.81	362.02
525.17	365.00
525.53	368.23
525.89	371.54
526.25	374.88
526.61	378.27
526.97	381.71
527.33	385.23
527.68	389.10
528.04	392.79
528.40	396.78
528.76	400.80
529.12	405.14
529.48	409.43
529.84	413.71
530.20	418.00
530.56	422.42
530.91	427.07
531.27	431.55
531.63	436.33
531.99	441.10
532.35	446.00
532.71	450.91
533.07	455.76
533.42	461.04
533.78	465.93
534.14	471.23
534.50	476.37
534.86	481.90
535.21	487.06
535.57	492.65
535.93	498.11
536.29	503.70
536.65	509.13
537.00	514.71
537.36	520.65
537.72	526.39
538.08	532.26
538.44	538.07
538.79	543.93
539.15	549.80
539.51	555.78
539.87	561.92
540.22	567.83
540.58	574.10
540.94	580.14
541.29	586.54
541.65	592.48
542.01	599.05
542.37	605.16
542.72	611.32
543.08	617.61
543.44	624.02
543.79	629.95
544.15	636.29
544.51	642.66
544.87	648.79
545.22	655.25
545.58	661.51
545.94	667.75
546.29	674.11
546.65	680.25
547.01	686.21
547.36	692.16
547.72	698.39
548.07	704.15
548.43	709.90
548.79	715.62
549.14	721.75
549.50	727.24
549.86	732.88
550.21	738.83
550.57	744.72
550.92	750.44
551.28	756.49
551.64	762.22
551.99	768.06
552.35	773.64
552.70	779.07
553.06	784.71
553.41	790.33
553.77	795.75
554.13	801.43
554.48	807.24
554.84	813.06
555.19	818.55
555.55	824.38
555.90	829.94
556.26	835.75
556.61	841.08
556.97	846.49
557.32	851.93
557.68	857.24
558.03	862.41
558.39	867.77
558.74	873.14
559.10	878.41
559.45	883.41
559.81	888.92
560.16	893.80
560.52	898.80
560.87	904.04
561.23	908.68
561.58	913.74
561.94	918.37
562.29	922.64
562.64	927.42
563.00	931.91
563.35	936.74
563.71	941.18
564.06	945.97
564.42	950.19
564.77	954.67
565.12	959.24
565.48	963.85
565.83	967.95
566.19	971.89
566.54	975.92
566.89	979.78
567.25	983.60
567.60	988.23
567.96	992.04
568.31	995.59
568.66	999.45
569.02	1002.86
569.37	1006.41
569.72	1010.07
570.08	1013.63
570.43	1016.85
570.78	1019.77
571.14	1022.42
571.49	1025.31
571.84	1028.76
572.20	1031.46
572.55	1033.66
572.90	1035.81
573.26	1038.20
573.61	1040.54
573.96	1042.66
574.31	1044.74
574.67	1046.23
575.02	1047.61
575.37	1049.31
575.72	1050.40
576.08	1052.12
576.43	1053.18
576.78	1054.74
577.13	1056.12
577.49	1057.13
577.84	1058.19
578.19	1059.12
578.54	1060.72
578.90	1061.42
579.25	1061.73
579.60	1062.49
579.95	1063.29
580.30	1063.58
580.66	1063.90
581.01	1064.47
581.36	1064.91
581.71	1065.35
582.06	1066.14
582.42	1066.29
582.77	1066.31
583.12	1067.18
583.47	1067.33
583.82	1067.85
584.17	1067.79
584.53	1067.81
584.88	1067.82
585.23	1067.74
585.58	1067.84
585.93	1067.30
586.28	1067.40
586.63	1067.63
586.98	1067.44
587.34	1067.32
587.69	1067.32
588.04	1067.19
588.39	1066.85
588.74	1065.93
589.09	1065.43
589.44	1064.27
589.79	1063.77
590.14	1063.48
590.49	1062.55
590.84	1061.49
591.19	1060.77
591.54	1059.53
591.89	1058.00
592.25	1057.10
592.60	1055.84
592.95	1054.34
593.30	1053.14
593.65	1051.43
594.00	1049.42
594.35	1047.98
594.70	1045.79
595.05	1044.20
595.40	1042.35
595.75	1040.34
596.10	1038.90
596.45	1037.35
596.80	1036.09
597.15	1034.60
597.50	1032.58
597.85	1030.83
598.19	1029.33
598.54	1027.72
598.89	1026.24
599.24	1025.10
599.59	1023.01
599.94	1021.15
600.29	1019.36
600.64	1017.22
600.99	1015.11
601.34	1013.57
601.69	1011.57
602.04	1010.08
602.39	1007.99
602.74	1006.32
603.08	1004.60
603.43	1002.95
603.78	1000.53
604.13	998.23
604.48	995.79
604.83	994.03
605.18	991.85
605.53	989.34
605.87	986.34
606.22	984.19
606.57	981.38
606.92	979.12
607.27	977.00
607.62	974.94
607.96	972.63
608.31	970.65
608.66	967.80
609.01	965.01
609.36	962.00
609.70	958.76
610.05	955.57
610.40	952.55
610.75	949.34
611.10	946.39
611.44	943.28
611.79	940.37
612.14	936.95
612.49	933.54
612.83	930.17
613.18	927.28
613.53	923.96
613.88	920.53
614.22	917.09
614.57	913.63
614.92	909.83
615.27	906.52
615.61	902.67
615.96	899.63
616.31	896.69
616.65	894.06
617.00	891.28
617.35	888.25
617.70	884.78
618.04	881.23
618.39	877.87
618.74	874.87
619.08	871.41
619.43	868.30
619.78	865.21
620.12	862.13
620.47	858.80
620.82	855.43
621.16	852.29
621.51	849.14
621.85	845.85
622.20	842.74
622.55	839.95
622.89	837.01
623.24	833.54
623.59	830.00
623.93	826.60
624.28	823.61
624.62	820.45
624.97	817.56
625.32	814.44
625.66	811.60
626.01	808.13
626.35	804.90
626.70	801.27
627.04	798.30
627.39	795.14
627.73	791.80
628.08	788.38
628.43	785.24
628.77	782.14
629.12	778.86
629.46	775.62
629.81	771.63
630.15	768.19
630.50	765.07
630.84	761.57
631.19	757.97
631.53	754.28
631.88	750.60
632.22	746.77
632.57	743.73
632.91	740.27
633.26	736.96
633.60	733.45
633.95	730.18
634.29	726.62
634.64	723.42
634.98	719.94
635.32	717.02
635.67	713.87
636.01	710.60
636.36	707.03
636.70	703.77
637.05	700.95
637.39	697.97
637.73	694.78
638.08	691.89
638.42	689.19
638.77	686.24
639.11	683.21
639.45	680.32
639.80	677.07
640.14	674.22
640.49	671.23
640.83	668.37
641.17	665.47
641.52	662.32
641.86	659.06
642.20	656.22
642.55	652.87
642.89	649.89
643.23	646.64
643.58	644.23
643.92	641.35
644.26	638.25
644.61	635.23
644.95	632.38
645.29	629.00
645.64	625.72
645.98	622.81
646.32	619.97
646.66	616.93
647.01	613.91
647.35	610.79
647.69	607.87
648.04	604.98
648.38	601.90
648.72	598.88
649.06	595.91
649.41	593.06
649.75	590.11
650.09	587.00
650.43	584.04
650.78	580.73
651.12	577.64
651.46	574.53
651.80	571.57
652.14	568.50
652.49	565.80
652.83	562.82
653.17	559.60
653.51	556.45
653.85	553.97
654.20	551.06
654.54	547.89
654.88	544.83
655.22	541.68
655.56	538.78
655.90	535.92
656.25	533.13
656.59	530.16
656.93	527.65
657.27	524.94
657.61	522.07
657.95	519.47
658.29	516.77
658.64	514.30
658.98	511.30
659.32	508.30
659.66	505.72
660.00	502.96
660.34	500.54
660.68	497.96
661.02	495.06
661.36	492.49
661.70	490.25
662.05	487.96
662.39	485.72
662.73	483.45
663.07	481.25
663.41	478.86
663.75	476.46
664.09	473.97
664.43	471.53
664.77	469.46
665.11	467.23
665.45	465.04
665.79	462.74
666.13	460.83
666.47	458.90
666.81	456.61
667.15	454.50
667.49	452.20
667.83	450.31
668.17	448.05
668.51	445.90
668.85	443.62
669.19	441.63
669.53	439.63
669.87	437.52
670.21	435.40
670.55	433.46
670.89	431.83
671.23	429.99
671.57	428.30
671.91	426.43
672.25	424.51
672.58	422.70
672.92	420.96
673.26	419.22
673.60	417.47
673.94	415.88
674.28	414.34
674.62	412.84
674.96	411.04
675.30	409.46
675.64	407.95
675.97	406.33
676.31	404.56
676.65	402.90
676.99	401.32
677.33	399.71
677.67	398.13
678.01	396.35
678.34	394.65
678.68	392.90
679.02	391.25
679.36	389.67
679.70	387.96
680.04	386.32
680.37	384.66
680.71	383.15
681.05	381.62
681.39	380.10
681.73	378.66
682.06	377.33
682.40	376.10
682.74	374.70
683.08	373.49
683.42	371.91
683.75	370.46
684.09	368.86
684.43	367.45
684.77	365.99
685.10	364.58
685.44	363.14
685.78	361.77
686.12	360.42
686.45	358.98
686.79	357.76
687.13	356.40
687.46	355.12
687.80	353.70
688.14	352.20
688.48	350.85
688.81	349.44
689.15	348.11
689.49	346.70
689.82	345.22
690.16	343.64
690.50	342.56
690.83	341.41
691.17	340.36
691.51	339.22
691.84	338.06
692.18	336.86
692.52	335.62
692.85	334.43
693.19	333.15
693.52	331.93
693.86	330.62
694.20	329.47
694.53	328.30
694.87	327.16
695.21	326.10
695.54	324.99
695.88	323.72
696.21	322.48
696.55	321.43
696.88	320.45
697.22	319.59
697.56	318.60
697.89	317.54
698.23	316.57
698.56	315.55
698.90	314.56
699.23	313.52
699.57	312.59
699.90	311.70
700.24	310.78
700.58	309.97
700.91	309.21
701.25	308.40
701.58	307.65
701.92	306.98
702.25	306.18
702.59	305.26
702.92	304.58
703.26	303.79
703.59	302.97
703.93	302.32
704.26	301.38
704.60	300.60
704.93	299.69
705.26	298.76
705.60	297.92
705.93	297.28
706.27	296.67
706.60	295.93
706.94	295.25
707.27	294.60
707.61	293.88
707.94	293.12
708.27	292.33
708.61	291.46
708.94	290.56
709.28	289.95
709.61	289.29
709.94	288.66
710.28	288.10
710.61	287.46
710.95	286.78
711.28	286.27
711.61	285.58
711.95	285.08
712.28	284.55
712.61	284.03
712.95	283.35
713.28	282.76
713.61	282.09
713.95	281.34
714.28	280.69
714.61	280.16
714.95	279.49
715.28	278.94
715.61	278.35
715.95	278.00
716.28	277.42
716.61	277.03
716.95	276.40
717.28	275.76
717.61	275.22
717.94	274.60
718.28	274.03
718.61	273.57
718.94	273.00
719.27	272.48
719.61	272.11
719.94	271.63
720.27	271.19
720.60	270.87
720.94	270.47
721.27	270.09
721.60	269.72
721.93	269.41
722.27	269.04
722.60	268.62
722.93	268.18
723.26	267.74
723.59	267.19
723.93	266.81
724.26	266.46
724.59	266.13
724.92	265.74
725.25	265.32
725.59	264.84
725.92	264.44
726.25	264.06
726.58	263.55
726.91	263.29
727.24	262.86
727.57	262.54
727.91	262.10
728.24	261.61
728.57	261.19
728.90	260.85
729.23	260.31
729.56	260.10
729.89	259.66
730.22	259.29
730.55	259.02
730.89	258.67
731.22	258.26
731.55	257.74
731.88	257.40
732.21	257.07
732.54	256.82
732.87	256.44
733.20	256.12
733.53	255.84
733.86	255.52
734.19	255.14
734.52	254.79
734.85	254.62
735.18	254.35
735.51	254.12
735.84	253.81
736.17	253.70
736.50	253.30
736.83	253.28
737.16	252.95
737.49	252.64
737.82	252.33
738.15	252.18
738.48	251.96
738.81	251.68
739.14	251.54
739.47	251.33
739.80	251.18
740.13	250.96
740.46	250.68
740.79	250.32
741.12	250.13
741.45	249.84
741.78	249.58
742.11	249.42
742.44	249.13
742.77	248.88
743.10	248.61
743.43	248.41
743.75	247.97
744.08	247.99
744.41	247.86
744.74	247.80
745.07	247.55
745.40	247.45
745.73	247.41
746.06	247.23
746.39	246.96
746.71	246.79
747.04	246.64
747.37	246.48
747.70	246.32
748.03	246.15
748.36	245.99
748.68	245.82
749.01	245.58
749.34	245.33
749.67	245.11
750.00	244.92
750.33	244.84
750.65	244.68
750.98	244.32
751.31	244.09
751.64	243.80
751.97	243.66
752.29	243.45
752.62	243.10
752.95	242.88
753.28	242.75
753.60	242.60
753.93	242.41
754.26	242.28
754.59	242.13
754.91	241.91
755.24	241.68
755.57	241.46
755.90	241.30
756.22	241.22
756.55	241.14
756.88	240.92
757.20	240.77
757.53	240.60
757.86	240.38
758.19	240.27
758.51	240.20
758.84	240.07
759.17	239.90
759.49	239.81
759.82	239.70
760.15	239.55
760.47	239.29
760.80	239.04
761.13	238.87
761.45	238.69
761.78	238.49
762.11	238.45
762.43	238.34
762.76	238.18
763.08	237.98
763.41	237.80
763.74	237.74
764.06	237.55
764.39	237.40
764.71	237.23
765.04	237.09
765.37	236.86
765.69	236.61
766.02	236.49
766.34	236.42
766.67	236.28
767.00	236.14
767.32	236.21
767.65	236.36
767.97	236.21
768.30	236.20
768.62	236.18
768.95	236.04
769.27	235.90
769.60	235.87
769.92	235.76
770.25	235.57
770.57	235.39
770.90	235.28
771.22	235.10
771.55	235.05
771.87	235.00
772.20	234.97
772.52	235.20
772.85	235.43
773.17	235.24
773.50	235.10
773.82	235.03
774.15	234.78
774.47	234.54
774.80	234.49
775.12	234.31
775.45	234.21
775.77	234.22
776.09	234.18
776.42	234.20
776.74	234.22
777.07	234.16
777.39	234.15
777.72	234.11
778.04	234.11
778.36	234.21
778.69	234.05
779.01	234.02
779.33	233.82
779.66	233.48
779.98	233.43
780.31	233.43
780.63	233.45
780.95	233.43
781.28	233.39
781.60	233.34
781.92	233.39
782.25	233.40
782.57	233.31
782.89	233.32
783.22	233.14
783.54	233.08
783.86	233.10
784.19	233.08
784.51	233.04
784.83	233.01
785.16	232.95
785.48	232.96
785.80	232.95
786.12	232.96
786.45	233.03
786.77	232.98
787.09	232.84
787.42	232.77
787.74	232.84
788.06	232.81
788.38	232.87
788.71	232.80
789.03	232.68
789.35	232.68
789.67	232.66
789.99	232.72
790.32	232.66
790.64	232.75
790.96	232.89
791.28	232.87
791.61	232.86
791.93	232.72
792.25	232.71
792.57	232.90
792.89	232.72
793.21	232.59
793.54	232.57
793.86	232.61
794.18	232.56
794.50	232.50
794.82	232.33
795.14	232.25
795.47	232.18
795.79	232.12
796.11	232.05
796.43	231.98
796.75	231.91
797.07	231.83
797.39	231.81
797.71	231.47
798.04	231.38
798.36	231.28
798.68	231.26
799.00	231.27
799.32	230.94
799.64	230.95
799.96	230.86
800.28	230.89
800.60	230.77
800.92	230.76
801.24	230.63
801.56	230.65
801.89	230.57
802.21	230.52
802.53	230.47
802.85	230.46
803.17	230.46
803.49	230.37
803.81	230.35
804.13	230.19
804.45	230.16
804.77	230.12
805.09	230.10
805.41	230.05
805.73	229.93
806.05	229.86
806.37	229.87
806.69	229.88
807.01	229.90
807.33	229.97
807.65	229.91
807.97	230.00
808.28	230.02
808.60	230.01
808.92	230.01
809.24	230.09
809.56	230.07
809.88	229.97
810.20	229.96
810.52	229.94
810.84	229.89
811.16	229.91
811.48	229.92
811.80	230.02
812.12	229.99
812.43	229.96
812.75	230.02
813.07	229.85
813.39	229.96
813.71	229.80
814.03	229.72
814.35	229.68
814.67	229.59
814.98	229.49
815.30	229.45
815.62	229.32
815.94	229.22
816.26	229.36
816.58	229.38
816.89	229.43
817.21	229.40
817.53	229.50
817.85	229.58
818.17	229.58
818.48	229.53
818.80	229.63
819.12	229.66
819.44	229.67
819.76	229.73
820.07	229.76
820.39	229.90
820.71	229.94
821.03	229.95
821.34	229.89
821.66	229.99
821.98	230.06
822.30	230.18
822.61	230.44
822.93	230.30
823.25	230.43
823.57	230.35
823.88	230.43
824.20	230.52
824.52	230.53
824.83	230.50
825.15	230.47
825.47	230.44
825.79	230.50
826.10	230.56
826.42	230.47
826.74	230.38
827.05	230.30
827.37	230.35
827.69	230.36
828.00	230.46
828.32	230.46
828.64	230.44
828.95	230.62
829.27	230.49
829.58	230.49
829.90	230.37
830.22	230.38
830.53	230.40
830.85	230.23
831.17	230.16
831.48	230.16
831.80	230.18
832.11	230.13
832.43	230.09
832.75	230.00
833.06	230.20
833.38	230.10
833.69	230.10
834.01	230.00
834.32	229.95
834.64	229.85
834.96	229.80
835.27	229.85
835.59	229.67
835.90	229.66
836.22	229.60
836.53	229.61
836.85	229.62
837.16	229.70
837.48	229.72
837.79	229.74
838.11	229.64
838.42	229.57
838.74	229.54
839.05	229.53
839.37	229.45
839.68	229.24
840.00	229.24
840.31	229.25
840.63	229.17
840.94	229.07
841.26	229.04
841.57	228.99
841.88	228.88
842.20	228.83
842.51	228.64
842.83	228.55
843.14	228.65
843.46	228.61
843.77	228.56
844.08	228.45
844.40	228.39
844.71	228.44
845.03	228.34
845.34	228.24
845.65	228.24
845.97	228.20
846.28	228.26
846.60	228.30
846.91	228.11
847.22	228.23
847.54	228.21
847.85	228.19
848.16	228.14
848.48	228.06
848.79	228.10
849.10	228.12
849.42	228.18
849.73	227.91
850.04	227.96
850.36	227.64
850.67	227.62
850.98	227.55
851.30	227.57
851.61	227.62
851.92	227.64
852.23	227.58
852.55	227.68
852.86	227.71
853.17	227.66
853.49	227.81
853.80	227.83
854.11	228.00
854.42	228.13
854.74	228.20
855.05	228.31
855.36	228.22
855.67	228.25
855.99	228.31
856.30	228.55
856.61	228.55
856.92	228.77
857.23	228.92
857.55	229.03
857.86	229.01
858.17	229.09
858.48	229.07
858.79	229.08
859.11	229.03
859.42	229.02
859.73	229.05
860.04	228.98
860.35	228.89
860.66	228.81
860.98	228.82
861.29	228.82
861.60	228.85
861.91	229.00
862.22	229.07
862.53	229.01
862.84	228.90
863.16	228.95
863.47	228.95
863.78	228.87
864.09	228.97
864.40	229.06
864.71	229.04
865.02	229.18
865.33	229.21
865.64	229.30
865.95	229.39
866.27	229.52
866.58	229.62
866.89	229.72
867.20	229.74
867.51	229.70
867.82	229.76
868.13	229.80
868.44	229.71
868.75	229.67
869.06	229.69
869.37	229.73
869.68	229.67
869.99	229.67
870.30	229.81
870.61	229.73
870.92	229.65
871.23	229.68
871.54	229.66
871.85	229.69
872.16	229.66
872.47	229.59
872.78	229.56
873.09	229.64
873.40	229.57
873.71	229.66
874.02	229.62
874.33	229.65
874.64	229.51
874.95	229.49
875.26	229.44
875.56	229.46
875.87	229.34
876.18	229.26
876.49	229.43
876.80	229.31
877.11	229.21
877.42	229.21
877.73	229.21
878.04	229.21
878.35	229.17
878.66	229.08
878.96	229.03
879.27	228.85
879.58	228.72
879.89	228.67
880.20	228.56
880.51	228.55
880.82	228.45
881.12	228.44
881.43	228.36
881.74	228.35
882.05	228.24
882.36	228.28
882.67	228.29
882.97	228.09
883.28	228.09
883.59	228.15
883.90	228.05
884.21	227.92
884.51	227.89
884.82	227.84
885.13	227.88
885.44	227.75
885.74	227.83
886.05	227.79
886.36	227.78
886.67	227.69
886.98	227.79
887.28	227.76
887.59	227.75
887.90	227.77
888.20	227.80
888.51	227.91
888.82	227.84
889.13	227.95
889.43	227.94
889.74	227.82
890.05	227.70
890.35	227.83
890.66	227.81
890.97	227.75
891.28	227.78
891.58	227.74
891.89	227.80
892.20	227.70
892.50	227.80
892.81	227.73
893.12	227.79
893.42	227.60
893.73	227.64
894.04	227.66
894.34	227.71
894.65	227.68
894.95	227.65
895.26	227.72
895.57	227.74
895.87	227.64
896.18	227.80
896.48	227.85
896.79	227.78
897.10	227.95
897.40	228.04
897.71	228.11
898.01	228.15
898.32	228.25
898.63	228.31
898.93	228.29
899.24	228.30
899.54	228.36
899.85	228.50
900.15	228.52
900.46	228.54
900.76	228.61
901.07	228.71
901.38	228.76
901.68	228.75
901.99	228.73
902.29	228.81
902.60	228.78
902.90	228.90
903.21	228.92
903.51	228.92
903.82	228.84
904.12	228.90
904.43	228.95
904.73	228.96
905.03	228.94
905.34	229.11
905.64	229.22
905.95	229.13
906.25	229.15
906.56	229.16
906.86	229.20
907.17	229.06
907.47	229.00
907.77	228.95
908.08	228.90
908.38	228.88
908.69	228.98
908.99	229.00
909.30	228.94
909.60	229.02
909.90	229.00
910.21	229.02
910.51	228.91
910.81	228.75
911.12	228.79
911.42	228.77
911.73	228.62
912.03	228.65
912.33	228.73
912.64	228.64
912.94	228.57
913.24	228.51
913.55	228.60
913.85	228.50
914.15	228.50
914.46	228.65
914.76	228.62
915.06	228.56
915.37	228.43
915.67	228.48
915.97	228.36
916.27	228.29
916.58	228.26
916.88	228.24
917.18	228.49
917.49	228.48
917.79	228.47
918.09	228.48
918.39	228.49
918.70	228.41
919.00	228.36
919.30	228.55
919.60	228.52
919.91	228.40
920.21	228.45
920.51	228.45
920.81	228.40
921.12	228.43
921.42	228.32
921.72	228.40
922.02	228.34
922.32	228.40
922.63	228.38
922.93	228.48
923.23	228.45
923.53	228.36
923.83	228.24
924.13	228.21
924.44	228.13
924.74	228.13
925.04	228.23
925.34	228.18
925.64	228.02
925.94	228.04
926.24	228.25
926.55	228.24
926.85	228.14
927.15	228.05
927.45	228.05
927.75	228.07
928.05	227.96
928.35	227.92
928.65	227.94
928.95	227.95
929.26	227.89
929.56	227.92
929.86	227.81
930.16	227.83
930.46	227.84
930.76	227.91
931.06	227.80
931.36	227.72
931.66	227.93
931.96	228.01
932.26	227.96
932.56	227.80
932.86	227.83
933.16	227.92
933.46	227.98
933.76	227.91
934.06	228.03
934.36	228.24
934.66	228.26
934.96	228.20
935.26	228.21
935.56	228.30
935.86	228.37
936.16	228.44
936.46	228.43
936.76	228.48
937.06	228.45
937.36	228.53
937.66	228.60
937.96	228.58
938.26	228.59
938.56	228.67
938.86	228.69
939.16	228.79
939.46	228.80
939.76	228.83
940.06	228.84
940.35	228.79
940.65	228.66
940.95	228.72
941.25	228.73
941.55	228.79
941.85	228.75
942.15	228.75
942.45	228.85
942.75	228.93
943.04	228.94
943.34	228.97
943.64	228.89
943.94	228.89
944.24	228.92
944.54	228.85
944.84	228.90
945.13	229.00
945.43	228.95
945.73	228.94
946.03	228.97
946.33	229.01
946.62	229.00
946.92	229.01
947.22	228.98
947.52	229.04
947.82	229.05
948.11	229.02
948.41	229.00
948.71	228.87
949.01	228.83
949.31	228.75
949.60	228.69
949.90	228.72
950.20	228.64
950.50	228.58
950.79	228.55
951.09	228.54
951.39	228.48
951.69	228.47
951.98	228.48
952.28	228.47
952.58	228.40
952.87	228.31
953.17	228.32
953.47	228.38
953.76	228.34
954.06	228.27
954.36	228.23
954.66	228.11
954.95	228.13
955.25	228.15
955.55	228.23
955.84	228.26
956.14	228.41
956.44	228.41
956.73	228.28
957.03	228.36
957.32	228.29
957.62	228.24
957.92	228.16
958.21	228.21
958.51	228.45
958.81	228.51
959.10	228.53
959.40	228.56
959.69	228.48
959.99	228.48
960.29	228.43
960.58	228.45
960.88	228.55
961.17	228.52
961.47	228.45
961.76	228.31
962.06	228.29
962.36	228.08
962.65	228.09
962.95	228.09
963.24	227.94
963.54	227.90
963.83	227.88
964.13	227.94
964.42	227.88
964.72	227.67
965.01	227.62
965.31	227.60
965.60	227.55
965.90	227.60
966.19	227.51
966.49	227.54
966.78	227.48
967.08	227.44
967.37	227.39
967.67	227.41
967.96	227.50
968.26	227.52
968.55	227.59
968.85	227.57
969.14	227.60
969.43	227.70
969.73	227.63
970.02	227.70
970.32	227.67
970.61	227.61
970.91	227.58
971.20	227.62
971.49	227.66
971.79	227.67
972.08	227.62
972.38	227.75
972.67	227.75
972.96	227.79
973.26	227.78
973.55	227.85
973.85	227.86
974.14	227.89
974.43	227.94
974.73	227.97
975.02	228.04
975.31	228.10
975.61	228.04
975.90	228.18
976.19	228.14
976.49	228.21
976.78	228.29
977.07	228.25
977.37	228.28
977.66	228.32
977.95	228.39
978.24	228.36
978.54	228.38
978.83	228.39
979.12	228.47
979.42	228.54
979.71	228.53
980.00	228.47
980.29	228.57
980.59	228.52
980.88	228.62
981.17	228.62
981.46	228.65
981.76	228.78
982.05	228.81
982.34	228.85
982.63	228.85
982.93	228.79
983.22	228.88
983.51	228.85
983.80	228.88
984.09	228.87
984.39	229.00
984.68	229.00
984.97	229.01
985.26	228.99
985.55	228.96
985.85	228.99
986.14	229.13
986.43	229.09
986.72	229.06
987.01	228.94
987.30	228.85
987.59	228.85
987.89	228.75
988.18	228.66
988.47	228.62
988.76	228.61
989.05	228.61
989.34	228.56
989.63	228.59
989.92	228.60
990.22	228.57
990.51	228.38
990.80	228.26
991.09	228.19
991.38	228.22
991.67	228.07
991.96	228.03
992.25	227.98
992.54	227.93
992.83	227.92
993.12	227.81
993.41	227.92
993.70	228.00
993.99	228.04
994.28	228.00
994.58	227.99
994.87	228.01
995.16	228.00
995.45	227.96
995.74	227.87
996.03	227.76
996.32	227.75
996.61	227.78
996.90	227.78
997.19	227.82
997.48	227.77
997.77	227.81
998.06	227.77
998.34	227.86
998.63	227.76
998.92	227.70
999.21	227.81
999.50	227.68
999.79	227.47
1000.08	227.36
1000.37	227.34
1000.66	227.28
1000.95	227.25
1001.24	227.18
1001.53	227.11
1001.82	227.17
1002.11	227.16
1002.40	227.12
1002.68	227.17
1002.97	227.42
1003.26	227.40
1003.55	227.39
1003.84	227.47
1004.13	227.57
1004.42	227.38
1004.71	227.34
1004.99	227.37
1005.28	227.34
1005.57	227.41
1005.86	227.37
1006.15	227.37
1006.44	227.40
1006.72	227.43
1007.01	227.47
1007.30	227.59
1007.59	227.64
1007.88	227.58
1008.17	227.70
1008.45	227.70
1008.74	227.73
1009.03	227.46
1009.32	227.49
1009.60	227.48
1009.89	227.49
1010.18	227.46
1010.47	227.46
1010.76	227.55
1011.04	227.63
1011.33	227.74
1011.62	227.83
1011.91	227.99
1012.19	228.03
1012.48	228.12
1012.77	228.20
1013.05	228.30
1013.34	228.29
1013.63	228.22
1013.92	228.33
1014.20	228.30
1014.49	228.33
1014.78	228.31
1015.06	228.27
1015.35	228.21
1015.64	228.26
1015.92	228.28
1016.21	228.26
1016.50	228.29
1016.78	228.30
1017.07	228.32
1017.36	228.21
1017.64	228.08
1017.93	228.09
1018.22	228.08
1018.50	228.06
1018.79	228.00
1019.08	227.94
1019.36	228.01
1019.65	228.06
1019.93	228.04
1020.22	228.02
1020.51	228.17
1020.79	228.15
1021.08	227.20
1021.36	228.50
1021.65	227.50
1021.94	229.50
1022.22	230.10
1022.51	227.70
1022.79	228.90
1023.08	228.40
1023.36	231.10
1023.65	227.50
>>>>>End Processed Spectral Data<<<<<
