SpectraSuite Data File
++++++++++++++++++++++++++++++++++++
Date: Fri Feb 01 14:41:02 EST 2013
User: group
Dark Spectrum Present: No
Reference Spectrum Present: No
Number of Sampled Component Spectra: 1
Spectrometers: USB2E7196
Integration Time (usec): 70000 (USB2E7196)
Spectra Averaged: 10 (USB2E7196)
Boxcar Smoothing: 10 (USB2E7196)
Correct for Electrical Dark: No (USB2E7196)
Strobe/Lamp Enabled: No (USB2E7196)
Correct for Detector Non-linearity: No (USB2E7196)
Correct for Stray Light: No (USB2E7196)
Number of Pixels in Processed Spectrum: 2048
>>>>>Begin Processed Spectral Data<<<<<
339.09	0.00
339.48	216.00
339.86	217.70
340.24	220.00
340.63	221.10
341.01	225.10
341.39	222.70
341.78	224.80
342.16	225.80
342.54	224.50
342.93	214.47
343.31	225.27
343.69	225.70
344.07	226.20
344.46	226.58
344.84	226.89
345.22	226.99
345.60	227.23
345.99	227.43
346.37	227.53
346.75	227.61
347.13	227.69
347.52	227.69
347.90	227.69
348.28	227.65
348.66	227.71
349.05	227.77
349.43	227.88
349.81	227.76
350.19	227.82
350.57	227.89
350.96	227.97
351.34	228.02
351.72	228.23
352.10	228.20
352.48	228.28
352.87	228.36
353.25	228.40
353.63	228.45
354.01	228.44
354.39	228.51
354.77	228.73
355.15	228.84
355.54	228.84
355.92	228.93
356.30	229.07
356.68	229.22
357.06	229.29
357.44	229.34
357.82	229.53
358.20	229.59
358.58	229.76
358.97	229.80
359.35	229.96
359.73	230.10
360.11	230.26
360.49	230.30
360.87	230.31
361.25	230.45
361.63	230.53
362.01	230.63
362.39	230.66
362.77	230.69
363.15	230.69
363.53	230.80
363.91	230.77
364.29	230.85
364.67	230.73
365.05	230.74
365.43	230.75
365.81	230.90
366.19	231.03
366.57	230.95
366.95	230.91
367.33	230.86
367.71	230.80
368.09	230.75
368.47	230.76
368.85	230.81
369.23	230.89
369.61	230.90
369.99	230.85
370.37	230.83
370.75	230.87
371.13	230.77
371.51	230.72
371.89	230.76
372.27	230.60
372.65	230.54
373.03	230.56
373.41	230.56
373.78	230.37
374.16	230.13
374.54	230.04
374.92	229.98
375.30	229.91
375.68	229.77
376.06	229.69
376.44	229.56
376.82	229.44
377.19	229.20
377.57	229.10
377.95	229.00
378.33	228.99
378.71	228.71
379.09	228.69
379.47	228.63
379.84	228.51
380.22	228.53
380.60	228.36
380.98	228.20
381.36	227.99
381.73	227.92
382.11	227.92
382.49	227.89
382.87	227.74
383.25	227.62
383.62	227.78
384.00	227.67
384.38	227.68
384.76	227.70
385.13	227.86
385.51	227.74
385.89	227.72
386.27	227.60
386.64	227.68
387.02	227.60
387.40	227.48
387.78	227.47
388.15	227.39
388.53	227.41
388.91	227.39
389.29	227.39
389.66	227.39
390.04	227.37
390.42	227.36
390.79	227.46
391.17	227.41
391.55	227.16
391.92	227.26
392.30	227.31
392.68	227.29
393.05	227.12
393.43	227.15
393.81	227.25
394.18	227.20
394.56	227.20
394.94	227.33
395.31	227.45
395.69	227.59
396.06	227.69
396.44	227.75
396.82	227.82
397.19	228.04
397.57	228.03
397.95	228.09
398.32	228.06
398.70	228.15
399.07	228.39
399.45	228.50
399.82	228.54
400.20	228.50
400.58	228.59
400.95	228.72
401.33	228.82
401.70	229.04
402.08	229.25
402.45	229.41
402.83	229.59
403.20	229.73
403.58	229.75
403.95	229.95
404.33	230.09
404.71	230.15
405.08	230.35
405.46	230.54
405.83	230.70
406.21	230.94
406.58	231.09
406.96	231.29
407.33	231.52
407.70	231.76
408.08	232.19
408.45	232.47
408.83	232.77
409.20	233.02
409.58	233.10
409.95	233.42
410.33	233.67
410.70	233.94
411.08	234.21
411.45	234.65
411.82	234.95
412.20	235.42
412.57	235.99
412.95	236.17
413.32	236.77
413.69	237.20
414.07	237.55
414.44	238.08
414.82	238.50
415.19	239.10
415.56	239.77
415.94	240.31
416.31	240.98
416.68	241.67
417.06	242.50
417.43	243.21
417.81	243.92
418.18	244.75
418.55	245.52
418.93	246.53
419.30	247.39
419.67	248.38
420.04	249.45
420.42	250.53
420.79	251.91
421.16	253.06
421.54	254.43
421.91	255.90
422.28	257.19
422.66	258.61
423.03	260.17
423.40	261.52
423.77	262.96
424.15	264.53
424.52	266.14
424.89	267.95
425.26	269.63
425.64	271.23
426.01	273.01
426.38	274.83
426.75	276.64
427.13	278.56
427.50	280.52
427.87	282.49
428.24	284.45
428.61	286.42
428.99	288.53
429.36	290.75
429.73	292.93
430.10	295.16
430.47	297.54
430.85	299.70
431.22	302.23
431.59	304.97
431.96	307.43
432.33	310.19
432.70	312.68
433.08	315.80
433.45	318.67
433.82	321.62
434.19	324.88
434.56	328.04
434.93	330.94
435.30	333.82
435.68	337.07
436.05	340.12
436.42	343.09
436.79	345.82
437.16	348.81
437.53	351.97
437.90	355.06
438.27	358.07
438.64	361.10
439.01	364.09
439.38	366.47
439.75	368.93
440.13	371.53
440.50	374.14
440.87	376.10
441.24	378.41
441.61	380.79
441.98	382.45
442.35	384.28
442.72	386.43
443.09	388.50
443.46	389.67
443.83	390.46
444.20	391.13
444.57	392.11
444.94	392.43
445.31	392.90
445.68	393.36
446.05	393.36
446.42	393.02
446.79	392.34
447.16	391.80
447.53	391.32
447.90	390.08
448.27	388.86
448.64	387.21
449.01	385.88
449.37	383.73
449.74	381.55
450.11	379.15
450.48	376.31
450.85	373.50
451.22	370.99
451.59	368.76
451.96	366.59
452.33	363.56
452.70	360.91
453.07	357.73
453.43	354.47
453.80	351.43
454.17	348.48
454.54	345.64
454.91	342.62
455.28	339.64
455.65	336.87
456.02	334.26
456.38	331.87
456.75	328.85
457.12	326.22
457.49	323.88
457.86	321.37
458.23	319.35
458.59	316.94
458.96	314.67
459.33	312.53
459.70	310.36
460.07	308.68
460.43	306.85
460.80	305.04
461.17	303.46
461.54	301.75
461.91	300.07
462.27	298.47
462.64	297.00
463.01	295.50
463.38	294.06
463.74	292.36
464.11	290.99
464.48	289.81
464.85	288.49
465.21	287.45
465.58	286.40
465.95	285.00
466.32	283.93
466.68	282.83
467.05	281.82
467.42	280.90
467.78	279.78
468.15	278.60
468.52	277.80
468.88	276.65
469.25	275.67
469.62	274.93
469.98	274.17
470.35	273.40
470.72	272.65
471.08	271.79
471.45	271.02
471.82	270.27
472.18	269.49
472.55	268.95
472.92	268.20
473.28	267.49
473.65	267.06
474.02	266.44
474.38	265.94
474.75	265.30
475.11	264.73
475.48	264.35
475.85	263.94
476.21	263.36
476.58	263.08
476.94	262.77
477.31	262.39
477.67	262.00
478.04	261.64
478.41	261.35
478.77	261.26
479.14	261.02
479.50	260.83
479.87	260.78
480.23	260.78
480.60	260.62
480.96	260.60
481.33	260.49
481.69	260.51
482.06	260.43
482.42	260.61
482.79	260.57
483.15	260.63
483.52	260.83
483.88	260.98
484.25	261.13
484.61	261.36
484.98	261.59
485.34	261.98
485.71	262.40
486.07	262.79
486.44	262.95
486.80	263.36
487.17	263.80
487.53	264.26
487.90	264.63
488.26	265.30
488.62	265.97
488.99	266.60
489.35	267.21
489.72	267.90
490.08	268.63
490.44	269.43
490.81	270.34
491.17	271.23
491.54	272.18
491.90	273.15
492.26	274.16
492.63	275.26
492.99	276.22
493.36	277.43
493.72	278.59
494.08	279.97
494.45	281.51
494.81	283.08
495.17	284.69
495.54	286.33
495.90	287.97
496.26	289.70
496.63	291.63
496.99	293.77
497.35	296.00
497.72	298.24
498.08	300.59
498.44	303.05
498.80	305.72
499.17	308.57
499.53	311.44
499.89	314.58
500.26	317.69
500.62	321.03
500.98	324.52
501.34	328.18
501.71	332.04
502.07	336.11
502.43	340.16
502.79	344.44
503.16	348.91
503.52	353.56
503.88	358.42
504.24	363.35
504.60	368.54
504.97	373.81
505.33	379.32
505.69	385.16
506.05	391.12
506.41	396.99
506.78	403.17
507.14	409.64
507.50	416.30
507.86	423.33
508.22	430.49
508.59	437.68
508.95	445.17
509.31	453.02
509.67	460.92
510.03	469.15
510.39	477.39
510.75	486.05
511.12	494.79
511.48	503.90
511.84	513.12
512.20	522.54
512.56	532.37
512.92	542.27
513.28	552.31
513.64	562.60
514.00	573.40
514.37	584.28
514.73	595.39
515.09	606.40
515.45	617.78
515.81	629.33
516.17	641.20
516.53	653.48
516.89	665.64
517.25	677.92
517.61	690.45
517.97	703.21
518.33	716.00
518.69	729.13
519.05	742.45
519.41	756.03
519.77	769.71
520.13	783.82
520.49	797.84
520.85	811.95
521.21	826.26
521.57	840.98
521.93	855.38
522.29	870.26
522.65	885.24
523.01	899.80
523.37	914.56
523.73	929.71
524.09	944.54
524.45	959.76
524.81	975.06
525.17	991.17
525.53	1007.22
525.89	1023.19
526.25	1039.48
526.61	1055.38
526.97	1071.62
527.33	1088.01
527.68	1104.21
528.04	1120.47
528.40	1137.24
528.76	1154.05
529.12	1170.85
529.48	1188.14
529.84	1204.65
530.20	1221.61
530.56	1239.32
530.91	1257.13
531.27	1274.02
531.63	1291.30
531.99	1308.30
532.35	1325.42
532.71	1341.65
533.07	1358.52
533.42	1375.34
533.78	1392.35
534.14	1409.38
534.50	1425.76
534.86	1442.21
535.21	1458.31
535.57	1475.36
535.93	1491.71
536.29	1507.98
536.65	1524.05
537.00	1539.69
537.36	1556.13
537.72	1571.75
538.08	1586.96
538.44	1602.20
538.79	1618.13
539.15	1633.27
539.51	1649.10
539.87	1664.74
540.22	1680.29
540.58	1695.76
540.94	1710.96
541.29	1725.16
541.65	1739.45
542.01	1754.86
542.37	1769.10
542.72	1783.47
543.08	1797.36
543.44	1811.51
543.79	1824.38
544.15	1837.61
544.51	1851.43
544.87	1864.50
545.22	1877.95
545.58	1891.23
545.94	1903.32
546.29	1915.12
546.65	1927.02
547.01	1938.71
547.36	1950.23
547.72	1961.43
548.07	1972.50
548.43	1983.29
548.79	1993.94
549.14	2004.39
549.50	2014.25
549.86	2024.47
550.21	2033.99
550.57	2043.90
550.92	2053.55
551.28	2063.02
551.64	2072.06
551.99	2080.92
552.35	2089.58
552.70	2098.20
553.06	2106.48
553.41	2115.83
553.77	2124.66
554.13	2133.61
554.48	2142.23
554.84	2150.57
555.19	2158.56
555.55	2166.12
555.90	2173.54
556.26	2181.20
556.61	2188.41
556.97	2194.66
557.32	2201.70
557.68	2208.68
558.03	2215.01
558.39	2221.44
558.74	2228.89
559.10	2235.72
559.45	2242.28
559.81	2249.35
560.16	2254.92
560.52	2260.47
560.87	2266.40
561.23	2271.68
561.58	2277.21
561.94	2281.62
562.29	2285.59
562.64	2289.66
563.00	2293.90
563.35	2298.87
563.71	2303.89
564.06	2308.96
564.42	2313.83
564.77	2318.21
565.12	2322.60
565.48	2326.69
565.83	2330.28
566.19	2333.78
566.54	2336.64
566.89	2339.59
567.25	2341.79
567.60	2345.38
567.96	2348.42
568.31	2350.47
568.66	2352.83
569.02	2354.96
569.37	2356.77
569.72	2359.13
570.08	2360.81
570.43	2362.02
570.78	2362.87
571.14	2363.10
571.49	2363.11
571.84	2364.36
572.20	2364.06
572.55	2364.12
572.90	2363.62
573.26	2363.64
573.61	2363.01
573.96	2362.68
574.31	2360.97
574.67	2359.11
575.02	2357.30
575.37	2355.67
575.72	2353.03
576.08	2351.52
576.43	2349.04
576.78	2347.23
577.13	2345.19
577.49	2343.84
577.84	2342.05
578.19	2339.46
578.54	2337.00
578.90	2334.10
579.25	2330.17
579.60	2327.16
579.95	2323.21
580.30	2319.30
580.66	2314.83
581.01	2310.42
581.36	2305.93
581.71	2302.85
582.06	2299.45
582.42	2295.04
582.77	2290.56
583.12	2286.31
583.47	2281.78
583.82	2278.13
584.17	2273.13
584.53	2268.36
584.88	2263.57
585.23	2258.46
585.58	2253.58
585.93	2248.58
586.28	2244.19
586.63	2239.91
586.98	2235.25
587.34	2230.94
587.69	2226.53
588.04	2221.77
588.39	2217.40
588.74	2211.55
589.09	2204.93
589.44	2198.60
589.79	2192.95
590.14	2188.08
590.49	2183.08
590.84	2177.34
591.19	2171.07
591.54	2164.84
591.89	2157.61
592.25	2150.93
592.60	2143.76
592.95	2136.78
593.30	2129.46
593.65	2122.11
594.00	2114.63
594.35	2108.45
594.70	2101.22
595.05	2094.27
595.40	2087.05
595.75	2079.43
596.10	2073.84
596.45	2068.05
596.80	2062.30
597.15	2056.30
597.50	2049.74
597.85	2042.85
598.19	2036.56
598.54	2029.88
598.89	2023.40
599.24	2018.34
599.59	2011.81
599.94	2006.28
600.29	2000.19
600.64	1994.35
600.99	1987.85
601.34	1981.61
601.69	1973.86
602.04	1967.29
602.39	1960.79
602.74	1954.64
603.08	1948.69
603.43	1941.92
603.78	1935.27
604.13	1928.35
604.48	1921.22
604.83	1913.71
605.18	1907.01
605.53	1899.37
605.87	1891.40
606.22	1884.39
606.57	1876.24
606.92	1868.90
607.27	1861.79
607.62	1854.86
607.96	1847.79
608.31	1840.67
608.66	1833.08
609.01	1825.31
609.36	1817.33
609.70	1808.58
610.05	1799.80
610.40	1791.20
610.75	1782.53
611.10	1774.07
611.44	1764.93
611.79	1756.61
612.14	1748.32
612.49	1738.61
612.83	1729.56
613.18	1721.23
613.53	1712.71
613.88	1703.94
614.22	1695.23
614.57	1685.74
614.92	1676.59
615.27	1667.93
615.61	1659.25
615.96	1650.59
616.31	1643.03
616.65	1635.38
617.00	1627.87
617.35	1620.03
617.70	1611.87
618.04	1603.63
618.39	1595.14
618.74	1587.42
619.08	1578.45
619.43	1570.25
619.78	1562.83
620.12	1554.91
620.47	1547.06
620.82	1538.50
621.16	1530.86
621.51	1523.15
621.85	1515.54
622.20	1507.35
622.55	1499.13
622.89	1491.48
623.24	1483.64
623.59	1475.38
623.93	1467.66
624.28	1459.59
624.62	1451.65
624.97	1444.10
625.32	1436.59
625.66	1429.43
626.01	1421.88
626.35	1414.58
626.70	1406.36
627.04	1398.72
627.39	1391.02
627.73	1383.36
628.08	1376.10
628.43	1368.08
628.77	1360.32
629.12	1351.92
629.46	1344.04
629.81	1335.95
630.15	1327.36
630.50	1319.37
630.84	1311.20
631.19	1302.16
631.53	1293.93
631.88	1285.71
632.22	1276.98
632.57	1269.02
632.91	1260.64
633.26	1252.25
633.60	1243.99
633.95	1236.56
634.29	1228.94
634.64	1221.73
634.98	1213.75
635.32	1206.25
635.67	1199.06
636.01	1191.43
636.36	1184.35
636.70	1177.54
637.05	1170.58
637.39	1164.14
637.73	1157.20
638.08	1150.69
638.42	1144.62
638.77	1138.01
639.11	1131.19
639.45	1124.72
639.80	1117.84
640.14	1110.70
640.49	1103.85
640.83	1097.13
641.17	1090.36
641.52	1083.56
641.86	1076.17
642.20	1069.92
642.55	1063.11
642.89	1056.34
643.23	1049.58
643.58	1043.35
643.92	1036.22
644.26	1029.36
644.61	1022.76
644.95	1016.10
645.29	1008.76
645.64	1001.53
645.98	994.71
646.32	988.14
646.66	981.30
647.01	974.48
647.35	968.56
647.69	962.35
648.04	956.23
648.38	949.45
648.72	942.80
649.06	936.15
649.41	929.45
649.75	922.58
650.09	915.78
650.43	909.31
650.78	902.28
651.12	895.92
651.46	889.56
651.80	882.95
652.14	876.67
652.49	870.44
652.83	864.23
653.17	858.16
653.51	851.96
653.85	845.73
654.20	839.52
654.54	832.84
654.88	826.54
655.22	820.26
655.56	814.00
655.90	808.24
656.25	802.55
656.59	796.51
656.93	791.10
657.27	785.35
657.61	779.29
657.95	774.02
658.29	768.58
658.64	763.03
658.98	757.30
659.32	751.20
659.66	745.87
660.00	740.42
660.34	735.04
660.68	729.59
661.02	724.37
661.36	719.40
661.70	714.34
662.05	709.60
662.39	705.00
662.73	700.28
663.07	695.35
663.41	690.73
663.75	686.08
664.09	681.41
664.43	676.83
664.77	672.56
665.11	667.91
665.45	663.28
665.79	658.81
666.13	654.26
666.47	650.00
666.81	645.51
667.15	640.91
667.49	636.21
667.83	632.22
668.17	628.12
668.51	623.82
668.85	619.58
669.19	615.44
669.53	611.01
669.87	606.82
670.21	602.86
670.55	598.85
670.89	595.20
671.23	591.31
671.57	587.75
671.91	584.12
672.25	580.24
672.58	576.61
672.92	572.91
673.26	569.58
673.60	566.12
673.94	562.60
674.28	559.63
674.62	556.56
674.96	553.14
675.30	549.81
675.64	546.43
675.97	543.20
676.31	539.86
676.65	536.65
676.99	533.70
677.33	530.44
677.67	527.27
678.01	523.76
678.34	520.59
678.68	517.38
679.02	514.08
679.36	511.09
679.70	508.21
680.04	505.08
680.37	502.00
680.71	499.19
681.05	496.61
681.39	493.55
681.73	490.68
682.06	487.86
682.40	485.30
682.74	482.78
683.08	480.14
683.42	477.42
683.75	474.74
684.09	471.93
684.43	469.28
684.77	466.59
685.10	464.07
685.44	461.40
685.78	458.93
686.12	456.50
686.45	453.98
686.79	451.50
687.13	449.23
687.46	446.73
687.80	444.20
688.14	441.41
688.48	439.05
688.81	436.66
689.15	434.34
689.49	431.78
689.82	429.23
690.16	426.87
690.50	424.54
690.83	422.21
691.17	419.95
691.51	417.64
691.84	415.65
692.18	413.45
692.52	411.27
692.85	409.09
693.19	406.96
693.52	404.86
693.86	402.58
694.20	400.49
694.53	398.42
694.87	396.34
695.21	394.26
695.54	392.24
695.88	390.16
696.21	388.19
696.55	386.27
696.88	384.57
697.22	382.74
697.56	380.90
697.89	379.12
698.23	377.29
698.56	375.49
698.90	373.57
699.23	371.68
699.57	369.92
699.90	368.19
700.24	366.41
700.58	364.69
700.91	363.12
701.25	361.41
701.58	359.90
701.92	358.42
702.25	356.94
702.59	355.44
702.92	353.89
703.26	352.37
703.59	350.78
703.93	349.51
704.26	348.00
704.60	346.60
704.93	345.22
705.26	343.78
705.60	342.52
705.93	341.22
706.27	340.07
706.60	338.83
706.94	337.40
707.27	336.14
707.61	334.86
707.94	333.57
708.27	332.35
708.61	330.99
708.94	329.55
709.28	328.43
709.61	327.20
709.94	326.25
710.28	325.08
710.61	323.99
710.95	322.52
711.28	321.50
711.61	320.36
711.95	319.19
712.28	318.16
712.61	316.88
712.95	315.77
713.28	314.70
713.61	313.70
713.95	312.70
714.28	311.61
714.61	310.60
714.95	309.53
715.28	308.36
715.61	307.41
715.95	306.65
716.28	305.59
716.61	304.70
716.95	303.68
717.28	302.85
717.61	302.02
717.94	301.15
718.28	300.22
718.61	299.34
718.94	298.63
719.27	297.87
719.61	297.21
719.94	296.42
720.27	295.52
720.60	294.69
720.94	293.91
721.27	293.24
721.60	292.63
721.93	291.91
722.27	291.42
722.60	290.72
722.93	290.09
723.26	289.52
723.59	288.85
723.93	288.22
724.26	287.41
724.59	286.64
724.92	285.99
725.25	285.27
725.59	284.68
725.92	284.05
726.25	283.33
726.58	282.73
726.91	282.03
727.24	281.53
727.57	280.99
727.91	280.41
728.24	279.83
728.57	279.16
728.90	278.59
729.23	277.96
729.56	277.47
729.89	276.79
730.22	276.30
730.55	275.67
730.89	275.06
731.22	274.63
731.55	274.16
731.88	273.64
732.21	273.16
732.54	272.62
732.87	272.00
733.20	271.53
733.53	270.94
733.86	270.54
734.19	270.02
734.52	269.52
734.85	269.08
735.18	268.44
735.51	268.01
735.84	267.59
736.17	267.13
736.50	266.46
736.83	266.30
737.16	265.77
737.49	265.30
737.82	264.90
738.15	264.45
738.48	263.92
738.81	263.58
739.14	263.14
739.47	262.68
739.80	262.36
740.13	261.98
740.46	261.59
740.79	261.15
741.12	260.80
741.45	260.40
741.78	260.00
742.11	259.87
742.44	259.52
742.77	259.20
743.10	258.78
743.43	258.60
743.75	258.12
744.08	258.07
744.41	257.87
744.74	257.54
745.07	257.26
745.40	257.09
745.73	256.81
746.06	256.40
746.39	256.17
746.71	255.79
747.04	255.41
747.37	255.18
747.70	254.88
748.03	254.46
748.36	254.29
748.68	254.04
749.01	253.65
749.34	253.31
749.67	253.17
750.00	252.92
750.33	252.86
750.65	252.56
750.98	252.04
751.31	251.78
751.64	251.53
751.97	251.37
752.29	250.99
752.62	250.55
752.95	250.46
753.28	250.05
753.60	249.80
753.93	249.70
754.26	249.52
754.59	249.37
754.91	249.13
755.24	248.83
755.57	248.54
755.90	248.43
756.22	248.20
756.55	247.88
756.88	247.66
757.20	247.26
757.53	246.94
757.86	246.80
758.19	246.56
758.51	246.31
758.84	246.02
759.17	245.89
759.49	245.85
759.82	245.71
760.15	245.70
760.47	245.59
760.80	245.30
761.13	245.07
761.45	244.84
761.78	244.75
762.11	244.58
762.43	244.41
762.76	244.06
763.08	243.88
763.41	243.66
763.74	243.61
764.06	243.40
764.39	243.20
764.71	242.95
765.04	242.74
765.37	242.58
765.69	242.39
766.02	242.24
766.34	242.00
766.67	241.75
767.00	241.56
767.32	241.37
767.65	241.25
767.97	241.09
768.30	240.89
768.62	240.80
768.95	240.59
769.27	240.40
769.60	240.24
769.92	240.10
770.25	239.96
770.57	239.74
770.90	239.60
771.22	239.46
771.55	239.26
771.87	239.04
772.20	238.87
772.52	238.89
772.85	238.96
773.17	238.88
773.50	238.79
773.82	238.60
774.15	238.39
774.47	238.18
774.80	237.99
775.12	237.87
775.45	237.62
775.77	237.48
776.09	237.42
776.42	237.44
776.74	237.41
777.07	237.27
777.39	237.16
777.72	236.99
778.04	237.01
778.36	236.98
778.69	237.02
779.01	236.94
779.33	236.62
779.66	236.36
779.98	236.23
780.31	236.16
780.63	236.16
780.95	236.16
781.28	236.17
781.60	236.07
781.92	236.05
782.25	236.03
782.57	236.02
782.89	235.92
783.22	235.79
783.54	235.55
783.86	235.52
784.19	235.48
784.51	235.50
784.83	235.40
785.16	235.36
785.48	235.31
785.80	235.26
786.12	235.21
786.45	235.09
786.77	235.01
787.09	234.88
787.42	234.69
787.74	234.71
788.06	234.57
788.38	234.62
788.71	234.50
789.03	234.41
789.35	234.39
789.67	234.47
789.99	234.43
790.32	234.57
790.64	234.53
790.96	234.61
791.28	234.57
791.61	234.55
791.93	234.54
792.25	234.45
792.57	234.51
792.89	234.54
793.21	234.57
793.54	234.55
793.86	234.58
794.18	234.65
794.50	234.52
794.82	234.58
795.14	234.60
795.47	234.61
795.79	234.65
796.11	234.59
796.43	234.40
796.75	234.38
797.07	234.23
797.39	234.17
797.71	234.08
798.04	234.02
798.36	234.00
798.68	234.02
799.00	233.95
799.32	233.85
799.64	233.85
799.96	233.80
800.28	233.85
800.60	233.68
800.92	233.64
801.24	233.63
801.56	233.61
801.89	233.46
802.21	233.36
802.53	233.28
802.85	233.26
803.17	233.28
803.49	233.16
803.81	233.11
804.13	233.11
804.45	232.94
804.77	232.92
805.09	232.83
805.41	232.67
805.73	232.57
806.05	232.51
806.37	232.36
806.69	232.32
807.01	232.16
807.33	232.13
807.65	232.02
807.97	231.97
808.28	231.90
808.60	231.86
808.92	231.85
809.24	231.87
809.56	231.79
809.88	231.69
810.20	231.72
810.52	231.79
810.84	231.69
811.16	231.65
811.48	231.53
811.80	231.60
812.12	231.60
812.43	231.58
812.75	231.52
813.07	231.46
813.39	231.42
813.71	231.38
814.03	231.39
814.35	231.26
814.67	231.19
814.98	231.06
815.30	231.06
815.62	230.92
815.94	230.82
816.26	230.86
816.58	230.78
816.89	230.64
817.21	230.51
817.53	230.42
817.85	230.41
818.17	230.38
818.48	230.23
818.80	230.19
819.12	230.13
819.44	230.06
819.76	230.04
820.07	230.05
820.39	230.04
820.71	230.03
821.03	230.09
821.34	230.05
821.66	230.14
821.98	230.14
822.30	230.16
822.61	230.31
822.93	230.26
823.25	230.23
823.57	230.27
823.88	230.35
824.20	230.40
824.52	230.41
824.83	230.43
825.15	230.42
825.47	230.38
825.79	230.45
826.10	230.47
826.42	230.49
826.74	230.49
827.05	230.42
827.37	230.47
827.69	230.51
828.00	230.64
828.32	230.69
828.64	230.63
828.95	230.77
829.27	230.71
829.58	230.69
829.90	230.81
830.22	230.87
830.53	230.81
830.85	230.78
831.17	230.70
831.48	230.60
831.80	230.60
832.11	230.59
832.43	230.57
832.75	230.59
833.06	230.74
833.38	230.67
833.69	230.73
834.01	230.71
834.32	230.71
834.64	230.69
834.96	230.65
835.27	230.74
835.59	230.71
835.90	230.59
836.22	230.61
836.53	230.59
836.85	230.58
837.16	230.70
837.48	230.74
837.79	230.81
838.11	230.87
838.42	230.82
838.74	230.90
839.05	230.88
839.37	230.83
839.68	230.70
840.00	230.67
840.31	230.70
840.63	230.67
840.94	230.71
841.26	230.58
841.57	230.55
841.88	230.54
842.20	230.40
842.51	230.32
842.83	230.32
843.14	230.39
843.46	230.32
843.77	230.27
844.08	230.23
844.40	230.15
844.71	230.15
845.03	230.10
845.34	230.00
845.65	229.99
845.97	229.96
846.28	229.92
846.60	229.92
846.91	229.83
847.22	229.76
847.54	229.73
847.85	229.79
848.16	229.78
848.48	229.65
848.79	229.78
849.10	229.80
849.42	229.73
849.73	229.60
850.04	229.68
850.36	229.50
850.67	229.45
850.98	229.47
851.30	229.57
851.61	229.53
851.92	229.60
852.23	229.64
852.55	229.51
852.86	229.50
853.17	229.51
853.49	229.54
853.80	229.57
854.11	229.52
854.42	229.49
854.74	229.35
855.05	229.38
855.36	229.14
855.67	229.12
855.99	229.03
856.30	229.20
856.61	229.10
856.92	229.19
857.23	229.14
857.55	229.19
857.86	229.06
858.17	229.15
858.48	229.05
858.79	229.01
859.11	229.12
859.42	229.10
859.73	229.00
860.04	228.92
860.35	228.84
860.66	228.77
860.98	228.71
861.29	228.76
861.60	228.65
861.91	228.74
862.22	228.74
862.53	228.79
862.84	228.62
863.16	228.72
863.47	228.62
863.78	228.65
864.09	228.58
864.40	228.67
864.71	228.63
865.02	228.70
865.33	228.68
865.64	228.73
865.95	228.72
866.27	228.93
866.58	229.04
866.89	229.13
867.20	229.18
867.51	229.20
867.82	229.24
868.13	229.38
868.44	229.39
868.75	229.47
869.06	229.50
869.37	229.50
869.68	229.44
869.99	229.47
870.30	229.53
870.61	229.61
870.92	229.53
871.23	229.62
871.54	229.66
871.85	229.76
872.16	229.71
872.47	229.82
872.78	229.68
873.09	229.65
873.40	229.63
873.71	229.61
874.02	229.69
874.33	229.66
874.64	229.57
874.95	229.62
875.26	229.53
875.56	229.58
875.87	229.51
876.18	229.60
876.49	229.73
876.80	229.61
877.11	229.58
877.42	229.60
877.73	229.56
878.04	229.49
878.35	229.49
878.66	229.40
878.96	229.23
879.27	229.16
879.58	229.18
879.89	229.20
880.20	229.26
880.51	229.17
880.82	229.16
881.12	229.20
881.43	229.11
881.74	229.13
882.05	229.01
882.36	229.13
882.67	228.91
882.97	228.71
883.28	228.77
883.59	228.68
883.90	228.71
884.21	228.62
884.51	228.62
884.82	228.58
885.13	228.63
885.44	228.60
885.74	228.69
886.05	228.52
886.36	228.47
886.67	228.34
886.98	228.40
887.28	228.39
887.59	228.40
887.90	228.43
888.20	228.40
888.51	228.34
888.82	228.35
889.13	228.34
889.43	228.54
889.74	228.52
890.05	228.55
890.35	228.47
890.66	228.53
890.97	228.42
891.28	228.30
891.58	228.23
891.89	228.32
892.20	228.26
892.50	228.27
892.81	228.25
893.12	228.36
893.42	228.30
893.73	228.22
894.04	228.22
894.34	228.18
894.65	228.12
894.95	228.14
895.26	228.05
895.57	228.11
895.87	227.91
896.18	227.95
896.48	227.94
896.79	227.87
897.10	227.78
897.40	227.94
897.71	227.94
898.01	228.02
898.32	227.99
898.63	227.98
898.93	228.03
899.24	228.10
899.54	227.98
899.85	227.89
900.15	227.95
900.46	227.90
900.76	227.99
901.07	228.04
901.38	228.08
901.68	228.10
901.99	228.11
902.29	228.13
902.60	228.08
902.90	228.15
903.21	228.30
903.51	228.47
903.82	228.39
904.12	228.50
904.43	228.59
904.73	228.56
905.03	228.52
905.34	228.77
905.64	228.69
905.95	228.71
906.25	228.84
906.56	228.82
906.86	228.86
907.17	228.95
907.47	228.92
907.77	228.93
908.08	228.90
908.38	229.02
908.69	229.18
908.99	229.31
909.30	229.30
909.60	229.24
909.90	229.31
910.21	229.31
910.51	229.23
910.81	229.20
911.12	229.25
911.42	229.31
911.73	229.13
912.03	229.18
912.33	229.28
912.64	229.31
912.94	229.37
913.24	229.33
913.55	229.30
913.85	229.30
914.15	229.41
914.46	229.49
914.76	229.41
915.06	229.30
915.37	229.24
915.67	229.20
915.97	229.22
916.27	229.10
916.58	229.10
916.88	229.00
917.18	228.96
917.49	229.02
917.79	229.06
918.09	229.07
918.39	229.19
918.70	229.17
919.00	229.14
919.30	229.23
919.60	229.23
919.91	229.10
920.21	229.11
920.51	228.98
920.81	228.89
921.12	228.86
921.42	228.88
921.72	228.90
922.02	228.89
922.32	228.89
922.63	228.90
922.93	228.98
923.23	229.06
923.53	229.05
923.83	229.07
924.13	229.08
924.44	229.05
924.74	228.90
925.04	228.90
925.34	228.71
925.64	228.62
925.94	228.55
926.24	228.70
926.55	228.62
926.85	228.57
927.15	228.54
927.45	228.50
927.75	228.41
928.05	228.38
928.35	228.35
928.65	228.39
928.95	228.25
929.26	228.08
929.56	228.10
929.86	228.15
930.16	227.96
930.46	227.89
930.76	227.82
931.06	227.81
931.36	227.76
931.66	227.84
931.96	227.82
932.26	227.87
932.56	227.78
932.86	227.87
933.16	227.92
933.46	227.91
933.76	227.94
934.06	228.06
934.36	227.97
934.66	227.95
934.96	227.86
935.26	227.94
935.56	228.06
935.86	228.05
936.16	227.94
936.46	228.00
936.76	228.02
937.06	228.09
937.36	228.01
937.66	228.01
937.96	228.06
938.26	228.03
938.56	228.04
938.86	227.91
939.16	227.98
939.46	228.05
939.76	228.08
940.06	228.05
940.35	227.98
940.65	228.07
940.95	228.02
941.25	228.06
941.55	228.01
941.85	227.98
942.15	228.05
942.45	228.09
942.75	228.10
943.04	228.11
943.34	228.15
943.64	228.30
943.94	228.30
944.24	228.20
944.54	228.20
944.84	228.26
945.13	228.32
945.43	228.20
945.73	228.15
946.03	228.13
946.33	228.14
946.62	228.12
946.92	228.09
947.22	228.23
947.52	228.22
947.82	228.37
948.11	228.38
948.41	228.31
948.71	228.31
949.01	228.34
949.31	228.31
949.60	228.24
949.90	228.26
950.20	228.25
950.50	228.34
950.79	228.30
951.09	228.20
951.39	228.15
951.69	228.29
951.98	228.40
952.28	228.41
952.58	228.49
952.87	228.44
953.17	228.55
953.47	228.49
953.76	228.42
954.06	228.22
954.36	228.19
954.66	228.16
954.95	228.23
955.25	228.21
955.55	228.26
955.84	228.26
956.14	228.19
956.44	228.21
956.73	228.17
957.03	228.23
957.32	228.36
957.62	228.39
957.92	228.38
958.21	228.40
958.51	228.56
958.81	228.51
959.10	228.60
959.40	228.62
959.69	228.61
959.99	228.68
960.29	228.80
960.58	228.86
960.88	228.91
961.17	228.80
961.47	228.84
961.76	228.82
962.06	228.86
962.36	228.88
962.65	228.76
962.95	228.88
963.24	228.84
963.54	228.72
963.83	228.73
964.13	228.62
964.42	228.40
964.72	228.33
965.01	228.33
965.31	228.34
965.60	228.17
965.90	228.33
966.19	228.27
966.49	228.22
966.78	228.21
967.08	228.23
967.37	228.33
967.67	228.32
967.96	228.25
968.26	228.30
968.55	228.27
968.85	228.28
969.14	228.21
969.43	228.22
969.73	228.24
970.02	228.27
970.32	228.29
970.61	228.36
970.91	228.15
971.20	228.09
971.49	227.96
971.79	228.05
972.08	227.85
972.38	227.90
972.67	227.91
972.96	227.81
973.26	227.77
973.55	227.84
973.85	227.79
974.14	227.88
974.43	227.86
974.73	227.83
975.02	227.92
975.31	227.93
975.61	227.93
975.90	227.91
976.19	227.85
976.49	227.92
976.78	227.88
977.07	227.97
977.37	227.99
977.66	228.02
977.95	227.96
978.24	228.03
978.54	228.00
978.83	227.97
979.12	228.05
979.42	228.01
979.71	227.95
980.00	227.96
980.29	227.99
980.59	227.87
980.88	227.94
981.17	227.84
981.46	227.79
981.76	227.79
982.05	227.92
982.34	227.91
982.63	227.87
982.93	227.97
983.22	228.11
983.51	228.08
983.80	228.12
984.09	228.13
984.39	228.14
984.68	228.20
984.97	228.23
985.26	228.19
985.55	228.20
985.85	228.08
986.14	228.10
986.43	228.13
986.72	228.20
987.01	228.16
987.30	228.24
987.59	228.28
987.89	228.30
988.18	228.20
988.47	228.22
988.76	228.25
989.05	228.20
989.34	228.14
989.63	228.31
989.92	228.33
990.22	228.33
990.51	228.34
990.80	228.18
991.09	228.20
991.38	228.27
991.67	228.30
991.96	228.37
992.25	228.35
992.54	228.17
992.83	228.12
993.12	228.05
993.41	228.08
993.70	228.12
993.99	228.18
994.28	228.11
994.58	228.18
994.87	228.04
995.16	228.05
995.45	228.01
995.74	227.96
996.03	227.97
996.32	228.07
996.61	228.05
996.90	228.23
997.19	228.22
997.48	228.19
997.77	228.10
998.06	228.02
998.34	228.05
998.63	228.16
998.92	228.22
999.21	228.28
999.50	228.30
999.79	228.16
1000.08	228.10
1000.37	228.08
1000.66	228.05
1000.95	228.20
1001.24	228.14
1001.53	228.13
1001.82	227.96
1002.11	227.96
1002.40	227.87
1002.68	227.96
1002.97	227.99
1003.26	227.97
1003.55	227.90
1003.84	228.00
1004.13	228.15
1004.42	228.08
1004.71	228.10
1004.99	228.11
1005.28	228.14
1005.57	228.11
1005.86	228.25
1006.15	228.20
1006.44	228.23
1006.72	228.20
1007.01	228.12
1007.30	228.16
1007.59	228.13
1007.88	228.21
1008.17	228.21
1008.45	228.28
1008.74	228.09
1009.03	228.07
1009.32	228.05
1009.60	228.09
1009.89	228.05
1010.18	227.99
1010.47	228.01
1010.76	227.99
1011.04	227.94
1011.33	228.01
1011.62	228.00
1011.91	227.94
1012.19	227.88
1012.48	227.88
1012.77	227.84
1013.05	228.06
1013.34	227.99
1013.63	227.90
1013.92	227.99
1014.20	227.98
1014.49	227.88
1014.78	227.94
1015.06	227.93
1015.35	228.01
1015.64	228.05
1015.92	228.08
1016.21	228.10
1016.50	228.08
1016.78	228.16
1017.07	228.19
1017.36	228.15
1017.64	228.23
1017.93	228.25
1018.22	228.46
1018.50	228.55
1018.79	228.64
1019.08	228.43
1019.36	228.60
1019.65	228.79
1019.93	228.77
1020.22	228.74
1020.51	228.95
1020.79	228.96
1021.08	229.50
1021.36	229.10
1021.65	228.50
1021.94	227.50
1022.22	230.00
1022.51	229.90
1022.79	228.70
1023.08	227.70
1023.36	231.80
1023.65	227.70
>>>>>End Processed Spectral Data<<<<<
