SpectraSuite Data File
++++++++++++++++++++++++++++++++++++
Date: Fri Feb 01 14:39:11 EST 2013
User: group
Dark Spectrum Present: No
Reference Spectrum Present: No
Number of Sampled Component Spectra: 1
Spectrometers: USB2E7196
Integration Time (usec): 70000 (USB2E7196)
Spectra Averaged: 10 (USB2E7196)
Boxcar Smoothing: 10 (USB2E7196)
Correct for Electrical Dark: No (USB2E7196)
Strobe/Lamp Enabled: No (USB2E7196)
Correct for Detector Non-linearity: No (USB2E7196)
Correct for Stray Light: No (USB2E7196)
Number of Pixels in Processed Spectrum: 2048
>>>>>Begin Processed Spectral Data<<<<<
339.09	0.00
339.48	215.90
339.86	217.80
340.24	220.20
340.63	221.10
341.01	224.30
341.39	221.40
341.78	225.30
342.16	226.30
342.54	224.90
342.93	214.53
343.31	225.36
343.69	225.95
344.07	226.39
344.46	226.75
344.84	227.07
345.22	227.16
345.60	227.48
345.99	227.60
346.37	227.67
346.75	227.81
347.13	227.88
347.52	227.90
347.90	227.99
348.28	228.03
348.66	228.07
349.05	228.10
349.43	228.10
349.81	228.14
350.19	228.19
350.57	228.22
350.96	228.31
351.34	228.48
351.72	228.50
352.10	228.54
352.48	228.55
352.87	228.64
353.25	228.83
353.63	228.90
354.01	229.05
354.39	229.17
354.77	229.32
355.15	229.38
355.54	229.42
355.92	229.36
356.30	229.55
356.68	229.70
357.06	229.73
357.44	229.88
357.82	229.92
358.20	230.00
358.58	230.03
358.97	230.16
359.35	230.16
359.73	230.24
360.11	230.33
360.49	230.45
360.87	230.44
361.25	230.45
361.63	230.50
362.01	230.54
362.39	230.54
362.77	230.45
363.15	230.46
363.53	230.45
363.91	230.65
364.29	230.55
364.67	230.40
365.05	230.43
365.43	230.39
365.81	230.37
366.19	230.32
366.57	230.32
366.95	230.20
367.33	230.19
367.71	230.18
368.09	230.22
368.47	230.17
368.85	230.19
369.23	230.16
369.61	230.04
369.99	230.01
370.37	229.98
370.75	230.00
371.13	229.84
371.51	229.79
371.89	229.70
372.27	229.64
372.65	229.52
373.03	229.41
373.41	229.22
373.78	229.14
374.16	228.92
374.54	228.80
374.92	228.79
375.30	228.67
375.68	228.58
376.06	228.49
376.44	228.45
376.82	228.31
377.19	228.18
377.57	228.16
377.95	227.97
378.33	227.86
378.71	227.67
379.09	227.72
379.47	227.72
379.84	227.56
380.22	227.38
380.60	227.25
380.98	227.12
381.36	227.10
381.73	226.93
382.11	227.03
382.49	227.03
382.87	227.04
383.25	226.89
383.62	227.07
384.00	226.93
384.38	226.87
384.76	226.90
385.13	226.96
385.51	226.85
385.89	226.79
386.27	226.69
386.64	226.72
387.02	226.61
387.40	226.50
387.78	226.49
388.15	226.51
388.53	226.57
388.91	226.50
389.29	226.38
389.66	226.49
390.04	226.34
390.42	226.30
390.79	226.12
391.17	226.08
391.55	225.82
391.92	225.76
392.30	225.76
392.68	225.75
393.05	225.76
393.43	225.79
393.81	225.90
394.18	225.88
394.56	225.92
394.94	225.97
395.31	226.00
395.69	226.07
396.06	226.10
396.44	226.20
396.82	226.38
397.19	226.58
397.57	226.63
397.95	226.82
398.32	226.79
398.70	226.95
399.07	227.14
399.45	227.19
399.82	227.32
400.20	227.37
400.58	227.38
400.95	227.45
401.33	227.55
401.70	227.70
402.08	227.92
402.45	228.00
402.83	228.23
403.20	228.40
403.58	228.50
403.95	228.72
404.33	228.82
404.71	228.98
405.08	229.27
405.46	229.40
405.83	229.57
406.21	229.84
406.58	229.98
406.96	230.17
407.33	230.37
407.70	230.69
408.08	230.96
408.45	231.30
408.83	231.43
409.20	231.69
409.58	231.83
409.95	232.07
410.33	232.40
410.70	232.52
411.08	232.81
411.45	233.16
411.82	233.54
412.20	233.86
412.57	234.27
412.95	234.44
413.32	234.85
413.69	235.20
414.07	235.63
414.44	236.14
414.82	236.63
415.19	237.20
415.56	237.72
415.94	238.25
416.31	238.85
416.68	239.56
417.06	240.43
417.43	241.18
417.81	242.07
418.18	242.80
418.55	243.67
418.93	244.55
419.30	245.57
419.67	246.46
420.04	247.52
420.42	248.63
420.79	250.03
421.16	251.35
421.54	252.73
421.91	254.10
422.28	255.50
422.66	256.90
423.03	258.40
423.40	259.75
423.77	261.43
424.15	263.02
424.52	264.69
424.89	266.42
425.26	268.09
425.64	269.55
426.01	271.43
426.38	273.44
426.75	275.39
427.13	277.22
427.50	279.29
427.87	281.40
428.24	283.48
428.61	285.35
428.99	287.56
429.36	290.01
429.73	292.38
430.10	294.73
430.47	297.19
430.85	299.65
431.22	302.32
431.59	305.09
431.96	307.75
432.33	310.53
432.70	313.27
433.08	316.66
433.45	319.83
433.82	322.95
434.19	326.40
434.56	329.77
434.93	333.04
435.30	336.10
435.68	339.62
436.05	343.08
436.42	346.45
436.79	349.55
437.16	352.87
437.53	356.36
437.90	359.74
438.27	363.02
438.64	366.36
439.01	369.56
439.38	372.30
439.75	374.94
440.13	378.35
440.50	381.40
440.87	383.79
441.24	386.36
441.61	389.15
441.98	391.03
442.35	393.48
442.72	395.98
443.09	398.65
443.46	400.13
443.83	400.98
444.20	401.88
444.57	403.14
444.94	403.70
445.31	404.19
445.68	404.97
446.05	405.43
446.42	405.31
446.79	405.31
447.16	405.04
447.53	404.95
447.90	403.67
448.27	402.50
448.64	400.79
449.01	399.73
449.37	397.68
449.74	395.66
450.11	393.23
450.48	390.36
450.85	387.31
451.22	384.93
451.59	382.73
451.96	380.61
452.33	377.67
452.70	374.86
453.07	371.68
453.43	368.17
453.80	365.01
454.17	361.84
454.54	358.81
454.91	355.61
455.28	352.54
455.65	349.61
456.02	346.84
456.38	344.36
456.75	341.03
457.12	338.20
457.49	335.60
457.86	332.97
458.23	330.91
458.59	328.56
458.96	325.96
459.33	323.74
459.70	321.49
460.07	319.60
460.43	317.60
460.80	315.71
461.17	314.15
461.54	312.19
461.91	310.52
462.27	308.61
462.64	307.27
463.01	305.52
463.38	303.90
463.74	302.08
464.11	300.58
464.48	299.38
464.85	298.02
465.21	296.98
465.58	295.79
465.95	294.21
466.32	293.09
466.68	292.00
467.05	290.87
467.42	289.68
467.78	288.45
468.15	287.25
468.52	286.37
468.88	285.17
469.25	284.15
469.62	283.42
469.98	282.56
470.35	281.51
470.72	280.81
471.08	279.94
471.45	279.12
471.82	278.45
472.18	277.59
472.55	276.96
472.92	276.10
473.28	275.32
473.65	274.69
474.02	274.00
474.38	273.35
474.75	272.85
475.11	272.18
475.48	271.72
475.85	271.14
476.21	270.70
476.58	270.20
476.94	270.00
477.31	269.48
477.67	269.11
478.04	268.74
478.41	268.36
478.77	268.14
479.14	267.79
479.50	267.51
479.87	267.30
480.23	267.14
480.60	266.92
480.96	266.64
481.33	266.58
481.69	266.40
482.06	266.25
482.42	265.97
482.79	265.94
483.15	265.90
483.52	266.03
483.88	265.81
484.25	265.76
484.61	265.59
484.98	265.48
485.34	265.46
485.71	265.48
486.07	265.51
486.44	265.46
486.80	265.52
487.17	265.61
487.53	265.68
487.90	265.63
488.26	265.80
488.62	265.97
488.99	265.99
489.35	266.11
489.72	266.29
490.08	266.44
490.44	266.62
490.81	266.66
491.17	266.81
491.54	267.03
491.90	267.24
492.26	267.39
492.63	267.62
492.99	267.74
493.36	267.97
493.72	268.15
494.08	268.34
494.45	268.64
494.81	268.89
495.17	269.22
495.54	269.68
495.90	269.87
496.26	270.25
496.63	270.52
496.99	270.87
497.35	271.29
497.72	271.72
498.08	272.04
498.44	272.42
498.80	272.80
499.17	273.22
499.53	273.67
499.89	274.21
500.26	274.67
500.62	275.08
500.98	275.57
501.34	276.10
501.71	276.65
502.07	277.23
502.43	277.64
502.79	278.21
503.16	278.71
503.52	279.37
503.88	279.86
504.24	280.62
504.60	281.37
504.97	282.10
505.33	282.78
505.69	283.71
506.05	284.72
506.41	285.58
506.78	286.42
507.14	287.37
507.50	288.44
507.86	289.48
508.22	290.71
508.59	291.77
508.95	293.03
509.31	294.34
509.67	295.53
510.03	296.86
510.39	298.19
510.75	299.62
511.12	301.12
511.48	302.75
511.84	304.28
512.20	305.78
512.56	307.32
512.92	309.14
513.28	310.91
513.64	312.64
514.00	314.56
514.37	316.69
514.73	318.80
515.09	320.78
515.45	323.10
515.81	325.33
516.17	327.80
516.53	330.30
516.89	332.76
517.25	335.50
517.61	338.53
517.97	341.32
518.33	344.16
518.69	347.20
519.05	350.37
519.41	353.72
519.77	357.17
520.13	360.65
520.49	364.25
520.85	367.82
521.21	371.56
521.57	375.36
521.93	379.01
522.29	382.93
522.65	386.86
523.01	390.80
523.37	395.02
523.73	399.17
524.09	403.50
524.45	407.85
524.81	412.30
525.17	416.72
525.53	421.42
525.89	426.31
526.25	431.21
526.61	436.05
526.97	441.04
527.33	446.22
527.68	451.69
528.04	457.03
528.40	462.40
528.76	467.90
529.12	473.58
529.48	479.50
529.84	485.22
530.20	491.31
530.56	497.36
530.91	503.54
531.27	509.79
531.63	515.76
531.99	522.25
532.35	528.65
532.71	534.90
533.07	541.52
533.42	548.15
533.78	554.68
534.14	561.36
534.50	567.90
534.86	574.48
535.21	580.99
535.57	587.90
535.93	594.86
536.29	601.67
536.65	608.62
537.00	615.47
537.36	622.69
537.72	629.47
538.08	636.35
538.44	643.40
538.79	650.46
539.15	657.70
539.51	664.72
539.87	671.96
540.22	679.41
540.58	686.88
540.94	694.05
541.29	701.40
541.65	708.30
542.01	715.96
542.37	723.33
542.72	730.70
543.08	737.76
543.44	745.10
543.79	752.11
544.15	759.32
544.51	766.75
544.87	774.08
545.22	781.42
545.58	788.89
545.94	795.75
546.29	802.84
546.65	810.00
547.01	816.99
547.36	823.87
547.72	830.63
548.07	837.19
548.43	844.10
548.79	850.62
549.14	857.44
549.50	863.59
549.86	869.96
550.21	876.23
550.57	882.78
550.92	889.16
551.28	895.61
551.64	901.89
551.99	908.38
552.35	914.52
552.70	920.94
553.06	927.13
553.41	933.63
553.77	940.05
554.13	946.26
554.48	952.45
554.84	958.38
555.19	964.46
555.55	970.72
555.90	976.22
556.26	982.33
556.61	988.36
556.97	994.15
557.32	1000.07
557.68	1005.91
558.03	1011.37
558.39	1016.70
558.74	1022.70
559.10	1028.36
559.45	1033.70
559.81	1039.12
560.16	1044.18
560.52	1049.41
560.87	1054.70
561.23	1059.24
561.58	1064.10
561.94	1068.90
562.29	1073.69
562.64	1078.25
563.00	1082.46
563.35	1087.62
563.71	1092.44
564.06	1097.27
564.42	1101.97
564.77	1106.25
565.12	1110.84
565.48	1115.36
565.83	1119.66
566.19	1123.82
566.54	1127.44
566.89	1130.98
567.25	1134.92
567.60	1139.37
567.96	1143.05
568.31	1146.15
568.66	1150.07
569.02	1153.60
569.37	1156.95
569.72	1160.39
570.08	1163.65
570.43	1167.07
570.78	1169.60
571.14	1172.12
571.49	1174.56
571.84	1177.13
572.20	1179.40
572.55	1181.55
572.90	1183.67
573.26	1186.15
573.61	1187.83
573.96	1190.10
574.31	1191.63
574.67	1192.65
575.02	1193.63
575.37	1195.22
575.72	1196.57
576.08	1197.86
576.43	1199.30
576.78	1200.57
577.13	1201.80
577.49	1202.54
577.84	1203.30
578.19	1204.22
578.54	1204.98
578.90	1205.30
579.25	1205.69
579.60	1206.44
579.95	1206.65
580.30	1206.88
580.66	1206.41
581.01	1206.46
581.36	1206.59
581.71	1207.21
582.06	1207.58
582.42	1207.24
582.77	1206.73
583.12	1206.33
583.47	1206.00
583.82	1205.40
584.17	1204.75
584.53	1204.04
584.88	1204.08
585.23	1203.61
585.58	1203.18
585.93	1202.41
586.28	1202.36
586.63	1201.92
586.98	1201.27
587.34	1200.87
587.69	1200.09
588.04	1199.85
588.39	1199.33
588.74	1197.60
589.09	1196.24
589.44	1194.94
589.79	1193.99
590.14	1193.35
590.49	1192.20
590.84	1190.47
591.19	1188.97
591.54	1187.20
591.89	1185.24
592.25	1183.36
592.60	1180.83
592.95	1178.39
593.30	1175.94
593.65	1173.31
594.00	1170.75
594.35	1169.31
594.70	1166.66
595.05	1164.42
595.40	1161.78
595.75	1158.94
596.10	1156.95
596.45	1155.03
596.80	1153.32
597.15	1151.31
597.50	1148.57
597.85	1146.54
598.19	1145.06
598.54	1143.03
598.89	1141.06
599.24	1139.42
599.59	1137.24
599.94	1135.47
600.29	1133.40
600.64	1131.48
600.99	1128.94
601.34	1127.06
601.69	1123.66
602.04	1121.21
602.39	1118.89
602.74	1116.62
603.08	1114.69
603.43	1112.87
603.78	1110.21
604.13	1107.10
604.48	1104.42
604.83	1101.67
605.18	1098.80
605.53	1095.35
605.87	1091.94
606.22	1089.11
606.57	1085.73
606.92	1082.40
607.27	1079.48
607.62	1076.94
607.96	1074.38
608.31	1071.70
608.66	1068.38
609.01	1064.96
609.36	1061.55
609.70	1057.82
610.05	1054.22
610.40	1050.71
610.75	1046.76
611.10	1042.96
611.44	1039.01
611.79	1035.42
612.14	1031.77
612.49	1027.74
612.83	1023.93
613.18	1020.30
613.53	1016.29
613.88	1012.24
614.22	1008.43
614.57	1004.11
614.92	999.75
615.27	995.59
615.61	991.76
615.96	987.70
616.31	984.38
616.65	981.40
617.00	977.71
617.35	973.57
617.70	969.35
618.04	965.19
618.39	961.45
618.74	957.95
619.08	953.48
619.43	949.71
619.78	946.40
620.12	942.57
620.47	938.85
620.82	935.02
621.16	931.33
621.51	927.50
621.85	924.07
622.20	920.25
622.55	916.19
622.89	912.42
623.24	908.94
623.59	905.09
623.93	901.03
624.28	897.30
624.62	894.09
624.97	890.90
625.32	887.36
625.66	883.66
626.01	879.71
626.35	876.47
626.70	872.74
627.04	868.97
627.39	865.12
627.73	861.24
628.08	857.60
628.43	853.84
628.77	850.12
629.12	845.98
629.46	842.20
629.81	838.25
630.15	834.08
630.50	829.87
630.84	825.74
631.19	821.54
631.53	817.76
631.88	813.35
632.22	808.86
632.57	805.34
632.91	801.11
633.26	797.49
633.60	793.12
633.95	788.94
634.29	784.98
634.64	781.34
634.98	777.36
635.32	773.82
635.67	770.40
636.01	766.88
636.36	763.45
636.70	759.70
637.05	756.37
637.39	752.96
637.73	749.46
638.08	746.27
638.42	743.25
638.77	739.67
639.11	736.33
639.45	732.83
639.80	729.07
640.14	725.62
640.49	721.99
640.83	718.78
641.17	715.64
641.52	712.16
641.86	708.52
642.20	705.26
642.55	701.64
642.89	698.02
643.23	694.49
643.58	691.28
643.92	687.86
644.26	684.48
644.61	681.37
644.95	678.13
645.29	674.30
645.64	670.28
645.98	666.90
646.32	663.53
646.66	660.18
647.01	656.63
647.35	653.58
647.69	650.28
648.04	647.06
648.38	643.66
648.72	640.12
649.06	636.86
649.41	633.49
649.75	629.90
650.09	626.35
650.43	622.80
650.78	619.03
651.12	615.53
651.46	612.08
651.80	608.45
652.14	605.21
652.49	602.00
652.83	598.86
653.17	595.25
653.51	591.95
653.85	588.78
654.20	585.63
654.54	582.29
654.88	578.90
655.22	575.31
655.56	571.77
655.90	568.78
656.25	565.56
656.59	562.55
656.93	559.50
657.27	556.56
657.61	553.11
657.95	550.44
658.29	547.65
658.64	544.54
658.98	541.46
659.32	538.16
659.66	535.12
660.00	532.05
660.34	529.14
660.68	526.01
661.02	522.89
661.36	520.05
661.70	517.21
662.05	514.62
662.39	511.97
662.73	509.29
663.07	506.63
663.41	504.22
663.75	501.43
664.09	498.80
664.43	496.11
664.77	493.81
665.11	491.18
665.45	488.55
665.79	486.06
666.13	483.61
666.47	481.19
666.81	478.64
667.15	476.09
667.49	473.71
667.83	471.77
668.17	469.52
668.51	466.99
668.85	464.58
669.19	462.37
669.53	459.97
669.87	457.75
670.21	455.42
670.55	452.92
670.89	451.03
671.23	448.96
671.57	446.96
671.91	445.02
672.25	442.80
672.58	440.76
672.92	438.83
673.26	436.95
673.60	435.12
673.94	433.31
674.28	431.57
674.62	429.82
674.96	427.79
675.30	425.91
675.64	424.14
675.97	422.30
676.31	420.23
676.65	418.60
676.99	416.84
677.33	415.05
677.67	413.27
678.01	411.15
678.34	409.35
678.68	407.51
679.02	405.57
679.36	403.80
679.70	402.11
680.04	400.29
680.37	398.50
680.71	396.70
681.05	395.10
681.39	393.48
681.73	391.81
682.06	390.29
682.40	388.73
682.74	387.05
683.08	385.69
683.42	384.08
683.75	382.44
684.09	380.85
684.43	379.22
684.77	377.64
685.10	376.09
685.44	374.49
685.78	373.04
686.12	371.66
686.45	370.24
686.79	368.70
687.13	367.28
687.46	365.81
687.80	364.47
688.14	363.02
688.48	361.57
688.81	360.16
689.15	358.64
689.49	357.33
689.82	356.05
690.16	354.41
690.50	353.16
690.83	351.78
691.17	350.41
691.51	349.20
691.84	348.01
692.18	346.87
692.52	345.53
692.85	344.22
693.19	343.01
693.52	341.69
693.86	340.46
694.20	339.24
694.53	338.06
694.87	336.72
695.21	335.51
695.54	334.27
695.88	332.98
696.21	331.68
696.55	330.39
696.88	329.18
697.22	328.03
697.56	326.96
697.89	325.90
698.23	324.86
698.56	323.65
698.90	322.57
699.23	321.23
699.57	320.11
699.90	319.00
700.24	317.88
700.58	316.81
700.91	315.80
701.25	314.84
701.58	313.84
701.92	312.86
702.25	311.77
702.59	310.86
702.92	309.93
703.26	309.13
703.59	308.31
703.93	307.65
704.26	306.79
704.60	305.77
704.93	304.92
705.26	303.99
705.60	303.21
705.93	302.43
706.27	301.80
706.60	301.15
706.94	300.53
707.27	299.66
707.61	298.91
707.94	298.24
708.27	297.41
708.61	296.53
708.94	295.78
709.28	295.14
709.61	294.45
709.94	293.76
710.28	293.03
710.61	292.26
710.95	291.28
711.28	290.66
711.61	290.06
711.95	289.36
712.28	288.59
712.61	287.83
712.95	287.12
713.28	286.50
713.61	285.83
713.95	285.10
714.28	284.41
714.61	283.77
714.95	282.99
715.28	282.28
715.61	281.64
715.95	281.05
716.28	280.33
716.61	279.75
716.95	279.18
717.28	278.58
717.61	278.12
717.94	277.68
718.28	277.00
718.61	276.47
718.94	275.89
719.27	275.53
719.61	275.09
719.94	274.60
720.27	274.09
720.60	273.58
720.94	273.05
721.27	272.60
721.60	272.16
721.93	271.77
722.27	271.34
722.60	271.01
722.93	270.56
723.26	270.28
723.59	269.73
723.93	269.35
724.26	268.96
724.59	268.48
724.92	268.03
725.25	267.69
725.59	267.26
725.92	266.86
726.25	266.38
726.58	265.95
726.91	265.58
727.24	265.19
727.57	264.79
727.91	264.45
728.24	264.24
728.57	263.85
728.90	263.52
729.23	263.10
729.56	262.74
729.89	262.36
730.22	261.92
730.55	261.62
730.89	261.23
731.22	260.78
731.55	260.49
731.88	260.12
732.21	259.82
732.54	259.50
732.87	259.17
733.20	258.89
733.53	258.55
733.86	258.28
734.19	257.91
734.52	257.64
734.85	257.34
735.18	256.92
735.51	256.66
735.84	256.33
736.17	256.19
736.50	255.71
736.83	255.74
737.16	255.36
737.49	255.05
737.82	254.81
738.15	254.67
738.48	254.34
738.81	254.09
739.14	253.78
739.47	253.44
739.80	253.11
740.13	252.99
740.46	252.70
740.79	252.34
741.12	252.08
741.45	251.76
741.78	251.55
742.11	251.26
742.44	250.96
742.77	250.67
743.10	250.29
743.43	250.11
743.75	249.56
744.08	249.57
744.41	249.34
744.74	249.06
745.07	248.79
745.40	248.62
745.73	248.43
746.06	248.19
746.39	248.13
746.71	247.95
747.04	247.59
747.37	247.39
747.70	247.24
748.03	246.87
748.36	246.76
748.68	246.47
749.01	246.31
749.34	246.15
749.67	246.05
750.00	246.05
750.33	246.09
750.65	245.95
750.98	245.61
751.31	245.41
751.64	245.27
751.97	245.11
752.29	244.87
752.62	244.62
752.95	244.35
753.28	243.98
753.60	243.84
753.93	243.70
754.26	243.52
754.59	243.34
754.91	243.17
755.24	242.91
755.57	242.66
755.90	242.57
756.22	242.38
756.55	242.20
756.88	241.83
757.20	241.40
757.53	241.24
757.86	241.12
758.19	241.02
758.51	240.82
758.84	240.73
759.17	240.60
759.49	240.55
759.82	240.54
760.15	240.56
760.47	240.46
760.80	240.29
761.13	240.19
761.45	240.05
761.78	240.04
762.11	239.94
762.43	239.85
762.76	239.64
763.08	239.54
763.41	239.37
763.74	239.29
764.06	239.34
764.39	239.19
764.71	238.92
765.04	238.77
765.37	238.71
765.69	238.53
766.02	238.39
766.34	238.17
766.67	238.05
767.00	237.91
767.32	237.92
767.65	237.92
767.97	237.77
768.30	237.64
768.62	237.51
768.95	237.43
769.27	237.40
769.60	237.34
769.92	237.24
770.25	237.10
770.57	236.95
770.90	236.77
771.22	236.62
771.55	236.58
771.87	236.52
772.20	236.46
772.52	236.45
772.85	236.51
773.17	236.53
773.50	236.38
773.82	236.30
774.15	236.13
774.47	235.94
774.80	235.82
775.12	235.71
775.45	235.72
775.77	235.64
776.09	235.54
776.42	235.42
776.74	235.42
777.07	235.38
777.39	235.28
777.72	235.21
778.04	235.16
778.36	235.13
778.69	235.00
779.01	234.89
779.33	234.70
779.66	234.46
779.98	234.39
780.31	234.30
780.63	234.30
780.95	234.22
781.28	234.15
781.60	234.11
781.92	234.05
782.25	233.90
782.57	233.91
782.89	233.82
783.22	233.79
783.54	233.60
783.86	233.58
784.19	233.58
784.51	233.57
784.83	233.53
785.16	233.40
785.48	233.35
785.80	233.20
786.12	233.24
786.45	233.07
786.77	232.89
787.09	232.82
787.42	232.70
787.74	232.56
788.06	232.50
788.38	232.53
788.71	232.43
789.03	232.40
789.35	232.30
789.67	232.23
789.99	232.15
790.32	232.10
790.64	232.05
790.96	232.17
791.28	232.10
791.61	231.95
791.93	232.08
792.25	232.05
792.57	232.24
792.89	232.11
793.21	232.19
793.54	232.24
793.86	232.20
794.18	232.11
794.50	232.22
794.82	232.28
795.14	232.25
795.47	232.32
795.79	232.39
796.11	232.25
796.43	232.33
796.75	232.38
797.07	232.42
797.39	232.41
797.71	232.23
798.04	232.16
798.36	232.22
798.68	232.11
799.00	232.15
799.32	231.95
799.64	232.00
799.96	231.90
800.28	231.97
800.60	231.95
800.92	231.98
801.24	231.89
801.56	231.87
801.89	231.79
802.21	231.72
802.53	231.71
802.85	231.81
803.17	231.77
803.49	231.68
803.81	231.63
804.13	231.61
804.45	231.62
804.77	231.71
805.09	231.72
805.41	231.70
805.73	231.63
806.05	231.59
806.37	231.57
806.69	231.57
807.01	231.48
807.33	231.54
807.65	231.54
807.97	231.57
808.28	231.50
808.60	231.41
808.92	231.40
809.24	231.39
809.56	231.36
809.88	231.29
810.20	231.35
810.52	231.38
810.84	231.33
811.16	231.29
811.48	231.31
811.80	231.36
812.12	231.38
812.43	231.41
812.75	231.38
813.07	231.37
813.39	231.34
813.71	231.32
814.03	231.32
814.35	231.24
814.67	231.12
814.98	231.08
815.30	231.13
815.62	231.02
815.94	230.94
816.26	230.87
816.58	230.91
816.89	230.86
817.21	230.82
817.53	230.73
817.85	230.67
818.17	230.47
818.48	230.37
818.80	230.36
819.12	230.25
819.44	230.21
819.76	230.18
820.07	230.16
820.39	230.08
820.71	229.92
821.03	229.95
821.34	229.93
821.66	229.98
821.98	229.90
822.30	229.95
822.61	230.00
822.93	230.00
823.25	229.90
823.57	229.80
823.88	229.81
824.20	229.82
824.52	229.86
824.83	229.88
825.15	229.80
825.47	229.69
825.79	229.73
826.10	229.69
826.42	229.63
826.74	229.65
827.05	229.66
827.37	229.63
827.69	229.47
828.00	229.50
828.32	229.43
828.64	229.42
828.95	229.38
829.27	229.28
829.58	229.25
829.90	229.21
830.22	229.23
830.53	229.14
830.85	229.13
831.17	229.05
831.48	229.08
831.80	229.06
832.11	229.09
832.43	229.13
832.75	229.18
833.06	229.26
833.38	229.20
833.69	229.13
834.01	229.20
834.32	229.30
834.64	229.31
834.96	229.31
835.27	229.29
835.59	229.42
835.90	229.39
836.22	229.32
836.53	229.31
836.85	229.27
837.16	229.47
837.48	229.56
837.79	229.68
838.11	229.63
838.42	229.67
838.74	229.75
839.05	229.71
839.37	229.66
839.68	229.45
840.00	229.45
840.31	229.62
840.63	229.65
840.94	229.67
841.26	229.62
841.57	229.66
841.88	229.67
842.20	229.56
842.51	229.59
842.83	229.67
843.14	229.95
843.46	230.03
843.77	229.94
844.08	229.84
844.40	229.74
844.71	229.68
845.03	229.54
845.34	229.52
845.65	229.47
845.97	229.40
846.28	229.50
846.60	229.46
846.91	229.25
847.22	229.18
847.54	229.09
847.85	229.05
848.16	228.94
848.48	228.90
848.79	229.03
849.10	228.97
849.42	228.93
849.73	228.69
850.04	228.56
850.36	228.41
850.67	228.47
850.98	228.47
851.30	228.49
851.61	228.57
851.92	228.54
852.23	228.51
852.55	228.58
852.86	228.58
853.17	228.62
853.49	228.66
853.80	228.74
854.11	228.80
854.42	228.88
854.74	228.87
855.05	228.88
855.36	228.79
855.67	228.79
855.99	228.79
856.30	228.95
856.61	228.98
856.92	229.06
857.23	228.88
857.55	228.79
857.86	228.79
858.17	228.81
858.48	228.77
858.79	228.70
859.11	228.73
859.42	228.60
859.73	228.55
860.04	228.50
860.35	228.49
860.66	228.41
860.98	228.35
861.29	228.37
861.60	228.34
861.91	228.32
862.22	228.25
862.53	228.19
862.84	227.90
863.16	227.95
863.47	227.84
863.78	227.94
864.09	227.96
864.40	227.96
864.71	227.96
865.02	227.88
865.33	227.92
865.64	227.95
865.95	227.98
866.27	228.18
866.58	228.24
866.89	228.15
867.20	228.15
867.51	228.06
867.82	228.12
868.13	228.20
868.44	228.13
868.75	228.23
869.06	228.29
869.37	228.41
869.68	228.31
869.99	228.28
870.30	228.37
870.61	228.50
870.92	228.51
871.23	228.51
871.54	228.64
871.85	228.70
872.16	228.70
872.47	228.69
872.78	228.56
873.09	228.54
873.40	228.48
873.71	228.48
874.02	228.52
874.33	228.47
874.64	228.40
874.95	228.46
875.26	228.45
875.56	228.39
875.87	228.40
876.18	228.48
876.49	228.73
876.80	228.66
877.11	228.51
877.42	228.47
877.73	228.43
878.04	228.40
878.35	228.30
878.66	228.30
878.96	228.29
879.27	228.25
879.58	228.31
879.89	228.35
880.20	228.41
880.51	228.48
880.82	228.41
881.12	228.47
881.43	228.47
881.74	228.44
882.05	228.48
882.36	228.39
882.67	228.47
882.97	228.28
883.28	228.12
883.59	228.23
883.90	228.35
884.21	228.39
884.51	228.34
884.82	228.46
885.13	228.49
885.44	228.54
885.74	228.59
886.05	228.56
886.36	228.68
886.67	228.68
886.98	228.73
887.28	228.79
887.59	228.78
887.90	228.75
888.20	228.68
888.51	228.60
888.82	228.59
889.13	228.56
889.43	228.70
889.74	228.80
890.05	228.74
890.35	228.69
890.66	228.71
890.97	228.66
891.28	228.57
891.58	228.55
891.89	228.60
892.20	228.56
892.50	228.53
892.81	228.42
893.12	228.40
893.42	228.34
893.73	228.40
894.04	228.40
894.34	228.38
894.65	228.41
894.95	228.50
895.26	228.50
895.57	228.50
895.87	228.40
896.18	228.41
896.48	228.54
896.79	228.54
897.10	228.50
897.40	228.49
897.71	228.56
898.01	228.57
898.32	228.49
898.63	228.46
898.93	228.47
899.24	228.56
899.54	228.50
899.85	228.49
900.15	228.33
900.46	228.39
900.76	228.41
901.07	228.39
901.38	228.44
901.68	228.41
901.99	228.40
902.29	228.33
902.60	228.38
902.90	228.26
903.21	228.34
903.51	228.36
903.82	228.45
904.12	228.43
904.43	228.40
904.73	228.31
905.03	228.36
905.34	228.44
905.64	228.39
905.95	228.40
906.25	228.36
906.56	228.49
906.86	228.46
907.17	228.50
907.47	228.46
907.77	228.40
908.08	228.45
908.38	228.36
908.69	228.34
908.99	228.30
909.30	228.35
909.60	228.22
909.90	228.28
910.21	228.28
910.51	228.21
910.81	228.17
911.12	228.31
911.42	228.30
911.73	228.29
912.03	228.34
912.33	228.35
912.64	228.41
912.94	228.31
913.24	228.30
913.55	228.21
913.85	228.32
914.15	228.28
914.46	228.36
914.76	228.44
915.06	228.54
915.37	228.56
915.67	228.47
915.97	228.47
916.27	228.47
916.58	228.43
916.88	228.48
917.18	228.55
917.49	228.66
917.79	228.68
918.09	228.64
918.39	228.56
918.70	228.49
919.00	228.43
919.30	228.64
919.60	228.64
919.91	228.70
920.21	228.80
920.51	228.95
920.81	228.91
921.12	228.93
921.42	228.89
921.72	228.93
922.02	228.98
922.32	229.02
922.63	228.91
922.93	229.11
923.23	229.08
923.53	229.10
923.83	228.92
924.13	228.91
924.44	228.91
924.74	229.00
925.04	229.14
925.34	229.10
925.64	229.00
925.94	229.01
926.24	229.12
926.55	229.06
926.85	228.95
927.15	228.95
927.45	228.88
927.75	228.87
928.05	228.80
928.35	228.74
928.65	228.74
928.95	228.77
929.26	228.60
929.56	228.70
929.86	228.69
930.16	228.64
930.46	228.73
930.76	228.68
931.06	228.62
931.36	228.60
931.66	228.68
931.96	228.71
932.26	228.67
932.56	228.57
932.86	228.50
933.16	228.59
933.46	228.65
933.76	228.66
934.06	228.73
934.36	228.80
934.66	228.72
934.96	228.71
935.26	228.70
935.56	228.70
935.86	228.57
936.16	228.52
936.46	228.56
936.76	228.47
937.06	228.45
937.36	228.56
937.66	228.49
937.96	228.48
938.26	228.34
938.56	228.33
938.86	228.34
939.16	228.33
939.46	228.30
939.76	228.20
940.06	228.12
940.35	227.98
940.65	227.86
940.95	227.94
941.25	227.79
941.55	227.77
941.85	227.69
942.15	227.74
942.45	227.72
942.75	227.77
943.04	227.76
943.34	227.80
943.64	227.65
943.94	227.63
944.24	227.57
944.54	227.64
944.84	227.56
945.13	227.50
945.43	227.49
945.73	227.43
946.03	227.45
946.33	227.41
946.62	227.50
946.92	227.51
947.22	227.51
947.52	227.59
947.82	227.62
948.11	227.60
948.41	227.60
948.71	227.66
949.01	227.53
949.31	227.54
949.60	227.51
949.90	227.57
950.20	227.58
950.50	227.59
950.79	227.61
951.09	227.72
951.39	227.68
951.69	227.79
951.98	227.86
952.28	227.88
952.58	228.00
952.87	227.92
953.17	227.96
953.47	228.03
953.76	228.03
954.06	228.06
954.36	228.17
954.66	228.21
954.95	228.27
955.25	228.39
955.55	228.40
955.84	228.41
956.14	228.37
956.44	228.44
956.73	228.47
957.03	228.44
957.32	228.42
957.62	228.51
957.92	228.41
958.21	228.47
958.51	228.63
958.81	228.67
959.10	228.78
959.40	228.91
959.69	228.90
959.99	229.00
960.29	229.10
960.58	228.99
960.88	229.07
961.17	229.08
961.47	229.15
961.76	229.19
962.06	229.25
962.36	229.32
962.65	229.23
962.95	229.24
963.24	229.24
963.54	229.27
963.83	229.44
964.13	229.46
964.42	229.36
964.72	229.18
965.01	229.23
965.31	229.22
965.60	229.10
965.90	229.20
966.19	229.20
966.49	229.21
966.78	229.35
967.08	229.27
967.37	229.24
967.67	229.11
967.96	229.09
968.26	229.08
968.55	229.10
968.85	229.16
969.14	229.15
969.43	229.18
969.73	229.27
970.02	229.09
970.32	229.12
970.61	229.09
970.91	229.00
971.20	228.97
971.49	229.00
971.79	228.99
972.08	228.92
972.38	228.88
972.67	228.76
972.96	228.72
973.26	228.63
973.55	228.57
973.85	228.58
974.14	228.56
974.43	228.50
974.73	228.40
975.02	228.39
975.31	228.37
975.61	228.31
975.90	228.21
976.19	228.20
976.49	228.12
976.78	228.04
977.07	228.07
977.37	227.96
977.66	227.81
977.95	227.76
978.24	227.66
978.54	227.60
978.83	227.61
979.12	227.52
979.42	227.54
979.71	227.51
980.00	227.44
980.29	227.48
980.59	227.48
980.88	227.55
981.17	227.51
981.46	227.44
981.76	227.45
982.05	227.46
982.34	227.39
982.63	227.37
982.93	227.37
983.22	227.34
983.51	227.36
983.80	227.43
984.09	227.51
984.39	227.54
984.68	227.58
984.97	227.46
985.26	227.55
985.55	227.45
985.85	227.49
986.14	227.55
986.43	227.50
986.72	227.40
987.01	227.30
987.30	227.32
987.59	227.43
987.89	227.43
988.18	227.36
988.47	227.29
988.76	227.37
989.05	227.32
989.34	227.39
989.63	227.45
989.92	227.44
990.22	227.39
990.51	227.38
990.80	227.33
991.09	227.38
991.38	227.41
991.67	227.61
991.96	227.60
992.25	227.68
992.54	227.67
992.83	227.78
993.12	227.85
993.41	227.94
993.70	227.99
993.99	227.99
994.28	228.07
994.58	228.26
994.87	228.26
995.16	228.38
995.45	228.39
995.74	228.27
996.03	228.36
996.32	228.42
996.61	228.48
996.90	228.63
997.19	228.70
997.48	228.65
997.77	228.52
998.06	228.57
998.34	228.61
998.63	228.62
998.92	228.59
999.21	228.61
999.50	228.66
999.79	228.74
1000.08	228.86
1000.37	228.91
1000.66	228.92
1000.95	228.98
1001.24	229.01
1001.53	229.10
1001.82	229.30
1002.11	229.14
1002.40	229.16
1002.68	229.25
1002.97	229.35
1003.26	229.31
1003.55	229.31
1003.84	229.41
1004.13	229.54
1004.42	229.52
1004.71	229.57
1004.99	229.68
1005.28	229.78
1005.57	229.74
1005.86	229.60
1006.15	229.56
1006.44	229.58
1006.72	229.58
1007.01	229.51
1007.30	229.49
1007.59	229.52
1007.88	229.41
1008.17	229.54
1008.45	229.61
1008.74	229.45
1009.03	229.27
1009.32	229.31
1009.60	229.33
1009.89	229.32
1010.18	229.03
1010.47	228.90
1010.76	228.84
1011.04	228.78
1011.33	228.72
1011.62	228.60
1011.91	228.58
1012.19	228.47
1012.48	228.40
1012.77	228.32
1013.05	228.40
1013.34	228.37
1013.63	228.19
1013.92	228.10
1014.20	228.03
1014.49	227.93
1014.78	227.98
1015.06	227.97
1015.35	227.93
1015.64	227.91
1015.92	227.95
1016.21	228.01
1016.50	228.14
1016.78	228.23
1017.07	228.24
1017.36	228.18
1017.64	228.20
1017.93	228.18
1018.22	228.24
1018.50	228.16
1018.79	228.16
1019.08	227.94
1019.36	227.95
1019.65	227.95
1019.93	228.01
1020.22	228.07
1020.51	228.12
1020.79	228.07
1021.08	228.30
1021.36	226.60
1021.65	228.10
1021.94	225.50
1022.22	227.90
1022.51	227.00
1022.79	228.00
1023.08	228.50
1023.36	230.00
1023.65	227.40
>>>>>End Processed Spectral Data<<<<<
