SpectraSuite Data File
++++++++++++++++++++++++++++++++++++
Date: Fri Feb 01 14:37:25 EST 2013
User: group
Dark Spectrum Present: No
Reference Spectrum Present: No
Number of Sampled Component Spectra: 1
Spectrometers: USB2E7196
Integration Time (usec): 70000 (USB2E7196)
Spectra Averaged: 10 (USB2E7196)
Boxcar Smoothing: 10 (USB2E7196)
Correct for Electrical Dark: No (USB2E7196)
Strobe/Lamp Enabled: No (USB2E7196)
Correct for Detector Non-linearity: No (USB2E7196)
Correct for Stray Light: No (USB2E7196)
Number of Pixels in Processed Spectrum: 2048
>>>>>Begin Processed Spectral Data<<<<<
339.09	0.00
339.48	216.80
339.86	219.10
340.24	218.30
340.63	219.20
341.01	225.30
341.39	223.90
341.78	224.20
342.16	225.80
342.54	227.50
342.93	214.79
343.31	225.71
343.69	226.31
344.07	226.69
344.46	227.15
344.84	227.53
345.22	227.70
345.60	228.01
345.99	228.25
346.37	228.34
346.75	228.35
347.13	228.49
347.52	228.50
347.90	228.68
348.28	228.61
348.66	228.60
349.05	228.53
349.43	228.57
349.81	228.70
350.19	228.71
350.57	228.80
350.96	228.90
351.34	228.93
351.72	228.98
352.10	229.10
352.48	229.13
352.87	229.30
353.25	229.35
353.63	229.25
354.01	229.25
354.39	229.32
354.77	229.37
355.15	229.37
355.54	229.47
355.92	229.42
356.30	229.54
356.68	229.77
357.06	229.84
357.44	229.90
357.82	229.91
358.20	230.04
358.58	230.10
358.97	230.25
359.35	230.30
359.73	230.32
360.11	230.35
360.49	230.43
360.87	230.47
361.25	230.51
361.63	230.64
362.01	230.74
362.39	230.73
362.77	230.76
363.15	230.88
363.53	230.89
363.91	230.77
364.29	230.69
364.67	230.50
365.05	230.46
365.43	230.48
365.81	230.56
366.19	230.60
366.57	230.70
366.95	230.45
367.33	230.37
367.71	230.34
368.09	230.32
368.47	230.23
368.85	230.10
369.23	230.05
369.61	229.86
369.99	229.80
370.37	229.80
370.75	229.79
371.13	229.56
371.51	229.39
371.89	229.40
372.27	229.39
372.65	229.35
373.03	229.38
373.41	229.27
373.78	229.12
374.16	228.96
374.54	228.71
374.92	228.70
375.30	228.66
375.68	228.55
376.06	228.50
376.44	228.42
376.82	228.43
377.19	228.35
377.57	228.39
377.95	228.29
378.33	228.10
378.71	228.00
379.09	227.98
379.47	227.99
379.84	227.90
380.22	227.73
380.60	227.52
380.98	227.48
381.36	227.46
381.73	227.30
382.11	227.20
382.49	227.18
382.87	227.06
383.25	226.91
383.62	226.99
384.00	226.83
384.38	226.77
384.76	226.64
385.13	226.66
385.51	226.51
385.89	226.47
386.27	226.49
386.64	226.40
387.02	226.38
387.40	226.35
387.78	226.34
388.15	226.40
388.53	226.44
388.91	226.28
389.29	226.16
389.66	226.31
390.04	226.28
390.42	226.30
390.79	226.33
391.17	226.43
391.55	226.25
391.92	226.30
392.30	226.31
392.68	226.33
393.05	226.26
393.43	226.37
393.81	226.40
394.18	226.37
394.56	226.52
394.94	226.50
395.31	226.39
395.69	226.49
396.06	226.49
396.44	226.56
396.82	226.57
397.19	226.73
397.57	226.67
397.95	226.68
398.32	226.59
398.70	226.79
399.07	226.87
399.45	226.86
399.82	226.92
400.20	227.04
400.58	227.13
400.95	227.23
401.33	227.41
401.70	227.65
402.08	227.94
402.45	228.10
402.83	228.34
403.20	228.69
403.58	228.88
403.95	229.13
404.33	229.37
404.71	229.70
405.08	229.93
405.46	230.14
405.83	230.53
406.21	230.84
406.58	231.01
406.96	231.29
407.33	231.66
407.70	231.92
408.08	232.29
408.45	232.61
408.83	232.87
409.20	233.12
409.58	233.33
409.95	233.63
410.33	234.04
410.70	234.43
411.08	234.83
411.45	235.25
411.82	235.71
412.20	236.20
412.57	236.77
412.95	237.32
413.32	238.04
413.69	238.65
414.07	239.33
414.44	240.00
414.82	240.65
415.19	241.53
415.56	242.40
415.94	243.30
416.31	244.30
416.68	245.42
417.06	246.53
417.43	247.60
417.81	248.85
418.18	250.12
418.55	251.44
418.93	252.83
419.30	254.36
419.67	255.85
420.04	257.41
420.42	259.01
420.79	260.95
421.16	262.83
421.54	264.88
421.91	266.95
422.28	269.27
422.66	271.55
423.03	273.83
423.40	276.01
423.77	278.44
424.15	280.91
424.52	283.48
424.89	286.29
425.26	288.96
425.64	291.50
426.01	294.33
426.38	297.36
426.75	300.43
427.13	303.46
427.50	306.68
427.87	310.02
428.24	313.47
428.61	316.57
428.99	320.21
429.36	323.96
429.73	327.61
430.10	331.12
430.47	334.89
430.85	338.94
431.22	343.28
431.59	347.87
431.96	352.20
432.33	356.80
432.70	361.26
433.08	366.67
433.45	371.59
433.82	376.40
434.19	381.77
434.56	387.19
434.93	392.36
435.30	397.53
435.68	403.17
436.05	408.69
436.42	414.26
436.79	419.24
437.16	424.70
437.53	430.62
437.90	436.52
438.27	442.30
438.64	447.90
439.01	453.22
439.38	457.76
439.75	462.29
440.13	467.74
440.50	472.88
440.87	477.00
441.24	481.40
441.61	486.26
441.98	489.71
442.35	493.74
442.72	497.96
443.09	502.10
443.46	504.79
443.83	506.71
444.20	508.54
444.57	510.86
444.94	512.16
445.31	513.48
445.68	514.88
446.05	515.77
446.42	515.82
446.79	515.98
447.16	515.89
447.53	516.03
447.90	514.56
448.27	513.05
448.64	510.81
449.01	509.44
449.37	506.27
449.74	503.30
450.11	499.40
450.48	495.34
450.85	491.19
451.22	487.68
451.59	484.25
451.96	480.56
452.33	475.87
452.70	471.73
453.07	466.62
453.43	461.14
453.80	455.91
454.17	450.91
454.54	446.16
454.91	441.18
455.28	436.21
455.65	431.46
456.02	426.87
456.38	422.79
456.75	417.78
457.12	413.57
457.49	409.42
457.86	405.39
458.23	401.80
458.59	397.75
458.96	393.85
459.33	390.40
459.70	387.16
460.07	384.39
460.43	381.03
460.80	377.96
461.17	375.38
461.54	372.59
461.91	369.93
462.27	366.96
462.64	364.45
463.01	361.71
463.38	359.13
463.74	356.48
464.11	354.23
464.48	352.20
464.85	350.06
465.21	348.32
465.58	346.58
465.95	344.37
466.32	342.45
466.68	340.31
467.05	338.50
467.42	336.58
467.78	334.68
468.15	332.89
468.52	331.37
468.88	329.46
469.25	327.83
469.62	326.35
469.98	325.01
470.35	323.72
470.72	322.51
471.08	321.12
471.45	319.90
471.82	318.48
472.18	316.90
472.55	315.87
472.92	314.82
473.28	313.78
473.65	312.60
474.02	311.64
474.38	310.80
474.75	309.81
475.11	308.89
475.48	308.17
475.85	307.63
476.21	307.13
476.58	306.60
476.94	306.09
477.31	305.62
477.67	305.01
478.04	304.38
478.41	304.00
478.77	303.79
479.14	303.25
479.50	303.06
479.87	302.86
480.23	302.43
480.60	301.88
480.96	301.61
481.33	301.65
481.69	301.64
482.06	301.58
482.42	301.38
482.79	301.38
483.15	301.35
483.52	301.34
483.88	301.26
484.25	301.25
484.61	301.22
484.98	301.25
485.34	301.53
485.71	301.93
486.07	302.11
486.44	302.14
486.80	302.49
487.17	302.71
487.53	303.24
487.90	303.74
488.26	304.29
488.62	304.79
488.99	305.20
489.35	305.56
489.72	305.95
490.08	306.51
490.44	307.02
490.81	307.62
491.17	308.09
491.54	308.74
491.90	309.45
492.26	310.27
492.63	310.94
492.99	311.47
493.36	312.03
493.72	312.66
494.08	313.40
494.45	314.21
494.81	315.01
495.17	315.56
495.54	316.12
495.90	316.93
496.26	317.58
496.63	318.45
496.99	319.15
497.35	319.99
497.72	320.95
498.08	321.80
498.44	322.46
498.80	323.34
499.17	324.07
499.53	324.83
499.89	325.61
500.26	326.40
500.62	327.15
500.98	327.93
501.34	328.74
501.71	329.50
502.07	330.00
502.43	330.50
502.79	331.17
503.16	331.82
503.52	332.33
503.88	332.74
504.24	333.16
504.60	333.74
504.97	334.07
505.33	334.39
505.69	334.87
506.05	335.34
506.41	335.50
506.78	335.73
507.14	336.04
507.50	336.27
507.86	336.53
508.22	336.72
508.59	336.91
508.95	337.01
509.31	337.21
509.67	337.46
510.03	337.71
510.39	337.86
510.75	337.97
511.12	338.05
511.48	338.21
511.84	338.27
512.20	338.26
512.56	338.45
512.92	338.54
513.28	338.45
513.64	338.40
514.00	338.63
514.37	338.76
514.73	338.70
515.09	338.68
515.45	338.70
515.81	338.83
516.17	338.97
516.53	338.91
516.89	338.93
517.25	339.09
517.61	339.34
517.97	339.50
518.33	339.75
518.69	340.02
519.05	340.25
519.41	340.58
519.77	341.07
520.13	341.40
520.49	341.72
520.85	342.25
521.21	342.71
521.57	343.12
521.93	343.66
522.29	344.31
522.65	345.00
523.01	345.68
523.37	346.38
523.73	347.17
524.09	348.16
524.45	349.09
524.81	350.02
525.17	351.07
525.53	352.20
525.89	353.49
526.25	354.81
526.61	356.18
526.97	357.40
527.33	358.80
527.68	360.52
528.04	362.37
528.40	364.03
528.76	365.97
529.12	368.07
529.48	370.00
529.84	372.10
530.20	374.10
530.56	376.50
530.91	378.92
531.27	381.35
531.63	383.93
531.99	386.52
532.35	389.10
532.71	391.60
533.07	394.51
533.42	397.38
533.78	400.21
534.14	403.28
534.50	406.52
534.86	409.73
535.21	412.81
535.57	415.92
535.93	419.25
536.29	422.69
536.65	426.13
537.00	429.58
537.36	433.27
537.72	436.95
538.08	440.73
538.44	444.41
538.79	448.15
539.15	451.86
539.51	455.94
539.87	460.02
540.22	464.20
540.58	468.40
540.94	472.37
541.29	476.57
541.65	480.72
542.01	485.16
542.37	489.42
542.72	493.87
543.08	498.31
543.44	502.80
543.79	507.02
544.15	511.53
544.51	516.38
544.87	520.99
545.22	525.61
545.58	530.14
545.94	534.64
546.29	539.30
546.65	544.00
547.01	548.37
547.36	553.00
547.72	557.70
548.07	562.26
548.43	566.89
548.79	571.61
549.14	576.08
549.50	580.55
549.86	585.10
550.21	589.72
550.57	594.61
550.92	599.34
551.28	604.14
551.64	609.08
551.99	613.85
552.35	618.51
552.70	623.27
553.06	627.96
553.41	632.65
553.77	637.40
554.13	642.09
554.48	647.03
554.84	651.89
555.19	656.38
555.55	661.20
555.90	666.01
556.26	670.55
556.61	675.36
556.97	679.98
557.32	684.64
557.68	689.28
558.03	693.53
558.39	698.03
558.74	702.80
559.10	707.10
559.45	711.26
559.81	715.91
560.16	720.38
560.52	724.78
560.87	729.46
561.23	733.80
561.58	738.47
561.94	742.75
562.29	746.84
562.64	751.05
563.00	755.09
563.35	759.51
563.71	763.66
564.06	767.99
564.42	772.13
564.77	776.19
565.12	780.16
565.48	784.38
565.83	788.30
566.19	792.02
566.54	795.83
566.89	799.78
567.25	803.21
567.60	807.10
567.96	810.94
568.31	814.45
568.66	818.01
569.02	821.36
569.37	824.66
569.72	827.93
570.08	831.25
570.43	834.36
570.78	837.04
571.14	840.20
571.49	843.10
571.84	846.18
572.20	848.77
572.55	851.50
572.90	854.06
573.26	856.85
573.61	859.35
573.96	861.61
574.31	863.74
574.67	865.83
575.02	867.80
575.37	869.79
575.72	871.52
576.08	873.40
576.43	874.83
576.78	876.60
577.13	878.52
577.49	880.44
577.84	882.11
578.19	883.90
578.54	885.35
578.90	886.63
579.25	887.72
579.60	889.14
579.95	890.20
580.30	891.27
580.66	892.02
581.01	892.70
581.36	893.64
581.71	894.63
582.06	895.68
582.42	896.41
582.77	896.90
583.12	897.67
583.47	898.36
583.82	899.23
584.17	899.75
584.53	900.13
584.88	900.46
585.23	900.70
585.58	900.77
585.93	900.86
586.28	901.15
586.63	901.51
586.98	901.77
587.34	902.13
587.69	902.23
588.04	902.56
588.39	902.92
588.74	902.65
589.09	902.46
589.44	902.26
589.79	901.87
590.14	901.95
590.49	901.63
590.84	901.21
591.19	900.98
591.54	900.26
591.89	899.08
592.25	898.53
592.60	897.80
592.95	897.20
593.30	896.31
593.65	895.47
594.00	894.57
594.35	894.13
594.70	892.76
595.05	891.90
595.40	890.47
595.75	889.17
596.10	888.33
596.45	887.29
596.80	886.34
597.15	885.25
597.50	883.64
597.85	882.72
598.19	881.62
598.54	880.42
598.89	879.44
599.24	878.83
599.59	877.53
599.94	876.50
600.29	875.26
600.64	874.21
600.99	872.54
601.34	871.01
601.69	869.00
602.04	867.79
602.39	866.27
602.74	865.31
603.08	864.28
603.43	863.09
603.78	861.67
604.13	860.01
604.48	858.54
604.83	857.14
605.18	855.56
605.53	853.57
605.87	851.20
606.22	849.35
606.57	847.47
606.92	845.77
607.27	844.34
607.62	842.54
607.96	840.67
608.31	839.06
608.66	836.95
609.01	834.99
609.36	832.68
609.70	830.22
610.05	827.57
610.40	825.06
610.75	822.54
611.10	820.07
611.44	817.09
611.79	814.80
612.14	812.48
612.49	809.56
612.83	807.24
613.18	805.00
613.53	802.65
613.88	799.89
614.22	797.15
614.57	793.87
614.92	790.98
615.27	788.65
615.61	785.88
615.96	783.38
616.31	780.74
616.65	778.88
617.00	776.49
617.35	774.23
617.70	771.56
618.04	768.72
618.39	766.40
618.74	764.29
619.08	761.44
619.43	758.76
619.78	756.29
620.12	753.65
620.47	751.28
620.82	748.39
621.16	745.89
621.51	743.52
621.85	741.33
622.20	738.94
622.55	736.07
622.89	733.83
623.24	731.34
623.59	728.89
623.93	726.21
624.28	723.76
624.62	720.90
624.97	718.46
625.32	716.21
625.66	713.68
626.01	711.41
626.35	708.98
626.70	706.52
627.04	704.29
627.39	701.63
627.73	698.94
628.08	696.70
628.43	694.30
628.77	691.57
629.12	688.78
629.46	686.19
629.81	683.55
630.15	680.60
630.50	677.70
630.84	674.82
631.19	671.64
631.53	668.71
631.88	666.04
632.22	663.00
632.57	660.39
632.91	657.42
633.26	654.40
633.60	651.59
633.95	648.71
634.29	645.86
634.64	643.40
634.98	640.57
635.32	637.93
635.67	635.48
636.01	632.90
636.36	630.18
636.70	627.66
637.05	625.01
637.39	622.71
637.73	620.37
638.08	618.42
638.42	616.35
638.77	614.11
639.11	611.52
639.45	609.25
639.80	606.51
640.14	604.15
640.49	601.68
640.83	599.14
641.17	596.75
641.52	594.23
641.86	591.67
642.20	589.39
642.55	586.81
642.89	584.17
643.23	581.68
643.58	579.30
643.92	576.75
644.26	574.25
644.61	571.86
644.95	569.39
645.29	566.46
645.64	563.50
645.98	560.81
646.32	558.66
646.66	556.20
647.01	553.77
647.35	551.33
647.69	548.97
648.04	546.79
648.38	544.30
648.72	541.80
649.06	539.25
649.41	536.83
649.75	534.23
650.09	531.70
650.43	529.04
650.78	526.50
651.12	523.86
651.46	521.62
651.80	519.08
652.14	516.78
652.49	514.49
652.83	512.26
653.17	509.94
653.51	507.52
653.85	505.18
654.20	502.75
654.54	500.29
654.88	497.70
655.22	495.02
655.56	492.43
655.90	490.04
656.25	487.80
656.59	485.46
656.93	483.28
657.27	481.00
657.61	478.68
657.95	476.50
658.29	474.36
658.64	471.97
658.98	469.67
659.32	467.27
659.66	464.98
660.00	462.72
660.34	460.59
660.68	458.27
661.02	456.12
661.36	454.23
661.70	452.15
662.05	450.17
662.39	448.29
662.73	446.46
663.07	444.72
663.41	442.85
663.75	441.01
664.09	439.09
664.43	437.16
664.77	435.37
665.11	433.54
665.45	431.83
665.79	430.06
666.13	428.20
666.47	426.46
666.81	424.50
667.15	422.86
667.49	421.03
667.83	419.45
668.17	417.60
668.51	415.50
668.85	413.82
669.19	412.22
669.53	410.64
669.87	409.04
670.21	407.31
670.55	405.57
670.89	404.07
671.23	402.47
671.57	401.08
671.91	399.54
672.25	398.00
672.58	396.40
672.92	394.90
673.26	393.41
673.60	391.92
673.94	390.61
674.28	389.08
674.62	387.81
674.96	386.26
675.30	384.89
675.64	383.86
675.97	382.49
676.31	381.12
676.65	379.76
676.99	378.44
677.33	376.97
677.67	375.62
678.01	374.03
678.34	372.57
678.68	371.12
679.02	369.71
679.36	368.23
679.70	366.86
680.04	365.43
680.37	364.15
680.71	362.83
681.05	361.62
681.39	360.47
681.73	359.10
682.06	357.95
682.40	356.93
682.74	355.46
683.08	354.27
683.42	352.97
683.75	351.74
684.09	350.45
684.43	349.27
684.77	348.07
685.10	347.02
685.44	345.98
685.78	344.78
686.12	343.67
686.45	342.63
686.79	341.60
687.13	340.58
687.46	339.45
687.80	338.39
688.14	337.14
688.48	335.89
688.81	334.76
689.15	333.66
689.49	332.35
689.82	331.25
690.16	330.09
690.50	329.10
690.83	328.00
691.17	326.85
691.51	325.87
691.84	324.94
692.18	323.77
692.52	322.66
692.85	321.67
693.19	320.73
693.52	319.69
693.86	318.61
694.20	317.62
694.53	316.67
694.87	315.68
695.21	314.73
695.54	313.76
695.88	312.86
696.21	311.88
696.55	310.90
696.88	309.99
697.22	309.09
697.56	308.22
697.89	307.32
698.23	306.50
698.56	305.59
698.90	304.62
699.23	303.68
699.57	302.83
699.90	302.00
700.24	301.06
700.58	300.28
700.91	299.45
701.25	298.72
701.58	297.96
701.92	297.13
702.25	296.50
702.59	295.91
702.92	295.19
703.26	294.53
703.59	293.97
703.93	293.51
704.26	292.85
704.60	292.18
704.93	291.46
705.26	290.79
705.60	290.15
705.93	289.53
706.27	289.15
706.60	288.60
706.94	287.98
707.27	287.23
707.61	286.70
707.94	286.19
708.27	285.52
708.61	284.90
708.94	284.42
709.28	283.71
709.61	283.08
709.94	282.51
710.28	281.83
710.61	281.30
710.95	280.55
711.28	280.12
711.61	279.50
711.95	278.98
712.28	278.42
712.61	277.88
712.95	277.40
713.28	276.79
713.61	276.25
713.95	275.67
714.28	275.25
714.61	274.66
714.95	274.10
715.28	273.56
715.61	273.04
715.95	272.59
716.28	272.21
716.61	271.73
716.95	271.24
717.28	270.70
717.61	270.13
717.94	269.68
718.28	269.04
718.61	268.64
718.94	268.25
719.27	267.95
719.61	267.60
719.94	267.14
720.27	266.60
720.60	266.18
720.94	265.70
721.27	265.46
721.60	265.07
721.93	264.81
722.27	264.59
722.60	264.14
722.93	263.74
723.26	263.40
723.59	263.00
723.93	262.72
724.26	262.50
724.59	262.06
724.92	261.68
725.25	261.46
725.59	261.09
725.92	260.71
726.25	260.22
726.58	259.86
726.91	259.46
727.24	259.26
727.57	258.98
727.91	258.74
728.24	258.29
728.57	258.02
728.90	257.60
729.23	257.10
729.56	256.90
729.89	256.51
730.22	256.01
730.55	255.76
730.89	255.50
731.22	255.18
731.55	255.06
731.88	254.74
732.21	254.39
732.54	254.01
732.87	253.79
733.20	253.56
733.53	253.25
733.86	253.06
734.19	252.70
734.52	252.36
734.85	252.23
735.18	252.01
735.51	251.68
735.84	251.43
736.17	251.22
736.50	250.85
736.83	250.75
737.16	250.61
737.49	250.25
737.82	249.93
738.15	249.64
738.48	249.32
738.81	249.16
739.14	248.86
739.47	248.62
739.80	248.36
740.13	248.07
740.46	247.62
740.79	247.39
741.12	247.21
741.45	247.00
741.78	246.75
742.11	246.51
742.44	246.35
742.77	246.13
743.10	245.89
743.43	245.86
743.75	245.54
744.08	245.57
744.41	245.45
744.74	245.24
745.07	245.02
745.40	244.90
745.73	244.72
746.06	244.60
746.39	244.49
746.71	244.30
747.04	244.22
747.37	244.25
747.70	244.13
748.03	243.96
748.36	243.82
748.68	243.60
749.01	243.47
749.34	243.24
749.67	243.16
750.00	243.08
750.33	243.06
750.65	242.98
750.98	242.68
751.31	242.50
751.64	242.37
751.97	242.47
752.29	242.24
752.62	242.06
752.95	241.97
753.28	241.92
753.60	241.80
753.93	241.64
754.26	241.54
754.59	241.31
754.91	241.24
755.24	241.20
755.57	241.18
755.90	241.00
756.22	240.92
756.55	240.80
756.88	240.67
757.20	240.46
757.53	240.33
757.86	240.10
758.19	240.02
758.51	239.78
758.84	239.58
759.17	239.55
759.49	239.59
759.82	239.46
760.15	239.22
760.47	239.10
760.80	239.03
761.13	238.92
761.45	238.84
761.78	238.77
762.11	238.55
762.43	238.33
762.76	238.26
763.08	238.19
763.41	238.10
763.74	238.13
764.06	237.84
764.39	237.65
764.71	237.70
765.04	237.57
765.37	237.57
765.69	237.47
766.02	237.44
766.34	237.21
766.67	237.19
767.00	237.20
767.32	237.15
767.65	237.12
767.97	237.01
768.30	236.91
768.62	236.75
768.95	236.67
769.27	236.56
769.60	236.44
769.92	236.33
770.25	236.17
770.57	235.93
770.90	235.92
771.22	235.89
771.55	235.78
771.87	235.75
772.20	235.73
772.52	235.72
772.85	235.76
773.17	235.65
773.50	235.53
773.82	235.43
774.15	235.33
774.47	235.15
774.80	235.03
775.12	234.96
775.45	234.91
775.77	234.82
776.09	234.72
776.42	234.72
776.74	234.72
777.07	234.61
777.39	234.54
777.72	234.43
778.04	234.34
778.36	234.21
778.69	234.21
779.01	234.12
779.33	233.81
779.66	233.57
779.98	233.56
780.31	233.43
780.63	233.40
780.95	233.38
781.28	233.25
781.60	233.20
781.92	233.15
782.25	233.11
782.57	233.11
782.89	233.15
783.22	233.13
783.54	232.98
783.86	232.96
784.19	232.91
784.51	232.96
784.83	232.89
785.16	232.81
785.48	232.63
785.80	232.55
786.12	232.68
786.45	232.50
786.77	232.38
787.09	232.34
787.42	232.23
787.74	232.18
788.06	232.19
788.38	232.14
788.71	232.10
789.03	232.00
789.35	231.95
789.67	231.82
789.99	231.74
790.32	231.76
790.64	231.79
790.96	231.96
791.28	231.91
791.61	231.92
791.93	231.93
792.25	231.95
792.57	232.05
792.89	231.85
793.21	232.00
793.54	232.01
793.86	231.97
794.18	232.00
794.50	231.95
794.82	231.95
795.14	231.99
795.47	232.00
795.79	232.11
796.11	232.08
796.43	232.07
796.75	232.11
797.07	232.09
797.39	232.00
797.71	231.75
798.04	231.65
798.36	231.67
798.68	231.57
799.00	231.58
799.32	231.45
799.64	231.45
799.96	231.39
800.28	231.46
800.60	231.38
800.92	231.33
801.24	231.27
801.56	231.26
801.89	231.15
802.21	231.10
802.53	230.99
802.85	230.98
803.17	231.07
803.49	230.94
803.81	230.88
804.13	230.81
804.45	230.86
804.77	230.86
805.09	230.80
805.41	230.89
805.73	230.84
806.05	230.84
806.37	230.90
806.69	230.78
807.01	230.68
807.33	230.70
807.65	230.63
807.97	230.66
808.28	230.66
808.60	230.59
808.92	230.52
809.24	230.52
809.56	230.46
809.88	230.31
810.20	230.31
810.52	230.40
810.84	230.37
811.16	230.28
811.48	230.23
811.80	230.21
812.12	230.06
812.43	230.04
812.75	230.01
813.07	230.00
813.39	230.02
813.71	230.00
814.03	229.99
814.35	229.82
814.67	229.81
814.98	229.67
815.30	229.76
815.62	229.77
815.94	229.70
816.26	229.76
816.58	229.75
816.89	229.69
817.21	229.55
817.53	229.55
817.85	229.65
818.17	229.67
818.48	229.63
818.80	229.66
819.12	229.54
819.44	229.50
819.76	229.38
820.07	229.37
820.39	229.36
820.71	229.30
821.03	229.40
821.34	229.37
821.66	229.44
821.98	229.44
822.30	229.31
822.61	229.33
822.93	229.29
823.25	229.23
823.57	229.25
823.88	229.20
824.20	229.10
824.52	228.94
824.83	228.86
825.15	228.76
825.47	228.73
825.79	228.72
826.10	228.77
826.42	228.75
826.74	228.65
827.05	228.52
827.37	228.56
827.69	228.60
828.00	228.54
828.32	228.45
828.64	228.43
828.95	228.64
829.27	228.58
829.58	228.50
829.90	228.55
830.22	228.51
830.53	228.52
830.85	228.64
831.17	228.62
831.48	228.69
831.80	228.79
832.11	228.72
832.43	228.79
832.75	228.75
833.06	228.88
833.38	228.96
833.69	229.00
834.01	228.91
834.32	228.85
834.64	228.78
834.96	228.81
835.27	228.78
835.59	228.68
835.90	228.70
836.22	228.65
836.53	228.62
836.85	228.63
837.16	228.85
837.48	228.75
837.79	228.80
838.11	228.77
838.42	228.76
838.74	228.82
839.05	228.79
839.37	228.69
839.68	228.52
840.00	228.49
840.31	228.58
840.63	228.68
840.94	228.64
841.26	228.70
841.57	228.70
841.88	228.70
842.20	228.67
842.51	228.65
842.83	228.63
843.14	228.74
843.46	228.75
843.77	228.58
844.08	228.72
844.40	228.71
844.71	228.74
845.03	228.68
845.34	228.70
845.65	228.69
845.97	228.75
846.28	228.78
846.60	228.85
846.91	228.81
847.22	228.80
847.54	228.90
847.85	228.84
848.16	228.82
848.48	228.77
848.79	228.93
849.10	228.96
849.42	229.08
849.73	228.93
850.04	228.95
850.36	228.98
850.67	229.02
850.98	229.05
851.30	228.94
851.61	228.95
851.92	228.96
852.23	229.01
852.55	229.04
852.86	229.06
853.17	229.04
853.49	229.04
853.80	229.03
854.11	229.03
854.42	229.03
854.74	229.00
855.05	229.02
855.36	228.80
855.67	228.77
855.99	228.75
856.30	228.97
856.61	228.89
856.92	228.80
857.23	228.67
857.55	228.55
857.86	228.51
858.17	228.57
858.48	228.44
858.79	228.39
859.11	228.48
859.42	228.29
859.73	228.26
860.04	228.31
860.35	228.21
860.66	228.04
860.98	228.07
861.29	228.12
861.60	228.15
861.91	228.20
862.22	228.06
862.53	227.98
862.84	227.78
863.16	227.86
863.47	227.78
863.78	227.80
864.09	227.85
864.40	227.84
864.71	227.76
865.02	227.87
865.33	227.81
865.64	227.64
865.95	227.82
866.27	227.89
866.58	227.85
866.89	227.94
867.20	228.05
867.51	228.00
867.82	227.89
868.13	227.89
868.44	227.79
868.75	227.90
869.06	227.95
869.37	227.94
869.68	227.84
869.99	227.79
870.30	227.79
870.61	227.81
870.92	227.87
871.23	227.84
871.54	227.80
871.85	227.89
872.16	227.87
872.47	227.92
872.78	227.79
873.09	227.73
873.40	227.72
873.71	227.62
874.02	227.69
874.33	227.69
874.64	227.57
874.95	227.65
875.26	227.66
875.56	227.61
875.87	227.55
876.18	227.68
876.49	227.99
876.80	227.93
877.11	227.85
877.42	227.82
877.73	227.80
878.04	227.83
878.35	227.79
878.66	227.93
878.96	227.87
879.27	227.93
879.58	227.90
879.89	227.82
880.20	227.95
880.51	227.92
880.82	228.05
881.12	228.11
881.43	228.20
881.74	228.21
882.05	228.22
882.36	228.24
882.67	228.25
882.97	228.00
883.28	228.09
883.59	228.19
883.90	228.28
884.21	228.42
884.51	228.43
884.82	228.53
885.13	228.48
885.44	228.53
885.74	228.55
886.05	228.63
886.36	228.76
886.67	228.65
886.98	228.75
887.28	228.69
887.59	228.76
887.90	228.66
888.20	228.70
888.51	228.86
888.82	228.91
889.13	228.90
889.43	229.17
889.74	229.09
890.05	229.07
890.35	229.09
890.66	229.00
890.97	228.90
891.28	228.82
891.58	228.80
891.89	228.66
892.20	228.65
892.50	228.68
892.81	228.61
893.12	228.71
893.42	228.70
893.73	228.83
894.04	228.88
894.34	228.91
894.65	228.77
894.95	228.62
895.26	228.73
895.57	228.83
895.87	228.60
896.18	228.68
896.48	228.70
896.79	228.61
897.10	228.61
897.40	228.67
897.71	228.73
898.01	228.81
898.32	228.86
898.63	228.88
898.93	228.83
899.24	228.82
899.54	228.70
899.85	228.61
900.15	228.50
900.46	228.38
900.76	228.32
901.07	228.36
901.38	228.25
901.68	228.13
901.99	227.97
902.29	228.03
902.60	228.09
902.90	228.07
903.21	228.04
903.51	228.04
903.82	228.13
904.12	228.12
904.43	228.08
904.73	228.10
905.03	228.08
905.34	228.18
905.64	228.03
905.95	228.03
906.25	228.04
906.56	228.02
906.86	228.07
907.17	228.14
907.47	228.11
907.77	228.12
908.08	228.06
908.38	228.08
908.69	228.02
908.99	227.93
909.30	227.91
909.60	227.96
909.90	227.90
910.21	227.70
910.51	227.58
910.81	227.52
911.12	227.47
911.42	227.26
911.73	227.08
912.03	227.16
912.33	227.13
912.64	227.18
912.94	227.11
913.24	227.01
913.55	226.91
913.85	226.92
914.15	226.97
914.46	227.00
914.76	226.97
915.06	226.97
915.37	226.88
915.67	226.84
915.97	226.73
916.27	226.81
916.58	226.87
916.88	226.90
917.18	226.85
917.49	227.02
917.79	227.11
918.09	227.17
918.39	227.16
918.70	227.29
919.00	227.18
919.30	227.38
919.60	227.46
919.91	227.44
920.21	227.52
920.51	227.50
920.81	227.44
921.12	227.51
921.42	227.50
921.72	227.56
922.02	227.63
922.32	227.70
922.63	227.72
922.93	227.90
923.23	228.00
923.53	228.00
923.83	227.82
924.13	227.90
924.44	227.95
924.74	228.08
925.04	228.09
925.34	228.13
925.64	228.03
925.94	228.06
926.24	228.32
926.55	228.22
926.85	228.29
927.15	228.33
927.45	228.28
927.75	228.30
928.05	228.35
928.35	228.39
928.65	228.51
928.95	228.50
929.26	228.42
929.56	228.38
929.86	228.47
930.16	228.42
930.46	228.47
930.76	228.43
931.06	228.34
931.36	228.20
931.66	228.25
931.96	228.26
932.26	228.25
932.56	228.02
932.86	228.10
933.16	228.11
933.46	228.14
933.76	228.15
934.06	228.20
934.36	228.18
934.66	228.12
934.96	228.07
935.26	228.05
935.56	228.02
935.86	228.08
936.16	228.00
936.46	228.15
936.76	228.13
937.06	228.20
937.36	228.29
937.66	228.45
937.96	228.40
938.26	228.41
938.56	228.40
938.86	228.34
939.16	228.38
939.46	228.38
939.76	228.39
940.06	228.35
940.35	228.28
940.65	228.16
940.95	228.20
941.25	228.14
941.55	228.22
941.85	228.25
942.15	228.20
942.45	228.30
942.75	228.27
943.04	228.24
943.34	228.29
943.64	228.17
943.94	228.24
944.24	228.31
944.54	228.22
944.84	228.16
945.13	228.23
945.43	228.28
945.73	228.21
946.03	228.21
946.33	228.25
946.62	228.30
946.92	228.37
947.22	228.36
947.52	228.38
947.82	228.36
948.11	228.23
948.41	228.27
948.71	228.17
949.01	228.14
949.31	228.07
949.60	227.91
949.90	228.01
950.20	227.86
950.50	227.87
950.79	227.97
951.09	228.01
951.39	228.02
951.69	227.95
951.98	228.00
952.28	228.02
952.58	227.95
952.87	227.87
953.17	227.91
953.47	227.93
953.76	227.86
954.06	227.80
954.36	227.80
954.66	227.75
954.95	227.89
955.25	227.89
955.55	227.95
955.84	228.00
956.14	227.96
956.44	227.95
956.73	227.94
957.03	227.86
957.32	227.89
957.62	227.87
957.92	227.87
958.21	227.92
958.51	228.15
958.81	228.17
959.10	228.22
959.40	228.16
959.69	228.17
959.99	228.34
960.29	228.30
960.58	228.48
960.88	228.50
961.17	228.33
961.47	228.40
961.76	228.46
962.06	228.50
962.36	228.46
962.65	228.47
962.95	228.40
963.24	228.43
963.54	228.41
963.83	228.47
964.13	228.48
964.42	228.35
964.72	228.20
965.01	228.27
965.31	228.23
965.60	228.31
965.90	228.35
966.19	228.22
966.49	228.19
966.78	228.03
967.08	228.06
967.37	228.20
967.67	228.15
967.96	228.21
968.26	228.29
968.55	228.42
968.85	228.39
969.14	228.49
969.43	228.44
969.73	228.46
970.02	228.48
970.32	228.46
970.61	228.57
970.91	228.44
971.20	228.46
971.49	228.56
971.79	228.56
972.08	228.48
972.38	228.61
972.67	228.64
972.96	228.69
973.26	228.67
973.55	228.70
973.85	228.73
974.14	228.59
974.43	228.63
974.73	228.64
975.02	228.72
975.31	228.62
975.61	228.76
975.90	228.85
976.19	228.76
976.49	228.83
976.78	228.83
977.07	228.94
977.37	228.98
977.66	228.98
977.95	228.96
978.24	229.03
978.54	228.99
978.83	229.02
979.12	229.04
979.42	229.09
979.71	229.09
980.00	229.06
980.29	229.13
980.59	229.02
980.88	229.07
981.17	229.12
981.46	229.21
981.76	229.15
982.05	229.23
982.34	229.29
982.63	229.33
982.93	229.35
983.22	229.34
983.51	229.20
983.80	229.16
984.09	229.10
984.39	229.00
984.68	228.96
984.97	228.96
985.26	228.88
985.55	228.77
985.85	228.72
986.14	228.83
986.43	228.89
986.72	228.81
987.01	228.69
987.30	228.62
987.59	228.56
987.89	228.55
988.18	228.30
988.47	228.33
988.76	228.27
989.05	228.25
989.34	228.20
989.63	228.32
989.92	228.24
990.22	228.24
990.51	228.28
990.80	228.18
991.09	228.23
991.38	228.30
991.67	228.25
991.96	228.13
992.25	228.06
992.54	227.90
992.83	227.85
993.12	227.81
993.41	227.80
993.70	227.87
993.99	227.87
994.28	227.93
994.58	227.90
994.87	227.80
995.16	227.75
995.45	227.66
995.74	227.57
996.03	227.64
996.32	227.65
996.61	227.66
996.90	227.68
997.19	227.56
997.48	227.52
997.77	227.48
998.06	227.55
998.34	227.59
998.63	227.61
998.92	227.65
999.21	227.53
999.50	227.46
999.79	227.26
1000.08	227.19
1000.37	227.09
1000.66	227.08
1000.95	227.16
1001.24	227.16
1001.53	227.16
1001.82	227.13
1002.11	227.15
1002.40	227.16
1002.68	227.23
1002.97	227.46
1003.26	227.50
1003.55	227.58
1003.84	227.73
1004.13	227.78
1004.42	227.68
1004.71	227.71
1004.99	227.80
1005.28	227.97
1005.57	228.02
1005.86	228.09
1006.15	228.17
1006.44	228.25
1006.72	228.27
1007.01	228.24
1007.30	228.20
1007.59	228.29
1007.88	228.32
1008.17	228.39
1008.45	228.42
1008.74	228.31
1009.03	228.16
1009.32	228.21
1009.60	228.13
1009.89	228.18
1010.18	228.17
1010.47	228.30
1010.76	228.28
1011.04	228.20
1011.33	228.27
1011.62	228.32
1011.91	228.38
1012.19	228.37
1012.48	228.32
1012.77	228.35
1013.05	228.47
1013.34	228.64
1013.63	228.73
1013.92	228.81
1014.20	228.70
1014.49	228.70
1014.78	228.76
1015.06	228.82
1015.35	228.87
1015.64	229.02
1015.92	229.00
1016.21	229.01
1016.50	229.04
1016.78	229.17
1017.07	229.18
1017.36	229.17
1017.64	229.08
1017.93	229.11
1018.22	229.06
1018.50	229.10
1018.79	229.10
1019.08	229.00
1019.36	228.91
1019.65	228.85
1019.93	228.83
1020.22	228.87
1020.51	229.00
1020.79	229.06
1021.08	227.10
1021.36	227.90
1021.65	228.70
1021.94	228.30
1022.22	228.80
1022.51	228.90
1022.79	228.80
1023.08	228.60
1023.36	231.40
1023.65	229.30
>>>>>End Processed Spectral Data<<<<<
