SpectraSuite Data File
++++++++++++++++++++++++++++++++++++
Date: Fri Feb 01 14:35:27 EST 2013
User: group
Dark Spectrum Present: No
Reference Spectrum Present: No
Number of Sampled Component Spectra: 1
Spectrometers: USB2E7196
Integration Time (usec): 70000 (USB2E7196)
Spectra Averaged: 10 (USB2E7196)
Boxcar Smoothing: 10 (USB2E7196)
Correct for Electrical Dark: No (USB2E7196)
Strobe/Lamp Enabled: No (USB2E7196)
Correct for Detector Non-linearity: No (USB2E7196)
Correct for Stray Light: No (USB2E7196)
Number of Pixels in Processed Spectrum: 2048
>>>>>Begin Processed Spectral Data<<<<<
339.09	0.00
339.48	216.50
339.86	218.40
340.24	220.00
340.63	220.70
341.01	223.70
341.39	223.20
341.78	225.80
342.16	226.70
342.54	225.60
342.93	214.53
343.31	225.35
343.69	225.95
344.07	226.33
344.46	226.74
344.84	227.12
345.22	227.24
345.60	227.47
345.99	227.57
346.37	227.69
346.75	227.84
347.13	227.79
347.52	227.93
347.90	228.08
348.28	228.11
348.66	228.21
349.05	228.14
349.43	228.20
349.81	228.30
350.19	228.29
350.57	228.30
350.96	228.44
351.34	228.51
351.72	228.46
352.10	228.50
352.48	228.48
352.87	228.44
353.25	228.53
353.63	228.63
354.01	228.63
354.39	228.76
354.77	228.78
355.15	228.91
355.54	229.00
355.92	229.01
356.30	229.04
356.68	229.18
357.06	229.25
357.44	229.36
357.82	229.48
358.20	229.60
358.58	229.63
358.97	229.69
359.35	229.80
359.73	229.88
360.11	230.08
360.49	230.26
360.87	230.46
361.25	230.59
361.63	230.62
362.01	230.79
362.39	230.65
362.77	230.73
363.15	230.84
363.53	230.76
363.91	230.75
364.29	230.75
364.67	230.60
365.05	230.64
365.43	230.57
365.81	230.56
366.19	230.73
366.57	230.73
366.95	230.71
367.33	230.68
367.71	230.71
368.09	230.54
368.47	230.38
368.85	230.30
369.23	230.35
369.61	230.21
369.99	230.17
370.37	230.29
370.75	230.36
371.13	230.20
371.51	230.20
371.89	230.17
372.27	230.28
372.65	230.22
373.03	230.11
373.41	230.08
373.78	230.02
374.16	229.74
374.54	229.67
374.92	229.54
375.30	229.43
375.68	229.29
376.06	229.26
376.44	229.26
376.82	229.12
377.19	229.01
377.57	229.07
377.95	228.95
378.33	228.81
378.71	228.59
379.09	228.58
379.47	228.49
379.84	228.35
380.22	228.21
380.60	228.09
380.98	228.05
381.36	227.91
381.73	227.74
382.11	227.80
382.49	227.75
382.87	227.72
383.25	227.63
383.62	227.81
384.00	227.79
384.38	227.66
384.76	227.66
385.13	227.53
385.51	227.50
385.89	227.34
386.27	227.25
386.64	227.28
387.02	227.15
387.40	227.16
387.78	227.21
388.15	227.12
388.53	227.08
388.91	227.04
389.29	227.06
389.66	227.12
390.04	227.09
390.42	227.16
390.79	227.13
391.17	227.11
391.55	226.94
391.92	226.97
392.30	227.09
392.68	227.11
393.05	227.14
393.43	227.04
393.81	227.20
394.18	227.18
394.56	227.06
394.94	227.23
395.31	227.28
395.69	227.29
396.06	227.44
396.44	227.48
396.82	227.56
397.19	227.80
397.57	227.86
397.95	227.90
398.32	227.90
398.70	228.01
399.07	228.29
399.45	228.49
399.82	228.61
400.20	228.70
400.58	228.82
400.95	228.92
401.33	229.23
401.70	229.50
402.08	229.77
402.45	230.08
402.83	230.23
403.20	230.35
403.58	230.64
403.95	230.83
404.33	231.06
404.71	231.30
405.08	231.61
405.46	231.85
405.83	232.12
406.21	232.39
406.58	232.81
406.96	233.06
407.33	233.39
407.70	233.73
408.08	234.24
408.45	234.71
408.83	235.26
409.20	235.64
409.58	235.96
409.95	236.55
410.33	237.21
410.70	237.72
411.08	238.42
411.45	238.94
411.82	239.60
412.20	240.46
412.57	241.38
412.95	242.10
413.32	243.06
413.69	244.07
414.07	245.19
414.44	246.26
414.82	247.35
415.19	248.63
415.56	250.04
415.94	251.42
416.31	252.98
416.68	254.49
417.06	256.26
417.43	258.03
417.81	259.90
418.18	261.77
418.55	264.03
418.93	266.44
419.30	268.90
419.67	271.42
420.04	274.01
420.42	276.64
420.79	279.75
421.16	282.84
421.54	286.08
421.91	289.33
422.28	292.72
422.66	296.39
423.03	299.91
423.40	303.61
423.77	307.47
424.15	311.46
424.52	315.63
424.89	320.15
425.26	324.60
425.64	328.90
426.01	333.50
426.38	338.23
426.75	342.96
427.13	348.01
427.50	353.28
427.87	358.56
428.24	364.08
428.61	369.18
428.99	374.81
429.36	381.10
429.73	387.19
430.10	393.26
430.47	399.22
430.85	405.65
431.22	412.38
431.59	419.50
431.96	426.43
432.33	433.97
432.70	441.13
433.08	449.73
433.45	457.55
433.82	465.59
434.19	474.60
434.56	483.13
434.93	491.25
435.30	499.56
435.68	508.88
436.05	517.70
436.42	526.73
436.79	534.91
437.16	543.47
437.53	552.52
437.90	561.80
438.27	571.17
438.64	580.49
439.01	589.11
439.38	596.96
439.75	604.25
440.13	613.00
440.50	621.13
440.87	627.71
441.24	634.94
441.61	642.76
441.98	648.43
442.35	655.45
442.72	662.33
443.09	669.09
443.46	673.42
443.83	676.49
444.20	679.32
444.57	683.37
444.94	685.62
445.31	688.33
445.68	690.50
446.05	692.08
446.42	692.26
446.79	692.26
447.16	692.04
447.53	692.51
447.90	690.09
448.27	687.90
448.64	684.24
449.01	681.88
449.37	676.82
449.74	672.04
450.11	666.00
450.48	659.40
450.85	652.48
451.22	646.82
451.59	641.41
451.96	636.27
452.33	628.89
452.70	622.37
453.07	613.98
453.43	605.80
453.80	597.81
454.17	590.00
454.54	582.60
454.91	574.77
455.28	566.85
455.65	559.54
456.02	552.10
456.38	545.70
456.75	537.47
457.12	530.73
457.49	523.94
457.86	517.37
458.23	511.99
458.59	505.65
458.96	499.18
459.33	493.68
459.70	488.03
460.07	483.46
460.43	478.29
460.80	473.30
461.17	468.82
461.54	464.04
461.91	459.60
462.27	455.24
462.64	451.21
463.01	446.87
463.38	442.73
463.74	438.55
464.11	434.94
464.48	431.92
464.85	428.40
465.21	425.64
465.58	422.86
465.95	419.31
466.32	416.46
466.68	413.55
467.05	410.80
467.42	407.70
467.78	404.68
468.15	401.53
468.52	399.49
468.88	396.80
469.25	394.47
469.62	392.43
469.98	390.17
470.35	388.18
470.72	386.23
471.08	384.11
471.45	382.33
471.82	380.43
472.18	378.47
472.55	377.11
472.92	375.41
473.28	373.90
473.65	372.33
474.02	370.99
474.38	369.73
474.75	368.43
475.11	367.33
475.48	366.37
475.85	365.68
476.21	364.70
476.58	364.02
476.94	363.34
477.31	362.64
477.67	361.82
478.04	361.29
478.41	361.03
478.77	360.70
479.14	360.27
479.50	359.98
479.87	359.59
480.23	359.39
480.60	359.17
480.96	358.87
481.33	359.01
481.69	358.95
482.06	358.93
482.42	359.02
482.79	359.19
483.15	359.42
483.52	359.97
483.88	360.27
484.25	360.48
484.61	360.75
484.98	361.25
485.34	362.09
485.71	362.87
486.07	363.53
486.44	364.20
486.80	365.03
487.17	366.11
487.53	367.37
487.90	368.38
488.26	369.65
488.62	370.81
488.99	371.86
489.35	373.21
489.72	374.60
490.08	376.06
490.44	377.52
490.81	379.19
491.17	380.67
491.54	382.49
491.90	384.15
492.26	385.98
492.63	387.90
492.99	389.60
493.36	391.36
493.72	393.50
494.08	395.49
494.45	397.77
494.81	399.92
495.17	402.14
495.54	404.49
495.90	406.71
496.26	409.15
496.63	411.72
496.99	414.39
497.35	417.12
497.72	419.68
498.08	422.31
498.44	425.05
498.80	428.00
499.17	430.89
499.53	433.79
499.89	436.75
500.26	439.40
500.62	442.25
500.98	445.25
501.34	447.92
501.71	450.90
502.07	453.63
502.43	456.45
502.79	459.23
503.16	461.96
503.52	464.67
503.88	467.35
504.24	470.10
504.60	472.61
504.97	475.34
505.33	478.12
505.69	481.04
506.05	483.56
506.41	485.64
506.78	487.94
507.14	490.37
507.50	492.75
507.86	495.33
508.22	497.80
508.59	499.90
508.95	502.32
509.31	504.82
509.67	507.28
510.03	509.46
510.39	511.52
510.75	513.55
511.12	515.63
511.48	517.74
511.84	519.67
512.20	521.59
512.56	523.20
512.92	524.79
513.28	526.20
513.64	527.60
514.00	529.33
514.37	530.81
514.73	532.23
515.09	533.60
515.45	534.87
515.81	536.19
516.17	537.63
516.53	538.67
516.89	539.58
517.25	540.54
517.61	541.58
517.97	542.76
518.33	543.83
518.69	544.69
519.05	545.67
519.41	546.65
519.77	547.68
520.13	548.70
520.49	549.55
520.85	550.61
521.21	551.53
521.57	552.45
521.93	553.36
522.29	554.52
522.65	555.37
523.01	556.05
523.37	556.58
523.73	557.40
524.09	558.29
524.45	559.14
524.81	559.99
525.17	561.00
525.53	562.00
525.89	562.83
526.25	564.06
526.61	564.83
526.97	566.06
527.33	567.13
527.68	568.48
528.04	569.83
528.40	571.08
528.76	572.65
529.12	573.93
529.48	575.20
529.84	576.14
530.20	577.48
530.56	579.14
530.91	581.16
531.27	582.88
531.63	584.53
531.99	586.35
532.35	587.90
532.71	589.74
533.07	591.35
533.42	593.48
533.78	595.50
534.14	597.78
534.50	599.41
534.86	601.27
535.21	602.95
535.57	605.08
535.93	607.20
536.29	609.40
536.65	611.72
537.00	614.06
537.36	616.73
537.72	619.24
538.08	621.80
538.44	624.28
538.79	626.66
539.15	629.02
539.51	631.57
539.87	634.46
540.22	637.20
540.58	640.28
540.94	642.74
541.29	645.53
541.65	648.37
542.01	651.74
542.37	655.00
542.72	658.13
543.08	661.30
543.44	664.23
543.79	666.93
544.15	670.19
544.51	673.46
544.87	676.55
545.22	679.79
545.58	682.84
545.94	685.81
546.29	689.13
546.65	692.56
547.01	695.78
547.36	699.06
547.72	702.29
548.07	705.44
548.43	709.03
548.79	712.24
549.14	715.34
549.50	718.40
549.86	721.30
550.21	724.69
550.57	727.95
550.92	731.40
551.28	734.99
551.64	738.37
551.99	741.63
552.35	744.96
552.70	748.21
553.06	751.60
553.41	754.93
553.77	758.34
554.13	761.87
554.48	765.30
554.84	768.48
555.19	771.80
555.55	775.09
555.90	778.29
556.26	781.42
556.61	784.90
556.97	788.00
557.32	791.60
557.68	794.75
558.03	797.96
558.39	801.08
558.74	804.40
559.10	807.46
559.45	810.72
559.81	814.29
560.16	817.57
560.52	820.69
560.87	824.34
561.23	827.44
561.58	830.59
561.94	834.14
562.29	837.13
562.64	840.08
563.00	843.09
563.35	846.51
563.71	850.01
564.06	852.94
564.42	856.17
564.77	859.08
565.12	862.17
565.48	865.24
565.83	868.30
566.19	871.18
566.54	873.95
566.89	876.70
567.25	879.24
567.60	882.35
567.96	885.25
568.31	887.63
568.66	890.09
569.02	892.40
569.37	894.49
569.72	897.00
570.08	899.28
570.43	901.32
570.78	903.06
571.14	904.64
571.49	906.80
571.84	908.72
572.20	910.59
572.55	912.30
572.90	913.97
573.26	915.84
573.61	917.41
573.96	918.96
574.31	920.34
574.67	921.31
575.02	921.93
575.37	922.86
575.72	923.24
576.08	924.29
576.43	925.26
576.78	925.92
577.13	926.84
577.49	928.01
577.84	928.78
578.19	929.62
578.54	930.52
578.90	930.93
579.25	930.95
579.60	931.50
579.95	931.55
580.30	931.45
580.66	931.16
581.01	930.95
581.36	930.80
581.71	930.64
582.06	930.88
582.42	930.77
582.77	930.78
583.12	931.20
583.47	931.23
583.82	931.11
584.17	930.69
584.53	930.34
584.88	929.63
585.23	929.25
585.58	928.76
585.93	928.25
586.28	927.81
586.63	927.59
586.98	926.96
587.34	926.70
587.69	926.24
588.04	925.70
588.39	925.44
588.74	924.50
589.09	923.69
589.44	922.79
589.79	922.20
590.14	921.43
590.49	920.31
590.84	919.05
591.19	917.90
591.54	916.63
591.89	915.25
592.25	914.04
592.60	912.66
592.95	911.09
593.30	909.35
593.65	907.70
594.00	906.04
594.35	904.77
594.70	902.99
595.05	901.31
595.40	899.52
595.75	897.68
596.10	896.58
596.45	895.21
596.80	893.76
597.15	891.95
597.50	889.99
597.85	888.73
598.19	887.55
598.54	885.88
598.89	884.45
599.24	882.96
599.59	881.13
599.94	879.45
600.29	877.72
600.64	876.21
600.99	874.06
601.34	872.36
601.69	870.12
602.04	868.28
602.39	866.49
602.74	865.04
603.08	863.22
603.43	861.24
603.78	859.24
604.13	856.87
604.48	855.04
604.83	853.23
605.18	850.79
605.53	848.00
605.87	845.42
606.22	843.19
606.57	840.88
606.92	838.76
607.27	836.67
607.62	834.56
607.96	832.26
608.31	830.53
608.66	828.27
609.01	825.88
609.36	823.52
609.70	820.73
610.05	817.65
610.40	815.00
610.75	812.01
611.10	809.34
611.44	806.43
611.79	803.88
612.14	801.25
612.49	798.27
612.83	795.65
613.18	793.12
613.53	790.48
613.88	787.43
614.22	784.23
614.57	781.13
614.92	778.10
615.27	775.33
615.61	772.36
615.96	769.27
616.31	766.55
616.65	763.95
617.00	761.59
617.35	759.24
617.70	756.38
618.04	753.60
618.39	750.75
618.74	748.29
619.08	745.16
619.43	742.35
619.78	739.76
620.12	736.80
620.47	734.01
620.82	731.01
621.16	728.49
621.51	726.21
621.85	723.45
622.20	720.60
622.55	717.80
622.89	714.91
623.24	712.47
623.59	709.63
623.93	706.65
624.28	703.80
624.62	701.01
624.97	698.45
625.32	696.04
625.66	693.48
626.01	690.80
626.35	688.00
626.70	685.04
627.04	682.51
627.39	679.94
627.73	677.18
628.08	674.61
628.43	671.88
628.77	668.96
629.12	666.24
629.46	663.67
629.81	660.59
630.15	657.99
630.50	655.06
630.84	652.13
631.19	649.20
631.53	646.21
631.88	642.82
632.22	639.80
632.57	637.05
632.91	633.92
633.26	631.06
633.60	628.23
633.95	625.51
634.29	622.68
634.64	620.12
634.98	617.52
635.32	615.12
635.67	612.56
636.01	610.09
636.36	607.65
636.70	605.12
637.05	602.87
637.39	600.13
637.73	597.80
638.08	595.68
638.42	593.34
638.77	591.06
639.11	588.98
639.45	586.63
639.80	584.03
640.14	581.73
640.49	579.36
640.83	576.92
641.17	574.51
641.52	572.04
641.86	569.48
642.20	567.22
642.55	564.62
642.89	562.24
643.23	559.67
643.58	557.54
643.92	555.00
644.26	552.53
644.61	550.43
644.95	547.95
645.29	545.18
645.64	542.67
645.98	540.20
646.32	537.90
646.66	535.52
647.01	533.20
647.35	531.20
647.69	528.85
648.04	526.81
648.38	524.32
648.72	521.81
649.06	519.26
649.41	516.74
649.75	514.19
650.09	511.62
650.43	509.31
650.78	506.61
651.12	504.33
651.46	502.12
651.80	499.64
652.14	497.40
652.49	495.28
652.83	493.14
653.17	490.89
653.51	488.46
653.85	486.00
654.20	483.69
654.54	481.03
654.88	478.62
655.22	476.19
655.56	473.93
655.90	472.00
656.25	469.98
656.59	467.90
656.93	466.00
657.27	463.81
657.61	461.60
657.95	459.55
658.29	457.53
658.64	455.45
658.98	453.49
659.32	451.29
659.66	449.14
660.00	447.00
660.34	444.94
660.68	442.99
661.02	441.17
661.36	439.28
661.70	437.44
662.05	435.76
662.39	434.00
662.73	432.34
663.07	430.41
663.41	428.68
663.75	426.81
664.09	424.82
664.43	423.02
664.77	421.17
665.11	419.38
665.45	417.52
665.79	415.63
666.13	413.81
666.47	412.20
666.81	410.50
667.15	408.81
667.49	407.10
667.83	405.71
668.17	403.86
668.51	402.17
668.85	400.55
669.19	399.10
669.53	397.41
669.87	395.68
670.21	394.12
670.55	392.45
670.89	391.06
671.23	389.69
671.57	388.50
671.91	387.19
672.25	385.84
672.58	384.60
672.92	383.32
673.26	382.07
673.60	380.68
673.94	379.45
674.28	378.22
674.62	377.17
674.96	375.75
675.30	374.60
675.64	373.13
675.97	371.89
676.31	370.44
676.65	369.12
676.99	367.97
677.33	366.68
677.67	365.48
678.01	364.01
678.34	362.76
678.68	361.54
679.02	360.32
679.36	359.06
679.70	357.67
680.04	356.33
680.37	355.01
680.71	353.83
681.05	352.66
681.39	351.56
681.73	350.39
682.06	349.20
682.40	348.16
682.74	347.27
683.08	346.30
683.42	345.27
683.75	344.35
684.09	343.25
684.43	342.11
684.77	340.97
685.10	340.03
685.44	338.91
685.78	337.72
686.12	336.75
686.45	335.68
686.79	334.77
687.13	333.98
687.46	332.80
687.80	331.74
688.14	330.68
688.48	329.65
688.81	328.40
689.15	327.37
689.49	326.30
689.82	325.28
690.16	324.17
690.50	323.23
690.83	322.11
691.17	321.04
691.51	320.20
691.84	319.43
692.18	318.51
692.52	317.51
692.85	316.54
693.19	315.53
693.52	314.62
693.86	313.63
694.20	312.66
694.53	311.95
694.87	311.09
695.21	310.08
695.54	309.07
695.88	308.15
696.21	307.30
696.55	306.44
696.88	305.65
697.22	304.70
697.56	303.75
697.89	302.81
698.23	302.08
698.56	301.19
698.90	300.22
699.23	299.42
699.57	298.64
699.90	297.84
700.24	297.08
700.58	296.40
700.91	295.59
701.25	294.86
701.58	294.09
701.92	293.33
702.25	292.72
702.59	292.06
702.92	291.56
703.26	290.89
703.59	290.17
703.93	289.55
704.26	289.00
704.60	288.33
704.93	287.86
705.26	287.15
705.60	286.55
705.93	286.05
706.27	285.44
706.60	284.98
706.94	284.34
707.27	283.70
707.61	282.96
707.94	282.48
708.27	281.84
708.61	281.18
708.94	280.67
709.28	280.08
709.61	279.53
709.94	278.86
710.28	278.30
710.61	277.87
710.95	277.26
711.28	276.81
711.61	276.30
711.95	275.71
712.28	275.18
712.61	274.67
712.95	274.13
713.28	273.60
713.61	273.06
713.95	272.52
714.28	272.04
714.61	271.60
714.95	271.10
715.28	270.64
715.61	270.30
715.95	269.83
716.28	269.34
716.61	268.84
716.95	268.47
717.28	268.14
717.61	267.60
717.94	267.10
718.28	266.52
718.61	266.08
718.94	265.72
719.27	265.39
719.61	265.05
719.94	264.58
720.27	264.06
720.60	263.63
720.94	263.31
721.27	263.01
721.60	262.70
721.93	262.29
722.27	261.95
722.60	261.51
722.93	261.26
723.26	261.02
723.59	260.68
723.93	260.32
724.26	259.95
724.59	259.72
724.92	259.45
725.25	259.21
725.59	258.86
725.92	258.55
726.25	258.21
726.58	257.79
726.91	257.51
727.24	257.38
727.57	257.19
727.91	256.98
728.24	256.75
728.57	256.43
728.90	256.24
729.23	255.99
729.56	255.82
729.89	255.40
730.22	255.17
730.55	255.02
730.89	254.84
731.22	254.59
731.55	254.28
731.88	254.01
732.21	253.85
732.54	253.65
732.87	253.49
733.20	253.26
733.53	253.21
733.86	253.03
734.19	252.77
734.52	252.49
734.85	252.30
735.18	252.01
735.51	251.84
735.84	251.60
736.17	251.41
736.50	251.10
736.83	251.11
737.16	250.82
737.49	250.58
737.82	250.19
738.15	249.90
738.48	249.60
738.81	249.43
739.14	249.11
739.47	248.89
739.80	248.59
740.13	248.36
740.46	247.92
740.79	247.70
741.12	247.46
741.45	247.21
741.78	247.04
742.11	246.88
742.44	246.60
742.77	246.46
743.10	246.16
743.43	245.87
743.75	245.50
744.08	245.46
744.41	245.30
744.74	245.24
745.07	244.99
745.40	244.82
745.73	244.61
746.06	244.39
746.39	244.19
746.71	243.95
747.04	243.69
747.37	243.57
747.70	243.36
748.03	243.23
748.36	243.00
748.68	242.76
749.01	242.57
749.34	242.42
749.67	242.23
750.00	242.02
750.33	242.08
750.65	241.88
750.98	241.53
751.31	241.37
751.64	241.25
751.97	241.20
752.29	241.07
752.62	240.81
752.95	240.68
753.28	240.56
753.60	240.45
753.93	240.44
754.26	240.34
754.59	240.17
754.91	239.96
755.24	239.85
755.57	239.70
755.90	239.60
756.22	239.57
756.55	239.27
756.88	239.28
757.20	239.04
757.53	238.81
757.86	238.70
758.19	238.52
758.51	238.31
758.84	238.19
759.17	238.09
759.49	238.02
759.82	238.06
760.15	237.91
760.47	237.91
760.80	237.75
761.13	237.71
761.45	237.67
761.78	237.55
762.11	237.55
762.43	237.37
762.76	237.17
763.08	237.05
763.41	237.15
763.74	236.88
764.06	236.85
764.39	236.81
764.71	236.82
765.04	236.80
765.37	236.79
765.69	236.69
766.02	236.59
766.34	236.47
766.67	236.34
767.00	236.41
767.32	236.36
767.65	236.47
767.97	236.38
768.30	236.26
768.62	236.26
768.95	236.20
769.27	236.26
769.60	236.20
769.92	236.08
770.25	235.91
770.57	236.03
770.90	235.85
771.22	235.82
771.55	235.71
771.87	235.64
772.20	235.51
772.52	235.54
772.85	235.73
773.17	235.76
773.50	235.64
773.82	235.55
774.15	235.40
774.47	235.11
774.80	235.00
775.12	234.95
775.45	234.89
775.77	234.74
776.09	234.62
776.42	234.55
776.74	234.42
777.07	234.35
777.39	234.27
777.72	234.31
778.04	234.30
778.36	234.26
778.69	234.20
779.01	234.28
779.33	234.14
779.66	233.94
779.98	233.82
780.31	233.89
780.63	233.78
780.95	233.73
781.28	233.66
781.60	233.51
781.92	233.42
782.25	233.35
782.57	233.23
782.89	233.11
783.22	233.13
783.54	233.09
783.86	233.09
784.19	232.95
784.51	232.80
784.83	232.67
785.16	232.49
785.48	232.42
785.80	232.17
786.12	232.15
786.45	231.96
786.77	231.93
787.09	231.82
787.42	231.76
787.74	231.69
788.06	231.72
788.38	231.72
788.71	231.69
789.03	231.69
789.35	231.79
789.67	231.83
789.99	231.82
790.32	231.86
790.64	231.80
790.96	231.90
791.28	231.87
791.61	231.73
791.93	231.73
792.25	231.65
792.57	231.79
792.89	231.66
793.21	231.68
793.54	231.65
793.86	231.60
794.18	231.64
794.50	231.58
794.82	231.49
795.14	231.56
795.47	231.56
795.79	231.46
796.11	231.32
796.43	231.19
796.75	231.12
797.07	231.10
797.39	231.10
797.71	230.95
798.04	230.93
798.36	231.03
798.68	231.02
799.00	231.06
799.32	230.96
799.64	231.00
799.96	231.00
800.28	230.99
800.60	230.88
800.92	230.82
801.24	230.90
801.56	230.91
801.89	230.84
802.21	230.83
802.53	230.89
802.85	231.02
803.17	231.22
803.49	231.20
803.81	231.08
804.13	231.14
804.45	231.16
804.77	231.18
805.09	231.09
805.41	231.06
805.73	231.01
806.05	231.00
806.37	231.06
806.69	231.05
807.01	231.07
807.33	231.15
807.65	231.02
807.97	230.92
808.28	230.86
808.60	230.95
808.92	230.90
809.24	230.99
809.56	230.90
809.88	230.76
810.20	230.79
810.52	230.87
810.84	230.84
811.16	230.81
811.48	230.81
811.80	230.90
812.12	230.89
812.43	230.90
812.75	230.89
813.07	230.73
813.39	230.81
813.71	230.85
814.03	230.82
814.35	230.94
814.67	230.96
814.98	230.96
815.30	230.84
815.62	230.83
815.94	230.71
816.26	230.72
816.58	230.69
816.89	230.59
817.21	230.55
817.53	230.39
817.85	230.30
818.17	230.31
818.48	230.22
818.80	230.24
819.12	230.18
819.44	230.14
819.76	230.15
820.07	230.01
820.39	229.91
820.71	229.80
821.03	229.71
821.34	229.71
821.66	229.72
821.98	229.68
822.30	229.60
822.61	229.66
822.93	229.50
823.25	229.50
823.57	229.45
823.88	229.41
824.20	229.48
824.52	229.50
824.83	229.40
825.15	229.46
825.47	229.34
825.79	229.32
826.10	229.29
826.42	229.23
826.74	229.22
827.05	229.15
827.37	229.20
827.69	229.17
828.00	229.14
828.32	229.16
828.64	229.18
828.95	229.31
829.27	229.15
829.58	229.25
829.90	229.19
830.22	229.17
830.53	229.09
830.85	229.03
831.17	228.86
831.48	228.83
831.80	228.85
832.11	228.84
832.43	228.82
832.75	228.71
833.06	228.67
833.38	228.51
833.69	228.53
834.01	228.53
834.32	228.55
834.64	228.40
834.96	228.41
835.27	228.35
835.59	228.25
835.90	228.28
836.22	228.18
836.53	228.22
836.85	228.15
837.16	228.33
837.48	228.29
837.79	228.41
838.11	228.39
838.42	228.23
838.74	228.24
839.05	228.24
839.37	228.31
839.68	228.34
840.00	228.39
840.31	228.39
840.63	228.32
840.94	228.29
841.26	228.36
841.57	228.35
841.88	228.41
842.20	228.31
842.51	228.30
842.83	228.36
843.14	228.47
843.46	228.53
843.77	228.44
844.08	228.42
844.40	228.47
844.71	228.47
845.03	228.58
845.34	228.65
845.65	228.72
845.97	228.77
846.28	228.83
846.60	228.89
846.91	228.84
847.22	228.84
847.54	228.92
847.85	229.02
848.16	229.10
848.48	229.10
848.79	229.25
849.10	229.24
849.42	229.20
849.73	228.96
850.04	229.10
850.36	229.06
850.67	229.16
850.98	229.24
851.30	229.28
851.61	229.22
851.92	229.24
852.23	229.15
852.55	229.13
852.86	229.10
853.17	229.08
853.49	229.15
853.80	229.17
854.11	229.15
854.42	229.03
854.74	228.83
855.05	228.77
855.36	228.59
855.67	228.67
855.99	228.63
856.30	228.97
856.61	228.91
856.92	228.87
857.23	228.83
857.55	228.77
857.86	228.76
858.17	228.77
858.48	228.72
858.79	228.75
859.11	228.80
859.42	228.76
859.73	228.73
860.04	228.74
860.35	228.72
860.66	228.65
860.98	228.65
861.29	228.74
861.60	228.69
861.91	228.88
862.22	228.58
862.53	228.60
862.84	228.29
863.16	228.36
863.47	228.29
863.78	228.25
864.09	228.04
864.40	227.94
864.71	227.95
865.02	227.98
865.33	227.98
865.64	227.88
865.95	227.77
866.27	227.86
866.58	227.77
866.89	227.69
867.20	227.65
867.51	227.63
867.82	227.57
868.13	227.60
868.44	227.44
868.75	227.56
869.06	227.53
869.37	227.54
869.68	227.33
869.99	227.42
870.30	227.44
870.61	227.58
870.92	227.64
871.23	227.58
871.54	227.57
871.85	227.61
872.16	227.64
872.47	227.62
872.78	227.54
873.09	227.57
873.40	227.53
873.71	227.51
874.02	227.39
874.33	227.40
874.64	227.37
874.95	227.48
875.26	227.51
875.56	227.50
875.87	227.55
876.18	227.61
876.49	227.70
876.80	227.70
877.11	227.62
877.42	227.57
877.73	227.55
878.04	227.53
878.35	227.48
878.66	227.49
878.96	227.52
879.27	227.55
879.58	227.53
879.89	227.62
880.20	227.76
880.51	227.87
880.82	227.84
881.12	227.96
881.43	227.90
881.74	227.89
882.05	227.89
882.36	227.87
882.67	227.89
882.97	227.73
883.28	227.63
883.59	227.65
883.90	227.70
884.21	227.78
884.51	227.76
884.82	227.80
885.13	227.77
885.44	227.88
885.74	227.99
886.05	228.01
886.36	227.98
886.67	227.90
886.98	228.05
887.28	228.05
887.59	227.96
887.90	227.95
888.20	227.91
888.51	228.00
888.82	228.05
889.13	228.10
889.43	228.24
889.74	228.41
890.05	228.43
890.35	228.44
890.66	228.47
890.97	228.49
891.28	228.50
891.58	228.53
891.89	228.51
892.20	228.43
892.50	228.40
892.81	228.45
893.12	228.39
893.42	228.29
893.73	228.42
894.04	228.40
894.34	228.43
894.65	228.62
894.95	228.57
895.26	228.54
895.57	228.64
895.87	228.56
896.18	228.62
896.48	228.67
896.79	228.74
897.10	228.80
897.40	228.78
897.71	228.77
898.01	228.86
898.32	228.88
898.63	228.84
898.93	228.81
899.24	228.77
899.54	228.72
899.85	228.70
900.15	228.69
900.46	228.74
900.76	228.70
901.07	228.61
901.38	228.65
901.68	228.63
901.99	228.53
902.29	228.48
902.60	228.41
902.90	228.38
903.21	228.31
903.51	228.23
903.82	228.29
904.12	228.24
904.43	228.16
904.73	228.14
905.03	227.98
905.34	228.24
905.64	228.24
905.95	228.40
906.25	228.35
906.56	228.27
906.86	228.19
907.17	228.27
907.47	228.24
907.77	228.12
908.08	228.13
908.38	228.10
908.69	228.09
908.99	228.04
909.30	228.00
909.60	227.94
909.90	227.94
910.21	227.85
910.51	227.92
910.81	227.88
911.12	227.92
911.42	228.11
911.73	227.80
912.03	227.87
912.33	227.79
912.64	227.75
912.94	227.74
913.24	227.73
913.55	227.57
913.85	227.52
914.15	227.65
914.46	227.52
914.76	227.42
915.06	227.41
915.37	227.35
915.67	227.43
915.97	227.43
916.27	227.50
916.58	227.53
916.88	227.43
917.18	227.39
917.49	227.47
917.79	227.46
918.09	227.60
918.39	227.67
918.70	227.83
919.00	227.95
919.30	227.96
919.60	228.04
919.91	228.14
920.21	228.21
920.51	228.16
920.81	228.30
921.12	228.39
921.42	228.40
921.72	228.43
922.02	228.47
922.32	228.57
922.63	228.48
922.93	228.56
923.23	228.64
923.53	228.68
923.83	228.59
924.13	228.59
924.44	228.51
924.74	228.42
925.04	228.40
925.34	228.31
925.64	228.39
925.94	228.37
926.24	228.47
926.55	228.49
926.85	228.53
927.15	228.50
927.45	228.48
927.75	228.50
928.05	228.59
928.35	228.51
928.65	228.57
928.95	228.54
929.26	228.55
929.56	228.56
929.86	228.57
930.16	228.50
930.46	228.55
930.76	228.64
931.06	228.67
931.36	228.68
931.66	228.72
931.96	228.74
932.26	228.77
932.56	228.71
932.86	228.66
933.16	228.76
933.46	228.85
933.76	228.92
934.06	228.99
934.36	229.06
934.66	229.09
934.96	229.10
935.26	229.23
935.56	229.25
935.86	229.33
936.16	229.37
936.46	229.39
936.76	229.36
937.06	229.32
937.36	229.30
937.66	229.31
937.96	229.30
938.26	229.36
938.56	229.30
938.86	229.25
939.16	229.37
939.46	229.25
939.76	229.30
940.06	229.25
940.35	229.22
940.65	229.10
940.95	229.08
941.25	228.93
941.55	228.85
941.85	228.73
942.15	228.63
942.45	228.62
942.75	228.64
943.04	228.66
943.34	228.70
943.64	228.64
943.94	228.53
944.24	228.50
944.54	228.35
944.84	228.39
945.13	228.33
945.43	228.20
945.73	228.27
946.03	228.03
946.33	227.98
946.62	228.00
946.92	227.99
947.22	227.97
947.52	228.03
947.82	227.96
948.11	227.92
948.41	227.89
948.71	227.85
949.01	227.89
949.31	227.79
949.60	227.68
949.90	227.68
950.20	227.60
950.50	227.64
950.79	227.58
951.09	227.55
951.39	227.61
951.69	227.60
951.98	227.56
952.28	227.65
952.58	227.65
952.87	227.61
953.17	227.66
953.47	227.59
953.76	227.58
954.06	227.51
954.36	227.55
954.66	227.51
954.95	227.54
955.25	227.45
955.55	227.50
955.84	227.52
956.14	227.51
956.44	227.46
956.73	227.36
957.03	227.41
957.32	227.43
957.62	227.44
957.92	227.49
958.21	227.39
958.51	227.59
958.81	227.60
959.10	227.62
959.40	227.68
959.69	227.81
959.99	227.86
960.29	227.91
960.58	227.90
960.88	227.98
961.17	227.98
961.47	228.08
961.76	228.10
962.06	228.16
962.36	228.30
962.65	228.52
962.95	228.53
963.24	228.57
963.54	228.62
963.83	228.64
964.13	228.64
964.42	228.57
964.72	228.36
965.01	228.34
965.31	228.36
965.60	228.27
965.90	228.34
966.19	228.35
966.49	228.47
966.78	228.51
967.08	228.55
967.37	228.55
967.67	228.48
967.96	228.49
968.26	228.53
968.55	228.57
968.85	228.42
969.14	228.45
969.43	228.45
969.73	228.41
970.02	228.39
970.32	228.44
970.61	228.54
970.91	228.65
971.20	228.68
971.49	228.61
971.79	228.67
972.08	228.56
972.38	228.51
972.67	228.45
972.96	228.42
973.26	228.41
973.55	228.43
973.85	228.51
974.14	228.47
974.43	228.44
974.73	228.36
975.02	228.45
975.31	228.55
975.61	228.48
975.90	228.47
976.19	228.49
976.49	228.40
976.78	228.46
977.07	228.32
977.37	228.43
977.66	228.39
977.95	228.38
978.24	228.36
978.54	228.38
978.83	228.33
979.12	228.35
979.42	228.30
979.71	228.24
980.00	228.20
980.29	228.22
980.59	228.21
980.88	228.23
981.17	228.15
981.46	228.05
981.76	228.10
982.05	228.15
982.34	228.15
982.63	228.16
982.93	228.08
983.22	228.13
983.51	228.06
983.80	228.11
984.09	228.03
984.39	227.99
984.68	228.02
984.97	227.94
985.26	227.90
985.55	227.89
985.85	227.87
986.14	227.88
986.43	227.94
986.72	227.92
987.01	227.86
987.30	227.91
987.59	227.90
987.89	227.87
988.18	227.72
988.47	227.71
988.76	227.74
989.05	227.81
989.34	227.88
989.63	227.90
989.92	227.86
990.22	227.91
990.51	227.88
990.80	227.77
991.09	227.87
991.38	227.91
991.67	227.97
991.96	228.06
992.25	228.05
992.54	227.95
992.83	227.90
993.12	227.94
993.41	227.97
993.70	228.05
993.99	228.16
994.28	228.17
994.58	228.17
994.87	228.11
995.16	228.02
995.45	227.89
995.74	227.86
996.03	227.89
996.32	227.96
996.61	228.14
996.90	228.28
997.19	228.38
997.48	228.29
997.77	228.30
998.06	228.29
998.34	228.28
998.63	228.28
998.92	228.34
999.21	228.31
999.50	228.24
999.79	228.17
1000.08	228.21
1000.37	228.32
1000.66	228.27
1000.95	228.34
1001.24	228.49
1001.53	228.59
1001.82	228.54
1002.11	228.52
1002.40	228.50
1002.68	228.48
1002.97	228.52
1003.26	228.50
1003.55	228.53
1003.84	228.59
1004.13	228.64
1004.42	228.66
1004.71	228.69
1004.99	228.71
1005.28	228.67
1005.57	228.71
1005.86	228.74
1006.15	228.68
1006.44	228.60
1006.72	228.64
1007.01	228.63
1007.30	228.60
1007.59	228.51
1007.88	228.64
1008.17	228.63
1008.45	228.61
1008.74	228.50
1009.03	228.45
1009.32	228.40
1009.60	228.43
1009.89	228.40
1010.18	228.26
1010.47	228.19
1010.76	228.26
1011.04	228.21
1011.33	228.35
1011.62	228.40
1011.91	228.43
1012.19	228.39
1012.48	228.45
1012.77	228.41
1013.05	228.51
1013.34	228.40
1013.63	228.41
1013.92	228.36
1014.20	228.45
1014.49	228.45
1014.78	228.45
1015.06	228.33
1015.35	228.37
1015.64	228.32
1015.92	228.28
1016.21	228.42
1016.50	228.36
1016.78	228.29
1017.07	228.30
1017.36	228.20
1017.64	228.12
1017.93	228.00
1018.22	228.00
1018.50	227.99
1018.79	228.00
1019.08	227.83
1019.36	227.91
1019.65	227.80
1019.93	227.73
1020.22	227.64
1020.51	227.68
1020.79	227.60
1021.08	228.00
1021.36	228.20
1021.65	227.30
1021.94	226.70
1022.22	228.40
1022.51	224.90
1022.79	227.20
1023.08	227.40
1023.36	229.70
1023.65	225.90
>>>>>End Processed Spectral Data<<<<<
