SpectraSuite Data File
++++++++++++++++++++++++++++++++++++
Date: Fri Feb 01 14:35:49 EST 2013
User: group
Dark Spectrum Present: No
Reference Spectrum Present: No
Number of Sampled Component Spectra: 1
Spectrometers: USB2E7196
Integration Time (usec): 70000 (USB2E7196)
Spectra Averaged: 10 (USB2E7196)
Boxcar Smoothing: 10 (USB2E7196)
Correct for Electrical Dark: No (USB2E7196)
Strobe/Lamp Enabled: No (USB2E7196)
Correct for Detector Non-linearity: No (USB2E7196)
Correct for Stray Light: No (USB2E7196)
Number of Pixels in Processed Spectrum: 2048
>>>>>Begin Processed Spectral Data<<<<<
339.09	0.00
339.48	217.00
339.86	218.70
340.24	218.70
340.63	219.20
341.01	224.20
341.39	221.00
341.78	224.80
342.16	224.40
342.54	226.80
342.93	214.01
343.31	224.92
343.69	225.49
344.07	225.86
344.46	226.33
344.84	226.70
345.22	226.87
345.60	227.17
345.99	227.32
346.37	227.47
346.75	227.47
347.13	227.55
347.52	227.62
347.90	227.79
348.28	227.88
348.66	228.04
349.05	228.00
349.43	228.12
349.81	228.19
350.19	228.28
350.57	228.35
350.96	228.22
351.34	228.21
351.72	228.25
352.10	228.33
352.48	228.42
352.87	228.48
353.25	228.53
353.63	228.70
354.01	228.70
354.39	228.85
354.77	228.96
355.15	229.15
355.54	229.24
355.92	229.17
356.30	229.31
356.68	229.48
357.06	229.62
357.44	229.54
357.82	229.53
358.20	229.63
358.58	229.65
358.97	229.79
359.35	229.84
359.73	229.91
360.11	230.02
360.49	230.11
360.87	230.20
361.25	230.36
361.63	230.32
362.01	230.44
362.39	230.44
362.77	230.49
363.15	230.44
363.53	230.45
363.91	230.50
364.29	230.43
364.67	230.26
365.05	230.28
365.43	230.35
365.81	230.27
366.19	230.31
366.57	230.45
366.95	230.50
367.33	230.55
367.71	230.58
368.09	230.60
368.47	230.40
368.85	230.37
369.23	230.40
369.61	230.35
369.99	230.37
370.37	230.31
370.75	230.38
371.13	230.30
371.51	230.37
371.89	230.41
372.27	230.33
372.65	230.31
373.03	230.17
373.41	230.08
373.78	230.12
374.16	229.93
374.54	229.77
374.92	229.67
375.30	229.50
375.68	229.31
376.06	229.20
376.44	229.15
376.82	229.12
377.19	228.94
377.57	228.79
377.95	228.63
378.33	228.62
378.71	228.37
379.09	228.33
379.47	228.19
379.84	228.08
380.22	228.05
380.60	227.90
380.98	227.83
381.36	227.76
381.73	227.67
382.11	227.68
382.49	227.59
382.87	227.43
383.25	227.42
383.62	227.60
384.00	227.57
384.38	227.53
384.76	227.48
385.13	227.45
385.51	227.51
385.89	227.47
386.27	227.40
386.64	227.42
387.02	227.30
387.40	227.27
387.78	227.15
388.15	227.10
388.53	227.06
388.91	227.08
389.29	227.05
389.66	227.10
390.04	227.13
390.42	227.18
390.79	227.15
391.17	227.17
391.55	226.95
391.92	226.80
392.30	226.81
392.68	226.72
393.05	226.72
393.43	226.60
393.81	226.55
394.18	226.52
394.56	226.58
394.94	226.70
395.31	226.70
395.69	226.81
396.06	226.85
396.44	226.98
396.82	227.05
397.19	227.23
397.57	227.18
397.95	227.27
398.32	227.25
398.70	227.43
399.07	227.57
399.45	227.67
399.82	227.80
400.20	227.90
400.58	228.07
400.95	228.08
401.33	228.33
401.70	228.65
402.08	228.70
402.45	228.80
402.83	229.02
403.20	229.13
403.58	229.28
403.95	229.60
404.33	229.89
404.71	230.04
405.08	230.30
405.46	230.61
405.83	230.85
406.21	231.16
406.58	231.51
406.96	231.79
407.33	232.15
407.70	232.58
408.08	233.13
408.45	233.58
408.83	234.15
409.20	234.67
409.58	235.16
409.95	235.80
410.33	236.40
410.70	236.91
411.08	237.60
411.45	238.24
411.82	238.84
412.20	239.56
412.57	240.40
412.95	241.07
413.32	241.96
413.69	242.88
414.07	243.95
414.44	244.98
414.82	246.07
415.19	247.44
415.56	248.71
415.94	249.95
416.31	251.41
416.68	252.88
417.06	254.54
417.43	256.12
417.81	257.91
418.18	259.81
418.55	261.96
418.93	264.09
419.30	266.36
419.67	268.60
420.04	270.90
420.42	273.51
420.79	276.47
421.16	279.30
421.54	282.20
421.91	285.18
422.28	288.31
422.66	291.66
423.03	294.90
423.40	298.26
423.77	301.85
424.15	305.53
424.52	309.41
424.89	313.52
425.26	317.45
425.64	321.29
426.01	325.38
426.38	329.58
426.75	334.07
427.13	338.73
427.50	343.61
427.87	348.75
428.24	353.67
428.61	358.41
428.99	363.69
429.36	369.41
429.73	374.95
430.10	380.39
430.47	386.05
430.85	391.86
431.22	397.92
431.59	404.39
431.96	410.62
432.33	417.48
432.70	424.19
433.08	432.01
433.45	439.37
433.82	446.69
434.19	454.96
434.56	462.78
434.93	470.22
435.30	477.64
435.68	485.90
436.05	494.09
436.42	502.22
436.79	509.65
437.16	517.75
437.53	526.17
437.90	534.50
438.27	542.79
438.64	551.32
439.01	559.37
439.38	566.41
439.75	573.11
440.13	580.84
440.50	588.28
440.87	594.22
441.24	600.60
441.61	607.61
441.98	612.88
442.35	619.01
442.72	625.43
443.09	631.57
443.46	635.35
443.83	638.21
444.20	640.80
444.57	644.46
444.94	646.38
445.31	648.49
445.68	650.76
446.05	652.16
446.42	652.33
446.79	652.23
447.16	652.21
447.53	652.51
447.90	650.34
448.27	648.10
448.64	644.83
449.01	642.76
449.37	637.93
449.74	633.39
450.11	627.60
450.48	621.35
450.85	615.12
451.22	609.91
451.59	604.93
451.96	600.16
452.33	593.31
452.70	587.13
453.07	579.60
453.43	572.02
453.80	564.52
454.17	557.14
454.54	550.40
454.91	543.14
455.28	535.97
455.65	529.31
456.02	522.51
456.38	516.63
456.75	509.21
457.12	503.24
457.49	497.05
457.86	491.42
458.23	486.38
458.59	480.78
458.96	474.99
459.33	469.88
459.70	464.67
460.07	460.48
460.43	455.73
460.80	451.28
461.17	447.11
461.54	443.02
461.91	439.16
462.27	435.21
462.64	431.55
463.01	427.59
463.38	423.80
463.74	420.12
464.11	416.89
464.48	414.00
464.85	411.07
465.21	408.69
465.58	406.04
465.95	402.79
466.32	400.15
466.68	397.73
467.05	395.18
467.42	392.70
467.78	390.06
468.15	387.60
468.52	385.57
468.88	383.14
469.25	380.91
469.62	379.07
469.98	376.95
470.35	375.18
470.72	373.55
471.08	371.77
471.45	370.17
471.82	368.56
472.18	366.75
472.55	365.37
472.92	363.71
473.28	362.41
473.65	361.10
474.02	359.83
474.38	358.43
474.75	357.38
475.11	356.34
475.48	355.45
475.85	354.61
476.21	353.81
476.58	353.10
476.94	352.35
477.31	351.66
477.67	351.16
478.04	350.41
478.41	349.90
478.77	349.55
479.14	349.00
479.50	348.71
479.87	348.40
480.23	348.10
480.60	347.83
480.96	347.50
481.33	347.52
481.69	347.45
482.06	347.41
482.42	347.14
482.79	347.00
483.15	347.15
483.52	347.43
483.88	347.71
484.25	347.90
484.61	348.20
484.98	348.54
485.34	349.10
485.71	349.86
486.07	350.31
486.44	350.69
486.80	351.29
487.17	351.84
487.53	352.71
487.90	353.70
488.26	354.75
488.62	355.73
488.99	356.69
489.35	357.81
489.72	358.99
490.08	360.34
490.44	361.43
490.81	362.51
491.17	363.64
491.54	364.98
491.90	366.37
492.26	367.92
492.63	369.25
492.99	370.58
493.36	372.13
493.72	374.06
494.08	375.87
494.45	377.60
494.81	379.58
495.17	381.38
495.54	383.14
495.90	385.09
496.26	387.02
496.63	389.10
496.99	391.03
497.35	393.01
497.72	395.15
498.08	397.24
498.44	399.41
498.80	401.72
499.17	403.81
499.53	405.98
499.89	408.11
500.26	410.45
500.62	412.64
500.98	414.85
501.34	416.86
501.71	419.13
502.07	421.38
502.43	423.43
502.79	425.64
503.16	427.75
503.52	429.83
503.88	431.89
504.24	433.75
504.60	435.82
504.97	438.05
505.33	439.97
505.69	442.30
506.05	444.43
506.41	446.34
506.78	448.25
507.14	450.07
507.50	451.89
507.86	453.89
508.22	455.85
508.59	457.65
508.95	459.34
509.31	461.06
509.67	462.62
510.03	464.22
510.39	465.86
510.75	467.41
511.12	468.78
511.48	470.27
511.84	471.43
512.20	472.81
512.56	474.13
512.92	475.43
513.28	476.44
513.64	477.54
514.00	478.51
514.37	479.57
514.73	480.66
515.09	481.64
515.45	482.26
515.81	482.93
516.17	483.61
516.53	484.53
516.89	485.19
517.25	485.91
517.61	486.68
517.97	487.41
518.33	487.87
518.69	488.42
519.05	489.01
519.41	489.91
519.77	490.51
520.13	491.06
520.49	491.52
520.85	491.90
521.21	492.28
521.57	492.97
521.93	493.44
522.29	494.11
522.65	494.77
523.01	495.48
523.37	495.87
523.73	496.50
524.09	496.94
524.45	497.60
524.81	498.56
525.17	499.37
525.53	500.10
525.89	500.99
526.25	501.95
526.61	502.79
526.97	503.79
527.33	504.64
527.68	505.64
528.04	506.73
528.40	507.89
528.76	509.26
529.12	510.42
529.48	511.88
529.84	512.95
530.20	514.12
530.56	515.62
530.91	517.59
531.27	519.08
531.63	520.67
531.99	522.16
532.35	523.48
532.71	524.98
533.07	526.74
533.42	528.72
533.78	530.60
534.14	532.64
534.50	534.46
534.86	536.52
535.21	538.42
535.57	540.54
535.93	542.82
536.29	545.11
536.65	547.45
537.00	549.59
537.36	552.13
537.72	554.82
538.08	557.21
538.44	559.45
538.79	562.15
539.15	564.72
539.51	567.60
539.87	570.45
540.22	573.41
540.58	576.41
540.94	579.15
541.29	582.02
541.65	584.90
542.01	588.17
542.37	591.46
542.72	594.48
543.08	597.81
543.44	601.04
543.79	604.09
544.15	607.51
544.51	611.11
544.87	614.67
545.22	618.05
545.58	621.26
545.94	624.62
546.29	628.07
546.65	631.63
547.01	635.10
547.36	638.47
547.72	641.98
548.07	645.40
548.43	648.97
548.79	652.54
549.14	656.12
549.50	659.48
549.86	662.85
550.21	666.47
550.57	670.04
550.92	673.67
551.28	677.15
551.64	680.42
551.99	683.99
552.35	687.43
552.70	691.13
553.06	694.99
553.41	698.83
553.77	702.64
554.13	706.62
554.48	710.37
554.84	714.49
555.19	718.37
555.55	722.23
555.90	725.81
556.26	729.60
556.61	733.40
556.97	737.21
557.32	740.98
557.68	744.82
558.03	748.39
558.39	752.02
558.74	755.80
559.10	759.80
559.45	763.77
559.81	767.79
560.16	771.24
560.52	774.69
560.87	778.36
561.23	781.66
561.58	785.17
561.94	788.74
562.29	791.84
562.64	794.89
563.00	797.97
563.35	801.61
563.71	804.98
564.06	808.32
564.42	811.69
564.77	814.90
565.12	818.36
565.48	821.88
565.83	824.87
566.19	828.37
566.54	831.33
566.89	834.11
567.25	836.84
567.60	840.16
567.96	843.37
568.31	846.40
568.66	849.36
569.02	851.81
569.37	854.36
569.72	857.14
570.08	859.66
570.43	862.33
570.78	864.84
571.14	867.17
571.49	869.53
571.84	871.88
572.20	873.77
572.55	875.60
572.90	877.16
573.26	879.51
573.61	881.14
573.96	882.92
574.31	884.25
574.67	885.37
575.02	886.44
575.37	887.54
575.72	888.26
576.08	889.46
576.43	890.59
576.78	891.53
577.13	892.81
577.49	893.96
577.84	894.86
578.19	895.61
578.54	896.26
578.90	896.99
579.25	897.19
579.60	897.89
579.95	898.37
580.30	898.88
580.66	898.86
581.01	899.00
581.36	899.23
581.71	899.77
582.06	900.27
582.42	900.01
582.77	900.23
583.12	900.57
583.47	900.74
583.82	900.96
584.17	900.72
584.53	900.60
584.88	900.61
585.23	900.29
585.58	900.10
585.93	900.10
586.28	899.85
586.63	899.95
586.98	899.84
587.34	899.40
587.69	899.26
588.04	899.02
588.39	898.82
588.74	898.14
589.09	897.50
589.44	896.88
589.79	896.80
590.14	896.21
590.49	895.54
590.84	894.75
591.19	894.13
591.54	893.40
591.89	892.07
592.25	891.19
592.60	889.82
592.95	888.35
593.30	886.85
593.65	885.53
594.00	884.28
594.35	883.35
594.70	881.88
595.05	880.40
595.40	878.93
595.75	877.35
596.10	876.08
596.45	874.76
596.80	873.53
597.15	872.15
597.50	870.73
597.85	869.39
598.19	868.10
598.54	866.40
598.89	865.25
599.24	864.34
599.59	862.83
599.94	861.92
600.29	860.51
600.64	859.10
600.99	857.41
601.34	855.73
601.69	853.62
602.04	852.18
602.39	850.51
602.74	849.14
603.08	847.56
603.43	846.06
603.78	844.31
604.13	842.49
604.48	840.74
604.83	839.18
605.18	837.38
605.53	835.22
605.87	833.01
606.22	830.93
606.57	828.59
606.92	826.45
607.27	824.42
607.62	822.79
607.96	820.96
608.31	819.03
608.66	816.80
609.01	814.65
609.36	812.35
609.70	809.71
610.05	806.97
610.40	804.64
610.75	802.04
611.10	799.52
611.44	796.75
611.79	794.18
612.14	791.18
612.49	788.26
612.83	785.63
613.18	783.20
613.53	780.68
613.88	777.81
614.22	775.09
614.57	772.09
614.92	769.23
615.27	766.55
615.61	763.68
615.96	760.89
616.31	758.00
616.65	755.62
617.00	753.25
617.35	750.89
617.70	748.04
618.04	745.23
618.39	742.61
618.74	740.25
619.08	737.41
619.43	734.90
619.78	732.14
620.12	729.40
620.47	726.73
620.82	723.77
621.16	721.24
621.51	718.61
621.85	716.00
622.20	713.12
622.55	710.39
622.89	707.80
623.24	705.30
623.59	703.03
623.93	700.35
624.28	697.75
624.62	695.24
624.97	692.68
625.32	690.07
625.66	687.60
626.01	684.80
626.35	682.21
626.70	679.46
627.04	677.32
627.39	674.66
627.73	672.01
628.08	669.50
628.43	666.76
628.77	664.07
629.12	661.41
629.46	659.07
629.81	656.20
630.15	653.42
630.50	650.76
630.84	647.66
631.19	644.96
631.53	642.31
631.88	639.23
632.22	636.35
632.57	633.79
632.91	630.90
633.26	628.20
633.60	625.44
633.95	622.80
634.29	620.04
634.64	617.72
634.98	615.15
635.32	612.60
635.67	610.38
636.01	607.77
636.36	605.25
636.70	602.75
637.05	600.50
637.39	598.10
637.73	595.64
638.08	593.59
638.42	591.19
638.77	588.60
639.11	586.46
639.45	584.13
639.80	581.54
640.14	579.10
640.49	576.79
640.83	574.60
641.17	572.56
641.52	570.10
641.86	567.58
642.20	565.20
642.55	562.98
642.89	560.50
643.23	558.26
643.58	556.07
643.92	553.57
644.26	551.22
644.61	549.19
644.95	546.98
645.29	544.34
645.64	541.89
645.98	539.74
646.32	537.27
646.66	535.02
647.01	533.03
647.35	530.90
647.69	528.57
648.04	526.31
648.38	523.85
648.72	521.50
649.06	519.15
649.41	517.03
649.75	514.47
650.09	512.00
650.43	509.70
650.78	507.11
651.12	504.95
651.46	502.69
651.80	500.14
652.14	497.77
652.49	495.76
652.83	493.70
653.17	491.36
653.51	489.10
653.85	486.84
654.20	484.34
654.54	481.73
654.88	479.41
655.22	477.11
655.56	474.85
655.90	472.48
656.25	470.24
656.59	467.97
656.93	465.88
657.27	463.88
657.61	461.65
657.95	459.79
658.29	457.67
658.64	455.57
658.98	453.54
659.32	451.53
659.66	449.44
660.00	447.18
660.34	445.07
660.68	442.89
661.02	440.75
661.36	438.78
661.70	437.02
662.05	435.30
662.39	433.60
662.73	431.92
663.07	430.42
663.41	428.75
663.75	426.82
664.09	425.05
664.43	423.10
664.77	421.34
665.11	419.64
665.45	417.88
665.79	416.06
666.13	414.20
666.47	412.45
666.81	410.70
667.15	408.85
667.49	407.30
667.83	405.88
668.17	404.18
668.51	402.64
668.85	401.08
669.19	399.60
669.53	397.84
669.87	395.93
670.21	394.30
670.55	392.62
670.89	391.30
671.23	389.81
671.57	388.45
671.91	387.02
672.25	385.47
672.58	383.93
672.92	382.45
673.26	381.11
673.60	379.89
673.94	378.61
674.28	377.50
674.62	376.26
674.96	374.86
675.30	373.84
675.64	372.58
675.97	371.28
676.31	369.78
676.65	368.54
676.99	367.49
677.33	366.10
677.67	364.76
678.01	363.49
678.34	362.34
678.68	361.16
679.02	359.98
679.36	358.71
679.70	357.62
680.04	356.43
680.37	355.32
680.71	353.90
681.05	352.74
681.39	351.62
681.73	350.44
682.06	349.50
682.40	348.34
682.74	347.25
683.08	346.20
683.42	345.10
683.75	343.96
684.09	342.77
684.43	341.74
684.77	340.67
685.10	339.57
685.44	338.37
685.78	337.34
686.12	336.21
686.45	335.03
686.79	333.95
687.13	332.99
687.46	331.88
687.80	330.82
688.14	329.81
688.48	328.70
688.81	327.62
689.15	326.60
689.49	325.53
689.82	324.44
690.16	323.41
690.50	322.48
690.83	321.43
691.17	320.38
691.51	319.42
691.84	318.67
692.18	317.67
692.52	316.79
692.85	315.82
693.19	315.07
693.52	314.22
693.86	313.32
694.20	312.51
694.53	311.50
694.87	310.62
695.21	309.59
695.54	308.70
695.88	307.82
696.21	306.83
696.55	306.04
696.88	305.28
697.22	304.45
697.56	303.70
697.89	303.05
698.23	302.33
698.56	301.53
698.90	300.64
699.23	299.73
699.57	298.94
699.90	298.18
700.24	297.21
700.58	296.53
700.91	295.68
701.25	294.84
701.58	294.42
701.92	293.88
702.25	293.26
702.59	292.54
702.92	291.87
703.26	291.22
703.59	290.60
703.93	290.14
704.26	289.51
704.60	288.75
704.93	287.99
705.26	287.29
705.60	286.75
705.93	286.13
706.27	285.69
706.60	285.16
706.94	284.57
707.27	283.99
707.61	283.34
707.94	282.92
708.27	282.23
708.61	281.47
708.94	280.78
709.28	280.23
709.61	279.72
709.94	279.22
710.28	278.73
710.61	278.13
710.95	277.30
711.28	276.97
711.61	276.39
711.95	275.91
712.28	275.40
712.61	274.73
712.95	274.36
713.28	273.86
713.61	273.29
713.95	272.68
714.28	272.24
714.61	271.77
714.95	271.27
715.28	270.90
715.61	270.53
715.95	270.09
716.28	269.55
716.61	269.11
716.95	268.67
717.28	268.15
717.61	267.71
717.94	267.26
718.28	266.62
718.61	266.27
718.94	265.81
719.27	265.40
719.61	265.17
719.94	264.68
720.27	264.22
720.60	263.89
720.94	263.60
721.27	263.30
721.60	263.11
721.93	262.63
722.27	262.40
722.60	261.97
722.93	261.57
723.26	261.25
723.59	261.00
723.93	260.70
724.26	260.36
724.59	260.05
724.92	259.86
725.25	259.64
725.59	259.36
725.92	259.19
726.25	258.89
726.58	258.48
726.91	258.18
727.24	257.95
727.57	257.69
727.91	257.31
728.24	257.09
728.57	256.67
728.90	256.42
729.23	255.95
729.56	255.70
729.89	255.48
730.22	255.17
730.55	254.90
730.89	254.53
731.22	254.45
731.55	254.18
731.88	253.93
732.21	253.63
732.54	253.31
732.87	253.06
733.20	252.80
733.53	252.68
733.86	252.55
734.19	252.16
734.52	251.86
734.85	251.73
735.18	251.38
735.51	251.26
735.84	251.13
736.17	251.09
736.50	250.84
736.83	250.85
737.16	250.80
737.49	250.58
737.82	250.43
738.15	250.21
738.48	249.96
738.81	249.75
739.14	249.51
739.47	249.28
739.80	248.97
740.13	248.84
740.46	248.60
740.79	248.33
741.12	248.27
741.45	248.11
741.78	247.90
742.11	247.73
742.44	247.41
742.77	247.09
743.10	246.73
743.43	246.57
743.75	246.21
744.08	246.16
744.41	245.83
744.74	245.54
745.07	245.27
745.40	245.12
745.73	245.02
746.06	244.96
746.39	244.88
746.71	244.65
747.04	244.35
747.37	244.03
747.70	243.87
748.03	243.67
748.36	243.46
748.68	243.28
749.01	243.11
749.34	242.86
749.67	242.74
750.00	242.63
750.33	242.49
750.65	242.23
750.98	241.78
751.31	241.68
751.64	241.56
751.97	241.48
752.29	241.36
752.62	241.10
752.95	240.81
753.28	240.64
753.60	240.45
753.93	240.50
754.26	240.40
754.59	240.17
754.91	239.93
755.24	239.70
755.57	239.42
755.90	239.24
756.22	239.17
756.55	239.05
756.88	238.84
757.20	238.67
757.53	238.52
757.86	238.34
758.19	238.20
758.51	238.08
758.84	237.85
759.17	237.72
759.49	237.52
759.82	237.50
760.15	237.42
760.47	237.44
760.80	237.12
761.13	237.05
761.45	236.99
761.78	236.87
762.11	236.86
762.43	236.98
762.76	236.75
763.08	236.77
763.41	236.72
763.74	236.68
764.06	236.60
764.39	236.62
764.71	236.67
765.04	236.66
765.37	236.55
765.69	236.48
766.02	236.34
766.34	236.35
766.67	236.17
767.00	236.15
767.32	236.12
767.65	236.30
767.97	236.27
768.30	236.17
768.62	236.07
768.95	235.98
769.27	235.83
769.60	235.88
769.92	235.72
770.25	235.52
770.57	235.43
770.90	235.28
771.22	235.09
771.55	234.96
771.87	234.90
772.20	234.95
772.52	235.05
772.85	235.23
773.17	235.12
773.50	235.03
773.82	234.92
774.15	234.83
774.47	234.53
774.80	234.47
775.12	234.34
775.45	234.51
775.77	234.46
776.09	234.37
776.42	234.39
776.74	234.38
777.07	234.45
777.39	234.39
777.72	234.46
778.04	234.52
778.36	234.49
778.69	234.39
779.01	234.27
779.33	234.10
779.66	233.85
779.98	233.85
780.31	233.82
780.63	233.91
780.95	233.87
781.28	233.91
781.60	233.86
781.92	233.85
782.25	233.66
782.57	233.59
782.89	233.57
783.22	233.47
783.54	233.38
783.86	233.26
784.19	233.24
784.51	233.16
784.83	232.97
785.16	232.94
785.48	232.86
785.80	232.84
786.12	232.73
786.45	232.70
786.77	232.52
787.09	232.44
787.42	232.28
787.74	232.20
788.06	232.07
788.38	231.95
788.71	231.91
789.03	231.90
789.35	231.90
789.67	231.71
789.99	231.64
790.32	231.54
790.64	231.55
790.96	231.60
791.28	231.48
791.61	231.58
791.93	231.58
792.25	231.59
792.57	231.74
792.89	231.65
793.21	231.52
793.54	231.56
793.86	231.50
794.18	231.38
794.50	231.30
794.82	231.35
795.14	231.36
795.47	231.38
795.79	231.34
796.11	231.21
796.43	231.25
796.75	231.28
797.07	231.30
797.39	231.24
797.71	231.07
798.04	231.10
798.36	231.05
798.68	230.98
799.00	230.85
799.32	230.67
799.64	230.71
799.96	230.81
800.28	230.75
800.60	230.79
800.92	230.81
801.24	230.84
801.56	230.84
801.89	230.79
802.21	230.81
802.53	230.70
802.85	230.81
803.17	230.94
803.49	230.89
803.81	230.81
804.13	230.80
804.45	230.74
804.77	230.83
805.09	230.65
805.41	230.58
805.73	230.66
806.05	230.62
806.37	230.61
806.69	230.56
807.01	230.56
807.33	230.50
807.65	230.43
807.97	230.45
808.28	230.31
808.60	230.27
808.92	230.12
809.24	230.31
809.56	230.24
809.88	230.11
810.20	230.19
810.52	230.25
810.84	230.21
811.16	230.29
811.48	230.20
811.80	230.30
812.12	230.32
812.43	230.37
812.75	230.28
813.07	230.29
813.39	230.30
813.71	230.27
814.03	230.28
814.35	230.35
814.67	230.31
814.98	230.34
815.30	230.37
815.62	230.51
815.94	230.35
816.26	230.48
816.58	230.45
816.89	230.41
817.21	230.40
817.53	230.51
817.85	230.55
818.17	230.45
818.48	230.36
818.80	230.39
819.12	230.34
819.44	230.33
819.76	230.19
820.07	230.11
820.39	230.15
820.71	230.20
821.03	230.21
821.34	230.27
821.66	230.34
821.98	230.27
822.30	230.07
822.61	230.09
822.93	229.90
823.25	229.90
823.57	229.86
823.88	229.80
824.20	229.71
824.52	229.68
824.83	229.73
825.15	229.74
825.47	229.76
825.79	229.80
826.10	229.80
826.42	229.84
826.74	229.90
827.05	229.72
827.37	229.66
827.69	229.54
828.00	229.53
828.32	229.38
828.64	229.34
828.95	229.40
829.27	229.44
829.58	229.60
829.90	229.55
830.22	229.50
830.53	229.43
830.85	229.38
831.17	229.27
831.48	229.22
831.80	229.33
832.11	229.25
832.43	229.10
832.75	229.11
833.06	229.11
833.38	229.00
833.69	229.09
834.01	229.13
834.32	229.01
834.64	228.98
834.96	228.99
835.27	229.03
835.59	228.98
835.90	228.91
836.22	228.66
836.53	228.64
836.85	228.59
837.16	228.77
837.48	228.71
837.79	228.81
838.11	228.81
838.42	228.70
838.74	228.72
839.05	228.71
839.37	228.63
839.68	228.62
840.00	228.63
840.31	228.67
840.63	228.63
840.94	228.70
841.26	228.57
841.57	228.70
841.88	228.69
842.20	228.75
842.51	228.74
842.83	228.74
843.14	228.81
843.46	228.84
843.77	228.72
844.08	228.74
844.40	228.64
844.71	228.70
845.03	228.71
845.34	228.76
845.65	228.71
845.97	228.69
846.28	228.74
846.60	228.74
846.91	228.76
847.22	228.65
847.54	228.70
847.85	228.74
848.16	228.64
848.48	228.67
848.79	228.69
849.10	228.65
849.42	228.78
849.73	228.80
850.04	228.79
850.36	228.80
850.67	228.81
850.98	228.88
851.30	228.86
851.61	228.87
851.92	228.84
852.23	228.90
852.55	228.93
852.86	228.99
853.17	229.04
853.49	229.13
853.80	229.22
854.11	229.22
854.42	229.33
854.74	229.39
855.05	229.40
855.36	229.38
855.67	229.40
855.99	229.35
856.30	229.51
856.61	229.63
856.92	229.64
857.23	229.69
857.55	229.70
857.86	229.66
858.17	229.70
858.48	229.72
858.79	229.82
859.11	229.90
859.42	229.76
859.73	229.75
860.04	229.61
860.35	229.66
860.66	229.71
860.98	229.70
861.29	229.71
861.60	229.71
861.91	229.66
862.22	229.68
862.53	229.72
862.84	229.60
863.16	229.60
863.47	229.58
863.78	229.57
864.09	229.57
864.40	229.67
864.71	229.67
865.02	229.61
865.33	229.53
865.64	229.46
865.95	229.50
866.27	229.55
866.58	229.60
866.89	229.62
867.20	229.53
867.51	229.45
867.82	229.48
868.13	229.54
868.44	229.54
868.75	229.59
869.06	229.57
869.37	229.50
869.68	229.39
869.99	229.40
870.30	229.45
870.61	229.49
870.92	229.40
871.23	229.45
871.54	229.44
871.85	229.46
872.16	229.49
872.47	229.50
872.78	229.49
873.09	229.53
873.40	229.46
873.71	229.38
874.02	229.39
874.33	229.31
874.64	229.30
874.95	229.23
875.26	229.11
875.56	229.05
875.87	229.04
876.18	229.01
876.49	229.11
876.80	229.01
877.11	228.82
877.42	228.72
877.73	228.60
878.04	228.62
878.35	228.58
878.66	228.60
878.96	228.52
879.27	228.48
879.58	228.30
879.89	228.24
880.20	228.29
880.51	228.24
880.82	228.24
881.12	228.10
881.43	228.13
881.74	228.10
882.05	228.08
882.36	228.06
882.67	228.11
882.97	227.91
883.28	227.86
883.59	227.90
883.90	227.98
884.21	228.03
884.51	227.99
884.82	227.94
885.13	227.90
885.44	228.01
885.74	227.92
886.05	228.07
886.36	228.08
886.67	227.98
886.98	228.00
887.28	227.93
887.59	227.90
887.90	227.91
888.20	227.92
888.51	227.92
888.82	227.87
889.13	227.79
889.43	227.91
889.74	227.91
890.05	227.97
890.35	227.94
890.66	227.83
890.97	227.81
891.28	227.77
891.58	227.71
891.89	227.61
892.20	227.59
892.50	227.53
892.81	227.45
893.12	227.57
893.42	227.51
893.73	227.54
894.04	227.60
894.34	227.55
894.65	227.57
894.95	227.50
895.26	227.50
895.57	227.61
895.87	227.44
896.18	227.50
896.48	227.44
896.79	227.45
897.10	227.55
897.40	227.55
897.71	227.59
898.01	227.71
898.32	227.71
898.63	227.80
898.93	227.91
899.24	228.01
899.54	227.88
899.85	227.86
900.15	227.87
900.46	228.00
900.76	228.09
901.07	228.17
901.38	228.28
901.68	228.30
901.99	228.29
902.29	228.34
902.60	228.38
902.90	228.45
903.21	228.45
903.51	228.49
903.82	228.54
904.12	228.55
904.43	228.58
904.73	228.68
905.03	228.70
905.34	228.86
905.64	228.81
905.95	228.93
906.25	228.97
906.56	228.97
906.86	228.90
907.17	228.96
907.47	228.90
907.77	228.84
908.08	228.81
908.38	228.80
908.69	228.81
908.99	228.78
909.30	228.86
909.60	228.87
909.90	228.88
910.21	228.80
910.51	228.85
910.81	228.76
911.12	228.74
911.42	228.69
911.73	228.40
912.03	228.48
912.33	228.58
912.64	228.57
912.94	228.64
913.24	228.63
913.55	228.51
913.85	228.55
914.15	228.69
914.46	228.66
914.76	228.68
915.06	228.73
915.37	228.74
915.67	228.56
915.97	228.57
916.27	228.46
916.58	228.49
916.88	228.45
917.18	228.51
917.49	228.69
917.79	228.67
918.09	228.77
918.39	228.86
918.70	228.69
919.00	228.76
919.30	228.75
919.60	228.82
919.91	228.75
920.21	228.71
920.51	228.64
920.81	228.68
921.12	228.68
921.42	228.60
921.72	228.58
922.02	228.63
922.32	228.57
922.63	228.64
922.93	228.73
923.23	228.66
923.53	228.62
923.83	228.31
924.13	228.16
924.44	228.07
924.74	227.98
925.04	228.13
925.34	228.06
925.64	227.97
925.94	227.81
926.24	227.90
926.55	227.87
926.85	227.76
927.15	227.72
927.45	227.72
927.75	227.64
928.05	227.64
928.35	227.66
928.65	227.75
928.95	227.66
929.26	227.57
929.56	227.61
929.86	227.56
930.16	227.59
930.46	227.68
930.76	227.72
931.06	227.58
931.36	227.48
931.66	227.48
931.96	227.53
932.26	227.48
932.56	227.40
932.86	227.48
933.16	227.61
933.46	227.60
933.76	227.58
934.06	227.70
934.36	227.73
934.66	227.72
934.96	227.69
935.26	227.79
935.56	227.75
935.86	227.71
936.16	227.69
936.46	227.71
936.76	227.72
937.06	227.65
937.36	227.67
937.66	227.76
937.96	227.75
938.26	227.65
938.56	227.76
938.86	227.78
939.16	227.86
939.46	227.88
939.76	227.93
940.06	228.01
940.35	227.99
940.65	227.94
940.95	228.07
941.25	227.96
941.55	227.86
941.85	227.91
942.15	227.95
942.45	228.09
942.75	228.14
943.04	228.23
943.34	228.30
943.64	228.33
943.94	228.36
944.24	228.46
944.54	228.48
944.84	228.61
945.13	228.75
945.43	228.75
945.73	228.75
946.03	228.70
946.33	228.73
946.62	228.81
946.92	228.95
947.22	228.84
947.52	228.94
947.82	229.08
948.11	229.10
948.41	229.10
948.71	229.08
949.01	229.01
949.31	229.04
949.60	229.12
949.90	229.26
950.20	229.14
950.50	229.06
950.79	229.07
951.09	228.93
951.39	228.95
951.69	228.82
951.98	228.82
952.28	228.89
952.58	228.77
952.87	228.75
953.17	228.69
953.47	228.68
953.76	228.65
954.06	228.60
954.36	228.62
954.66	228.60
954.95	228.64
955.25	228.72
955.55	228.63
955.84	228.58
956.14	228.38
956.44	228.40
956.73	228.40
957.03	228.50
957.32	228.50
957.62	228.43
957.92	228.46
958.21	228.52
958.51	228.59
958.81	228.59
959.10	228.65
959.40	228.63
959.69	228.59
959.99	228.64
960.29	228.59
960.58	228.55
960.88	228.59
961.17	228.47
961.47	228.39
961.76	228.33
962.06	228.27
962.36	228.29
962.65	228.32
962.95	228.30
963.24	228.25
963.54	228.28
963.83	228.21
964.13	228.16
964.42	228.05
964.72	228.00
965.01	228.02
965.31	227.82
965.60	227.73
965.90	227.95
966.19	227.89
966.49	227.83
966.78	227.78
967.08	227.74
967.37	227.63
967.67	227.60
967.96	227.74
968.26	227.62
968.55	227.64
968.85	227.60
969.14	227.57
969.43	227.50
969.73	227.40
970.02	227.35
970.32	227.37
970.61	227.37
970.91	227.27
971.20	227.17
971.49	227.19
971.79	227.22
972.08	226.99
972.38	226.92
972.67	226.86
972.96	226.84
973.26	226.89
973.55	227.00
973.85	227.01
974.14	226.95
974.43	227.08
974.73	227.08
975.02	227.05
975.31	227.07
975.61	227.14
975.90	227.17
976.19	227.18
976.49	227.17
976.78	227.15
977.07	227.09
977.37	227.10
977.66	227.16
977.95	227.15
978.24	227.15
978.54	227.22
978.83	227.29
979.12	227.43
979.42	227.45
979.71	227.53
980.00	227.57
980.29	227.53
980.59	227.49
980.88	227.54
981.17	227.56
981.46	227.57
981.76	227.42
982.05	227.53
982.34	227.71
982.63	227.72
982.93	227.80
983.22	227.99
983.51	228.03
983.80	228.06
984.09	228.21
984.39	228.30
984.68	228.35
984.97	228.44
985.26	228.35
985.55	228.23
985.85	228.26
986.14	228.27
986.43	228.40
986.72	228.40
987.01	228.37
987.30	228.36
987.59	228.37
987.89	228.50
988.18	228.45
988.47	228.27
988.76	228.29
989.05	228.26
989.34	228.16
989.63	228.25
989.92	228.25
990.22	228.14
990.51	228.10
990.80	228.03
991.09	227.99
991.38	228.04
991.67	228.08
991.96	227.95
992.25	228.00
992.54	227.88
992.83	228.04
993.12	228.10
993.41	228.11
993.70	228.20
993.99	228.21
994.28	228.14
994.58	228.20
994.87	228.21
995.16	228.13
995.45	228.18
995.74	228.12
996.03	228.06
996.32	228.06
996.61	228.09
996.90	228.05
997.19	228.07
997.48	227.98
997.77	228.04
998.06	228.02
998.34	228.04
998.63	228.09
998.92	228.03
999.21	228.08
999.50	228.11
999.79	228.00
1000.08	228.07
1000.37	228.09
1000.66	228.13
1000.95	228.06
1001.24	228.15
1001.53	228.13
1001.82	228.16
1002.11	228.16
1002.40	228.20
1002.68	228.26
1002.97	228.49
1003.26	228.37
1003.55	228.40
1003.84	228.41
1004.13	228.59
1004.42	228.46
1004.71	228.37
1004.99	228.24
1005.28	228.14
1005.57	228.15
1005.86	228.22
1006.15	228.17
1006.44	228.13
1006.72	228.09
1007.01	228.10
1007.30	228.05
1007.59	228.02
1007.88	227.94
1008.17	227.96
1008.45	227.95
1008.74	227.81
1009.03	227.65
1009.32	227.65
1009.60	227.67
1009.89	227.56
1010.18	227.39
1010.47	227.42
1010.76	227.45
1011.04	227.49
1011.33	227.60
1011.62	227.53
1011.91	227.58
1012.19	227.50
1012.48	227.60
1012.77	227.63
1013.05	227.77
1013.34	227.79
1013.63	227.76
1013.92	227.80
1014.20	227.74
1014.49	227.72
1014.78	227.74
1015.06	227.70
1015.35	227.75
1015.64	227.74
1015.92	227.84
1016.21	227.89
1016.50	227.92
1016.78	227.95
1017.07	227.95
1017.36	227.84
1017.64	227.91
1017.93	227.85
1018.22	227.91
1018.50	227.88
1018.79	227.89
1019.08	227.79
1019.36	227.80
1019.65	227.86
1019.93	227.93
1020.22	228.06
1020.51	228.20
1020.79	228.23
1021.08	227.90
1021.36	227.70
1021.65	228.70
1021.94	228.10
1022.22	228.20
1022.51	228.90
1022.79	229.20
1023.08	229.30
1023.36	231.40
1023.65	227.70
>>>>>End Processed Spectral Data<<<<<
