SpectraSuite Data File
++++++++++++++++++++++++++++++++++++
Date: Fri Feb 01 14:39:29 EST 2013
User: group
Dark Spectrum Present: No
Reference Spectrum Present: No
Number of Sampled Component Spectra: 1
Spectrometers: USB2E7196
Integration Time (usec): 70000 (USB2E7196)
Spectra Averaged: 10 (USB2E7196)
Boxcar Smoothing: 10 (USB2E7196)
Correct for Electrical Dark: No (USB2E7196)
Strobe/Lamp Enabled: No (USB2E7196)
Correct for Detector Non-linearity: No (USB2E7196)
Correct for Stray Light: No (USB2E7196)
Number of Pixels in Processed Spectrum: 2048
>>>>>Begin Processed Spectral Data<<<<<
339.09	0.00
339.48	214.70
339.86	219.20
340.24	219.20
340.63	220.60
341.01	225.10
341.39	223.30
341.78	224.50
342.16	226.00
342.54	227.50
342.93	214.60
343.31	225.42
343.69	226.11
344.07	226.39
344.46	226.76
344.84	227.13
345.22	227.24
345.60	227.46
345.99	227.64
346.37	227.74
346.75	227.75
347.13	227.82
347.52	227.87
347.90	228.04
348.28	228.01
348.66	228.08
349.05	227.97
349.43	228.07
349.81	228.03
350.19	228.12
350.57	227.97
350.96	228.10
351.34	228.17
351.72	228.14
352.10	228.35
352.48	228.38
352.87	228.44
353.25	228.50
353.63	228.56
354.01	228.58
354.39	228.54
354.77	228.60
355.15	228.68
355.54	228.73
355.92	228.67
356.30	228.69
356.68	228.88
357.06	228.88
357.44	228.94
357.82	229.04
358.20	228.96
358.58	229.09
358.97	229.05
359.35	229.20
359.73	229.34
360.11	229.38
360.49	229.48
360.87	229.58
361.25	229.62
361.63	229.73
362.01	229.81
362.39	229.86
362.77	229.87
363.15	229.84
363.53	229.92
363.91	229.90
364.29	229.98
364.67	229.79
365.05	229.95
365.43	229.90
365.81	229.90
366.19	230.17
366.57	230.22
366.95	230.17
367.33	230.10
367.71	230.00
368.09	229.95
368.47	229.97
368.85	229.83
369.23	229.87
369.61	229.71
369.99	229.73
370.37	229.80
370.75	229.99
371.13	229.98
371.51	229.90
371.89	229.95
372.27	229.94
372.65	229.88
373.03	229.73
373.41	229.72
373.78	229.60
374.16	229.37
374.54	229.24
374.92	229.26
375.30	229.17
375.68	229.11
376.06	229.14
376.44	229.02
376.82	229.02
377.19	228.80
377.57	228.75
377.95	228.53
378.33	228.34
378.71	228.13
379.09	228.05
379.47	227.95
379.84	227.78
380.22	227.65
380.60	227.63
380.98	227.57
381.36	227.46
381.73	227.49
382.11	227.42
382.49	227.46
382.87	227.29
383.25	227.21
383.62	227.34
384.00	227.07
384.38	226.99
384.76	226.82
385.13	226.95
385.51	226.95
385.89	227.01
386.27	227.04
386.64	226.88
387.02	226.76
387.40	226.70
387.78	226.71
388.15	226.70
388.53	226.56
388.91	226.58
389.29	226.57
389.66	226.51
390.04	226.50
390.42	226.51
390.79	226.61
391.17	226.53
391.55	226.29
391.92	226.30
392.30	226.37
392.68	226.42
393.05	226.44
393.43	226.42
393.81	226.38
394.18	226.27
394.56	226.40
394.94	226.57
395.31	226.56
395.69	226.59
396.06	226.68
396.44	226.81
396.82	226.81
397.19	226.91
397.57	227.01
397.95	227.10
398.32	227.03
398.70	227.07
399.07	227.27
399.45	227.40
399.82	227.58
400.20	227.64
400.58	227.72
400.95	227.71
401.33	227.83
401.70	228.04
402.08	228.20
402.45	228.30
402.83	228.43
403.20	228.58
403.58	228.78
403.95	228.95
404.33	229.05
404.71	229.20
405.08	229.44
405.46	229.60
405.83	229.78
406.21	229.96
406.58	230.08
406.96	230.22
407.33	230.43
407.70	230.71
408.08	231.05
408.45	231.26
408.83	231.50
409.20	231.71
409.58	231.87
409.95	232.26
410.33	232.49
410.70	232.61
411.08	232.98
411.45	233.21
411.82	233.50
412.20	234.01
412.57	234.53
412.95	234.81
413.32	235.06
413.69	235.45
414.07	235.86
414.44	236.25
414.82	236.65
415.19	237.17
415.56	237.60
415.94	238.17
416.31	238.80
416.68	239.54
417.06	240.31
417.43	240.98
417.81	241.68
418.18	242.57
418.55	243.49
418.93	244.31
419.30	245.38
419.67	246.30
420.04	247.14
420.42	247.93
420.79	249.19
421.16	250.43
421.54	251.64
421.91	252.93
422.28	254.28
422.66	255.76
423.03	257.18
423.40	258.55
423.77	259.94
424.15	261.48
424.52	262.95
424.89	264.59
425.26	266.20
425.64	267.70
426.01	269.18
426.38	270.97
426.75	272.76
427.13	274.49
427.50	276.43
427.87	278.50
428.24	280.57
428.61	282.44
428.99	284.60
429.36	286.89
429.73	289.10
430.10	291.35
430.47	293.60
430.85	295.71
431.22	298.02
431.59	300.62
431.96	303.01
432.33	305.72
432.70	308.35
433.08	311.47
433.45	314.37
433.82	317.42
434.19	320.47
434.56	323.50
434.93	326.37
435.30	329.27
435.68	332.43
436.05	335.42
436.42	338.44
436.79	341.23
437.16	344.32
437.53	347.40
437.90	350.53
438.27	353.59
438.64	356.81
439.01	360.00
439.38	362.59
439.75	365.11
440.13	368.08
440.50	370.63
440.87	372.75
441.24	375.00
441.61	377.42
441.98	379.31
442.35	381.52
442.72	383.84
443.09	386.07
443.46	387.29
443.83	388.26
444.20	388.86
444.57	389.94
444.94	390.32
445.31	391.01
445.68	391.70
446.05	392.05
446.42	391.96
446.79	391.65
447.16	391.40
447.53	391.27
447.90	389.99
448.27	389.16
448.64	387.71
449.01	386.84
449.37	384.87
449.74	382.93
450.11	380.72
450.48	378.21
450.85	375.40
451.22	373.22
451.59	371.21
451.96	369.48
452.33	366.83
452.70	364.48
453.07	361.43
453.43	358.26
453.80	355.08
454.17	352.11
454.54	349.40
454.91	346.42
455.28	343.49
455.65	340.96
456.02	338.31
456.38	335.86
456.75	332.81
457.12	330.25
457.49	327.90
457.86	325.45
458.23	323.38
458.59	321.09
458.96	318.90
459.33	316.79
459.70	314.61
460.07	312.85
460.43	310.80
460.80	308.95
461.17	307.34
461.54	305.93
461.91	304.25
462.27	302.64
462.64	301.09
463.01	299.63
463.38	298.04
463.74	296.25
464.11	294.98
464.48	293.93
464.85	292.63
465.21	291.51
465.58	290.30
465.95	288.92
466.32	287.87
466.68	286.70
467.05	285.58
467.42	284.51
467.78	283.34
468.15	282.27
468.52	281.60
468.88	280.60
469.25	279.49
469.62	278.81
469.98	277.86
470.35	277.01
470.72	276.19
471.08	275.37
471.45	274.64
471.82	273.87
472.18	272.89
472.55	272.33
472.92	271.70
473.28	271.11
473.65	270.37
474.02	269.78
474.38	269.17
474.75	268.69
475.11	268.10
475.48	267.76
475.85	267.29
476.21	266.70
476.58	266.19
476.94	265.73
477.31	265.27
477.67	264.77
478.04	264.41
478.41	263.99
478.77	263.82
479.14	263.49
479.50	263.22
479.87	262.94
480.23	262.64
480.60	262.27
480.96	261.96
481.33	261.95
481.69	261.73
482.06	261.57
482.42	261.30
482.79	261.09
483.15	260.86
483.52	260.80
483.88	260.57
484.25	260.42
484.61	260.39
484.98	260.27
485.34	260.40
485.71	260.44
486.07	260.50
486.44	260.34
486.80	260.37
487.17	260.37
487.53	260.55
487.90	260.77
488.26	260.89
488.62	261.06
488.99	261.12
489.35	261.16
489.72	261.31
490.08	261.55
490.44	261.72
490.81	261.92
491.17	262.10
491.54	262.50
491.90	262.85
492.26	263.15
492.63	263.42
492.99	263.66
493.36	263.88
493.72	264.14
494.08	264.42
494.45	264.84
494.81	265.20
495.17	265.47
495.54	265.84
495.90	266.19
496.26	266.56
496.63	266.92
496.99	267.48
497.35	268.00
497.72	268.52
498.08	269.05
498.44	269.61
498.80	270.17
499.17	270.71
499.53	271.31
499.89	271.95
500.26	272.65
500.62	273.30
500.98	274.13
501.34	274.95
501.71	275.81
502.07	276.51
502.43	277.31
502.79	278.18
503.16	279.05
503.52	280.10
503.88	281.06
504.24	282.14
504.60	283.17
504.97	284.20
505.33	285.38
505.69	286.63
506.05	287.84
506.41	289.29
506.78	290.64
507.14	291.93
507.50	293.33
507.86	294.93
508.22	296.53
508.59	298.16
508.95	299.83
509.31	301.60
509.67	303.60
510.03	305.65
510.39	307.63
510.75	309.72
511.12	311.82
511.48	314.14
511.84	316.50
512.20	318.93
512.56	321.45
512.92	323.94
513.28	326.65
513.64	329.42
514.00	332.08
514.37	335.00
514.73	338.03
515.09	341.06
515.45	344.10
515.81	347.45
516.17	350.81
516.53	354.18
516.89	357.70
517.25	361.13
517.61	364.83
517.97	368.56
518.33	372.55
518.69	376.52
519.05	380.54
519.41	384.60
519.77	389.02
520.13	393.47
520.49	397.83
520.85	402.35
521.21	406.97
521.57	411.85
521.93	416.59
522.29	421.66
522.65	426.82
523.01	432.17
523.37	437.13
523.73	442.35
524.09	447.92
524.45	453.46
524.81	459.18
525.17	464.91
525.53	470.79
525.89	476.52
526.25	482.59
526.61	488.67
526.97	494.79
527.33	501.17
527.68	507.60
528.04	514.15
528.40	520.70
528.76	527.68
529.12	534.44
529.48	541.44
529.84	548.25
530.20	555.25
530.56	562.22
530.91	569.51
531.27	576.88
531.63	584.05
531.99	591.56
532.35	599.04
532.71	606.35
533.07	614.36
533.42	622.12
533.78	629.72
534.14	637.53
534.50	645.38
534.86	653.09
535.21	660.75
535.57	668.72
535.93	676.76
536.29	684.55
536.65	692.47
537.00	700.32
537.36	708.49
537.72	716.60
538.08	724.74
538.44	733.01
538.79	741.12
539.15	749.25
539.51	757.32
539.87	765.62
540.22	774.01
540.58	782.14
540.94	790.14
541.29	798.20
541.65	805.99
542.01	814.54
542.37	822.56
542.72	830.70
543.08	839.10
543.44	847.49
543.79	855.09
544.15	863.33
544.51	871.74
544.87	879.88
545.22	887.58
545.58	895.22
545.94	902.58
546.29	910.21
546.65	917.93
547.01	925.40
547.36	932.64
547.72	940.08
548.07	947.23
548.43	954.52
548.79	961.99
549.14	969.70
549.50	976.72
549.86	983.94
550.21	990.95
550.57	997.71
550.92	1004.18
551.28	1011.07
551.64	1017.72
551.99	1024.01
552.35	1030.44
552.70	1037.22
553.06	1044.19
553.41	1051.08
553.77	1057.66
554.13	1063.93
554.48	1070.55
554.84	1077.02
555.19	1083.21
555.55	1089.63
555.90	1095.63
556.26	1101.81
556.61	1107.73
556.97	1113.16
557.32	1118.91
557.68	1124.56
558.03	1130.00
558.39	1135.77
558.74	1142.04
559.10	1147.54
559.45	1153.26
559.81	1159.42
560.16	1164.81
560.52	1170.07
560.87	1175.68
561.23	1180.92
561.58	1186.49
561.94	1191.23
562.29	1196.13
562.64	1200.64
563.00	1205.23
563.35	1210.41
563.71	1215.34
564.06	1219.93
564.42	1224.98
564.77	1229.51
565.12	1234.32
565.48	1239.31
565.83	1243.47
566.19	1247.53
566.54	1251.53
566.89	1255.42
567.25	1258.66
567.60	1262.89
567.96	1266.39
568.31	1269.61
568.66	1273.15
569.02	1276.33
569.37	1279.60
569.72	1282.67
570.08	1285.79
570.43	1288.69
570.78	1291.24
571.14	1293.26
571.49	1295.98
571.84	1298.79
572.20	1301.00
572.55	1303.04
572.90	1304.55
573.26	1306.50
573.61	1308.24
573.96	1309.98
574.31	1311.18
574.67	1312.56
575.02	1313.23
575.37	1314.49
575.72	1315.01
576.08	1315.92
576.43	1316.77
576.78	1317.35
577.13	1318.65
577.49	1319.49
577.84	1320.12
578.19	1320.86
578.54	1321.26
578.90	1321.05
579.25	1320.53
579.60	1320.26
579.95	1320.40
580.30	1320.05
580.66	1319.55
581.01	1318.93
581.36	1318.57
581.71	1318.28
582.06	1317.58
582.42	1316.96
582.77	1316.21
583.12	1315.78
583.47	1314.91
583.82	1314.24
584.17	1313.42
584.53	1312.16
584.88	1311.30
585.23	1310.41
585.58	1309.33
585.93	1308.69
586.28	1308.13
586.63	1306.93
586.98	1306.01
587.34	1304.61
587.69	1303.61
588.04	1302.60
588.39	1301.58
588.74	1299.56
589.09	1298.17
589.44	1296.53
589.79	1295.05
590.14	1293.60
590.49	1291.91
590.84	1290.41
591.19	1288.44
591.54	1286.20
591.89	1283.02
592.25	1280.70
592.60	1277.67
592.95	1274.99
593.30	1272.23
593.65	1269.09
594.00	1266.68
594.35	1264.50
594.70	1261.33
595.05	1258.59
595.40	1255.91
595.75	1252.67
596.10	1250.14
596.45	1247.67
596.80	1245.14
597.15	1242.61
597.50	1239.75
597.85	1237.36
598.19	1234.71
598.54	1232.23
598.89	1229.76
599.24	1227.91
599.59	1225.20
599.94	1222.87
600.29	1220.40
600.64	1217.18
600.99	1214.13
601.34	1211.43
601.69	1208.19
602.04	1205.65
602.39	1202.75
602.74	1200.14
603.08	1197.57
603.43	1195.12
603.78	1192.12
604.13	1189.01
604.48	1185.60
604.83	1182.55
605.18	1179.35
605.53	1175.49
605.87	1171.37
606.22	1168.22
606.57	1164.73
606.92	1161.48
607.27	1158.35
607.62	1154.91
607.96	1151.81
608.31	1148.72
608.66	1144.83
609.01	1140.99
609.36	1136.82
609.70	1132.42
610.05	1127.89
610.40	1123.91
610.75	1119.60
611.10	1115.33
611.44	1111.00
611.79	1107.18
612.14	1102.87
612.49	1098.18
612.83	1093.70
613.18	1089.60
613.53	1085.25
613.88	1080.76
614.22	1076.28
614.57	1071.62
614.92	1067.18
615.27	1063.08
615.61	1058.75
615.96	1054.58
616.31	1050.69
616.65	1047.14
617.00	1043.37
617.35	1039.41
617.70	1035.01
618.04	1030.49
618.39	1026.23
618.74	1022.19
619.08	1017.53
619.43	1013.12
619.78	1009.10
620.12	1005.21
620.47	1001.11
620.82	996.59
621.16	992.52
621.51	988.54
621.85	984.40
622.20	979.78
622.55	975.48
622.89	971.11
623.24	966.83
623.59	962.64
623.93	958.38
624.28	954.24
624.62	949.95
624.97	945.91
625.32	942.13
625.66	938.21
626.01	933.91
626.35	929.85
626.70	925.76
627.04	921.88
627.39	917.44
627.73	913.19
628.08	909.29
628.43	905.26
628.77	900.89
629.12	896.38
629.46	892.17
629.81	887.66
630.15	883.14
630.50	878.78
630.84	873.91
631.19	869.31
631.53	864.74
631.88	860.20
632.22	855.46
632.57	850.99
632.91	846.19
633.26	841.90
633.60	837.43
633.95	833.11
634.29	828.71
634.64	824.74
634.98	820.57
635.32	816.59
635.67	812.40
636.01	808.40
636.36	804.56
636.70	800.79
637.05	797.19
637.39	793.70
637.73	789.79
638.08	786.43
638.42	782.84
638.77	779.37
639.11	775.63
639.45	772.03
639.80	768.10
640.14	764.37
640.49	760.67
640.83	757.10
641.17	753.46
641.52	749.40
641.86	745.57
642.20	742.08
642.55	738.30
642.89	734.67
643.23	730.85
643.58	727.40
643.92	723.40
644.26	719.65
644.61	715.99
644.95	712.35
645.29	708.25
645.64	704.03
645.98	700.03
646.32	696.33
646.66	692.49
647.01	688.64
647.35	685.23
647.69	681.45
648.04	677.82
648.38	673.90
648.72	670.06
649.06	666.19
649.41	662.16
649.75	658.26
650.09	654.33
650.43	650.38
650.78	646.55
651.12	642.90
651.46	638.98
651.80	635.19
652.14	631.64
652.49	628.19
652.83	624.83
653.17	621.38
653.51	617.67
653.85	614.19
654.20	610.68
654.54	606.56
654.88	602.88
655.22	599.12
655.56	595.59
655.90	592.33
656.25	589.04
656.59	585.66
656.93	582.42
657.27	579.10
657.61	575.64
657.95	572.21
658.29	569.08
658.64	565.84
658.98	562.49
659.32	559.03
659.66	555.91
660.00	552.61
660.34	549.31
660.68	546.12
661.02	542.75
661.36	539.98
661.70	537.18
662.05	534.33
662.39	531.49
662.73	528.62
663.07	526.01
663.41	523.31
663.75	520.56
664.09	517.52
664.43	514.71
664.77	512.33
665.11	509.68
665.45	506.75
665.79	503.84
666.13	501.25
666.47	498.60
666.81	495.65
667.15	492.96
667.49	490.36
667.83	488.05
668.17	485.47
668.51	482.81
668.85	480.35
669.19	477.88
669.53	475.30
669.87	472.99
670.21	470.29
670.55	467.89
670.89	465.67
671.23	463.40
671.57	461.19
671.91	458.78
672.25	456.30
672.58	454.22
672.92	452.30
673.26	450.18
673.60	448.18
673.94	446.25
674.28	444.55
674.62	442.57
674.96	440.43
675.30	438.80
675.64	436.75
675.97	434.81
676.31	432.78
676.65	430.86
676.99	428.89
677.33	426.87
677.67	424.81
678.01	422.64
678.34	420.62
678.68	418.67
679.02	416.71
679.36	414.90
679.70	413.02
680.04	411.22
680.37	409.33
680.71	407.50
681.05	405.78
681.39	403.85
681.73	402.22
682.06	400.64
682.40	398.82
682.74	397.36
683.08	395.74
683.42	394.16
683.75	392.50
684.09	390.75
684.43	389.28
684.77	387.72
685.10	386.29
685.44	384.78
685.78	383.36
686.12	381.81
686.45	380.19
686.79	378.52
687.13	376.83
687.46	375.20
687.80	373.56
688.14	371.74
688.48	370.19
688.81	368.48
689.15	366.92
689.49	365.34
689.82	363.65
690.16	362.13
690.50	360.57
690.83	359.16
691.17	357.69
691.51	356.25
691.84	354.76
692.18	353.14
692.52	351.66
692.85	350.05
693.19	348.66
693.52	347.34
693.86	346.00
694.20	344.67
694.53	343.30
694.87	341.94
695.21	340.73
695.54	339.41
695.88	337.99
696.21	336.65
696.55	335.37
696.88	334.10
697.22	332.83
697.56	331.77
697.89	330.52
698.23	329.29
698.56	328.10
698.90	326.87
699.23	325.72
699.57	324.59
699.90	323.50
700.24	322.32
700.58	321.20
700.91	320.15
701.25	319.09
701.58	318.16
701.92	317.12
702.25	316.00
702.59	314.90
702.92	314.08
703.26	313.12
703.59	312.24
703.93	311.35
704.26	310.42
704.60	309.36
704.93	308.46
705.26	307.57
705.60	306.54
705.93	305.77
706.27	305.09
706.60	304.37
706.94	303.64
707.27	302.75
707.61	301.93
707.94	301.09
708.27	300.30
708.61	299.39
708.94	298.63
709.28	297.92
709.61	297.17
709.94	296.49
710.28	295.71
710.61	294.93
710.95	294.06
711.28	293.48
711.61	292.82
711.95	292.19
712.28	291.48
712.61	290.82
712.95	290.17
713.28	289.36
713.61	288.58
713.95	287.72
714.28	287.20
714.61	286.54
714.95	285.96
715.28	285.26
715.61	284.60
715.95	283.93
716.28	283.42
716.61	282.95
716.95	282.21
717.28	281.62
717.61	280.95
717.94	280.51
718.28	279.70
718.61	279.07
718.94	278.44
719.27	277.87
719.61	277.45
719.94	276.89
720.27	276.29
720.60	275.81
720.94	275.38
721.27	274.82
721.60	274.46
721.93	273.95
722.27	273.50
722.60	273.03
722.93	272.65
723.26	272.21
723.59	271.67
723.93	271.30
724.26	270.90
724.59	270.55
724.92	270.11
725.25	269.64
725.59	269.20
725.92	268.80
726.25	268.47
726.58	267.94
726.91	267.56
727.24	267.21
727.57	266.79
727.91	266.32
728.24	265.97
728.57	265.52
728.90	265.12
729.23	264.65
729.56	264.53
729.89	264.10
730.22	263.64
730.55	263.18
730.89	262.83
731.22	262.34
731.55	261.88
731.88	261.46
732.21	261.14
732.54	260.76
732.87	260.35
733.20	260.02
733.53	259.70
733.86	259.35
734.19	258.90
734.52	258.50
734.85	258.30
735.18	257.92
735.51	257.58
735.84	257.25
736.17	256.95
736.50	256.30
736.83	256.12
737.16	255.81
737.49	255.60
737.82	255.10
738.15	254.86
738.48	254.57
738.81	254.17
739.14	253.88
739.47	253.56
739.80	253.30
740.13	252.91
740.46	252.56
740.79	252.16
741.12	251.96
741.45	251.73
741.78	251.37
742.11	251.11
742.44	250.83
742.77	250.59
743.10	250.26
743.43	250.15
743.75	249.64
744.08	249.62
744.41	249.31
744.74	249.21
745.07	248.97
745.40	248.75
745.73	248.69
746.06	248.51
746.39	248.27
746.71	248.10
747.04	247.90
747.37	247.71
747.70	247.57
748.03	247.41
748.36	247.30
748.68	247.06
749.01	246.80
749.34	246.61
749.67	246.40
750.00	246.37
750.33	246.12
750.65	246.00
750.98	245.52
751.31	245.34
751.64	245.10
751.97	244.92
752.29	244.76
752.62	244.44
752.95	244.22
753.28	244.21
753.60	244.04
753.93	243.99
754.26	243.94
754.59	243.75
754.91	243.58
755.24	243.39
755.57	243.17
755.90	243.11
756.22	242.94
756.55	242.76
756.88	242.58
757.20	242.53
757.53	242.42
757.86	242.32
758.19	242.22
758.51	242.12
758.84	241.94
759.17	241.85
759.49	241.83
759.82	241.83
760.15	241.59
760.47	241.35
760.80	241.09
761.13	240.90
761.45	240.73
761.78	240.63
762.11	240.50
762.43	240.55
762.76	240.33
763.08	240.20
763.41	240.20
763.74	239.97
764.06	239.80
764.39	239.57
764.71	239.47
765.04	239.31
765.37	239.16
765.69	239.07
766.02	238.92
766.34	238.70
766.67	238.48
767.00	238.53
767.32	238.60
767.65	238.61
767.97	238.51
768.30	238.42
768.62	238.20
768.95	238.03
769.27	237.76
769.60	237.70
769.92	237.50
770.25	237.36
770.57	237.29
770.90	237.10
771.22	237.05
771.55	236.98
771.87	236.93
772.20	236.85
772.52	236.89
772.85	236.95
773.17	236.87
773.50	236.69
773.82	236.54
774.15	236.20
774.47	236.00
774.80	235.90
775.12	235.76
775.45	235.73
775.77	235.67
776.09	235.60
776.42	235.50
776.74	235.50
777.07	235.28
777.39	235.24
777.72	235.24
778.04	235.14
778.36	235.02
778.69	234.92
779.01	234.87
779.33	234.70
779.66	234.40
779.98	234.31
780.31	234.20
780.63	234.09
780.95	234.10
781.28	234.04
781.60	233.85
781.92	233.72
782.25	233.56
782.57	233.45
782.89	233.41
783.22	233.35
783.54	233.32
783.86	233.39
784.19	233.29
784.51	233.25
784.83	233.19
785.16	233.15
785.48	233.04
785.80	232.97
786.12	232.87
786.45	232.87
786.77	232.91
787.09	232.93
787.42	232.73
787.74	232.68
788.06	232.57
788.38	232.49
788.71	232.60
789.03	232.67
789.35	232.66
789.67	232.67
789.99	232.64
790.32	232.56
790.64	232.46
790.96	232.54
791.28	232.46
791.61	232.47
791.93	232.44
792.25	232.47
792.57	232.56
792.89	232.53
793.21	232.58
793.54	232.49
793.86	232.46
794.18	232.58
794.50	232.53
794.82	232.57
795.14	232.65
795.47	232.64
795.79	232.65
796.11	232.56
796.43	232.49
796.75	232.55
797.07	232.50
797.39	232.50
797.71	232.38
798.04	232.34
798.36	232.31
798.68	232.24
799.00	232.18
799.32	232.11
799.64	232.14
799.96	232.04
800.28	232.07
800.60	232.02
800.92	231.96
801.24	232.00
801.56	231.97
801.89	231.88
802.21	231.85
802.53	231.78
802.85	231.87
803.17	231.89
803.49	231.75
803.81	231.83
804.13	231.82
804.45	231.73
804.77	231.86
805.09	231.80
805.41	231.72
805.73	231.60
806.05	231.50
806.37	231.42
806.69	231.45
807.01	231.37
807.33	231.30
807.65	231.23
807.97	231.32
808.28	231.26
808.60	231.35
808.92	231.25
809.24	231.26
809.56	231.17
809.88	231.08
810.20	230.97
810.52	230.88
810.84	230.75
811.16	230.74
811.48	230.58
811.80	230.57
812.12	230.61
812.43	230.70
812.75	230.67
813.07	230.66
813.39	230.60
813.71	230.57
814.03	230.54
814.35	230.53
814.67	230.32
814.98	230.24
815.30	230.06
815.62	229.93
815.94	229.75
816.26	229.81
816.58	229.79
816.89	229.80
817.21	229.79
817.53	229.83
817.85	229.70
818.17	229.67
818.48	229.69
818.80	229.76
819.12	229.69
819.44	229.62
819.76	229.54
820.07	229.43
820.39	229.35
820.71	229.39
821.03	229.33
821.34	229.40
821.66	229.39
821.98	229.42
822.30	229.44
822.61	229.55
822.93	229.42
823.25	229.35
823.57	229.29
823.88	229.18
824.20	229.00
824.52	229.15
824.83	229.10
825.15	229.00
825.47	228.88
825.79	228.84
826.10	228.86
826.42	228.77
826.74	228.85
827.05	228.93
827.37	228.86
827.69	228.78
828.00	228.65
828.32	228.65
828.64	228.65
828.95	228.75
829.27	228.68
829.58	228.72
829.90	228.87
830.22	228.89
830.53	228.98
830.85	229.05
831.17	228.92
831.48	228.90
831.80	228.86
832.11	228.90
832.43	228.99
832.75	228.95
833.06	229.25
833.38	229.22
833.69	229.18
834.01	229.25
834.32	229.36
834.64	229.44
834.96	229.47
835.27	229.48
835.59	229.46
835.90	229.53
836.22	229.49
836.53	229.45
836.85	229.52
837.16	229.68
837.48	229.73
837.79	229.80
838.11	229.83
838.42	229.99
838.74	230.00
839.05	230.03
839.37	230.04
839.68	229.79
840.00	229.76
840.31	229.90
840.63	229.91
840.94	229.95
841.26	229.88
841.57	229.93
841.88	230.00
842.20	229.99
842.51	229.88
842.83	229.83
843.14	229.99
843.46	230.00
843.77	229.87
844.08	229.86
844.40	229.80
844.71	229.78
845.03	229.70
845.34	229.67
845.65	229.48
845.97	229.41
846.28	229.53
846.60	229.60
846.91	229.51
847.22	229.53
847.54	229.50
847.85	229.45
848.16	229.49
848.48	229.46
848.79	229.46
849.10	229.62
849.42	229.66
849.73	229.40
850.04	229.31
850.36	229.20
850.67	229.22
850.98	229.18
851.30	229.29
851.61	229.27
851.92	229.13
852.23	229.25
852.55	229.34
852.86	229.31
853.17	229.22
853.49	229.22
853.80	229.21
854.11	229.18
854.42	229.30
854.74	229.18
855.05	229.16
855.36	229.14
855.67	229.13
855.99	229.04
856.30	229.24
856.61	229.14
856.92	229.20
857.23	229.21
857.55	229.14
857.86	229.05
858.17	229.01
858.48	229.06
858.79	228.95
859.11	228.94
859.42	228.88
859.73	228.84
860.04	228.71
860.35	228.58
860.66	228.45
860.98	228.49
861.29	228.43
861.60	228.32
861.91	228.34
862.22	228.26
862.53	228.26
862.84	228.08
863.16	228.22
863.47	228.10
863.78	228.02
864.09	228.15
864.40	228.22
864.71	228.22
865.02	228.19
865.33	228.17
865.64	228.15
865.95	228.14
866.27	228.30
866.58	228.30
866.89	228.29
867.20	228.34
867.51	228.21
867.82	228.25
868.13	228.32
868.44	228.25
868.75	228.23
869.06	228.23
869.37	228.13
869.68	228.13
869.99	228.13
870.30	228.18
870.61	228.10
870.92	228.02
871.23	228.07
871.54	228.19
871.85	228.26
872.16	228.29
872.47	228.22
872.78	228.10
873.09	228.21
873.40	228.33
873.71	228.42
874.02	228.48
874.33	228.47
874.64	228.47
874.95	228.50
875.26	228.50
875.56	228.51
875.87	228.72
876.18	228.72
876.49	229.01
876.80	228.96
877.11	228.99
877.42	229.05
877.73	229.01
878.04	229.00
878.35	229.05
878.66	229.04
878.96	229.15
879.27	229.16
879.58	229.10
879.89	229.03
880.20	229.13
880.51	229.11
880.82	229.20
881.12	229.22
881.43	229.26
881.74	229.19
882.05	229.34
882.36	229.23
882.67	229.22
882.97	229.06
883.28	229.07
883.59	229.09
883.90	229.08
884.21	229.00
884.51	229.00
884.82	229.01
885.13	229.08
885.44	228.97
885.74	228.96
886.05	228.97
886.36	228.90
886.67	228.83
886.98	228.90
887.28	228.82
887.59	228.74
887.90	228.66
888.20	228.72
888.51	228.56
888.82	228.51
889.13	228.57
889.43	228.64
889.74	228.68
890.05	228.70
890.35	228.56
890.66	228.53
890.97	228.41
891.28	228.25
891.58	228.22
891.89	228.33
892.20	228.36
892.50	228.46
892.81	228.48
893.12	228.47
893.42	228.38
893.73	228.43
894.04	228.47
894.34	228.51
894.65	228.49
894.95	228.47
895.26	228.43
895.57	228.31
895.87	228.19
896.18	228.17
896.48	228.26
896.79	228.29
897.10	228.42
897.40	228.50
897.71	228.56
898.01	228.53
898.32	228.52
898.63	228.54
898.93	228.50
899.24	228.47
899.54	228.42
899.85	228.47
900.15	228.42
900.46	228.38
900.76	228.39
901.07	228.49
901.38	228.51
901.68	228.59
901.99	228.64
902.29	228.67
902.60	228.62
902.90	228.48
903.21	228.48
903.51	228.35
903.82	228.40
904.12	228.39
904.43	228.32
904.73	228.29
905.03	228.22
905.34	228.34
905.64	228.40
905.95	228.37
906.25	228.37
906.56	228.36
906.86	228.41
907.17	228.41
907.47	228.26
907.77	228.27
908.08	228.27
908.38	228.26
908.69	228.15
908.99	228.30
909.30	228.32
909.60	228.35
909.90	228.46
910.21	228.34
910.51	228.34
910.81	228.22
911.12	228.29
911.42	228.28
911.73	228.10
912.03	228.07
912.33	228.09
912.64	228.00
912.94	227.91
913.24	227.94
913.55	227.94
913.85	227.95
914.15	227.95
914.46	227.98
914.76	227.91
915.06	227.87
915.37	227.74
915.67	227.69
915.97	227.79
916.27	227.74
916.58	227.85
916.88	227.90
917.18	228.07
917.49	228.18
917.79	228.15
918.09	228.23
918.39	228.32
918.70	228.35
919.00	228.33
919.30	228.56
919.60	228.50
919.91	228.51
920.21	228.60
920.51	228.66
920.81	228.69
921.12	228.76
921.42	228.84
921.72	228.89
922.02	228.96
922.32	228.91
922.63	228.97
922.93	229.03
923.23	229.03
923.53	229.01
923.83	228.93
924.13	228.98
924.44	228.94
924.74	228.89
925.04	228.94
925.34	228.91
925.64	228.75
925.94	228.77
926.24	228.78
926.55	228.68
926.85	228.61
927.15	228.53
927.45	228.48
927.75	228.49
928.05	228.42
928.35	228.38
928.65	228.43
928.95	228.40
929.26	228.36
929.56	228.35
929.86	228.33
930.16	228.34
930.46	228.36
930.76	228.39
931.06	228.42
931.36	228.41
931.66	228.47
931.96	228.51
932.26	228.45
932.56	228.40
932.86	228.39
933.16	228.42
933.46	228.33
933.76	228.32
934.06	228.34
934.36	228.46
934.66	228.36
934.96	228.24
935.26	228.17
935.56	228.18
935.86	228.15
936.16	228.04
936.46	227.89
936.76	227.82
937.06	227.70
937.36	227.65
937.66	227.50
937.96	227.46
938.26	227.42
938.56	227.36
938.86	227.39
939.16	227.42
939.46	227.31
939.76	227.40
940.06	227.47
940.35	227.44
940.65	227.29
940.95	227.33
941.25	227.30
941.55	227.31
941.85	227.20
942.15	227.19
942.45	227.35
942.75	227.34
943.04	227.31
943.34	227.45
943.64	227.42
943.94	227.44
944.24	227.41
944.54	227.41
944.84	227.55
945.13	227.50
945.43	227.59
945.73	227.59
946.03	227.57
946.33	227.50
946.62	227.41
946.92	227.48
947.22	227.51
947.52	227.49
947.82	227.51
948.11	227.47
948.41	227.48
948.71	227.36
949.01	227.43
949.31	227.46
949.60	227.38
949.90	227.42
950.20	227.44
950.50	227.51
950.79	227.53
951.09	227.44
951.39	227.43
951.69	227.31
951.98	227.42
952.28	227.35
952.58	227.39
952.87	227.45
953.17	227.42
953.47	227.43
953.76	227.50
954.06	227.49
954.36	227.59
954.66	227.65
954.95	227.73
955.25	227.77
955.55	227.72
955.84	227.71
956.14	227.74
956.44	227.83
956.73	227.80
957.03	227.86
957.32	227.99
957.62	228.04
957.92	228.08
958.21	228.13
958.51	228.43
958.81	228.55
959.10	228.60
959.40	228.65
959.69	228.69
959.99	228.72
960.29	228.77
960.58	228.79
960.88	228.77
961.17	228.76
961.47	228.77
961.76	228.82
962.06	228.90
962.36	228.89
962.65	228.88
962.95	228.96
963.24	228.92
963.54	228.90
963.83	228.93
964.13	229.05
964.42	228.94
964.72	228.79
965.01	228.66
965.31	228.71
965.60	228.76
965.90	228.87
966.19	228.82
966.49	228.94
966.78	228.94
967.08	229.02
967.37	228.94
967.67	228.92
967.96	228.91
968.26	228.85
968.55	228.83
968.85	228.73
969.14	228.81
969.43	228.88
969.73	228.89
970.02	228.87
970.32	228.80
970.61	228.87
970.91	228.84
971.20	228.85
971.49	228.77
971.79	228.65
972.08	228.52
972.38	228.60
972.67	228.41
972.96	228.40
973.26	228.30
973.55	228.45
973.85	228.40
974.14	228.45
974.43	228.43
974.73	228.46
975.02	228.48
975.31	228.30
975.61	228.23
975.90	228.03
976.19	227.95
976.49	227.94
976.78	227.92
977.07	227.94
977.37	227.91
977.66	227.92
977.95	227.90
978.24	227.82
978.54	227.87
978.83	227.94
979.12	227.93
979.42	227.93
979.71	227.87
980.00	227.91
980.29	227.92
980.59	227.93
980.88	227.90
981.17	227.90
981.46	227.94
981.76	227.90
982.05	228.09
982.34	228.13
982.63	228.10
982.93	228.09
983.22	228.09
983.51	228.16
983.80	228.13
984.09	228.26
984.39	228.30
984.68	228.20
984.97	228.15
985.26	228.17
985.55	228.17
985.85	228.20
986.14	228.22
986.43	228.15
986.72	228.19
987.01	228.20
987.30	228.20
987.59	228.22
987.89	228.26
988.18	228.18
988.47	228.19
988.76	228.18
989.05	228.08
989.34	228.08
989.63	228.04
989.92	228.00
990.22	227.89
990.51	227.90
990.80	227.87
991.09	227.93
991.38	227.91
991.67	227.91
991.96	227.75
992.25	227.66
992.54	227.66
992.83	227.63
993.12	227.59
993.41	227.70
993.70	227.70
993.99	227.69
994.28	227.74
994.58	227.75
994.87	227.74
995.16	227.80
995.45	227.77
995.74	227.67
996.03	227.76
996.32	227.84
996.61	227.93
996.90	227.99
997.19	227.88
997.48	227.94
997.77	227.97
998.06	228.17
998.34	228.22
998.63	228.22
998.92	228.28
999.21	228.37
999.50	228.40
999.79	228.55
1000.08	228.59
1000.37	228.60
1000.66	228.52
1000.95	228.64
1001.24	228.74
1001.53	228.78
1001.82	228.89
1002.11	228.83
1002.40	228.85
1002.68	228.87
1002.97	228.94
1003.26	229.05
1003.55	229.03
1003.84	229.00
1004.13	229.00
1004.42	229.03
1004.71	229.06
1004.99	229.06
1005.28	229.05
1005.57	228.94
1005.86	228.82
1006.15	228.79
1006.44	228.67
1006.72	228.70
1007.01	228.63
1007.30	228.54
1007.59	228.51
1007.88	228.54
1008.17	228.59
1008.45	228.54
1008.74	228.50
1009.03	228.43
1009.32	228.41
1009.60	228.38
1009.89	228.38
1010.18	228.30
1010.47	228.31
1010.76	228.30
1011.04	228.25
1011.33	228.35
1011.62	228.45
1011.91	228.37
1012.19	228.37
1012.48	228.42
1012.77	228.46
1013.05	228.52
1013.34	228.52
1013.63	228.50
1013.92	228.47
1014.20	228.40
1014.49	228.39
1014.78	228.42
1015.06	228.37
1015.35	228.38
1015.64	228.33
1015.92	228.44
1016.21	228.44
1016.50	228.41
1016.78	228.41
1017.07	228.36
1017.36	228.20
1017.64	228.12
1017.93	228.17
1018.22	228.12
1018.50	228.07
1018.79	228.13
1019.08	228.00
1019.36	228.06
1019.65	228.12
1019.93	228.13
1020.22	228.16
1020.51	228.21
1020.79	228.15
1021.08	227.00
1021.36	226.50
1021.65	229.70
1021.94	227.20
1022.22	228.80
1022.51	228.90
1022.79	228.20
1023.08	227.50
1023.36	229.30
1023.65	227.90
>>>>>End Processed Spectral Data<<<<<
