SpectraSuite Data File
++++++++++++++++++++++++++++++++++++
Date: Fri Feb 01 14:34:51 EST 2013
User: group
Dark Spectrum Present: No
Reference Spectrum Present: No
Number of Sampled Component Spectra: 1
Spectrometers: USB2E7196
Integration Time (usec): 70000 (USB2E7196)
Spectra Averaged: 10 (USB2E7196)
Boxcar Smoothing: 10 (USB2E7196)
Correct for Electrical Dark: No (USB2E7196)
Strobe/Lamp Enabled: No (USB2E7196)
Correct for Detector Non-linearity: No (USB2E7196)
Correct for Stray Light: No (USB2E7196)
Number of Pixels in Processed Spectrum: 2048
>>>>>Begin Processed Spectral Data<<<<<
339.09	0.00
339.48	218.00
339.86	218.20
340.24	221.20
340.63	222.00
341.01	225.50
341.39	224.10
341.78	224.80
342.16	227.30
342.54	225.60
342.93	215.81
343.31	226.67
343.69	227.13
344.07	227.59
344.46	228.00
344.84	228.29
345.22	228.40
345.60	228.65
345.99	228.83
346.37	228.94
346.75	229.16
347.13	229.10
347.52	229.19
347.90	229.26
348.28	229.18
348.66	229.20
349.05	229.20
349.43	229.27
349.81	229.27
350.19	229.20
350.57	229.29
350.96	229.46
351.34	229.51
351.72	229.64
352.10	229.77
352.48	229.71
352.87	229.71
353.25	229.79
353.63	229.86
354.01	229.97
354.39	230.02
354.77	230.09
355.15	230.28
355.54	230.33
355.92	230.34
356.30	230.36
356.68	230.54
357.06	230.51
357.44	230.40
357.82	230.42
358.20	230.42
358.58	230.40
358.97	230.45
359.35	230.59
359.73	230.64
360.11	230.63
360.49	230.72
360.87	230.86
361.25	230.92
361.63	230.96
362.01	230.98
362.39	230.99
362.77	230.95
363.15	230.92
363.53	230.77
363.91	230.73
364.29	230.76
364.67	230.60
365.05	230.56
365.43	230.55
365.81	230.64
366.19	230.81
366.57	230.74
366.95	230.73
367.33	230.55
367.71	230.48
368.09	230.57
368.47	230.50
368.85	230.42
369.23	230.45
369.61	230.39
369.99	230.42
370.37	230.41
370.75	230.43
371.13	230.27
371.51	230.26
371.89	230.24
372.27	230.11
372.65	230.01
373.03	229.98
373.41	229.99
373.78	229.83
374.16	229.75
374.54	229.72
374.92	229.59
375.30	229.53
375.68	229.39
376.06	229.18
376.44	229.08
376.82	229.05
377.19	229.00
377.57	228.86
377.95	228.59
378.33	228.38
378.71	228.28
379.09	228.19
379.47	228.20
379.84	228.22
380.22	228.16
380.60	228.17
380.98	228.10
381.36	227.92
381.73	227.94
382.11	227.77
382.49	227.74
382.87	227.56
383.25	227.59
383.62	227.76
384.00	227.72
384.38	227.68
384.76	227.60
385.13	227.64
385.51	227.52
385.89	227.49
386.27	227.51
386.64	227.39
387.02	227.45
387.40	227.27
387.78	227.11
388.15	226.97
388.53	226.86
388.91	226.80
389.29	226.90
389.66	226.85
390.04	226.80
390.42	226.83
390.79	226.86
391.17	226.89
391.55	226.67
391.92	226.70
392.30	226.71
392.68	226.61
393.05	226.50
393.43	226.57
393.81	226.64
394.18	226.62
394.56	226.63
394.94	226.75
395.31	226.89
395.69	227.10
396.06	227.35
396.44	227.41
396.82	227.48
397.19	227.58
397.57	227.70
397.95	227.90
398.32	227.91
398.70	227.96
399.07	228.06
399.45	228.23
399.82	228.27
400.20	228.35
400.58	228.52
400.95	228.61
401.33	228.84
401.70	229.20
402.08	229.39
402.45	229.68
402.83	229.82
403.20	230.00
403.58	230.05
403.95	230.27
404.33	230.62
404.71	230.88
405.08	231.28
405.46	231.51
405.83	231.73
406.21	232.12
406.58	232.64
406.96	233.01
407.33	233.49
407.70	234.04
408.08	234.69
408.45	235.33
408.83	235.94
409.20	236.45
409.58	236.90
409.95	237.72
410.33	238.40
410.70	239.14
411.08	240.03
411.45	240.90
411.82	241.75
412.20	242.75
412.57	243.74
412.95	244.59
413.32	245.66
413.69	246.83
414.07	247.97
414.44	249.20
414.82	250.56
415.19	252.15
415.56	253.58
415.94	255.30
416.31	257.10
416.68	258.89
417.06	261.06
417.43	263.04
417.81	265.23
418.18	267.57
418.55	270.08
418.93	272.59
419.30	275.28
419.67	278.03
420.04	280.79
420.42	283.87
420.79	287.40
421.16	290.79
421.54	294.43
421.91	298.26
422.28	302.29
422.66	306.50
423.03	310.51
423.40	314.93
423.77	319.46
424.15	324.14
424.52	328.97
424.89	334.11
425.26	339.16
425.64	343.91
426.01	349.13
426.38	354.63
426.75	360.11
427.13	365.78
427.50	371.90
427.87	378.17
428.24	384.61
428.61	390.53
428.99	397.26
429.36	404.24
429.73	411.44
430.10	418.21
430.47	425.18
430.85	432.34
431.22	439.91
431.59	448.06
431.96	455.68
432.33	464.24
432.70	472.60
433.08	482.36
433.45	491.45
433.82	500.63
434.19	510.70
434.56	520.75
434.93	530.43
435.30	539.80
435.68	550.23
436.05	560.41
436.42	570.65
436.79	579.95
437.16	590.09
437.53	600.53
437.90	611.31
438.27	621.82
438.64	632.58
439.01	642.76
439.38	651.59
439.75	660.20
440.13	670.13
440.50	679.55
440.87	687.61
441.24	695.85
441.61	704.69
441.98	711.47
442.35	719.31
442.72	727.39
443.09	735.43
443.46	740.44
443.83	744.13
444.20	747.44
444.57	752.10
444.94	755.06
445.31	757.77
445.68	760.33
446.05	762.19
446.42	762.71
446.79	762.76
447.16	762.61
447.53	763.20
447.90	760.62
448.27	757.89
448.64	753.27
449.01	750.70
449.37	745.05
449.74	739.39
450.11	732.36
450.48	724.63
450.85	716.56
451.22	710.19
451.59	703.85
451.96	698.16
452.33	689.53
452.70	681.65
453.07	672.17
453.43	662.78
453.80	653.48
454.17	644.31
454.54	635.64
454.91	626.45
455.28	617.21
455.65	608.89
456.02	600.30
456.38	593.04
456.75	583.59
457.12	575.92
457.49	568.20
457.86	560.93
458.23	554.45
458.59	547.53
458.96	540.12
459.33	533.79
459.70	527.26
460.07	522.26
460.43	516.39
460.80	510.74
461.17	505.69
461.54	500.39
461.91	495.34
462.27	490.24
462.64	486.02
463.01	481.29
463.38	476.40
463.74	471.80
464.11	467.63
464.48	464.13
464.85	460.15
465.21	457.10
465.58	453.74
465.95	449.73
466.32	446.60
466.68	443.41
467.05	440.10
467.42	436.72
467.78	433.19
468.15	429.82
468.52	427.52
468.88	424.20
469.25	421.50
469.62	419.35
469.98	416.89
470.35	414.35
470.72	412.10
471.08	409.75
471.45	407.67
471.82	405.75
472.18	403.31
472.55	401.59
472.92	399.70
473.28	397.95
473.65	396.22
474.02	394.14
474.38	392.71
474.75	391.51
475.11	390.13
475.48	389.09
475.85	388.23
476.21	387.27
476.58	386.46
476.94	385.69
477.31	384.75
477.67	384.03
478.04	383.47
478.41	382.97
478.77	382.62
479.14	382.05
479.50	381.65
479.87	381.62
480.23	381.50
480.60	381.29
480.96	381.06
481.33	381.43
481.69	381.70
482.06	381.74
482.42	381.63
482.79	381.75
483.15	381.98
483.52	382.44
483.88	382.87
484.25	383.38
484.61	383.96
484.98	384.55
485.34	385.45
485.71	386.39
486.07	387.28
486.44	388.19
486.80	389.35
487.17	390.54
487.53	391.92
487.90	393.30
488.26	394.91
488.62	396.57
488.99	398.12
489.35	399.70
489.72	401.47
490.08	403.50
490.44	405.44
490.81	407.71
491.17	409.83
491.54	412.02
491.90	414.13
492.26	416.40
492.63	418.98
492.99	421.28
493.36	423.83
493.72	426.63
494.08	429.45
494.45	432.51
494.81	435.50
495.17	438.49
495.54	441.71
495.90	444.80
496.26	448.06
496.63	451.26
496.99	454.87
497.35	458.40
497.72	461.86
498.08	465.40
498.44	468.80
498.80	472.50
499.17	476.32
499.53	480.43
499.89	484.41
500.26	488.13
500.62	491.97
500.98	495.87
501.34	499.72
501.71	503.57
502.07	507.24
502.43	511.05
502.79	514.94
503.16	518.71
503.52	522.61
503.88	526.34
504.24	530.30
504.60	534.15
504.97	538.02
505.33	542.03
505.69	546.15
506.05	550.10
506.41	553.77
506.78	557.66
507.14	561.14
507.50	564.65
507.86	568.24
508.22	572.10
508.59	575.63
508.95	579.27
509.31	582.98
509.67	586.70
510.03	590.23
510.39	593.75
510.75	597.09
511.12	600.46
511.48	603.73
511.84	606.89
512.20	609.76
512.56	612.87
512.92	615.82
513.28	618.84
513.64	621.76
514.00	624.72
514.37	627.00
514.73	629.69
515.09	632.24
515.45	635.07
515.81	637.37
516.17	639.87
516.53	642.38
516.89	644.54
517.25	646.54
517.61	648.63
517.97	650.73
518.33	652.54
518.69	654.56
519.05	656.52
519.41	658.49
519.77	660.67
520.13	662.68
520.49	664.41
520.85	666.08
521.21	667.62
521.57	669.44
521.93	671.29
522.29	673.10
522.65	674.74
523.01	676.09
523.37	677.67
523.73	679.23
524.09	680.66
524.45	682.02
524.81	683.68
525.17	685.45
525.53	687.10
525.89	688.84
526.25	690.39
526.61	691.92
526.97	693.55
527.33	695.12
527.68	696.74
528.04	698.44
528.40	699.96
528.76	702.01
529.12	703.65
529.48	705.51
529.84	707.12
530.20	709.26
530.56	711.34
530.91	713.60
531.27	715.61
531.63	717.49
531.99	719.68
532.35	721.66
532.71	723.42
533.07	725.34
533.42	727.56
533.78	729.59
534.14	731.81
534.50	733.77
534.86	736.09
535.21	737.93
535.57	740.39
535.93	742.54
536.29	744.73
536.65	746.89
537.00	749.02
537.36	751.36
537.72	753.49
538.08	755.81
538.44	758.02
538.79	760.51
539.15	762.90
539.51	765.57
539.87	768.12
540.22	770.82
540.58	773.43
540.94	776.06
541.29	778.47
541.65	781.20
542.01	783.91
542.37	786.47
542.72	789.25
543.08	791.68
543.44	794.64
543.79	796.90
544.15	799.85
544.51	802.92
544.87	805.80
545.22	808.77
545.58	811.36
545.94	814.00
546.29	816.82
546.65	819.65
547.01	822.35
547.36	825.12
547.72	828.11
548.07	830.83
548.43	833.38
548.79	836.23
549.14	838.88
549.50	841.72
549.86	844.45
550.21	847.25
550.57	850.03
550.92	852.75
551.28	855.79
551.64	858.30
551.99	861.01
552.35	864.03
552.70	866.53
553.06	869.53
553.41	872.45
553.77	875.07
554.13	877.95
554.48	880.85
554.84	883.63
555.19	885.99
555.55	888.86
555.90	891.65
556.26	894.46
556.61	897.10
556.97	899.68
557.32	902.35
557.68	904.90
558.03	907.94
558.39	910.54
558.74	913.66
559.10	916.58
559.45	919.13
559.81	921.88
560.16	924.72
560.52	927.77
560.87	930.58
561.23	933.19
561.58	935.80
561.94	937.96
562.29	940.16
562.64	942.53
563.00	945.00
563.35	947.92
563.71	950.77
564.06	953.38
564.42	956.12
564.77	958.68
565.12	961.53
565.48	963.88
565.83	966.16
566.19	967.99
566.54	969.99
566.89	972.12
567.25	973.91
567.60	976.00
567.96	977.71
568.31	979.61
568.66	981.36
569.02	982.93
569.37	984.64
569.72	986.45
570.08	988.31
570.43	989.80
570.78	990.88
571.14	991.92
571.49	993.24
571.84	994.50
572.20	995.57
572.55	996.46
572.90	997.40
573.26	998.51
573.61	999.60
573.96	1000.42
574.31	1000.90
574.67	1001.39
575.02	1001.61
575.37	1001.94
575.72	1001.70
576.08	1002.18
576.43	1002.39
576.78	1002.82
577.13	1003.24
577.49	1003.49
577.84	1003.36
578.19	1003.48
578.54	1003.46
578.90	1003.28
579.25	1002.49
579.60	1002.02
579.95	1001.50
580.30	1000.63
580.66	999.92
581.01	999.02
581.36	998.62
581.71	998.36
582.06	997.81
582.42	997.32
582.77	996.50
583.12	995.78
583.47	994.98
583.82	994.62
584.17	993.47
584.53	992.49
584.88	991.36
585.23	990.60
585.58	989.63
585.93	988.57
586.28	987.66
586.63	987.00
586.98	986.06
587.34	984.93
587.69	983.84
588.04	983.01
588.39	982.06
588.74	980.55
589.09	978.91
589.44	977.30
589.79	975.86
590.14	974.57
590.49	973.54
590.84	971.90
591.19	970.29
591.54	968.47
591.89	966.50
592.25	964.89
592.60	962.76
592.95	960.55
593.30	958.49
593.65	956.29
594.00	953.79
594.35	952.23
594.70	949.98
595.05	948.28
595.40	945.82
595.75	943.40
596.10	941.33
596.45	939.44
596.80	937.74
597.15	935.68
597.50	933.50
597.85	931.38
598.19	929.50
598.54	927.62
598.89	925.74
599.24	924.09
599.59	922.12
599.94	920.30
600.29	918.25
600.64	916.16
600.99	913.97
601.34	912.11
601.69	909.19
602.04	906.92
602.39	904.43
602.74	902.24
603.08	900.27
603.43	898.13
603.78	895.84
604.13	893.55
604.48	891.44
604.83	889.28
605.18	887.08
605.53	884.29
605.87	881.19
606.22	878.76
606.57	875.89
606.92	873.10
607.27	870.71
607.62	868.21
607.96	865.71
608.31	863.25
608.66	860.46
609.01	857.73
609.36	854.74
609.70	851.69
610.05	848.60
610.40	845.60
610.75	842.26
611.10	839.09
611.44	835.41
611.79	832.06
612.14	828.44
612.49	824.64
612.83	821.30
613.18	818.08
613.53	814.87
613.88	811.40
614.22	807.95
614.57	804.30
614.92	800.93
615.27	797.52
615.61	794.04
615.96	790.79
616.31	787.64
616.65	785.06
617.00	782.01
617.35	779.14
617.70	775.68
618.04	772.54
618.39	769.33
618.74	766.61
619.08	763.35
619.43	760.31
619.78	757.50
620.12	754.73
620.47	751.63
620.82	748.23
621.16	745.40
621.51	742.66
621.85	739.61
622.20	736.84
622.55	734.04
622.89	731.08
623.24	728.27
623.59	725.33
623.93	722.31
624.28	719.15
624.62	716.13
624.97	713.55
625.32	710.64
625.66	707.70
626.01	704.67
626.35	701.90
626.70	699.12
627.04	696.43
627.39	693.21
627.73	690.28
628.08	687.61
628.43	684.76
628.77	681.78
629.12	678.70
629.46	675.54
629.81	672.26
630.15	669.10
630.50	665.98
630.84	662.82
631.19	659.37
631.53	656.58
631.88	653.45
632.22	650.28
632.57	647.50
632.91	644.62
633.26	641.60
633.60	638.45
633.95	635.40
634.29	632.35
634.64	629.67
634.98	626.90
635.32	624.30
635.67	621.61
636.01	619.09
636.36	616.49
636.70	613.83
637.05	611.29
637.39	609.00
637.73	606.52
638.08	604.32
638.42	602.08
638.77	599.74
639.11	597.06
639.45	594.66
639.80	591.96
640.14	589.70
640.49	587.53
640.83	585.00
641.17	582.54
641.52	580.00
641.86	577.49
642.20	575.13
642.55	572.42
642.89	569.88
643.23	567.20
643.58	564.83
643.92	562.22
644.26	559.77
644.61	557.31
644.95	554.80
645.29	552.05
645.64	549.35
645.98	546.78
646.32	544.61
646.66	541.99
647.01	539.60
647.35	536.97
647.69	534.22
648.04	532.20
648.38	529.52
648.72	527.08
649.06	524.52
649.41	521.93
649.75	519.35
650.09	516.74
650.43	514.26
650.78	511.49
651.12	509.02
651.46	506.59
651.80	504.05
652.14	501.70
652.49	499.43
652.83	497.25
653.17	494.76
653.51	492.30
653.85	489.94
654.20	487.63
654.54	485.19
654.88	482.90
655.22	480.17
655.56	477.96
655.90	475.60
656.25	473.39
656.59	471.13
656.93	469.10
657.27	467.00
657.61	464.63
657.95	462.75
658.29	460.76
658.64	458.44
658.98	456.24
659.32	453.96
659.66	451.71
660.00	449.60
660.34	447.35
660.68	445.12
661.02	443.01
661.36	440.81
661.70	438.96
662.05	436.97
662.39	435.29
662.73	433.35
663.07	431.60
663.41	429.80
663.75	427.87
664.09	425.95
664.43	424.10
664.77	422.40
665.11	420.61
665.45	418.79
665.79	417.20
666.13	415.50
666.47	413.78
666.81	412.12
667.15	410.15
667.49	408.52
667.83	406.99
668.17	405.34
668.51	403.74
668.85	401.92
669.19	400.33
669.53	398.54
669.87	397.10
670.21	395.45
670.55	393.82
670.89	392.46
671.23	390.91
671.57	389.47
671.91	388.05
672.25	386.51
672.58	384.99
672.92	383.47
673.26	382.03
673.60	380.82
673.94	379.44
674.28	378.30
674.62	377.27
674.96	375.92
675.30	374.53
675.64	373.16
675.97	371.93
676.31	370.70
676.65	369.55
676.99	368.41
677.33	367.19
677.67	366.03
678.01	364.65
678.34	363.51
678.68	362.22
679.02	360.92
679.36	359.80
679.70	358.77
680.04	357.58
680.37	356.38
680.71	355.07
681.05	353.92
681.39	352.93
681.73	351.41
682.06	350.42
682.40	349.55
682.74	348.60
683.08	347.70
683.42	346.62
683.75	345.54
684.09	344.30
684.43	343.15
684.77	341.90
685.10	340.94
685.44	339.83
685.78	338.84
686.12	337.61
686.45	336.53
686.79	335.33
687.13	334.31
687.46	333.34
687.80	332.40
688.14	331.36
688.48	330.24
688.81	329.45
689.15	328.50
689.49	327.45
689.82	326.47
690.16	325.37
690.50	324.34
690.83	323.37
691.17	322.42
691.51	321.42
691.84	320.63
692.18	319.61
692.52	318.69
692.85	317.59
693.19	316.95
693.52	316.10
693.86	315.21
694.20	314.39
694.53	313.44
694.87	312.43
695.21	311.44
695.54	310.42
695.88	309.50
696.21	308.29
696.55	307.39
696.88	306.46
697.22	305.46
697.56	304.68
697.89	303.84
698.23	303.01
698.56	302.16
698.90	301.35
699.23	300.50
699.57	299.67
699.90	298.90
700.24	298.04
700.58	297.11
700.91	296.43
701.25	295.59
701.58	294.92
701.92	294.23
702.25	293.63
702.59	292.95
702.92	292.18
703.26	291.64
703.59	290.91
703.93	290.55
704.26	289.88
704.60	289.02
704.93	288.19
705.26	287.49
705.60	287.01
705.93	286.26
706.27	285.71
706.60	285.22
706.94	284.74
707.27	283.89
707.61	283.29
707.94	282.63
708.27	281.97
708.61	281.28
708.94	280.71
709.28	280.10
709.61	279.61
709.94	279.19
710.28	278.65
710.61	278.05
710.95	277.28
711.28	276.78
711.61	276.36
711.95	275.96
712.28	275.38
712.61	274.66
712.95	274.28
713.28	273.79
713.61	273.16
713.95	272.53
714.28	272.19
714.61	271.71
714.95	271.26
715.28	270.80
715.61	270.38
715.95	269.79
716.28	269.28
716.61	268.82
716.95	268.19
717.28	267.75
717.61	267.34
717.94	267.02
718.28	266.59
718.61	266.15
718.94	265.71
719.27	265.43
719.61	265.16
719.94	264.73
720.27	264.30
720.60	263.96
720.94	263.62
721.27	263.48
721.60	263.24
721.93	262.91
722.27	262.64
722.60	262.30
722.93	262.13
723.26	261.88
723.59	261.52
723.93	261.42
724.26	261.08
724.59	260.81
724.92	260.41
725.25	260.12
725.59	259.87
725.92	259.68
726.25	259.44
726.58	259.13
726.91	258.85
727.24	258.70
727.57	258.50
727.91	258.27
728.24	257.85
728.57	257.52
728.90	257.31
729.23	256.99
729.56	256.77
729.89	256.50
730.22	256.27
730.55	256.02
730.89	255.72
731.22	255.41
731.55	255.10
731.88	254.89
732.21	254.73
732.54	254.34
732.87	253.96
733.20	253.55
733.53	253.32
733.86	253.04
734.19	252.68
734.52	252.42
734.85	252.31
735.18	252.00
735.51	251.78
735.84	251.52
736.17	251.27
736.50	250.95
736.83	250.92
737.16	250.67
737.49	250.37
737.82	250.00
738.15	249.90
738.48	249.73
738.81	249.46
739.14	249.11
739.47	248.93
739.80	248.60
740.13	248.42
740.46	248.18
740.79	247.96
741.12	247.62
741.45	247.26
741.78	246.87
742.11	246.79
742.44	246.46
742.77	246.15
743.10	246.03
743.43	245.81
743.75	245.33
744.08	245.31
744.41	245.03
744.74	244.81
745.07	244.51
745.40	244.39
745.73	244.20
746.06	244.00
746.39	243.83
746.71	243.74
747.04	243.48
747.37	243.20
747.70	242.98
748.03	242.95
748.36	242.83
748.68	242.66
749.01	242.38
749.34	242.20
749.67	242.04
750.00	241.80
750.33	241.79
750.65	241.62
750.98	241.25
751.31	241.18
751.64	241.10
751.97	240.97
752.29	240.80
752.62	240.55
752.95	240.39
753.28	240.26
753.60	240.03
753.93	240.01
754.26	239.95
754.59	239.84
754.91	239.62
755.24	239.38
755.57	239.32
755.90	239.17
756.22	239.06
756.55	238.96
756.88	238.83
757.20	238.59
757.53	238.41
757.86	238.28
758.19	238.23
758.51	238.13
758.84	238.10
759.17	237.93
759.49	237.93
759.82	237.92
760.15	237.76
760.47	237.73
760.80	237.55
761.13	237.48
761.45	237.43
761.78	237.32
762.11	237.40
762.43	237.24
762.76	237.21
763.08	237.20
763.41	237.08
763.74	236.98
764.06	236.91
764.39	236.82
764.71	236.69
765.04	236.49
765.37	236.49
765.69	236.36
766.02	236.29
766.34	236.19
766.67	236.12
767.00	236.22
767.32	236.29
767.65	236.32
767.97	236.26
768.30	236.21
768.62	236.18
768.95	236.07
769.27	236.06
769.60	236.02
769.92	235.90
770.25	235.85
770.57	235.80
770.90	235.74
771.22	235.77
771.55	235.70
771.87	235.81
772.20	235.63
772.52	235.69
772.85	235.78
773.17	235.68
773.50	235.62
773.82	235.44
774.15	235.23
774.47	235.10
774.80	235.03
775.12	234.87
775.45	234.80
775.77	234.77
776.09	234.70
776.42	234.65
776.74	234.74
777.07	234.71
777.39	234.69
777.72	234.60
778.04	234.61
778.36	234.65
778.69	234.55
779.01	234.62
779.33	234.41
779.66	234.24
779.98	234.13
780.31	234.03
780.63	234.02
780.95	234.01
781.28	234.03
781.60	233.90
781.92	233.81
782.25	233.81
782.57	233.76
782.89	233.60
783.22	233.45
783.54	233.31
783.86	233.27
784.19	233.18
784.51	233.22
784.83	233.04
785.16	232.97
785.48	232.97
785.80	232.79
786.12	232.79
786.45	232.70
786.77	232.76
787.09	232.73
787.42	232.69
787.74	232.65
788.06	232.63
788.38	232.66
788.71	232.61
789.03	232.51
789.35	232.51
789.67	232.52
789.99	232.46
790.32	232.37
790.64	232.32
790.96	232.41
791.28	232.20
791.61	232.25
791.93	232.17
792.25	231.92
792.57	232.18
792.89	232.10
793.21	232.09
793.54	232.04
793.86	231.92
794.18	231.76
794.50	231.74
794.82	231.60
795.14	231.59
795.47	231.60
795.79	231.69
796.11	231.56
796.43	231.63
796.75	231.67
797.07	231.74
797.39	231.63
797.71	231.54
798.04	231.59
798.36	231.48
798.68	231.56
799.00	231.75
799.32	231.53
799.64	231.47
799.96	231.40
800.28	231.41
800.60	231.41
800.92	231.47
801.24	231.40
801.56	231.45
801.89	231.37
802.21	231.43
802.53	231.26
802.85	231.34
803.17	231.31
803.49	231.26
803.81	231.22
804.13	231.17
804.45	231.12
804.77	231.10
805.09	231.18
805.41	231.08
805.73	230.91
806.05	230.76
806.37	230.81
806.69	230.79
807.01	230.73
807.33	230.78
807.65	230.71
807.97	230.80
808.28	230.69
808.60	230.74
808.92	230.65
809.24	230.86
809.56	230.73
809.88	230.64
810.20	230.72
810.52	230.76
810.84	230.77
811.16	230.63
811.48	230.55
811.80	230.59
812.12	230.55
812.43	230.64
812.75	230.77
813.07	230.72
813.39	230.74
813.71	230.67
814.03	230.68
814.35	230.68
814.67	230.58
814.98	230.61
815.30	230.61
815.62	230.58
815.94	230.41
816.26	230.58
816.58	230.53
816.89	230.38
817.21	230.24
817.53	230.31
817.85	230.41
818.17	230.43
818.48	230.35
818.80	230.35
819.12	230.32
819.44	230.26
819.76	230.21
820.07	230.22
820.39	230.27
820.71	230.15
821.03	230.20
821.34	230.20
821.66	230.12
821.98	230.04
822.30	230.09
822.61	230.11
822.93	229.91
823.25	229.80
823.57	229.79
823.88	229.85
824.20	229.74
824.52	229.79
824.83	229.79
825.15	229.68
825.47	229.67
825.79	229.68
826.10	229.66
826.42	229.62
826.74	229.55
827.05	229.48
827.37	229.48
827.69	229.45
828.00	229.40
828.32	229.40
828.64	229.30
828.95	229.32
829.27	229.27
829.58	229.30
829.90	229.43
830.22	229.44
830.53	229.43
830.85	229.41
831.17	229.29
831.48	229.30
831.80	229.32
832.11	229.29
832.43	229.13
832.75	229.15
833.06	229.20
833.38	229.15
833.69	229.09
834.01	229.04
834.32	228.97
834.64	228.89
834.96	228.91
835.27	228.91
835.59	228.81
835.90	228.79
836.22	228.73
836.53	228.68
836.85	228.54
837.16	228.66
837.48	228.70
837.79	228.77
838.11	228.68
838.42	228.72
838.74	228.73
839.05	228.79
839.37	228.67
839.68	228.52
840.00	228.57
840.31	228.53
840.63	228.66
840.94	228.63
841.26	228.72
841.57	228.64
841.88	228.70
842.20	228.56
842.51	228.50
842.83	228.53
843.14	228.64
843.46	228.71
843.77	228.60
844.08	228.57
844.40	228.50
844.71	228.57
845.03	228.50
845.34	228.55
845.65	228.41
845.97	228.41
846.28	228.48
846.60	228.55
846.91	228.67
847.22	228.58
847.54	228.61
847.85	228.55
848.16	228.53
848.48	228.53
848.79	228.68
849.10	228.73
849.42	228.80
849.73	228.65
850.04	228.70
850.36	228.71
850.67	228.69
850.98	228.67
851.30	228.62
851.61	228.51
851.92	228.45
852.23	228.52
852.55	228.59
852.86	228.63
853.17	228.58
853.49	228.62
853.80	228.58
854.11	228.58
854.42	228.66
854.74	228.64
855.05	228.60
855.36	228.56
855.67	228.53
855.99	228.44
856.30	228.70
856.61	228.63
856.92	228.60
857.23	228.57
857.55	228.49
857.86	228.41
858.17	228.52
858.48	228.57
858.79	228.61
859.11	228.62
859.42	228.49
859.73	228.51
860.04	228.48
860.35	228.48
860.66	228.40
860.98	228.44
861.29	228.46
861.60	228.43
861.91	228.43
862.22	228.43
862.53	228.52
862.84	228.30
863.16	228.36
863.47	228.37
863.78	228.45
864.09	228.53
864.40	228.63
864.71	228.65
865.02	228.65
865.33	228.59
865.64	228.52
865.95	228.54
866.27	228.56
866.58	228.48
866.89	228.55
867.20	228.56
867.51	228.40
867.82	228.41
868.13	228.53
868.44	228.46
868.75	228.45
869.06	228.33
869.37	228.20
869.68	228.12
869.99	228.02
870.30	228.08
870.61	228.08
870.92	227.93
871.23	227.90
871.54	227.83
871.85	227.88
872.16	227.92
872.47	227.96
872.78	227.90
873.09	227.90
873.40	227.81
873.71	227.88
874.02	227.85
874.33	227.80
874.64	227.73
874.95	227.74
875.26	227.71
875.56	227.74
875.87	227.78
876.18	227.80
876.49	228.01
876.80	227.94
877.11	227.90
877.42	228.03
877.73	228.00
878.04	227.99
878.35	228.00
878.66	228.04
878.96	228.05
879.27	227.96
879.58	227.97
879.89	227.97
880.20	227.99
880.51	228.14
880.82	228.22
881.12	228.28
881.43	228.32
881.74	228.35
882.05	228.35
882.36	228.36
882.67	228.37
882.97	228.25
883.28	228.22
883.59	228.24
883.90	228.31
884.21	228.33
884.51	228.37
884.82	228.46
885.13	228.43
885.44	228.49
885.74	228.55
886.05	228.61
886.36	228.66
886.67	228.60
886.98	228.59
887.28	228.56
887.59	228.57
887.90	228.60
888.20	228.63
888.51	228.63
888.82	228.68
889.13	228.62
889.43	228.69
889.74	228.68
890.05	228.59
890.35	228.50
890.66	228.62
890.97	228.64
891.28	228.51
891.58	228.55
891.89	228.40
892.20	228.49
892.50	228.37
892.81	228.40
893.12	228.39
893.42	228.29
893.73	228.30
894.04	228.25
894.34	228.24
894.65	228.17
894.95	228.13
895.26	228.08
895.57	228.18
895.87	227.96
896.18	228.00
896.48	228.10
896.79	228.05
897.10	228.01
897.40	227.94
897.71	228.01
898.01	227.93
898.32	228.00
898.63	227.96
898.93	228.03
899.24	228.04
899.54	228.04
899.85	228.18
900.15	228.19
900.46	228.11
900.76	228.22
901.07	228.11
901.38	228.09
901.68	228.10
901.99	228.03
902.29	228.08
902.60	228.04
902.90	228.01
903.21	228.02
903.51	227.96
903.82	227.93
904.12	227.86
904.43	227.96
904.73	227.89
905.03	227.84
905.34	227.97
905.64	227.94
905.95	227.93
906.25	227.87
906.56	227.80
906.86	227.75
907.17	227.67
907.47	227.77
907.77	227.82
908.08	227.80
908.38	227.80
908.69	227.80
908.99	227.82
909.30	227.80
909.60	227.78
909.90	227.79
910.21	227.73
910.51	227.74
910.81	227.73
911.12	227.89
911.42	227.83
911.73	227.68
912.03	227.58
912.33	227.58
912.64	227.52
912.94	227.60
913.24	227.68
913.55	227.59
913.85	227.54
914.15	227.53
914.46	227.67
914.76	227.58
915.06	227.65
915.37	227.55
915.67	227.60
915.97	227.51
916.27	227.44
916.58	227.56
916.88	227.50
917.18	227.41
917.49	227.42
917.79	227.47
918.09	227.54
918.39	227.67
918.70	227.76
919.00	227.84
919.30	227.89
919.60	227.93
919.91	227.87
920.21	227.98
920.51	228.01
920.81	227.89
921.12	228.07
921.42	228.10
921.72	228.15
922.02	228.22
922.32	228.42
922.63	228.47
922.93	228.56
923.23	228.63
923.53	228.71
923.83	228.74
924.13	228.81
924.44	228.83
924.74	228.90
925.04	228.96
925.34	228.92
925.64	228.80
925.94	228.78
926.24	229.00
926.55	229.02
926.85	229.01
927.15	229.09
927.45	229.11
927.75	229.07
928.05	229.21
928.35	229.14
928.65	229.17
928.95	229.20
929.26	229.14
929.56	229.21
929.86	229.21
930.16	229.13
930.46	229.17
930.76	229.04
931.06	228.95
931.36	228.87
931.66	228.96
931.96	229.17
932.26	229.21
932.56	229.21
932.86	229.21
933.16	229.22
933.46	229.22
933.76	229.20
934.06	229.25
934.36	229.20
934.66	229.10
934.96	229.04
935.26	229.06
935.56	229.07
935.86	229.00
936.16	228.94
936.46	228.93
936.76	228.87
937.06	228.99
937.36	228.99
937.66	228.96
937.96	228.92
938.26	228.78
938.56	228.67
938.86	228.57
939.16	228.61
939.46	228.60
939.76	228.55
940.06	228.54
940.35	228.52
940.65	228.49
940.95	228.58
941.25	228.57
941.55	228.47
941.85	228.48
942.15	228.52
942.45	228.44
942.75	228.40
943.04	228.41
943.34	228.32
943.64	228.28
943.94	228.29
944.24	228.20
944.54	228.25
944.84	228.37
945.13	228.36
945.43	228.29
945.73	228.23
946.03	228.23
946.33	228.17
946.62	228.12
946.92	228.09
947.22	228.04
947.52	227.99
947.82	228.02
948.11	227.94
948.41	227.86
948.71	227.92
949.01	227.89
949.31	227.78
949.60	227.80
949.90	227.79
950.20	227.70
950.50	227.74
950.79	227.65
951.09	227.55
951.39	227.52
951.69	227.46
951.98	227.56
952.28	227.59
952.58	227.64
952.87	227.66
953.17	227.63
953.47	227.61
953.76	227.65
954.06	227.52
954.36	227.54
954.66	227.57
954.95	227.70
955.25	227.83
955.55	227.90
955.84	227.87
956.14	227.85
956.44	227.86
956.73	227.80
957.03	227.96
957.32	228.01
957.62	228.05
957.92	228.17
958.21	228.13
958.51	228.44
958.81	228.41
959.10	228.42
959.40	228.58
959.69	228.65
959.99	228.68
960.29	228.89
960.58	228.95
960.88	229.12
961.17	229.09
961.47	228.94
961.76	228.86
962.06	228.98
962.36	229.01
962.65	229.13
962.95	229.19
963.24	229.10
963.54	229.15
963.83	229.19
964.13	229.23
964.42	229.13
964.72	228.96
965.01	229.04
965.31	229.05
965.60	229.00
965.90	229.12
966.19	229.14
966.49	229.17
966.78	229.22
967.08	229.20
967.37	229.20
967.67	229.30
967.96	229.37
968.26	229.35
968.55	229.40
968.85	229.44
969.14	229.41
969.43	229.40
969.73	229.40
970.02	229.40
970.32	229.39
970.61	229.46
970.91	229.40
971.20	229.34
971.49	229.30
971.79	229.26
972.08	229.17
972.38	229.16
972.67	229.09
972.96	229.05
973.26	228.97
973.55	229.07
973.85	229.11
974.14	229.20
974.43	229.20
974.73	229.29
975.02	229.21
975.31	229.23
975.61	229.21
975.90	229.15
976.19	229.12
976.49	229.17
976.78	229.23
977.07	229.20
977.37	229.11
977.66	229.19
977.95	229.26
978.24	229.17
978.54	229.16
978.83	229.21
979.12	229.16
979.42	229.14
979.71	228.99
980.00	228.87
980.29	228.78
980.59	228.72
980.88	228.61
981.17	228.53
981.46	228.46
981.76	228.50
982.05	228.54
982.34	228.45
982.63	228.40
982.93	228.32
983.22	228.32
983.51	228.35
983.80	228.38
984.09	228.31
984.39	228.37
984.68	228.30
984.97	228.21
985.26	228.21
985.55	228.17
985.85	228.10
986.14	228.13
986.43	228.14
986.72	228.07
987.01	228.06
987.30	228.10
987.59	228.06
987.89	227.97
988.18	227.86
988.47	227.85
988.76	227.78
989.05	227.80
989.34	227.72
989.63	227.71
989.92	227.65
990.22	227.60
990.51	227.61
990.80	227.59
991.09	227.61
991.38	227.52
991.67	227.56
991.96	227.60
992.25	227.67
992.54	227.62
992.83	227.64
993.12	227.60
993.41	227.54
993.70	227.70
993.99	227.83
994.28	227.89
994.58	227.94
994.87	227.92
995.16	227.96
995.45	227.99
995.74	227.91
996.03	227.83
996.32	227.87
996.61	227.83
996.90	227.89
997.19	227.95
997.48	228.02
997.77	227.94
998.06	228.00
998.34	227.96
998.63	227.96
998.92	227.92
999.21	227.94
999.50	228.05
999.79	228.07
1000.08	228.02
1000.37	228.02
1000.66	228.11
1000.95	228.12
1001.24	228.12
1001.53	228.19
1001.82	228.31
1002.11	228.41
1002.40	228.34
1002.68	228.35
1002.97	228.43
1003.26	228.40
1003.55	228.45
1003.84	228.58
1004.13	228.66
1004.42	228.66
1004.71	228.73
1004.99	228.78
1005.28	228.87
1005.57	228.89
1005.86	228.87
1006.15	228.88
1006.44	228.83
1006.72	228.81
1007.01	228.87
1007.30	228.89
1007.59	228.92
1007.88	228.89
1008.17	228.88
1008.45	228.96
1008.74	229.00
1009.03	229.00
1009.32	229.03
1009.60	228.91
1009.89	228.80
1010.18	228.77
1010.47	228.89
1010.76	228.96
1011.04	228.98
1011.33	228.92
1011.62	228.93
1011.91	228.93
1012.19	228.94
1012.48	229.09
1012.77	228.98
1013.05	229.03
1013.34	229.12
1013.63	229.04
1013.92	229.04
1014.20	229.09
1014.49	229.09
1014.78	229.09
1015.06	228.95
1015.35	228.84
1015.64	228.89
1015.92	228.92
1016.21	228.76
1016.50	228.66
1016.78	228.54
1017.07	228.58
1017.36	228.57
1017.64	228.50
1017.93	228.40
1018.22	228.44
1018.50	228.38
1018.79	228.35
1019.08	228.27
1019.36	228.20
1019.65	228.15
1019.93	228.11
1020.22	228.08
1020.51	228.27
1020.79	228.15
1021.08	229.70
1021.36	228.40
1021.65	226.50
1021.94	229.10
1022.22	229.10
1022.51	227.60
1022.79	227.40
1023.08	228.90
1023.36	232.60
1023.65	226.30
>>>>>End Processed Spectral Data<<<<<
