SpectraSuite Data File
++++++++++++++++++++++++++++++++++++
Date: Fri Feb 01 14:40:40 EST 2013
User: group
Dark Spectrum Present: No
Reference Spectrum Present: No
Number of Sampled Component Spectra: 1
Spectrometers: USB2E7196
Integration Time (usec): 70000 (USB2E7196)
Spectra Averaged: 10 (USB2E7196)
Boxcar Smoothing: 10 (USB2E7196)
Correct for Electrical Dark: No (USB2E7196)
Strobe/Lamp Enabled: No (USB2E7196)
Correct for Detector Non-linearity: No (USB2E7196)
Correct for Stray Light: No (USB2E7196)
Number of Pixels in Processed Spectrum: 2048
>>>>>Begin Processed Spectral Data<<<<<
339.09	0.00
339.48	215.60
339.86	217.00
340.24	218.80
340.63	220.30
341.01	224.80
341.39	221.80
341.78	222.40
342.16	225.20
342.54	224.30
342.93	213.86
343.31	224.74
343.69	225.23
344.07	225.80
344.46	226.23
344.84	226.64
345.22	226.80
345.60	227.12
345.99	227.32
346.37	227.48
346.75	227.60
347.13	227.65
347.52	227.70
347.90	227.85
348.28	227.96
348.66	228.10
349.05	228.08
349.43	228.16
349.81	228.11
350.19	228.30
350.57	228.38
350.96	228.44
351.34	228.55
351.72	228.72
352.10	228.77
352.48	228.82
352.87	228.85
353.25	229.02
353.63	229.07
354.01	229.16
354.39	229.36
354.77	229.49
355.15	229.73
355.54	229.86
355.92	229.84
356.30	230.00
356.68	230.17
357.06	230.26
357.44	230.16
357.82	230.35
358.20	230.47
358.58	230.51
358.97	230.53
359.35	230.51
359.73	230.57
360.11	230.50
360.49	230.54
360.87	230.67
361.25	230.62
361.63	230.63
362.01	230.72
362.39	230.68
362.77	230.65
363.15	230.58
363.53	230.59
363.91	230.63
364.29	230.50
364.67	230.35
365.05	230.30
365.43	230.39
365.81	230.32
366.19	230.38
366.57	230.43
366.95	230.40
367.33	230.35
367.71	230.24
368.09	230.31
368.47	230.29
368.85	230.12
369.23	230.23
369.61	230.21
369.99	230.28
370.37	230.26
370.75	230.38
371.13	230.30
371.51	230.22
371.89	230.14
372.27	230.15
372.65	230.15
373.03	230.12
373.41	230.01
373.78	229.98
374.16	229.78
374.54	229.64
374.92	229.61
375.30	229.67
375.68	229.68
376.06	229.65
376.44	229.52
376.82	229.47
377.19	229.28
377.57	229.14
377.95	228.94
378.33	228.75
378.71	228.48
379.09	228.44
379.47	228.40
379.84	228.36
380.22	228.20
380.60	228.06
380.98	228.05
381.36	227.97
381.73	227.84
382.11	227.85
382.49	227.78
382.87	227.64
383.25	227.49
383.62	227.60
384.00	227.43
384.38	227.50
384.76	227.47
385.13	227.48
385.51	227.43
385.89	227.36
386.27	227.30
386.64	227.37
387.02	227.39
387.40	227.30
387.78	227.28
388.15	227.37
388.53	227.30
388.91	227.25
389.29	227.32
389.66	227.37
390.04	227.37
390.42	227.40
390.79	227.41
391.17	227.48
391.55	227.36
391.92	227.44
392.30	227.50
392.68	227.56
393.05	227.63
393.43	227.78
393.81	227.92
394.18	228.03
394.56	228.04
394.94	228.10
395.31	228.19
395.69	228.25
396.06	228.26
396.44	228.47
396.82	228.53
397.19	228.70
397.57	228.72
397.95	228.87
398.32	228.85
398.70	229.05
399.07	229.16
399.45	229.12
399.82	229.26
400.20	229.24
400.58	229.30
400.95	229.40
401.33	229.50
401.70	229.72
402.08	229.89
402.45	230.08
402.83	230.28
403.20	230.41
403.58	230.49
403.95	230.70
404.33	230.75
404.71	230.93
405.08	231.12
405.46	231.38
405.83	231.54
406.21	231.79
406.58	231.84
406.96	231.93
407.33	232.20
407.70	232.40
408.08	232.76
408.45	233.10
408.83	233.24
409.20	233.51
409.58	233.49
409.95	233.69
410.33	234.02
410.70	234.12
411.08	234.38
411.45	234.75
411.82	235.05
412.20	235.38
412.57	235.72
412.95	235.83
413.32	236.00
413.69	236.36
414.07	236.62
414.44	237.03
414.82	237.57
415.19	237.96
415.56	238.42
415.94	238.93
416.31	239.47
416.68	240.11
417.06	240.60
417.43	241.35
417.81	242.00
418.18	242.57
418.55	243.38
418.93	244.26
419.30	245.00
419.67	245.76
420.04	246.71
420.42	247.70
420.79	249.03
421.16	250.24
421.54	251.41
421.91	252.77
422.28	254.07
422.66	255.40
423.03	256.89
423.40	258.20
423.77	259.51
424.15	260.87
424.52	262.29
424.89	264.02
425.26	265.59
425.64	267.11
426.01	268.76
426.38	270.43
426.75	272.08
427.13	273.79
427.50	275.74
427.87	277.56
428.24	279.47
428.61	281.14
428.99	283.18
429.36	285.32
429.73	287.33
430.10	289.36
430.47	291.29
430.85	293.36
431.22	295.65
431.59	298.19
431.96	300.44
432.33	303.03
432.70	305.40
433.08	308.26
433.45	310.91
433.82	313.51
434.19	316.41
434.56	319.26
434.93	322.08
435.30	324.77
435.68	327.76
436.05	330.61
436.42	333.50
436.79	336.10
437.16	338.86
437.53	341.87
437.90	344.98
438.27	347.98
438.64	350.88
439.01	353.59
439.38	355.79
439.75	357.92
440.13	360.55
440.50	362.99
440.87	364.74
441.24	366.76
441.61	369.10
441.98	370.77
442.35	372.72
442.72	374.58
443.09	376.45
443.46	377.57
443.83	378.11
444.20	378.48
444.57	379.30
444.94	379.50
445.31	379.91
445.68	380.36
446.05	380.39
446.42	380.01
446.79	379.70
447.16	379.28
447.53	379.03
447.90	377.85
448.27	376.60
448.64	375.17
449.01	374.10
449.37	372.10
449.74	370.16
450.11	367.85
450.48	365.37
450.85	362.73
451.22	360.50
451.59	358.59
451.96	356.67
452.33	354.07
452.70	351.71
453.07	348.69
453.43	345.46
453.80	342.51
454.17	339.81
454.54	336.93
454.91	334.10
455.28	331.41
455.65	328.76
456.02	326.51
456.38	324.25
456.75	321.40
457.12	319.05
457.49	316.72
457.86	314.35
458.23	312.38
458.59	310.27
458.96	308.07
459.33	305.98
459.70	304.11
460.07	302.47
460.43	300.55
460.80	298.88
461.17	297.45
461.54	295.87
461.91	294.16
462.27	292.78
462.64	291.49
463.01	290.01
463.38	288.58
463.74	286.88
464.11	285.63
464.48	284.47
464.85	283.30
465.21	282.36
465.58	281.45
465.95	280.28
466.32	279.25
466.68	278.34
467.05	277.36
467.42	276.30
467.78	275.23
468.15	274.36
468.52	273.65
468.88	272.60
469.25	271.81
469.62	271.15
469.98	270.35
470.35	269.60
470.72	268.96
471.08	268.23
471.45	267.66
471.82	267.08
472.18	266.40
472.55	265.85
472.92	265.27
473.28	264.68
473.65	264.09
474.02	263.53
474.38	262.91
474.75	262.38
475.11	261.94
475.48	261.60
475.85	261.16
476.21	260.72
476.58	260.47
476.94	260.17
477.31	260.02
477.67	259.66
478.04	259.31
478.41	259.06
478.77	259.03
479.14	258.72
479.50	258.44
479.87	258.45
480.23	258.24
480.60	258.00
480.96	257.93
481.33	258.01
481.69	257.91
482.06	257.92
482.42	258.11
482.79	258.11
483.15	258.17
483.52	258.21
483.88	258.17
484.25	258.19
484.61	258.09
484.98	258.07
485.34	258.30
485.71	258.60
486.07	258.67
486.44	258.59
486.80	258.85
487.17	259.06
487.53	259.26
487.90	259.58
488.26	260.00
488.62	260.27
488.99	260.45
489.35	260.89
489.72	261.27
490.08	261.50
490.44	262.11
490.81	262.59
491.17	263.21
491.54	263.88
491.90	264.53
492.26	265.37
492.63	266.05
492.99	266.73
493.36	267.37
493.72	268.30
494.08	269.25
494.45	270.24
494.81	271.30
495.17	272.46
495.54	273.61
495.90	274.70
496.26	276.01
496.63	277.43
496.99	278.98
497.35	280.62
497.72	282.18
498.08	283.74
498.44	285.57
498.80	287.40
499.17	289.37
499.53	291.40
499.89	293.59
500.26	295.84
500.62	298.20
500.98	300.78
501.34	303.37
501.71	306.02
502.07	308.75
502.43	311.72
502.79	314.65
503.16	317.83
503.52	321.23
503.88	324.60
504.24	328.26
504.60	331.89
504.97	335.54
505.33	339.68
505.69	343.93
506.05	348.13
506.41	352.46
506.78	357.02
507.14	361.86
507.50	366.71
507.86	371.82
508.22	377.08
508.59	382.33
508.95	388.00
509.31	393.95
509.67	400.01
510.03	406.03
510.39	412.17
510.75	418.65
511.12	425.26
511.48	432.02
511.84	438.86
512.20	445.87
512.56	453.26
512.92	460.76
513.28	468.25
513.64	476.03
514.00	484.02
514.37	492.22
514.73	500.54
515.09	508.84
515.45	517.55
515.81	526.41
516.17	535.52
516.53	544.65
516.89	553.90
517.25	563.18
517.61	572.69
517.97	582.41
518.33	592.14
518.69	602.01
519.05	612.30
519.41	622.78
519.77	633.60
520.13	644.59
520.49	655.54
520.85	666.47
521.21	677.67
521.57	689.20
521.93	700.27
522.29	711.88
522.65	723.57
523.01	734.89
523.37	746.50
523.73	758.34
524.09	770.33
524.45	782.38
524.81	794.85
525.17	807.61
525.53	820.37
525.89	833.38
526.25	846.69
526.61	859.50
526.97	872.39
527.33	885.39
527.68	898.41
528.04	911.55
528.40	925.15
528.76	938.75
529.12	952.08
529.48	966.18
529.84	979.38
530.20	993.42
530.56	1007.94
530.91	1022.50
531.27	1036.87
531.63	1051.15
531.99	1065.38
532.35	1079.10
532.71	1092.62
533.07	1106.90
533.42	1120.64
533.78	1134.44
534.14	1148.71
534.50	1162.05
534.86	1175.84
535.21	1189.33
535.57	1203.55
535.93	1217.35
536.29	1231.10
536.65	1245.31
537.00	1258.70
537.36	1272.49
537.72	1285.92
538.08	1298.94
538.44	1311.81
538.79	1324.87
539.15	1337.64
539.51	1351.03
539.87	1364.44
540.22	1377.76
540.58	1390.77
540.94	1403.66
541.29	1416.18
541.65	1428.55
542.01	1441.91
542.37	1454.58
542.72	1467.05
543.08	1478.79
543.44	1490.87
543.79	1502.22
544.15	1513.97
544.51	1526.45
544.87	1538.43
545.22	1549.77
545.58	1561.22
545.94	1572.23
546.29	1583.20
546.65	1594.09
547.01	1604.36
547.36	1614.80
547.72	1624.90
548.07	1634.81
548.43	1644.90
548.79	1654.90
549.14	1664.10
549.50	1673.18
549.86	1681.91
550.21	1691.06
550.57	1700.49
550.92	1709.36
551.28	1718.18
551.64	1726.14
551.99	1733.92
552.35	1741.72
552.70	1750.12
553.06	1758.48
553.41	1766.59
553.77	1774.17
554.13	1781.98
554.48	1790.02
554.84	1797.22
555.19	1804.92
555.55	1811.94
555.90	1818.59
556.26	1825.21
556.61	1832.77
556.97	1839.32
557.32	1846.28
557.68	1852.81
558.03	1859.47
558.39	1865.89
558.74	1873.02
559.10	1879.63
559.45	1886.05
559.81	1893.11
560.16	1898.71
560.52	1904.16
560.87	1909.94
561.23	1915.31
561.58	1920.48
561.94	1925.23
562.29	1930.20
562.64	1934.59
563.00	1939.53
563.35	1945.49
563.71	1950.65
564.06	1955.60
564.42	1961.03
564.77	1965.76
565.12	1970.67
565.48	1974.75
565.83	1978.47
566.19	1981.70
566.54	1985.09
566.89	1988.26
567.25	1991.15
567.60	1994.70
567.96	1997.96
568.31	2000.78
568.66	2003.68
569.02	2006.68
569.37	2008.73
569.72	2011.14
570.08	2013.49
570.43	2015.92
570.78	2016.58
571.14	2017.57
571.49	2018.41
571.84	2019.84
572.20	2020.76
572.55	2021.09
572.90	2021.22
573.26	2022.13
573.61	2022.73
573.96	2022.93
574.31	2022.36
574.67	2021.20
575.02	2019.90
575.37	2019.49
575.72	2017.88
576.08	2016.87
576.43	2015.77
576.78	2014.91
577.13	2013.97
577.49	2012.82
577.84	2011.10
578.19	2009.74
578.54	2008.29
578.90	2006.30
579.25	2002.87
579.60	1999.90
579.95	1997.25
580.30	1994.37
580.66	1991.33
581.01	1988.16
581.36	1985.21
581.71	1982.96
582.06	1980.40
582.42	1977.46
582.77	1973.40
583.12	1970.36
583.47	1967.42
583.82	1964.44
584.17	1961.09
584.53	1957.50
584.88	1954.18
585.23	1950.25
585.58	1946.71
585.93	1943.11
586.28	1939.91
586.63	1937.16
586.98	1934.13
587.34	1930.55
587.69	1927.06
588.04	1923.51
588.39	1920.26
588.74	1916.05
589.09	1911.30
589.44	1906.60
589.79	1902.56
590.14	1898.93
590.49	1895.01
590.84	1890.56
591.19	1885.54
591.54	1880.12
591.89	1874.76
592.25	1869.64
592.60	1864.17
592.95	1858.53
593.30	1852.64
593.65	1846.21
594.00	1840.32
594.35	1835.28
594.70	1829.18
595.05	1824.05
595.40	1817.81
595.75	1811.73
596.10	1806.39
596.45	1801.45
596.80	1796.81
597.15	1791.90
597.50	1786.09
597.85	1780.51
598.19	1775.47
598.54	1770.54
598.89	1766.08
599.24	1761.62
599.59	1756.46
599.94	1751.86
600.29	1746.85
600.64	1742.32
600.99	1736.80
601.34	1731.44
601.69	1725.12
602.04	1720.31
602.39	1714.51
602.74	1710.13
603.08	1704.85
603.43	1699.78
603.78	1694.13
604.13	1688.08
604.48	1682.30
604.83	1676.65
605.18	1671.35
605.53	1664.74
605.87	1658.01
606.22	1651.98
606.57	1645.20
606.92	1639.00
607.27	1632.99
607.62	1627.14
607.96	1620.33
608.31	1614.82
608.66	1608.41
609.01	1602.03
609.36	1594.96
609.70	1587.76
610.05	1580.04
610.40	1573.23
610.75	1566.18
611.10	1559.06
611.44	1551.69
611.79	1544.69
612.14	1537.75
612.49	1529.87
612.83	1522.54
613.18	1515.23
613.53	1507.77
613.88	1500.53
614.22	1492.96
614.57	1485.03
614.92	1477.37
615.27	1470.82
615.61	1463.65
615.96	1456.75
616.31	1450.47
616.65	1444.79
617.00	1438.08
617.35	1431.44
617.70	1424.29
618.04	1416.86
618.39	1410.15
618.74	1403.69
619.08	1396.40
619.43	1389.70
619.78	1383.39
620.12	1376.61
620.47	1370.02
620.82	1363.07
621.16	1356.36
621.51	1349.90
621.85	1343.47
622.20	1336.62
622.55	1329.46
622.89	1323.02
623.24	1316.64
623.59	1309.64
623.93	1302.56
624.28	1296.32
624.62	1289.70
624.97	1283.27
625.32	1277.23
625.66	1270.81
626.01	1264.02
626.35	1257.58
626.70	1251.04
627.04	1244.40
627.39	1237.96
627.73	1231.27
628.08	1224.95
628.43	1218.55
628.77	1212.00
629.12	1205.30
629.46	1198.77
629.81	1191.82
630.15	1184.55
630.50	1177.12
630.84	1170.03
631.19	1162.55
631.53	1155.64
631.88	1148.27
632.22	1141.25
632.57	1134.57
632.91	1127.45
633.26	1120.94
633.60	1113.80
633.95	1106.75
634.29	1099.97
634.64	1093.66
634.98	1087.01
635.32	1080.32
635.67	1073.99
636.01	1067.65
636.36	1061.15
636.70	1055.05
637.05	1049.37
637.39	1043.55
637.73	1037.85
638.08	1032.32
638.42	1026.92
638.77	1020.96
639.11	1015.20
639.45	1009.22
639.80	1002.82
640.14	996.79
640.49	990.64
640.83	984.88
641.17	979.24
641.52	973.65
641.86	967.65
642.20	962.35
642.55	956.85
642.89	951.19
643.23	945.09
643.58	939.62
643.92	933.67
644.26	927.85
644.61	922.58
644.95	916.94
645.29	910.54
645.64	904.34
645.98	898.45
646.32	893.19
646.66	887.40
647.01	881.82
647.35	876.36
647.69	871.24
648.04	866.22
648.38	860.55
648.72	854.42
649.06	848.68
649.41	842.83
649.75	836.93
650.09	831.14
650.43	825.64
650.78	819.76
651.12	814.18
651.46	808.50
651.80	802.55
652.14	797.20
652.49	792.12
652.83	786.95
653.17	781.50
653.51	775.83
653.85	770.52
654.20	765.45
654.54	759.94
654.88	754.29
655.22	748.53
655.56	742.95
655.90	738.29
656.25	733.15
656.59	728.12
656.93	723.34
657.27	718.63
657.61	713.46
657.95	708.90
658.29	704.19
658.64	699.48
658.98	694.75
659.32	689.60
659.66	684.82
660.00	680.00
660.34	675.35
660.68	670.61
661.02	666.03
661.36	661.52
661.70	657.19
662.05	653.06
662.39	649.06
662.73	645.19
663.07	640.78
663.41	636.89
663.75	632.94
664.09	628.53
664.43	624.21
664.77	620.50
665.11	616.41
665.45	612.51
665.79	608.46
666.13	604.38
666.47	600.62
666.81	596.75
667.15	592.84
667.49	589.30
667.83	585.88
668.17	582.28
668.51	578.30
668.85	574.77
669.19	571.17
669.53	567.50
669.87	563.76
670.21	560.48
670.55	557.00
670.89	553.59
671.23	550.40
671.57	547.12
671.91	543.69
672.25	540.31
672.58	537.02
672.92	533.83
673.26	530.83
673.60	527.63
673.94	524.64
674.28	521.93
674.62	519.25
674.96	516.29
675.30	513.44
675.64	510.78
675.97	508.00
676.31	505.05
676.65	502.38
676.99	499.69
677.33	496.66
677.67	493.79
678.01	490.78
678.34	488.10
678.68	485.32
679.02	482.60
679.36	480.06
679.70	477.51
680.04	475.00
680.37	472.11
680.71	469.49
681.05	466.78
681.39	464.07
681.73	461.20
682.06	458.83
682.40	456.41
682.74	454.02
683.08	451.50
683.42	449.06
683.75	446.52
684.09	444.04
684.43	441.83
684.77	439.45
685.10	437.08
685.44	434.65
685.78	432.47
686.12	430.24
686.45	427.91
686.79	425.57
687.13	423.28
687.46	421.28
687.80	419.19
688.14	417.08
688.48	414.97
688.81	412.91
689.15	410.80
689.49	408.79
689.82	406.59
690.16	404.47
690.50	402.55
690.83	400.56
691.17	398.60
691.51	396.56
691.84	394.54
692.18	392.82
692.52	390.91
692.85	389.03
693.19	387.11
693.52	385.26
693.86	383.38
694.20	381.62
694.53	379.80
694.87	378.14
695.21	376.28
695.54	374.53
695.88	372.72
696.21	370.87
696.55	369.02
696.88	367.29
697.22	365.74
697.56	364.07
697.89	362.32
698.23	360.80
698.56	359.38
698.90	357.92
699.23	356.20
699.57	354.74
699.90	353.22
700.24	351.91
700.58	350.43
700.91	348.99
701.25	347.66
701.58	346.25
701.92	344.79
702.25	343.48
702.59	342.10
702.92	340.85
703.26	339.70
703.59	338.52
703.93	337.54
704.26	336.36
704.60	335.13
704.93	334.02
705.26	332.72
705.60	331.45
705.93	330.34
706.27	329.50
706.60	328.52
706.94	327.38
707.27	326.21
707.61	325.15
707.94	324.03
708.27	322.84
708.61	321.79
708.94	320.76
709.28	319.75
709.61	318.77
709.94	317.86
710.28	316.69
710.61	315.72
710.95	314.34
711.28	313.43
711.61	312.33
711.95	311.36
712.28	310.41
712.61	309.32
712.95	308.34
713.28	307.26
713.61	306.27
713.95	305.37
714.28	304.46
714.61	303.63
714.95	302.86
715.28	301.92
715.61	300.96
715.95	300.04
716.28	299.15
716.61	298.24
716.95	297.19
717.28	296.46
717.61	295.55
717.94	294.91
718.28	294.00
718.61	293.24
718.94	292.48
719.27	291.75
719.61	291.11
719.94	290.40
720.27	289.70
720.60	288.87
720.94	288.16
721.27	287.38
721.60	286.65
721.93	285.98
722.27	285.40
722.60	284.87
722.93	284.30
723.26	283.72
723.59	283.08
723.93	282.51
724.26	281.93
724.59	281.27
724.92	280.63
725.25	280.05
725.59	279.45
725.92	278.89
726.25	278.29
726.58	277.70
726.91	277.12
727.24	276.44
727.57	276.01
727.91	275.31
728.24	274.85
728.57	274.26
728.90	273.70
729.23	273.08
729.56	272.47
729.89	271.87
730.22	271.42
730.55	270.93
730.89	270.44
731.22	269.83
731.55	269.35
731.88	268.81
732.21	268.23
732.54	267.73
732.87	267.25
733.20	266.70
733.53	266.20
733.86	265.76
734.19	265.40
734.52	264.78
734.85	264.52
735.18	263.98
735.51	263.61
735.84	263.20
736.17	262.83
736.50	262.52
736.83	262.33
737.16	261.88
737.49	261.59
737.82	261.21
738.15	260.82
738.48	260.53
738.81	260.24
739.14	259.90
739.47	259.57
739.80	259.25
740.13	259.05
740.46	258.73
740.79	258.32
741.12	257.93
741.45	257.74
741.78	257.47
742.11	257.28
742.44	256.91
742.77	256.69
743.10	256.31
743.43	255.92
743.75	255.43
744.08	255.39
744.41	255.02
744.74	254.84
745.07	254.70
745.40	254.42
745.73	254.30
746.06	254.06
746.39	253.81
746.71	253.47
747.04	253.16
747.37	252.95
747.70	252.80
748.03	252.67
748.36	252.41
748.68	252.06
749.01	251.80
749.34	251.61
749.67	251.35
750.00	251.22
750.33	251.13
750.65	250.93
750.98	250.55
751.31	250.34
751.64	249.98
751.97	249.78
752.29	249.57
752.62	249.16
752.95	248.86
753.28	248.70
753.60	248.49
753.93	248.36
754.26	248.19
754.59	247.92
754.91	247.58
755.24	247.32
755.57	247.10
755.90	246.85
756.22	246.57
756.55	246.33
756.88	246.14
757.20	245.74
757.53	245.54
757.86	245.30
758.19	245.19
758.51	245.04
758.84	244.75
759.17	244.47
759.49	244.24
759.82	244.12
760.15	243.87
760.47	243.73
760.80	243.46
761.13	243.26
761.45	243.04
761.78	242.86
762.11	242.78
762.43	242.62
762.76	242.45
763.08	242.30
763.41	242.08
763.74	241.97
764.06	241.80
764.39	241.55
764.71	241.26
765.04	240.99
765.37	240.85
765.69	240.68
766.02	240.55
766.34	240.43
766.67	240.23
767.00	240.12
767.32	240.08
767.65	240.03
767.97	239.83
768.30	239.80
768.62	239.65
768.95	239.42
769.27	239.28
769.60	239.12
769.92	238.99
770.25	238.82
770.57	238.58
770.90	238.50
771.22	238.43
771.55	238.40
771.87	238.23
772.20	238.06
772.52	237.99
772.85	238.02
773.17	237.92
773.50	237.75
773.82	237.60
774.15	237.36
774.47	237.11
774.80	236.98
775.12	236.86
775.45	236.70
775.77	236.61
776.09	236.52
776.42	236.49
776.74	236.41
777.07	236.43
777.39	236.32
777.72	236.26
778.04	236.14
778.36	236.08
778.69	236.07
779.01	236.03
779.33	235.95
779.66	235.87
779.98	235.77
780.31	235.82
780.63	235.85
780.95	235.84
781.28	235.83
781.60	235.80
781.92	235.72
782.25	235.84
782.57	235.84
782.89	235.80
783.22	235.70
783.54	235.66
783.86	235.59
784.19	235.62
784.51	235.69
784.83	235.70
785.16	235.62
785.48	235.67
785.80	235.67
786.12	235.61
786.45	235.56
786.77	235.59
787.09	235.57
787.42	235.50
787.74	235.51
788.06	235.51
788.38	235.48
788.71	235.37
789.03	235.22
789.35	235.20
789.67	235.08
789.99	234.98
790.32	234.95
790.64	234.95
790.96	235.04
791.28	234.96
791.61	234.94
791.93	234.88
792.25	234.75
792.57	234.88
792.89	234.70
793.21	234.65
793.54	234.56
793.86	234.41
794.18	234.34
794.50	234.17
794.82	234.07
795.14	234.20
795.47	234.26
795.79	234.14
796.11	234.14
796.43	234.14
796.75	234.15
797.07	234.13
797.39	234.05
797.71	233.81
798.04	233.66
798.36	233.55
798.68	233.50
799.00	233.44
799.32	233.25
799.64	233.35
799.96	233.22
800.28	233.17
800.60	233.06
800.92	233.01
801.24	232.92
801.56	232.97
801.89	232.75
802.21	232.60
802.53	232.66
802.85	232.53
803.17	232.60
803.49	232.52
803.81	232.40
804.13	232.16
804.45	232.01
804.77	232.15
805.09	232.08
805.41	232.08
805.73	231.96
806.05	231.82
806.37	231.79
806.69	231.69
807.01	231.55
807.33	231.62
807.65	231.44
807.97	231.48
808.28	231.24
808.60	231.21
808.92	231.21
809.24	231.21
809.56	231.17
809.88	230.96
810.20	230.89
810.52	230.88
810.84	230.92
811.16	230.86
811.48	230.59
811.80	230.59
812.12	230.47
812.43	230.48
812.75	230.41
813.07	230.31
813.39	230.27
813.71	230.31
814.03	230.19
814.35	230.23
814.67	230.24
814.98	230.30
815.30	230.21
815.62	230.14
815.94	229.91
816.26	229.81
816.58	229.93
816.89	229.93
817.21	229.82
817.53	229.74
817.85	229.85
818.17	229.87
818.48	229.79
818.80	229.78
819.12	229.77
819.44	229.83
819.76	229.87
820.07	229.92
820.39	229.99
820.71	230.00
821.03	230.01
821.34	229.96
821.66	229.96
821.98	230.06
822.30	230.01
822.61	230.20
822.93	230.25
823.25	230.04
823.57	230.06
823.88	230.10
824.20	230.26
824.52	230.24
824.83	230.25
825.15	230.18
825.47	230.21
825.79	230.26
826.10	230.17
826.42	230.10
826.74	230.14
827.05	230.03
827.37	230.14
827.69	230.16
828.00	230.10
828.32	230.09
828.64	230.02
828.95	230.27
829.27	230.20
829.58	230.19
829.90	230.21
830.22	230.18
830.53	230.18
830.85	230.09
831.17	230.04
831.48	230.03
831.80	230.19
832.11	230.23
832.43	230.18
832.75	230.18
833.06	230.30
833.38	230.24
833.69	230.29
834.01	230.26
834.32	230.12
834.64	230.13
834.96	230.17
835.27	230.20
835.59	230.05
835.90	230.01
836.22	230.05
836.53	230.10
836.85	230.10
837.16	230.35
837.48	230.40
837.79	230.40
838.11	230.36
838.42	230.24
838.74	230.16
839.05	230.11
839.37	230.12
839.68	229.90
840.00	229.90
840.31	229.85
840.63	229.73
840.94	229.75
841.26	229.77
841.57	229.75
841.88	229.78
842.20	229.67
842.51	229.58
842.83	229.50
843.14	229.56
843.46	229.57
843.77	229.41
844.08	229.32
844.40	229.24
844.71	229.29
845.03	229.24
845.34	229.17
845.65	229.10
845.97	228.98
846.28	228.98
846.60	228.88
846.91	228.81
847.22	228.84
847.54	228.89
847.85	228.90
848.16	228.86
848.48	228.73
848.79	228.87
849.10	228.86
849.42	228.84
849.73	228.75
850.04	228.68
850.36	228.61
850.67	228.64
850.98	228.69
851.30	228.69
851.61	228.50
851.92	228.55
852.23	228.62
852.55	228.66
852.86	228.72
853.17	228.69
853.49	228.77
853.80	228.79
854.11	228.78
854.42	228.76
854.74	228.69
855.05	228.63
855.36	228.52
855.67	228.64
855.99	228.68
856.30	228.92
856.61	228.87
856.92	228.79
857.23	228.86
857.55	228.85
857.86	228.85
858.17	229.09
858.48	229.06
858.79	229.08
859.11	229.17
859.42	229.20
859.73	229.25
860.04	229.21
860.35	229.19
860.66	229.20
860.98	229.14
861.29	229.26
861.60	229.42
861.91	229.40
862.22	229.38
862.53	229.41
862.84	229.22
863.16	229.36
863.47	229.36
863.78	229.33
864.09	229.45
864.40	229.54
864.71	229.55
865.02	229.66
865.33	229.66
865.64	229.73
865.95	229.82
866.27	230.04
866.58	230.04
866.89	230.07
867.20	230.15
867.51	230.20
867.82	230.19
868.13	230.13
868.44	230.18
868.75	230.15
869.06	230.10
869.37	230.11
869.68	230.11
869.99	230.19
870.30	230.23
870.61	230.19
870.92	230.16
871.23	230.17
871.54	230.20
871.85	230.26
872.16	230.22
872.47	230.06
872.78	229.90
873.09	229.93
873.40	229.94
873.71	229.87
874.02	229.80
874.33	229.74
874.64	229.68
874.95	229.73
875.26	229.77
875.56	229.78
875.87	229.74
876.18	229.64
876.49	229.82
876.80	229.79
877.11	229.68
877.42	229.59
877.73	229.50
878.04	229.39
878.35	229.36
878.66	229.27
878.96	229.27
879.27	229.18
879.58	229.13
879.89	229.08
880.20	229.02
880.51	229.00
880.82	228.89
881.12	228.89
881.43	228.83
881.74	228.82
882.05	228.77
882.36	228.78
882.67	228.80
882.97	228.51
883.28	228.39
883.59	228.36
883.90	228.32
884.21	228.37
884.51	228.29
884.82	228.25
885.13	228.25
885.44	228.22
885.74	228.23
886.05	228.21
886.36	228.19
886.67	228.17
886.98	228.29
887.28	228.32
887.59	228.36
887.90	228.28
888.20	228.14
888.51	228.14
888.82	228.10
889.13	228.05
889.43	228.18
889.74	228.19
890.05	228.20
890.35	228.23
890.66	228.19
890.97	228.12
891.28	228.01
891.58	228.10
891.89	228.04
892.20	228.01
892.50	227.93
892.81	227.97
893.12	227.95
893.42	227.78
893.73	227.82
894.04	227.80
894.34	227.85
894.65	227.92
894.95	228.00
895.26	227.95
895.57	228.04
895.87	227.90
896.18	228.02
896.48	228.02
896.79	228.05
897.10	228.16
897.40	228.25
897.71	228.38
898.01	228.32
898.32	228.36
898.63	228.31
898.93	228.43
899.24	228.42
899.54	228.44
899.85	228.53
900.15	228.51
900.46	228.62
900.76	228.68
901.07	228.72
901.38	228.68
901.68	228.78
901.99	228.81
902.29	228.84
902.60	228.79
902.90	228.83
903.21	228.88
903.51	228.86
903.82	229.00
904.12	229.00
904.43	229.05
904.73	229.20
905.03	229.29
905.34	229.55
905.64	229.48
905.95	229.52
906.25	229.59
906.56	229.60
906.86	229.52
907.17	229.45
907.47	229.50
907.77	229.48
908.08	229.46
908.38	229.39
908.69	229.42
908.99	229.47
909.30	229.51
909.60	229.52
909.90	229.56
910.21	229.50
910.51	229.49
910.81	229.42
911.12	229.34
911.42	229.34
911.73	229.15
912.03	229.27
912.33	229.27
912.64	229.15
912.94	229.22
913.24	229.30
913.55	229.32
913.85	229.20
914.15	229.26
914.46	229.24
914.76	229.30
915.06	229.29
915.37	229.20
915.67	229.15
915.97	229.02
916.27	228.91
916.58	228.86
916.88	228.79
917.18	228.77
917.49	228.79
917.79	228.77
918.09	228.79
918.39	228.73
918.70	228.70
919.00	228.74
919.30	228.73
919.60	228.61
919.91	228.59
920.21	228.62
920.51	228.48
920.81	228.48
921.12	228.50
921.42	228.50
921.72	228.52
922.02	228.45
922.32	228.59
922.63	228.60
922.93	228.58
923.23	228.57
923.53	228.56
923.83	228.57
924.13	228.56
924.44	228.42
924.74	228.43
925.04	228.43
925.34	228.45
925.64	228.38
925.94	228.36
926.24	228.41
926.55	228.31
926.85	228.30
927.15	228.27
927.45	228.20
927.75	228.12
928.05	228.10
928.35	228.12
928.65	228.09
928.95	228.13
929.26	228.15
929.56	228.18
929.86	228.18
930.16	228.07
930.46	228.02
930.76	228.12
931.06	228.10
931.36	228.10
931.66	228.04
931.96	228.09
932.26	228.12
932.56	228.00
932.86	228.11
933.16	228.19
933.46	228.15
933.76	228.18
934.06	228.28
934.36	228.35
934.66	228.36
934.96	228.30
935.26	228.34
935.56	228.37
935.86	228.39
936.16	228.43
936.46	228.53
936.76	228.53
937.06	228.50
937.36	228.59
937.66	228.63
937.96	228.70
938.26	228.60
938.56	228.68
938.86	228.76
939.16	228.82
939.46	228.84
939.76	228.93
940.06	228.87
940.35	228.83
940.65	228.78
940.95	228.88
941.25	228.88
941.55	228.76
941.85	228.78
942.15	228.79
942.45	228.91
942.75	228.89
943.04	228.90
943.34	228.90
943.64	228.91
943.94	228.89
944.24	228.90
944.54	229.01
944.84	228.89
945.13	228.77
945.43	228.70
945.73	228.78
946.03	228.74
946.33	228.82
946.62	228.84
946.92	228.87
947.22	228.79
947.52	228.80
947.82	228.85
948.11	228.93
948.41	228.88
948.71	228.76
949.01	228.80
949.31	228.87
949.60	228.83
949.90	228.75
950.20	228.77
950.50	228.74
950.79	228.71
951.09	228.79
951.39	228.84
951.69	228.90
951.98	228.78
952.28	228.80
952.58	228.77
952.87	228.78
953.17	228.72
953.47	228.69
953.76	228.76
954.06	228.76
954.36	228.71
954.66	228.74
954.95	228.72
955.25	228.67
955.55	228.70
955.84	228.71
956.14	228.76
956.44	228.79
956.73	228.83
957.03	228.86
957.32	228.91
957.62	228.95
957.92	228.85
958.21	228.79
958.51	228.93
958.81	228.91
959.10	228.82
959.40	228.93
959.69	228.97
959.99	228.95
960.29	228.90
960.58	228.72
960.88	228.86
961.17	228.88
961.47	228.91
961.76	228.85
962.06	228.89
962.36	228.87
962.65	228.79
962.95	228.70
963.24	228.65
963.54	228.64
963.83	228.66
964.13	228.61
964.42	228.62
964.72	228.47
965.01	228.48
965.31	228.53
965.60	228.44
965.90	228.60
966.19	228.50
966.49	228.52
966.78	228.63
967.08	228.52
967.37	228.55
967.67	228.56
967.96	228.55
968.26	228.58
968.55	228.57
968.85	228.56
969.14	228.58
969.43	228.55
969.73	228.52
970.02	228.42
970.32	228.46
970.61	228.42
970.91	228.48
971.20	228.39
971.49	228.39
971.79	228.41
972.08	228.32
972.38	228.38
972.67	228.38
972.96	228.38
973.26	228.31
973.55	228.31
973.85	228.22
974.14	228.20
974.43	228.16
974.73	228.10
975.02	228.09
975.31	228.08
975.61	228.11
975.90	228.13
976.19	228.26
976.49	228.31
976.78	228.40
977.07	228.27
977.37	228.33
977.66	228.34
977.95	228.22
978.24	228.24
978.54	228.34
978.83	228.30
979.12	228.34
979.42	228.45
979.71	228.46
980.00	228.50
980.29	228.48
980.59	228.41
980.88	228.54
981.17	228.51
981.46	228.54
981.76	228.57
982.05	228.54
982.34	228.47
982.63	228.50
982.93	228.46
983.22	228.69
983.51	228.68
983.80	228.79
984.09	228.84
984.39	228.73
984.68	228.70
984.97	228.74
985.26	228.78
985.55	228.77
985.85	228.63
986.14	228.68
986.43	228.77
986.72	228.81
987.01	228.63
987.30	228.66
987.59	228.62
987.89	228.55
988.18	228.45
988.47	228.52
988.76	228.55
989.05	228.61
989.34	228.49
989.63	228.49
989.92	228.42
990.22	228.48
990.51	228.53
990.80	228.47
991.09	228.48
991.38	228.38
991.67	228.26
991.96	228.30
992.25	228.32
992.54	228.17
992.83	228.17
993.12	228.25
993.41	228.30
993.70	228.42
993.99	228.40
994.28	228.48
994.58	228.42
994.87	228.29
995.16	228.26
995.45	228.19
995.74	228.21
996.03	228.19
996.32	228.18
996.61	228.13
996.90	228.13
997.19	228.10
997.48	228.27
997.77	228.21
998.06	228.22
998.34	228.06
998.63	228.19
998.92	228.09
999.21	228.05
999.50	227.96
999.79	227.85
1000.08	227.92
1000.37	227.87
1000.66	227.80
1000.95	227.83
1001.24	227.87
1001.53	227.98
1001.82	227.93
1002.11	227.86
1002.40	227.84
1002.68	227.85
1002.97	227.98
1003.26	227.99
1003.55	227.74
1003.84	227.80
1004.13	227.90
1004.42	228.07
1004.71	228.00
1004.99	228.00
1005.28	228.12
1005.57	228.15
1005.86	228.19
1006.15	228.22
1006.44	228.25
1006.72	228.25
1007.01	228.29
1007.30	228.29
1007.59	228.20
1007.88	228.16
1008.17	228.20
1008.45	228.30
1008.74	228.34
1009.03	228.24
1009.32	228.20
1009.60	228.31
1009.89	228.27
1010.18	228.10
1010.47	228.07
1010.76	228.06
1011.04	228.10
1011.33	228.07
1011.62	228.06
1011.91	227.97
1012.19	227.92
1012.48	227.83
1012.77	227.90
1013.05	227.99
1013.34	227.89
1013.63	227.87
1013.92	227.96
1014.20	227.96
1014.49	227.81
1014.78	227.67
1015.06	227.68
1015.35	227.78
1015.64	227.82
1015.92	227.98
1016.21	228.02
1016.50	227.93
1016.78	228.01
1017.07	228.08
1017.36	228.11
1017.64	228.14
1017.93	228.19
1018.22	228.23
1018.50	228.25
1018.79	228.28
1019.08	228.09
1019.36	228.26
1019.65	228.27
1019.93	228.34
1020.22	228.40
1020.51	228.45
1020.79	228.55
1021.08	228.80
1021.36	226.90
1021.65	228.90
1021.94	226.30
1022.22	230.00
1022.51	227.50
1022.79	230.10
1023.08	229.10
1023.36	228.80
1023.65	228.40
>>>>>End Processed Spectral Data<<<<<
