SpectraSuite Data File
++++++++++++++++++++++++++++++++++++
Date: Fri Feb 01 14:39:14 EST 2013
User: group
Dark Spectrum Present: No
Reference Spectrum Present: No
Number of Sampled Component Spectra: 1
Spectrometers: USB2E7196
Integration Time (usec): 70000 (USB2E7196)
Spectra Averaged: 10 (USB2E7196)
Boxcar Smoothing: 10 (USB2E7196)
Correct for Electrical Dark: No (USB2E7196)
Strobe/Lamp Enabled: No (USB2E7196)
Correct for Detector Non-linearity: No (USB2E7196)
Correct for Stray Light: No (USB2E7196)
Number of Pixels in Processed Spectrum: 2048
>>>>>Begin Processed Spectral Data<<<<<
339.09	0.00
339.48	215.90
339.86	219.30
340.24	219.70
340.63	221.30
341.01	223.30
341.39	223.50
341.78	224.30
342.16	227.10
342.54	225.80
342.93	214.62
343.31	225.55
343.69	226.07
344.07	226.52
344.46	226.96
344.84	227.24
345.22	227.41
345.60	227.57
345.99	227.82
346.37	227.79
346.75	227.85
347.13	227.86
347.52	227.90
347.90	228.02
348.28	228.20
348.66	228.18
349.05	228.26
349.43	228.18
349.81	228.05
350.19	227.95
350.57	227.95
350.96	228.00
351.34	228.00
351.72	228.09
352.10	228.08
352.48	228.08
352.87	228.12
353.25	228.18
353.63	228.30
354.01	228.26
354.39	228.50
354.77	228.56
355.15	228.62
355.54	228.52
355.92	228.44
356.30	228.50
356.68	228.70
357.06	228.72
357.44	228.89
357.82	228.95
358.20	229.13
358.58	229.18
358.97	229.15
359.35	229.17
359.73	229.23
360.11	229.36
360.49	229.49
360.87	229.57
361.25	229.70
361.63	229.89
362.01	229.95
362.39	229.96
362.77	230.12
363.15	230.19
363.53	230.25
363.91	230.40
364.29	230.40
364.67	230.25
365.05	230.35
365.43	230.32
365.81	230.43
366.19	230.50
366.57	230.52
366.95	230.52
367.33	230.55
367.71	230.47
368.09	230.44
368.47	230.28
368.85	230.18
369.23	230.20
369.61	229.98
369.99	230.03
370.37	229.96
370.75	229.90
371.13	229.78
371.51	229.77
371.89	229.66
372.27	229.63
372.65	229.56
373.03	229.38
373.41	229.24
373.78	229.25
374.16	229.07
374.54	228.95
374.92	228.95
375.30	228.77
375.68	228.72
376.06	228.63
376.44	228.61
376.82	228.58
377.19	228.36
377.57	228.27
377.95	228.10
378.33	227.92
378.71	227.71
379.09	227.70
379.47	227.64
379.84	227.56
380.22	227.35
380.60	227.20
380.98	227.22
381.36	227.22
381.73	227.00
382.11	226.98
382.49	226.95
382.87	226.81
383.25	226.74
383.62	226.86
384.00	226.81
384.38	226.70
384.76	226.64
385.13	226.71
385.51	226.70
385.89	226.56
386.27	226.57
386.64	226.48
387.02	226.27
387.40	226.21
387.78	226.12
388.15	226.11
388.53	226.17
388.91	226.10
389.29	226.04
389.66	225.96
390.04	225.97
390.42	226.01
390.79	225.95
391.17	225.95
391.55	225.84
391.92	225.79
392.30	225.86
392.68	225.83
393.05	225.77
393.43	225.74
393.81	225.75
394.18	225.75
394.56	225.81
394.94	226.03
395.31	226.06
395.69	226.13
396.06	226.13
396.44	226.15
396.82	226.13
397.19	226.31
397.57	226.42
397.95	226.40
398.32	226.36
398.70	226.47
399.07	226.64
399.45	226.59
399.82	226.70
400.20	226.69
400.58	226.85
400.95	226.97
401.33	227.08
401.70	227.32
402.08	227.45
402.45	227.54
402.83	227.60
403.20	227.70
403.58	227.80
403.95	227.97
404.33	228.16
404.71	228.30
405.08	228.50
405.46	228.62
405.83	228.84
406.21	228.97
406.58	229.15
406.96	229.20
407.33	229.45
407.70	229.64
408.08	230.01
408.45	230.24
408.83	230.46
409.20	230.59
409.58	230.71
409.95	230.91
410.33	231.34
410.70	231.62
411.08	232.05
411.45	232.45
411.82	232.71
412.20	233.02
412.57	233.58
412.95	233.73
413.32	234.18
413.69	234.66
414.07	235.16
414.44	235.61
414.82	236.20
415.19	236.80
415.56	237.37
415.94	237.93
416.31	238.60
416.68	239.24
417.06	240.13
417.43	240.93
417.81	241.78
418.18	242.43
418.55	243.27
418.93	244.16
419.30	245.11
419.67	246.22
420.04	247.22
420.42	248.30
420.79	249.74
421.16	250.99
421.54	252.16
421.91	253.47
422.28	254.86
422.66	256.42
423.03	257.89
423.40	259.32
423.77	260.86
424.15	262.41
424.52	264.09
424.89	265.91
425.26	267.60
425.64	269.18
426.01	271.10
426.38	272.99
426.75	274.87
427.13	276.75
427.50	278.77
427.87	280.98
428.24	282.98
428.61	284.82
428.99	287.10
429.36	289.51
429.73	291.81
430.10	294.07
430.47	296.30
430.85	298.58
431.22	301.12
431.59	303.92
431.96	306.38
432.33	309.23
432.70	311.92
433.08	315.18
433.45	318.37
433.82	321.38
434.19	324.78
434.56	328.07
434.93	331.17
435.30	334.25
435.68	337.72
436.05	341.05
436.42	344.44
436.79	347.47
437.16	350.80
437.53	354.24
437.90	357.65
438.27	360.98
438.64	364.46
439.01	367.79
439.38	370.45
439.75	373.44
440.13	376.54
440.50	379.53
440.87	382.00
441.24	384.50
441.61	387.20
441.98	389.24
442.35	391.69
442.72	394.20
443.09	396.68
443.46	397.85
443.83	398.90
444.20	399.70
444.57	400.92
444.94	401.38
445.31	402.04
445.68	402.94
446.05	403.35
446.42	403.14
446.79	402.81
447.16	402.61
447.53	402.36
447.90	401.42
448.27	400.25
448.64	398.60
449.01	397.44
449.37	395.35
449.74	393.33
450.11	390.76
450.48	387.97
450.85	385.03
451.22	382.88
451.59	380.78
451.96	378.77
452.33	375.73
452.70	373.17
453.07	370.00
453.43	366.58
453.80	363.38
454.17	360.52
454.54	357.63
454.91	354.56
455.28	351.50
455.65	348.44
456.02	345.80
456.38	343.31
456.75	340.20
457.12	337.62
457.49	334.88
457.86	332.39
458.23	330.28
458.59	327.91
458.96	325.54
459.33	323.18
459.70	320.77
460.07	319.08
460.43	317.00
460.80	315.01
461.17	313.23
461.54	311.46
461.91	309.70
462.27	307.94
462.64	306.26
463.01	304.54
463.38	302.98
463.74	301.17
464.11	299.68
464.48	298.47
464.85	297.09
465.21	296.12
465.58	294.79
465.95	293.35
466.32	292.26
466.68	290.95
467.05	289.71
467.42	288.71
467.78	287.44
468.15	286.36
468.52	285.52
468.88	284.45
469.25	283.35
469.62	282.42
469.98	281.51
470.35	280.73
470.72	279.94
471.08	279.08
471.45	278.36
471.82	277.58
472.18	276.60
472.55	275.84
472.92	274.99
473.28	274.38
473.65	273.71
474.02	273.04
474.38	272.47
474.75	272.00
475.11	271.29
475.48	270.82
475.85	270.31
476.21	269.77
476.58	269.26
476.94	268.96
477.31	268.57
477.67	268.14
478.04	267.67
478.41	267.41
478.77	267.23
479.14	266.66
479.50	266.40
479.87	266.17
480.23	265.98
480.60	265.65
480.96	265.38
481.33	265.26
481.69	265.05
482.06	264.79
482.42	264.58
482.79	264.54
483.15	264.32
483.52	264.24
483.88	264.07
484.25	264.01
484.61	263.97
484.98	263.75
485.34	263.76
485.71	263.88
486.07	263.76
486.44	263.64
486.80	263.75
487.17	263.71
487.53	263.82
487.90	263.88
488.26	264.07
488.62	264.20
488.99	264.27
489.35	264.44
489.72	264.64
490.08	264.83
490.44	264.95
490.81	265.29
491.17	265.46
491.54	265.82
491.90	266.10
492.26	266.24
492.63	266.50
492.99	266.68
493.36	266.96
493.72	267.28
494.08	267.45
494.45	267.73
494.81	268.17
495.17	268.48
495.54	268.89
495.90	269.24
496.26	269.60
496.63	270.03
496.99	270.39
497.35	270.89
497.72	271.30
498.08	271.83
498.44	272.15
498.80	272.61
499.17	272.97
499.53	273.33
499.89	273.82
500.26	274.33
500.62	274.89
500.98	275.44
501.34	275.92
501.71	276.65
502.07	277.30
502.43	277.77
502.79	278.43
503.16	279.01
503.52	279.63
503.88	280.30
504.24	280.94
504.60	281.71
504.97	282.51
505.33	283.36
505.69	284.34
506.05	285.24
506.41	286.20
506.78	287.24
507.14	288.29
507.50	289.44
507.86	290.54
508.22	291.69
508.59	292.81
508.95	294.05
509.31	295.26
509.67	296.47
510.03	297.86
510.39	299.36
510.75	300.87
511.12	302.42
511.48	304.11
511.84	305.86
512.20	307.44
512.56	309.25
512.92	311.08
513.28	312.90
513.64	315.00
514.00	317.06
514.37	319.18
514.73	321.48
515.09	323.65
515.45	326.10
515.81	328.54
516.17	330.91
516.53	333.53
516.89	336.28
517.25	339.03
517.61	342.13
517.97	344.92
518.33	348.00
518.69	351.12
519.05	354.39
519.41	357.77
519.77	361.39
520.13	364.89
520.49	368.33
520.85	371.93
521.21	375.75
521.57	379.60
521.93	383.43
522.29	387.41
522.65	391.51
523.01	395.70
523.37	399.98
523.73	404.39
524.09	408.78
524.45	413.35
524.81	418.19
525.17	422.77
525.53	427.77
525.89	432.81
526.25	438.13
526.61	443.16
526.97	448.26
527.33	453.44
527.68	458.92
528.04	464.63
528.40	470.32
528.76	476.06
529.12	481.80
529.48	487.73
529.84	493.73
530.20	499.90
530.56	506.18
530.91	512.55
531.27	518.99
531.63	525.43
531.99	532.07
532.35	538.61
532.71	545.18
533.07	551.67
533.42	558.55
533.78	564.98
534.14	571.83
534.50	578.61
534.86	585.60
535.21	592.22
535.57	599.36
535.93	606.42
536.29	613.59
536.65	620.78
537.00	627.79
537.36	634.86
537.72	641.97
538.08	649.09
538.44	656.10
538.79	663.51
539.15	670.83
539.51	677.78
539.87	685.21
540.22	692.70
540.58	700.49
540.94	707.55
541.29	715.00
541.65	722.20
542.01	730.04
542.37	737.44
542.72	745.04
543.08	752.08
543.44	759.40
543.79	766.14
544.15	773.53
544.51	781.22
544.87	788.88
545.22	796.10
545.58	803.31
545.94	810.50
546.29	817.42
546.65	824.60
547.01	832.00
547.36	838.81
547.72	845.70
548.07	852.43
548.43	859.04
548.79	865.91
549.14	872.99
549.50	879.18
549.86	885.71
550.21	892.01
550.57	898.77
550.92	905.38
551.28	911.99
551.64	918.04
551.99	924.61
552.35	930.74
552.70	937.10
553.06	943.28
553.41	949.69
553.77	956.12
554.13	962.28
554.48	968.22
554.84	974.37
555.19	980.29
555.55	986.23
555.90	992.27
556.26	998.04
556.61	1003.40
556.97	1009.23
557.32	1015.08
557.68	1021.03
558.03	1026.73
558.39	1032.22
558.74	1038.37
559.10	1044.26
559.45	1049.75
559.81	1055.48
560.16	1060.85
560.52	1065.96
560.87	1071.08
561.23	1075.99
561.58	1080.88
561.94	1085.95
562.29	1090.57
562.64	1095.05
563.00	1099.70
563.35	1104.56
563.71	1109.57
564.06	1114.74
564.42	1119.52
564.77	1124.21
565.12	1128.64
565.48	1132.99
565.83	1137.09
566.19	1140.88
566.54	1144.61
566.89	1148.14
567.25	1151.82
567.60	1155.69
567.96	1159.82
568.31	1163.47
568.66	1167.09
569.02	1170.75
569.37	1173.61
569.72	1176.97
570.08	1180.41
570.43	1183.30
570.78	1186.43
571.14	1188.88
571.49	1191.47
571.84	1194.19
572.20	1196.72
572.55	1199.11
572.90	1201.30
573.26	1203.81
573.61	1206.06
573.96	1208.25
574.31	1209.69
574.67	1210.94
575.02	1212.43
575.37	1214.08
575.72	1215.51
576.08	1216.42
576.43	1217.27
576.78	1218.77
577.13	1220.16
577.49	1221.26
577.84	1222.55
578.19	1223.50
578.54	1224.15
578.90	1224.38
579.25	1224.40
579.60	1224.49
579.95	1224.58
580.30	1224.67
580.66	1224.19
581.01	1224.10
581.36	1224.19
581.71	1224.50
582.06	1224.58
582.42	1224.25
582.77	1223.48
583.12	1222.92
583.47	1222.85
583.82	1222.60
584.17	1221.71
584.53	1220.85
584.88	1220.25
585.23	1219.23
585.58	1218.20
585.93	1217.64
586.28	1217.11
586.63	1216.94
586.98	1216.36
587.34	1215.47
587.69	1214.46
588.04	1214.25
588.39	1213.45
588.74	1211.53
589.09	1210.32
589.44	1208.54
589.79	1207.34
590.14	1206.22
590.49	1204.89
590.84	1203.44
591.19	1202.29
591.54	1200.45
591.89	1198.11
592.25	1196.45
592.60	1194.18
592.95	1191.84
593.30	1189.49
593.65	1187.46
594.00	1184.60
594.35	1182.17
594.70	1179.79
595.05	1177.69
595.40	1174.78
595.75	1171.76
596.10	1170.08
596.45	1167.82
596.80	1166.23
597.15	1164.17
597.50	1161.49
597.85	1159.41
598.19	1157.29
598.54	1154.52
598.89	1152.55
599.24	1150.97
599.59	1148.41
599.94	1146.46
600.29	1144.13
600.64	1141.85
600.99	1138.97
601.34	1136.84
601.69	1134.07
602.04	1131.71
602.39	1129.18
602.74	1127.23
603.08	1124.93
603.43	1122.43
603.78	1119.80
604.13	1116.93
604.48	1113.76
604.83	1111.33
605.18	1108.20
605.53	1104.89
605.87	1101.81
606.22	1098.88
606.57	1095.62
606.92	1092.56
607.27	1089.67
607.62	1087.25
607.96	1084.38
608.31	1081.86
608.66	1078.05
609.01	1074.65
609.36	1070.73
609.70	1066.69
610.05	1062.48
610.40	1059.18
610.75	1055.23
611.10	1051.45
611.44	1047.21
611.79	1043.75
612.14	1039.81
612.49	1035.72
612.83	1031.88
613.18	1028.02
613.53	1024.05
613.88	1020.07
614.22	1016.13
614.57	1011.97
614.92	1007.54
615.27	1003.55
615.61	999.05
615.96	995.63
616.31	992.11
616.65	989.05
617.00	985.60
617.35	982.16
617.70	978.19
618.04	974.33
618.39	970.79
618.74	967.60
619.08	963.40
619.43	959.68
619.78	956.26
620.12	952.37
620.47	948.57
620.82	944.57
621.16	940.78
621.51	937.05
621.85	933.13
622.20	929.02
622.55	925.35
622.89	921.65
623.24	917.66
623.59	914.00
623.93	910.08
624.28	906.25
624.62	902.34
624.97	898.64
625.32	895.20
625.66	891.32
626.01	887.42
626.35	884.07
626.70	880.28
627.04	876.72
627.39	872.80
627.73	868.89
628.08	865.40
628.43	861.50
628.77	857.50
629.12	853.78
629.46	850.11
629.81	845.86
630.15	841.84
630.50	838.01
630.84	833.57
631.19	829.19
631.53	825.20
631.88	820.98
632.22	816.58
632.57	812.48
632.91	807.98
633.26	803.60
633.60	799.22
633.95	794.98
634.29	790.81
634.64	787.13
634.98	783.40
635.32	779.62
635.67	776.11
636.01	772.48
636.36	768.57
636.70	764.99
637.05	761.32
637.39	757.75
637.73	754.24
638.08	750.97
638.42	747.86
638.77	744.35
639.11	740.94
639.45	737.55
639.80	734.00
640.14	730.59
640.49	727.46
640.83	723.84
641.17	720.57
641.52	717.02
641.86	713.50
642.20	709.97
642.55	706.35
642.89	702.80
643.23	699.15
643.58	696.07
643.92	692.50
644.26	689.17
644.61	685.87
644.95	682.46
645.29	678.62
645.64	674.86
645.98	671.40
646.32	667.90
646.66	664.33
647.01	660.72
647.35	657.53
647.69	653.92
648.04	650.82
648.38	647.30
648.72	643.60
649.06	640.00
649.41	636.62
649.75	632.95
650.09	629.37
650.43	626.11
650.78	622.43
651.12	618.74
651.46	615.19
651.80	611.81
652.14	608.23
652.49	605.26
652.83	601.90
653.17	598.48
653.51	594.87
653.85	591.74
654.20	588.38
654.54	584.89
654.88	581.38
655.22	577.66
655.56	574.13
655.90	571.08
656.25	567.95
656.59	564.63
656.93	561.61
657.27	558.50
657.61	555.00
657.95	551.84
658.29	548.99
658.64	545.89
658.98	542.61
659.32	539.45
659.66	536.28
660.00	533.38
660.34	530.51
660.68	527.77
661.02	524.75
661.36	522.07
661.70	519.39
662.05	517.00
662.39	514.57
662.73	512.00
663.07	509.39
663.41	506.74
663.75	504.16
664.09	501.59
664.43	498.99
664.77	496.70
665.11	494.19
665.45	491.50
665.79	488.96
666.13	486.49
666.47	484.27
666.81	481.70
667.15	479.00
667.49	476.47
667.83	474.13
668.17	471.80
668.51	469.20
668.85	466.70
669.19	464.37
669.53	461.95
669.87	459.63
670.21	457.18
670.55	454.93
670.89	452.96
671.23	450.96
671.57	448.86
671.91	446.63
672.25	444.49
672.58	442.43
672.92	440.47
673.26	438.67
673.60	436.47
673.94	434.58
674.28	433.01
674.62	431.16
674.96	429.13
675.30	427.21
675.64	425.56
675.97	423.77
676.31	421.77
676.65	419.99
676.99	418.24
677.33	416.55
677.67	414.87
678.01	412.84
678.34	410.88
678.68	409.11
679.02	407.32
679.36	405.68
679.70	404.09
680.04	402.37
680.37	400.37
680.71	398.67
681.05	397.08
681.39	395.36
681.73	393.69
682.06	392.25
682.40	390.69
682.74	388.97
683.08	387.29
683.42	385.76
683.75	384.26
684.09	382.72
684.43	381.14
684.77	379.43
685.10	377.87
685.44	376.27
685.78	374.62
686.12	373.04
686.45	371.53
686.79	369.98
687.13	368.39
687.46	366.98
687.80	365.53
688.14	363.98
688.48	362.61
688.81	361.17
689.15	359.62
689.49	358.24
689.82	357.02
690.16	355.66
690.50	354.35
690.83	352.84
691.17	351.38
691.51	349.99
691.84	348.86
692.18	347.60
692.52	346.28
692.85	345.06
693.19	344.00
693.52	342.64
693.86	341.50
694.20	340.26
694.53	339.07
694.87	337.76
695.21	336.52
695.54	335.07
695.88	333.83
696.21	332.52
696.55	331.24
696.88	329.87
697.22	328.73
697.56	327.56
697.89	326.43
698.23	325.30
698.56	324.17
698.90	322.81
699.23	321.52
699.57	320.46
699.90	319.33
700.24	318.07
700.58	316.95
700.91	315.71
701.25	314.77
701.58	313.81
701.92	312.89
702.25	311.90
702.59	311.10
702.92	310.18
703.26	309.45
703.59	308.43
703.93	307.63
704.26	306.79
704.60	305.86
704.93	305.09
705.26	304.28
705.60	303.43
705.93	302.73
706.27	302.16
706.60	301.47
706.94	300.85
707.27	300.00
707.61	299.19
707.94	298.58
708.27	297.78
708.61	296.90
708.94	296.10
709.28	295.44
709.61	294.65
709.94	294.04
710.28	293.23
710.61	292.75
710.95	291.90
711.28	291.31
711.61	290.59
711.95	289.79
712.28	289.06
712.61	288.49
712.95	288.02
713.28	287.33
713.61	286.70
713.95	285.93
714.28	285.33
714.61	284.73
714.95	284.00
715.28	283.45
715.61	282.83
715.95	282.31
716.28	281.63
716.61	281.18
716.95	280.61
717.28	280.04
717.61	279.35
717.94	278.84
718.28	278.10
718.61	277.53
718.94	277.10
719.27	276.61
719.61	276.12
719.94	275.38
720.27	274.84
720.60	274.22
720.94	273.76
721.27	273.32
721.60	272.97
721.93	272.46
722.27	271.99
722.60	271.54
722.93	271.09
723.26	270.75
723.59	270.17
723.93	269.59
724.26	269.21
724.59	268.71
724.92	268.26
725.25	267.88
725.59	267.53
725.92	267.16
726.25	266.69
726.58	266.41
726.91	266.00
727.24	265.59
727.57	265.18
727.91	264.79
728.24	264.41
728.57	263.90
728.90	263.60
729.23	263.05
729.56	262.83
729.89	262.49
730.22	262.00
730.55	261.64
730.89	261.28
731.22	261.03
731.55	260.75
731.88	260.36
732.21	259.98
732.54	259.57
732.87	259.17
733.20	258.80
733.53	258.33
733.86	258.04
734.19	257.79
734.52	257.42
734.85	257.21
735.18	256.97
735.51	256.83
735.84	256.42
736.17	256.25
736.50	255.89
736.83	255.73
737.16	255.50
737.49	255.12
737.82	254.87
738.15	254.50
738.48	254.19
738.81	254.00
739.14	253.63
739.47	253.40
739.80	253.10
740.13	252.99
740.46	252.69
740.79	252.49
741.12	252.12
741.45	251.90
741.78	251.52
742.11	251.27
742.44	250.85
742.77	250.67
743.10	250.44
743.43	250.03
743.75	249.60
744.08	249.53
744.41	249.34
744.74	249.00
745.07	248.62
745.40	248.44
745.73	248.17
746.06	248.02
746.39	247.76
746.71	247.60
747.04	247.25
747.37	247.04
747.70	246.74
748.03	246.47
748.36	246.32
748.68	246.05
749.01	245.71
749.34	245.50
749.67	245.36
750.00	245.11
750.33	245.09
750.65	244.87
750.98	244.41
751.31	244.20
751.64	244.09
751.97	244.09
752.29	243.83
752.62	243.67
752.95	243.47
753.28	243.39
753.60	243.23
753.93	243.21
754.26	242.98
754.59	242.80
754.91	242.65
755.24	242.42
755.57	242.32
755.90	242.22
756.22	242.13
756.55	241.90
756.88	241.84
757.20	241.64
757.53	241.45
757.86	241.38
758.19	241.20
758.51	241.14
758.84	240.92
759.17	240.89
759.49	240.71
759.82	240.63
760.15	240.44
760.47	240.38
760.80	240.07
761.13	239.90
761.45	239.67
761.78	239.55
762.11	239.49
762.43	239.34
762.76	239.16
763.08	239.04
763.41	238.98
763.74	238.79
764.06	238.63
764.39	238.62
764.71	238.44
765.04	238.39
765.37	238.18
765.69	238.10
766.02	237.94
766.34	237.77
766.67	237.69
767.00	237.55
767.32	237.49
767.65	237.59
767.97	237.60
768.30	237.62
768.62	237.59
768.95	237.34
769.27	237.26
769.60	237.28
769.92	237.15
770.25	236.98
770.57	236.94
770.90	236.87
771.22	236.73
771.55	236.62
771.87	236.49
772.20	236.43
772.52	236.53
772.85	236.58
773.17	236.60
773.50	236.42
773.82	236.41
774.15	236.17
774.47	235.91
774.80	235.64
775.12	235.57
775.45	235.45
775.77	235.53
776.09	235.49
776.42	235.44
776.74	235.40
777.07	235.20
777.39	235.07
777.72	234.96
778.04	234.88
778.36	234.90
778.69	234.77
779.01	234.72
779.33	234.47
779.66	234.25
779.98	234.19
780.31	234.18
780.63	234.15
780.95	234.13
781.28	234.05
781.60	234.10
781.92	234.00
782.25	233.98
782.57	233.80
782.89	233.70
783.22	233.59
783.54	233.52
783.86	233.62
784.19	233.48
784.51	233.49
784.83	233.45
785.16	233.36
785.48	233.41
785.80	233.30
786.12	233.22
786.45	233.17
786.77	233.21
787.09	233.01
787.42	232.88
787.74	232.83
788.06	232.82
788.38	232.84
788.71	232.86
789.03	232.76
789.35	232.75
789.67	232.65
789.99	232.57
790.32	232.48
790.64	232.35
790.96	232.48
791.28	232.34
791.61	232.28
791.93	232.24
792.25	232.16
792.57	232.32
792.89	232.31
793.21	232.29
793.54	232.22
793.86	232.31
794.18	232.33
794.50	232.25
794.82	232.20
795.14	232.10
795.47	232.07
795.79	232.07
796.11	232.04
796.43	232.00
796.75	231.98
797.07	231.90
797.39	231.89
797.71	231.76
798.04	231.75
798.36	231.66
798.68	231.69
799.00	231.71
799.32	231.61
799.64	231.62
799.96	231.60
800.28	231.47
800.60	231.44
800.92	231.37
801.24	231.31
801.56	231.36
801.89	231.27
802.21	231.31
802.53	231.36
802.85	231.36
803.17	231.50
803.49	231.49
803.81	231.47
804.13	231.46
804.45	231.37
804.77	231.35
805.09	231.31
805.41	231.23
805.73	231.15
806.05	231.10
806.37	230.98
806.69	230.91
807.01	230.85
807.33	230.79
807.65	230.66
807.97	230.90
808.28	230.80
808.60	230.91
808.92	230.78
809.24	230.77
809.56	230.62
809.88	230.51
810.20	230.49
810.52	230.55
810.84	230.60
811.16	230.60
811.48	230.63
811.80	230.70
812.12	230.67
812.43	230.70
812.75	230.64
813.07	230.66
813.39	230.70
813.71	230.73
814.03	230.75
814.35	230.84
814.67	230.65
814.98	230.58
815.30	230.43
815.62	230.42
815.94	230.33
816.26	230.49
816.58	230.47
816.89	230.50
817.21	230.43
817.53	230.40
817.85	230.40
818.17	230.36
818.48	230.30
818.80	230.34
819.12	230.30
819.44	230.25
819.76	230.15
820.07	230.18
820.39	230.10
820.71	230.07
821.03	230.05
821.34	229.96
821.66	230.07
821.98	230.16
822.30	230.10
822.61	230.21
822.93	230.09
823.25	229.98
823.57	229.88
823.88	229.91
824.20	229.91
824.52	229.99
824.83	229.95
825.15	229.95
825.47	229.94
825.79	229.93
826.10	229.87
826.42	229.96
826.74	229.93
827.05	230.01
827.37	230.01
827.69	229.87
828.00	229.87
828.32	229.78
828.64	229.65
828.95	229.65
829.27	229.60
829.58	229.59
829.90	229.63
830.22	229.63
830.53	229.52
830.85	229.49
831.17	229.35
831.48	229.39
831.80	229.37
832.11	229.40
832.43	229.34
832.75	229.36
833.06	229.42
833.38	229.29
833.69	229.18
834.01	229.19
834.32	229.27
834.64	229.27
834.96	229.27
835.27	229.23
835.59	229.16
835.90	229.05
836.22	229.10
836.53	229.05
836.85	228.99
837.16	229.29
837.48	229.23
837.79	229.32
838.11	229.33
838.42	229.35
838.74	229.22
839.05	229.29
839.37	229.27
839.68	229.10
840.00	229.12
840.31	229.17
840.63	229.11
840.94	228.99
841.26	228.99
841.57	228.95
841.88	229.00
842.20	229.03
842.51	229.00
842.83	228.98
843.14	229.11
843.46	229.24
843.77	229.03
844.08	229.05
844.40	228.98
844.71	228.83
845.03	228.86
845.34	228.96
845.65	228.88
845.97	228.91
846.28	228.92
846.60	228.91
846.91	228.89
847.22	228.83
847.54	228.94
847.85	228.88
848.16	228.93
848.48	229.00
848.79	229.05
849.10	229.10
849.42	229.03
849.73	228.91
850.04	228.78
850.36	228.72
850.67	228.64
850.98	228.71
851.30	228.82
851.61	228.75
851.92	228.76
852.23	228.85
852.55	228.86
852.86	228.88
853.17	228.94
853.49	229.03
853.80	229.20
854.11	229.26
854.42	229.42
854.74	229.37
855.05	229.30
855.36	229.27
855.67	229.33
855.99	229.31
856.30	229.53
856.61	229.57
856.92	229.66
857.23	229.78
857.55	229.75
857.86	229.72
858.17	229.63
858.48	229.55
858.79	229.47
859.11	229.57
859.42	229.57
859.73	229.47
860.04	229.33
860.35	229.22
860.66	229.13
860.98	229.03
861.29	229.07
861.60	229.10
861.91	229.28
862.22	229.15
862.53	229.16
862.84	228.96
863.16	228.99
863.47	228.92
863.78	228.90
864.09	228.96
864.40	228.99
864.71	229.16
865.02	229.19
865.33	229.24
865.64	229.13
865.95	229.07
866.27	229.31
866.58	229.41
866.89	229.46
867.20	229.49
867.51	229.54
867.82	229.50
868.13	229.47
868.44	229.26
868.75	229.35
869.06	229.45
869.37	229.44
869.68	229.33
869.99	229.42
870.30	229.40
870.61	229.37
870.92	229.36
871.23	229.30
871.54	229.33
871.85	229.22
872.16	229.21
872.47	229.30
872.78	229.16
873.09	229.13
873.40	229.09
873.71	229.06
874.02	229.12
874.33	229.09
874.64	229.04
874.95	229.09
875.26	229.07
875.56	228.97
875.87	229.00
876.18	228.98
876.49	229.09
876.80	229.24
877.11	229.15
877.42	229.14
877.73	229.19
878.04	229.09
878.35	229.10
878.66	229.16
878.96	229.08
879.27	228.92
879.58	228.89
879.89	228.78
880.20	228.80
880.51	228.58
880.82	228.59
881.12	228.55
881.43	228.54
881.74	228.42
882.05	228.40
882.36	228.29
882.67	228.24
882.97	228.05
883.28	227.89
883.59	227.85
883.90	227.89
884.21	227.90
884.51	227.88
884.82	227.88
885.13	227.80
885.44	227.81
885.74	227.87
886.05	227.90
886.36	227.98
886.67	227.83
886.98	227.96
887.28	227.90
887.59	228.02
887.90	227.94
888.20	227.93
888.51	227.99
888.82	228.03
889.13	228.05
889.43	228.23
889.74	228.21
890.05	228.25
890.35	228.16
890.66	228.03
890.97	228.10
891.28	228.11
891.58	228.15
891.89	228.21
892.20	228.20
892.50	228.16
892.81	228.20
893.12	228.27
893.42	228.35
893.73	228.47
894.04	228.43
894.34	228.53
894.65	228.67
894.95	228.71
895.26	228.76
895.57	228.95
895.87	228.69
896.18	228.72
896.48	228.68
896.79	228.61
897.10	228.69
897.40	228.64
897.71	228.75
898.01	228.72
898.32	228.74
898.63	228.72
898.93	228.72
899.24	228.71
899.54	228.75
899.85	228.62
900.15	228.50
900.46	228.49
900.76	228.45
901.07	228.30
901.38	228.24
901.68	228.24
901.99	228.09
902.29	228.12
902.60	228.10
902.90	228.10
903.21	228.16
903.51	228.07
903.82	228.08
904.12	227.94
904.43	227.90
904.73	227.82
905.03	227.83
905.34	227.98
905.64	227.95
905.95	227.92
906.25	227.96
906.56	228.00
906.86	228.03
907.17	228.05
907.47	228.11
907.77	228.01
908.08	227.95
908.38	228.06
908.69	228.05
908.99	227.96
909.30	228.02
909.60	227.97
909.90	228.00
910.21	227.87
910.51	227.80
910.81	227.74
911.12	227.80
911.42	227.73
911.73	227.50
912.03	227.34
912.33	227.30
912.64	227.20
912.94	227.25
913.24	227.18
913.55	227.11
913.85	227.13
914.15	227.19
914.46	227.14
914.76	227.03
915.06	227.00
915.37	227.05
915.67	226.96
915.97	226.95
916.27	226.94
916.58	227.01
916.88	227.16
917.18	227.17
917.49	227.27
917.79	227.34
918.09	227.42
918.39	227.58
918.70	227.68
919.00	227.68
919.30	227.74
919.60	227.72
919.91	227.71
920.21	227.64
920.51	227.63
920.81	227.59
921.12	227.69
921.42	227.68
921.72	227.67
922.02	227.76
922.32	227.87
922.63	227.86
922.93	228.05
923.23	228.06
923.53	228.13
923.83	228.02
924.13	227.99
924.44	227.96
924.74	228.00
925.04	228.07
925.34	228.10
925.64	228.07
925.94	228.07
926.24	228.28
926.55	228.30
926.85	228.37
927.15	228.43
927.45	228.44
927.75	228.51
928.05	228.60
928.35	228.59
928.65	228.68
928.95	228.74
929.26	228.64
929.56	228.61
929.86	228.63
930.16	228.74
930.46	228.84
930.76	228.88
931.06	228.88
931.36	228.79
931.66	228.86
931.96	228.91
932.26	228.96
932.56	228.91
932.86	228.95
933.16	228.89
933.46	228.97
933.76	228.97
934.06	229.15
934.36	229.16
934.66	229.11
934.96	228.99
935.26	229.03
935.56	229.16
935.86	229.22
936.16	229.22
936.46	229.11
936.76	229.10
937.06	229.06
937.36	229.02
937.66	229.03
937.96	229.04
938.26	229.09
938.56	229.05
938.86	228.92
939.16	228.97
939.46	229.10
939.76	229.13
940.06	229.05
940.35	228.84
940.65	228.73
940.95	228.80
941.25	228.88
941.55	228.74
941.85	228.55
942.15	228.61
942.45	228.63
942.75	228.68
943.04	228.74
943.34	228.76
943.64	228.71
943.94	228.70
944.24	228.61
944.54	228.47
944.84	228.42
945.13	228.47
945.43	228.40
945.73	228.26
946.03	228.20
946.33	228.16
946.62	228.13
946.92	228.22
947.22	228.11
947.52	228.13
947.82	228.20
948.11	228.27
948.41	228.01
948.71	227.94
949.01	227.82
949.31	227.65
949.60	227.65
949.90	227.72
950.20	227.66
950.50	227.65
950.79	227.66
951.09	227.72
951.39	227.70
951.69	227.68
951.98	227.67
952.28	227.67
952.58	227.70
952.87	227.69
953.17	227.68
953.47	227.70
953.76	227.48
954.06	227.49
954.36	227.32
954.66	227.37
954.95	227.48
955.25	227.49
955.55	227.51
955.84	227.53
956.14	227.61
956.44	227.59
956.73	227.60
957.03	227.65
957.32	227.62
957.62	227.58
957.92	227.70
958.21	227.80
958.51	227.91
958.81	227.97
959.10	227.98
959.40	227.99
959.69	228.00
959.99	228.07
960.29	227.96
960.58	228.10
960.88	228.24
961.17	228.19
961.47	228.20
961.76	228.22
962.06	228.23
962.36	228.12
962.65	228.18
962.95	228.21
963.24	228.08
963.54	228.14
963.83	228.18
964.13	228.20
964.42	228.11
964.72	228.09
965.01	228.11
965.31	228.18
965.60	228.15
965.90	228.30
966.19	228.28
966.49	228.49
966.78	228.57
967.08	228.50
967.37	228.47
967.67	228.53
967.96	228.51
968.26	228.50
968.55	228.67
968.85	228.71
969.14	228.69
969.43	228.78
969.73	228.70
970.02	228.77
970.32	228.77
970.61	228.82
970.91	228.80
971.20	228.80
971.49	228.76
971.79	228.74
972.08	228.66
972.38	228.79
972.67	228.75
972.96	228.59
973.26	228.59
973.55	228.68
973.85	228.60
974.14	228.65
974.43	228.70
974.73	228.59
975.02	228.54
975.31	228.52
975.61	228.56
975.90	228.59
976.19	228.47
976.49	228.42
976.78	228.41
977.07	228.37
977.37	228.30
977.66	228.32
977.95	228.36
978.24	228.32
978.54	228.37
978.83	228.33
979.12	228.42
979.42	228.50
979.71	228.44
980.00	228.50
980.29	228.52
980.59	228.41
980.88	228.48
981.17	228.49
981.46	228.54
981.76	228.53
982.05	228.64
982.34	228.75
982.63	228.72
982.93	228.70
983.22	228.80
983.51	228.84
983.80	228.87
984.09	228.89
984.39	228.94
984.68	228.85
984.97	228.84
985.26	228.78
985.55	228.73
985.85	228.73
986.14	228.64
986.43	228.66
986.72	228.71
987.01	228.61
987.30	228.54
987.59	228.47
987.89	228.47
988.18	228.28
988.47	228.20
988.76	228.10
989.05	228.13
989.34	227.95
989.63	228.04
989.92	227.92
990.22	227.76
990.51	227.65
990.80	227.61
991.09	227.55
991.38	227.51
991.67	227.36
991.96	227.23
992.25	227.34
992.54	227.25
992.83	227.15
993.12	227.13
993.41	227.12
993.70	227.13
993.99	227.15
994.28	227.14
994.58	227.23
994.87	227.32
995.16	227.29
995.45	227.25
995.74	227.08
996.03	227.18
996.32	227.26
996.61	227.29
996.90	227.23
997.19	227.22
997.48	227.20
997.77	227.30
998.06	227.48
998.34	227.32
998.63	227.36
998.92	227.37
999.21	227.41
999.50	227.44
999.79	227.40
1000.08	227.36
1000.37	227.40
1000.66	227.28
1000.95	227.23
1001.24	227.26
1001.53	227.31
1001.82	227.31
1002.11	227.22
1002.40	227.31
1002.68	227.37
1002.97	227.51
1003.26	227.46
1003.55	227.43
1003.84	227.42
1004.13	227.44
1004.42	227.57
1004.71	227.54
1004.99	227.69
1005.28	227.76
1005.57	227.77
1005.86	227.85
1006.15	227.89
1006.44	227.95
1006.72	228.10
1007.01	228.11
1007.30	228.09
1007.59	228.16
1007.88	228.26
1008.17	228.28
1008.45	228.17
1008.74	228.09
1009.03	228.09
1009.32	228.11
1009.60	228.22
1009.89	228.10
1010.18	228.01
1010.47	227.96
1010.76	227.95
1011.04	227.95
1011.33	227.95
1011.62	227.99
1011.91	228.09
1012.19	228.10
1012.48	228.16
1012.77	228.14
1013.05	228.31
1013.34	228.33
1013.63	228.31
1013.92	228.36
1014.20	228.42
1014.49	228.52
1014.78	228.68
1015.06	228.65
1015.35	228.70
1015.64	228.81
1015.92	228.97
1016.21	229.04
1016.50	229.07
1016.78	229.15
1017.07	229.18
1017.36	229.14
1017.64	229.03
1017.93	228.92
1018.22	228.90
1018.50	228.85
1018.79	228.78
1019.08	228.66
1019.36	228.69
1019.65	228.68
1019.93	228.66
1020.22	228.65
1020.51	228.68
1020.79	228.60
1021.08	228.40
1021.36	228.20
1021.65	227.70
1021.94	229.20
1022.22	228.60
1022.51	228.10
1022.79	229.50
1023.08	228.10
1023.36	229.70
1023.65	228.60
>>>>>End Processed Spectral Data<<<<<
