SpectraSuite Data File
++++++++++++++++++++++++++++++++++++
Date: Fri Feb 01 14:39:19 EST 2013
User: group
Dark Spectrum Present: No
Reference Spectrum Present: No
Number of Sampled Component Spectra: 1
Spectrometers: USB2E7196
Integration Time (usec): 70000 (USB2E7196)
Spectra Averaged: 10 (USB2E7196)
Boxcar Smoothing: 10 (USB2E7196)
Correct for Electrical Dark: No (USB2E7196)
Strobe/Lamp Enabled: No (USB2E7196)
Correct for Detector Non-linearity: No (USB2E7196)
Correct for Stray Light: No (USB2E7196)
Number of Pixels in Processed Spectrum: 2048
>>>>>Begin Processed Spectral Data<<<<<
339.09	0.00
339.48	217.50
339.86	217.20
340.24	218.00
340.63	220.40
341.01	225.10
341.39	223.80
341.78	224.30
342.16	226.50
342.54	226.20
342.93	214.75
343.31	225.64
343.69	226.00
344.07	226.41
344.46	226.87
344.84	227.09
345.22	227.18
345.60	227.35
345.99	227.54
346.37	227.60
346.75	227.62
347.13	227.59
347.52	227.45
347.90	227.55
348.28	227.46
348.66	227.52
349.05	227.56
349.43	227.66
349.81	227.69
350.19	227.67
350.57	227.62
350.96	227.82
351.34	227.93
351.72	228.08
352.10	228.18
352.48	228.19
352.87	228.39
353.25	228.49
353.63	228.52
354.01	228.58
354.39	228.69
354.77	228.78
355.15	229.04
355.54	229.07
355.92	229.08
356.30	229.10
356.68	229.31
357.06	229.41
357.44	229.48
357.82	229.59
358.20	229.71
358.58	229.79
358.97	229.71
359.35	229.62
359.73	229.73
360.11	229.76
360.49	229.86
360.87	229.97
361.25	230.02
361.63	230.25
362.01	230.23
362.39	230.16
362.77	230.27
363.15	230.11
363.53	230.19
363.91	230.26
364.29	230.37
364.67	230.21
365.05	230.16
365.43	230.15
365.81	230.15
366.19	230.25
366.57	230.33
366.95	230.38
367.33	230.41
367.71	230.41
368.09	230.50
368.47	230.47
368.85	230.32
369.23	230.31
369.61	230.09
369.99	230.13
370.37	230.30
370.75	230.25
371.13	230.28
371.51	230.21
371.89	230.17
372.27	230.08
372.65	230.01
373.03	230.00
373.41	229.92
373.78	229.86
374.16	229.62
374.54	229.52
374.92	229.40
375.30	229.28
375.68	229.09
376.06	228.97
376.44	228.87
376.82	228.79
377.19	228.68
377.57	228.67
377.95	228.60
378.33	228.31
378.71	228.18
379.09	228.18
379.47	228.14
379.84	228.09
380.22	227.99
380.60	227.85
380.98	227.74
381.36	227.64
381.73	227.49
382.11	227.49
382.49	227.47
382.87	227.39
383.25	227.27
383.62	227.50
384.00	227.36
384.38	227.28
384.76	227.38
385.13	227.42
385.51	227.31
385.89	227.24
386.27	227.30
386.64	227.25
387.02	227.07
387.40	226.95
387.78	226.86
388.15	226.73
388.53	226.73
388.91	226.74
389.29	226.66
389.66	226.64
390.04	226.54
390.42	226.40
390.79	226.39
391.17	226.40
391.55	226.12
391.92	226.17
392.30	226.22
392.68	226.13
393.05	226.09
393.43	226.13
393.81	226.14
394.18	226.13
394.56	226.26
394.94	226.52
395.31	226.58
395.69	226.73
396.06	226.86
396.44	226.90
396.82	226.83
397.19	227.01
397.57	227.10
397.95	227.20
398.32	227.28
398.70	227.32
399.07	227.46
399.45	227.51
399.82	227.64
400.20	227.77
400.58	227.88
400.95	227.90
401.33	228.11
401.70	228.35
402.08	228.49
402.45	228.55
402.83	228.52
403.20	228.77
403.58	228.86
403.95	229.13
404.33	229.39
404.71	229.62
405.08	229.84
405.46	230.06
405.83	230.28
406.21	230.41
406.58	230.57
406.96	230.84
407.33	231.13
407.70	231.31
408.08	231.57
408.45	231.81
408.83	232.20
409.20	232.33
409.58	232.44
409.95	232.73
410.33	233.02
410.70	233.26
411.08	233.51
411.45	233.85
411.82	234.10
412.20	234.37
412.57	234.82
412.95	235.06
413.32	235.46
413.69	235.79
414.07	236.23
414.44	236.86
414.82	237.36
415.19	237.89
415.56	238.50
415.94	239.05
416.31	239.72
416.68	240.29
417.06	241.11
417.43	241.75
417.81	242.54
418.18	243.36
418.55	244.22
418.93	245.15
419.30	246.00
419.67	246.90
420.04	247.97
420.42	248.91
420.79	250.15
421.16	251.32
421.54	252.67
421.91	253.98
422.28	255.30
422.66	256.65
423.03	258.15
423.40	259.45
423.77	260.91
424.15	262.40
424.52	263.90
424.89	265.57
425.26	267.25
425.64	268.72
426.01	270.43
426.38	272.22
426.75	273.94
427.13	275.93
427.50	278.00
427.87	279.88
428.24	281.98
428.61	283.92
428.99	286.12
429.36	288.46
429.73	290.70
430.10	292.91
430.47	295.28
430.85	297.67
431.22	300.24
431.59	303.10
431.96	305.57
432.33	308.37
432.70	311.10
433.08	314.23
433.45	317.23
433.82	320.05
434.19	323.43
434.56	326.79
434.93	329.68
435.30	332.80
435.68	336.30
436.05	339.53
436.42	342.71
436.79	345.66
437.16	348.77
437.53	352.22
437.90	355.48
438.27	358.69
438.64	362.04
439.01	365.16
439.38	367.64
439.75	370.36
440.13	373.40
440.50	376.20
440.87	378.63
441.24	381.09
441.61	383.92
441.98	385.85
442.35	388.00
442.72	390.52
443.09	392.85
443.46	394.10
443.83	395.12
444.20	395.97
444.57	397.03
444.94	397.57
445.31	398.20
445.68	398.95
446.05	399.16
446.42	398.81
446.79	398.56
447.16	398.27
447.53	398.18
447.90	397.10
448.27	396.10
448.64	394.52
449.01	393.58
449.37	391.56
449.74	389.48
450.11	387.28
450.48	384.51
450.85	381.49
451.22	379.34
451.59	377.16
451.96	375.08
452.33	372.27
452.70	369.78
453.07	366.62
453.43	363.36
453.80	360.41
454.17	357.51
454.54	354.81
454.91	351.90
455.28	348.84
455.65	346.09
456.02	343.31
456.38	340.80
456.75	337.66
457.12	335.06
457.49	332.66
457.86	330.12
458.23	328.04
458.59	325.87
458.96	323.38
459.33	321.16
459.70	319.05
460.07	317.40
460.43	315.29
460.80	313.34
461.17	311.63
461.54	309.87
461.91	308.09
462.27	306.27
462.64	304.71
463.01	303.03
463.38	301.50
463.74	299.75
464.11	298.30
464.48	297.04
464.85	295.65
465.21	294.50
465.58	293.37
465.95	291.95
466.32	290.65
466.68	289.50
467.05	288.42
467.42	287.28
467.78	286.06
468.15	284.91
468.52	284.13
468.88	283.02
469.25	281.89
469.62	281.16
469.98	280.20
470.35	279.36
470.72	278.59
471.08	277.49
471.45	276.77
471.82	276.00
472.18	275.09
472.55	274.48
472.92	273.71
473.28	272.89
473.65	272.17
474.02	271.61
474.38	271.10
474.75	270.40
475.11	269.87
475.48	269.34
475.85	268.96
476.21	268.38
476.58	267.95
476.94	267.60
477.31	267.07
477.67	266.68
478.04	266.28
478.41	265.90
478.77	265.90
479.14	265.45
479.50	265.20
479.87	264.97
480.23	264.61
480.60	264.17
480.96	263.90
481.33	263.86
481.69	263.69
482.06	263.47
482.42	263.31
482.79	262.98
483.15	262.85
483.52	262.80
483.88	262.69
484.25	262.54
484.61	262.46
484.98	262.42
485.34	262.46
485.71	262.51
486.07	262.54
486.44	262.48
486.80	262.55
487.17	262.60
487.53	262.70
487.90	262.80
488.26	263.03
488.62	263.24
488.99	263.27
489.35	263.39
489.72	263.48
490.08	263.65
490.44	263.84
490.81	263.98
491.17	264.04
491.54	264.27
491.90	264.48
492.26	264.68
492.63	264.91
492.99	265.12
493.36	265.33
493.72	265.60
494.08	265.81
494.45	266.14
494.81	266.42
495.17	266.67
495.54	267.11
495.90	267.51
496.26	267.82
496.63	268.34
496.99	268.80
497.35	269.18
497.72	269.60
498.08	270.05
498.44	270.57
498.80	271.12
499.17	271.67
499.53	272.24
499.89	272.88
500.26	273.43
500.62	274.03
500.98	274.66
501.34	275.28
501.71	275.94
502.07	276.67
502.43	277.38
502.79	278.10
503.16	278.67
503.52	279.40
503.88	280.10
504.24	280.71
504.60	281.43
504.97	282.40
505.33	283.29
505.69	284.41
506.05	285.37
506.41	286.47
506.78	287.51
507.14	288.62
507.50	289.72
507.86	290.95
508.22	292.10
508.59	293.35
508.95	294.70
509.31	296.09
509.67	297.60
510.03	299.10
510.39	300.74
510.75	302.44
511.12	304.20
511.48	306.06
511.84	307.85
512.20	309.83
512.56	311.85
512.92	313.96
513.28	315.98
513.64	318.26
514.00	320.43
514.37	322.70
514.73	325.13
515.09	327.60
515.45	330.18
515.81	332.79
516.17	335.51
516.53	338.28
516.89	341.17
517.25	344.22
517.61	347.35
517.97	350.53
518.33	353.76
518.69	357.13
519.05	360.50
519.41	364.25
519.77	367.95
520.13	371.70
520.49	375.70
520.85	379.66
521.21	383.75
521.57	387.90
521.93	392.01
522.29	396.21
522.65	400.53
523.01	404.99
523.37	409.57
523.73	414.32
524.09	418.97
524.45	423.88
524.81	428.78
525.17	433.84
525.53	439.09
525.89	444.41
526.25	449.82
526.61	455.20
526.97	460.78
527.33	466.24
527.68	471.98
528.04	477.49
528.40	483.31
528.76	489.12
529.12	495.25
529.48	501.50
529.84	507.68
530.20	514.14
530.56	520.67
530.91	527.48
531.27	534.01
531.63	540.75
531.99	547.40
532.35	554.03
532.71	560.68
533.07	567.61
533.42	574.85
533.78	581.90
534.14	589.07
534.50	595.86
534.86	602.99
535.21	609.91
535.57	617.29
535.93	624.81
536.29	632.15
536.65	639.39
537.00	646.75
537.36	654.28
537.72	661.51
538.08	669.13
538.44	676.14
538.79	683.65
539.15	691.03
539.51	699.01
539.87	706.70
540.22	714.52
540.58	722.08
540.94	729.49
541.29	736.87
541.65	744.29
542.01	752.13
542.37	760.08
542.72	767.81
543.08	775.50
543.44	782.93
543.79	790.40
544.15	798.12
544.51	806.03
544.87	813.71
545.22	821.60
545.58	828.73
545.94	836.32
546.29	843.44
546.65	850.94
547.01	857.70
547.36	864.80
547.72	871.74
548.07	878.60
548.43	885.35
548.79	892.46
549.14	899.68
549.50	906.32
549.86	912.79
550.21	919.50
550.57	926.04
550.92	932.62
551.28	939.18
551.64	945.66
551.99	951.99
552.35	957.90
552.70	964.18
553.06	970.88
553.41	977.15
553.77	983.51
554.13	989.78
554.48	996.06
554.84	1002.17
555.19	1008.10
555.55	1014.29
555.90	1020.15
556.26	1025.93
556.61	1031.52
556.97	1037.37
557.32	1043.36
557.68	1048.88
558.03	1054.77
558.39	1060.42
558.74	1066.36
559.10	1071.74
559.45	1076.98
559.81	1083.00
560.16	1088.04
560.52	1092.96
560.87	1098.51
561.23	1103.63
561.58	1108.90
561.94	1113.75
562.29	1118.35
562.64	1122.99
563.00	1127.47
563.35	1132.56
563.71	1137.40
564.06	1141.86
564.42	1146.22
564.77	1150.64
565.12	1155.44
565.48	1159.65
565.83	1163.86
566.19	1167.55
566.54	1171.50
566.89	1175.29
567.25	1178.81
567.60	1183.10
567.96	1187.14
568.31	1190.42
568.66	1193.98
569.02	1197.11
569.37	1200.22
569.72	1203.84
570.08	1207.41
570.43	1210.95
570.78	1213.84
571.14	1216.50
571.49	1219.54
571.84	1222.56
572.20	1224.69
572.55	1226.52
572.90	1228.40
573.26	1230.45
573.61	1232.68
573.96	1234.77
574.31	1236.33
574.67	1237.90
575.02	1238.91
575.37	1240.03
575.72	1240.73
576.08	1241.99
576.43	1242.92
576.78	1244.27
577.13	1245.13
577.49	1245.94
577.84	1246.15
578.19	1246.70
578.54	1247.21
578.90	1247.03
579.25	1246.94
579.60	1247.29
579.95	1247.65
580.30	1247.71
580.66	1247.56
581.01	1246.87
581.36	1246.71
581.71	1246.92
582.06	1246.69
582.42	1246.31
582.77	1245.90
583.12	1245.93
583.47	1245.35
583.82	1245.20
584.17	1244.24
584.53	1243.56
584.88	1242.94
585.23	1242.28
585.58	1241.48
585.93	1240.97
586.28	1240.87
586.63	1240.23
586.98	1239.48
587.34	1238.55
587.69	1237.76
588.04	1236.89
588.39	1236.27
588.74	1234.25
589.09	1232.93
589.44	1231.27
589.79	1230.04
590.14	1228.93
590.49	1227.32
590.84	1225.69
591.19	1223.74
591.54	1221.97
591.89	1219.80
592.25	1217.80
592.60	1215.71
592.95	1213.30
593.30	1210.88
593.65	1208.17
594.00	1205.50
594.35	1203.58
594.70	1200.94
595.05	1198.63
595.40	1195.82
595.75	1193.22
596.10	1191.34
596.45	1189.14
596.80	1187.25
597.15	1184.91
597.50	1182.01
597.85	1179.95
598.19	1178.13
598.54	1176.00
598.89	1173.71
599.24	1171.82
599.59	1169.44
599.94	1167.19
600.29	1164.95
600.64	1162.08
600.99	1159.48
601.34	1157.34
601.69	1154.14
602.04	1151.66
602.39	1148.83
602.74	1146.71
603.08	1144.50
603.43	1142.10
603.78	1138.91
604.13	1135.91
604.48	1132.79
604.83	1130.06
605.18	1127.04
605.53	1123.30
605.87	1119.53
606.22	1116.55
606.57	1113.01
606.92	1110.01
607.27	1107.13
607.62	1104.38
607.96	1101.52
608.31	1098.73
608.66	1095.03
609.01	1091.75
609.36	1088.09
609.70	1084.32
610.05	1080.37
610.40	1076.35
610.75	1072.47
611.10	1068.87
611.44	1064.74
611.79	1061.21
612.14	1057.26
612.49	1052.99
612.83	1049.02
613.18	1045.44
613.53	1041.56
613.88	1037.47
614.22	1033.18
614.57	1028.70
614.92	1024.30
615.27	1020.29
615.61	1015.93
615.96	1012.10
616.31	1008.00
616.65	1004.60
617.00	1000.82
617.35	997.08
617.70	993.02
618.04	988.65
618.39	984.80
618.74	981.09
619.08	976.77
619.43	973.02
619.78	969.25
620.12	965.54
620.47	961.62
620.82	957.31
621.16	953.24
621.51	949.44
621.85	945.31
622.20	941.28
622.55	937.35
622.89	933.46
623.24	929.79
623.59	926.10
623.93	922.30
624.28	918.58
624.62	914.46
624.97	910.89
625.32	907.68
625.66	903.91
626.01	900.08
626.35	896.43
626.70	892.53
627.04	888.77
627.39	884.60
627.73	880.68
628.08	877.09
628.43	873.36
628.77	869.32
629.12	865.53
629.46	861.40
629.81	857.03
630.15	852.83
630.50	848.72
630.84	844.16
631.19	839.41
631.53	835.28
631.88	831.25
632.22	826.76
632.57	822.47
632.91	818.06
633.26	813.70
633.60	809.38
633.95	805.18
634.29	801.24
634.64	797.46
634.98	793.52
635.32	789.82
635.67	786.35
636.01	782.60
636.36	778.73
636.70	775.25
637.05	771.83
637.39	768.49
637.73	764.83
638.08	761.87
638.42	758.82
638.77	755.21
639.11	751.62
639.45	748.08
639.80	744.31
640.14	741.08
640.49	737.61
640.83	734.01
641.17	730.66
641.52	726.92
641.86	723.33
642.20	719.75
642.55	715.97
642.89	712.14
643.23	708.52
643.58	705.29
643.92	701.59
644.26	697.74
644.61	694.23
644.95	690.79
645.29	686.70
645.64	682.71
645.98	679.16
646.32	675.75
646.66	672.22
647.01	668.70
647.35	664.95
647.69	661.51
648.04	658.22
648.38	654.21
648.72	650.43
649.06	646.68
649.41	643.12
649.75	639.46
650.09	635.82
650.43	632.23
650.78	628.43
651.12	624.85
651.46	621.33
651.80	617.66
652.14	614.04
652.49	610.87
652.83	607.52
653.17	604.09
653.51	600.49
653.85	597.23
654.20	593.70
654.54	590.14
654.88	586.55
655.22	583.10
655.56	579.87
655.90	576.89
656.25	573.81
656.59	570.54
656.93	567.40
657.27	564.26
657.61	560.88
657.95	557.93
658.29	554.81
658.64	552.04
658.98	548.83
659.32	545.42
659.66	542.22
660.00	539.12
660.34	536.06
660.68	532.83
661.02	529.61
661.36	526.86
661.70	524.08
662.05	521.54
662.39	518.94
662.73	516.21
663.07	513.60
663.41	511.00
663.75	508.35
664.09	505.46
664.43	502.82
664.77	500.40
665.11	497.62
665.45	495.14
665.79	492.40
666.13	489.99
666.47	487.57
666.81	485.07
667.15	482.47
667.49	479.81
667.83	477.64
668.17	475.34
668.51	472.97
668.85	470.59
669.19	468.26
669.53	465.72
669.87	463.40
670.21	461.01
670.55	458.56
670.89	456.49
671.23	454.55
671.57	452.43
671.91	450.35
672.25	448.27
672.58	446.25
672.92	444.17
673.26	442.12
673.60	440.27
673.94	438.11
674.28	436.42
674.62	434.80
674.96	432.85
675.30	430.89
675.64	428.96
675.97	427.24
676.31	425.39
676.65	423.55
676.99	421.80
677.33	419.84
677.67	418.08
678.01	416.07
678.34	414.07
678.68	412.18
679.02	410.31
679.36	408.53
679.70	406.74
680.04	405.02
680.37	403.30
680.71	401.50
681.05	399.98
681.39	398.17
681.73	396.40
682.06	394.71
682.40	393.29
682.74	391.62
683.08	389.96
683.42	388.16
683.75	386.57
684.09	384.79
684.43	383.11
684.77	381.37
685.10	379.78
685.44	378.24
685.78	376.67
686.12	374.90
686.45	373.44
686.79	371.64
687.13	370.00
687.46	368.41
687.80	366.88
688.14	365.14
688.48	363.71
688.81	362.11
689.15	360.81
689.49	359.11
689.82	357.72
690.16	356.06
690.50	354.73
690.83	353.27
691.17	351.95
691.51	350.61
691.84	349.43
692.18	348.12
692.52	346.75
692.85	345.50
693.19	344.37
693.52	342.96
693.86	341.72
694.20	340.63
694.53	339.37
694.87	338.01
695.21	336.94
695.54	335.69
695.88	334.44
696.21	333.00
696.55	331.91
696.88	330.63
697.22	329.59
697.56	328.50
697.89	327.27
698.23	326.04
698.56	324.89
698.90	323.73
699.23	322.48
699.57	321.34
699.90	320.18
700.24	318.99
700.58	317.92
700.91	316.93
701.25	315.86
701.58	315.04
701.92	314.22
702.25	313.14
702.59	312.09
702.92	311.22
703.26	310.38
703.59	309.42
703.93	308.74
704.26	307.76
704.60	306.79
704.93	306.00
705.26	305.26
705.60	304.51
705.93	303.74
706.27	303.14
706.60	302.47
706.94	301.85
707.27	301.22
707.61	300.53
707.94	299.83
708.27	299.00
708.61	298.05
708.94	297.18
709.28	296.54
709.61	295.92
709.94	295.37
710.28	294.61
710.61	293.94
710.95	293.01
711.28	292.52
711.61	291.81
711.95	291.20
712.28	290.57
712.61	289.77
712.95	289.18
713.28	288.58
713.61	287.86
713.95	287.05
714.28	286.31
714.61	285.66
714.95	284.99
715.28	284.36
715.61	283.78
715.95	283.19
716.28	282.66
716.61	282.05
716.95	281.35
717.28	280.89
717.61	280.40
717.94	279.94
718.28	279.23
718.61	278.64
718.94	278.06
719.27	277.47
719.61	277.07
719.94	276.45
720.27	275.77
720.60	275.28
720.94	274.83
721.27	274.41
721.60	273.96
721.93	273.57
722.27	273.20
722.60	272.83
722.93	272.46
723.26	272.01
723.59	271.47
723.93	270.97
724.26	270.56
724.59	270.06
724.92	269.57
725.25	269.25
725.59	268.96
725.92	268.56
726.25	268.06
726.58	267.68
726.91	267.27
727.24	266.83
727.57	266.40
727.91	265.96
728.24	265.53
728.57	265.02
728.90	264.56
729.23	264.04
729.56	263.59
729.89	263.24
730.22	262.80
730.55	262.54
730.89	262.04
731.22	261.57
731.55	261.17
731.88	260.74
732.21	260.23
732.54	259.78
732.87	259.42
733.20	259.00
733.53	258.60
733.86	258.27
734.19	257.89
734.52	257.51
734.85	257.25
735.18	256.87
735.51	256.60
735.84	256.21
736.17	255.92
736.50	255.52
736.83	255.30
737.16	254.98
737.49	254.43
737.82	254.25
738.15	253.92
738.48	253.54
738.81	253.26
739.14	253.00
739.47	252.73
739.80	252.42
740.13	252.28
740.46	251.96
740.79	251.61
741.12	251.34
741.45	251.19
741.78	250.86
742.11	250.67
742.44	250.28
742.77	250.11
743.10	249.85
743.43	249.60
743.75	249.19
744.08	249.17
744.41	248.98
744.74	248.72
745.07	248.59
745.40	248.40
745.73	248.28
746.06	248.08
746.39	247.79
746.71	247.58
747.04	247.36
747.37	247.22
747.70	247.10
748.03	246.97
748.36	246.80
748.68	246.56
749.01	246.30
749.34	246.15
749.67	246.09
750.00	245.96
750.33	245.91
750.65	245.80
750.98	245.43
751.31	245.39
751.64	245.24
751.97	245.05
752.29	244.82
752.62	244.59
752.95	244.47
753.28	244.35
753.60	244.18
753.93	244.10
754.26	243.81
754.59	243.60
754.91	243.32
755.24	243.10
755.57	242.96
755.90	242.94
756.22	242.81
756.55	242.52
756.88	242.26
757.20	242.06
757.53	241.76
757.86	241.64
758.19	241.49
758.51	241.35
758.84	241.21
759.17	241.09
759.49	241.01
759.82	240.98
760.15	240.90
760.47	240.78
760.80	240.59
761.13	240.62
761.45	240.47
761.78	240.36
762.11	240.29
762.43	240.26
762.76	240.10
763.08	240.05
763.41	239.84
763.74	239.80
764.06	239.56
764.39	239.46
764.71	239.22
765.04	239.17
765.37	239.09
765.69	238.95
766.02	238.82
766.34	238.64
766.67	238.39
767.00	238.22
767.32	238.16
767.65	238.10
767.97	237.99
768.30	237.94
768.62	237.79
768.95	237.64
769.27	237.43
769.60	237.19
769.92	236.92
770.25	236.83
770.57	236.61
770.90	236.51
771.22	236.54
771.55	236.48
771.87	236.35
772.20	236.22
772.52	236.30
772.85	236.40
773.17	236.20
773.50	236.02
773.82	235.85
774.15	235.65
774.47	235.48
774.80	235.23
775.12	235.06
775.45	234.96
775.77	234.86
776.09	234.78
776.42	234.67
776.74	234.70
777.07	234.56
777.39	234.48
777.72	234.32
778.04	234.23
778.36	234.12
778.69	233.98
779.01	233.84
779.33	233.60
779.66	233.37
779.98	233.38
780.31	233.40
780.63	233.46
780.95	233.40
781.28	233.31
781.60	233.37
781.92	233.30
782.25	233.38
782.57	233.27
782.89	233.28
783.22	233.25
783.54	233.10
783.86	233.10
784.19	232.92
784.51	232.95
784.83	232.71
785.16	232.73
785.48	232.61
785.80	232.57
786.12	232.45
786.45	232.37
786.77	232.28
787.09	232.27
787.42	232.20
787.74	232.26
788.06	232.27
788.38	232.18
788.71	232.16
789.03	232.11
789.35	232.04
789.67	231.95
789.99	231.93
790.32	231.96
790.64	231.93
790.96	232.27
791.28	232.21
791.61	232.20
791.93	232.11
792.25	232.17
792.57	232.34
792.89	232.30
793.21	232.40
793.54	232.42
793.86	232.40
794.18	232.32
794.50	232.23
794.82	232.34
795.14	232.35
795.47	232.36
795.79	232.37
796.11	232.43
796.43	232.43
796.75	232.49
797.07	232.53
797.39	232.63
797.71	232.43
798.04	232.49
798.36	232.57
798.68	232.68
799.00	232.57
799.32	232.42
799.64	232.47
799.96	232.41
800.28	232.45
800.60	232.41
800.92	232.48
801.24	232.41
801.56	232.25
801.89	232.26
802.21	232.30
802.53	232.23
802.85	232.30
803.17	232.28
803.49	232.22
803.81	232.15
804.13	232.01
804.45	232.08
804.77	232.12
805.09	232.07
805.41	231.95
805.73	232.01
806.05	231.91
806.37	231.88
806.69	231.77
807.01	231.75
807.33	231.63
807.65	231.51
807.97	231.64
808.28	231.53
808.60	231.47
808.92	231.44
809.24	231.55
809.56	231.40
809.88	231.35
810.20	231.30
810.52	231.26
810.84	231.23
811.16	231.04
811.48	230.96
811.80	231.01
812.12	230.91
812.43	230.90
812.75	230.91
813.07	230.84
813.39	230.86
813.71	230.80
814.03	230.84
814.35	230.82
814.67	230.52
814.98	230.54
815.30	230.47
815.62	230.33
815.94	230.04
816.26	230.03
816.58	229.96
816.89	229.81
817.21	229.70
817.53	229.66
817.85	229.70
818.17	229.56
818.48	229.44
818.80	229.46
819.12	229.33
819.44	229.20
819.76	229.09
820.07	228.99
820.39	228.87
820.71	228.79
821.03	228.73
821.34	228.79
821.66	228.65
821.98	228.60
822.30	228.55
822.61	228.61
822.93	228.67
823.25	228.62
823.57	228.63
823.88	228.71
824.20	228.72
824.52	228.67
824.83	228.70
825.15	228.71
825.47	228.72
825.79	228.76
826.10	228.81
826.42	228.91
826.74	228.92
827.05	228.92
827.37	228.93
827.69	228.88
828.00	228.88
828.32	228.95
828.64	228.92
828.95	229.01
829.27	228.98
829.58	228.89
829.90	228.95
830.22	229.00
830.53	228.96
830.85	228.96
831.17	228.90
831.48	228.90
831.80	228.84
832.11	228.81
832.43	228.78
832.75	228.83
833.06	228.93
833.38	229.01
833.69	228.97
834.01	229.01
834.32	229.11
834.64	229.18
834.96	229.19
835.27	229.18
835.59	229.22
835.90	229.28
836.22	229.27
836.53	229.21
836.85	229.19
837.16	229.41
837.48	229.42
837.79	229.52
838.11	229.53
838.42	229.58
838.74	229.64
839.05	229.67
839.37	229.59
839.68	229.49
840.00	229.39
840.31	229.53
840.63	229.49
840.94	229.52
841.26	229.44
841.57	229.44
841.88	229.59
842.20	229.52
842.51	229.56
842.83	229.54
843.14	229.67
843.46	229.71
843.77	229.49
844.08	229.47
844.40	229.38
844.71	229.44
845.03	229.41
845.34	229.45
845.65	229.41
845.97	229.49
846.28	229.51
846.60	229.59
846.91	229.49
847.22	229.50
847.54	229.44
847.85	229.46
848.16	229.47
848.48	229.38
848.79	229.41
849.10	229.40
849.42	229.44
849.73	229.24
850.04	229.20
850.36	229.16
850.67	229.29
850.98	229.44
851.30	229.45
851.61	229.42
851.92	229.33
852.23	229.32
852.55	229.19
852.86	229.09
853.17	228.96
853.49	228.95
853.80	228.94
854.11	228.97
854.42	228.98
854.74	228.90
855.05	228.90
855.36	228.76
855.67	228.65
855.99	228.60
856.30	228.82
856.61	228.84
856.92	228.83
857.23	228.70
857.55	228.54
857.86	228.41
858.17	228.48
858.48	228.36
858.79	228.36
859.11	228.37
859.42	228.36
859.73	228.34
860.04	228.34
860.35	228.26
860.66	228.12
860.98	228.06
861.29	228.10
861.60	227.99
861.91	228.08
862.22	228.02
862.53	227.98
862.84	227.85
863.16	227.83
863.47	227.73
863.78	227.62
864.09	227.59
864.40	227.65
864.71	227.60
865.02	227.70
865.33	227.70
865.64	227.75
865.95	227.78
866.27	227.97
866.58	227.99
866.89	228.04
867.20	228.08
867.51	228.07
867.82	227.93
868.13	228.08
868.44	228.05
868.75	228.15
869.06	228.12
869.37	228.02
869.68	228.01
869.99	228.10
870.30	228.25
870.61	228.31
870.92	228.20
871.23	228.19
871.54	228.20
871.85	228.28
872.16	228.27
872.47	228.26
872.78	228.12
873.09	228.16
873.40	228.13
873.71	228.24
874.02	228.32
874.33	228.49
874.64	228.36
874.95	228.41
875.26	228.40
875.56	228.43
875.87	228.49
876.18	228.49
876.49	228.70
876.80	228.66
877.11	228.69
877.42	228.82
877.73	228.83
878.04	228.85
878.35	228.87
878.66	228.96
878.96	228.97
879.27	229.00
879.58	229.00
879.89	228.98
880.20	229.02
880.51	229.13
880.82	229.09
881.12	229.21
881.43	229.18
881.74	229.11
882.05	229.08
882.36	229.11
882.67	229.14
882.97	228.98
883.28	228.97
883.59	228.97
883.90	228.98
884.21	228.92
884.51	228.85
884.82	228.86
885.13	228.85
885.44	228.82
885.74	228.87
886.05	228.85
886.36	228.87
886.67	228.76
886.98	228.76
887.28	228.80
887.59	228.73
887.90	228.78
888.20	228.87
888.51	229.01
888.82	229.08
889.13	229.10
889.43	229.31
889.74	229.26
890.05	229.20
890.35	229.05
890.66	229.16
890.97	229.16
891.28	229.03
891.58	228.95
891.89	228.97
892.20	228.92
892.50	228.96
892.81	228.93
893.12	228.94
893.42	228.78
893.73	228.78
894.04	228.83
894.34	228.74
894.65	228.75
894.95	228.68
895.26	228.53
895.57	228.64
895.87	228.39
896.18	228.48
896.48	228.58
896.79	228.56
897.10	228.50
897.40	228.55
897.71	228.57
898.01	228.53
898.32	228.46
898.63	228.36
898.93	228.31
899.24	228.27
899.54	228.23
899.85	228.18
900.15	228.10
900.46	228.09
900.76	228.10
901.07	228.01
901.38	227.97
901.68	228.02
901.99	227.88
902.29	227.94
902.60	227.89
902.90	227.78
903.21	227.83
903.51	227.80
903.82	227.85
904.12	227.79
904.43	227.81
904.73	227.92
905.03	228.04
905.34	228.24
905.64	228.30
905.95	228.30
906.25	228.39
906.56	228.39
906.86	228.30
907.17	228.26
907.47	228.34
907.77	228.37
908.08	228.26
908.38	228.28
908.69	228.25
908.99	228.29
909.30	228.39
909.60	228.40
909.90	228.47
910.21	228.39
910.51	228.36
910.81	228.45
911.12	228.45
911.42	228.48
911.73	228.20
912.03	228.17
912.33	228.22
912.64	228.21
912.94	228.21
913.24	228.25
913.55	228.34
913.85	228.27
914.15	228.25
914.46	228.43
914.76	228.35
915.06	228.33
915.37	228.20
915.67	228.12
915.97	228.12
916.27	228.03
916.58	228.09
916.88	228.22
917.18	228.10
917.49	228.23
917.79	228.17
918.09	228.26
918.39	228.39
918.70	228.39
919.00	228.39
919.30	228.45
919.60	228.42
919.91	228.28
920.21	228.31
920.51	228.37
920.81	228.34
921.12	228.43
921.42	228.36
921.72	228.56
922.02	228.59
922.32	228.58
922.63	228.65
922.93	228.70
923.23	228.70
923.53	228.68
923.83	228.55
924.13	228.55
924.44	228.51
924.74	228.63
925.04	228.55
925.34	228.55
925.64	228.54
925.94	228.62
926.24	228.77
926.55	228.73
926.85	228.76
927.15	228.70
927.45	228.68
927.75	228.68
928.05	228.50
928.35	228.44
928.65	228.60
928.95	228.64
929.26	228.56
929.56	228.55
929.86	228.63
930.16	228.51
930.46	228.53
930.76	228.60
931.06	228.45
931.36	228.51
931.66	228.49
931.96	228.46
932.26	228.40
932.56	228.32
932.86	228.36
933.16	228.33
933.46	228.39
933.76	228.39
934.06	228.53
934.36	228.58
934.66	228.57
934.96	228.47
935.26	228.38
935.56	228.35
935.86	228.36
936.16	228.27
936.46	228.34
936.76	228.37
937.06	228.27
937.36	228.21
937.66	228.17
937.96	228.18
938.26	228.04
938.56	228.02
938.86	228.04
939.16	228.10
939.46	228.06
939.76	228.05
940.06	228.07
940.35	227.99
940.65	227.96
940.95	227.94
941.25	227.93
941.55	227.92
941.85	227.98
942.15	228.03
942.45	228.06
942.75	228.15
943.04	228.05
943.34	228.12
943.64	228.20
943.94	228.14
944.24	228.26
944.54	228.44
944.84	228.46
945.13	228.47
945.43	228.44
945.73	228.52
946.03	228.47
946.33	228.41
946.62	228.33
946.92	228.36
947.22	228.49
947.52	228.46
947.82	228.46
948.11	228.44
948.41	228.40
948.71	228.46
949.01	228.38
949.31	228.55
949.60	228.52
949.90	228.55
950.20	228.60
950.50	228.44
950.79	228.35
951.09	228.41
951.39	228.33
951.69	228.37
951.98	228.36
952.28	228.40
952.58	228.47
952.87	228.50
953.17	228.43
953.47	228.45
953.76	228.45
954.06	228.40
954.36	228.41
954.66	228.40
954.95	228.43
955.25	228.46
955.55	228.43
955.84	228.32
956.14	228.31
956.44	228.29
956.73	228.28
957.03	228.25
957.32	228.18
957.62	228.20
957.92	228.10
958.21	228.07
958.51	228.28
958.81	228.30
959.10	228.36
959.40	228.54
959.69	228.46
959.99	228.48
960.29	228.50
960.58	228.38
960.88	228.43
961.17	228.36
961.47	228.30
961.76	228.17
962.06	228.34
962.36	228.27
962.65	228.27
962.95	228.40
963.24	228.47
963.54	228.44
963.83	228.50
964.13	228.60
964.42	228.60
964.72	228.42
965.01	228.28
965.31	228.28
965.60	228.12
965.90	228.27
966.19	228.24
966.49	228.36
966.78	228.47
967.08	228.39
967.37	228.40
967.67	228.34
967.96	228.46
968.26	228.39
968.55	228.50
968.85	228.58
969.14	228.49
969.43	228.42
969.73	228.40
970.02	228.32
970.32	228.25
970.61	228.16
970.91	228.13
971.20	228.20
971.49	228.10
971.79	228.12
972.08	227.98
972.38	227.90
972.67	227.82
972.96	227.80
973.26	227.76
973.55	227.84
973.85	227.86
974.14	227.72
974.43	227.75
974.73	227.64
975.02	227.62
975.31	227.60
975.61	227.60
975.90	227.71
976.19	227.80
976.49	227.96
976.78	228.05
977.07	228.04
977.37	228.06
977.66	228.18
977.95	228.10
978.24	228.13
978.54	228.27
978.83	228.28
979.12	228.31
979.42	228.32
979.71	228.18
980.00	228.23
980.29	228.31
980.59	228.27
980.88	228.36
981.17	228.27
981.46	228.26
981.76	228.38
982.05	228.40
982.34	228.41
982.63	228.29
982.93	228.30
983.22	228.31
983.51	228.24
983.80	228.30
984.09	228.36
984.39	228.30
984.68	228.21
984.97	228.22
985.26	228.17
985.55	228.23
985.85	228.19
986.14	228.27
986.43	228.24
986.72	228.21
987.01	228.09
987.30	228.13
987.59	228.18
987.89	228.07
988.18	227.99
988.47	227.82
988.76	227.80
989.05	227.70
989.34	227.69
989.63	227.67
989.92	227.51
990.22	227.52
990.51	227.52
990.80	227.58
991.09	227.54
991.38	227.53
991.67	227.53
991.96	227.68
992.25	227.56
992.54	227.50
992.83	227.48
993.12	227.45
993.41	227.44
993.70	227.43
993.99	227.45
994.28	227.51
994.58	227.59
994.87	227.53
995.16	227.58
995.45	227.57
995.74	227.62
996.03	227.71
996.32	227.71
996.61	227.83
996.90	227.74
997.19	227.80
997.48	227.87
997.77	227.81
998.06	227.67
998.34	227.67
998.63	227.71
998.92	227.74
999.21	227.74
999.50	227.73
999.79	227.68
1000.08	227.73
1000.37	227.61
1000.66	227.63
1000.95	227.68
1001.24	227.61
1001.53	227.61
1001.82	227.62
1002.11	227.54
1002.40	227.68
1002.68	227.66
1002.97	227.83
1003.26	227.70
1003.55	227.68
1003.84	227.80
1004.13	227.95
1004.42	228.00
1004.71	227.95
1004.99	228.04
1005.28	228.16
1005.57	228.15
1005.86	228.20
1006.15	228.19
1006.44	228.18
1006.72	228.18
1007.01	228.12
1007.30	228.13
1007.59	228.13
1007.88	228.19
1008.17	228.22
1008.45	228.11
1008.74	228.03
1009.03	227.90
1009.32	228.03
1009.60	228.03
1009.89	227.94
1010.18	227.80
1010.47	227.81
1010.76	227.92
1011.04	227.79
1011.33	227.69
1011.62	227.87
1011.91	227.88
1012.19	227.86
1012.48	227.92
1012.77	228.00
1013.05	228.08
1013.34	228.20
1013.63	228.19
1013.92	228.13
1014.20	228.15
1014.49	228.20
1014.78	228.21
1015.06	228.19
1015.35	228.20
1015.64	228.29
1015.92	228.40
1016.21	228.52
1016.50	228.48
1016.78	228.57
1017.07	228.63
1017.36	228.80
1017.64	228.63
1017.93	228.61
1018.22	228.71
1018.50	228.70
1018.79	228.69
1019.08	228.70
1019.36	228.70
1019.65	228.70
1019.93	228.79
1020.22	228.90
1020.51	229.00
1020.79	229.08
1021.08	229.80
1021.36	227.50
1021.65	229.10
1021.94	229.10
1022.22	229.10
1022.51	228.00
1022.79	230.00
1023.08	230.30
1023.36	231.30
1023.65	229.40
>>>>>End Processed Spectral Data<<<<<
