SpectraSuite Data File
++++++++++++++++++++++++++++++++++++
Date: Fri Feb 01 14:35:52 EST 2013
User: group
Dark Spectrum Present: No
Reference Spectrum Present: No
Number of Sampled Component Spectra: 1
Spectrometers: USB2E7196
Integration Time (usec): 70000 (USB2E7196)
Spectra Averaged: 10 (USB2E7196)
Boxcar Smoothing: 10 (USB2E7196)
Correct for Electrical Dark: No (USB2E7196)
Strobe/Lamp Enabled: No (USB2E7196)
Correct for Detector Non-linearity: No (USB2E7196)
Correct for Stray Light: No (USB2E7196)
Number of Pixels in Processed Spectrum: 2048
>>>>>Begin Processed Spectral Data<<<<<
339.09	0.00
339.48	214.90
339.86	217.80
340.24	215.70
340.63	221.60
341.01	223.20
341.39	221.60
341.78	225.50
342.16	225.90
342.54	224.90
342.93	214.40
343.31	225.25
343.69	225.89
344.07	226.35
344.46	226.93
344.84	227.20
345.22	227.44
345.60	227.77
345.99	227.92
346.37	227.97
346.75	228.13
347.13	228.13
347.52	228.15
347.90	228.21
348.28	228.22
348.66	228.22
349.05	228.19
349.43	228.20
349.81	228.35
350.19	228.35
350.57	228.41
350.96	228.41
351.34	228.42
351.72	228.44
352.10	228.50
352.48	228.62
352.87	228.71
353.25	228.84
353.63	228.81
354.01	228.76
354.39	228.90
354.77	228.89
355.15	229.06
355.54	229.07
355.92	229.16
356.30	229.10
356.68	229.34
357.06	229.40
357.44	229.48
357.82	229.51
358.20	229.58
358.58	229.64
358.97	229.64
359.35	229.82
359.73	229.87
360.11	229.93
360.49	229.87
360.87	229.94
361.25	229.92
361.63	230.09
362.01	230.23
362.39	230.24
362.77	230.30
363.15	230.30
363.53	230.31
363.91	230.21
364.29	230.18
364.67	230.03
365.05	230.04
365.43	229.99
365.81	229.99
366.19	230.06
366.57	230.17
366.95	230.17
367.33	230.09
367.71	230.11
368.09	230.12
368.47	230.17
368.85	230.04
369.23	230.09
369.61	229.94
369.99	229.93
370.37	229.84
370.75	229.95
371.13	229.77
371.51	229.71
371.89	229.76
372.27	229.76
372.65	229.78
373.03	229.81
373.41	229.67
373.78	229.60
374.16	229.44
374.54	229.33
374.92	229.28
375.30	229.22
375.68	229.11
376.06	228.97
376.44	228.85
376.82	228.83
377.19	228.66
377.57	228.58
377.95	228.45
378.33	228.48
378.71	228.26
379.09	228.35
379.47	228.41
379.84	228.31
380.22	228.22
380.60	228.00
380.98	227.88
381.36	227.86
381.73	227.80
382.11	227.81
382.49	227.67
382.87	227.51
383.25	227.42
383.62	227.63
384.00	227.48
384.38	227.51
384.76	227.61
385.13	227.69
385.51	227.70
385.89	227.63
386.27	227.45
386.64	227.39
387.02	227.32
387.40	227.13
387.78	227.13
388.15	227.09
388.53	227.10
388.91	227.10
389.29	227.10
389.66	227.09
390.04	226.95
390.42	226.93
390.79	226.96
391.17	226.94
391.55	226.70
391.92	226.82
392.30	226.77
392.68	226.67
393.05	226.69
393.43	226.68
393.81	226.68
394.18	226.77
394.56	226.87
394.94	226.90
395.31	226.98
395.69	227.20
396.06	227.27
396.44	227.36
396.82	227.48
397.19	227.59
397.57	227.71
397.95	227.89
398.32	227.93
398.70	227.94
399.07	228.04
399.45	228.09
399.82	228.22
400.20	228.38
400.58	228.52
400.95	228.57
401.33	228.78
401.70	228.96
402.08	229.11
402.45	229.19
402.83	229.43
403.20	229.71
403.58	229.81
403.95	230.08
404.33	230.34
404.71	230.45
405.08	230.86
405.46	230.99
405.83	231.26
406.21	231.62
406.58	231.96
406.96	232.36
407.33	232.86
407.70	233.21
408.08	233.66
408.45	234.03
408.83	234.51
409.20	234.90
409.58	235.37
409.95	235.91
410.33	236.47
410.70	236.97
411.08	237.56
411.45	238.26
411.82	238.86
412.20	239.49
412.57	240.42
412.95	240.99
413.32	241.90
413.69	242.82
414.07	243.72
414.44	244.81
414.82	245.81
415.19	246.98
415.56	248.21
415.94	249.50
416.31	250.90
416.68	252.38
417.06	253.99
417.43	255.57
417.81	257.39
418.18	259.27
418.55	261.31
418.93	263.32
419.30	265.49
419.67	267.78
420.04	270.14
420.42	272.50
420.79	275.42
421.16	278.30
421.54	281.22
421.91	284.11
422.28	287.23
422.66	290.52
423.03	293.70
423.40	297.00
423.77	300.50
424.15	304.12
424.52	307.80
424.89	312.06
425.26	316.08
425.64	319.72
426.01	323.86
426.38	328.10
426.75	332.44
427.13	336.78
427.50	341.47
427.87	346.37
428.24	351.22
428.61	355.84
428.99	360.86
429.36	366.36
429.73	372.05
430.10	377.53
430.47	383.13
430.85	388.80
431.22	394.80
431.59	401.15
431.96	407.37
432.33	414.25
432.70	420.64
433.08	428.37
433.45	435.77
433.82	443.13
434.19	451.18
434.56	459.03
434.93	466.49
435.30	474.05
435.68	482.43
436.05	490.78
436.42	498.84
436.79	506.20
437.16	514.13
437.53	522.35
437.90	530.56
438.27	538.58
438.64	547.16
439.01	555.14
439.38	562.30
439.75	568.98
440.13	576.54
440.50	583.95
440.87	589.94
441.24	596.24
441.61	603.21
441.98	608.25
442.35	614.44
442.72	620.76
443.09	626.96
443.46	630.97
443.83	633.68
444.20	636.04
444.57	639.61
444.94	641.70
445.31	643.93
445.68	646.08
446.05	647.51
446.42	647.47
446.79	647.39
447.16	647.20
447.53	647.50
447.90	645.66
448.27	643.42
448.64	640.02
449.01	637.88
449.37	633.26
449.74	629.05
450.11	623.50
450.48	617.43
450.85	611.05
451.22	605.65
451.59	600.42
451.96	595.79
452.33	589.01
452.70	582.84
453.07	575.45
453.43	568.02
453.80	560.76
454.17	553.82
454.54	547.23
454.91	539.86
455.28	532.90
455.65	526.25
456.02	519.54
456.38	513.92
456.75	506.65
457.12	500.51
457.49	494.44
457.86	488.67
458.23	483.60
458.59	477.92
458.96	472.10
459.33	467.20
459.70	462.17
460.07	458.09
460.43	453.30
460.80	448.63
461.17	444.58
461.54	440.44
461.91	436.31
462.27	432.29
462.64	428.89
463.01	424.74
463.38	420.88
463.74	417.41
464.11	414.10
464.48	411.18
464.85	408.20
465.21	405.66
465.58	403.01
465.95	399.98
466.32	397.47
466.68	394.86
467.05	392.29
467.42	389.72
467.78	387.05
468.15	384.55
468.52	382.63
468.88	380.12
469.25	377.88
469.62	376.28
469.98	374.11
470.35	372.23
470.72	370.57
471.08	368.73
471.45	366.88
471.82	365.10
472.18	363.31
472.55	361.80
472.92	360.30
473.28	358.71
473.65	357.15
474.02	355.65
474.38	354.42
474.75	353.39
475.11	352.27
475.48	351.38
475.85	350.55
476.21	349.69
476.58	348.99
476.94	348.52
477.31	347.67
477.67	347.12
478.04	346.60
478.41	346.03
478.77	345.51
479.14	344.88
479.50	344.59
479.87	344.36
480.23	344.20
480.60	343.83
480.96	343.68
481.33	343.79
481.69	343.88
482.06	343.76
482.42	343.53
482.79	343.57
483.15	343.72
483.52	344.15
483.88	344.46
484.25	344.67
484.61	344.87
484.98	345.35
485.34	345.82
485.71	346.36
486.07	347.10
486.44	347.63
486.80	348.48
487.17	349.14
487.53	350.04
487.90	350.90
488.26	351.99
488.62	353.11
488.99	354.22
489.35	355.26
489.72	356.51
490.08	357.81
490.44	358.88
490.81	360.30
491.17	361.48
491.54	362.94
491.90	364.24
492.26	365.78
492.63	367.17
492.99	368.73
493.36	370.33
493.72	371.98
494.08	373.70
494.45	375.48
494.81	377.40
495.17	379.21
495.54	381.16
495.90	383.08
496.26	384.92
496.63	386.73
496.99	388.79
497.35	390.87
497.72	393.03
498.08	395.25
498.44	397.33
498.80	399.65
499.17	401.75
499.53	404.12
499.89	406.36
500.26	408.67
500.62	410.77
500.98	413.07
501.34	415.23
501.71	417.50
502.07	419.65
502.43	421.82
502.79	423.91
503.16	425.94
503.52	427.96
503.88	429.97
504.24	432.03
504.60	433.97
504.97	435.93
505.33	437.94
505.69	439.91
506.05	441.79
506.41	443.41
506.78	445.13
507.14	446.81
507.50	448.46
507.86	449.97
508.22	451.67
508.59	453.06
508.95	454.71
509.31	456.26
509.67	457.69
510.03	458.93
510.39	460.47
510.75	461.77
511.12	463.10
511.48	464.40
511.84	465.64
512.20	466.63
512.56	467.99
512.92	469.01
513.28	470.11
513.64	471.08
514.00	472.08
514.37	473.16
514.73	474.13
515.09	474.77
515.45	475.61
515.81	476.24
516.17	476.99
516.53	477.57
516.89	478.22
517.25	478.79
517.61	479.62
517.97	479.93
518.33	480.22
518.69	480.57
519.05	481.10
519.41	481.57
519.77	482.35
520.13	482.74
520.49	483.09
520.85	483.73
521.21	484.20
521.57	484.83
521.93	485.18
522.29	485.56
522.65	486.08
523.01	486.61
523.37	487.28
523.73	487.86
524.09	488.29
524.45	488.70
524.81	489.43
525.17	490.09
525.53	491.15
525.89	492.10
526.25	493.13
526.61	493.80
526.97	494.63
527.33	495.48
527.68	496.51
528.04	497.61
528.40	498.56
528.76	499.90
529.12	501.28
529.48	502.68
529.84	503.96
530.20	505.34
530.56	506.86
530.91	508.50
531.27	510.05
531.63	511.88
531.99	513.70
532.35	515.30
532.71	516.91
533.07	518.55
533.42	520.50
533.78	522.40
534.14	524.60
534.50	526.70
534.86	528.84
535.21	530.87
535.57	533.11
535.93	535.19
536.29	537.30
536.65	539.43
537.00	541.73
537.36	544.24
537.72	546.86
538.08	549.48
538.44	551.86
538.79	554.46
539.15	557.09
539.51	559.86
539.87	562.91
540.22	565.82
540.58	568.87
540.94	572.00
541.29	574.94
541.65	577.95
542.01	581.11
542.37	584.37
542.72	587.34
543.08	590.73
543.44	594.13
543.79	597.20
544.15	600.67
544.51	604.43
544.87	607.97
545.22	611.53
545.58	614.89
545.94	618.21
546.29	621.94
546.65	625.43
547.01	629.13
547.36	632.47
547.72	636.00
548.07	639.44
548.43	642.71
548.79	646.29
549.14	649.85
549.50	653.33
549.86	656.59
550.21	660.30
550.57	663.87
550.92	667.45
551.28	671.07
551.64	674.44
551.99	677.96
552.35	681.68
552.70	685.18
553.06	689.10
553.41	692.98
553.77	696.69
554.13	700.24
554.48	703.82
554.84	707.83
555.19	711.54
555.55	715.42
555.90	719.05
556.26	722.71
556.61	726.19
556.97	729.73
557.32	733.77
557.68	737.56
558.03	741.37
558.39	745.03
558.74	748.95
559.10	752.92
559.45	756.22
559.81	760.03
560.16	763.55
560.52	766.79
560.87	770.28
561.23	773.60
561.58	777.23
561.94	780.67
562.29	783.84
562.64	787.36
563.00	790.70
563.35	794.59
563.71	798.25
564.06	801.98
564.42	805.43
564.77	808.65
565.12	811.99
565.48	815.13
565.83	818.09
566.19	821.41
566.54	824.19
566.89	827.41
567.25	830.20
567.60	833.52
567.96	836.80
568.31	840.00
568.66	842.86
569.02	845.59
569.37	848.24
569.72	850.75
570.08	852.98
570.43	855.30
570.78	857.38
571.14	859.45
571.49	861.58
571.84	864.06
572.20	866.11
572.55	868.00
572.90	869.81
573.26	872.05
573.61	874.05
573.96	876.02
574.31	877.42
574.67	878.76
575.02	879.87
575.37	881.02
575.72	881.96
576.08	883.22
576.43	884.66
576.78	886.04
577.13	887.49
577.49	888.88
577.84	890.09
578.19	891.16
578.54	892.23
578.90	893.24
579.25	893.91
579.60	894.81
579.95	895.33
580.30	895.87
580.66	896.23
581.01	896.33
581.36	896.71
581.71	897.59
582.06	898.24
582.42	898.76
582.77	898.89
583.12	899.39
583.47	899.66
583.82	899.88
584.17	899.70
584.53	899.64
584.88	899.74
585.23	899.41
585.58	899.40
585.93	899.24
586.28	899.21
586.63	899.16
586.98	898.95
587.34	899.14
587.69	899.08
588.04	898.77
588.39	898.42
588.74	897.56
589.09	896.82
589.44	895.97
589.79	895.22
590.14	894.86
590.49	894.20
590.84	893.30
591.19	892.54
591.54	891.50
591.89	890.20
592.25	889.23
592.60	888.03
592.95	886.64
593.30	885.45
593.65	883.59
594.00	882.10
594.35	881.29
594.70	879.34
595.05	877.81
595.40	876.36
595.75	874.93
596.10	873.84
596.45	872.49
596.80	871.56
597.15	870.23
597.50	868.65
597.85	867.23
598.19	865.88
598.54	864.43
598.89	863.36
599.24	862.39
599.59	860.80
599.94	859.62
600.29	858.20
600.64	856.56
600.99	855.10
601.34	853.35
601.69	850.93
602.04	849.65
602.39	847.94
602.74	846.68
603.08	845.14
603.43	843.71
603.78	842.02
604.13	839.82
604.48	838.11
604.83	836.43
605.18	834.37
605.53	832.30
605.87	829.85
606.22	827.78
606.57	825.68
606.92	823.49
607.27	821.73
607.62	819.93
607.96	818.20
608.31	816.50
608.66	814.79
609.01	812.60
609.36	810.27
609.70	807.78
610.05	805.04
610.40	802.61
610.75	800.11
611.10	797.46
611.44	794.70
611.79	792.16
612.14	789.70
612.49	786.94
612.83	784.50
613.18	782.00
613.53	779.52
613.88	776.63
614.22	774.24
614.57	771.41
614.92	768.63
615.27	765.88
615.61	762.89
615.96	760.09
616.31	757.61
616.65	755.35
617.00	753.15
617.35	750.70
617.70	747.88
618.04	745.00
618.39	742.41
618.74	740.02
619.08	737.38
619.43	734.62
619.78	732.27
620.12	729.74
620.47	727.35
620.82	724.61
621.16	722.52
621.51	719.91
621.85	717.06
622.20	714.24
622.55	711.60
622.89	709.26
623.24	706.59
623.59	704.03
623.93	701.41
624.28	698.74
624.62	696.34
624.97	694.12
625.32	691.49
625.66	689.03
626.01	686.52
626.35	684.05
626.70	681.33
627.04	678.82
627.39	676.16
627.73	673.69
628.08	671.12
628.43	668.20
628.77	665.56
629.12	662.86
629.46	660.30
629.81	657.48
630.15	654.71
630.50	652.13
630.84	649.19
631.19	646.15
631.53	643.30
631.88	640.20
632.22	636.97
632.57	634.60
632.91	631.95
633.26	629.30
633.60	626.27
633.95	623.76
634.29	621.11
634.64	618.70
634.98	615.83
635.32	613.29
635.67	610.82
636.01	608.47
636.36	605.98
636.70	603.61
637.05	601.24
637.39	598.92
637.73	596.36
638.08	594.45
638.42	592.29
638.77	590.12
639.11	587.78
639.45	585.57
639.80	583.16
640.14	580.65
640.49	578.09
640.83	576.00
641.17	573.46
641.52	570.96
641.86	568.31
642.20	566.03
642.55	563.57
642.89	561.24
643.23	558.63
643.58	556.57
643.92	554.14
644.26	551.69
644.61	549.38
644.95	546.99
645.29	544.09
645.64	541.50
645.98	538.99
646.32	536.74
646.66	534.22
647.01	531.74
647.35	529.48
647.69	527.26
648.04	524.88
648.38	522.71
648.72	520.14
649.06	517.74
649.41	515.39
649.75	512.94
650.09	510.53
650.43	508.20
650.78	505.73
651.12	503.37
651.46	501.25
651.80	498.82
652.14	496.66
652.49	494.58
652.83	492.44
653.17	490.00
653.51	487.73
653.85	485.73
654.20	483.50
654.54	480.92
654.88	478.59
655.22	476.27
655.56	473.85
655.90	471.84
656.25	469.87
656.59	467.57
656.93	465.68
657.27	463.53
657.61	461.18
657.95	459.01
658.29	456.87
658.64	454.51
658.98	452.29
659.32	450.00
659.66	448.10
660.00	445.95
660.34	444.02
660.68	441.95
661.02	439.80
661.36	437.91
661.70	436.14
662.05	434.53
662.39	432.83
662.73	431.16
663.07	429.48
663.41	427.65
663.75	425.99
664.09	424.07
664.43	422.10
664.77	420.77
665.11	419.11
665.45	417.53
665.79	416.10
666.13	414.56
666.47	412.99
666.81	410.97
667.15	409.28
667.49	407.80
667.83	406.36
668.17	404.75
668.51	403.03
668.85	401.50
669.19	399.80
669.53	398.18
669.87	396.66
670.21	394.98
670.55	393.42
670.89	392.05
671.23	390.62
671.57	389.40
671.91	387.80
672.25	386.29
672.58	384.95
672.92	383.40
673.26	382.06
673.60	380.70
673.94	379.59
674.28	378.32
674.62	376.90
674.96	375.57
675.30	374.40
675.64	373.18
675.97	372.01
676.31	370.76
676.65	369.59
676.99	368.34
677.33	367.10
677.67	365.92
678.01	364.54
678.34	363.20
678.68	361.94
679.02	360.61
679.36	359.57
679.70	358.25
680.04	357.03
680.37	355.71
680.71	354.66
681.05	353.77
681.39	352.73
681.73	351.52
682.06	350.26
682.40	349.25
682.74	348.09
683.08	346.89
683.42	345.71
683.75	344.47
684.09	343.16
684.43	342.10
684.77	340.81
685.10	339.67
685.44	338.61
685.78	337.50
686.12	336.46
686.45	335.19
686.79	334.09
687.13	333.04
687.46	332.01
687.80	330.79
688.14	329.48
688.48	328.39
688.81	327.39
689.15	326.42
689.49	325.19
689.82	324.27
690.16	323.19
690.50	322.19
690.83	321.19
691.17	320.26
691.51	319.34
691.84	318.56
692.18	317.61
692.52	316.68
692.85	315.71
693.19	314.73
693.52	313.89
693.86	312.89
694.20	312.00
694.53	311.07
694.87	310.21
695.21	309.38
695.54	308.40
695.88	307.45
696.21	306.52
696.55	305.85
696.88	305.05
697.22	304.32
697.56	303.55
697.89	302.77
698.23	302.04
698.56	301.19
698.90	300.34
699.23	299.60
699.57	298.71
699.90	297.88
700.24	297.07
700.58	296.36
700.91	295.58
701.25	294.94
701.58	294.30
701.92	293.60
702.25	292.80
702.59	292.19
702.92	291.53
703.26	290.90
703.59	290.25
703.93	289.50
704.26	288.83
704.60	288.03
704.93	287.43
705.26	286.77
705.60	286.22
705.93	285.63
706.27	285.05
706.60	284.65
706.94	284.29
707.27	283.61
707.61	283.02
707.94	282.61
708.27	281.93
708.61	281.42
708.94	280.97
709.28	280.46
709.61	279.93
709.94	279.57
710.28	279.12
710.61	278.51
710.95	277.85
711.28	277.50
711.61	277.10
711.95	276.61
712.28	276.10
712.61	275.62
712.95	275.02
713.28	274.67
713.61	274.04
713.95	273.41
714.28	273.14
714.61	272.66
714.95	272.20
715.28	271.69
715.61	271.10
715.95	270.65
716.28	270.16
716.61	269.69
716.95	269.20
717.28	268.81
717.61	268.40
717.94	268.08
718.28	267.58
718.61	267.14
718.94	266.70
719.27	266.21
719.61	265.74
719.94	265.48
720.27	265.00
720.60	264.72
720.94	264.42
721.27	264.06
721.60	263.75
721.93	263.35
722.27	263.14
722.60	262.95
722.93	262.46
723.26	262.17
723.59	261.83
723.93	261.53
724.26	261.13
724.59	260.72
724.92	260.39
725.25	260.04
725.59	259.73
725.92	259.43
726.25	259.13
726.58	258.86
726.91	258.60
727.24	258.23
727.57	257.91
727.91	257.52
728.24	257.22
728.57	256.81
728.90	256.57
729.23	256.16
729.56	255.77
729.89	255.43
730.22	255.08
730.55	254.85
730.89	254.50
731.22	254.21
731.55	253.90
731.88	253.60
732.21	253.28
732.54	252.92
732.87	252.59
733.20	252.35
733.53	252.14
733.86	251.82
734.19	251.54
734.52	251.22
734.85	251.11
735.18	250.81
735.51	250.62
735.84	250.35
736.17	250.24
736.50	250.01
736.83	250.01
737.16	249.94
737.49	249.63
737.82	249.34
738.15	249.17
738.48	249.08
738.81	248.92
739.14	248.62
739.47	248.55
739.80	248.45
740.13	248.36
740.46	248.10
740.79	247.83
741.12	247.65
741.45	247.57
741.78	247.29
742.11	247.26
742.44	246.94
742.77	246.81
743.10	246.55
743.43	246.21
743.75	245.85
744.08	245.77
744.41	245.60
744.74	245.48
745.07	245.30
745.40	245.14
745.73	245.04
746.06	244.91
746.39	244.76
746.71	244.63
747.04	244.43
747.37	244.28
747.70	244.21
748.03	244.10
748.36	243.96
748.68	243.92
749.01	243.65
749.34	243.60
749.67	243.48
750.00	243.51
750.33	243.65
750.65	243.61
750.98	243.30
751.31	243.30
751.64	243.18
751.97	243.07
752.29	242.96
752.62	242.76
752.95	242.67
753.28	242.58
753.60	242.35
753.93	242.22
754.26	242.13
754.59	242.00
754.91	241.85
755.24	241.66
755.57	241.44
755.90	241.31
756.22	241.15
756.55	240.95
756.88	240.59
757.20	240.41
757.53	240.16
757.86	239.99
758.19	239.85
758.51	239.60
758.84	239.29
759.17	239.00
759.49	238.90
759.82	238.83
760.15	238.70
760.47	238.65
760.80	238.52
761.13	238.40
761.45	238.22
761.78	238.05
762.11	237.96
762.43	237.80
762.76	237.68
763.08	237.60
763.41	237.44
763.74	237.40
764.06	237.22
764.39	237.23
764.71	237.12
765.04	236.93
765.37	236.91
765.69	236.92
766.02	236.90
766.34	236.80
766.67	236.69
767.00	236.60
767.32	236.47
767.65	236.43
767.97	236.25
768.30	236.17
768.62	236.09
768.95	235.94
769.27	235.83
769.60	235.65
769.92	235.49
770.25	235.47
770.57	235.28
770.90	235.10
771.22	234.96
771.55	234.98
771.87	234.87
772.20	234.75
772.52	234.65
772.85	234.80
773.17	234.70
773.50	234.60
773.82	234.39
774.15	234.30
774.47	234.12
774.80	234.05
775.12	233.88
775.45	233.73
775.77	233.64
776.09	233.51
776.42	233.56
776.74	233.60
777.07	233.46
777.39	233.44
777.72	233.43
778.04	233.32
778.36	233.17
778.69	233.18
779.01	233.10
779.33	233.00
779.66	232.75
779.98	232.68
780.31	232.62
780.63	232.69
780.95	232.66
781.28	232.60
781.60	232.69
781.92	232.62
782.25	232.66
782.57	232.72
782.89	232.82
783.22	232.76
783.54	232.70
783.86	232.64
784.19	232.68
784.51	232.70
784.83	232.68
785.16	232.68
785.48	232.65
785.80	232.71
786.12	232.71
786.45	232.64
786.77	232.63
787.09	232.57
787.42	232.52
787.74	232.51
788.06	232.42
788.38	232.42
788.71	232.50
789.03	232.68
789.35	232.65
789.67	232.54
789.99	232.52
790.32	232.48
790.64	232.64
790.96	232.69
791.28	232.60
791.61	232.56
791.93	232.50
792.25	232.39
792.57	232.45
792.89	232.41
793.21	232.50
793.54	232.50
793.86	232.46
794.18	232.44
794.50	232.41
794.82	232.49
795.14	232.39
795.47	232.44
795.79	232.24
796.11	232.18
796.43	232.13
796.75	232.17
797.07	232.13
797.39	231.97
797.71	231.81
798.04	231.80
798.36	231.80
798.68	231.86
799.00	231.90
799.32	231.80
799.64	231.87
799.96	231.73
800.28	231.72
800.60	231.59
800.92	231.58
801.24	231.50
801.56	231.47
801.89	231.44
802.21	231.32
802.53	231.29
802.85	231.18
803.17	231.23
803.49	231.17
803.81	231.05
804.13	231.03
804.45	231.07
804.77	230.98
805.09	230.93
805.41	230.76
805.73	230.67
806.05	230.69
806.37	230.59
806.69	230.49
807.01	230.44
807.33	230.50
807.65	230.34
807.97	230.31
808.28	230.16
808.60	230.06
808.92	229.98
809.24	230.03
809.56	229.99
809.88	229.90
810.20	229.82
810.52	229.87
810.84	229.75
811.16	229.66
811.48	229.67
811.80	229.63
812.12	229.62
812.43	229.69
812.75	229.61
813.07	229.60
813.39	229.68
813.71	229.55
814.03	229.43
814.35	229.42
814.67	229.42
814.98	229.45
815.30	229.50
815.62	229.56
815.94	229.38
816.26	229.52
816.58	229.42
816.89	229.46
817.21	229.51
817.53	229.52
817.85	229.48
818.17	229.49
818.48	229.49
818.80	229.60
819.12	229.56
819.44	229.46
819.76	229.36
820.07	229.28
820.39	229.31
820.71	229.42
821.03	229.44
821.34	229.50
821.66	229.53
821.98	229.50
822.30	229.44
822.61	229.58
822.93	229.47
823.25	229.49
823.57	229.44
823.88	229.37
824.20	229.39
824.52	229.54
824.83	229.54
825.15	229.56
825.47	229.50
825.79	229.51
826.10	229.51
826.42	229.58
826.74	229.67
827.05	229.66
827.37	229.66
827.69	229.60
828.00	229.55
828.32	229.50
828.64	229.54
828.95	229.63
829.27	229.58
829.58	229.67
829.90	229.65
830.22	229.65
830.53	229.60
830.85	229.61
831.17	229.45
831.48	229.52
831.80	229.58
832.11	229.55
832.43	229.60
832.75	229.64
833.06	229.76
833.38	229.66
833.69	229.68
834.01	229.75
834.32	229.71
834.64	229.69
834.96	229.77
835.27	229.74
835.59	229.61
835.90	229.55
836.22	229.43
836.53	229.45
836.85	229.53
837.16	229.70
837.48	229.69
837.79	229.80
838.11	229.68
838.42	229.66
838.74	229.63
839.05	229.51
839.37	229.50
839.68	229.34
840.00	229.40
840.31	229.39
840.63	229.36
840.94	229.32
841.26	229.20
841.57	229.09
841.88	229.03
842.20	229.10
842.51	229.11
842.83	229.04
843.14	229.20
843.46	228.98
843.77	228.89
844.08	228.79
844.40	228.68
844.71	228.63
845.03	228.53
845.34	228.47
845.65	228.48
845.97	228.45
846.28	228.41
846.60	228.37
846.91	228.30
847.22	228.20
847.54	228.24
847.85	228.30
848.16	228.42
848.48	228.28
848.79	228.27
849.10	228.32
849.42	228.39
849.73	228.32
850.04	228.40
850.36	228.29
850.67	228.36
850.98	228.42
851.30	228.43
851.61	228.46
851.92	228.50
852.23	228.38
852.55	228.36
852.86	228.45
853.17	228.45
853.49	228.52
853.80	228.48
854.11	228.56
854.42	228.65
854.74	228.51
855.05	228.57
855.36	228.44
855.67	228.40
855.99	228.42
856.30	228.53
856.61	228.49
856.92	228.51
857.23	228.45
857.55	228.29
857.86	228.29
858.17	228.24
858.48	228.30
858.79	228.32
859.11	228.37
859.42	228.29
859.73	228.27
860.04	228.27
860.35	228.25
860.66	228.10
860.98	228.04
861.29	228.09
861.60	228.15
861.91	228.22
862.22	228.18
862.53	228.09
862.84	227.92
863.16	228.10
863.47	228.17
863.78	228.13
864.09	228.24
864.40	228.27
864.71	228.40
865.02	228.43
865.33	228.56
865.64	228.50
865.95	228.48
866.27	228.54
866.58	228.53
866.89	228.59
867.20	228.68
867.51	228.72
867.82	228.73
868.13	228.73
868.44	228.76
868.75	228.86
869.06	228.90
869.37	228.92
869.68	228.89
869.99	228.94
870.30	229.04
870.61	229.11
870.92	229.18
871.23	229.13
871.54	229.16
871.85	229.17
872.16	229.29
872.47	229.35
872.78	229.41
873.09	229.40
873.40	229.45
873.71	229.56
874.02	229.54
874.33	229.53
874.64	229.53
874.95	229.52
875.26	229.47
875.56	229.54
875.87	229.56
876.18	229.47
876.49	229.64
876.80	229.63
877.11	229.55
877.42	229.53
877.73	229.42
878.04	229.37
878.35	229.31
878.66	229.30
878.96	229.30
879.27	229.17
879.58	229.18
879.89	229.11
880.20	229.02
880.51	229.01
880.82	229.00
881.12	228.95
881.43	228.90
881.74	228.78
882.05	228.70
882.36	228.66
882.67	228.69
882.97	228.46
883.28	228.51
883.59	228.46
883.90	228.35
884.21	228.39
884.51	228.31
884.82	228.21
885.13	228.12
885.44	228.03
885.74	228.09
886.05	227.99
886.36	228.04
886.67	227.94
886.98	228.03
887.28	227.95
887.59	227.98
887.90	228.04
888.20	228.06
888.51	227.97
888.82	227.83
889.13	227.77
889.43	227.93
889.74	227.79
890.05	227.87
890.35	227.86
890.66	227.93
890.97	227.88
891.28	227.84
891.58	227.84
891.89	227.85
892.20	227.69
892.50	227.66
892.81	227.43
893.12	227.36
893.42	227.12
893.73	227.20
894.04	227.18
894.34	227.17
894.65	227.18
894.95	227.23
895.26	227.35
895.57	227.46
895.87	227.20
896.18	227.26
896.48	227.14
896.79	227.22
897.10	227.14
897.40	227.19
897.71	227.37
898.01	227.32
898.32	227.39
898.63	227.50
898.93	227.62
899.24	227.75
899.54	227.88
899.85	227.95
900.15	227.92
900.46	227.87
900.76	227.86
901.07	227.92
901.38	227.99
901.68	228.01
901.99	227.89
902.29	227.98
902.60	228.00
902.90	228.00
903.21	227.95
903.51	228.02
903.82	228.13
904.12	228.11
904.43	228.35
904.73	228.30
905.03	228.27
905.34	228.53
905.64	228.58
905.95	228.70
906.25	228.75
906.56	228.84
906.86	229.02
907.17	229.03
907.47	229.10
907.77	229.15
908.08	229.18
908.38	229.25
908.69	229.30
908.99	229.26
909.30	229.34
909.60	229.43
909.90	229.45
910.21	229.41
910.51	229.42
910.81	229.25
911.12	229.33
911.42	229.40
911.73	229.08
912.03	229.14
912.33	229.04
912.64	229.06
912.94	229.07
913.24	228.93
913.55	228.97
913.85	228.98
914.15	229.00
914.46	228.98
914.76	228.92
915.06	228.89
915.37	229.01
915.67	229.04
915.97	228.98
916.27	228.94
916.58	228.94
916.88	228.88
917.18	228.90
917.49	228.99
917.79	229.01
918.09	229.02
918.39	229.00
918.70	229.10
919.00	229.10
919.30	229.16
919.60	229.25
919.91	229.14
920.21	229.12
920.51	229.12
920.81	229.16
921.12	229.18
921.42	229.10
921.72	229.03
922.02	228.92
922.32	229.07
922.63	229.01
922.93	229.00
923.23	228.95
923.53	228.83
923.83	228.69
924.13	228.53
924.44	228.49
924.74	228.49
925.04	228.40
925.34	228.26
925.64	228.09
925.94	227.91
926.24	228.03
926.55	227.91
926.85	227.83
927.15	227.78
927.45	227.81
927.75	227.83
928.05	227.84
928.35	227.81
928.65	227.67
928.95	227.67
929.26	227.53
929.56	227.57
929.86	227.62
930.16	227.53
930.46	227.61
930.76	227.52
931.06	227.49
931.36	227.38
931.66	227.50
931.96	227.50
932.26	227.52
932.56	227.46
932.86	227.50
933.16	227.45
933.46	227.30
933.76	227.28
934.06	227.28
934.36	227.27
934.66	227.33
934.96	227.42
935.26	227.44
935.56	227.59
935.86	227.60
936.16	227.60
936.46	227.56
936.76	227.52
937.06	227.68
937.36	227.60
937.66	227.69
937.96	227.68
938.26	227.70
938.56	227.76
938.86	227.72
939.16	227.77
939.46	227.82
939.76	227.87
940.06	227.90
940.35	227.90
940.65	227.82
940.95	227.87
941.25	227.78
941.55	227.78
941.85	227.70
942.15	227.80
942.45	227.90
942.75	228.03
943.04	228.06
943.34	228.07
943.64	228.16
943.94	228.20
944.24	228.22
944.54	228.26
944.84	228.25
945.13	228.32
945.43	228.25
945.73	228.31
946.03	228.42
946.33	228.43
946.62	228.49
946.92	228.55
947.22	228.59
947.52	228.60
947.82	228.69
948.11	228.83
948.41	228.80
948.71	228.63
949.01	228.67
949.31	228.72
949.60	228.73
949.90	228.72
950.20	228.62
950.50	228.57
950.79	228.58
951.09	228.59
951.39	228.58
951.69	228.64
951.98	228.60
952.28	228.56
952.58	228.63
952.87	228.65
953.17	228.75
953.47	228.68
953.76	228.62
954.06	228.46
954.36	228.30
954.66	228.25
954.95	228.43
955.25	228.40
955.55	228.29
955.84	228.28
956.14	228.29
956.44	228.38
956.73	228.42
957.03	228.31
957.32	228.37
957.62	228.37
957.92	228.31
958.21	228.30
958.51	228.47
958.81	228.43
959.10	228.44
959.40	228.39
959.69	228.36
959.99	228.43
960.29	228.47
960.58	228.41
960.88	228.38
961.17	228.31
961.47	228.30
961.76	228.39
962.06	228.32
962.36	228.28
962.65	228.18
962.95	228.11
963.24	228.20
963.54	228.13
963.83	228.05
964.13	228.16
964.42	228.05
964.72	227.95
965.01	227.70
965.31	227.65
965.60	227.61
965.90	227.79
966.19	227.73
966.49	227.89
966.78	227.90
967.08	227.80
967.37	227.73
967.67	227.66
967.96	227.65
968.26	227.70
968.55	227.65
968.85	227.68
969.14	227.75
969.43	227.68
969.73	227.63
970.02	227.63
970.32	227.53
970.61	227.60
970.91	227.38
971.20	227.49
971.49	227.40
971.79	227.32
972.08	227.20
972.38	227.18
972.67	227.09
972.96	227.15
973.26	227.23
973.55	227.34
973.85	227.37
974.14	227.42
974.43	227.39
974.73	227.53
975.02	227.51
975.31	227.54
975.61	227.53
975.90	227.47
976.19	227.49
976.49	227.58
976.78	227.66
977.07	227.91
977.37	227.99
977.66	228.11
977.95	228.15
978.24	228.20
978.54	228.29
978.83	228.19
979.12	228.30
979.42	228.42
979.71	228.46
980.00	228.45
980.29	228.48
980.59	228.54
980.88	228.58
981.17	228.72
981.46	228.73
981.76	228.72
982.05	228.99
982.34	229.05
982.63	229.06
982.93	228.99
983.22	228.96
983.51	229.09
983.80	229.13
984.09	229.21
984.39	229.14
984.68	229.11
984.97	229.20
985.26	229.17
985.55	229.15
985.85	229.15
986.14	229.30
986.43	229.26
986.72	229.29
987.01	229.28
987.30	229.20
987.59	229.19
987.89	229.29
988.18	229.13
988.47	229.15
988.76	229.08
989.05	229.08
989.34	229.00
989.63	228.97
989.92	228.92
990.22	228.88
990.51	228.82
990.80	228.90
991.09	228.92
991.38	228.90
991.67	228.90
991.96	228.77
992.25	228.69
992.54	228.69
992.83	228.71
993.12	228.52
993.41	228.60
993.70	228.58
993.99	228.60
994.28	228.72
994.58	228.73
994.87	228.72
995.16	228.78
995.45	228.77
995.74	228.70
996.03	228.71
996.32	228.76
996.61	228.78
996.90	228.79
997.19	228.77
997.48	228.85
997.77	228.84
998.06	228.90
998.34	228.80
998.63	228.77
998.92	228.69
999.21	228.81
999.50	228.72
999.79	228.68
1000.08	228.64
1000.37	228.42
1000.66	228.30
1000.95	228.25
1001.24	228.19
1001.53	228.25
1001.82	228.13
1002.11	228.00
1002.40	227.92
1002.68	227.96
1002.97	228.00
1003.26	227.93
1003.55	227.82
1003.84	227.87
1004.13	227.95
1004.42	227.94
1004.71	227.89
1004.99	227.92
1005.28	227.96
1005.57	228.03
1005.86	227.94
1006.15	227.83
1006.44	227.84
1006.72	227.89
1007.01	227.97
1007.30	228.02
1007.59	227.92
1007.88	227.94
1008.17	227.97
1008.45	227.92
1008.74	227.84
1009.03	227.70
1009.32	227.72
1009.60	227.72
1009.89	227.63
1010.18	227.55
1010.47	227.54
1010.76	227.54
1011.04	227.51
1011.33	227.49
1011.62	227.45
1011.91	227.60
1012.19	227.79
1012.48	227.83
1012.77	227.85
1013.05	227.87
1013.34	227.83
1013.63	227.91
1013.92	228.01
1014.20	228.04
1014.49	228.05
1014.78	228.11
1015.06	228.10
1015.35	228.01
1015.64	228.07
1015.92	228.07
1016.21	228.03
1016.50	228.08
1016.78	228.21
1017.07	228.25
1017.36	228.23
1017.64	228.20
1017.93	228.16
1018.22	228.13
1018.50	228.11
1018.79	228.14
1019.08	228.06
1019.36	228.09
1019.65	228.02
1019.93	228.01
1020.22	228.10
1020.51	228.33
1020.79	228.26
1021.08	229.60
1021.36	226.50
1021.65	229.10
1021.94	227.00
1022.22	228.60
1022.51	227.70
1022.79	228.60
1023.08	229.20
1023.36	231.80
1023.65	226.60
>>>>>End Processed Spectral Data<<<<<
