SpectraSuite Data File
++++++++++++++++++++++++++++++++++++
Date: Fri Feb 01 14:37:57 EST 2013
User: group
Dark Spectrum Present: No
Reference Spectrum Present: No
Number of Sampled Component Spectra: 1
Spectrometers: USB2E7196
Integration Time (usec): 70000 (USB2E7196)
Spectra Averaged: 10 (USB2E7196)
Boxcar Smoothing: 10 (USB2E7196)
Correct for Electrical Dark: No (USB2E7196)
Strobe/Lamp Enabled: No (USB2E7196)
Correct for Detector Non-linearity: No (USB2E7196)
Correct for Stray Light: No (USB2E7196)
Number of Pixels in Processed Spectrum: 2048
>>>>>Begin Processed Spectral Data<<<<<
339.09	0.00
339.48	215.30
339.86	217.70
340.24	220.10
340.63	220.70
341.01	226.90
341.39	223.60
341.78	225.80
342.16	226.10
342.54	228.30
342.93	214.95
343.31	225.88
343.69	226.45
344.07	226.83
344.46	227.23
344.84	227.60
345.22	227.61
345.60	227.81
345.99	227.91
346.37	227.98
346.75	228.02
347.13	228.14
347.52	228.21
347.90	228.29
348.28	228.26
348.66	228.37
349.05	228.30
349.43	228.37
349.81	228.42
350.19	228.46
350.57	228.45
350.96	228.46
351.34	228.37
351.72	228.50
352.10	228.62
352.48	228.65
352.87	228.69
353.25	228.79
353.63	228.83
354.01	228.83
354.39	228.93
354.77	228.97
355.15	228.96
355.54	229.06
355.92	229.14
356.30	229.28
356.68	229.35
357.06	229.37
357.44	229.48
357.82	229.49
358.20	229.50
358.58	229.55
358.97	229.58
359.35	229.72
359.73	229.87
360.11	229.88
360.49	229.91
360.87	229.94
361.25	229.99
361.63	230.08
362.01	230.24
362.39	230.25
362.77	230.27
363.15	230.33
363.53	230.30
363.91	230.25
364.29	230.26
364.67	230.18
365.05	230.23
365.43	230.21
365.81	230.26
366.19	230.35
366.57	230.47
366.95	230.41
367.33	230.29
367.71	230.06
368.09	230.20
368.47	230.10
368.85	230.11
369.23	230.02
369.61	229.91
369.99	229.85
370.37	229.85
370.75	229.91
371.13	229.95
371.51	229.85
371.89	229.79
372.27	229.71
372.65	229.59
373.03	229.56
373.41	229.30
373.78	229.09
374.16	228.84
374.54	228.72
374.92	228.66
375.30	228.61
375.68	228.56
376.06	228.34
376.44	228.37
376.82	228.27
377.19	228.30
377.57	228.16
377.95	227.95
378.33	227.70
378.71	227.55
379.09	227.46
379.47	227.41
379.84	227.40
380.22	227.27
380.60	227.16
380.98	227.02
381.36	227.06
381.73	227.01
382.11	227.08
382.49	226.96
382.87	226.91
383.25	226.93
383.62	227.13
384.00	227.14
384.38	226.95
384.76	226.98
385.13	227.01
385.51	227.09
385.89	227.19
386.27	227.27
386.64	227.18
387.02	227.11
387.40	227.04
387.78	227.07
388.15	227.06
388.53	227.01
388.91	227.07
389.29	227.00
389.66	227.02
390.04	226.89
390.42	226.89
390.79	226.95
391.17	226.93
391.55	226.76
391.92	226.71
392.30	226.85
392.68	226.73
393.05	226.71
393.43	226.62
393.81	226.67
394.18	226.63
394.56	226.70
394.94	226.77
395.31	226.83
395.69	226.88
396.06	226.97
396.44	227.06
396.82	227.06
397.19	227.27
397.57	227.39
397.95	227.53
398.32	227.65
398.70	227.73
399.07	227.78
399.45	227.80
399.82	227.88
400.20	227.97
400.58	228.09
400.95	228.06
401.33	228.32
401.70	228.49
402.08	228.63
402.45	228.70
402.83	228.85
403.20	228.97
403.58	229.03
403.95	229.23
404.33	229.48
404.71	229.71
405.08	229.94
405.46	230.08
405.83	230.26
406.21	230.28
406.58	230.47
406.96	230.63
407.33	230.83
407.70	231.22
408.08	231.61
408.45	231.92
408.83	232.26
409.20	232.48
409.58	232.67
409.95	233.12
410.33	233.49
410.70	233.73
411.08	234.15
411.45	234.58
411.82	234.87
412.20	235.29
412.57	235.86
412.95	236.23
413.32	236.78
413.69	237.28
414.07	237.86
414.44	238.40
414.82	239.08
415.19	239.90
415.56	240.55
415.94	241.15
416.31	242.00
416.68	242.79
417.06	243.80
417.43	244.80
417.81	245.85
418.18	246.90
418.55	248.16
418.93	249.30
419.30	250.61
419.67	252.01
420.04	253.23
420.42	254.61
420.79	256.30
421.16	257.97
421.54	259.77
421.91	261.73
422.28	263.72
422.66	265.70
423.03	267.66
423.40	269.68
423.77	271.79
424.15	273.91
424.52	276.23
424.89	278.63
425.26	280.94
425.64	283.12
426.01	285.55
426.38	288.03
426.75	290.68
427.13	293.30
427.50	296.05
427.87	299.03
428.24	301.73
428.61	304.46
428.99	307.51
429.36	310.88
429.73	314.00
430.10	317.10
430.47	320.40
430.85	323.63
431.22	327.20
431.59	331.14
431.96	334.73
432.33	338.76
432.70	342.62
433.08	347.17
433.45	351.30
433.82	355.73
434.19	360.56
434.56	365.09
434.93	369.45
435.30	374.00
435.68	378.92
436.05	383.90
436.42	388.76
436.79	393.03
437.16	397.49
437.53	402.54
437.90	407.47
438.27	412.36
438.64	417.64
439.01	422.23
439.38	426.23
439.75	430.11
440.13	434.63
440.50	438.98
440.87	442.53
441.24	446.36
441.61	450.27
441.98	453.09
442.35	456.78
442.72	460.45
443.09	463.98
443.46	466.10
443.83	467.64
444.20	468.88
444.57	470.87
444.94	471.87
445.31	472.89
445.68	474.14
446.05	474.70
446.42	474.38
446.79	474.30
447.16	474.23
447.53	474.29
447.90	472.89
448.27	471.45
448.64	469.19
449.01	467.76
449.37	465.05
449.74	462.51
450.11	459.18
450.48	455.47
450.85	451.48
451.22	448.40
451.59	445.36
451.96	442.48
452.33	438.45
452.70	434.97
453.07	430.54
453.43	425.85
453.80	421.58
454.17	417.49
454.54	413.37
454.91	408.89
455.28	404.75
455.65	400.72
456.02	396.83
456.38	393.51
456.75	389.19
457.12	385.54
457.49	381.77
457.86	378.18
458.23	375.25
458.59	372.03
458.96	368.59
459.33	365.52
459.70	362.53
460.07	360.15
460.43	357.46
460.80	354.80
461.17	352.48
461.54	349.99
461.91	347.60
462.27	345.20
462.64	343.26
463.01	341.00
463.38	338.82
463.74	336.50
464.11	334.59
464.48	333.07
464.85	331.03
465.21	329.72
465.58	328.28
465.95	326.30
466.32	324.68
466.68	323.09
467.05	321.50
467.42	319.96
467.78	318.27
468.15	316.76
468.52	315.56
468.88	313.96
469.25	312.47
469.62	311.30
469.98	310.11
470.35	308.76
470.72	307.60
471.08	306.35
471.45	305.45
471.82	304.37
472.18	303.12
472.55	302.38
472.92	301.36
473.28	300.29
473.65	299.36
474.02	298.41
474.38	297.69
474.75	297.00
475.11	296.21
475.48	295.67
475.85	294.90
476.21	294.20
476.58	293.76
476.94	293.31
477.31	292.69
477.67	292.17
478.04	291.76
478.41	291.34
478.77	291.18
479.14	290.48
479.50	290.15
479.87	289.79
480.23	289.61
480.60	289.18
480.96	288.92
481.33	288.87
481.69	288.82
482.06	288.60
482.42	288.40
482.79	288.15
483.15	287.96
483.52	287.95
483.88	287.94
484.25	287.76
484.61	287.79
484.98	287.75
485.34	287.87
485.71	287.98
486.07	288.08
486.44	287.90
486.80	288.15
487.17	288.14
487.53	288.42
487.90	288.55
488.26	289.02
488.62	289.33
488.99	289.52
489.35	289.68
489.72	289.88
490.08	290.30
490.44	290.73
490.81	291.10
491.17	291.43
491.54	291.98
491.90	292.41
492.26	292.84
492.63	293.30
492.99	293.66
493.36	294.06
493.72	294.43
494.08	295.02
494.45	295.50
494.81	296.15
495.17	296.51
495.54	296.91
495.90	297.30
496.26	297.83
496.63	298.28
496.99	298.82
497.35	299.44
497.72	299.91
498.08	300.38
498.44	300.88
498.80	301.49
499.17	301.94
499.53	302.46
499.89	302.86
500.26	303.32
500.62	303.76
500.98	304.20
501.34	304.81
501.71	305.27
502.07	305.70
502.43	305.93
502.79	306.43
503.16	306.80
503.52	307.13
503.88	307.32
504.24	307.60
504.60	307.82
504.97	308.14
505.33	308.41
505.69	308.71
506.05	309.04
506.41	309.12
506.78	309.29
507.14	309.34
507.50	309.54
507.86	309.77
508.22	309.94
508.59	310.02
508.95	310.13
509.31	310.44
509.67	310.58
510.03	310.83
510.39	311.02
510.75	311.26
511.12	311.43
511.48	311.63
511.84	311.87
512.20	312.13
512.56	312.30
512.92	312.42
513.28	312.60
513.64	312.73
514.00	312.98
514.37	313.21
514.73	313.59
515.09	314.03
515.45	314.25
515.81	314.55
516.17	315.04
516.53	315.35
516.89	315.56
517.25	316.13
517.61	316.69
517.97	317.17
518.33	317.75
518.69	318.47
519.05	319.26
519.41	320.07
519.77	321.02
520.13	321.93
520.49	322.88
520.85	323.85
521.21	324.95
521.57	326.06
521.93	327.14
522.29	328.43
522.65	329.67
523.01	331.11
523.37	332.55
523.73	334.12
524.09	335.72
524.45	337.52
524.81	339.11
525.17	340.94
525.53	342.85
525.89	344.87
526.25	346.81
526.61	348.79
526.97	350.86
527.33	352.95
527.68	355.42
528.04	357.98
528.40	360.40
528.76	363.01
529.12	365.67
529.48	368.53
529.84	371.44
530.20	374.43
530.56	377.40
530.91	380.59
531.27	383.70
531.63	386.90
531.99	390.12
532.35	393.51
532.71	396.93
533.07	400.49
533.42	404.04
533.78	407.68
534.14	411.65
534.50	415.41
534.86	419.39
535.21	423.34
535.57	427.38
535.93	431.48
536.29	435.61
536.65	439.91
537.00	444.03
537.36	448.30
537.72	452.55
538.08	456.86
538.44	461.21
538.79	465.82
539.15	470.30
539.51	475.00
539.87	479.95
540.22	484.59
540.58	489.54
540.94	494.40
541.29	499.13
541.65	503.92
542.01	509.14
542.37	514.18
542.72	519.01
543.08	523.82
543.44	529.21
543.79	534.17
544.15	539.37
544.51	544.93
544.87	550.14
545.22	555.47
545.58	560.78
545.94	566.02
546.29	571.25
546.65	576.42
547.01	581.64
547.36	586.53
547.72	591.91
548.07	596.70
548.43	601.83
548.79	607.31
549.14	612.56
549.50	617.54
549.86	622.63
550.21	627.75
550.57	633.03
550.92	637.96
551.28	643.30
551.64	648.62
551.99	653.63
552.35	658.61
552.70	663.33
553.06	668.53
553.41	673.66
553.77	678.83
554.13	684.18
554.48	689.21
554.84	694.36
555.19	699.38
555.55	704.78
555.90	709.70
556.26	714.71
556.61	719.44
556.97	724.34
557.32	729.29
557.68	734.25
558.03	739.02
558.39	743.97
558.74	748.89
559.10	753.39
559.45	758.17
559.81	763.20
560.16	768.01
560.52	772.77
560.87	777.40
561.23	781.89
561.58	786.57
561.94	791.10
562.29	795.55
562.64	799.79
563.00	803.95
563.35	808.54
563.71	813.12
564.06	817.72
564.42	822.49
564.77	826.90
565.12	831.34
565.48	836.05
565.83	840.08
566.19	843.97
566.54	848.09
566.89	852.15
567.25	855.99
567.60	860.52
567.96	864.27
568.31	868.03
568.66	871.53
569.02	874.78
569.37	878.26
569.72	881.61
570.08	885.03
570.43	888.20
570.78	891.35
571.14	893.88
571.49	896.49
571.84	899.27
572.20	901.85
572.55	904.44
572.90	906.65
573.26	909.42
573.61	911.87
573.96	914.41
574.31	916.42
574.67	918.12
575.02	919.56
575.37	921.68
575.72	923.49
576.08	925.59
576.43	927.44
576.78	929.20
577.13	931.10
577.49	932.94
577.84	934.79
578.19	936.05
578.54	937.80
578.90	939.21
579.25	940.08
579.60	941.41
579.95	942.33
580.30	943.31
580.66	943.86
581.01	944.72
581.36	945.17
581.71	946.09
582.06	947.25
582.42	947.94
582.77	948.17
583.12	948.54
583.47	949.09
583.82	949.66
584.17	949.68
584.53	949.86
584.88	950.07
585.23	950.14
585.58	950.40
585.93	950.43
586.28	950.89
586.63	951.29
586.98	951.39
587.34	951.64
587.69	951.78
588.04	952.13
588.39	952.11
588.74	951.66
589.09	951.16
589.44	950.89
589.79	950.42
590.14	950.43
590.49	950.32
590.84	949.61
591.19	949.20
591.54	948.57
591.89	947.52
592.25	946.83
592.60	945.92
592.95	945.11
593.30	943.94
593.65	942.43
594.00	941.03
594.35	940.35
594.70	938.61
595.05	937.41
595.40	935.85
595.75	934.35
596.10	933.58
596.45	932.41
596.80	931.44
597.15	930.37
597.50	928.97
597.85	927.87
598.19	926.77
598.54	925.50
598.89	924.60
599.24	923.95
599.59	922.62
599.94	921.59
600.29	920.12
600.64	918.84
600.99	917.46
601.34	916.03
601.69	913.74
602.04	912.38
602.39	910.76
602.74	909.48
603.08	908.20
603.43	906.70
603.78	905.21
604.13	903.01
604.48	901.53
604.83	899.85
605.18	898.02
605.53	896.12
605.87	893.91
606.22	892.06
606.57	890.02
606.92	887.79
607.27	885.78
607.62	884.21
607.96	882.43
608.31	880.89
608.66	878.88
609.01	876.84
609.36	874.44
609.70	871.92
610.05	869.53
610.40	867.24
610.75	864.65
611.10	862.25
611.44	859.70
611.79	857.17
612.14	854.18
612.49	851.21
612.83	848.27
613.18	845.64
613.53	842.66
613.88	839.46
614.22	836.49
614.57	833.29
614.92	830.09
615.27	827.30
615.61	824.10
615.96	821.27
616.31	818.57
616.65	816.51
617.00	814.02
617.35	811.14
617.70	808.09
618.04	805.15
618.39	802.02
618.74	799.39
619.08	796.18
619.43	793.56
619.78	791.15
620.12	788.50
620.47	785.77
620.82	783.07
621.16	780.58
621.51	778.23
621.85	775.68
622.20	772.70
622.55	769.87
622.89	767.13
623.24	764.42
623.59	761.70
623.93	758.70
624.28	755.91
624.62	753.25
624.97	750.69
625.32	748.17
625.66	745.56
626.01	742.79
626.35	740.31
626.70	737.66
627.04	734.81
627.39	731.90
627.73	729.07
628.08	726.22
628.43	723.16
628.77	720.18
629.12	717.20
629.46	714.68
629.81	711.54
630.15	708.56
630.50	705.47
630.84	702.30
631.19	699.12
631.53	696.08
631.88	692.83
632.22	689.51
632.57	686.54
632.91	683.50
633.26	680.43
633.60	677.30
633.95	674.38
634.29	671.43
634.64	668.70
634.98	665.89
635.32	663.23
635.67	660.92
636.01	658.29
636.36	655.50
636.70	652.70
637.05	650.15
637.39	647.57
637.73	645.09
638.08	642.80
638.42	640.30
638.77	637.78
639.11	635.19
639.45	632.90
639.80	630.08
640.14	627.66
640.49	624.93
640.83	622.28
641.17	619.67
641.52	617.05
641.86	614.41
642.20	611.82
642.55	609.17
642.89	606.42
643.23	603.62
643.58	601.27
643.92	598.53
644.26	595.94
644.61	593.55
644.95	591.05
645.29	588.20
645.64	585.40
645.98	582.65
646.32	580.10
646.66	577.17
647.01	574.62
647.35	571.95
647.69	569.54
648.04	567.18
648.38	564.41
648.72	561.44
649.06	558.77
649.41	556.12
649.75	553.35
650.09	550.56
650.43	547.82
650.78	544.81
651.12	542.01
651.46	539.53
651.80	536.84
652.14	534.13
652.49	531.52
652.83	529.11
653.17	526.61
653.51	524.01
653.85	521.66
654.20	519.03
654.54	516.18
654.88	513.42
655.22	510.55
655.56	508.04
655.90	505.74
656.25	503.36
656.59	500.77
656.93	498.36
657.27	496.07
657.61	493.65
657.95	491.57
658.29	489.32
658.64	486.73
658.98	484.23
659.32	481.66
659.66	479.32
660.00	476.98
660.34	474.48
660.68	472.10
661.02	469.60
661.36	467.38
661.70	465.42
662.05	463.42
662.39	461.52
662.73	459.55
663.07	457.42
663.41	455.25
663.75	453.21
664.09	451.17
664.43	448.84
664.77	447.10
665.11	445.05
665.45	443.06
665.79	441.04
666.13	439.02
666.47	437.04
666.81	434.90
667.15	432.80
667.49	430.96
667.83	429.23
668.17	427.39
668.51	425.49
668.85	423.58
669.19	421.86
669.53	419.87
669.87	417.90
670.21	416.21
670.55	414.44
670.89	412.75
671.23	410.95
671.57	409.27
671.91	407.37
672.25	405.59
672.58	404.06
672.92	402.44
673.26	400.82
673.60	399.40
673.94	398.11
674.28	396.77
674.62	395.30
674.96	393.68
675.30	392.26
675.64	390.80
675.97	389.25
676.31	387.69
676.65	386.22
676.99	384.88
677.33	383.29
677.67	381.78
678.01	380.22
678.34	378.99
678.68	377.65
679.02	376.17
679.36	374.76
679.70	373.22
680.04	371.79
680.37	370.46
680.71	369.00
681.05	367.73
681.39	366.38
681.73	365.10
682.06	363.92
682.40	362.59
682.74	361.38
683.08	360.30
683.42	359.03
683.75	357.84
684.09	356.42
684.43	355.22
684.77	353.98
685.10	352.81
685.44	351.41
685.78	350.29
686.12	349.22
686.45	348.04
686.79	346.82
687.13	345.73
687.46	344.57
687.80	343.41
688.14	342.09
688.48	340.93
688.81	339.68
689.15	338.50
689.49	337.32
689.82	336.18
690.16	334.83
690.50	333.80
690.83	332.80
691.17	331.77
691.51	330.69
691.84	329.74
692.18	328.79
692.52	327.63
692.85	326.55
693.19	325.49
693.52	324.50
693.86	323.50
694.20	322.48
694.53	321.48
694.87	320.54
695.21	319.47
695.54	318.45
695.88	317.42
696.21	316.44
696.55	315.66
696.88	314.63
697.22	313.78
697.56	312.76
697.89	311.66
698.23	310.67
698.56	309.70
698.90	308.80
699.23	307.66
699.57	306.90
699.90	306.00
700.24	305.05
700.58	304.15
700.91	303.33
701.25	302.58
701.58	301.86
701.92	301.25
702.25	300.60
702.59	299.69
702.92	298.94
703.26	298.29
703.59	297.50
703.93	296.96
704.26	296.12
704.60	295.27
704.93	294.62
705.26	293.88
705.60	293.20
705.93	292.39
706.27	291.87
706.60	291.19
706.94	290.50
707.27	289.88
707.61	289.33
707.94	288.68
708.27	287.93
708.61	287.17
708.94	286.23
709.28	285.45
709.61	285.08
709.94	284.50
710.28	283.85
710.61	283.19
710.95	282.40
711.28	281.98
711.61	281.40
711.95	280.88
712.28	280.30
712.61	279.70
712.95	279.20
713.28	278.63
713.61	278.07
713.95	277.45
714.28	276.94
714.61	276.23
714.95	275.66
715.28	275.02
715.61	274.46
715.95	274.04
716.28	273.63
716.61	273.10
716.95	272.60
717.28	272.05
717.61	271.56
717.94	271.08
718.28	270.37
718.61	270.00
718.94	269.48
719.27	269.10
719.61	268.79
719.94	268.34
720.27	267.86
720.60	267.42
720.94	267.06
721.27	266.57
721.60	266.21
721.93	265.84
722.27	265.55
722.60	265.20
722.93	264.77
723.26	264.38
723.59	263.90
723.93	263.50
724.26	263.22
724.59	262.91
724.92	262.60
725.25	262.32
725.59	261.89
725.92	261.53
726.25	261.24
726.58	260.83
726.91	260.59
727.24	260.35
727.57	260.07
727.91	259.68
728.24	259.44
728.57	259.21
728.90	258.96
729.23	258.67
729.56	258.54
729.89	258.32
730.22	258.10
730.55	257.84
730.89	257.59
731.22	257.29
731.55	257.01
731.88	256.70
732.21	256.47
732.54	256.14
732.87	255.94
733.20	255.69
733.53	255.49
733.86	255.20
734.19	254.89
734.52	254.66
734.85	254.64
735.18	254.45
735.51	254.27
735.84	254.06
736.17	253.77
736.50	253.35
736.83	253.35
737.16	253.04
737.49	252.80
737.82	252.46
738.15	252.18
738.48	251.92
738.81	251.68
739.14	251.55
739.47	251.38
739.80	251.11
740.13	250.89
740.46	250.59
740.79	250.29
741.12	250.09
741.45	249.73
741.78	249.36
742.11	249.10
742.44	248.76
742.77	248.48
743.10	248.26
743.43	248.04
743.75	247.60
744.08	247.58
744.41	247.40
744.74	247.27
745.07	247.04
745.40	246.78
745.73	246.70
746.06	246.43
746.39	246.25
746.71	245.94
747.04	245.70
747.37	245.54
747.70	245.42
748.03	245.15
748.36	245.06
748.68	244.91
749.01	244.57
749.34	244.38
749.67	244.24
750.00	244.07
750.33	244.04
750.65	243.84
750.98	243.38
751.31	243.23
751.64	243.06
751.97	242.97
752.29	242.88
752.62	242.62
752.95	242.36
753.28	242.20
753.60	242.07
753.93	241.99
754.26	241.85
754.59	241.55
754.91	241.34
755.24	241.21
755.57	241.08
755.90	241.02
756.22	240.89
756.55	240.66
756.88	240.49
757.20	240.11
757.53	239.90
757.86	239.81
758.19	239.63
758.51	239.46
758.84	239.20
759.17	239.08
759.49	238.90
759.82	238.95
760.15	238.70
760.47	238.61
760.80	238.48
761.13	238.26
761.45	238.12
761.78	238.13
762.11	237.92
762.43	237.65
762.76	237.51
763.08	237.38
763.41	237.29
763.74	237.23
764.06	237.20
764.39	237.07
764.71	236.97
765.04	236.87
765.37	236.78
765.69	236.74
766.02	236.58
766.34	236.46
766.67	236.22
767.00	236.29
767.32	236.24
767.65	236.22
767.97	236.12
768.30	236.18
768.62	235.99
768.95	235.99
769.27	236.00
769.60	235.89
769.92	235.74
770.25	235.60
770.57	235.43
770.90	235.36
771.22	235.43
771.55	235.25
771.87	235.15
772.20	235.08
772.52	235.17
772.85	235.35
773.17	235.24
773.50	235.22
773.82	235.09
774.15	235.02
774.47	234.76
774.80	234.75
775.12	234.65
775.45	234.71
775.77	234.56
776.09	234.52
776.42	234.53
776.74	234.59
777.07	234.62
777.39	234.63
777.72	234.58
778.04	234.50
778.36	234.66
778.69	234.56
779.01	234.50
779.33	234.27
779.66	234.03
779.98	234.15
780.31	234.10
780.63	234.16
780.95	234.16
781.28	234.18
781.60	234.10
781.92	234.03
782.25	233.95
782.57	233.97
782.89	233.92
783.22	233.91
783.54	233.78
783.86	233.74
784.19	233.66
784.51	233.71
784.83	233.61
785.16	233.50
785.48	233.53
785.80	233.55
786.12	233.50
786.45	233.45
786.77	233.37
787.09	233.34
787.42	233.20
787.74	233.09
788.06	232.99
788.38	232.95
788.71	232.93
789.03	232.86
789.35	232.88
789.67	232.92
789.99	232.86
790.32	232.93
790.64	232.96
790.96	233.04
791.28	232.91
791.61	232.80
791.93	232.83
792.25	232.81
792.57	233.00
792.89	232.87
793.21	232.95
793.54	233.00
793.86	232.97
794.18	232.99
794.50	232.83
794.82	232.89
795.14	232.84
795.47	232.76
795.79	232.74
796.11	232.64
796.43	232.50
796.75	232.38
797.07	232.25
797.39	232.15
797.71	232.00
798.04	231.99
798.36	232.02
798.68	231.89
799.00	231.85
799.32	231.49
799.64	231.67
799.96	231.49
800.28	231.33
800.60	231.32
800.92	231.25
801.24	231.34
801.56	231.30
801.89	231.33
802.21	231.30
802.53	231.16
802.85	231.10
803.17	231.08
803.49	231.08
803.81	230.97
804.13	230.89
804.45	230.85
804.77	230.70
805.09	230.59
805.41	230.50
805.73	230.38
806.05	230.42
806.37	230.27
806.69	230.24
807.01	230.17
807.33	230.09
807.65	229.97
807.97	229.98
808.28	229.83
808.60	229.73
808.92	229.68
809.24	229.79
809.56	229.70
809.88	229.72
810.20	229.70
810.52	229.71
810.84	229.60
811.16	229.47
811.48	229.47
811.80	229.53
812.12	229.54
812.43	229.56
812.75	229.56
813.07	229.54
813.39	229.49
813.71	229.45
814.03	229.40
814.35	229.42
814.67	229.33
814.98	229.41
815.30	229.43
815.62	229.38
815.94	229.25
816.26	229.40
816.58	229.33
816.89	229.32
817.21	229.37
817.53	229.48
817.85	229.58
818.17	229.64
818.48	229.70
818.80	229.69
819.12	229.56
819.44	229.52
819.76	229.48
820.07	229.38
820.39	229.50
820.71	229.60
821.03	229.76
821.34	229.70
821.66	229.70
821.98	229.79
822.30	229.77
822.61	229.89
822.93	229.79
823.25	229.79
823.57	229.82
823.88	229.90
824.20	229.89
824.52	229.91
824.83	229.90
825.15	229.81
825.47	229.79
825.79	229.89
826.10	229.87
826.42	229.94
826.74	230.03
827.05	230.00
827.37	229.93
827.69	229.82
828.00	229.88
828.32	229.88
828.64	229.75
828.95	229.91
829.27	229.84
829.58	229.87
829.90	229.90
830.22	229.90
830.53	229.86
830.85	229.86
831.17	229.84
831.48	229.81
831.80	229.72
832.11	229.71
832.43	229.76
832.75	229.79
833.06	229.83
833.38	229.85
833.69	229.76
834.01	229.76
834.32	229.68
834.64	229.64
834.96	229.60
835.27	229.67
835.59	229.54
835.90	229.57
836.22	229.55
836.53	229.42
836.85	229.27
837.16	229.35
837.48	229.29
837.79	229.23
838.11	229.15
838.42	229.16
838.74	229.17
839.05	229.05
839.37	229.04
839.68	228.83
840.00	228.74
840.31	228.79
840.63	228.77
840.94	228.80
841.26	228.80
841.57	228.69
841.88	228.62
842.20	228.67
842.51	228.52
842.83	228.42
843.14	228.60
843.46	228.60
843.77	228.49
844.08	228.47
844.40	228.45
844.71	228.40
845.03	228.44
845.34	228.48
845.65	228.41
845.97	228.30
846.28	228.36
846.60	228.40
846.91	228.30
847.22	228.26
847.54	228.24
847.85	228.20
848.16	228.21
848.48	228.22
848.79	228.20
849.10	228.32
849.42	228.37
849.73	228.16
850.04	228.14
850.36	228.12
850.67	228.11
850.98	228.15
851.30	228.30
851.61	228.27
851.92	228.30
852.23	228.44
852.55	228.51
852.86	228.49
853.17	228.47
853.49	228.62
853.80	228.68
854.11	228.69
854.42	228.70
854.74	228.69
855.05	228.69
855.36	228.60
855.67	228.60
855.99	228.60
856.30	228.91
856.61	229.11
856.92	229.17
857.23	229.25
857.55	229.23
857.86	229.19
858.17	229.19
858.48	229.17
858.79	229.16
859.11	229.23
859.42	229.28
859.73	229.27
860.04	229.16
860.35	229.10
860.66	229.11
860.98	229.16
861.29	229.30
861.60	229.22
861.91	229.32
862.22	229.34
862.53	229.38
862.84	229.21
863.16	229.15
863.47	229.09
863.78	229.04
864.09	229.11
864.40	229.09
864.71	229.15
865.02	229.21
865.33	229.17
865.64	229.16
865.95	229.18
866.27	229.40
866.58	229.48
866.89	229.59
867.20	229.61
867.51	229.61
867.82	229.56
868.13	229.72
868.44	229.63
868.75	229.64
869.06	229.64
869.37	229.57
869.68	229.53
869.99	229.59
870.30	229.61
870.61	229.64
870.92	229.61
871.23	229.57
871.54	229.54
871.85	229.64
872.16	229.60
872.47	229.68
872.78	229.48
873.09	229.38
873.40	229.34
873.71	229.28
874.02	229.23
874.33	229.18
874.64	229.06
874.95	229.10
875.26	229.00
875.56	229.06
875.87	229.01
876.18	228.93
876.49	229.04
876.80	229.01
877.11	228.86
877.42	228.94
877.73	228.91
878.04	228.80
878.35	228.72
878.66	228.70
878.96	228.52
879.27	228.40
879.58	228.41
879.89	228.29
880.20	228.32
880.51	228.29
880.82	228.26
881.12	228.29
881.43	228.20
881.74	228.21
882.05	228.05
882.36	228.13
882.67	228.13
882.97	227.91
883.28	227.95
883.59	227.90
883.90	227.81
884.21	227.74
884.51	227.80
884.82	227.80
885.13	227.75
885.44	227.79
885.74	227.85
886.05	227.78
886.36	227.73
886.67	227.69
886.98	227.78
887.28	227.79
887.59	227.74
887.90	227.82
888.20	227.73
888.51	227.74
888.82	227.58
889.13	227.59
889.43	227.75
889.74	227.63
890.05	227.76
890.35	227.75
890.66	227.77
890.97	227.81
891.28	227.71
891.58	227.71
891.89	227.60
892.20	227.50
892.50	227.52
892.81	227.54
893.12	227.50
893.42	227.37
893.73	227.40
894.04	227.41
894.34	227.46
894.65	227.51
894.95	227.47
895.26	227.53
895.57	227.70
895.87	227.60
896.18	227.70
896.48	227.59
896.79	227.65
897.10	227.75
897.40	227.74
897.71	227.81
898.01	227.93
898.32	228.11
898.63	228.26
898.93	228.23
899.24	228.40
899.54	228.51
899.85	228.59
900.15	228.64
900.46	228.70
900.76	228.70
901.07	228.73
901.38	228.84
901.68	228.92
901.99	228.75
902.29	228.72
902.60	228.69
902.90	228.72
903.21	228.60
903.51	228.55
903.82	228.54
904.12	228.56
904.43	228.48
904.73	228.42
905.03	228.41
905.34	228.72
905.64	228.57
905.95	228.47
906.25	228.49
906.56	228.42
906.86	228.44
907.17	228.45
907.47	228.39
907.77	228.34
908.08	228.27
908.38	228.41
908.69	228.40
908.99	228.50
909.30	228.59
909.60	228.64
909.90	228.77
910.21	228.74
910.51	228.78
910.81	228.77
911.12	228.77
911.42	228.74
911.73	228.55
912.03	228.72
912.33	228.78
912.64	228.77
912.94	228.76
913.24	228.63
913.55	228.65
913.85	228.71
914.15	228.70
914.46	228.71
914.76	228.66
915.06	228.67
915.37	228.62
915.67	228.51
915.97	228.49
916.27	228.29
916.58	228.32
916.88	228.25
917.18	228.28
917.49	228.41
917.79	228.46
918.09	228.43
918.39	228.36
918.70	228.33
919.00	228.32
919.30	228.41
919.60	228.44
919.91	228.45
920.21	228.43
920.51	228.46
920.81	228.51
921.12	228.46
921.42	228.51
921.72	228.37
922.02	228.42
922.32	228.44
922.63	228.65
922.93	228.66
923.23	228.65
923.53	228.64
923.83	228.51
924.13	228.40
924.44	228.40
924.74	228.50
925.04	228.57
925.34	228.59
925.64	228.48
925.94	228.50
926.24	228.38
926.55	228.35
926.85	228.35
927.15	228.33
927.45	228.30
927.75	228.31
928.05	228.35
928.35	228.29
928.65	228.29
928.95	228.10
929.26	228.07
929.56	228.08
929.86	228.04
930.16	228.02
930.46	228.00
930.76	227.95
931.06	227.78
931.36	227.70
931.66	227.69
931.96	227.90
932.26	227.74
932.56	227.78
932.86	227.79
933.16	227.86
933.46	227.87
933.76	227.81
934.06	227.79
934.36	227.82
934.66	227.85
934.96	227.90
935.26	227.99
935.56	227.97
935.86	227.96
936.16	228.02
936.46	228.09
936.76	228.14
937.06	228.20
937.36	228.18
937.66	228.18
937.96	228.17
938.26	227.91
938.56	228.02
938.86	228.06
939.16	228.12
939.46	228.06
939.76	228.09
940.06	228.19
940.35	228.09
940.65	228.14
940.95	228.13
941.25	228.08
941.55	228.13
941.85	228.20
942.15	228.23
942.45	228.21
942.75	228.14
943.04	228.21
943.34	228.24
943.64	228.32
943.94	228.34
944.24	228.30
944.54	228.43
944.84	228.41
945.13	228.40
945.43	228.29
945.73	228.30
946.03	228.23
946.33	228.15
946.62	228.20
946.92	228.17
947.22	228.20
947.52	228.27
947.82	228.26
948.11	228.20
948.41	228.18
948.71	228.19
949.01	228.21
949.31	228.16
949.60	228.13
949.90	228.18
950.20	228.22
950.50	228.20
950.79	228.10
951.09	228.19
951.39	228.22
951.69	228.24
951.98	228.26
952.28	228.27
952.58	228.33
952.87	228.23
953.17	228.23
953.47	228.27
953.76	228.15
954.06	228.10
954.36	228.08
954.66	228.09
954.95	228.07
955.25	228.01
955.55	228.09
955.84	228.02
956.14	228.04
956.44	227.93
956.73	227.98
957.03	228.01
957.32	227.95
957.62	227.93
957.92	228.09
958.21	228.08
958.51	228.25
958.81	228.21
959.10	228.39
959.40	228.40
959.69	228.37
959.99	228.41
960.29	228.38
960.58	228.35
960.88	228.35
961.17	228.41
961.47	228.48
961.76	228.36
962.06	228.37
962.36	228.23
962.65	228.32
962.95	228.35
963.24	228.39
963.54	228.42
963.83	228.35
964.13	228.28
964.42	228.27
964.72	228.17
965.01	228.16
965.31	228.14
965.60	228.22
965.90	228.29
966.19	228.42
966.49	228.45
966.78	228.49
967.08	228.58
967.37	228.48
967.67	228.42
967.96	228.54
968.26	228.54
968.55	228.66
968.85	228.67
969.14	228.71
969.43	228.73
969.73	228.74
970.02	228.70
970.32	228.67
970.61	228.60
970.91	228.55
971.20	228.58
971.49	228.53
971.79	228.52
972.08	228.40
972.38	228.37
972.67	228.28
972.96	228.27
973.26	228.15
973.55	228.23
973.85	228.24
974.14	228.16
974.43	228.14
974.73	228.10
975.02	228.01
975.31	227.95
975.61	227.90
975.90	227.89
976.19	227.93
976.49	227.89
976.78	227.92
977.07	227.94
977.37	227.95
977.66	228.02
977.95	227.89
978.24	228.01
978.54	228.00
978.83	227.98
979.12	227.94
979.42	227.92
979.71	228.00
980.00	228.01
980.29	228.04
980.59	228.07
980.88	228.03
981.17	228.12
981.46	227.97
981.76	228.05
982.05	228.07
982.34	228.10
982.63	228.17
982.93	228.21
983.22	228.26
983.51	228.26
983.80	228.19
984.09	228.23
984.39	228.16
984.68	228.24
984.97	228.28
985.26	228.30
985.55	228.43
985.85	228.26
986.14	228.25
986.43	228.22
986.72	228.20
987.01	228.14
987.30	228.15
987.59	228.24
987.89	228.17
988.18	228.18
988.47	228.19
988.76	228.12
989.05	228.04
989.34	227.96
989.63	228.00
989.92	228.10
990.22	228.08
990.51	228.05
990.80	228.05
991.09	228.13
991.38	228.29
991.67	228.15
991.96	228.23
992.25	228.29
992.54	228.30
992.83	228.36
993.12	228.35
993.41	228.30
993.70	228.29
993.99	228.28
994.28	228.24
994.58	228.20
994.87	228.26
995.16	228.31
995.45	228.39
995.74	228.33
996.03	228.30
996.32	228.28
996.61	228.35
996.90	228.26
997.19	228.19
997.48	228.06
997.77	228.02
998.06	227.98
998.34	227.90
998.63	227.97
998.92	227.94
999.21	228.07
999.50	228.04
999.79	228.13
1000.08	228.15
1000.37	228.18
1000.66	228.21
1000.95	228.20
1001.24	228.25
1001.53	228.22
1001.82	228.20
1002.11	228.14
1002.40	228.26
1002.68	228.30
1002.97	228.42
1003.26	228.48
1003.55	228.47
1003.84	228.55
1004.13	228.67
1004.42	228.76
1004.71	228.73
1004.99	228.77
1005.28	228.80
1005.57	228.87
1005.86	228.87
1006.15	228.86
1006.44	228.86
1006.72	228.85
1007.01	228.80
1007.30	228.75
1007.59	228.80
1007.88	228.79
1008.17	228.75
1008.45	228.50
1008.74	228.42
1009.03	228.32
1009.32	228.25
1009.60	228.24
1009.89	228.16
1010.18	227.98
1010.47	227.85
1010.76	227.77
1011.04	227.71
1011.33	227.92
1011.62	227.87
1011.91	227.90
1012.19	227.96
1012.48	227.93
1012.77	227.93
1013.05	228.03
1013.34	228.02
1013.63	227.86
1013.92	227.80
1014.20	227.80
1014.49	227.93
1014.78	227.99
1015.06	227.91
1015.35	227.94
1015.64	227.96
1015.92	228.04
1016.21	228.09
1016.50	228.12
1016.78	228.15
1017.07	228.18
1017.36	227.90
1017.64	227.97
1017.93	227.87
1018.22	227.80
1018.50	227.79
1018.79	227.78
1019.08	227.78
1019.36	227.74
1019.65	227.80
1019.93	228.00
1020.22	228.00
1020.51	228.12
1020.79	228.07
1021.08	227.70
1021.36	228.10
1021.65	227.80
1021.94	229.70
1022.22	226.70
1022.51	227.70
1022.79	230.10
1023.08	227.20
1023.36	230.30
1023.65	227.90
>>>>>End Processed Spectral Data<<<<<
