SpectraSuite Data File
++++++++++++++++++++++++++++++++++++
Date: Fri Feb 01 14:34:39 EST 2013
User: group
Dark Spectrum Present: No
Reference Spectrum Present: No
Number of Sampled Component Spectra: 1
Spectrometers: USB2E7196
Integration Time (usec): 70000 (USB2E7196)
Spectra Averaged: 10 (USB2E7196)
Boxcar Smoothing: 10 (USB2E7196)
Correct for Electrical Dark: No (USB2E7196)
Strobe/Lamp Enabled: No (USB2E7196)
Correct for Detector Non-linearity: No (USB2E7196)
Correct for Stray Light: No (USB2E7196)
Number of Pixels in Processed Spectrum: 2048
>>>>>Begin Processed Spectral Data<<<<<
339.09	0.00
339.48	215.50
339.86	218.90
340.24	219.40
340.63	220.50
341.01	224.50
341.39	223.70
341.78	224.00
342.16	228.20
342.54	226.20
342.93	215.01
343.31	225.98
343.69	226.67
344.07	227.07
344.46	227.50
344.84	227.97
345.22	228.18
345.60	228.41
345.99	228.69
346.37	228.71
346.75	228.79
347.13	228.81
347.52	228.95
347.90	228.99
348.28	229.06
348.66	229.11
349.05	229.05
349.43	229.10
349.81	229.10
350.19	229.10
350.57	229.11
350.96	229.14
351.34	229.02
351.72	229.11
352.10	229.30
352.48	229.36
352.87	229.32
353.25	229.44
353.63	229.55
354.01	229.58
354.39	229.74
354.77	229.79
355.15	229.98
355.54	230.00
355.92	230.04
356.30	230.15
356.68	230.33
357.06	230.43
357.44	230.47
357.82	230.49
358.20	230.53
358.58	230.59
358.97	230.80
359.35	231.08
359.73	231.06
360.11	231.02
360.49	231.07
360.87	231.08
361.25	231.09
361.63	231.20
362.01	231.21
362.39	231.17
362.77	231.24
363.15	231.26
363.53	231.34
363.91	231.39
364.29	231.36
364.67	231.19
365.05	231.22
365.43	231.17
365.81	231.16
366.19	231.30
366.57	231.31
366.95	231.10
367.33	230.97
367.71	230.90
368.09	230.93
368.47	230.85
368.85	230.83
369.23	230.78
369.61	230.70
369.99	230.78
370.37	230.74
370.75	230.82
371.13	230.74
371.51	230.72
371.89	230.62
372.27	230.55
372.65	230.52
373.03	230.45
373.41	230.39
373.78	230.30
374.16	230.15
374.54	230.13
374.92	230.19
375.30	230.10
375.68	229.99
376.06	229.92
376.44	229.90
376.82	229.90
377.19	229.78
377.57	229.61
377.95	229.37
378.33	229.27
378.71	229.04
379.09	228.99
379.47	228.84
379.84	228.74
380.22	228.66
380.60	228.61
380.98	228.52
381.36	228.44
381.73	228.32
382.11	228.19
382.49	228.07
382.87	227.90
383.25	227.87
383.62	228.09
384.00	227.96
384.38	227.90
384.76	227.77
385.13	227.77
385.51	227.69
385.89	227.67
386.27	227.57
386.64	227.46
387.02	227.43
387.40	227.37
387.78	227.30
388.15	227.24
388.53	227.02
388.91	227.02
389.29	227.00
389.66	227.10
390.04	227.08
390.42	227.10
390.79	227.06
391.17	227.03
391.55	226.76
391.92	226.78
392.30	226.77
392.68	226.82
393.05	226.85
393.43	226.90
393.81	226.90
394.18	226.95
394.56	227.04
394.94	227.13
395.31	227.13
395.69	227.24
396.06	227.34
396.44	227.59
396.82	227.71
397.19	227.88
397.57	227.86
397.95	227.96
398.32	227.94
398.70	228.04
399.07	228.13
399.45	228.30
399.82	228.40
400.20	228.50
400.58	228.66
400.95	228.71
401.33	228.91
401.70	229.15
402.08	229.39
402.45	229.62
402.83	229.85
403.20	230.05
403.58	230.25
403.95	230.47
404.33	230.69
404.71	230.91
405.08	231.27
405.46	231.62
405.83	232.01
406.21	232.37
406.58	232.87
406.96	233.29
407.33	233.77
407.70	234.27
408.08	234.87
408.45	235.42
408.83	236.13
409.20	236.65
409.58	237.23
409.95	237.87
410.33	238.57
410.70	239.24
411.08	240.16
411.45	241.11
411.82	242.05
412.20	242.98
412.57	244.08
412.95	244.96
413.32	246.17
413.69	247.37
414.07	248.61
414.44	249.85
414.82	251.31
415.19	252.82
415.56	254.50
415.94	256.30
416.31	258.10
416.68	259.96
417.06	262.20
417.43	264.22
417.81	266.49
418.18	268.95
418.55	271.50
418.93	274.10
419.30	276.90
419.67	279.86
420.04	283.03
420.42	286.15
420.79	289.94
421.16	293.54
421.54	297.37
421.91	301.37
422.28	305.54
422.66	309.79
423.03	313.91
423.40	318.31
423.77	323.00
424.15	327.87
424.52	332.74
424.89	338.18
425.26	343.46
425.64	348.37
426.01	353.71
426.38	359.55
426.75	365.27
427.13	371.13
427.50	377.57
427.87	383.87
428.24	390.46
428.61	396.55
428.99	403.26
429.36	410.67
429.73	418.06
430.10	425.38
430.47	432.89
430.85	440.70
431.22	448.56
431.59	456.94
431.96	464.96
432.33	474.10
432.70	482.80
433.08	492.95
433.45	502.76
433.82	512.23
434.19	522.64
434.56	533.06
434.93	543.06
435.30	552.82
435.68	563.80
436.05	574.56
436.42	585.08
436.79	594.91
437.16	605.31
437.53	616.36
437.90	627.08
438.27	637.83
438.64	649.19
439.01	659.69
439.38	669.17
439.75	678.05
440.13	688.28
440.50	698.08
440.87	706.35
441.24	714.76
441.61	724.19
441.98	730.78
442.35	739.00
442.72	747.10
443.09	755.06
443.46	760.14
443.83	763.89
444.20	767.68
444.57	772.48
444.94	775.15
445.31	777.70
445.68	780.47
446.05	782.44
446.42	782.29
446.79	782.43
447.16	782.30
447.53	782.88
447.90	780.04
448.27	777.17
448.64	772.53
449.01	769.79
449.37	763.70
449.74	758.16
450.11	750.70
450.48	742.81
450.85	734.77
451.22	728.12
451.59	721.42
451.96	715.06
452.33	706.01
452.70	698.08
453.07	688.30
453.43	678.52
453.80	668.70
454.17	659.44
454.54	650.33
454.91	640.53
455.28	630.91
455.65	622.14
456.02	613.08
456.38	605.46
456.75	595.70
457.12	587.79
457.49	579.85
457.86	572.35
458.23	565.57
458.59	558.18
458.96	550.60
459.33	544.06
459.70	537.22
460.07	532.06
460.43	525.98
460.80	520.08
461.17	514.88
461.54	509.39
461.91	504.15
462.27	499.09
462.64	494.70
463.01	489.76
463.38	484.90
463.74	480.05
464.11	475.70
464.48	471.92
464.85	467.75
465.21	464.63
465.58	461.19
465.95	457.34
466.32	453.78
466.68	450.21
467.05	446.80
467.42	443.40
467.78	439.74
468.15	436.33
468.52	434.04
468.88	430.76
469.25	427.89
469.62	425.65
469.98	423.12
470.35	420.52
470.72	418.30
471.08	415.93
471.45	413.96
471.82	411.97
472.18	409.58
472.55	407.94
472.92	406.06
473.28	404.31
473.65	402.47
474.02	400.84
474.38	399.42
474.75	398.18
475.11	396.98
475.48	395.96
475.85	394.91
476.21	393.90
476.58	393.04
476.94	392.38
477.31	391.46
477.67	390.43
478.04	389.95
478.41	389.39
478.77	389.07
479.14	388.54
479.50	388.38
479.87	388.37
480.23	388.29
480.60	387.98
480.96	387.73
481.33	387.90
481.69	387.97
482.06	388.26
482.42	388.11
482.79	388.22
483.15	388.63
483.52	389.36
483.88	389.93
484.25	390.50
484.61	391.11
484.98	391.83
485.34	392.82
485.71	393.76
486.07	395.05
486.44	395.90
486.80	397.02
487.17	398.17
487.53	399.78
487.90	401.33
488.26	403.07
488.62	404.88
488.99	406.59
489.35	408.48
489.72	410.35
490.08	412.56
490.44	414.61
490.81	416.79
491.17	418.89
491.54	421.08
491.90	423.42
492.26	426.06
492.63	428.81
492.99	431.48
493.36	434.11
493.72	436.97
494.08	440.03
494.45	443.14
494.81	446.30
495.17	449.14
495.54	452.20
495.90	455.51
496.26	458.95
496.63	462.50
496.99	465.87
497.35	469.51
497.72	473.19
498.08	477.00
498.44	480.81
498.80	485.00
499.17	489.10
499.53	493.15
499.89	497.25
500.26	501.16
500.62	505.37
500.98	509.78
501.34	513.91
501.71	518.12
502.07	522.25
502.43	526.30
502.79	530.65
503.16	534.97
503.52	539.26
503.88	543.45
504.24	547.59
504.60	551.97
504.97	556.36
505.33	560.74
505.69	565.19
506.05	569.50
506.41	573.42
506.78	577.50
507.14	581.57
507.50	585.58
507.86	589.76
508.22	593.68
508.59	597.42
508.95	601.42
509.31	605.38
509.67	609.37
510.03	613.41
510.39	617.43
510.75	621.30
511.12	625.02
511.48	628.72
511.84	632.30
512.20	635.81
512.56	639.38
512.92	642.66
513.28	646.10
513.64	649.37
514.00	652.53
514.37	655.50
514.73	658.76
515.09	661.62
515.45	664.44
515.81	667.39
516.17	670.42
516.53	673.25
516.89	676.05
517.25	678.63
517.61	681.05
517.97	683.40
518.33	685.46
518.69	687.83
519.05	690.23
519.41	692.72
519.77	695.20
520.13	697.26
520.49	699.40
520.85	701.40
521.21	703.37
521.57	705.55
521.93	707.63
522.29	709.70
522.65	711.54
523.01	713.39
523.37	715.02
523.73	716.79
524.09	718.40
524.45	720.15
524.81	722.17
525.17	724.44
525.53	726.45
525.89	728.69
526.25	730.45
526.61	732.05
526.97	733.80
527.33	735.62
527.68	737.73
528.04	739.71
528.40	741.50
528.76	743.62
529.12	745.71
529.48	747.85
529.84	749.60
530.20	751.88
530.56	754.29
530.91	757.02
531.27	759.26
531.63	761.44
531.99	763.47
532.35	765.20
532.71	767.01
533.07	769.07
533.42	771.19
533.78	773.46
534.14	775.80
534.50	777.78
534.86	779.69
535.21	781.67
535.57	783.93
535.93	786.08
536.29	788.43
536.65	790.48
537.00	792.55
537.36	794.90
537.72	797.23
538.08	799.28
538.44	801.22
538.79	803.29
539.15	805.42
539.51	807.96
539.87	810.63
540.22	813.17
540.58	816.02
540.94	818.22
541.29	820.56
541.65	822.63
542.01	825.78
542.37	828.65
542.72	831.26
543.08	833.72
543.44	836.58
543.79	838.73
544.15	841.50
544.51	844.47
544.87	847.38
545.22	850.35
545.58	853.20
545.94	855.91
546.29	858.80
546.65	861.48
547.01	863.97
547.36	866.72
547.72	869.30
548.07	871.60
548.43	874.46
548.79	877.15
549.14	880.19
549.50	882.24
549.86	884.53
550.21	886.88
550.57	889.52
550.92	892.12
551.28	894.81
551.64	897.40
551.99	899.85
552.35	902.36
552.70	904.81
553.06	907.30
553.41	909.92
553.77	912.66
554.13	915.55
554.48	918.35
554.84	920.94
555.19	923.40
555.55	926.03
555.90	928.25
556.26	931.00
556.61	933.49
556.97	935.93
557.32	938.52
557.68	941.28
558.03	944.04
558.39	946.19
558.74	949.00
559.10	951.45
559.45	953.89
559.81	956.63
560.16	958.51
560.52	961.07
560.87	963.82
561.23	966.10
561.58	968.37
561.94	970.50
562.29	972.50
562.64	974.57
563.00	976.50
563.35	979.30
563.71	981.80
564.06	984.37
564.42	986.73
564.77	989.20
565.12	991.31
565.48	993.50
565.83	995.70
566.19	997.60
566.54	999.52
566.89	1001.65
567.25	1003.33
567.60	1005.74
567.96	1007.56
568.31	1009.02
568.66	1010.59
569.02	1012.29
569.37	1013.83
569.72	1015.59
570.08	1017.37
570.43	1018.81
570.78	1019.63
571.14	1020.29
571.49	1021.12
571.84	1022.50
572.20	1023.05
572.55	1024.01
572.90	1024.48
573.26	1025.60
573.61	1026.77
573.96	1027.34
574.31	1027.39
574.67	1027.42
575.02	1027.31
575.37	1027.30
575.72	1026.95
576.08	1027.27
576.43	1027.22
576.78	1027.45
577.13	1027.71
577.49	1027.44
577.84	1027.54
578.19	1027.61
578.54	1027.46
578.90	1027.14
579.25	1026.34
579.60	1025.93
579.95	1025.29
580.30	1024.48
580.66	1023.46
581.01	1022.23
581.36	1021.42
581.71	1020.98
582.06	1020.28
582.42	1019.40
582.77	1018.45
583.12	1017.91
583.47	1016.60
583.82	1015.67
584.17	1014.13
584.53	1012.79
584.88	1011.59
585.23	1010.43
585.58	1009.38
585.93	1008.30
586.28	1007.37
586.63	1006.21
586.98	1005.15
587.34	1003.90
587.69	1002.97
588.04	1001.77
588.39	1000.53
588.74	998.96
589.09	997.19
589.44	995.53
589.79	994.20
590.14	992.95
590.49	991.45
590.84	989.92
591.19	988.34
591.54	986.43
591.89	983.95
592.25	982.02
592.60	979.85
592.95	977.62
593.30	975.50
593.65	973.14
594.00	970.90
594.35	968.97
594.70	966.40
595.05	964.14
595.40	961.77
595.75	959.26
596.10	957.22
596.45	955.04
596.80	952.91
597.15	950.70
597.50	948.11
597.85	945.92
598.19	943.85
598.54	941.54
598.89	939.62
599.24	937.82
599.59	935.71
599.94	933.47
600.29	931.09
600.64	928.69
600.99	925.87
601.34	923.69
601.69	920.75
602.04	918.59
602.39	915.97
602.74	913.54
603.08	911.16
603.43	908.67
603.78	906.42
604.13	903.91
604.48	901.36
604.83	899.09
605.18	896.37
605.53	893.38
605.87	890.30
606.22	887.61
606.57	884.88
606.92	882.36
607.27	879.88
607.62	877.30
607.96	874.62
608.31	872.33
608.66	869.27
609.01	866.20
609.36	863.05
609.70	859.90
610.05	856.68
610.40	853.60
610.75	850.52
611.10	847.25
611.44	843.90
611.79	840.75
612.14	837.22
612.49	833.47
612.83	830.27
613.18	827.19
613.53	823.80
613.88	820.42
614.22	816.87
614.57	813.17
614.92	809.44
615.27	806.05
615.61	802.53
615.96	799.37
616.31	796.45
616.65	793.80
617.00	790.84
617.35	787.90
617.70	784.50
618.04	781.05
618.39	777.80
618.74	774.59
619.08	771.14
619.43	768.28
619.78	765.22
620.12	761.93
620.47	758.65
620.82	755.54
621.16	752.56
621.51	749.56
621.85	746.58
622.20	743.59
622.55	740.61
622.89	737.61
623.24	734.64
623.59	731.70
623.93	728.51
624.28	725.40
624.62	722.30
624.97	719.62
625.32	716.68
625.66	713.70
626.01	710.80
626.35	708.00
626.70	704.77
627.04	702.01
627.39	698.90
627.73	695.71
628.08	692.73
628.43	689.78
628.77	686.69
629.12	683.39
629.46	680.32
629.81	676.92
630.15	673.81
630.50	670.66
630.84	667.30
631.19	663.72
631.53	660.65
631.88	657.33
632.22	654.03
632.57	651.10
632.91	648.06
633.26	645.13
633.60	641.94
633.95	638.96
634.29	636.08
634.64	633.53
634.98	630.63
635.32	627.90
635.67	625.05
636.01	622.41
636.36	619.84
636.70	617.43
637.05	614.86
637.39	612.05
637.73	609.50
638.08	607.36
638.42	605.32
638.77	602.67
639.11	599.94
639.45	597.35
639.80	594.78
640.14	592.11
640.49	589.35
640.83	586.91
641.17	584.39
641.52	581.82
641.86	578.97
642.20	576.63
642.55	573.87
642.89	571.33
643.23	568.63
643.58	566.30
643.92	563.75
644.26	561.25
644.61	559.23
644.95	556.66
645.29	553.82
645.64	550.96
645.98	548.48
646.32	546.39
646.66	544.01
647.01	541.52
647.35	539.23
647.69	536.95
648.04	534.71
648.38	532.21
648.72	529.55
649.06	527.16
649.41	524.90
649.75	522.60
650.09	520.12
650.43	517.60
650.78	514.95
651.12	512.46
651.46	509.91
651.80	507.20
652.14	504.96
652.49	502.71
652.83	500.47
653.17	498.28
653.51	495.84
653.85	493.49
654.20	491.04
654.54	488.62
654.88	486.19
655.22	483.50
655.56	481.06
655.90	478.85
656.25	476.63
656.59	474.26
656.93	472.10
657.27	469.88
657.61	467.64
657.95	465.59
658.29	463.41
658.64	461.50
658.98	459.11
659.32	456.78
659.66	454.54
660.00	452.41
660.34	450.14
660.68	448.06
661.02	445.81
661.36	443.79
661.70	441.64
662.05	439.66
662.39	438.02
662.73	436.37
663.07	434.57
663.41	432.75
663.75	430.89
664.09	428.93
664.43	426.99
664.77	425.13
665.11	423.21
665.45	421.28
665.79	419.35
666.13	417.67
666.47	415.87
666.81	414.09
667.15	412.17
667.49	410.54
667.83	408.81
668.17	407.06
668.51	405.38
668.85	403.69
669.19	402.25
669.53	400.45
669.87	398.58
670.21	396.97
670.55	395.28
670.89	393.77
671.23	392.26
671.57	390.80
671.91	389.43
672.25	387.92
672.58	386.67
672.92	385.21
673.26	383.91
673.60	382.55
673.94	381.13
674.28	379.87
674.62	378.63
674.96	377.24
675.30	375.96
675.64	374.63
675.97	373.39
676.31	372.01
676.65	370.58
676.99	369.52
677.33	368.13
677.67	366.82
678.01	365.36
678.34	364.04
678.68	362.80
679.02	361.51
679.36	360.20
679.70	358.73
680.04	357.54
680.37	356.20
680.71	354.95
681.05	353.87
681.39	352.63
681.73	351.29
682.06	350.22
682.40	349.15
682.74	348.04
683.08	347.00
683.42	345.68
683.75	344.70
684.09	343.40
684.43	342.17
684.77	341.24
685.10	340.18
685.44	339.07
685.78	337.89
686.12	336.75
686.45	335.81
686.79	334.63
687.13	333.56
687.46	332.54
687.80	331.61
688.14	330.49
688.48	329.59
688.81	328.50
689.15	327.36
689.49	326.45
689.82	325.50
690.16	324.41
690.50	323.58
690.83	322.53
691.17	321.64
691.51	320.65
691.84	319.63
692.18	318.75
692.52	317.82
692.85	316.92
693.19	316.10
693.52	315.14
693.86	314.47
694.20	313.51
694.53	312.63
694.87	311.67
695.21	310.75
695.54	309.76
695.88	308.91
696.21	308.08
696.55	307.26
696.88	306.37
697.22	305.57
697.56	304.68
697.89	303.77
698.23	302.94
698.56	302.30
698.90	301.66
699.23	300.71
699.57	299.87
699.90	299.07
700.24	298.20
700.58	297.52
700.91	296.68
701.25	296.14
701.58	295.59
701.92	294.88
702.25	294.25
702.59	293.56
702.92	292.87
703.26	292.31
703.59	291.53
703.93	291.08
704.26	290.51
704.60	289.95
704.93	289.38
705.26	288.82
705.60	288.23
705.93	287.49
706.27	287.05
706.60	286.71
706.94	286.27
707.27	285.66
707.61	284.98
707.94	284.44
708.27	283.77
708.61	283.07
708.94	282.49
709.28	281.88
709.61	281.33
709.94	280.88
710.28	280.29
710.61	279.73
710.95	278.97
711.28	278.49
711.61	278.03
711.95	277.56
712.28	276.98
712.61	276.36
712.95	275.95
713.28	275.57
713.61	274.89
713.95	274.30
714.28	273.89
714.61	273.30
714.95	272.78
715.28	272.20
715.61	271.57
715.95	271.25
716.28	270.84
716.61	270.40
716.95	269.96
717.28	269.46
717.61	269.04
717.94	268.63
718.28	268.04
718.61	267.49
718.94	267.06
719.27	266.62
719.61	266.27
719.94	265.75
720.27	265.15
720.60	264.74
720.94	264.36
721.27	263.99
721.60	263.82
721.93	263.48
722.27	263.16
722.60	262.95
722.93	262.42
723.26	262.08
723.59	261.64
723.93	261.16
724.26	260.83
724.59	260.42
724.92	260.02
725.25	259.71
725.59	259.36
725.92	258.97
726.25	258.55
726.58	258.15
726.91	257.90
727.24	257.58
727.57	257.31
727.91	256.99
728.24	256.73
728.57	256.28
728.90	256.01
729.23	255.67
729.56	255.33
729.89	255.00
730.22	254.57
730.55	254.27
730.89	254.07
731.22	253.71
731.55	253.50
731.88	253.16
732.21	252.84
732.54	252.51
732.87	252.37
733.20	252.18
733.53	252.00
733.86	251.71
734.19	251.46
734.52	251.31
734.85	251.21
735.18	250.89
735.51	250.73
735.84	250.44
736.17	250.33
736.50	250.14
736.83	250.23
737.16	250.04
737.49	249.83
737.82	249.59
738.15	249.49
738.48	249.27
738.81	249.18
739.14	248.93
739.47	248.79
739.80	248.57
740.13	248.43
740.46	248.28
740.79	248.15
741.12	248.09
741.45	247.83
741.78	247.56
742.11	247.41
742.44	247.15
742.77	247.16
743.10	247.06
743.43	246.86
743.75	246.44
744.08	246.49
744.41	246.49
744.74	246.37
745.07	246.21
745.40	246.09
745.73	246.05
746.06	245.95
746.39	245.84
746.71	245.66
747.04	245.41
747.37	245.24
747.70	244.99
748.03	244.76
748.36	244.58
748.68	244.37
749.01	244.24
749.34	244.12
749.67	243.88
750.00	243.72
750.33	243.68
750.65	243.55
750.98	243.24
751.31	243.00
751.64	242.82
751.97	242.75
752.29	242.49
752.62	242.20
752.95	242.15
753.28	242.00
753.60	241.74
753.93	241.68
754.26	241.54
754.59	241.37
754.91	241.19
755.24	240.99
755.57	240.83
755.90	240.56
756.22	240.40
756.55	240.18
756.88	239.86
757.20	239.61
757.53	239.46
757.86	239.38
758.19	239.20
758.51	239.04
758.84	238.75
759.17	238.62
759.49	238.55
759.82	238.37
760.15	238.30
760.47	238.18
760.80	238.01
761.13	237.84
761.45	237.72
761.78	237.57
762.11	237.50
762.43	237.33
762.76	237.17
763.08	237.05
763.41	237.00
763.74	236.90
764.06	236.79
764.39	236.58
764.71	236.42
765.04	236.37
765.37	236.30
765.69	236.24
766.02	236.19
766.34	236.07
766.67	235.92
767.00	235.80
767.32	235.90
767.65	235.91
767.97	235.73
768.30	235.70
768.62	235.59
768.95	235.38
769.27	235.35
769.60	235.35
769.92	235.26
770.25	235.13
770.57	235.12
770.90	235.03
771.22	234.91
771.55	234.72
771.87	234.69
772.20	234.59
772.52	234.66
772.85	234.84
773.17	234.72
773.50	234.64
773.82	234.51
774.15	234.44
774.47	234.31
774.80	234.39
775.12	234.22
775.45	234.24
775.77	234.30
776.09	234.18
776.42	234.12
776.74	234.22
777.07	234.13
777.39	234.10
777.72	234.02
778.04	233.99
778.36	234.07
778.69	234.05
779.01	233.98
779.33	233.77
779.66	233.51
779.98	233.49
780.31	233.47
780.63	233.57
780.95	233.41
781.28	233.34
781.60	233.32
781.92	233.38
782.25	233.32
782.57	233.28
782.89	233.27
783.22	233.17
783.54	233.07
783.86	233.03
784.19	232.93
784.51	233.02
784.83	233.14
785.16	233.12
785.48	233.00
785.80	232.99
786.12	232.99
786.45	232.91
786.77	232.90
787.09	232.79
787.42	232.76
787.74	232.78
788.06	232.81
788.38	232.75
788.71	232.71
789.03	232.75
789.35	232.70
789.67	232.71
789.99	232.80
790.32	232.73
790.64	232.78
790.96	232.92
791.28	232.80
791.61	232.75
791.93	232.70
792.25	232.74
792.57	232.83
792.89	232.76
793.21	232.78
793.54	232.67
793.86	232.74
794.18	232.64
794.50	232.46
794.82	232.36
795.14	232.23
795.47	232.17
795.79	232.15
796.11	232.12
796.43	232.01
796.75	231.90
797.07	231.87
797.39	231.72
797.71	231.42
798.04	231.30
798.36	231.25
798.68	231.18
799.00	231.04
799.32	230.89
799.64	230.88
799.96	230.79
800.28	230.79
800.60	230.69
800.92	230.59
801.24	230.57
801.56	230.56
801.89	230.57
802.21	230.50
802.53	230.31
802.85	230.33
803.17	230.42
803.49	230.42
803.81	230.30
804.13	230.30
804.45	230.22
804.77	230.20
805.09	230.13
805.41	230.01
805.73	229.99
806.05	229.92
806.37	229.86
806.69	229.81
807.01	229.80
807.33	229.82
807.65	229.80
807.97	229.85
808.28	229.77
808.60	229.66
808.92	229.64
809.24	229.76
809.56	229.64
809.88	229.55
810.20	229.44
810.52	229.49
810.84	229.51
811.16	229.59
811.48	229.56
811.80	229.67
812.12	229.70
812.43	229.84
812.75	229.86
813.07	229.88
813.39	230.00
813.71	229.90
814.03	229.88
814.35	229.92
814.67	229.91
814.98	230.00
815.30	230.11
815.62	230.13
815.94	230.04
816.26	230.20
816.58	230.21
816.89	230.33
817.21	230.36
817.53	230.36
817.85	230.39
818.17	230.46
818.48	230.30
818.80	230.26
819.12	230.14
819.44	230.15
819.76	230.10
820.07	230.06
820.39	230.15
820.71	230.12
821.03	230.10
821.34	230.09
821.66	229.99
821.98	229.94
822.30	229.89
822.61	229.97
822.93	229.86
823.25	229.92
823.57	229.86
823.88	229.75
824.20	229.72
824.52	229.76
824.83	229.79
825.15	229.88
825.47	229.92
825.79	230.00
826.10	230.00
826.42	230.05
826.74	230.05
827.05	230.10
827.37	230.10
827.69	230.21
828.00	230.16
828.32	230.21
828.64	230.21
828.95	230.30
829.27	230.24
829.58	230.27
829.90	230.20
830.22	230.20
830.53	230.33
830.85	230.33
831.17	230.21
831.48	230.12
831.80	230.12
832.11	230.08
832.43	229.97
832.75	229.91
833.06	229.91
833.38	229.78
833.69	229.75
834.01	229.78
834.32	229.70
834.64	229.77
834.96	229.77
835.27	229.72
835.59	229.74
835.90	229.59
836.22	229.50
836.53	229.40
836.85	229.31
837.16	229.43
837.48	229.35
837.79	229.42
838.11	229.44
838.42	229.35
838.74	229.31
839.05	229.20
839.37	229.18
839.68	229.16
840.00	229.14
840.31	229.06
840.63	228.93
840.94	228.85
841.26	228.73
841.57	228.67
841.88	228.66
842.20	228.49
842.51	228.57
842.83	228.57
843.14	228.67
843.46	228.81
843.77	228.61
844.08	228.62
844.40	228.52
844.71	228.49
845.03	228.51
845.34	228.41
845.65	228.49
845.97	228.40
846.28	228.37
846.60	228.36
846.91	228.28
847.22	228.32
847.54	228.29
847.85	228.33
848.16	228.30
848.48	228.28
848.79	228.37
849.10	228.33
849.42	228.35
849.73	228.23
850.04	228.12
850.36	228.06
850.67	228.11
850.98	228.10
851.30	228.10
851.61	228.17
851.92	228.26
852.23	228.31
852.55	228.50
852.86	228.50
853.17	228.51
853.49	228.63
853.80	228.70
854.11	228.73
854.42	228.73
854.74	228.72
855.05	228.80
855.36	228.79
855.67	228.86
855.99	228.85
856.30	229.11
856.61	229.16
856.92	229.25
857.23	229.19
857.55	229.32
857.86	229.37
858.17	229.33
858.48	229.43
858.79	229.46
859.11	229.40
859.42	229.36
859.73	229.41
860.04	229.42
860.35	229.40
860.66	229.38
860.98	229.30
861.29	229.39
861.60	229.29
861.91	229.33
862.22	229.31
862.53	229.40
862.84	229.21
863.16	229.30
863.47	229.26
863.78	229.31
864.09	229.26
864.40	229.20
864.71	229.16
865.02	229.16
865.33	229.10
865.64	229.04
865.95	229.14
866.27	229.28
866.58	229.21
866.89	229.21
867.20	229.15
867.51	229.22
867.82	229.21
868.13	229.36
868.44	229.29
868.75	229.37
869.06	229.26
869.37	229.20
869.68	229.10
869.99	229.06
870.30	229.11
870.61	229.15
870.92	229.15
871.23	229.13
871.54	229.11
871.85	229.18
872.16	229.24
872.47	229.12
872.78	228.98
873.09	229.03
873.40	229.01
873.71	229.06
874.02	229.02
874.33	228.97
874.64	228.80
874.95	228.80
875.26	228.67
875.56	228.64
875.87	228.61
876.18	228.58
876.49	228.79
876.80	228.70
877.11	228.64
877.42	228.60
877.73	228.56
878.04	228.54
878.35	228.45
878.66	228.35
878.96	228.29
879.27	228.23
879.58	228.17
879.89	228.08
880.20	228.07
880.51	228.07
880.82	228.04
881.12	228.06
881.43	228.09
881.74	228.16
882.05	228.20
882.36	228.30
882.67	228.29
882.97	228.02
883.28	227.96
883.59	227.92
883.90	227.90
884.21	227.94
884.51	227.86
884.82	227.84
885.13	227.91
885.44	227.89
885.74	227.91
886.05	227.88
886.36	227.90
886.67	227.83
886.98	227.84
887.28	227.85
887.59	227.93
887.90	227.89
888.20	227.81
888.51	227.84
888.82	227.84
889.13	227.85
889.43	228.11
889.74	228.24
890.05	228.28
890.35	228.35
890.66	228.29
890.97	228.34
891.28	228.31
891.58	228.34
891.89	228.43
892.20	228.39
892.50	228.51
892.81	228.62
893.12	228.65
893.42	228.70
893.73	228.74
894.04	228.77
894.34	228.86
894.65	229.00
894.95	228.93
895.26	228.84
895.57	228.99
895.87	228.83
896.18	228.87
896.48	228.92
896.79	228.95
897.10	229.08
897.40	229.10
897.71	229.23
898.01	229.29
898.32	229.39
898.63	229.49
898.93	229.51
899.24	229.52
899.54	229.57
899.85	229.47
900.15	229.57
900.46	229.60
900.76	229.61
901.07	229.50
901.38	229.54
901.68	229.74
901.99	229.58
902.29	229.60
902.60	229.58
902.90	229.67
903.21	229.59
903.51	229.60
903.82	229.65
904.12	229.65
904.43	229.62
904.73	229.52
905.03	229.51
905.34	229.73
905.64	229.71
905.95	229.69
906.25	229.80
906.56	229.70
906.86	229.69
907.17	229.62
907.47	229.65
907.77	229.67
908.08	229.53
908.38	229.65
908.69	229.69
908.99	229.59
909.30	229.43
909.60	229.49
909.90	229.47
910.21	229.38
910.51	229.29
910.81	229.30
911.12	229.23
911.42	229.27
911.73	228.96
912.03	228.89
912.33	228.91
912.64	228.86
912.94	228.83
913.24	228.78
913.55	228.75
913.85	228.76
914.15	228.79
914.46	228.80
914.76	228.65
915.06	228.58
915.37	228.52
915.67	228.55
915.97	228.54
916.27	228.46
916.58	228.42
916.88	228.48
917.18	228.39
917.49	228.58
917.79	228.43
918.09	228.42
918.39	228.48
918.70	228.39
919.00	228.39
919.30	228.45
919.60	228.42
919.91	228.40
920.21	228.42
920.51	228.32
920.81	228.28
921.12	228.32
921.42	228.34
921.72	228.40
922.02	228.29
922.32	228.28
922.63	228.30
922.93	228.43
923.23	228.38
923.53	228.36
923.83	228.24
924.13	228.30
924.44	228.30
924.74	228.26
925.04	228.43
925.34	228.44
925.64	228.37
925.94	228.35
926.24	228.47
926.55	228.36
926.85	228.34
927.15	228.36
927.45	228.30
927.75	228.24
928.05	228.30
928.35	228.40
928.65	228.50
928.95	228.57
929.26	228.44
929.56	228.42
929.86	228.42
930.16	228.50
930.46	228.54
930.76	228.60
931.06	228.56
931.36	228.44
931.66	228.46
931.96	228.56
932.26	228.65
932.56	228.60
932.86	228.61
933.16	228.67
933.46	228.64
933.76	228.72
934.06	228.87
934.36	228.99
934.66	229.02
934.96	228.99
935.26	229.00
935.56	229.08
935.86	229.11
936.16	229.16
936.46	229.20
936.76	229.16
937.06	229.17
937.36	229.28
937.66	229.41
937.96	229.40
938.26	229.33
938.56	229.28
938.86	229.36
939.16	229.53
939.46	229.60
939.76	229.69
940.06	229.79
940.35	229.77
940.65	229.64
940.95	229.69
941.25	229.65
941.55	229.64
941.85	229.64
942.15	229.79
942.45	229.86
942.75	229.82
943.04	229.78
943.34	229.79
943.64	229.69
943.94	229.56
944.24	229.63
944.54	229.74
944.84	229.71
945.13	229.63
945.43	229.52
945.73	229.59
946.03	229.57
946.33	229.45
946.62	229.40
946.92	229.36
947.22	229.31
947.52	229.41
947.82	229.35
948.11	229.35
948.41	229.17
948.71	229.10
949.01	229.04
949.31	229.08
949.60	229.03
949.90	229.12
950.20	229.14
950.50	229.08
950.79	228.94
951.09	228.96
951.39	228.87
951.69	228.91
951.98	228.82
952.28	228.77
952.58	228.75
952.87	228.68
953.17	228.71
953.47	228.66
953.76	228.50
954.06	228.44
954.36	228.40
954.66	228.40
954.95	228.36
955.25	228.38
955.55	228.39
955.84	228.32
956.14	228.22
956.44	228.27
956.73	228.16
957.03	228.23
957.32	228.14
957.62	228.09
957.92	228.07
958.21	227.96
958.51	228.08
958.81	228.02
959.10	227.99
959.40	228.06
959.69	228.08
959.99	228.09
960.29	228.00
960.58	227.97
960.88	227.95
961.17	227.94
961.47	227.98
961.76	227.90
962.06	227.86
962.36	227.89
962.65	227.79
962.95	227.76
963.24	227.63
963.54	227.73
963.83	227.77
964.13	227.67
964.42	227.64
964.72	227.44
965.01	227.46
965.31	227.39
965.60	227.20
965.90	227.26
966.19	227.22
966.49	227.35
966.78	227.37
967.08	227.40
967.37	227.37
967.67	227.25
967.96	227.35
968.26	227.42
968.55	227.41
968.85	227.49
969.14	227.53
969.43	227.58
969.73	227.55
970.02	227.60
970.32	227.55
970.61	227.60
970.91	227.70
971.20	227.69
971.49	227.65
971.79	227.72
972.08	227.66
972.38	227.67
972.67	227.67
972.96	227.73
973.26	227.73
973.55	227.86
973.85	227.94
974.14	227.99
974.43	228.00
974.73	228.05
975.02	228.00
975.31	228.03
975.61	228.07
975.90	228.09
976.19	228.08
976.49	228.20
976.78	228.30
977.07	228.37
977.37	228.52
977.66	228.73
977.95	228.74
978.24	228.80
978.54	228.90
978.83	228.97
979.12	229.05
979.42	229.06
979.71	228.96
980.00	229.00
980.29	228.95
980.59	228.99
980.88	229.06
981.17	229.17
981.46	229.21
981.76	229.21
982.05	229.24
982.34	229.24
982.63	229.27
982.93	229.32
983.22	229.30
983.51	229.33
983.80	229.39
984.09	229.50
984.39	229.43
984.68	229.38
984.97	229.37
985.26	229.30
985.55	229.42
985.85	229.47
986.14	229.46
986.43	229.50
986.72	229.44
987.01	229.34
987.30	229.29
987.59	229.22
987.89	229.25
988.18	229.17
988.47	229.19
988.76	229.15
989.05	228.93
989.34	228.90
989.63	228.89
989.92	228.78
990.22	228.67
990.51	228.76
990.80	228.82
991.09	228.75
991.38	228.73
991.67	228.63
991.96	228.54
992.25	228.51
992.54	228.43
992.83	228.42
993.12	228.32
993.41	228.37
993.70	228.34
993.99	228.32
994.28	228.34
994.58	228.36
994.87	228.25
995.16	228.31
995.45	228.16
995.74	227.97
996.03	228.01
996.32	228.00
996.61	227.86
996.90	227.77
997.19	227.75
997.48	227.65
997.77	227.51
998.06	227.57
998.34	227.61
998.63	227.58
998.92	227.58
999.21	227.63
999.50	227.55
999.79	227.50
1000.08	227.47
1000.37	227.51
1000.66	227.39
1000.95	227.46
1001.24	227.49
1001.53	227.56
1001.82	227.58
1002.11	227.45
1002.40	227.48
1002.68	227.51
1002.97	227.68
1003.26	227.56
1003.55	227.57
1003.84	227.65
1004.13	227.75
1004.42	227.61
1004.71	227.62
1004.99	227.58
1005.28	227.63
1005.57	227.56
1005.86	227.62
1006.15	227.65
1006.44	227.52
1006.72	227.60
1007.01	227.63
1007.30	227.70
1007.59	227.74
1007.88	227.74
1008.17	227.85
1008.45	227.79
1008.74	227.71
1009.03	227.54
1009.32	227.55
1009.60	227.50
1009.89	227.54
1010.18	227.47
1010.47	227.58
1010.76	227.61
1011.04	227.73
1011.33	227.74
1011.62	227.88
1011.91	227.83
1012.19	227.86
1012.48	227.95
1012.77	227.99
1013.05	228.09
1013.34	228.04
1013.63	228.00
1013.92	228.10
1014.20	228.09
1014.49	228.13
1014.78	228.23
1015.06	228.29
1015.35	228.43
1015.64	228.54
1015.92	228.59
1016.21	228.62
1016.50	228.60
1016.78	228.62
1017.07	228.62
1017.36	228.63
1017.64	228.55
1017.93	228.80
1018.22	228.83
1018.50	228.82
1018.79	228.85
1019.08	228.72
1019.36	228.76
1019.65	228.81
1019.93	228.91
1020.22	229.01
1020.51	229.30
1020.79	229.34
1021.08	229.40
1021.36	228.30
1021.65	229.40
1021.94	228.00
1022.22	229.00
1022.51	228.20
1022.79	231.50
1023.08	230.50
1023.36	234.10
1023.65	229.00
>>>>>End Processed Spectral Data<<<<<
