SpectraSuite Data File
++++++++++++++++++++++++++++++++++++
Date: Fri Feb 01 14:39:20 EST 2013
User: group
Dark Spectrum Present: No
Reference Spectrum Present: No
Number of Sampled Component Spectra: 1
Spectrometers: USB2E7196
Integration Time (usec): 70000 (USB2E7196)
Spectra Averaged: 10 (USB2E7196)
Boxcar Smoothing: 10 (USB2E7196)
Correct for Electrical Dark: No (USB2E7196)
Strobe/Lamp Enabled: No (USB2E7196)
Correct for Detector Non-linearity: No (USB2E7196)
Correct for Stray Light: No (USB2E7196)
Number of Pixels in Processed Spectrum: 2048
>>>>>Begin Processed Spectral Data<<<<<
339.09	0.00
339.48	216.20
339.86	217.90
340.24	218.60
340.63	220.80
341.01	224.80
341.39	225.00
341.78	224.50
342.16	227.30
342.54	227.80
342.93	215.06
343.31	225.93
343.69	226.52
344.07	226.97
344.46	227.51
344.84	227.87
345.22	228.02
345.60	228.21
345.99	228.46
346.37	228.57
346.75	228.67
347.13	228.71
347.52	228.68
347.90	228.83
348.28	228.86
348.66	228.90
349.05	228.90
349.43	228.97
349.81	228.93
350.19	228.98
350.57	229.02
350.96	229.07
351.34	229.10
351.72	229.18
352.10	229.28
352.48	229.24
352.87	229.30
353.25	229.35
353.63	229.41
354.01	229.30
354.39	229.26
354.77	229.27
355.15	229.46
355.54	229.55
355.92	229.60
356.30	229.62
356.68	229.81
357.06	229.76
357.44	229.72
357.82	229.81
358.20	229.85
358.58	229.87
358.97	229.93
359.35	230.02
359.73	230.01
360.11	230.03
360.49	230.04
360.87	230.09
361.25	230.10
361.63	230.09
362.01	230.22
362.39	230.30
362.77	230.32
363.15	230.21
363.53	230.11
363.91	230.07
364.29	230.01
364.67	229.85
365.05	229.93
365.43	230.00
365.81	230.02
366.19	230.07
366.57	230.14
366.95	230.09
367.33	229.98
367.71	229.90
368.09	229.91
368.47	229.93
368.85	229.92
369.23	229.92
369.61	229.86
369.99	229.78
370.37	229.71
370.75	229.70
371.13	229.64
371.51	229.61
371.89	229.50
372.27	229.55
372.65	229.49
373.03	229.39
373.41	229.26
373.78	229.17
374.16	229.02
374.54	228.85
374.92	228.62
375.30	228.52
375.68	228.36
376.06	228.28
376.44	228.18
376.82	228.03
377.19	227.96
377.57	227.84
377.95	227.83
378.33	227.78
378.71	227.70
379.09	227.60
379.47	227.62
379.84	227.58
380.22	227.41
380.60	227.29
380.98	227.30
381.36	227.19
381.73	227.02
382.11	227.00
382.49	226.96
382.87	227.03
383.25	227.01
383.62	227.34
384.00	227.22
384.38	227.21
384.76	227.19
385.13	227.21
385.51	227.14
385.89	226.98
386.27	226.91
386.64	226.81
387.02	226.76
387.40	226.63
387.78	226.56
388.15	226.53
388.53	226.54
388.91	226.56
389.29	226.60
389.66	226.65
390.04	226.61
390.42	226.68
390.79	226.65
391.17	226.60
391.55	226.33
391.92	226.42
392.30	226.43
392.68	226.51
393.05	226.53
393.43	226.69
393.81	226.75
394.18	226.76
394.56	226.85
394.94	226.92
395.31	227.02
395.69	227.19
396.06	227.24
396.44	227.25
396.82	227.21
397.19	227.34
397.57	227.48
397.95	227.63
398.32	227.70
398.70	227.80
399.07	228.05
399.45	228.11
399.82	228.14
400.20	228.16
400.58	228.24
400.95	228.14
401.33	228.24
401.70	228.50
402.08	228.59
402.45	228.58
402.83	228.75
403.20	228.85
403.58	228.84
403.95	229.02
404.33	229.25
404.71	229.41
405.08	229.67
405.46	229.73
405.83	229.86
406.21	230.00
406.58	230.17
406.96	230.21
407.33	230.40
407.70	230.60
408.08	230.87
408.45	230.99
408.83	231.29
409.20	231.50
409.58	231.61
409.95	231.92
410.33	232.27
410.70	232.43
411.08	232.71
411.45	233.15
411.82	233.36
412.20	233.69
412.57	234.11
412.95	234.39
413.32	234.84
413.69	235.23
414.07	235.66
414.44	236.12
414.82	236.71
415.19	237.25
415.56	237.84
415.94	238.40
416.31	239.06
416.68	239.70
417.06	240.30
417.43	240.97
417.81	241.84
418.18	242.69
418.55	243.60
418.93	244.44
419.30	245.30
419.67	246.30
420.04	247.30
420.42	248.29
420.79	249.51
421.16	250.62
421.54	251.90
421.91	253.16
422.28	254.57
422.66	255.96
423.03	257.35
423.40	258.63
423.77	260.19
424.15	261.74
424.52	263.40
424.89	265.28
425.26	266.98
425.64	268.47
426.01	270.15
426.38	271.96
426.75	273.84
427.13	275.81
427.50	277.83
427.87	279.85
428.24	281.92
428.61	283.84
428.99	286.07
429.36	288.34
429.73	290.51
430.10	292.71
430.47	294.92
430.85	297.39
431.22	299.83
431.59	302.54
431.96	305.11
432.33	307.95
432.70	310.60
433.08	313.76
433.45	316.75
433.82	319.79
434.19	323.07
434.56	326.26
434.93	329.24
435.30	332.34
435.68	335.70
436.05	338.97
436.42	342.22
436.79	345.23
437.16	348.38
437.53	351.98
437.90	355.36
438.27	358.64
438.64	361.88
439.01	365.20
439.38	367.84
439.75	370.35
440.13	373.20
440.50	375.99
440.87	378.42
441.24	380.69
441.61	383.29
441.98	385.22
442.35	387.55
442.72	389.84
443.09	392.11
443.46	393.59
443.83	394.57
444.20	395.30
444.57	396.51
444.94	397.24
445.31	397.64
445.68	398.24
446.05	398.59
446.42	398.54
446.79	398.34
447.16	397.86
447.53	397.85
447.90	396.94
448.27	395.93
448.64	394.15
449.01	393.12
449.37	391.18
449.74	389.13
450.11	386.74
450.48	383.95
450.85	381.12
451.22	378.80
451.59	376.62
451.96	374.53
452.33	371.57
452.70	368.91
453.07	365.90
453.43	362.62
453.80	359.50
454.17	356.49
454.54	353.58
454.91	350.71
455.28	347.64
455.65	344.80
456.02	342.05
456.38	339.67
456.75	336.92
457.12	334.23
457.49	331.81
457.86	329.25
458.23	327.35
458.59	325.01
458.96	322.52
459.33	320.30
459.70	318.14
460.07	316.45
460.43	314.42
460.80	312.48
461.17	310.84
461.54	309.11
461.91	307.40
462.27	305.73
462.64	304.29
463.01	302.70
463.38	301.13
463.74	299.38
464.11	297.99
464.48	296.61
464.85	295.19
465.21	294.09
465.58	293.00
465.95	291.63
466.32	290.49
466.68	289.34
467.05	288.11
467.42	287.14
467.78	285.99
468.15	284.88
468.52	284.10
468.88	282.92
469.25	281.96
469.62	281.17
469.98	280.24
470.35	279.37
470.72	278.49
471.08	277.59
471.45	276.99
471.82	276.35
472.18	275.48
472.55	274.98
472.92	274.24
473.28	273.60
473.65	272.91
474.02	272.28
474.38	271.82
474.75	271.36
475.11	270.63
475.48	270.23
475.85	269.82
476.21	269.21
476.58	268.72
476.94	268.45
477.31	267.95
477.67	267.55
478.04	267.21
478.41	267.02
478.77	266.85
479.14	266.44
479.50	266.05
479.87	265.90
480.23	265.69
480.60	265.43
480.96	265.20
481.33	265.02
481.69	264.89
482.06	264.62
482.42	264.54
482.79	264.53
483.15	264.31
483.52	264.27
483.88	264.17
484.25	264.22
484.61	263.91
484.98	263.94
485.34	263.97
485.71	263.90
486.07	263.87
486.44	263.77
486.80	263.77
487.17	263.90
487.53	263.98
487.90	263.98
488.26	264.04
488.62	264.12
488.99	264.11
489.35	264.10
489.72	264.29
490.08	264.23
490.44	264.32
490.81	264.36
491.17	264.46
491.54	264.70
491.90	264.77
492.26	265.09
492.63	265.21
492.99	265.26
493.36	265.52
493.72	265.72
494.08	265.88
494.45	266.08
494.81	266.22
495.17	266.48
495.54	266.80
495.90	267.25
496.26	267.66
496.63	268.09
496.99	268.51
497.35	268.91
497.72	269.41
498.08	269.78
498.44	270.31
498.80	270.78
499.17	271.24
499.53	271.82
499.89	272.33
500.26	272.82
500.62	273.46
500.98	274.03
501.34	274.68
501.71	275.30
502.07	275.98
502.43	276.66
502.79	277.30
503.16	278.11
503.52	278.76
503.88	279.39
504.24	280.26
504.60	281.10
504.97	281.96
505.33	282.86
505.69	283.97
506.05	284.86
506.41	285.86
506.78	287.04
507.14	288.10
507.50	289.44
507.86	290.80
508.22	292.22
508.59	293.49
508.95	294.90
509.31	296.54
509.67	297.99
510.03	299.68
510.39	301.22
510.75	302.76
511.12	304.47
511.48	306.33
511.84	308.17
512.20	310.22
512.56	312.21
512.92	314.47
513.28	316.61
513.64	319.05
514.00	321.48
514.37	323.90
514.73	326.47
515.09	329.02
515.45	331.65
515.81	334.43
516.17	337.33
516.53	340.27
516.89	343.20
517.25	346.54
517.61	349.76
517.97	353.20
518.33	356.71
518.69	360.26
519.05	363.99
519.41	367.58
519.77	371.48
520.13	375.25
520.49	379.15
520.85	383.22
521.21	387.44
521.57	391.65
521.93	395.80
522.29	400.46
522.65	404.86
523.01	409.30
523.37	413.83
523.73	418.62
524.09	423.55
524.45	428.61
524.81	433.50
525.17	438.65
525.53	443.81
525.89	449.12
526.25	454.60
526.61	460.03
526.97	465.91
527.33	471.59
527.68	477.60
528.04	483.48
528.40	489.20
528.76	495.15
529.12	501.30
529.48	507.71
529.84	513.76
530.20	520.25
530.56	527.01
530.91	533.71
531.27	540.36
531.63	546.70
531.99	553.41
532.35	560.20
532.71	566.98
533.07	574.16
533.42	581.40
533.78	588.42
534.14	595.63
534.50	602.26
534.86	609.34
535.21	616.46
535.57	623.80
535.93	631.19
536.29	638.71
536.65	646.21
537.00	653.63
537.36	661.13
537.72	668.65
538.08	676.03
538.44	683.31
538.79	690.91
539.15	698.49
539.51	705.97
539.87	713.97
540.22	721.89
540.58	729.43
540.94	736.60
541.29	744.20
541.65	751.73
542.01	759.88
542.37	767.76
542.72	775.50
543.08	782.93
543.44	790.83
543.79	797.95
544.15	805.67
544.51	813.27
544.87	820.71
545.22	828.19
545.58	835.58
545.94	843.01
546.29	850.36
546.65	857.82
547.01	865.05
547.36	871.82
547.72	878.89
548.07	885.90
548.43	893.17
548.79	899.84
549.14	906.60
549.50	913.24
549.86	919.70
550.21	926.40
550.57	933.24
550.92	939.83
551.28	946.71
551.64	953.09
551.99	959.67
552.35	966.20
552.70	972.55
553.06	979.40
553.41	986.05
553.77	992.27
554.13	998.59
554.48	1005.10
554.84	1011.46
555.19	1017.25
555.55	1023.34
555.90	1029.24
556.26	1035.63
556.61	1041.69
556.97	1047.47
557.32	1053.38
557.68	1059.01
558.03	1064.74
558.39	1070.29
558.74	1076.24
559.10	1081.65
559.45	1087.06
559.81	1092.87
560.16	1097.84
560.52	1102.84
560.87	1108.05
561.23	1113.21
561.58	1118.71
561.94	1123.69
562.29	1128.50
562.64	1133.29
563.00	1137.95
563.35	1142.89
563.71	1147.98
564.06	1152.64
564.42	1157.28
564.77	1161.95
565.12	1166.62
565.48	1171.26
565.83	1175.39
566.19	1179.51
566.54	1183.57
566.89	1187.68
567.25	1191.41
567.60	1196.05
567.96	1199.83
568.31	1203.61
568.66	1207.20
569.02	1210.36
569.37	1213.30
569.72	1216.59
570.08	1219.89
570.43	1223.10
570.78	1226.03
571.14	1228.18
571.49	1230.99
571.84	1234.09
572.20	1236.50
572.55	1238.72
572.90	1240.66
573.26	1243.04
573.61	1244.97
573.96	1246.87
574.31	1248.28
574.67	1249.50
575.02	1250.42
575.37	1251.72
575.72	1252.12
576.08	1253.36
576.43	1254.04
576.78	1255.26
577.13	1256.40
577.49	1257.33
577.84	1258.22
578.19	1258.59
578.54	1259.27
578.90	1259.15
579.25	1258.70
579.60	1258.71
579.95	1258.50
580.30	1258.29
580.66	1258.04
581.01	1257.57
581.36	1257.32
581.71	1257.33
582.06	1257.39
582.42	1256.89
582.77	1256.07
583.12	1255.92
583.47	1255.67
583.82	1255.59
584.17	1254.70
584.53	1253.95
584.88	1253.08
585.23	1251.97
585.58	1251.42
585.93	1250.58
586.28	1250.32
586.63	1249.73
586.98	1248.50
587.34	1248.03
587.69	1247.20
588.04	1246.15
588.39	1245.23
588.74	1243.41
589.09	1241.71
589.44	1239.68
589.79	1238.36
590.14	1237.44
590.49	1236.00
590.84	1233.83
591.19	1232.10
591.54	1230.08
591.89	1227.46
592.25	1225.47
592.60	1223.08
592.95	1220.35
593.30	1217.80
593.65	1215.11
594.00	1212.42
594.35	1210.45
594.70	1207.37
595.05	1204.90
595.40	1202.31
595.75	1199.54
596.10	1197.41
596.45	1195.43
596.80	1193.60
597.15	1191.33
597.50	1188.51
597.85	1186.31
598.19	1184.11
598.54	1181.43
598.89	1179.54
599.24	1178.09
599.59	1175.52
599.94	1173.54
600.29	1171.27
600.64	1169.04
600.99	1166.27
601.34	1164.02
601.69	1161.43
602.04	1159.03
602.39	1156.50
602.74	1154.05
603.08	1151.70
603.43	1149.82
603.78	1146.88
604.13	1144.07
604.48	1141.16
604.83	1138.04
605.18	1134.89
605.53	1131.49
605.87	1128.34
606.22	1125.09
606.57	1121.57
606.92	1118.33
607.27	1115.26
607.62	1112.24
607.96	1109.12
608.31	1106.31
608.66	1102.93
609.01	1099.21
609.36	1095.17
609.70	1090.97
610.05	1087.07
610.40	1083.24
610.75	1078.93
611.10	1075.01
611.44	1070.61
611.79	1066.81
612.14	1063.13
612.49	1058.94
612.83	1054.80
613.18	1050.79
613.53	1046.62
613.88	1041.95
614.22	1038.06
614.57	1033.87
614.92	1029.81
615.27	1025.39
615.61	1020.94
615.96	1016.75
616.31	1013.22
616.65	1010.06
617.00	1006.64
617.35	1002.75
617.70	998.84
618.04	994.49
618.39	990.33
618.74	986.69
619.08	982.34
619.43	978.57
619.78	974.94
620.12	971.09
620.47	967.36
620.82	963.23
621.16	959.52
621.51	955.93
621.85	951.66
622.20	947.13
622.55	943.50
622.89	939.80
623.24	936.06
623.59	932.01
623.93	927.96
624.28	923.91
624.62	920.15
624.97	916.02
625.32	912.80
625.66	909.20
626.01	905.40
626.35	901.61
626.70	897.61
627.04	893.58
627.39	889.64
627.73	885.46
628.08	881.68
628.43	877.98
628.77	873.74
629.12	869.70
629.46	866.44
629.81	862.10
630.15	857.58
630.50	853.41
630.84	848.68
631.19	844.30
631.53	840.19
631.88	835.56
632.22	831.14
632.57	826.69
632.91	822.14
633.26	817.72
633.60	813.20
633.95	808.83
634.29	804.74
634.64	801.25
634.98	797.26
635.32	793.41
635.67	789.69
636.01	785.74
636.36	781.78
636.70	777.66
637.05	773.94
637.39	770.64
637.73	766.63
638.08	763.66
638.42	760.30
638.77	756.71
639.11	753.27
639.45	749.76
639.80	746.15
640.14	742.77
640.49	739.26
640.83	736.09
641.17	732.77
641.52	729.19
641.86	725.04
642.20	721.54
642.55	717.83
642.89	714.04
643.23	710.50
643.58	707.14
643.92	703.40
644.26	700.06
644.61	696.69
644.95	693.22
645.29	689.07
645.64	685.01
645.98	681.31
646.32	677.77
646.66	674.17
647.01	670.47
647.35	667.05
647.69	663.60
648.04	660.31
648.38	656.78
648.72	653.12
649.06	649.57
649.41	645.99
649.75	642.19
650.09	638.49
650.43	635.02
650.78	631.32
651.12	627.86
651.46	624.09
651.80	620.36
652.14	617.21
652.49	613.92
652.83	610.67
653.17	607.27
653.51	603.80
653.85	600.55
654.20	597.21
654.54	593.64
654.88	590.10
655.22	586.35
655.56	582.68
655.90	579.53
656.25	576.36
656.59	573.00
656.93	570.05
657.27	566.87
657.61	563.30
657.95	560.24
658.29	557.13
658.64	554.04
658.98	550.73
659.32	547.27
659.66	544.24
660.00	541.19
660.34	538.09
660.68	535.14
661.02	532.08
661.36	529.16
661.70	526.31
662.05	523.57
662.39	520.99
662.73	518.49
663.07	515.80
663.41	513.21
663.75	510.55
664.09	507.91
664.43	505.36
664.77	502.99
665.11	500.47
665.45	497.98
665.79	495.34
666.13	493.00
666.47	490.65
666.81	488.04
667.15	485.40
667.49	482.89
667.83	480.53
668.17	477.98
668.51	475.42
668.85	473.00
669.19	470.70
669.53	468.14
669.87	465.43
670.21	462.92
670.55	460.50
670.89	458.58
671.23	456.42
671.57	454.06
671.91	451.71
672.25	449.56
672.58	447.43
672.92	445.46
673.26	443.40
673.60	441.50
673.94	439.34
674.28	437.47
674.62	435.61
674.96	433.55
675.30	431.82
675.64	429.88
675.97	428.06
676.31	426.02
676.65	424.20
676.99	422.64
677.33	420.78
677.67	418.95
678.01	416.75
678.34	414.70
678.68	413.03
679.02	411.14
679.36	409.30
679.70	407.40
680.04	405.48
680.37	403.45
680.71	401.49
681.05	400.01
681.39	398.48
681.73	396.78
682.06	395.08
682.40	393.39
682.74	391.74
683.08	390.08
683.42	388.48
683.75	386.84
684.09	385.16
684.43	383.36
684.77	381.72
685.10	380.08
685.44	378.54
685.78	377.00
686.12	375.64
686.45	374.04
686.79	372.55
687.13	371.15
687.46	369.84
687.80	368.30
688.14	366.64
688.48	365.12
688.81	363.44
689.15	362.10
689.49	360.64
689.82	359.30
690.16	357.73
690.50	356.29
690.83	354.92
691.17	353.29
691.51	352.05
691.84	350.91
692.18	349.67
692.52	348.40
692.85	346.90
693.19	345.40
693.52	343.98
693.86	342.66
694.20	341.35
694.53	339.89
694.87	338.69
695.21	337.44
695.54	336.06
695.88	334.82
696.21	333.42
696.55	332.10
696.88	330.89
697.22	329.57
697.56	328.40
697.89	327.14
698.23	326.16
698.56	325.00
698.90	323.69
699.23	322.48
699.57	321.39
699.90	320.27
700.24	319.24
700.58	318.32
700.91	317.26
701.25	316.30
701.58	315.40
701.92	314.37
702.25	313.38
702.59	312.50
702.92	311.61
703.26	310.82
703.59	310.01
703.93	309.21
704.26	308.42
704.60	307.62
704.93	306.87
705.26	306.06
705.60	305.19
705.93	304.30
706.27	303.60
706.60	302.74
706.94	302.16
707.27	301.30
707.61	300.40
707.94	299.62
708.27	298.78
708.61	297.96
708.94	297.21
709.28	296.50
709.61	295.70
709.94	295.18
710.28	294.40
710.61	293.67
710.95	292.75
711.28	292.28
711.61	291.50
711.95	290.79
712.28	290.04
712.61	289.40
712.95	288.80
713.28	288.17
713.61	287.50
713.95	286.65
714.28	286.06
714.61	285.43
714.95	284.80
715.28	284.20
715.61	283.58
715.95	282.97
716.28	282.35
716.61	281.86
716.95	281.18
717.28	280.57
717.61	279.99
717.94	279.50
718.28	278.75
718.61	278.28
718.94	277.69
719.27	277.12
719.61	276.67
719.94	276.14
720.27	275.49
720.60	274.93
720.94	274.45
721.27	274.02
721.60	273.68
721.93	273.21
722.27	272.72
722.60	272.22
722.93	271.82
723.26	271.43
723.59	270.85
723.93	270.44
724.26	270.04
724.59	269.61
724.92	269.22
725.25	268.76
725.59	268.26
725.92	267.81
726.25	267.43
726.58	267.10
726.91	266.75
727.24	266.30
727.57	265.98
727.91	265.65
728.24	265.25
728.57	264.73
728.90	264.32
729.23	263.86
729.56	263.63
729.89	263.16
730.22	262.73
730.55	262.29
730.89	261.82
731.22	261.43
731.55	261.04
731.88	260.64
732.21	260.32
732.54	260.00
732.87	259.68
733.20	259.29
733.53	258.80
733.86	258.53
734.19	258.24
734.52	257.90
734.85	257.63
735.18	257.31
735.51	257.11
735.84	256.85
736.17	256.60
736.50	256.20
736.83	256.12
737.16	255.75
737.49	255.70
737.82	255.40
738.15	255.16
738.48	254.86
738.81	254.55
739.14	254.25
739.47	253.90
739.80	253.62
740.13	253.36
740.46	253.10
740.79	252.75
741.12	252.57
741.45	252.19
741.78	251.88
742.11	251.64
742.44	251.30
742.77	251.10
743.10	250.88
743.43	250.65
743.75	250.06
744.08	250.17
744.41	249.80
744.74	249.55
745.07	249.25
745.40	249.13
745.73	248.94
746.06	248.78
746.39	248.58
746.71	248.41
747.04	248.17
747.37	248.07
747.70	247.89
748.03	247.70
748.36	247.69
748.68	247.46
749.01	247.17
749.34	246.99
749.67	246.74
750.00	246.51
750.33	246.44
750.65	246.46
750.98	246.11
751.31	245.97
751.64	245.89
751.97	245.83
752.29	245.48
752.62	245.25
752.95	245.07
753.28	244.90
753.60	244.67
753.93	244.59
754.26	244.28
754.59	243.97
754.91	243.71
755.24	243.43
755.57	243.10
755.90	242.94
756.22	242.85
756.55	242.64
756.88	242.58
757.20	242.30
757.53	241.97
757.86	241.76
758.19	241.55
758.51	241.33
758.84	241.02
759.17	240.89
759.49	240.75
759.82	240.62
760.15	240.51
760.47	240.34
760.80	240.09
761.13	240.04
761.45	239.90
761.78	239.80
762.11	239.74
762.43	239.71
762.76	239.56
763.08	239.41
763.41	239.30
763.74	239.10
764.06	238.97
764.39	239.00
764.71	238.77
765.04	238.59
765.37	238.49
765.69	238.37
766.02	238.25
766.34	238.12
766.67	237.96
767.00	237.75
767.32	237.65
767.65	237.66
767.97	237.44
768.30	237.30
768.62	237.09
768.95	236.90
769.27	236.73
769.60	236.69
769.92	236.40
770.25	236.28
770.57	236.08
770.90	235.92
771.22	235.73
771.55	235.73
771.87	235.71
772.20	235.56
772.52	235.61
772.85	235.83
773.17	235.81
773.50	235.74
773.82	235.65
774.15	235.62
774.47	235.52
774.80	235.49
775.12	235.46
775.45	235.44
775.77	235.36
776.09	235.41
776.42	235.35
776.74	235.39
777.07	235.33
777.39	235.31
777.72	235.18
778.04	235.10
778.36	234.89
778.69	234.80
779.01	234.73
779.33	234.52
779.66	234.14
779.98	234.03
780.31	233.99
780.63	234.09
780.95	234.00
781.28	233.83
781.60	233.65
781.92	233.53
782.25	233.39
782.57	233.38
782.89	233.33
783.22	233.21
783.54	233.12
783.86	233.07
784.19	232.92
784.51	233.01
784.83	233.00
785.16	233.04
785.48	232.96
785.80	232.90
786.12	232.85
786.45	232.89
786.77	232.80
787.09	232.67
787.42	232.50
787.74	232.53
788.06	232.60
788.38	232.60
788.71	232.60
789.03	232.62
789.35	232.53
789.67	232.36
789.99	232.40
790.32	232.34
790.64	232.27
790.96	232.38
791.28	232.21
791.61	232.10
791.93	232.10
792.25	232.03
792.57	232.20
792.89	232.10
793.21	232.06
793.54	232.03
793.86	231.98
794.18	232.12
794.50	232.01
794.82	231.90
795.14	231.94
795.47	232.00
795.79	232.00
796.11	232.01
796.43	232.00
796.75	232.01
797.07	231.98
797.39	232.00
797.71	231.91
798.04	231.94
798.36	232.00
798.68	231.96
799.00	231.94
799.32	231.80
799.64	231.81
799.96	231.77
800.28	231.77
800.60	231.73
800.92	231.61
801.24	231.54
801.56	231.52
801.89	231.45
802.21	231.35
802.53	231.28
802.85	231.27
803.17	231.32
803.49	231.23
803.81	231.32
804.13	231.27
804.45	231.13
804.77	231.20
805.09	231.11
805.41	231.08
805.73	231.09
806.05	230.91
806.37	230.87
806.69	230.85
807.01	230.78
807.33	230.78
807.65	230.65
807.97	230.62
808.28	230.57
808.60	230.53
808.92	230.47
809.24	230.54
809.56	230.47
809.88	230.43
810.20	230.40
810.52	230.32
810.84	230.30
811.16	230.32
811.48	230.18
811.80	230.27
812.12	230.29
812.43	230.38
812.75	230.52
813.07	230.56
813.39	230.58
813.71	230.56
814.03	230.53
814.35	230.59
814.67	230.59
814.98	230.50
815.30	230.56
815.62	230.57
815.94	230.51
816.26	230.56
816.58	230.49
816.89	230.43
817.21	230.31
817.53	230.25
817.85	230.21
818.17	230.21
818.48	230.11
818.80	230.13
819.12	230.04
819.44	229.90
819.76	229.89
820.07	229.88
820.39	229.81
820.71	229.80
821.03	229.73
821.34	229.73
821.66	229.84
821.98	229.77
822.30	229.71
822.61	229.82
822.93	229.77
823.25	229.70
823.57	229.71
823.88	229.81
824.20	229.84
824.52	229.92
824.83	229.81
825.15	229.76
825.47	229.77
825.79	229.81
826.10	229.87
826.42	229.88
826.74	229.88
827.05	230.00
827.37	230.03
827.69	229.97
828.00	229.97
828.32	230.01
828.64	230.01
828.95	230.19
829.27	230.07
829.58	230.00
829.90	230.01
830.22	229.98
830.53	229.94
830.85	229.93
831.17	229.93
831.48	230.02
831.80	230.04
832.11	229.93
832.43	229.90
832.75	229.85
833.06	229.90
833.38	229.74
833.69	229.67
834.01	229.68
834.32	229.70
834.64	229.71
834.96	229.66
835.27	229.65
835.59	229.55
835.90	229.55
836.22	229.59
836.53	229.57
836.85	229.62
837.16	229.80
837.48	229.84
837.79	229.83
838.11	229.94
838.42	229.90
838.74	229.86
839.05	229.83
839.37	229.82
839.68	229.75
840.00	229.80
840.31	229.80
840.63	229.80
840.94	229.84
841.26	229.69
841.57	229.70
841.88	229.74
842.20	229.74
842.51	229.62
842.83	229.67
843.14	229.91
843.46	229.75
843.77	229.58
844.08	229.59
844.40	229.52
844.71	229.34
845.03	229.26
845.34	229.30
845.65	229.18
845.97	229.21
846.28	229.10
846.60	229.09
846.91	229.09
847.22	228.98
847.54	228.89
847.85	228.91
848.16	228.83
848.48	228.78
848.79	228.80
849.10	228.95
849.42	228.89
849.73	228.62
850.04	228.70
850.36	228.65
850.67	228.67
850.98	228.70
851.30	228.76
851.61	228.86
851.92	228.86
852.23	228.95
852.55	228.92
852.86	228.96
853.17	228.94
853.49	228.99
853.80	229.07
854.11	229.17
854.42	229.25
854.74	229.19
855.05	229.12
855.36	229.05
855.67	228.93
855.99	229.00
856.30	229.29
856.61	229.37
856.92	229.42
857.23	229.32
857.55	229.31
857.86	229.34
858.17	229.36
858.48	229.27
858.79	229.22
859.11	229.27
859.42	229.37
859.73	229.33
860.04	229.30
860.35	229.21
860.66	229.15
860.98	229.07
861.29	229.17
861.60	229.21
861.91	229.27
862.22	229.24
862.53	229.20
862.84	228.91
863.16	228.89
863.47	228.83
863.78	228.89
864.09	228.75
864.40	228.79
864.71	228.75
865.02	228.77
865.33	228.76
865.64	228.68
865.95	228.60
866.27	228.76
866.58	228.79
866.89	228.78
867.20	228.78
867.51	228.80
867.82	228.71
868.13	228.75
868.44	228.63
868.75	228.74
869.06	228.68
869.37	228.60
869.68	228.58
869.99	228.64
870.30	228.57
870.61	228.71
870.92	228.64
871.23	228.67
871.54	228.74
871.85	228.85
872.16	228.95
872.47	228.89
872.78	228.88
873.09	228.83
873.40	228.85
873.71	228.87
874.02	228.84
874.33	228.87
874.64	228.75
874.95	228.80
875.26	228.64
875.56	228.63
875.87	228.78
876.18	228.69
876.49	228.74
876.80	228.77
877.11	228.71
877.42	228.78
877.73	228.78
878.04	228.70
878.35	228.58
878.66	228.55
878.96	228.46
879.27	228.39
879.58	228.45
879.89	228.48
880.20	228.64
880.51	228.69
880.82	228.69
881.12	228.82
881.43	228.76
881.74	228.81
882.05	228.88
882.36	228.88
882.67	228.91
882.97	228.74
883.28	228.71
883.59	228.70
883.90	228.71
884.21	228.79
884.51	228.80
884.82	228.86
885.13	228.83
885.44	228.93
885.74	228.89
886.05	228.80
886.36	228.79
886.67	228.64
886.98	228.71
887.28	228.74
887.59	228.65
887.90	228.69
888.20	228.67
888.51	228.62
888.82	228.53
889.13	228.49
889.43	228.66
889.74	228.59
890.05	228.58
890.35	228.49
890.66	228.28
890.97	228.24
891.28	228.10
891.58	228.08
891.89	227.99
892.20	227.96
892.50	227.95
892.81	227.87
893.12	227.81
893.42	227.72
893.73	227.67
894.04	227.66
894.34	227.66
894.65	227.65
894.95	227.64
895.26	227.72
895.57	227.79
895.87	227.63
896.18	227.67
896.48	227.66
896.79	227.60
897.10	227.67
897.40	227.59
897.71	227.72
898.01	227.68
898.32	227.77
898.63	227.81
898.93	227.87
899.24	227.96
899.54	227.94
899.85	227.86
900.15	227.89
900.46	228.00
900.76	228.02
901.07	228.05
901.38	228.01
901.68	227.99
901.99	228.00
902.29	228.03
902.60	228.00
902.90	228.03
903.21	228.06
903.51	228.15
903.82	228.31
904.12	228.31
904.43	228.40
904.73	228.46
905.03	228.50
905.34	228.63
905.64	228.62
905.95	228.61
906.25	228.68
906.56	228.69
906.86	228.69
907.17	228.58
907.47	228.57
907.77	228.58
908.08	228.61
908.38	228.63
908.69	228.70
908.99	228.80
909.30	228.83
909.60	228.79
909.90	228.83
910.21	228.83
910.51	228.87
910.81	228.91
911.12	228.97
911.42	229.05
911.73	228.95
912.03	229.02
912.33	229.10
912.64	229.18
912.94	229.07
913.24	229.11
913.55	229.20
913.85	229.23
914.15	229.28
914.46	229.26
914.76	229.29
915.06	229.26
915.37	229.19
915.67	229.15
915.97	229.19
916.27	229.14
916.58	229.05
916.88	229.00
917.18	228.79
917.49	228.83
917.79	228.71
918.09	228.69
918.39	228.67
918.70	228.53
919.00	228.41
919.30	228.57
919.60	228.44
919.91	228.47
920.21	228.50
920.51	228.43
920.81	228.49
921.12	228.53
921.42	228.49
921.72	228.52
922.02	228.47
922.32	228.50
922.63	228.48
922.93	228.55
923.23	228.56
923.53	228.69
923.83	228.55
924.13	228.59
924.44	228.59
924.74	228.63
925.04	228.81
925.34	228.86
925.64	228.78
925.94	228.74
926.24	228.81
926.55	228.70
926.85	228.75
927.15	228.72
927.45	228.61
927.75	228.58
928.05	228.58
928.35	228.59
928.65	228.58
928.95	228.58
929.26	228.53
929.56	228.57
929.86	228.52
930.16	228.53
930.46	228.53
930.76	228.42
931.06	228.26
931.36	228.09
931.66	228.11
931.96	228.14
932.26	228.25
932.56	227.95
932.86	228.02
933.16	228.03
933.46	227.93
933.76	227.86
934.06	227.85
934.36	227.99
934.66	227.96
934.96	227.97
935.26	227.93
935.56	227.93
935.86	227.85
936.16	227.81
936.46	227.76
936.76	227.70
937.06	227.73
937.36	227.78
937.66	227.85
937.96	227.92
938.26	227.83
938.56	227.70
938.86	227.83
939.16	227.91
939.46	227.82
939.76	227.81
940.06	227.85
940.35	227.78
940.65	227.51
940.95	227.59
941.25	227.60
941.55	227.54
941.85	227.53
942.15	227.59
942.45	227.67
942.75	227.72
943.04	227.69
943.34	227.71
943.64	227.69
943.94	227.63
944.24	227.57
944.54	227.60
944.84	227.58
945.13	227.69
945.43	227.57
945.73	227.68
946.03	227.74
946.33	227.62
946.62	227.70
946.92	227.78
947.22	227.75
947.52	227.68
947.82	227.86
948.11	227.87
948.41	227.76
948.71	227.71
949.01	227.61
949.31	227.69
949.60	227.64
949.90	227.69
950.20	227.69
950.50	227.70
950.79	227.79
951.09	227.86
951.39	227.80
951.69	227.87
951.98	227.85
952.28	227.90
952.58	228.01
952.87	227.95
953.17	227.99
953.47	227.99
953.76	228.08
954.06	227.99
954.36	228.01
954.66	228.11
954.95	228.23
955.25	228.26
955.55	228.20
955.84	228.15
956.14	228.17
956.44	228.20
956.73	228.20
957.03	228.13
957.32	228.11
957.62	228.08
957.92	228.11
958.21	228.08
958.51	228.27
958.81	228.25
959.10	228.37
959.40	228.46
959.69	228.49
959.99	228.39
960.29	228.31
960.58	228.27
960.88	228.32
961.17	228.30
961.47	228.34
961.76	228.30
962.06	228.38
962.36	228.37
962.65	228.36
962.95	228.38
963.24	228.42
963.54	228.39
963.83	228.44
964.13	228.45
964.42	228.34
964.72	228.17
965.01	228.19
965.31	228.18
965.60	228.07
965.90	228.20
966.19	228.20
966.49	228.23
966.78	228.25
967.08	228.14
967.37	228.03
967.67	228.01
967.96	228.12
968.26	228.12
968.55	228.16
968.85	228.16
969.14	228.09
969.43	228.09
969.73	228.19
970.02	228.10
970.32	228.02
970.61	228.13
970.91	227.97
971.20	227.97
971.49	227.89
971.79	227.94
972.08	227.80
972.38	227.81
972.67	227.82
972.96	227.75
973.26	227.79
973.55	227.90
973.85	227.83
974.14	227.75
974.43	227.83
974.73	227.74
975.02	227.76
975.31	227.88
975.61	227.86
975.90	227.80
976.19	227.78
976.49	227.81
976.78	227.80
977.07	227.89
977.37	227.96
977.66	227.98
977.95	227.92
978.24	227.90
978.54	227.96
978.83	227.92
979.12	228.00
979.42	228.04
979.71	227.98
980.00	228.11
980.29	228.16
980.59	228.14
980.88	228.21
981.17	228.18
981.46	228.11
981.76	228.05
982.05	228.00
982.34	228.02
982.63	228.08
982.93	228.12
983.22	228.13
983.51	228.11
983.80	228.17
984.09	228.30
984.39	228.39
984.68	228.39
984.97	228.37
985.26	228.43
985.55	228.42
985.85	228.40
986.14	228.34
986.43	228.41
986.72	228.38
987.01	228.38
987.30	228.37
987.59	228.30
987.89	228.36
988.18	228.35
988.47	228.45
988.76	228.43
989.05	228.42
989.34	228.41
989.63	228.41
989.92	228.48
990.22	228.34
990.51	228.22
990.80	228.13
991.09	228.24
991.38	228.22
991.67	228.22
991.96	228.24
992.25	228.32
992.54	228.33
992.83	228.29
993.12	228.31
993.41	228.30
993.70	228.42
993.99	228.54
994.28	228.62
994.58	228.62
994.87	228.70
995.16	228.65
995.45	228.68
995.74	228.68
996.03	228.64
996.32	228.68
996.61	228.77
996.90	228.80
997.19	228.73
997.48	228.70
997.77	228.64
998.06	228.64
998.34	228.56
998.63	228.50
998.92	228.59
999.21	228.58
999.50	228.68
999.79	228.65
1000.08	228.52
1000.37	228.50
1000.66	228.42
1000.95	228.39
1001.24	228.39
1001.53	228.46
1001.82	228.42
1002.11	228.36
1002.40	228.44
1002.68	228.50
1002.97	228.65
1003.26	228.65
1003.55	228.67
1003.84	228.70
1004.13	228.75
1004.42	228.75
1004.71	228.73
1004.99	228.63
1005.28	228.67
1005.57	228.67
1005.86	228.65
1006.15	228.66
1006.44	228.62
1006.72	228.75
1007.01	228.63
1007.30	228.70
1007.59	228.60
1007.88	228.47
1008.17	228.38
1008.45	228.31
1008.74	228.17
1009.03	228.04
1009.32	228.01
1009.60	227.99
1009.89	227.90
1010.18	227.74
1010.47	227.72
1010.76	227.74
1011.04	227.74
1011.33	227.67
1011.62	227.53
1011.91	227.44
1012.19	227.45
1012.48	227.54
1012.77	227.40
1013.05	227.49
1013.34	227.52
1013.63	227.53
1013.92	227.62
1014.20	227.68
1014.49	227.65
1014.78	227.63
1015.06	227.59
1015.35	227.52
1015.64	227.52
1015.92	227.60
1016.21	227.67
1016.50	227.76
1016.78	227.73
1017.07	227.77
1017.36	227.76
1017.64	227.89
1017.93	227.91
1018.22	227.94
1018.50	227.93
1018.79	227.97
1019.08	227.88
1019.36	227.76
1019.65	227.71
1019.93	227.79
1020.22	227.86
1020.51	228.02
1020.79	228.12
1021.08	228.90
1021.36	228.80
1021.65	228.00
1021.94	227.40
1022.22	227.00
1022.51	227.00
1022.79	228.50
1023.08	228.90
1023.36	230.90
1023.65	229.10
>>>>>End Processed Spectral Data<<<<<
