SpectraSuite Data File
++++++++++++++++++++++++++++++++++++
Date: Fri Feb 01 14:38:03 EST 2013
User: group
Dark Spectrum Present: No
Reference Spectrum Present: No
Number of Sampled Component Spectra: 1
Spectrometers: USB2E7196
Integration Time (usec): 70000 (USB2E7196)
Spectra Averaged: 10 (USB2E7196)
Boxcar Smoothing: 10 (USB2E7196)
Correct for Electrical Dark: No (USB2E7196)
Strobe/Lamp Enabled: No (USB2E7196)
Correct for Detector Non-linearity: No (USB2E7196)
Correct for Stray Light: No (USB2E7196)
Number of Pixels in Processed Spectrum: 2048
>>>>>Begin Processed Spectral Data<<<<<
339.09	0.00
339.48	215.50
339.86	217.60
340.24	219.70
340.63	220.30
341.01	224.10
341.39	221.80
341.78	224.90
342.16	223.80
342.54	224.10
342.93	213.78
343.31	224.56
343.69	225.10
344.07	225.49
344.46	225.86
344.84	226.19
345.22	226.39
345.60	226.67
345.99	226.80
346.37	226.98
346.75	227.08
347.13	227.24
347.52	227.37
347.90	227.39
348.28	227.35
348.66	227.34
349.05	227.22
349.43	227.19
349.81	227.20
350.19	227.14
350.57	227.17
350.96	227.35
351.34	227.36
351.72	227.47
352.10	227.57
352.48	227.64
352.87	227.71
353.25	227.79
353.63	227.90
354.01	228.04
354.39	228.13
354.77	228.24
355.15	228.28
355.54	228.23
355.92	228.25
356.30	228.38
356.68	228.70
357.06	228.89
357.44	228.92
357.82	229.05
358.20	229.18
358.58	229.30
358.97	229.28
359.35	229.52
359.73	229.61
360.11	229.70
360.49	229.74
360.87	229.78
361.25	229.82
361.63	229.86
362.01	229.83
362.39	229.80
362.77	229.89
363.15	229.93
363.53	230.04
363.91	230.16
364.29	230.19
364.67	229.94
365.05	229.95
365.43	229.99
365.81	230.10
366.19	230.19
366.57	230.30
366.95	230.37
367.33	230.34
367.71	230.33
368.09	230.29
368.47	230.33
368.85	230.31
369.23	230.31
369.61	230.21
369.99	230.32
370.37	230.36
370.75	230.36
371.13	230.29
371.51	230.08
371.89	230.01
372.27	230.05
372.65	230.01
373.03	229.91
373.41	229.82
373.78	229.70
374.16	229.57
374.54	229.41
374.92	229.31
375.30	229.09
375.68	228.94
376.06	228.97
376.44	228.83
376.82	228.75
377.19	228.62
377.57	228.54
377.95	228.36
378.33	228.23
378.71	228.04
379.09	227.94
379.47	228.00
379.84	227.85
380.22	227.69
380.60	227.58
380.98	227.57
381.36	227.58
381.73	227.44
382.11	227.37
382.49	227.44
382.87	227.39
383.25	227.38
383.62	227.49
384.00	227.30
384.38	227.16
384.76	227.24
385.13	227.23
385.51	227.18
385.89	227.06
386.27	227.04
386.64	227.04
387.02	226.96
387.40	226.90
387.78	226.94
388.15	226.91
388.53	226.91
388.91	226.75
389.29	226.70
389.66	226.68
390.04	226.62
390.42	226.45
390.79	226.42
391.17	226.45
391.55	226.29
391.92	226.36
392.30	226.40
392.68	226.25
393.05	226.24
393.43	226.24
393.81	226.25
394.18	226.31
394.56	226.30
394.94	226.44
395.31	226.41
395.69	226.43
396.06	226.50
396.44	226.57
396.82	226.63
397.19	226.77
397.57	226.77
397.95	226.89
398.32	226.82
398.70	226.87
399.07	226.89
399.45	226.90
399.82	226.91
400.20	227.08
400.58	227.21
400.95	227.20
401.33	227.34
401.70	227.63
402.08	227.62
402.45	227.72
402.83	227.85
403.20	228.04
403.58	228.16
403.95	228.23
404.33	228.38
404.71	228.58
405.08	228.74
405.46	228.99
405.83	229.10
406.21	229.36
406.58	229.66
406.96	229.88
407.33	230.11
407.70	230.40
408.08	230.66
408.45	230.97
408.83	231.29
409.20	231.41
409.58	231.47
409.95	231.79
410.33	232.18
410.70	232.40
411.08	232.73
411.45	233.16
411.82	233.66
412.20	234.10
412.57	234.68
412.95	235.07
413.32	235.61
413.69	236.20
414.07	236.72
414.44	237.23
414.82	237.97
415.19	238.73
415.56	239.38
415.94	240.20
416.31	241.13
416.68	242.08
417.06	243.19
417.43	244.29
417.81	245.46
418.18	246.59
418.55	247.81
418.93	249.04
419.30	250.25
419.67	251.44
420.04	252.77
420.42	254.14
420.79	255.89
421.16	257.47
421.54	259.28
421.91	261.01
422.28	262.84
422.66	264.58
423.03	266.53
423.40	268.47
423.77	270.41
424.15	272.36
424.52	274.48
424.89	276.83
425.26	278.97
425.64	281.17
426.01	283.45
426.38	285.94
426.75	288.41
427.13	291.02
427.50	293.81
427.87	296.77
428.24	299.65
428.61	302.20
428.99	305.05
429.36	308.09
429.73	311.28
430.10	314.40
430.47	317.81
430.85	321.04
431.22	324.61
431.59	328.47
431.96	332.12
432.33	336.09
432.70	339.86
433.08	344.44
433.45	348.54
433.82	352.76
434.19	357.41
434.56	361.92
434.93	366.25
435.30	370.52
435.68	375.17
436.05	379.70
436.42	384.35
436.79	388.69
437.16	393.27
437.53	397.95
437.90	402.77
438.27	407.22
438.64	412.08
439.01	416.35
439.38	420.13
439.75	423.97
440.13	428.20
440.50	432.36
440.87	435.81
441.24	439.31
441.61	443.26
441.98	446.30
442.35	449.75
442.72	453.17
443.09	456.63
443.46	458.73
443.83	460.31
444.20	461.67
444.57	463.59
444.94	464.55
445.31	465.79
445.68	466.81
446.05	467.63
446.42	467.57
446.79	467.61
447.16	467.50
447.53	467.37
447.90	466.19
448.27	464.88
448.64	462.57
449.01	461.37
449.37	458.66
449.74	455.75
450.11	452.64
450.48	449.08
450.85	445.42
451.22	442.30
451.59	439.38
451.96	436.64
452.33	432.82
452.70	429.38
453.07	425.12
453.43	420.82
453.80	416.62
454.17	412.53
454.54	408.65
454.91	404.34
455.28	400.27
455.65	396.33
456.02	392.55
456.38	389.29
456.75	385.03
457.12	381.57
457.49	378.16
457.86	374.63
458.23	371.65
458.59	368.24
458.96	365.04
459.33	362.02
459.70	359.05
460.07	356.64
460.43	353.87
460.80	351.15
461.17	348.73
461.54	346.28
461.91	343.91
462.27	341.52
462.64	339.60
463.01	337.52
463.38	335.29
463.74	332.93
464.11	331.04
464.48	329.30
464.85	327.40
465.21	325.84
465.58	324.20
465.95	322.43
466.32	320.87
466.68	319.29
467.05	317.82
467.42	316.28
467.78	314.47
468.15	313.08
468.52	311.88
468.88	310.40
469.25	308.83
469.62	307.70
469.98	306.51
470.35	305.36
470.72	304.10
471.08	303.02
471.45	302.10
471.82	301.14
472.18	299.98
472.55	299.18
472.92	298.25
473.28	297.44
473.65	296.47
474.02	295.69
474.38	294.92
474.75	294.16
475.11	293.46
475.48	293.08
475.85	292.37
476.21	291.90
476.58	291.42
476.94	291.05
477.31	290.49
477.67	290.03
478.04	289.39
478.41	289.06
478.77	288.84
479.14	288.51
479.50	288.12
479.87	287.94
480.23	287.60
480.60	287.42
480.96	287.15
481.33	287.12
481.69	286.89
482.06	286.63
482.42	286.46
482.79	286.20
483.15	285.97
483.52	286.04
483.88	286.00
484.25	285.94
484.61	285.94
484.98	286.01
485.34	286.28
485.71	286.66
486.07	286.69
486.44	286.74
486.80	286.69
487.17	286.83
487.53	287.14
487.90	287.37
488.26	287.71
488.62	287.99
488.99	288.23
489.35	288.59
489.72	288.93
490.08	289.26
490.44	289.59
490.81	289.96
491.17	290.27
491.54	290.65
491.90	290.97
492.26	291.35
492.63	291.74
492.99	291.95
493.36	292.27
493.72	292.75
494.08	293.14
494.45	293.70
494.81	294.23
495.17	294.66
495.54	295.20
495.90	295.50
496.26	295.98
496.63	296.42
496.99	296.92
497.35	297.48
497.72	297.95
498.08	298.44
498.44	298.92
498.80	299.48
499.17	299.83
499.53	300.41
499.89	300.95
500.26	301.36
500.62	301.75
500.98	302.07
501.34	302.54
501.71	303.02
502.07	303.44
502.43	303.75
502.79	304.06
503.16	304.32
503.52	304.65
503.88	304.90
504.24	305.22
504.60	305.49
504.97	305.68
505.33	305.90
505.69	306.29
506.05	306.65
506.41	306.79
506.78	306.90
507.14	306.99
507.50	307.15
507.86	307.40
508.22	307.59
508.59	307.74
508.95	307.74
509.31	307.92
509.67	308.03
510.03	308.32
510.39	308.49
510.75	308.60
511.12	308.74
511.48	309.04
511.84	309.31
512.20	309.53
512.56	309.79
512.92	310.17
513.28	310.36
513.64	310.59
514.00	310.89
514.37	311.39
514.73	311.78
515.09	312.10
515.45	312.38
515.81	312.82
516.17	313.34
516.53	313.91
516.89	314.47
517.25	315.04
517.61	315.60
517.97	316.30
518.33	317.05
518.69	317.86
519.05	318.60
519.41	319.43
519.77	320.44
520.13	321.33
520.49	322.23
520.85	323.26
521.21	324.40
521.57	325.65
521.93	326.85
522.29	328.13
522.65	329.65
523.01	331.19
523.37	332.59
523.73	334.32
524.09	336.00
524.45	337.67
524.81	339.41
525.17	341.38
525.53	343.27
525.89	345.25
526.25	347.44
526.61	349.50
526.97	351.69
527.33	354.04
527.68	356.74
528.04	359.41
528.40	362.05
528.76	364.83
529.12	367.60
529.48	370.59
529.84	373.65
530.20	376.69
530.56	379.92
530.91	383.41
531.27	386.74
531.63	390.07
531.99	393.43
532.35	397.08
532.71	400.63
533.07	404.36
533.42	408.34
533.78	412.10
534.14	416.22
534.50	420.33
534.86	424.48
535.21	428.53
535.57	432.67
535.93	437.07
536.29	441.54
536.65	445.84
537.00	450.14
537.36	454.60
537.72	459.07
538.08	463.61
538.44	468.16
538.79	472.86
539.15	477.50
539.51	482.52
539.87	487.36
540.22	492.22
540.58	497.22
540.94	502.03
541.29	507.16
541.65	512.20
542.01	517.35
542.37	522.41
542.72	527.56
543.08	532.83
543.44	538.13
543.79	542.86
544.15	548.17
544.51	553.73
544.87	558.95
545.22	564.28
545.58	569.70
545.94	575.00
546.29	580.23
546.65	585.76
547.01	591.00
547.36	596.28
547.72	601.62
548.07	607.09
548.43	612.50
548.79	617.81
549.14	623.25
549.50	628.57
549.86	633.80
550.21	638.88
550.57	644.16
550.92	649.29
551.28	654.86
551.64	660.19
551.99	665.48
552.35	670.86
552.70	676.25
553.06	681.51
553.41	686.87
553.77	692.34
554.13	697.63
554.48	702.83
554.84	708.12
555.19	713.20
555.55	718.40
555.90	723.28
556.26	728.08
556.61	732.97
556.97	738.07
557.32	743.13
557.68	748.20
558.03	753.03
558.39	758.13
558.74	762.99
559.10	768.09
559.45	772.76
559.81	777.72
560.16	782.22
560.52	786.82
560.87	791.54
561.23	795.82
561.58	800.37
561.94	804.70
562.29	809.14
562.64	813.46
563.00	817.85
563.35	822.65
563.71	827.41
564.06	831.90
564.42	836.09
564.77	840.45
565.12	844.80
565.48	849.20
565.83	853.01
566.19	857.07
566.54	860.83
566.89	864.59
567.25	868.27
567.60	872.41
567.96	876.21
568.31	879.90
568.66	883.69
569.02	887.21
569.37	890.81
569.72	894.29
570.08	898.06
570.43	901.28
570.78	904.04
571.14	906.84
571.49	909.80
571.84	912.90
572.20	915.71
572.55	918.23
572.90	920.54
573.26	923.21
573.61	925.92
573.96	928.50
574.31	930.63
574.67	932.65
575.02	934.49
575.37	936.63
575.72	938.16
576.08	940.03
576.43	941.68
576.78	943.52
577.13	945.22
577.49	946.66
577.84	948.04
578.19	949.55
578.54	951.00
578.90	952.09
579.25	952.67
579.60	953.58
579.95	954.45
580.30	955.58
580.66	956.08
581.01	956.67
581.36	957.27
581.71	958.59
582.06	959.21
582.42	959.77
582.77	960.04
583.12	960.46
583.47	960.89
583.82	961.59
584.17	961.53
584.53	961.91
584.88	962.09
585.23	962.12
585.58	962.41
585.93	962.62
586.28	963.12
586.63	963.60
586.98	963.82
587.34	964.16
587.69	964.05
588.04	964.27
588.39	964.34
588.74	963.73
589.09	963.22
589.44	962.68
589.79	962.60
590.14	962.56
590.49	962.55
590.84	962.14
591.19	961.53
591.54	960.79
591.89	959.55
592.25	959.10
592.60	958.09
592.95	957.12
593.30	955.94
593.65	954.62
594.00	953.40
594.35	952.80
594.70	951.21
595.05	949.94
595.40	948.82
595.75	947.07
596.10	946.18
596.45	944.97
596.80	944.37
597.15	943.01
597.50	941.45
597.85	940.33
598.19	939.15
598.54	938.00
598.89	937.02
599.24	936.09
599.59	934.43
599.94	933.41
600.29	932.10
600.64	930.80
600.99	929.18
601.34	927.73
601.69	925.43
602.04	924.15
602.39	922.63
602.74	921.15
603.08	920.06
603.43	918.67
603.78	916.90
604.13	915.11
604.48	913.33
604.83	911.65
605.18	909.77
605.53	907.40
605.87	905.13
606.22	903.29
606.57	901.20
606.92	899.37
607.27	897.36
607.62	895.32
607.96	893.51
608.31	891.66
608.66	889.45
609.01	887.30
609.36	884.49
609.70	882.08
610.05	879.65
610.40	877.03
610.75	874.13
611.10	871.46
611.44	868.23
611.79	865.68
612.14	863.21
612.49	859.91
612.83	857.13
613.18	854.49
613.53	851.65
613.88	848.77
614.22	845.71
614.57	842.92
614.92	840.04
615.27	837.19
615.61	833.99
615.96	831.09
616.31	828.10
616.65	826.14
617.00	823.55
617.35	820.64
617.70	817.78
618.04	814.65
618.39	811.93
618.74	809.37
619.08	806.29
619.43	803.26
619.78	800.58
620.12	797.77
620.47	794.63
620.82	791.66
621.16	789.09
621.51	786.30
621.85	783.28
622.20	780.22
622.55	777.14
622.89	774.59
623.24	772.00
623.59	769.49
623.93	766.49
624.28	763.56
624.62	760.82
624.97	758.19
625.32	755.75
625.66	753.00
626.01	750.30
626.35	747.44
626.70	744.53
627.04	742.10
627.39	739.39
627.73	736.72
628.08	734.04
628.43	730.88
628.77	727.93
629.12	725.02
629.46	722.34
629.81	719.28
630.15	716.13
630.50	713.06
630.84	709.91
631.19	706.57
631.53	703.45
631.88	700.11
632.22	696.53
632.57	693.63
632.91	690.40
633.26	687.29
633.60	684.30
633.95	681.34
634.29	678.04
634.64	675.22
634.98	672.21
635.32	669.48
635.67	666.84
636.01	664.02
636.36	661.12
636.70	658.38
637.05	655.68
637.39	652.92
637.73	650.11
638.08	647.75
638.42	645.42
638.77	642.78
639.11	640.08
639.45	637.52
639.80	634.70
640.14	632.33
640.49	629.67
640.83	627.09
641.17	624.44
641.52	621.82
641.86	618.94
642.20	616.37
642.55	613.50
642.89	610.68
643.23	607.94
643.58	605.47
643.92	602.40
644.26	599.91
644.61	597.69
644.95	595.09
645.29	591.90
645.64	589.08
645.98	586.50
646.32	583.97
646.66	581.25
647.01	578.49
647.35	575.66
647.69	573.15
648.04	570.73
648.38	567.90
648.72	565.10
649.06	562.30
649.41	559.52
649.75	556.64
650.09	553.81
650.43	551.29
650.78	548.40
651.12	545.95
651.46	543.19
651.80	540.30
652.14	537.60
652.49	535.10
652.83	532.58
653.17	529.80
653.51	527.24
653.85	524.80
654.20	522.44
654.54	519.72
654.88	517.09
655.22	514.21
655.56	511.44
655.90	509.14
656.25	506.90
656.59	504.46
656.93	502.14
657.27	499.87
657.61	497.08
657.95	494.69
658.29	492.31
658.64	489.97
658.98	487.45
659.32	484.94
659.66	482.49
660.00	480.03
660.34	477.88
660.68	475.33
661.02	472.86
661.36	470.59
661.70	468.38
662.05	466.22
662.39	464.22
662.73	462.40
663.07	460.22
663.41	458.22
663.75	456.18
664.09	454.03
664.43	451.87
664.77	449.85
665.11	447.98
665.45	445.99
665.79	443.78
666.13	441.84
666.47	439.87
666.81	437.90
667.15	435.66
667.49	433.70
667.83	432.06
668.17	430.22
668.51	428.17
668.85	426.32
669.19	424.49
669.53	422.41
669.87	420.49
670.21	418.65
670.55	416.61
670.89	414.90
671.23	413.38
671.57	411.80
671.91	410.30
672.25	408.48
672.58	406.61
672.92	405.05
673.26	403.36
673.60	401.72
673.94	400.37
674.28	399.27
674.62	397.82
674.96	396.17
675.30	394.72
675.64	393.25
675.97	391.85
676.31	390.27
676.65	388.88
676.99	387.53
677.33	386.04
677.67	384.72
678.01	383.15
678.34	381.51
678.68	379.98
679.02	378.44
679.36	376.95
679.70	375.52
680.04	374.10
680.37	372.74
680.71	371.43
681.05	369.96
681.39	368.48
681.73	367.09
682.06	365.90
682.40	364.80
682.74	363.46
683.08	362.10
683.42	360.79
683.75	359.52
684.09	358.17
684.43	356.93
684.77	355.65
685.10	354.46
685.44	353.20
685.78	352.10
686.12	351.00
686.45	349.94
686.79	348.90
687.13	347.83
687.46	346.62
687.80	345.53
688.14	344.34
688.48	343.14
688.81	341.87
689.15	340.71
689.49	339.51
689.82	338.43
690.16	337.30
690.50	336.26
690.83	335.31
691.17	334.12
691.51	333.05
691.84	331.87
692.18	330.79
692.52	329.70
692.85	328.47
693.19	327.38
693.52	326.23
693.86	325.14
694.20	323.99
694.53	322.88
694.87	321.83
695.21	320.64
695.54	319.66
695.88	318.63
696.21	317.56
696.55	316.43
696.88	315.47
697.22	314.47
697.56	313.43
697.89	312.42
698.23	311.53
698.56	310.50
698.90	309.70
699.23	308.72
699.57	307.76
699.90	306.87
700.24	305.97
700.58	305.05
700.91	304.19
701.25	303.35
701.58	302.76
701.92	301.86
702.25	301.29
702.59	300.43
702.92	299.57
703.26	298.81
703.59	298.22
703.93	297.66
704.26	296.90
704.60	296.25
704.93	295.44
705.26	294.67
705.60	293.92
705.93	293.26
706.27	292.67
706.60	292.05
706.94	291.46
707.27	290.76
707.61	290.19
707.94	289.60
708.27	288.96
708.61	288.19
708.94	287.60
709.28	286.91
709.61	286.27
709.94	285.73
710.28	285.22
710.61	284.43
710.95	283.51
711.28	282.99
711.61	282.33
711.95	281.75
712.28	281.17
712.61	280.74
712.95	280.15
713.28	279.59
713.61	279.07
713.95	278.45
714.28	277.89
714.61	277.37
714.95	276.74
715.28	276.17
715.61	275.55
715.95	275.11
716.28	274.51
716.61	274.20
716.95	273.73
717.28	273.21
717.61	272.81
717.94	272.37
718.28	271.91
718.61	271.40
718.94	270.95
719.27	270.61
719.61	270.10
719.94	269.60
720.27	269.10
720.60	268.74
720.94	268.28
721.27	267.94
721.60	267.53
721.93	267.18
722.27	266.89
722.60	266.62
722.93	266.08
723.26	265.76
723.59	265.20
723.93	264.82
724.26	264.39
724.59	263.94
724.92	263.69
725.25	263.30
725.59	263.07
725.92	262.67
726.25	262.29
726.58	261.96
726.91	261.61
727.24	261.30
727.57	260.96
727.91	260.51
728.24	260.23
728.57	259.87
728.90	259.54
729.23	259.15
729.56	258.79
729.89	258.49
730.22	258.14
730.55	257.90
730.89	257.56
731.22	257.27
731.55	257.03
731.88	256.69
732.21	256.33
732.54	255.96
732.87	255.65
733.20	255.30
733.53	255.07
733.86	254.85
734.19	254.59
734.52	254.26
734.85	254.22
735.18	253.90
735.51	253.70
735.84	253.50
736.17	253.36
736.50	253.01
736.83	252.93
737.16	252.69
737.49	252.44
737.82	252.11
738.15	251.86
738.48	251.50
738.81	251.22
739.14	251.01
739.47	250.73
739.80	250.53
740.13	250.33
740.46	250.01
740.79	249.65
741.12	249.38
741.45	249.09
741.78	248.84
742.11	248.56
742.44	248.25
742.77	248.00
743.10	247.56
743.43	247.38
743.75	246.97
744.08	247.04
744.41	246.75
744.74	246.77
745.07	246.50
745.40	246.48
745.73	246.33
746.06	246.12
746.39	246.01
746.71	245.78
747.04	245.60
747.37	245.39
747.70	245.26
748.03	245.07
748.36	245.00
748.68	244.70
749.01	244.50
749.34	244.30
749.67	244.06
750.00	243.95
750.33	243.86
750.65	243.80
750.98	243.36
751.31	243.14
751.64	242.88
751.97	242.81
752.29	242.57
752.62	242.34
752.95	242.14
753.28	241.90
753.60	241.79
753.93	241.66
754.26	241.56
754.59	241.39
754.91	241.16
755.24	240.93
755.57	240.86
755.90	240.76
756.22	240.66
756.55	240.62
756.88	240.48
757.20	240.39
757.53	240.13
757.86	240.08
758.19	239.96
758.51	239.74
758.84	239.52
759.17	239.31
759.49	239.22
759.82	239.29
760.15	239.25
760.47	239.21
760.80	239.04
761.13	239.00
761.45	238.93
761.78	238.96
762.11	238.85
762.43	238.69
762.76	238.48
763.08	238.38
763.41	238.21
763.74	238.17
764.06	237.95
764.39	237.95
764.71	237.81
765.04	237.74
765.37	237.64
765.69	237.53
766.02	237.42
766.34	237.22
766.67	236.99
767.00	236.86
767.32	236.74
767.65	236.70
767.97	236.50
768.30	236.47
768.62	236.35
768.95	236.32
769.27	236.27
769.60	236.41
769.92	236.36
770.25	236.27
770.57	236.07
770.90	236.01
771.22	235.82
771.55	235.75
771.87	235.70
772.20	235.68
772.52	235.79
772.85	235.98
773.17	236.07
773.50	235.94
773.82	235.79
774.15	235.70
774.47	235.48
774.80	235.50
775.12	235.41
775.45	235.13
775.77	235.05
776.09	234.94
776.42	234.86
776.74	234.70
777.07	234.56
777.39	234.55
777.72	234.40
778.04	234.33
778.36	234.28
778.69	234.30
779.01	234.13
779.33	233.79
779.66	233.51
779.98	233.39
780.31	233.33
780.63	233.23
780.95	233.10
781.28	233.03
781.60	232.92
781.92	232.69
782.25	232.72
782.57	232.60
782.89	232.54
783.22	232.32
783.54	232.25
783.86	232.24
784.19	232.18
784.51	232.20
784.83	232.21
785.16	232.07
785.48	231.91
785.80	231.90
786.12	231.93
786.45	231.84
786.77	231.74
787.09	231.74
787.42	231.74
787.74	231.73
788.06	231.73
788.38	231.67
788.71	231.68
789.03	231.76
789.35	231.80
789.67	231.74
789.99	231.72
790.32	231.68
790.64	231.61
790.96	231.65
791.28	231.58
791.61	231.49
791.93	231.47
792.25	231.44
792.57	231.62
792.89	231.55
793.21	231.62
793.54	231.57
793.86	231.52
794.18	231.59
794.50	231.70
794.82	231.69
795.14	231.69
795.47	231.76
795.79	231.65
796.11	231.53
796.43	231.52
796.75	231.53
797.07	231.49
797.39	231.47
797.71	231.36
798.04	231.37
798.36	231.34
798.68	231.34
799.00	231.30
799.32	231.12
799.64	231.18
799.96	231.17
800.28	231.26
800.60	231.24
800.92	231.23
801.24	231.13
801.56	231.14
801.89	231.12
802.21	231.03
802.53	231.03
802.85	231.12
803.17	231.20
803.49	231.15
803.81	231.22
804.13	231.28
804.45	231.22
804.77	231.22
805.09	231.23
805.41	231.26
805.73	231.29
806.05	231.33
806.37	231.36
806.69	231.29
807.01	231.21
807.33	231.22
807.65	231.11
807.97	231.18
808.28	231.10
808.60	231.03
808.92	231.03
809.24	231.13
809.56	231.04
809.88	230.93
810.20	230.90
810.52	231.02
810.84	230.91
811.16	230.88
811.48	230.81
811.80	230.84
812.12	230.73
812.43	230.78
812.75	230.70
813.07	230.63
813.39	230.61
813.71	230.56
814.03	230.51
814.35	230.50
814.67	230.30
814.98	230.31
815.30	230.30
815.62	230.24
815.94	230.13
816.26	230.19
816.58	230.16
816.89	230.22
817.21	229.97
817.53	229.89
817.85	229.81
818.17	229.78
818.48	229.68
818.80	229.63
819.12	229.54
819.44	229.33
819.76	229.18
820.07	229.15
820.39	229.12
820.71	229.08
821.03	229.10
821.34	229.14
821.66	229.06
821.98	228.99
822.30	228.95
822.61	228.97
822.93	228.83
823.25	228.80
823.57	228.72
823.88	228.89
824.20	228.87
824.52	228.93
824.83	228.92
825.15	228.80
825.47	228.77
825.79	228.74
826.10	228.81
826.42	228.79
826.74	228.69
827.05	228.70
827.37	228.67
827.69	228.60
828.00	228.51
828.32	228.62
828.64	228.67
828.95	228.81
829.27	228.71
829.58	228.72
829.90	228.80
830.22	228.77
830.53	228.70
830.85	228.78
831.17	228.67
831.48	228.68
831.80	228.78
832.11	228.88
832.43	228.85
832.75	228.87
833.06	229.13
833.38	229.13
833.69	229.16
834.01	229.16
834.32	229.10
834.64	229.12
834.96	229.13
835.27	229.13
835.59	229.00
835.90	229.00
836.22	229.07
836.53	229.00
836.85	229.00
837.16	229.09
837.48	229.10
837.79	229.25
838.11	229.36
838.42	229.33
838.74	229.37
839.05	229.38
839.37	229.43
839.68	229.25
840.00	229.36
840.31	229.35
840.63	229.40
840.94	229.62
841.26	229.67
841.57	229.67
841.88	229.62
842.20	229.63
842.51	229.68
842.83	229.59
843.14	229.79
843.46	229.78
843.77	229.71
844.08	229.77
844.40	229.76
844.71	229.68
845.03	229.65
845.34	229.52
845.65	229.60
845.97	229.60
846.28	229.69
846.60	229.60
846.91	229.58
847.22	229.54
847.54	229.40
847.85	229.37
848.16	229.39
848.48	229.43
848.79	229.45
849.10	229.45
849.42	229.52
849.73	229.35
850.04	229.35
850.36	229.31
850.67	229.30
850.98	229.34
851.30	229.30
851.61	229.36
851.92	229.39
852.23	229.40
852.55	229.44
852.86	229.40
853.17	229.40
853.49	229.38
853.80	229.46
854.11	229.43
854.42	229.44
854.74	229.28
855.05	229.15
855.36	229.06
855.67	229.00
855.99	228.99
856.30	229.13
856.61	229.09
856.92	228.97
857.23	228.94
857.55	228.82
857.86	228.80
858.17	228.80
858.48	228.82
858.79	228.74
859.11	228.71
859.42	228.64
859.73	228.63
860.04	228.60
860.35	228.50
860.66	228.50
860.98	228.48
861.29	228.49
861.60	228.47
861.91	228.64
862.22	228.55
862.53	228.57
862.84	228.28
863.16	228.42
863.47	228.46
863.78	228.38
864.09	228.39
864.40	228.47
864.71	228.47
865.02	228.44
865.33	228.25
865.64	228.17
865.95	228.10
866.27	228.32
866.58	228.32
866.89	228.35
867.20	228.28
867.51	228.28
867.82	228.37
868.13	228.50
868.44	228.40
868.75	228.48
869.06	228.34
869.37	228.50
869.68	228.35
869.99	228.38
870.30	228.37
870.61	228.38
870.92	228.33
871.23	228.35
871.54	228.38
871.85	228.63
872.16	228.72
872.47	228.78
872.78	228.51
873.09	228.46
873.40	228.50
873.71	228.58
874.02	228.57
874.33	228.52
874.64	228.52
874.95	228.57
875.26	228.53
875.56	228.63
875.87	228.59
876.18	228.60
876.49	228.78
876.80	228.84
877.11	228.95
877.42	228.99
877.73	229.02
878.04	229.04
878.35	229.08
878.66	229.10
878.96	229.17
879.27	229.18
879.58	229.22
879.89	229.18
880.20	229.20
880.51	229.18
880.82	229.25
881.12	229.20
881.43	229.20
881.74	229.27
882.05	229.33
882.36	229.39
882.67	229.41
882.97	229.22
883.28	229.28
883.59	229.22
883.90	229.18
884.21	229.21
884.51	229.16
884.82	228.99
885.13	228.95
885.44	228.95
885.74	229.10
886.05	229.10
886.36	229.06
886.67	228.98
886.98	229.06
887.28	229.05
887.59	228.98
887.90	228.90
888.20	228.92
888.51	228.89
888.82	228.77
889.13	228.77
889.43	228.97
889.74	228.91
890.05	228.87
890.35	228.77
890.66	228.72
890.97	228.76
891.28	228.86
891.58	228.90
891.89	228.93
892.20	228.77
892.50	228.82
892.81	228.82
893.12	228.84
893.42	228.80
893.73	228.80
894.04	228.96
894.34	229.06
894.65	228.94
894.95	228.91
895.26	228.94
895.57	229.01
895.87	228.84
896.18	228.82
896.48	228.83
896.79	228.96
897.10	228.99
897.40	229.01
897.71	228.91
898.01	228.81
898.32	228.75
898.63	228.79
898.93	228.74
899.24	228.83
899.54	228.82
899.85	228.77
900.15	228.73
900.46	228.64
900.76	228.59
901.07	228.65
901.38	228.59
901.68	228.64
901.99	228.54
902.29	228.51
902.60	228.50
902.90	228.45
903.21	228.38
903.51	228.34
903.82	228.26
904.12	228.31
904.43	228.35
904.73	228.30
905.03	228.41
905.34	228.60
905.64	228.57
905.95	228.63
906.25	228.60
906.56	228.59
906.86	228.57
907.17	228.50
907.47	228.48
907.77	228.48
908.08	228.38
908.38	228.42
908.69	228.46
908.99	228.44
909.30	228.50
909.60	228.49
909.90	228.40
910.21	228.40
910.51	228.32
910.81	228.29
911.12	228.41
911.42	228.36
911.73	228.10
912.03	228.08
912.33	228.15
912.64	228.16
912.94	228.15
913.24	228.02
913.55	228.06
913.85	228.06
914.15	228.10
914.46	228.19
914.76	228.11
915.06	228.12
915.37	228.02
915.67	227.90
915.97	227.91
916.27	227.91
916.58	227.91
916.88	227.94
917.18	227.90
917.49	227.91
917.79	227.88
918.09	227.90
918.39	227.94
918.70	227.85
919.00	227.82
919.30	227.82
919.60	227.89
919.91	227.97
920.21	227.96
920.51	227.88
920.81	227.79
921.12	227.86
921.42	227.87
921.72	227.96
922.02	228.05
922.32	228.05
922.63	228.17
922.93	228.32
923.23	228.40
923.53	228.48
923.83	228.41
924.13	228.58
924.44	228.67
924.74	228.70
925.04	228.67
925.34	228.69
925.64	228.66
925.94	228.67
926.24	228.74
926.55	228.74
926.85	228.84
927.15	228.87
927.45	228.92
927.75	228.88
928.05	228.87
928.35	228.87
928.65	228.98
928.95	228.84
929.26	228.77
929.56	228.76
929.86	228.82
930.16	228.83
930.46	228.70
930.76	228.66
931.06	228.55
931.36	228.57
931.66	228.70
931.96	228.76
932.26	228.88
932.56	228.79
932.86	228.76
933.16	228.71
933.46	228.74
933.76	228.58
934.06	228.63
934.36	228.79
934.66	228.79
934.96	228.72
935.26	228.80
935.56	228.78
935.86	228.76
936.16	228.71
936.46	228.72
936.76	228.72
937.06	228.67
937.36	228.58
937.66	228.59
937.96	228.54
938.26	228.54
938.56	228.52
938.86	228.56
939.16	228.56
939.46	228.68
939.76	228.61
940.06	228.64
940.35	228.52
940.65	228.42
940.95	228.41
941.25	228.35
941.55	228.35
941.85	228.26
942.15	228.24
942.45	228.25
942.75	228.21
943.04	228.14
943.34	228.18
943.64	228.24
943.94	228.30
944.24	228.23
944.54	228.24
944.84	228.15
945.13	228.03
945.43	227.95
945.73	227.82
946.03	227.84
946.33	227.81
946.62	227.90
946.92	227.86
947.22	227.88
947.52	227.86
947.82	227.79
948.11	227.79
948.41	227.81
948.71	227.63
949.01	227.58
949.31	227.62
949.60	227.64
949.90	227.65
950.20	227.52
950.50	227.55
950.79	227.54
951.09	227.61
951.39	227.60
951.69	227.66
951.98	227.75
952.28	227.82
952.58	227.89
952.87	227.79
953.17	227.75
953.47	227.70
953.76	227.71
954.06	227.78
954.36	227.77
954.66	227.70
954.95	227.84
955.25	227.92
955.55	227.87
955.84	227.90
956.14	228.00
956.44	228.08
956.73	228.18
957.03	228.19
957.32	228.18
957.62	228.30
957.92	228.37
958.21	228.44
958.51	228.63
958.81	228.66
959.10	228.67
959.40	228.79
959.69	228.87
959.99	228.96
960.29	228.97
960.58	228.91
960.88	229.02
961.17	228.97
961.47	229.00
961.76	229.10
962.06	229.02
962.36	229.00
962.65	229.07
962.95	229.06
963.24	229.01
963.54	228.98
963.83	228.93
964.13	228.94
964.42	228.83
964.72	228.80
965.01	228.74
965.31	228.77
965.60	228.74
965.90	228.91
966.19	228.90
966.49	228.95
966.78	229.07
967.08	229.00
967.37	229.05
967.67	229.10
967.96	229.13
968.26	229.18
968.55	229.21
968.85	229.12
969.14	229.00
969.43	228.97
969.73	229.05
970.02	229.11
970.32	229.02
970.61	228.97
970.91	228.81
971.20	228.81
971.49	228.83
971.79	228.89
972.08	228.71
972.38	228.63
972.67	228.63
972.96	228.57
973.26	228.54
973.55	228.65
973.85	228.53
974.14	228.36
974.43	228.34
974.73	228.30
975.02	228.32
975.31	228.37
975.61	228.32
975.90	228.25
976.19	228.15
976.49	228.19
976.78	228.20
977.07	228.14
977.37	228.22
977.66	228.22
977.95	228.08
978.24	228.08
978.54	228.14
978.83	227.99
979.12	228.00
979.42	228.02
979.71	227.90
980.00	227.88
980.29	227.97
980.59	227.89
980.88	227.90
981.17	227.74
981.46	227.70
981.76	227.68
982.05	227.74
982.34	227.69
982.63	227.59
982.93	227.57
983.22	227.66
983.51	227.51
983.80	227.48
984.09	227.60
984.39	227.48
984.68	227.43
984.97	227.45
985.26	227.41
985.55	227.42
985.85	227.34
986.14	227.47
986.43	227.46
986.72	227.47
987.01	227.41
987.30	227.49
987.59	227.43
987.89	227.43
988.18	227.33
988.47	227.34
988.76	227.45
989.05	227.42
989.34	227.38
989.63	227.47
989.92	227.51
990.22	227.35
990.51	227.51
990.80	227.48
991.09	227.53
991.38	227.60
991.67	227.56
991.96	227.58
992.25	227.56
992.54	227.59
992.83	227.54
993.12	227.54
993.41	227.59
993.70	227.79
993.99	227.82
994.28	227.86
994.58	228.03
994.87	227.94
995.16	227.95
995.45	227.96
995.74	227.94
996.03	228.01
996.32	228.20
996.61	228.10
996.90	228.22
997.19	228.20
997.48	228.18
997.77	228.16
998.06	228.20
998.34	228.16
998.63	228.14
998.92	228.18
999.21	228.25
999.50	228.34
999.79	228.21
1000.08	228.29
1000.37	228.37
1000.66	228.27
1000.95	228.41
1001.24	228.44
1001.53	228.51
1001.82	228.58
1002.11	228.47
1002.40	228.34
1002.68	228.41
1002.97	228.48
1003.26	228.50
1003.55	228.45
1003.84	228.64
1004.13	228.69
1004.42	228.65
1004.71	228.60
1004.99	228.66
1005.28	228.61
1005.57	228.59
1005.86	228.60
1006.15	228.58
1006.44	228.44
1006.72	228.54
1007.01	228.40
1007.30	228.50
1007.59	228.43
1007.88	228.34
1008.17	228.44
1008.45	228.44
1008.74	228.44
1009.03	228.38
1009.32	228.35
1009.60	228.51
1009.89	228.42
1010.18	228.41
1010.47	228.43
1010.76	228.50
1011.04	228.52
1011.33	228.71
1011.62	228.61
1011.91	228.58
1012.19	228.53
1012.48	228.55
1012.77	228.47
1013.05	228.61
1013.34	228.53
1013.63	228.50
1013.92	228.57
1014.20	228.45
1014.49	228.52
1014.78	228.48
1015.06	228.39
1015.35	228.41
1015.64	228.26
1015.92	228.15
1016.21	228.06
1016.50	228.05
1016.78	228.11
1017.07	228.05
1017.36	227.83
1017.64	227.77
1017.93	227.79
1018.22	227.80
1018.50	227.76
1018.79	227.79
1019.08	227.73
1019.36	227.74
1019.65	227.77
1019.93	227.76
1020.22	227.86
1020.51	227.96
1020.79	227.93
1021.08	227.30
1021.36	226.20
1021.65	228.40
1021.94	228.50
1022.22	228.50
1022.51	228.20
1022.79	228.50
1023.08	229.10
1023.36	231.30
1023.65	227.50
>>>>>End Processed Spectral Data<<<<<
