SpectraSuite Data File
++++++++++++++++++++++++++++++++++++
Date: Fri Feb 01 14:38:08 EST 2013
User: group
Dark Spectrum Present: No
Reference Spectrum Present: No
Number of Sampled Component Spectra: 1
Spectrometers: USB2E7196
Integration Time (usec): 70000 (USB2E7196)
Spectra Averaged: 10 (USB2E7196)
Boxcar Smoothing: 10 (USB2E7196)
Correct for Electrical Dark: No (USB2E7196)
Strobe/Lamp Enabled: No (USB2E7196)
Correct for Detector Non-linearity: No (USB2E7196)
Correct for Stray Light: No (USB2E7196)
Number of Pixels in Processed Spectrum: 2048
>>>>>Begin Processed Spectral Data<<<<<
339.09	0.00
339.48	215.20
339.86	217.50
340.24	219.50
340.63	219.10
341.01	224.20
341.39	222.70
341.78	225.20
342.16	226.40
342.54	226.20
342.93	214.54
343.31	225.34
343.69	225.93
344.07	226.47
344.46	226.92
344.84	227.39
345.22	227.60
345.60	227.86
345.99	228.00
346.37	228.11
346.75	228.23
347.13	228.44
347.52	228.50
347.90	228.52
348.28	228.59
348.66	228.66
349.05	228.59
349.43	228.57
349.81	228.68
350.19	228.72
350.57	228.80
350.96	228.87
351.34	229.01
351.72	229.08
352.10	229.12
352.48	229.09
352.87	229.12
353.25	229.22
353.63	229.20
354.01	229.36
354.39	229.43
354.77	229.55
355.15	229.73
355.54	229.77
355.92	229.84
356.30	229.85
356.68	230.08
357.06	230.25
357.44	230.30
357.82	230.27
358.20	230.41
358.58	230.47
358.97	230.60
359.35	230.67
359.73	230.75
360.11	230.79
360.49	230.94
360.87	231.03
361.25	231.08
361.63	231.24
362.01	231.20
362.39	231.20
362.77	231.14
363.15	231.01
363.53	231.01
363.91	230.96
364.29	231.08
364.67	230.81
365.05	230.76
365.43	230.79
365.81	230.80
366.19	230.69
366.57	230.64
366.95	230.55
367.33	230.50
367.71	230.43
368.09	230.47
368.47	230.40
368.85	230.21
369.23	230.16
369.61	230.03
369.99	230.01
370.37	229.90
370.75	229.94
371.13	229.82
371.51	229.66
371.89	229.59
372.27	229.44
372.65	229.40
373.03	229.33
373.41	229.25
373.78	229.10
374.16	229.00
374.54	228.93
374.92	228.70
375.30	228.53
375.68	228.42
376.06	228.27
376.44	228.12
376.82	228.21
377.19	228.13
377.57	227.98
377.95	227.85
378.33	227.86
378.71	227.62
379.09	227.55
379.47	227.64
379.84	227.58
380.22	227.52
380.60	227.44
380.98	227.36
381.36	227.20
381.73	227.16
382.11	227.17
382.49	227.15
382.87	227.15
383.25	227.23
383.62	227.35
384.00	227.22
384.38	227.24
384.76	227.13
385.13	227.09
385.51	227.14
385.89	227.09
386.27	227.01
386.64	227.04
387.02	227.03
387.40	226.92
387.78	226.89
388.15	226.87
388.53	226.82
388.91	226.79
389.29	226.76
389.66	226.73
390.04	226.62
390.42	226.60
390.79	226.63
391.17	226.57
391.55	226.50
391.92	226.51
392.30	226.54
392.68	226.50
393.05	226.52
393.43	226.50
393.81	226.59
394.18	226.54
394.56	226.58
394.94	226.63
395.31	226.66
395.69	226.75
396.06	226.80
396.44	226.87
396.82	226.94
397.19	227.17
397.57	227.24
397.95	227.36
398.32	227.41
398.70	227.45
399.07	227.52
399.45	227.51
399.82	227.64
400.20	227.69
400.58	227.80
400.95	227.79
401.33	227.98
401.70	228.13
402.08	228.27
402.45	228.43
402.83	228.62
403.20	228.81
403.58	228.79
403.95	228.98
404.33	229.18
404.71	229.40
405.08	229.60
405.46	229.75
405.83	229.94
406.21	230.02
406.58	230.23
406.96	230.45
407.33	230.65
407.70	230.87
408.08	231.27
408.45	231.58
408.83	231.95
409.20	232.26
409.58	232.41
409.95	232.94
410.33	233.25
410.70	233.60
411.08	233.99
411.45	234.55
411.82	234.97
412.20	235.37
412.57	235.88
412.95	236.10
413.32	236.64
413.69	237.13
414.07	237.62
414.44	238.27
414.82	238.92
415.19	239.59
415.56	240.42
415.94	241.03
416.31	241.85
416.68	242.75
417.06	243.50
417.43	244.43
417.81	245.24
418.18	246.34
418.55	247.37
418.93	248.49
419.30	249.70
419.67	250.94
420.04	252.24
420.42	253.45
420.79	255.20
421.16	256.68
421.54	258.32
421.91	260.21
422.28	261.97
422.66	263.85
423.03	265.73
423.40	267.50
423.77	269.58
424.15	271.69
424.52	273.73
424.89	276.15
425.26	278.28
425.64	280.42
426.01	282.75
426.38	285.24
426.75	287.74
427.13	290.22
427.50	292.77
427.87	295.40
428.24	298.20
428.61	300.73
428.99	303.74
429.36	306.81
429.73	309.80
430.10	312.79
430.47	315.93
430.85	319.19
431.22	322.55
431.59	326.15
431.96	329.48
432.33	333.17
432.70	336.79
433.08	341.23
433.45	345.34
433.82	349.29
434.19	353.65
434.56	358.05
434.93	362.19
435.30	366.34
435.68	371.01
436.05	375.52
436.42	379.96
436.79	384.04
437.16	388.50
437.53	393.20
437.90	397.80
438.27	402.06
438.64	406.80
439.01	411.10
439.38	414.95
439.75	418.69
440.13	422.89
440.50	427.07
440.87	430.27
441.24	433.63
441.61	437.31
441.98	440.22
442.35	443.40
442.72	446.77
443.09	450.13
443.46	452.26
443.83	453.82
444.20	455.16
444.57	457.09
444.94	458.03
445.31	459.11
445.68	460.10
446.05	460.95
446.42	460.82
446.79	460.80
447.16	460.58
447.53	460.69
447.90	459.38
448.27	457.89
448.64	455.87
449.01	454.66
449.37	452.04
449.74	449.50
450.11	446.48
450.48	443.14
450.85	439.52
451.22	436.47
451.59	433.50
451.96	430.85
452.33	426.99
452.70	423.61
453.07	419.39
453.43	415.25
453.80	411.17
454.17	407.02
454.54	403.18
454.91	399.03
455.28	394.81
455.65	391.22
456.02	387.58
456.38	384.40
456.75	380.22
457.12	376.98
457.49	373.44
457.86	370.19
458.23	367.25
458.59	364.09
458.96	360.79
459.33	357.79
459.70	354.80
460.07	352.43
460.43	349.69
460.80	347.12
461.17	344.76
461.54	342.30
461.91	340.16
462.27	337.89
462.64	335.91
463.01	333.88
463.38	331.81
463.74	329.53
464.11	327.76
464.48	326.20
464.85	324.26
465.21	322.91
465.58	321.22
465.95	319.58
466.32	318.00
466.68	316.58
467.05	315.16
467.42	313.79
467.78	312.12
468.15	310.67
468.52	309.52
468.88	308.08
469.25	306.83
469.62	305.87
469.98	304.76
470.35	303.61
470.72	302.52
471.08	301.26
471.45	300.40
471.82	299.30
472.18	298.04
472.55	297.20
472.92	296.18
473.28	295.31
473.65	294.32
474.02	293.43
474.38	292.69
474.75	292.06
475.11	291.27
475.48	290.80
475.85	290.23
476.21	289.60
476.58	289.15
476.94	288.59
477.31	287.98
477.67	287.33
478.04	286.85
478.41	286.47
478.77	286.20
479.14	285.65
479.50	285.27
479.87	285.10
480.23	284.77
480.60	284.53
480.96	284.30
481.33	284.10
481.69	283.98
482.06	283.80
482.42	283.72
482.79	283.64
483.15	283.42
483.52	283.40
483.88	283.32
484.25	283.11
484.61	283.06
484.98	282.91
485.34	283.06
485.71	283.10
486.07	283.10
486.44	283.06
486.80	283.24
487.17	283.35
487.53	283.58
487.90	283.88
488.26	284.05
488.62	284.25
488.99	284.44
489.35	284.78
489.72	284.98
490.08	285.17
490.44	285.32
490.81	285.79
491.17	286.05
491.54	286.25
491.90	286.65
492.26	287.08
492.63	287.51
492.99	287.73
493.36	288.05
493.72	288.45
494.08	288.87
494.45	289.32
494.81	289.78
495.17	290.07
495.54	290.44
495.90	290.88
496.26	291.21
496.63	291.50
496.99	291.97
497.35	292.38
497.72	292.80
498.08	293.23
498.44	293.56
498.80	294.06
499.17	294.64
499.53	295.14
499.89	295.60
500.26	296.01
500.62	296.47
500.98	297.00
501.34	297.31
501.71	297.78
502.07	298.08
502.43	298.47
502.79	298.84
503.16	299.02
503.52	299.42
503.88	299.89
504.24	300.29
504.60	300.50
504.97	300.86
505.33	301.10
505.69	301.57
506.05	301.80
506.41	302.00
506.78	302.24
507.14	302.44
507.50	302.64
507.86	302.76
508.22	302.97
508.59	303.20
508.95	303.54
509.31	303.73
509.67	304.09
510.03	304.34
510.39	304.59
510.75	305.00
511.12	305.23
511.48	305.37
511.84	305.66
512.20	305.96
512.56	306.31
512.92	306.72
513.28	306.96
513.64	307.29
514.00	307.62
514.37	308.00
514.73	308.53
515.09	308.88
515.45	309.46
515.81	310.05
516.17	310.61
516.53	311.12
516.89	311.65
517.25	312.25
517.61	312.97
517.97	313.84
518.33	314.71
518.69	315.60
519.05	316.66
519.41	317.77
519.77	319.09
520.13	320.25
520.49	321.36
520.85	322.65
521.21	324.17
521.57	325.51
521.93	326.92
522.29	328.39
522.65	330.05
523.01	331.79
523.37	333.57
523.73	335.53
524.09	337.57
524.45	339.67
524.81	341.59
525.17	343.85
525.53	346.01
525.89	348.29
526.25	350.57
526.61	352.82
526.97	355.17
527.33	357.60
527.68	360.25
528.04	363.13
528.40	365.93
528.76	368.78
529.12	372.05
529.48	375.17
529.84	378.22
530.20	381.51
530.56	384.88
530.91	388.33
531.27	391.65
531.63	395.17
531.99	398.76
532.35	402.51
532.71	406.13
533.07	410.10
533.42	414.09
533.78	418.20
534.14	422.40
534.50	426.51
534.86	430.64
535.21	434.95
535.57	439.44
535.93	443.76
536.29	448.54
536.65	452.99
537.00	457.59
537.36	462.44
537.72	467.11
538.08	471.90
538.44	476.47
538.79	481.37
539.15	486.10
539.51	491.03
539.87	496.20
540.22	501.23
540.58	506.39
540.94	511.40
541.29	516.36
541.65	521.56
542.01	527.23
542.37	532.69
542.72	538.14
543.08	543.43
543.44	549.22
543.79	554.19
544.15	559.61
544.51	565.31
544.87	570.80
545.22	576.32
545.58	581.79
545.94	587.40
546.29	592.85
546.65	598.26
547.01	603.56
547.36	609.03
547.72	614.55
548.07	620.04
548.43	625.66
548.79	631.32
549.14	636.67
549.50	641.73
549.86	646.82
550.21	651.96
550.57	657.29
550.92	662.28
551.28	667.85
551.64	673.20
551.99	678.46
552.35	683.60
552.70	688.87
553.06	694.23
553.41	699.77
553.77	705.24
554.13	710.68
554.48	716.36
554.84	721.63
555.19	726.87
555.55	732.04
555.90	737.16
556.26	742.20
556.61	747.33
556.97	752.49
557.32	757.94
557.68	763.00
558.03	768.38
558.39	773.29
558.74	778.31
559.10	783.06
559.45	787.82
559.81	792.95
560.16	797.60
560.52	802.35
560.87	806.88
561.23	811.36
561.58	816.32
561.94	820.65
562.29	825.13
562.64	829.60
563.00	833.97
563.35	838.63
563.71	843.43
564.06	848.00
564.42	852.31
564.77	856.75
565.12	861.10
565.48	865.27
565.83	869.63
566.19	873.61
566.54	877.54
566.89	881.58
567.25	885.28
567.60	889.46
567.96	893.29
568.31	896.76
568.66	900.33
569.02	904.03
569.37	907.50
569.72	910.89
570.08	914.07
570.43	917.56
570.78	920.35
571.14	923.10
571.49	925.91
571.84	929.12
572.20	931.52
572.55	934.32
572.90	936.65
573.26	939.36
573.61	941.97
573.96	944.48
574.31	946.33
574.67	948.09
575.02	949.99
575.37	951.77
575.72	953.56
576.08	955.63
576.43	956.88
576.78	958.64
577.13	960.37
577.49	962.22
577.84	963.51
578.19	965.04
578.54	966.22
578.90	967.68
579.25	968.71
579.60	969.70
579.95	970.46
580.30	971.06
580.66	971.53
581.01	971.69
581.36	972.45
581.71	973.25
582.06	974.27
582.42	974.66
582.77	974.83
583.12	975.34
583.47	975.67
583.82	976.21
584.17	976.30
584.53	976.80
584.88	977.05
585.23	976.99
585.58	977.14
585.93	977.27
586.28	977.15
586.63	977.24
586.98	977.55
587.34	977.57
587.69	977.70
588.04	977.73
588.39	977.97
588.74	977.46
589.09	977.15
589.44	976.51
589.79	976.19
590.14	976.32
590.49	976.07
590.84	975.25
591.19	974.60
591.54	973.86
591.89	972.35
592.25	971.26
592.60	970.34
592.95	969.12
593.30	967.88
593.65	966.65
594.00	965.37
594.35	964.46
594.70	962.86
595.05	961.89
595.40	960.22
595.75	958.63
596.10	957.42
596.45	956.03
596.80	954.90
597.15	953.63
597.50	951.94
597.85	950.73
598.19	949.60
598.54	948.44
598.89	947.20
599.24	946.26
599.59	944.90
599.94	943.32
600.29	941.87
600.64	940.38
600.99	938.78
601.34	937.27
601.69	935.13
602.04	933.79
602.39	931.98
602.74	930.62
603.08	929.49
603.43	928.35
603.78	927.04
604.13	925.28
604.48	923.41
604.83	922.05
605.18	920.04
605.53	918.00
605.87	915.60
606.22	913.79
606.57	911.83
606.92	909.71
607.27	908.06
607.62	906.13
607.96	904.34
608.31	902.48
608.66	900.19
609.01	897.91
609.36	895.55
609.70	892.63
610.05	890.06
610.40	887.54
610.75	884.57
611.10	881.68
611.44	878.89
611.79	876.23
612.14	873.27
612.49	869.93
612.83	867.21
613.18	864.54
613.53	861.70
613.88	858.50
614.22	855.67
614.57	852.48
614.92	849.69
615.27	846.93
615.61	843.71
615.96	840.69
616.31	838.03
616.65	835.40
617.00	832.73
617.35	829.97
617.70	826.89
618.04	823.97
618.39	821.30
618.74	818.60
619.08	815.52
619.43	812.68
619.78	810.50
620.12	807.59
620.47	804.46
620.82	801.26
621.16	798.50
621.51	795.85
621.85	792.92
622.20	789.74
622.55	786.59
622.89	783.99
623.24	781.07
623.59	778.16
623.93	775.36
624.28	772.76
624.62	769.99
624.97	767.28
625.32	764.76
625.66	761.95
626.01	759.22
626.35	756.57
626.70	753.65
627.04	750.80
627.39	747.80
627.73	745.10
628.08	742.44
628.43	739.56
628.77	736.43
629.12	733.32
629.46	730.37
629.81	727.20
630.15	723.84
630.50	720.88
630.84	717.50
631.19	714.19
631.53	711.08
631.88	707.86
632.22	704.32
632.57	701.06
632.91	697.82
633.26	694.63
633.60	691.55
633.95	688.48
634.29	685.46
634.64	682.74
634.98	679.68
635.32	676.87
635.67	674.13
636.01	671.30
636.36	668.62
636.70	665.87
637.05	663.41
637.39	660.83
637.73	658.24
638.08	656.00
638.42	653.39
638.77	650.83
639.11	648.21
639.45	645.53
639.80	642.66
640.14	640.11
640.49	637.17
640.83	634.36
641.17	631.55
641.52	628.50
641.86	625.53
642.20	623.01
642.55	620.11
642.89	617.28
643.23	614.40
643.58	611.93
643.92	609.21
644.26	606.37
644.61	603.81
644.95	601.13
645.29	597.89
645.64	595.04
645.98	592.00
646.32	589.23
646.66	586.55
647.01	583.85
647.35	581.03
647.69	578.60
648.04	576.20
648.38	573.49
648.72	570.81
649.06	567.92
649.41	565.04
649.75	562.11
650.09	559.25
650.43	556.71
650.78	553.57
651.12	550.78
651.46	548.16
651.80	545.40
652.14	542.60
652.49	540.14
652.83	537.53
653.17	534.74
653.51	531.99
653.85	529.54
654.20	526.92
654.54	524.14
654.88	521.31
655.22	518.23
655.56	515.62
655.90	513.08
656.25	510.66
656.59	508.19
656.93	505.85
657.27	503.34
657.61	500.57
657.95	498.34
658.29	495.84
658.64	493.29
658.98	490.80
659.32	488.28
659.66	485.73
660.00	483.41
660.34	481.22
660.68	478.82
661.02	476.41
661.36	474.10
661.70	472.08
662.05	470.03
662.39	468.08
662.73	465.96
663.07	463.95
663.41	461.97
663.75	459.62
664.09	457.47
664.43	455.33
664.77	453.39
665.11	451.37
665.45	449.32
665.79	447.18
666.13	445.06
666.47	443.11
666.81	441.19
667.15	438.96
667.49	436.90
667.83	434.99
668.17	432.84
668.51	430.84
668.85	428.67
669.19	426.73
669.53	424.78
669.87	422.73
670.21	420.96
670.55	418.98
670.89	417.42
671.23	415.68
671.57	414.08
671.91	412.48
672.25	410.67
672.58	409.04
672.92	407.43
673.26	405.79
673.60	404.12
673.94	402.54
674.28	401.06
674.62	399.60
674.96	398.08
675.30	396.61
675.64	395.06
675.97	393.53
676.31	391.83
676.65	390.26
676.99	388.80
677.33	387.03
677.67	385.49
678.01	383.98
678.34	382.44
678.68	380.95
679.02	379.25
679.36	377.70
679.70	376.30
680.04	374.71
680.37	373.17
680.71	371.68
681.05	370.40
681.39	369.05
681.73	367.66
682.06	366.39
682.40	365.15
682.74	363.81
683.08	362.59
683.42	361.50
683.75	360.34
684.09	359.04
684.43	357.90
684.77	356.74
685.10	355.46
685.44	354.17
685.78	352.96
686.12	351.80
686.45	350.79
686.79	349.45
687.13	348.44
687.46	347.37
687.80	346.25
688.14	344.80
688.48	343.60
688.81	342.37
689.15	341.15
689.49	339.99
689.82	338.93
690.16	337.80
690.50	336.65
690.83	335.47
691.17	334.41
691.51	333.25
691.84	332.10
692.18	330.99
692.52	330.12
692.85	328.88
693.19	327.81
693.52	326.60
693.86	325.57
694.20	324.60
694.53	323.50
694.87	322.32
695.21	321.31
695.54	320.30
695.88	319.28
696.21	318.15
696.55	317.16
696.88	316.19
697.22	315.19
697.56	314.13
697.89	313.20
698.23	312.21
698.56	311.16
698.90	310.23
699.23	309.18
699.57	308.06
699.90	307.18
700.24	306.34
700.58	305.40
700.91	304.62
701.25	303.74
701.58	303.10
701.92	302.46
702.25	301.79
702.59	300.95
702.92	300.22
703.26	299.53
703.59	298.75
703.93	298.03
704.26	297.30
704.60	296.61
704.93	295.73
705.26	295.02
705.60	294.43
705.93	293.75
706.27	293.25
706.60	292.66
706.94	292.00
707.27	291.23
707.61	290.65
707.94	289.92
708.27	289.22
708.61	288.37
708.94	287.68
709.28	286.99
709.61	286.38
709.94	285.80
710.28	285.10
710.61	284.43
710.95	283.59
711.28	283.12
711.61	282.50
711.95	282.02
712.28	281.41
712.61	280.72
712.95	280.20
713.28	279.59
713.61	278.90
713.95	278.33
714.28	277.81
714.61	277.35
714.95	276.86
715.28	276.31
715.61	275.73
715.95	275.13
716.28	274.60
716.61	274.10
716.95	273.48
717.28	273.06
717.61	272.63
717.94	272.39
718.28	271.74
718.61	271.33
718.94	270.74
719.27	270.30
719.61	269.85
719.94	269.42
720.27	269.07
720.60	268.72
720.94	268.39
721.27	268.02
721.60	267.43
721.93	266.98
722.27	266.68
722.60	266.50
722.93	266.20
723.26	265.86
723.59	265.49
723.93	265.19
724.26	264.69
724.59	264.24
724.92	263.78
725.25	263.47
725.59	263.06
725.92	262.92
726.25	262.54
726.58	262.30
726.91	261.92
727.24	261.50
727.57	261.16
727.91	260.74
728.24	260.42
728.57	260.20
728.90	259.88
729.23	259.43
729.56	259.10
729.89	258.73
730.22	258.38
730.55	257.97
730.89	257.62
731.22	257.48
731.55	257.24
731.88	256.93
732.21	256.59
732.54	256.27
732.87	256.03
733.20	255.77
733.53	255.50
733.86	255.20
734.19	254.90
734.52	254.55
734.85	254.39
735.18	254.10
735.51	253.91
735.84	253.63
736.17	253.48
736.50	253.08
736.83	253.03
737.16	252.79
737.49	252.63
737.82	252.47
738.15	252.29
738.48	252.03
738.81	251.81
739.14	251.57
739.47	251.33
739.80	250.89
740.13	250.64
740.46	250.43
740.79	250.17
741.12	249.97
741.45	249.77
741.78	249.49
742.11	249.29
742.44	249.04
742.77	248.82
743.10	248.41
743.43	248.18
743.75	247.83
744.08	247.90
744.41	247.59
744.74	247.38
745.07	247.04
745.40	246.83
745.73	246.80
746.06	246.60
746.39	246.36
746.71	246.17
747.04	245.83
747.37	245.55
747.70	245.41
748.03	245.25
748.36	245.14
748.68	244.95
749.01	244.72
749.34	244.56
749.67	244.45
750.00	244.40
750.33	244.53
750.65	244.24
750.98	243.79
751.31	243.71
751.64	243.49
751.97	243.48
752.29	243.29
752.62	243.01
752.95	242.81
753.28	242.67
753.60	242.55
753.93	242.56
754.26	242.48
754.59	242.31
754.91	242.09
755.24	241.93
755.57	241.78
755.90	241.71
756.22	241.46
756.55	241.25
756.88	241.10
757.20	240.72
757.53	240.58
757.86	240.50
758.19	240.35
758.51	240.21
758.84	239.98
759.17	239.92
759.49	239.67
759.82	239.67
760.15	239.56
760.47	239.55
760.80	239.38
761.13	239.20
761.45	239.11
761.78	238.98
762.11	238.82
762.43	238.73
762.76	238.54
763.08	238.48
763.41	238.43
763.74	238.21
764.06	238.14
764.39	238.10
764.71	238.07
765.04	237.90
765.37	237.80
765.69	237.67
766.02	237.43
766.34	237.43
766.67	237.25
767.00	237.17
767.32	237.17
767.65	237.23
767.97	237.13
768.30	237.05
768.62	236.99
768.95	236.93
769.27	236.90
769.60	236.82
769.92	236.71
770.25	236.56
770.57	236.59
770.90	236.53
771.22	236.44
771.55	236.24
771.87	236.31
772.20	236.15
772.52	236.24
772.85	236.44
773.17	236.29
773.50	236.24
773.82	236.19
774.15	235.93
774.47	235.66
774.80	235.71
775.12	235.59
775.45	235.56
775.77	235.51
776.09	235.39
776.42	235.28
776.74	235.23
777.07	235.16
777.39	234.97
777.72	234.88
778.04	234.83
778.36	234.72
778.69	234.67
779.01	234.70
779.33	234.41
779.66	234.07
779.98	234.13
780.31	233.91
780.63	233.89
780.95	233.83
781.28	233.74
781.60	233.60
781.92	233.53
782.25	233.40
782.57	233.33
782.89	233.27
783.22	233.35
783.54	233.28
783.86	233.22
784.19	233.16
784.51	233.14
784.83	233.12
785.16	233.06
785.48	233.01
785.80	232.93
786.12	232.87
786.45	232.91
786.77	232.76
787.09	232.80
787.42	232.66
787.74	232.60
788.06	232.66
788.38	232.50
788.71	232.40
789.03	232.40
789.35	232.43
789.67	232.30
789.99	232.22
790.32	232.16
790.64	232.16
790.96	232.23
791.28	232.02
791.61	231.86
791.93	231.86
792.25	231.78
792.57	231.91
792.89	231.98
793.21	232.04
793.54	232.09
793.86	232.01
794.18	232.07
794.50	231.99
794.82	231.89
795.14	231.89
795.47	231.98
795.79	231.97
796.11	231.80
796.43	231.70
796.75	231.59
797.07	231.56
797.39	231.54
797.71	231.50
798.04	231.60
798.36	231.62
798.68	231.59
799.00	231.55
799.32	231.42
799.64	231.37
799.96	231.21
800.28	231.17
800.60	231.13
800.92	231.11
801.24	231.10
801.56	231.17
801.89	231.21
802.21	231.22
802.53	231.09
802.85	231.10
803.17	231.28
803.49	231.20
803.81	231.13
804.13	231.15
804.45	231.10
804.77	231.02
805.09	230.99
805.41	230.97
805.73	230.92
806.05	230.77
806.37	230.70
806.69	230.70
807.01	230.67
807.33	230.73
807.65	230.59
807.97	230.70
808.28	230.64
808.60	230.62
808.92	230.55
809.24	230.77
809.56	230.77
809.88	230.62
810.20	230.63
810.52	230.65
810.84	230.60
811.16	230.53
811.48	230.60
811.80	230.74
812.12	230.70
812.43	230.68
812.75	230.76
813.07	230.74
813.39	230.67
813.71	230.46
814.03	230.41
814.35	230.42
814.67	230.19
814.98	230.16
815.30	230.14
815.62	230.04
815.94	229.72
816.26	229.65
816.58	229.63
816.89	229.63
817.21	229.55
817.53	229.57
817.85	229.55
818.17	229.50
818.48	229.42
818.80	229.38
819.12	229.25
819.44	229.05
819.76	229.04
820.07	229.10
820.39	229.22
820.71	229.25
821.03	229.25
821.34	229.38
821.66	229.36
821.98	229.29
822.30	229.30
822.61	229.42
822.93	229.30
823.25	229.34
823.57	229.26
823.88	229.32
824.20	229.17
824.52	229.15
824.83	229.10
825.15	228.97
825.47	229.01
825.79	229.01
826.10	229.06
826.42	228.95
826.74	228.85
827.05	228.84
827.37	228.88
827.69	228.82
828.00	228.75
828.32	228.66
828.64	228.70
828.95	228.75
829.27	228.76
829.58	228.92
829.90	228.84
830.22	228.91
830.53	228.82
830.85	228.93
831.17	228.90
831.48	228.85
831.80	228.75
832.11	228.72
832.43	228.90
832.75	228.92
833.06	229.11
833.38	229.12
833.69	229.10
834.01	229.02
834.32	229.14
834.64	229.23
834.96	229.26
835.27	229.27
835.59	229.24
835.90	229.24
836.22	229.22
836.53	229.29
836.85	229.23
837.16	229.58
837.48	229.56
837.79	229.68
838.11	229.78
838.42	229.86
838.74	229.93
839.05	229.90
839.37	229.94
839.68	229.87
840.00	229.85
840.31	229.90
840.63	229.84
840.94	229.76
841.26	229.70
841.57	229.79
841.88	229.81
842.20	229.86
842.51	229.80
842.83	229.73
843.14	229.86
843.46	229.95
843.77	229.78
844.08	229.76
844.40	229.66
844.71	229.63
845.03	229.68
845.34	229.65
845.65	229.57
845.97	229.56
846.28	229.56
846.60	229.60
846.91	229.63
847.22	229.68
847.54	229.64
847.85	229.72
848.16	229.72
848.48	229.57
848.79	229.55
849.10	229.55
849.42	229.62
849.73	229.52
850.04	229.44
850.36	229.32
850.67	229.33
850.98	229.38
851.30	229.31
851.61	229.35
851.92	229.24
852.23	229.20
852.55	229.32
852.86	229.28
853.17	229.17
853.49	229.04
853.80	229.02
854.11	229.05
854.42	228.90
854.74	228.77
855.05	228.72
855.36	228.64
855.67	228.67
855.99	228.58
856.30	228.63
856.61	228.63
856.92	228.47
857.23	228.43
857.55	228.35
857.86	228.32
858.17	228.19
858.48	228.28
858.79	228.25
859.11	228.14
859.42	228.20
859.73	228.26
860.04	228.32
860.35	228.25
860.66	228.15
860.98	228.18
861.29	228.18
861.60	228.25
861.91	228.24
862.22	228.16
862.53	228.12
862.84	227.99
863.16	228.00
863.47	228.08
863.78	228.00
864.09	228.03
864.40	228.02
864.71	228.04
865.02	227.93
865.33	227.90
865.64	227.82
865.95	227.74
866.27	227.94
866.58	227.90
866.89	228.03
867.20	228.09
867.51	228.06
867.82	228.09
868.13	228.20
868.44	228.17
868.75	228.19
869.06	228.20
869.37	228.18
869.68	228.24
869.99	228.36
870.30	228.42
870.61	228.47
870.92	228.47
871.23	228.54
871.54	228.65
871.85	228.75
872.16	228.83
872.47	228.82
872.78	228.61
873.09	228.68
873.40	228.64
873.71	228.66
874.02	228.74
874.33	228.78
874.64	228.64
874.95	228.69
875.26	228.70
875.56	228.67
875.87	228.70
876.18	228.63
876.49	228.83
876.80	228.80
877.11	228.75
877.42	228.81
877.73	228.85
878.04	228.84
878.35	228.92
878.66	228.97
878.96	229.01
879.27	229.05
879.58	229.04
879.89	229.09
880.20	229.24
880.51	229.30
880.82	229.38
881.12	229.47
881.43	229.46
881.74	229.49
882.05	229.63
882.36	229.55
882.67	229.65
882.97	229.53
883.28	229.56
883.59	229.63
883.90	229.72
884.21	229.67
884.51	229.68
884.82	229.50
885.13	229.56
885.44	229.53
885.74	229.58
886.05	229.55
886.36	229.48
886.67	229.43
886.98	229.47
887.28	229.44
887.59	229.44
887.90	229.50
888.20	229.43
888.51	229.49
888.82	229.57
889.13	229.45
889.43	229.42
889.74	229.41
890.05	229.40
890.35	229.37
890.66	229.32
890.97	229.25
891.28	229.26
891.58	229.18
891.89	229.14
892.20	229.08
892.50	229.00
892.81	228.96
893.12	228.80
893.42	228.64
893.73	228.51
894.04	228.41
894.34	228.29
894.65	228.23
894.95	228.03
895.26	228.03
895.57	228.04
895.87	227.81
896.18	227.77
896.48	227.67
896.79	227.53
897.10	227.48
897.40	227.43
897.71	227.48
898.01	227.38
898.32	227.40
898.63	227.28
898.93	227.34
899.24	227.30
899.54	227.27
899.85	227.22
900.15	227.21
900.46	227.20
900.76	227.18
901.07	227.21
901.38	227.25
901.68	227.01
901.99	226.95
902.29	226.98
902.60	226.91
902.90	226.99
903.21	227.06
903.51	227.03
903.82	227.12
904.12	227.01
904.43	226.96
904.73	226.95
905.03	227.02
905.34	227.22
905.64	227.20
905.95	227.25
906.25	227.30
906.56	227.31
906.86	227.37
907.17	227.43
907.47	227.40
907.77	227.40
908.08	227.49
908.38	227.54
908.69	227.58
908.99	227.73
909.30	227.74
909.60	227.70
909.90	227.79
910.21	227.80
910.51	227.88
910.81	228.01
911.12	228.09
911.42	228.17
911.73	227.97
912.03	228.11
912.33	228.15
912.64	228.12
912.94	228.12
913.24	228.10
913.55	228.04
913.85	228.11
914.15	228.23
914.46	228.40
914.76	228.40
915.06	228.52
915.37	228.46
915.67	228.45
915.97	228.45
916.27	228.49
916.58	228.57
916.88	228.65
917.18	228.63
917.49	228.86
917.79	228.93
918.09	228.91
918.39	228.98
918.70	229.07
919.00	229.16
919.30	229.36
919.60	229.41
919.91	229.55
920.21	229.54
920.51	229.53
920.81	229.40
921.12	229.45
921.42	229.39
921.72	229.36
922.02	229.33
922.32	229.39
922.63	229.40
922.93	229.36
923.23	229.28
923.53	229.27
923.83	229.10
924.13	229.05
924.44	229.16
924.74	229.07
925.04	229.09
925.34	229.05
925.64	228.91
925.94	228.89
926.24	228.82
926.55	228.81
926.85	228.73
927.15	228.80
927.45	228.81
927.75	228.76
928.05	228.76
928.35	228.83
928.65	228.87
928.95	228.79
929.26	228.78
929.56	228.78
929.86	228.86
930.16	228.80
930.46	228.76
930.76	228.68
931.06	228.66
931.36	228.56
931.66	228.52
931.96	228.46
932.26	228.41
932.56	228.41
932.86	228.42
933.16	228.48
933.46	228.36
933.76	228.30
934.06	228.30
934.36	228.30
934.66	228.25
934.96	228.10
935.26	228.08
935.56	227.93
935.86	227.88
936.16	227.71
936.46	227.65
936.76	227.56
937.06	227.45
937.36	227.37
937.66	227.33
937.96	227.39
938.26	227.40
938.56	227.46
938.86	227.46
939.16	227.45
939.46	227.37
939.76	227.37
940.06	227.28
940.35	227.23
940.65	227.29
940.95	227.23
941.25	227.26
941.55	227.24
941.85	227.40
942.15	227.46
942.45	227.45
942.75	227.33
943.04	227.29
943.34	227.49
943.64	227.40
943.94	227.37
944.24	227.25
944.54	227.24
944.84	227.17
945.13	227.16
945.43	227.12
945.73	227.16
946.03	227.20
946.33	227.29
946.62	227.34
946.92	227.31
947.22	227.31
947.52	227.29
947.82	227.27
948.11	227.09
948.41	227.09
948.71	227.12
949.01	227.19
949.31	227.23
949.60	227.07
949.90	227.21
950.20	227.27
950.50	227.29
950.79	227.36
951.09	227.43
951.39	227.52
951.69	227.60
951.98	227.70
952.28	227.69
952.58	227.69
952.87	227.64
953.17	227.72
953.47	227.72
953.76	227.79
954.06	227.80
954.36	227.97
954.66	227.92
954.95	228.01
955.25	228.09
955.55	228.18
955.84	228.26
956.14	228.30
956.44	228.37
956.73	228.50
957.03	228.48
957.32	228.54
957.62	228.44
957.92	228.55
958.21	228.54
958.51	228.84
958.81	228.87
959.10	228.93
959.40	228.96
959.69	228.99
959.99	228.99
960.29	229.13
960.58	229.18
960.88	229.30
961.17	229.32
961.47	229.40
961.76	229.41
962.06	229.50
962.36	229.53
962.65	229.49
962.95	229.36
963.24	229.30
963.54	229.33
963.83	229.46
964.13	229.43
964.42	229.41
964.72	229.28
965.01	229.26
965.31	229.30
965.60	229.20
965.90	229.38
966.19	229.40
966.49	229.40
966.78	229.36
967.08	229.37
967.37	229.28
967.67	229.18
967.96	229.18
968.26	229.15
968.55	229.10
968.85	229.12
969.14	229.17
969.43	229.24
969.73	229.11
970.02	228.99
970.32	228.86
970.61	228.76
970.91	228.72
971.20	228.72
971.49	228.69
971.79	228.68
972.08	228.53
972.38	228.47
972.67	228.39
972.96	228.36
973.26	228.19
973.55	228.30
973.85	228.28
974.14	228.28
974.43	228.28
974.73	228.29
975.02	228.17
975.31	228.17
975.61	228.12
975.90	228.05
976.19	228.03
976.49	228.10
976.78	228.06
977.07	227.91
977.37	227.86
977.66	227.81
977.95	227.81
978.24	227.70
978.54	227.68
978.83	227.57
979.12	227.44
979.42	227.50
979.71	227.34
980.00	227.42
980.29	227.41
980.59	227.22
980.88	227.18
981.17	227.22
981.46	227.18
981.76	227.14
982.05	227.26
982.34	227.23
982.63	227.14
982.93	227.10
983.22	227.21
983.51	227.14
983.80	227.13
984.09	227.14
984.39	227.21
984.68	227.20
984.97	227.24
985.26	227.34
985.55	227.32
985.85	227.31
986.14	227.24
986.43	227.10
986.72	227.22
987.01	227.12
987.30	227.07
987.59	227.11
987.89	227.12
988.18	227.00
988.47	227.05
988.76	226.96
989.05	227.04
989.34	227.05
989.63	227.24
989.92	227.31
990.22	227.30
990.51	227.31
990.80	227.39
991.09	227.43
991.38	227.44
991.67	227.53
991.96	227.59
992.25	227.63
992.54	227.78
992.83	227.70
993.12	227.86
993.41	228.04
993.70	228.13
993.99	228.21
994.28	228.34
994.58	228.46
994.87	228.55
995.16	228.56
995.45	228.50
995.74	228.47
996.03	228.53
996.32	228.66
996.61	228.76
996.90	228.74
997.19	228.77
997.48	228.76
997.77	228.73
998.06	228.83
998.34	228.83
998.63	228.83
998.92	228.93
999.21	228.94
999.50	228.78
999.79	228.74
1000.08	228.78
1000.37	228.73
1000.66	228.65
1000.95	228.74
1001.24	228.80
1001.53	228.90
1001.82	228.81
1002.11	228.76
1002.40	228.77
1002.68	228.68
1002.97	228.83
1003.26	228.85
1003.55	228.85
1003.84	228.83
1004.13	228.80
1004.42	228.81
1004.71	228.80
1004.99	228.82
1005.28	228.80
1005.57	228.89
1005.86	228.84
1006.15	228.85
1006.44	228.81
1006.72	228.86
1007.01	228.85
1007.30	228.81
1007.59	228.75
1007.88	228.72
1008.17	228.76
1008.45	228.58
1008.74	228.58
1009.03	228.46
1009.32	228.40
1009.60	228.39
1009.89	228.39
1010.18	228.29
1010.47	228.17
1010.76	228.15
1011.04	228.10
1011.33	228.36
1011.62	228.38
1011.91	228.43
1012.19	228.44
1012.48	228.50
1012.77	228.47
1013.05	228.50
1013.34	228.43
1013.63	228.41
1013.92	228.41
1014.20	228.31
1014.49	228.42
1014.78	228.39
1015.06	228.36
1015.35	228.40
1015.64	228.42
1015.92	228.41
1016.21	228.50
1016.50	228.52
1016.78	228.51
1017.07	228.55
1017.36	228.25
1017.64	228.21
1017.93	228.18
1018.22	228.05
1018.50	227.96
1018.79	227.84
1019.08	227.71
1019.36	227.78
1019.65	227.79
1019.93	227.86
1020.22	227.93
1020.51	227.95
1020.79	227.88
1021.08	226.60
1021.36	227.30
1021.65	226.50
1021.94	227.20
1022.22	227.90
1022.51	227.90
1022.79	228.50
1023.08	228.40
1023.36	229.90
1023.65	225.60
>>>>>End Processed Spectral Data<<<<<
