SpectraSuite Data File
++++++++++++++++++++++++++++++++++++
Date: Fri Feb 01 14:41:06 EST 2013
User: group
Dark Spectrum Present: No
Reference Spectrum Present: No
Number of Sampled Component Spectra: 1
Spectrometers: USB2E7196
Integration Time (usec): 70000 (USB2E7196)
Spectra Averaged: 10 (USB2E7196)
Boxcar Smoothing: 10 (USB2E7196)
Correct for Electrical Dark: No (USB2E7196)
Strobe/Lamp Enabled: No (USB2E7196)
Correct for Detector Non-linearity: No (USB2E7196)
Correct for Stray Light: No (USB2E7196)
Number of Pixels in Processed Spectrum: 2048
>>>>>Begin Processed Spectral Data<<<<<
339.09	0.00
339.48	216.40
339.86	217.80
340.24	217.80
340.63	218.80
341.01	222.70
341.39	221.40
341.78	225.50
342.16	224.90
342.54	227.90
342.93	214.23
343.31	225.10
343.69	225.58
344.07	225.97
344.46	226.48
344.84	226.96
345.22	227.07
345.60	227.39
345.99	227.50
346.37	227.65
346.75	227.71
347.13	227.77
347.52	227.84
347.90	227.92
348.28	227.89
348.66	227.92
349.05	228.02
349.43	228.06
349.81	228.09
350.19	228.15
350.57	228.26
350.96	228.31
351.34	228.40
351.72	228.54
352.10	228.68
352.48	228.77
352.87	228.71
353.25	228.99
353.63	229.00
354.01	229.10
354.39	229.22
354.77	229.32
355.15	229.40
355.54	229.44
355.92	229.36
356.30	229.48
356.68	229.74
357.06	229.79
357.44	229.76
357.82	229.73
358.20	229.89
358.58	229.87
358.97	229.91
359.35	230.00
359.73	230.10
360.11	230.19
360.49	230.21
360.87	230.32
361.25	230.33
361.63	230.60
362.01	230.67
362.39	230.62
362.77	230.65
363.15	230.72
363.53	230.77
363.91	230.86
364.29	230.90
364.67	230.82
365.05	230.76
365.43	230.90
365.81	231.07
366.19	231.10
366.57	231.10
366.95	231.12
367.33	231.05
367.71	231.00
368.09	230.97
368.47	230.98
368.85	230.93
369.23	230.97
369.61	230.79
369.99	230.84
370.37	230.87
370.75	230.91
371.13	230.82
371.51	230.78
371.89	230.80
372.27	230.80
372.65	230.72
373.03	230.76
373.41	230.67
373.78	230.54
374.16	230.32
374.54	230.28
374.92	230.20
375.30	230.14
375.68	230.05
376.06	230.02
376.44	229.85
376.82	229.79
377.19	229.66
377.57	229.47
377.95	229.25
378.33	229.15
378.71	229.00
379.09	228.91
379.47	228.90
379.84	228.77
380.22	228.61
380.60	228.53
380.98	228.46
381.36	228.33
381.73	228.25
382.11	228.24
382.49	228.24
382.87	228.13
383.25	228.05
383.62	228.19
384.00	228.00
384.38	227.99
384.76	227.98
385.13	228.00
385.51	228.03
385.89	227.93
386.27	227.81
386.64	227.78
387.02	227.79
387.40	227.73
387.78	227.77
388.15	227.77
388.53	227.64
388.91	227.58
389.29	227.55
389.66	227.51
390.04	227.54
390.42	227.53
390.79	227.60
391.17	227.61
391.55	227.42
391.92	227.49
392.30	227.48
392.68	227.36
393.05	227.41
393.43	227.48
393.81	227.60
394.18	227.69
394.56	227.60
394.94	227.63
395.31	227.64
395.69	227.69
396.06	227.81
396.44	227.90
396.82	227.97
397.19	228.15
397.57	228.30
397.95	228.35
398.32	228.35
398.70	228.40
399.07	228.48
399.45	228.60
399.82	228.73
400.20	228.91
400.58	229.15
400.95	229.12
401.33	229.15
401.70	229.38
402.08	229.53
402.45	229.74
402.83	229.90
403.20	230.06
403.58	230.20
403.95	230.30
404.33	230.45
404.71	230.67
405.08	230.81
405.46	230.86
405.83	230.97
406.21	231.18
406.58	231.45
406.96	231.65
407.33	231.79
407.70	231.99
408.08	232.16
408.45	232.37
408.83	232.59
409.20	232.85
409.58	232.97
409.95	233.25
410.33	233.52
410.70	233.73
411.08	234.06
411.45	234.35
411.82	234.69
412.20	235.21
412.57	235.62
412.95	235.85
413.32	236.35
413.69	236.83
414.07	237.17
414.44	237.53
414.82	238.09
415.19	238.71
415.56	239.48
415.94	240.19
416.31	240.87
416.68	241.70
417.06	242.55
417.43	243.32
417.81	244.27
418.18	245.16
418.55	246.15
418.93	247.17
419.30	248.13
419.67	249.19
420.04	250.15
420.42	251.20
420.79	252.70
421.16	253.95
421.54	255.33
421.91	256.83
422.28	258.22
422.66	259.64
423.03	261.06
423.40	262.50
423.77	263.98
424.15	265.60
424.52	267.12
424.89	268.85
425.26	270.50
425.64	271.97
426.01	273.64
426.38	275.39
426.75	277.23
427.13	279.20
427.50	281.31
427.87	283.24
428.24	285.30
428.61	287.16
428.99	289.39
429.36	291.63
429.73	293.98
430.10	296.35
430.47	298.63
430.85	301.03
431.22	303.52
431.59	306.17
431.96	308.64
432.33	311.50
432.70	314.12
433.08	317.38
433.45	320.32
433.82	323.17
434.19	326.51
434.56	329.56
434.93	332.46
435.30	335.25
435.68	338.61
436.05	341.86
436.42	345.06
436.79	347.90
437.16	351.09
437.53	354.13
437.90	357.16
438.27	360.31
438.64	363.46
439.01	366.29
439.38	368.77
439.75	371.18
440.13	373.79
440.50	376.44
440.87	378.49
441.24	380.71
441.61	383.16
441.98	384.76
442.35	386.86
442.72	389.00
443.09	391.00
443.46	392.09
443.83	392.63
444.20	393.09
444.57	393.95
444.94	394.16
445.31	394.54
445.68	394.98
446.05	395.09
446.42	394.68
446.79	394.30
447.16	393.90
447.53	393.59
447.90	392.41
448.27	391.02
448.64	389.23
449.01	387.91
449.37	385.80
449.74	383.64
450.11	381.19
450.48	378.36
450.85	375.61
451.22	373.18
451.59	370.98
451.96	368.76
452.33	365.86
452.70	363.14
453.07	360.00
453.43	356.63
453.80	353.41
454.17	350.37
454.54	347.39
454.91	344.21
455.28	341.20
455.65	338.29
456.02	335.73
456.38	333.37
456.75	330.35
457.12	327.78
457.49	325.29
457.86	322.63
458.23	320.59
458.59	318.15
458.96	315.91
459.33	313.67
459.70	311.55
460.07	309.76
460.43	307.85
460.80	306.09
461.17	304.53
461.54	302.82
461.91	301.19
462.27	299.37
462.64	298.04
463.01	296.44
463.38	295.03
463.74	293.35
464.11	291.76
464.48	290.57
464.85	289.32
465.21	288.24
465.58	287.24
465.95	285.93
466.32	284.92
466.68	283.70
467.05	282.63
467.42	281.62
467.78	280.44
468.15	279.52
468.52	278.53
468.88	277.51
469.25	276.48
469.62	275.68
469.98	274.99
470.35	274.18
470.72	273.40
471.08	272.68
471.45	271.95
471.82	271.41
472.18	270.70
472.55	270.10
472.92	269.47
473.28	268.77
473.65	268.15
474.02	267.50
474.38	267.00
474.75	266.54
475.11	266.07
475.48	265.78
475.85	265.16
476.21	264.80
476.58	264.33
476.94	264.01
477.31	263.63
477.67	263.27
478.04	262.94
478.41	262.70
478.77	262.57
479.14	262.37
479.50	262.18
479.87	262.04
480.23	261.92
480.60	261.82
480.96	261.70
481.33	261.72
481.69	261.77
482.06	261.72
482.42	261.82
482.79	261.80
483.15	261.80
483.52	262.04
483.88	262.06
484.25	262.22
484.61	262.43
484.98	262.54
485.34	262.85
485.71	263.10
486.07	263.40
486.44	263.53
486.80	263.88
487.17	264.20
487.53	264.78
487.90	265.20
488.26	265.75
488.62	266.40
488.99	266.83
489.35	267.44
489.72	268.25
490.08	268.90
490.44	269.60
490.81	270.36
491.17	271.27
491.54	272.30
491.90	273.44
492.26	274.57
492.63	275.90
492.99	276.99
493.36	278.26
493.72	279.70
494.08	281.21
494.45	282.68
494.81	284.35
495.17	285.89
495.54	287.80
495.90	289.55
496.26	291.56
496.63	293.75
496.99	295.91
497.35	298.34
497.72	300.79
498.08	303.50
498.44	306.34
498.80	309.10
499.17	312.17
499.53	315.24
499.89	318.53
500.26	321.72
500.62	325.35
500.98	329.20
501.34	333.01
501.71	336.99
502.07	341.13
502.43	345.51
502.79	349.98
503.16	354.69
503.52	359.56
503.88	364.50
504.24	369.81
504.60	375.24
504.97	380.68
505.33	386.31
505.69	392.43
506.05	398.68
506.41	404.92
506.78	411.59
507.14	418.33
507.50	425.24
507.86	432.67
508.22	440.20
508.59	447.66
508.95	455.52
509.31	463.73
509.67	472.37
510.03	480.89
510.39	489.75
510.75	498.56
511.12	507.85
511.48	517.27
511.84	527.01
512.20	537.07
512.56	547.42
512.92	558.17
513.28	568.80
513.64	579.62
514.00	591.02
514.37	602.44
514.73	613.99
515.09	625.75
515.45	637.60
515.81	649.73
516.17	662.07
516.53	674.93
516.89	687.67
517.25	700.31
517.61	713.28
517.97	726.55
518.33	740.06
518.69	753.79
519.05	767.80
519.41	781.83
519.77	796.28
520.13	810.68
520.49	825.37
520.85	839.83
521.21	854.44
521.57	869.63
521.93	884.43
522.29	900.07
522.65	915.37
523.01	930.92
523.37	946.22
523.73	962.08
524.09	977.58
524.45	993.50
524.81	1009.53
525.17	1026.12
525.53	1042.56
525.89	1059.09
526.25	1075.75
526.61	1092.16
526.97	1108.98
527.33	1125.93
527.68	1143.04
528.04	1159.54
528.40	1176.79
528.76	1194.57
529.12	1211.70
529.48	1229.23
529.84	1245.89
530.20	1263.78
530.56	1281.70
530.91	1300.16
531.27	1317.94
531.63	1335.76
531.99	1353.31
532.35	1370.58
532.71	1387.83
533.07	1405.40
533.42	1422.79
533.78	1440.20
534.14	1457.74
534.50	1474.50
534.86	1491.40
535.21	1507.91
535.57	1525.23
535.93	1541.93
536.29	1558.24
536.65	1575.03
537.00	1591.12
537.36	1608.05
537.72	1623.64
538.08	1639.19
538.44	1654.23
538.79	1669.40
539.15	1684.18
539.51	1700.00
539.87	1716.70
540.22	1732.07
540.58	1747.83
540.94	1763.09
541.29	1777.61
541.65	1792.54
542.01	1808.60
542.37	1823.56
542.72	1838.28
543.08	1852.38
543.44	1866.96
543.79	1880.33
544.15	1893.87
544.51	1908.31
544.87	1921.77
545.22	1935.25
545.58	1948.17
545.94	1960.82
546.29	1973.98
546.65	1987.07
547.01	1999.19
547.36	2010.33
547.72	2022.26
548.07	2033.43
548.43	2044.56
548.79	2055.81
549.14	2066.19
549.50	2075.22
549.86	2084.57
550.21	2094.02
550.57	2103.79
550.92	2113.02
551.28	2122.50
551.64	2131.38
551.99	2140.75
552.35	2149.38
552.70	2158.50
553.06	2168.10
553.41	2177.27
553.77	2185.87
554.13	2193.98
554.48	2202.34
554.84	2210.32
555.19	2217.75
555.55	2225.14
555.90	2232.31
556.26	2239.65
556.61	2247.22
556.97	2254.18
557.32	2261.69
557.68	2268.98
558.03	2276.18
558.39	2283.04
558.74	2290.68
559.10	2297.73
559.45	2303.57
559.81	2310.77
560.16	2316.11
560.52	2321.03
560.87	2326.37
561.23	2331.21
561.58	2336.95
561.94	2341.65
562.29	2346.31
562.64	2350.87
563.00	2355.37
563.35	2360.67
563.71	2365.96
564.06	2370.94
564.42	2375.82
564.77	2379.70
565.12	2384.64
565.48	2388.48
565.83	2391.72
566.19	2394.79
566.54	2397.68
566.89	2400.41
567.25	2402.75
567.60	2406.57
567.96	2409.79
568.31	2412.14
568.66	2414.44
569.02	2416.79
569.37	2418.11
569.72	2420.01
570.08	2421.96
570.43	2423.31
570.78	2423.96
571.14	2423.42
571.49	2423.68
571.84	2424.87
572.20	2424.87
572.55	2423.98
572.90	2423.25
573.26	2423.37
573.61	2422.64
573.96	2421.74
574.31	2419.90
574.67	2417.66
575.02	2415.43
575.37	2413.26
575.72	2410.53
576.08	2408.66
576.43	2405.80
576.78	2404.17
577.13	2402.11
577.49	2399.61
577.84	2397.22
578.19	2394.48
578.54	2391.66
578.90	2387.68
579.25	2383.03
579.60	2379.17
579.95	2375.36
580.30	2371.36
580.66	2366.73
581.01	2362.02
581.36	2357.97
581.71	2354.71
582.06	2350.77
582.42	2345.87
582.77	2341.15
583.12	2337.04
583.47	2332.85
583.82	2328.89
584.17	2323.42
584.53	2318.57
584.88	2313.73
585.23	2308.49
585.58	2303.80
585.93	2299.11
586.28	2294.96
586.63	2290.64
586.98	2286.66
587.34	2282.10
587.69	2277.34
588.04	2272.54
588.39	2268.16
588.74	2261.94
589.09	2255.56
589.44	2249.29
589.79	2244.18
590.14	2239.19
590.49	2233.66
590.84	2227.10
591.19	2220.99
591.54	2214.56
591.89	2207.00
592.25	2200.40
592.60	2192.85
592.95	2185.28
593.30	2178.24
593.65	2170.53
594.00	2163.50
594.35	2156.54
594.70	2148.35
595.05	2141.50
595.40	2134.02
595.75	2126.11
596.10	2119.72
596.45	2113.50
596.80	2107.49
597.15	2101.10
597.50	2093.87
597.85	2087.32
598.19	2080.88
598.54	2073.96
598.89	2067.84
599.24	2062.45
599.59	2055.67
599.94	2050.01
600.29	2043.40
600.64	2037.09
600.99	2030.18
601.34	2022.97
601.69	2015.09
602.04	2008.59
602.39	2001.64
602.74	1995.44
603.08	1989.31
603.43	1982.52
603.78	1975.17
604.13	1967.74
604.48	1960.17
604.83	1952.93
605.18	1945.82
605.53	1937.86
605.87	1929.40
606.22	1922.13
606.57	1913.99
606.92	1906.32
607.27	1899.10
607.62	1892.19
607.96	1884.73
608.31	1877.69
608.66	1869.79
609.01	1861.70
609.36	1853.13
609.70	1844.00
610.05	1834.50
610.40	1826.10
610.75	1817.17
611.10	1808.40
611.44	1799.61
611.79	1791.13
612.14	1782.67
612.49	1773.19
612.83	1764.25
613.18	1755.81
613.53	1746.90
613.88	1737.77
614.22	1729.07
614.57	1719.41
614.92	1710.18
615.27	1701.21
615.61	1692.28
615.96	1683.44
616.31	1675.48
616.65	1668.00
617.00	1660.27
617.35	1652.68
617.70	1643.72
618.04	1635.19
618.39	1627.06
618.74	1619.13
619.08	1610.27
619.43	1602.15
619.78	1594.42
620.12	1586.17
620.47	1577.94
620.82	1569.19
621.16	1561.12
621.51	1552.98
621.85	1544.79
622.20	1536.10
622.55	1527.70
622.89	1519.53
623.24	1511.75
623.59	1503.78
623.93	1495.58
624.28	1487.19
624.62	1478.85
624.97	1471.37
625.32	1463.85
625.66	1456.20
626.01	1448.20
626.35	1440.30
626.70	1431.90
627.04	1423.84
627.39	1416.32
627.73	1408.50
628.08	1400.82
628.43	1392.91
628.77	1384.95
629.12	1377.21
629.46	1369.54
629.81	1361.24
630.15	1352.83
630.50	1344.68
630.84	1335.95
631.19	1327.08
631.53	1319.06
631.88	1310.47
632.22	1301.64
632.57	1293.42
632.91	1285.05
633.26	1276.53
633.60	1268.47
633.95	1260.58
634.29	1252.70
634.64	1244.98
634.98	1237.09
635.32	1229.79
635.67	1222.60
636.01	1214.93
636.36	1207.09
636.70	1199.84
637.05	1192.76
637.39	1186.05
637.73	1178.98
638.08	1172.81
638.42	1166.81
638.77	1160.06
639.11	1153.49
639.45	1146.67
639.80	1139.79
640.14	1132.84
640.49	1126.35
640.83	1119.37
641.17	1112.20
641.52	1105.11
641.86	1098.03
642.20	1091.10
642.55	1084.17
642.89	1077.32
643.23	1070.24
643.58	1063.98
643.92	1056.82
644.26	1049.93
644.61	1043.10
644.95	1036.39
645.29	1028.73
645.64	1021.11
645.98	1014.09
646.32	1007.43
646.66	1000.71
647.01	993.91
647.35	987.27
647.69	980.56
648.04	974.07
648.38	967.39
648.72	960.71
649.06	953.76
649.41	947.12
649.75	940.00
650.09	932.78
650.43	926.31
650.78	919.11
651.12	912.32
651.46	906.08
651.80	899.43
652.14	892.90
652.49	886.67
652.83	880.31
653.17	873.77
653.51	867.18
653.85	860.56
654.20	854.00
654.54	847.63
654.88	840.92
655.22	834.43
655.56	827.84
655.90	821.77
656.25	815.97
656.59	809.94
656.93	804.21
657.27	798.46
657.61	792.50
657.95	787.14
658.29	781.65
658.64	775.57
658.98	769.60
659.32	763.51
659.66	757.79
660.00	752.06
660.34	746.50
660.68	740.93
661.02	735.65
661.36	730.64
661.70	725.47
662.05	720.51
662.39	715.65
662.73	711.12
663.07	705.91
663.41	700.97
663.75	696.21
664.09	691.18
664.43	686.37
664.77	681.64
665.11	676.79
665.45	672.12
665.79	667.50
666.13	662.97
666.47	658.48
666.81	653.87
667.15	649.20
667.49	644.65
667.83	640.50
668.17	636.04
668.51	631.17
668.85	626.80
669.19	622.62
669.53	618.25
669.87	613.76
670.21	609.93
670.55	605.82
670.89	601.91
671.23	598.06
671.57	594.24
671.91	590.37
672.25	586.36
672.58	582.54
672.92	578.86
673.26	575.26
673.60	571.71
673.94	568.21
674.28	565.11
674.62	561.82
674.96	558.25
675.30	555.08
675.64	551.84
675.97	548.50
676.31	545.06
676.65	541.66
676.99	538.66
677.33	535.41
677.67	532.16
678.01	528.62
678.34	525.31
678.68	522.05
679.02	518.84
679.36	515.85
679.70	513.00
680.04	509.89
680.37	506.58
680.71	503.56
681.05	500.78
681.39	497.88
681.73	495.01
682.06	492.31
682.40	489.60
682.74	487.02
683.08	484.26
683.42	481.63
683.75	479.18
684.09	476.18
684.43	473.43
684.77	470.84
685.10	468.41
685.44	465.84
685.78	463.52
686.12	461.02
686.45	458.54
686.79	455.83
687.13	453.40
687.46	451.09
687.80	448.61
688.14	445.99
688.48	443.49
688.81	440.91
689.15	438.34
689.49	435.70
689.82	433.20
690.16	430.82
690.50	428.47
690.83	426.10
691.17	423.96
691.51	421.69
691.84	419.47
692.18	417.11
692.52	414.87
692.85	412.46
693.19	410.29
693.52	408.02
693.86	405.96
694.20	403.71
694.53	401.70
694.87	399.62
695.21	397.62
695.54	395.39
695.88	393.38
696.21	391.31
696.55	389.43
696.88	387.52
697.22	385.56
697.56	383.80
697.89	381.74
698.23	379.80
698.56	377.84
698.90	375.96
699.23	374.14
699.57	372.41
699.90	370.69
700.24	368.85
700.58	367.05
700.91	365.23
701.25	363.66
701.58	361.95
701.92	360.30
702.25	358.58
702.59	357.18
702.92	355.69
703.26	354.25
703.59	352.70
703.93	351.43
704.26	349.95
704.60	348.27
704.93	346.90
705.26	345.36
705.60	344.01
705.93	342.67
706.27	341.33
706.60	340.01
706.94	338.58
707.27	337.11
707.61	335.78
707.94	334.48
708.27	333.08
708.61	331.74
708.94	330.59
709.28	329.36
709.61	328.07
709.94	326.90
710.28	325.76
710.61	324.63
710.95	323.18
711.28	322.13
711.61	320.97
711.95	319.84
712.28	318.75
712.61	317.50
712.95	316.39
713.28	315.50
713.61	314.31
713.95	313.30
714.28	312.49
714.61	311.52
714.95	310.62
715.28	309.70
715.61	308.79
715.95	307.74
716.28	306.85
716.61	305.92
716.95	305.01
717.28	304.11
717.61	303.24
717.94	302.46
718.28	301.50
718.61	300.79
718.94	300.01
719.27	299.29
719.61	298.63
719.94	297.89
720.27	296.91
720.60	296.12
720.94	295.29
721.27	294.56
721.60	293.87
721.93	293.13
722.27	292.55
722.60	291.83
722.93	291.10
723.26	290.51
723.59	289.80
723.93	289.20
724.26	288.56
724.59	287.85
724.92	287.18
725.25	286.60
725.59	285.92
725.92	285.32
726.25	284.69
726.58	284.06
726.91	283.45
727.24	282.90
727.57	282.42
727.91	281.87
728.24	281.34
728.57	280.69
728.90	280.08
729.23	279.37
729.56	278.96
729.89	278.42
730.22	277.79
730.55	277.31
730.89	276.74
731.22	276.19
731.55	275.70
731.88	275.20
732.21	274.58
732.54	274.03
732.87	273.51
733.20	272.98
733.53	272.45
733.86	271.99
734.19	271.49
734.52	271.08
734.85	270.72
735.18	270.18
735.51	269.88
735.84	269.51
736.17	269.16
736.50	268.47
736.83	268.19
737.16	267.72
737.49	267.30
737.82	266.76
738.15	266.28
738.48	265.84
738.81	265.40
739.14	265.06
739.47	264.67
739.80	264.25
740.13	263.85
740.46	263.53
740.79	263.07
741.12	262.66
741.45	262.20
741.78	261.74
742.11	261.37
742.44	260.89
742.77	260.40
743.10	259.97
743.43	259.58
743.75	258.97
744.08	258.85
744.41	258.50
744.74	258.19
745.07	257.76
745.40	257.39
745.73	257.06
746.06	256.70
746.39	256.29
746.71	255.96
747.04	255.57
747.37	255.12
747.70	254.81
748.03	254.49
748.36	254.17
748.68	253.83
749.01	253.45
749.34	253.17
749.67	252.95
750.00	252.64
750.33	252.58
750.65	252.33
750.98	251.80
751.31	251.52
751.64	251.26
751.97	251.09
752.29	250.83
752.62	250.46
752.95	250.05
753.28	249.87
753.60	249.50
753.93	249.31
754.26	248.96
754.59	248.68
754.91	248.45
755.24	248.26
755.57	248.05
755.90	247.80
756.22	247.50
756.55	247.20
756.88	247.00
757.20	246.62
757.53	246.39
757.86	246.17
758.19	245.99
758.51	245.70
758.84	245.52
759.17	245.43
759.49	245.36
759.82	245.37
760.15	245.22
760.47	245.17
760.80	244.96
761.13	244.95
761.45	244.71
761.78	244.53
762.11	244.39
762.43	244.14
762.76	244.02
763.08	243.85
763.41	243.74
763.74	243.56
764.06	243.38
764.39	243.26
764.71	243.18
765.04	242.91
765.37	242.83
765.69	242.64
766.02	242.39
766.34	242.26
766.67	241.97
767.00	241.90
767.32	241.76
767.65	241.86
767.97	241.70
768.30	241.72
768.62	241.63
768.95	241.37
769.27	241.26
769.60	241.13
769.92	241.06
770.25	240.93
770.57	240.74
770.90	240.65
771.22	240.50
771.55	240.30
771.87	240.23
772.20	240.06
772.52	240.14
772.85	240.23
773.17	240.10
773.50	240.03
773.82	239.64
774.15	239.47
774.47	239.12
774.80	238.92
775.12	238.81
775.45	238.64
775.77	238.60
776.09	238.43
776.42	238.42
776.74	238.34
777.07	238.22
777.39	238.14
777.72	237.96
778.04	237.95
778.36	237.82
778.69	237.73
779.01	237.61
779.33	237.30
779.66	237.04
779.98	236.85
780.31	236.72
780.63	236.85
780.95	236.65
781.28	236.53
781.60	236.51
781.92	236.32
782.25	236.16
782.57	236.01
782.89	235.89
783.22	235.66
783.54	235.44
783.86	235.29
784.19	235.12
784.51	235.03
784.83	234.85
785.16	234.75
785.48	234.67
785.80	234.66
786.12	234.56
786.45	234.38
786.77	234.29
787.09	234.11
787.42	233.96
787.74	234.05
788.06	234.01
788.38	233.94
788.71	233.86
789.03	233.76
789.35	233.70
789.67	233.62
789.99	233.61
790.32	233.55
790.64	233.56
790.96	233.79
791.28	233.74
791.61	233.77
791.93	233.73
792.25	233.60
792.57	233.56
792.89	233.49
793.21	233.42
793.54	233.36
793.86	233.36
794.18	233.27
794.50	233.10
794.82	233.02
795.14	232.87
795.47	232.93
795.79	232.95
796.11	232.90
796.43	232.96
796.75	232.92
797.07	232.90
797.39	232.87
797.71	232.64
798.04	232.61
798.36	232.60
798.68	232.54
799.00	232.65
799.32	232.50
799.64	232.53
799.96	232.63
800.28	232.74
800.60	232.79
800.92	232.89
801.24	232.89
801.56	232.89
801.89	232.97
802.21	232.88
802.53	232.84
802.85	232.95
803.17	232.97
803.49	232.83
803.81	232.79
804.13	232.76
804.45	232.80
804.77	232.80
805.09	232.74
805.41	232.80
805.73	232.65
806.05	232.75
806.37	232.78
806.69	232.73
807.01	232.72
807.33	232.67
807.65	232.48
807.97	232.55
808.28	232.47
808.60	232.52
808.92	232.50
809.24	232.56
809.56	232.40
809.88	232.39
810.20	232.52
810.52	232.54
810.84	232.46
811.16	232.31
811.48	232.30
811.80	232.33
812.12	232.35
812.43	232.39
812.75	232.30
813.07	232.09
813.39	232.02
813.71	231.97
814.03	231.96
814.35	231.89
814.67	231.78
814.98	231.84
815.30	231.66
815.62	231.62
815.94	231.46
816.26	231.54
816.58	231.44
816.89	231.28
817.21	231.21
817.53	231.19
817.85	231.16
818.17	231.18
818.48	231.10
818.80	231.06
819.12	231.01
819.44	230.96
819.76	230.95
820.07	230.92
820.39	230.84
820.71	230.81
821.03	230.87
821.34	230.86
821.66	230.78
821.98	230.71
822.30	230.69
822.61	230.77
822.93	230.69
823.25	230.52
823.57	230.56
823.88	230.52
824.20	230.50
824.52	230.54
824.83	230.42
825.15	230.30
825.47	230.22
825.79	230.14
826.10	230.14
826.42	230.15
826.74	230.03
827.05	229.95
827.37	229.97
827.69	229.94
828.00	229.82
828.32	229.84
828.64	229.81
828.95	229.88
829.27	229.82
829.58	229.83
829.90	229.91
830.22	229.90
830.53	229.80
830.85	229.77
831.17	229.62
831.48	229.62
831.80	229.60
832.11	229.60
832.43	229.63
832.75	229.64
833.06	229.74
833.38	229.80
833.69	229.84
834.01	229.79
834.32	229.69
834.64	229.63
834.96	229.60
835.27	229.72
835.59	229.63
835.90	229.69
836.22	229.61
836.53	229.64
836.85	229.69
837.16	230.01
837.48	230.14
837.79	230.20
838.11	230.20
838.42	230.25
838.74	230.27
839.05	230.26
839.37	230.20
839.68	230.23
840.00	230.17
840.31	230.20
840.63	230.20
840.94	230.33
841.26	230.33
841.57	230.31
841.88	230.31
842.20	230.23
842.51	230.18
842.83	230.14
843.14	230.38
843.46	230.23
843.77	230.03
844.08	229.92
844.40	229.85
844.71	229.78
845.03	229.78
845.34	229.79
845.65	229.80
845.97	229.86
846.28	229.74
846.60	229.76
846.91	229.63
847.22	229.60
847.54	229.56
847.85	229.63
848.16	229.54
848.48	229.48
848.79	229.64
849.10	229.61
849.42	229.66
849.73	229.35
850.04	229.40
850.36	229.37
850.67	229.31
850.98	229.36
851.30	229.45
851.61	229.38
851.92	229.31
852.23	229.28
852.55	229.17
852.86	229.17
853.17	229.16
853.49	229.31
853.80	229.29
854.11	229.37
854.42	229.33
854.74	229.41
855.05	229.44
855.36	229.30
855.67	229.31
855.99	229.31
856.30	229.59
856.61	229.55
856.92	229.55
857.23	229.53
857.55	229.55
857.86	229.50
858.17	229.54
858.48	229.57
858.79	229.45
859.11	229.50
859.42	229.44
859.73	229.47
860.04	229.35
860.35	229.25
860.66	229.14
860.98	229.17
861.29	229.15
861.60	229.10
861.91	229.06
862.22	229.04
862.53	228.93
862.84	228.76
863.16	228.71
863.47	228.64
863.78	228.64
864.09	228.58
864.40	228.59
864.71	228.60
865.02	228.60
865.33	228.63
865.64	228.67
865.95	228.75
866.27	228.86
866.58	228.77
866.89	228.94
867.20	228.92
867.51	228.82
867.82	228.70
868.13	228.74
868.44	228.65
868.75	228.65
869.06	228.75
869.37	228.71
869.68	228.63
869.99	228.70
870.30	228.80
870.61	228.92
870.92	228.90
871.23	228.95
871.54	229.03
871.85	229.15
872.16	229.15
872.47	229.18
872.78	229.11
873.09	229.23
873.40	229.21
873.71	229.25
874.02	229.30
874.33	229.39
874.64	229.40
874.95	229.49
875.26	229.46
875.56	229.40
875.87	229.33
876.18	229.43
876.49	229.61
876.80	229.59
877.11	229.51
877.42	229.47
877.73	229.42
878.04	229.28
878.35	229.24
878.66	229.19
878.96	229.10
879.27	229.09
879.58	229.02
879.89	229.06
880.20	229.09
880.51	229.14
880.82	229.09
881.12	229.03
881.43	229.00
881.74	229.03
882.05	229.02
882.36	229.08
882.67	229.08
882.97	228.86
883.28	228.78
883.59	228.79
883.90	228.76
884.21	228.72
884.51	228.73
884.82	228.50
885.13	228.44
885.44	228.43
885.74	228.34
886.05	228.38
886.36	228.23
886.67	228.15
886.98	228.18
887.28	228.17
887.59	228.20
887.90	228.20
888.20	228.12
888.51	228.05
888.82	228.02
889.13	227.97
889.43	228.16
889.74	228.05
890.05	227.97
890.35	227.87
890.66	227.81
890.97	227.73
891.28	227.84
891.58	227.87
891.89	227.78
892.20	227.78
892.50	227.70
892.81	227.70
893.12	227.65
893.42	227.55
893.73	227.61
894.04	227.55
894.34	227.55
894.65	227.61
894.95	227.59
895.26	227.54
895.57	227.61
895.87	227.35
896.18	227.54
896.48	227.57
896.79	227.68
897.10	227.72
897.40	227.90
897.71	227.94
898.01	227.96
898.32	228.07
898.63	228.10
898.93	228.19
899.24	228.23
899.54	228.20
899.85	228.27
900.15	228.25
900.46	228.30
900.76	228.40
901.07	228.31
901.38	228.46
901.68	228.59
901.99	228.61
902.29	228.64
902.60	228.56
902.90	228.68
903.21	228.68
903.51	228.65
903.82	228.59
904.12	228.69
904.43	228.82
904.73	228.78
905.03	228.75
905.34	228.88
905.64	228.91
905.95	229.03
906.25	229.01
906.56	229.01
906.86	228.95
907.17	229.11
907.47	229.17
907.77	229.13
908.08	229.08
908.38	229.14
908.69	229.22
908.99	229.31
909.30	229.31
909.60	229.46
909.90	229.48
910.21	229.44
910.51	229.43
910.81	229.34
911.12	229.41
911.42	229.48
911.73	229.23
912.03	229.28
912.33	229.23
912.64	229.21
912.94	229.20
913.24	229.28
913.55	229.09
913.85	229.06
914.15	229.13
914.46	229.14
914.76	229.05
915.06	229.14
915.37	229.12
915.67	229.02
915.97	228.94
916.27	228.97
916.58	229.05
916.88	228.98
917.18	228.95
917.49	229.10
917.79	229.04
918.09	229.15
918.39	229.07
918.70	229.11
919.00	229.13
919.30	229.32
919.60	229.38
919.91	229.34
920.21	229.38
920.51	229.31
920.81	229.21
921.12	229.18
921.42	229.13
921.72	229.06
922.02	229.07
922.32	229.09
922.63	229.10
922.93	229.10
923.23	229.08
923.53	229.01
923.83	228.83
924.13	228.79
924.44	228.72
924.74	228.91
925.04	228.97
925.34	228.93
925.64	228.70
925.94	228.53
926.24	228.57
926.55	228.59
926.85	228.54
927.15	228.56
927.45	228.57
927.75	228.50
928.05	228.42
928.35	228.42
928.65	228.40
928.95	228.36
929.26	228.27
929.56	228.29
929.86	228.33
930.16	228.35
930.46	228.35
930.76	228.48
931.06	228.26
931.36	228.16
931.66	228.24
931.96	228.31
932.26	228.35
932.56	228.29
932.86	228.29
933.16	228.40
933.46	228.30
933.76	228.30
934.06	228.37
934.36	228.54
934.66	228.50
934.96	228.48
935.26	228.50
935.56	228.49
935.86	228.54
936.16	228.50
936.46	228.48
936.76	228.60
937.06	228.54
937.36	228.51
937.66	228.58
937.96	228.53
938.26	228.51
938.56	228.52
938.86	228.64
939.16	228.67
939.46	228.75
939.76	228.79
940.06	228.80
940.35	228.77
940.65	228.77
940.95	228.89
941.25	228.86
941.55	228.86
941.85	228.91
942.15	228.93
942.45	229.08
942.75	229.08
943.04	229.10
943.34	229.12
943.64	229.24
943.94	229.22
944.24	229.34
944.54	229.37
944.84	229.43
945.13	229.47
945.43	229.46
945.73	229.33
946.03	229.48
946.33	229.50
946.62	229.47
946.92	229.46
947.22	229.44
947.52	229.53
947.82	229.58
948.11	229.66
948.41	229.66
948.71	229.51
949.01	229.50
949.31	229.42
949.60	229.45
949.90	229.45
950.20	229.47
950.50	229.41
950.79	229.41
951.09	229.45
951.39	229.37
951.69	229.38
951.98	229.49
952.28	229.43
952.58	229.44
952.87	229.36
953.17	229.38
953.47	229.31
953.76	229.22
954.06	229.15
954.36	229.02
954.66	229.02
954.95	229.11
955.25	229.20
955.55	229.22
955.84	229.19
956.14	229.20
956.44	229.17
956.73	229.02
957.03	228.98
957.32	228.88
957.62	228.80
957.92	228.80
958.21	228.72
958.51	228.93
958.81	228.85
959.10	228.88
959.40	228.79
959.69	228.76
959.99	228.85
960.29	228.86
960.58	228.88
960.88	228.81
961.17	228.73
961.47	228.69
961.76	228.57
962.06	228.57
962.36	228.44
962.65	228.35
962.95	228.46
963.24	228.45
963.54	228.51
963.83	228.50
964.13	228.46
964.42	228.41
964.72	228.39
965.01	228.29
965.31	228.28
965.60	228.23
965.90	228.40
966.19	228.29
966.49	228.20
966.78	228.12
967.08	228.13
967.37	228.15
967.67	228.01
967.96	228.10
968.26	227.99
968.55	228.05
968.85	228.05
969.14	228.00
969.43	227.94
969.73	227.88
970.02	227.89
970.32	227.87
970.61	227.74
970.91	227.44
971.20	227.55
971.49	227.55
971.79	227.58
972.08	227.43
972.38	227.43
972.67	227.46
972.96	227.50
973.26	227.61
973.55	227.66
973.85	227.75
974.14	227.78
974.43	227.80
974.73	227.75
975.02	227.77
975.31	227.70
975.61	227.80
975.90	227.77
976.19	227.72
976.49	227.77
976.78	228.02
977.07	228.09
977.37	228.07
977.66	228.18
977.95	228.20
978.24	228.33
978.54	228.43
978.83	228.42
979.12	228.44
979.42	228.35
979.71	228.37
980.00	228.42
980.29	228.38
980.59	228.44
980.88	228.50
981.17	228.58
981.46	228.73
981.76	228.65
982.05	228.78
982.34	228.90
982.63	228.88
982.93	228.80
983.22	228.91
983.51	228.99
983.80	229.03
984.09	229.07
984.39	228.98
984.68	228.92
984.97	228.96
985.26	229.03
985.55	229.02
985.85	228.96
986.14	228.96
986.43	229.00
986.72	228.90
987.01	228.90
987.30	228.85
987.59	228.80
987.89	228.85
988.18	228.89
988.47	228.82
988.76	228.77
989.05	228.80
989.34	228.70
989.63	228.73
989.92	228.65
990.22	228.70
990.51	228.63
990.80	228.61
991.09	228.63
991.38	228.58
991.67	228.51
991.96	228.47
992.25	228.42
992.54	228.41
992.83	228.43
993.12	228.41
993.41	228.50
993.70	228.52
993.99	228.49
994.28	228.42
994.58	228.41
994.87	228.43
995.16	228.33
995.45	228.37
995.74	228.32
996.03	228.33
996.32	228.29
996.61	228.33
996.90	228.33
997.19	228.27
997.48	228.25
997.77	228.28
998.06	228.30
998.34	228.30
998.63	228.19
998.92	228.15
999.21	228.05
999.50	227.93
999.79	227.90
1000.08	227.86
1000.37	227.76
1000.66	227.82
1000.95	227.77
1001.24	227.76
1001.53	227.67
1001.82	227.58
1002.11	227.52
1002.40	227.48
1002.68	227.47
1002.97	227.50
1003.26	227.52
1003.55	227.36
1003.84	227.24
1004.13	227.30
1004.42	227.29
1004.71	227.37
1004.99	227.30
1005.28	227.36
1005.57	227.26
1005.86	227.18
1006.15	227.13
1006.44	227.19
1006.72	227.14
1007.01	227.11
1007.30	227.08
1007.59	227.10
1007.88	227.10
1008.17	227.09
1008.45	227.09
1008.74	227.04
1009.03	227.01
1009.32	227.00
1009.60	227.09
1009.89	227.14
1010.18	227.02
1010.47	227.00
1010.76	226.96
1011.04	227.10
1011.33	227.20
1011.62	227.31
1011.91	227.33
1012.19	227.42
1012.48	227.34
1012.77	227.33
1013.05	227.54
1013.34	227.60
1013.63	227.62
1013.92	227.68
1014.20	227.70
1014.49	227.82
1014.78	227.83
1015.06	227.80
1015.35	227.98
1015.64	227.97
1015.92	228.09
1016.21	228.16
1016.50	228.11
1016.78	228.23
1017.07	228.27
1017.36	228.27
1017.64	228.28
1017.93	228.34
1018.22	228.36
1018.50	228.43
1018.79	228.44
1019.08	228.38
1019.36	228.44
1019.65	228.46
1019.93	228.52
1020.22	228.52
1020.51	228.55
1020.79	228.55
1021.08	228.40
1021.36	228.00
1021.65	227.80
1021.94	229.50
1022.22	229.10
1022.51	228.30
1022.79	229.80
1023.08	228.00
1023.36	231.40
1023.65	227.10
>>>>>End Processed Spectral Data<<<<<
