SpectraSuite Data File
++++++++++++++++++++++++++++++++++++
Date: Fri Feb 01 14:34:49 EST 2013
User: group
Dark Spectrum Present: No
Reference Spectrum Present: No
Number of Sampled Component Spectra: 1
Spectrometers: USB2E7196
Integration Time (usec): 70000 (USB2E7196)
Spectra Averaged: 10 (USB2E7196)
Boxcar Smoothing: 10 (USB2E7196)
Correct for Electrical Dark: No (USB2E7196)
Strobe/Lamp Enabled: No (USB2E7196)
Correct for Detector Non-linearity: No (USB2E7196)
Correct for Stray Light: No (USB2E7196)
Number of Pixels in Processed Spectrum: 2048
>>>>>Begin Processed Spectral Data<<<<<
339.09	0.00
339.48	216.80
339.86	218.30
340.24	218.90
340.63	220.20
341.01	225.60
341.39	225.00
341.78	224.00
342.16	225.50
342.54	225.20
342.93	215.14
343.31	225.97
343.69	226.51
344.07	226.95
344.46	227.40
344.84	227.77
345.22	227.93
345.60	228.07
345.99	228.30
346.37	228.44
346.75	228.55
347.13	228.66
347.52	228.66
347.90	228.67
348.28	228.64
348.66	228.63
349.05	228.46
349.43	228.51
349.81	228.67
350.19	228.67
350.57	228.71
350.96	228.80
351.34	228.96
351.72	228.98
352.10	229.09
352.48	229.09
352.87	229.23
353.25	229.19
353.63	229.23
354.01	229.26
354.39	229.42
354.77	229.47
355.15	229.54
355.54	229.55
355.92	229.60
356.30	229.63
356.68	229.90
357.06	230.02
357.44	230.08
357.82	230.08
358.20	230.19
358.58	230.22
358.97	230.24
359.35	230.28
359.73	230.48
360.11	230.55
360.49	230.66
360.87	230.64
361.25	230.74
361.63	230.90
362.01	230.98
362.39	230.89
362.77	230.94
363.15	230.89
363.53	230.92
363.91	231.03
364.29	231.04
364.67	230.72
365.05	230.71
365.43	230.69
365.81	230.75
366.19	230.76
366.57	230.79
366.95	230.83
367.33	230.78
367.71	230.72
368.09	230.74
368.47	230.70
368.85	230.64
369.23	230.62
369.61	230.50
369.99	230.46
370.37	230.49
370.75	230.57
371.13	230.40
371.51	230.36
371.89	230.28
372.27	230.27
372.65	230.23
373.03	230.18
373.41	230.08
373.78	229.94
374.16	229.80
374.54	229.70
374.92	229.55
375.30	229.50
375.68	229.34
376.06	229.10
376.44	229.06
376.82	228.98
377.19	228.93
377.57	228.83
377.95	228.64
378.33	228.51
378.71	228.26
379.09	228.31
379.47	228.20
379.84	228.03
380.22	227.96
380.60	227.95
380.98	227.81
381.36	227.70
381.73	227.60
382.11	227.52
382.49	227.35
382.87	227.30
383.25	227.29
383.62	227.37
384.00	227.40
384.38	227.26
384.76	227.30
385.13	227.32
385.51	227.25
385.89	227.22
386.27	227.25
386.64	227.30
387.02	227.22
387.40	227.27
387.78	227.35
388.15	227.28
388.53	227.28
388.91	227.30
389.29	227.24
389.66	227.29
390.04	227.35
390.42	227.40
390.79	227.39
391.17	227.39
391.55	227.24
391.92	227.29
392.30	227.41
392.68	227.37
393.05	227.33
393.43	227.43
393.81	227.54
394.18	227.44
394.56	227.48
394.94	227.60
395.31	227.61
395.69	227.64
396.06	227.79
396.44	227.88
396.82	227.91
397.19	228.11
397.57	228.17
397.95	228.27
398.32	228.27
398.70	228.40
399.07	228.56
399.45	228.67
399.82	228.60
400.20	228.64
400.58	228.70
400.95	228.85
401.33	228.99
401.70	229.23
402.08	229.42
402.45	229.59
402.83	229.85
403.20	230.20
403.58	230.52
403.95	230.71
404.33	230.90
404.71	231.19
405.08	231.61
405.46	231.91
405.83	232.11
406.21	232.50
406.58	232.93
406.96	233.20
407.33	233.61
407.70	234.22
408.08	234.90
408.45	235.43
408.83	235.97
409.20	236.59
409.58	237.11
409.95	237.88
410.33	238.58
410.70	239.17
411.08	239.75
411.45	240.54
411.82	241.37
412.20	242.35
412.57	243.48
412.95	244.35
413.32	245.50
413.69	246.84
414.07	248.17
414.44	249.42
414.82	250.82
415.19	252.48
415.56	253.92
415.94	255.58
416.31	257.49
416.68	259.31
417.06	261.36
417.43	263.40
417.81	265.70
418.18	267.96
418.55	270.51
418.93	273.20
419.30	275.92
419.67	278.76
420.04	281.67
420.42	284.70
420.79	288.33
421.16	291.92
421.54	295.53
421.91	299.28
422.28	303.19
422.66	307.40
423.03	311.39
423.40	315.91
423.77	320.46
424.15	325.29
424.52	330.14
424.89	335.33
425.26	340.39
425.64	345.15
426.01	350.50
426.38	355.88
426.75	361.39
427.13	367.10
427.50	373.25
427.87	379.68
428.24	385.93
428.61	391.89
428.99	398.36
429.36	405.56
429.73	412.81
430.10	419.70
430.47	426.82
430.85	434.17
431.22	441.72
431.59	449.91
431.96	457.60
432.33	466.29
432.70	474.68
433.08	484.50
433.45	493.87
433.82	503.16
434.19	513.49
434.56	523.56
434.93	533.24
435.30	542.74
435.68	553.20
436.05	563.86
436.42	574.11
436.79	583.44
437.16	593.64
437.53	604.07
437.90	614.70
438.27	625.03
438.64	636.12
439.01	646.30
439.38	655.36
439.75	664.03
440.13	673.97
440.50	683.33
440.87	691.16
441.24	699.32
441.61	708.27
441.98	715.00
442.35	723.04
442.72	731.19
443.09	739.22
443.46	744.29
443.83	747.92
444.20	751.48
444.57	756.33
444.94	759.06
445.31	761.79
445.68	764.45
446.05	766.39
446.42	766.31
446.79	766.30
447.16	766.23
447.53	766.75
447.90	763.94
448.27	761.31
448.64	756.96
449.01	754.47
449.37	748.72
449.74	743.17
450.11	736.03
450.48	728.03
450.85	719.93
451.22	713.43
451.59	706.87
451.96	700.62
452.33	691.80
452.70	683.88
453.07	674.56
453.43	665.19
453.80	655.95
454.17	647.06
454.54	638.46
454.91	628.90
455.28	619.47
455.65	611.13
456.02	602.46
456.38	595.04
456.75	585.30
457.12	577.69
457.49	569.88
457.86	562.34
458.23	555.98
458.59	548.93
458.96	541.45
459.33	535.14
459.70	528.70
460.07	523.75
460.43	517.83
460.80	512.10
461.17	506.93
461.54	501.46
461.91	496.48
462.27	491.31
462.64	486.93
463.01	482.15
463.38	477.32
463.74	472.73
464.11	468.68
464.48	465.07
464.85	460.78
465.21	457.61
465.58	454.25
465.95	450.43
466.32	446.92
466.68	443.60
467.05	440.43
467.42	437.15
467.78	433.34
468.15	429.86
468.52	427.40
468.88	424.20
469.25	421.52
469.62	419.16
469.98	416.71
470.35	414.31
470.72	412.13
471.08	409.82
471.45	407.78
471.82	405.75
472.18	403.63
472.55	402.23
472.92	400.33
473.28	398.72
473.65	397.00
474.02	395.36
474.38	393.93
474.75	392.41
475.11	391.13
475.48	390.21
475.85	389.49
476.21	388.50
476.58	387.81
476.94	387.00
477.31	386.18
477.67	385.54
478.04	385.09
478.41	384.64
478.77	384.32
479.14	383.78
479.50	383.46
479.87	383.20
480.23	382.91
480.60	382.78
480.96	382.64
481.33	382.70
481.69	382.97
482.06	383.02
482.42	383.18
482.79	383.29
483.15	383.82
483.52	384.41
483.88	384.87
484.25	385.49
484.61	386.12
484.98	386.83
485.34	387.70
485.71	388.65
486.07	389.72
486.44	390.79
486.80	391.95
487.17	393.15
487.53	394.74
487.90	396.30
488.26	397.95
488.62	399.71
488.99	401.37
489.35	402.87
489.72	404.78
490.08	406.70
490.44	408.56
490.81	410.54
491.17	412.46
491.54	414.76
491.90	416.83
492.26	419.26
492.63	421.71
492.99	424.20
493.36	426.91
493.72	429.74
494.08	432.39
494.45	435.25
494.81	438.22
495.17	441.19
495.54	444.17
495.90	447.37
496.26	450.57
496.63	453.78
496.99	457.38
497.35	460.83
497.72	464.42
498.08	468.20
498.44	471.94
498.80	476.02
499.17	479.78
499.53	483.61
499.89	487.30
500.26	491.10
500.62	494.83
500.98	498.61
501.34	502.27
501.71	506.39
502.07	510.33
502.43	514.16
502.79	517.88
503.16	521.90
503.52	525.73
503.88	529.50
504.24	533.47
504.60	537.37
504.97	541.41
505.33	545.10
505.69	549.10
506.05	552.90
506.41	556.52
506.78	560.23
507.14	564.06
507.50	568.01
507.86	571.68
508.22	575.57
508.59	579.20
508.95	583.08
509.31	586.81
509.67	590.49
510.03	594.15
510.39	597.87
510.75	601.22
511.12	604.48
511.48	607.92
511.84	611.21
512.20	614.51
512.56	617.69
512.92	620.94
513.28	624.00
513.64	626.97
514.00	629.72
514.37	632.56
514.73	635.29
515.09	637.93
515.45	640.58
515.81	643.12
516.17	645.77
516.53	648.07
516.89	650.29
517.25	652.49
517.61	654.80
517.97	656.77
518.33	658.85
518.69	660.89
519.05	662.80
519.41	664.83
519.77	666.91
520.13	668.72
520.49	670.64
520.85	672.53
521.21	674.39
521.57	676.35
521.93	678.05
522.29	679.84
522.65	681.53
523.01	683.18
523.37	684.53
523.73	686.14
524.09	687.68
524.45	689.23
524.81	690.98
525.17	692.66
525.53	694.35
525.89	695.98
526.25	697.79
526.61	699.20
526.97	700.81
527.33	702.39
527.68	704.17
528.04	705.80
528.40	707.23
528.76	709.19
529.12	710.99
529.48	713.14
529.84	714.95
530.20	717.10
530.56	719.22
530.91	721.49
531.27	723.63
531.63	725.74
531.99	727.66
532.35	729.32
532.71	731.15
533.07	733.40
533.42	735.60
533.78	737.64
534.14	740.10
534.50	742.20
534.86	744.36
535.21	746.13
535.57	748.55
535.93	751.00
536.29	753.08
536.65	755.16
537.00	757.06
537.36	759.48
537.72	761.55
538.08	763.82
538.44	766.12
538.79	768.28
539.15	770.55
539.51	773.28
539.87	776.24
540.22	778.80
540.58	781.63
540.94	784.09
541.29	786.66
541.65	789.09
542.01	791.95
542.37	794.58
542.72	797.56
543.08	800.22
543.44	802.88
543.79	805.23
544.15	808.12
544.51	811.25
544.87	814.19
545.22	817.06
545.58	819.91
545.94	822.41
546.29	825.18
546.65	828.01
547.01	830.45
547.36	833.09
547.72	835.89
548.07	838.49
548.43	841.31
548.79	844.12
549.14	846.91
549.50	849.35
549.86	851.82
550.21	854.57
550.57	857.20
550.92	859.90
551.28	862.78
551.64	865.48
551.99	868.08
552.35	870.52
552.70	873.21
553.06	876.16
553.41	879.10
553.77	881.86
554.13	884.44
554.48	887.30
554.84	890.07
555.19	892.90
555.55	895.57
555.90	898.22
556.26	901.14
556.61	903.80
556.97	906.53
557.32	909.27
557.68	911.84
558.03	914.58
558.39	917.39
558.74	920.15
559.10	922.86
559.45	925.77
559.81	928.66
560.16	931.22
560.52	933.30
560.87	935.86
561.23	938.36
561.58	941.07
561.94	943.55
562.29	945.92
562.64	948.02
563.00	950.18
563.35	952.96
563.71	955.60
564.06	958.13
564.42	960.54
564.77	962.85
565.12	965.56
565.48	967.79
565.83	969.79
566.19	971.76
566.54	973.75
566.89	975.66
567.25	977.57
567.60	979.80
567.96	982.20
568.31	984.23
568.66	986.18
569.02	987.84
569.37	989.50
569.72	991.32
570.08	993.07
570.43	994.52
570.78	995.54
571.14	996.37
571.49	997.60
571.84	999.12
572.20	1000.38
572.55	1001.32
572.90	1002.30
573.26	1003.50
573.61	1004.70
573.96	1005.56
574.31	1005.68
574.67	1005.84
575.02	1006.08
575.37	1006.25
575.72	1006.15
576.08	1006.47
576.43	1006.57
576.78	1006.83
577.13	1007.10
577.49	1007.31
577.84	1007.22
578.19	1007.20
578.54	1007.21
578.90	1006.96
579.25	1006.30
579.60	1005.94
579.95	1005.02
580.30	1004.48
580.66	1003.80
581.01	1003.25
581.36	1002.76
581.71	1002.84
582.06	1002.34
582.42	1001.68
582.77	1001.10
583.12	1000.65
583.47	999.90
583.82	999.29
584.17	997.99
584.53	996.85
584.88	996.06
585.23	995.13
585.58	994.25
585.93	993.12
586.28	992.59
586.63	991.67
586.98	990.73
587.34	989.97
587.69	988.95
588.04	987.87
588.39	986.44
588.74	984.69
589.09	982.77
589.44	981.40
589.79	979.85
590.14	978.24
590.49	976.70
590.84	975.00
591.19	973.77
591.54	972.34
591.89	969.98
592.25	968.07
592.60	966.24
592.95	964.03
593.30	962.00
593.65	959.79
594.00	957.73
594.35	956.15
594.70	953.97
595.05	951.82
595.40	949.27
595.75	947.05
596.10	945.16
596.45	943.30
596.80	941.39
597.15	939.29
597.50	937.30
597.85	935.20
598.19	933.41
598.54	931.01
598.89	928.78
599.24	927.27
599.59	925.11
599.94	923.07
600.29	921.10
600.64	918.91
600.99	916.08
601.34	913.92
601.69	911.03
602.04	908.68
602.39	906.40
602.74	904.20
603.08	902.06
603.43	899.94
603.78	897.40
604.13	895.00
604.48	892.57
604.83	889.92
605.18	887.42
605.53	884.39
605.87	881.62
606.22	879.03
606.57	876.26
606.92	873.72
607.27	871.23
607.62	868.93
607.96	866.60
608.31	864.26
608.66	861.56
609.01	858.84
609.36	855.90
609.70	852.57
610.05	849.56
610.40	846.62
610.75	843.37
611.10	840.30
611.44	836.79
611.79	833.80
612.14	830.67
612.49	827.01
612.83	823.63
613.18	820.27
613.53	817.36
613.88	813.85
614.22	810.18
614.57	806.70
614.92	802.93
615.27	799.34
615.61	795.96
615.96	792.46
616.31	789.29
616.65	786.63
617.00	783.74
617.35	780.69
617.70	777.48
618.04	774.34
618.39	771.22
618.74	768.30
619.08	764.97
619.43	761.87
619.78	759.26
620.12	756.12
620.47	753.00
620.82	749.50
621.16	746.82
621.51	744.12
621.85	741.27
622.20	738.37
622.55	735.39
622.89	732.41
623.24	729.48
623.59	726.45
623.93	723.25
624.28	720.30
624.62	717.44
624.97	714.34
625.32	711.32
625.66	708.53
626.01	705.79
626.35	702.90
626.70	700.04
627.04	697.16
627.39	694.34
627.73	691.35
628.08	688.76
628.43	685.75
628.77	682.92
629.12	679.88
629.46	676.71
629.81	673.75
630.15	670.66
630.50	667.70
630.84	664.58
631.19	661.47
631.53	658.35
631.88	655.26
632.22	652.28
632.57	649.51
632.91	646.38
633.26	643.29
633.60	640.46
633.95	637.55
634.29	634.58
634.64	632.06
634.98	629.44
635.32	626.72
635.67	624.09
636.01	621.05
636.36	618.20
636.70	615.69
637.05	613.19
637.39	610.65
637.73	608.10
638.08	605.69
638.42	603.33
638.77	600.78
639.11	598.13
639.45	595.62
639.80	592.80
640.14	590.46
640.49	587.84
640.83	585.28
641.17	582.65
641.52	579.91
641.86	577.14
642.20	574.64
642.55	571.78
642.89	569.21
643.23	566.80
643.58	564.66
643.92	562.08
644.26	559.63
644.61	557.34
644.95	554.87
645.29	551.99
645.64	549.08
645.98	546.72
646.32	544.37
646.66	541.79
647.01	539.51
647.35	537.06
647.69	534.67
648.04	532.29
648.38	529.89
648.72	527.48
649.06	524.95
649.41	522.50
649.75	520.11
650.09	517.48
650.43	514.88
650.78	512.07
651.12	509.76
651.46	507.24
651.80	504.84
652.14	502.55
652.49	500.44
652.83	498.30
653.17	495.99
653.51	493.57
653.85	491.33
654.20	489.09
654.54	486.60
654.88	484.21
655.22	481.72
655.56	479.23
655.90	477.07
656.25	474.99
656.59	472.72
656.93	470.51
657.27	468.33
657.61	466.11
657.95	464.10
658.29	462.03
658.64	459.86
658.98	457.61
659.32	455.20
659.66	453.09
660.00	450.92
660.34	448.63
660.68	446.41
661.02	444.28
661.36	442.07
661.70	440.17
662.05	438.26
662.39	436.46
662.73	434.76
663.07	432.89
663.41	431.08
663.75	429.29
664.09	427.64
664.43	425.79
664.77	424.08
665.11	422.24
665.45	420.25
665.79	418.42
666.13	416.64
666.47	414.89
666.81	413.15
667.15	411.35
667.49	409.57
667.83	408.04
668.17	406.39
668.51	404.64
668.85	402.81
669.19	401.21
669.53	399.51
669.87	397.63
670.21	396.04
670.55	394.32
670.89	392.94
671.23	391.29
671.57	389.77
671.91	388.28
672.25	386.86
672.58	385.54
672.92	384.13
673.26	382.64
673.60	381.36
673.94	379.88
674.28	378.55
674.62	377.47
674.96	376.01
675.30	374.72
675.64	373.37
675.97	372.21
676.31	370.92
676.65	369.75
676.99	368.60
677.33	367.36
677.67	366.07
678.01	364.56
678.34	363.32
678.68	362.20
679.02	360.87
679.36	359.69
679.70	358.48
680.04	357.11
680.37	355.87
680.71	354.66
681.05	353.64
681.39	352.57
681.73	351.42
682.06	350.38
682.40	349.35
682.74	348.31
683.08	347.27
683.42	346.16
683.75	344.93
684.09	343.77
684.43	342.63
684.77	341.65
685.10	340.73
685.44	339.72
685.78	338.54
686.12	337.48
686.45	336.28
686.79	335.11
687.13	334.26
687.46	333.34
687.80	332.23
688.14	331.12
688.48	330.15
688.81	329.07
689.15	328.02
689.49	326.86
689.82	325.94
690.16	324.79
690.50	323.73
690.83	322.74
691.17	321.81
691.51	320.82
691.84	319.85
692.18	318.73
692.52	317.68
692.85	316.90
693.19	316.02
693.52	315.10
693.86	314.20
694.20	313.29
694.53	312.41
694.87	311.61
695.21	310.62
695.54	309.59
695.88	308.56
696.21	307.66
696.55	306.78
696.88	305.84
697.22	305.08
697.56	304.28
697.89	303.52
698.23	302.63
698.56	301.81
698.90	300.91
699.23	300.08
699.57	299.27
699.90	298.45
700.24	297.58
700.58	296.77
700.91	296.07
701.25	295.41
701.58	294.69
701.92	293.88
702.25	293.33
702.59	292.80
702.92	292.11
703.26	291.53
703.59	290.95
703.93	290.49
704.26	289.89
704.60	289.25
704.93	288.53
705.26	287.99
705.60	287.50
705.93	287.01
706.27	286.54
706.60	286.05
706.94	285.47
707.27	285.00
707.61	284.32
707.94	283.70
708.27	283.05
708.61	282.33
708.94	281.87
709.28	281.30
709.61	280.66
709.94	280.29
710.28	279.82
710.61	279.15
710.95	278.36
711.28	277.82
711.61	277.29
711.95	276.77
712.28	276.19
712.61	275.55
712.95	274.99
713.28	274.47
713.61	273.86
713.95	273.29
714.28	272.68
714.61	272.24
714.95	271.73
715.28	271.21
715.61	270.78
715.95	270.22
716.28	269.70
716.61	269.24
716.95	268.77
717.28	268.13
717.61	267.75
717.94	267.41
718.28	266.89
718.61	266.58
718.94	266.16
719.27	265.75
719.61	265.34
719.94	264.94
720.27	264.45
720.60	264.15
720.94	263.78
721.27	263.36
721.60	263.20
721.93	262.79
722.27	262.55
722.60	262.30
722.93	261.99
723.26	261.61
723.59	261.20
723.93	260.92
724.26	260.70
724.59	260.46
724.92	260.21
725.25	259.96
725.59	259.54
725.92	259.32
726.25	259.05
726.58	258.88
726.91	258.60
727.24	258.42
727.57	258.15
727.91	257.82
728.24	257.73
728.57	257.27
728.90	257.05
729.23	256.71
729.56	256.48
729.89	256.22
730.22	255.92
730.55	255.68
730.89	255.37
731.22	255.15
731.55	254.83
731.88	254.56
732.21	254.20
732.54	253.85
732.87	253.58
733.20	253.36
733.53	253.00
733.86	252.75
734.19	252.41
734.52	252.17
734.85	252.15
735.18	251.92
735.51	251.76
735.84	251.61
736.17	251.31
736.50	251.08
736.83	251.14
737.16	251.00
737.49	250.83
737.82	250.60
738.15	250.37
738.48	250.18
738.81	249.98
739.14	249.82
739.47	249.71
739.80	249.46
740.13	249.16
740.46	248.95
740.79	248.70
741.12	248.50
741.45	248.20
741.78	247.86
742.11	247.76
742.44	247.53
742.77	247.42
743.10	247.25
743.43	246.90
743.75	246.44
744.08	246.47
744.41	246.29
744.74	245.98
745.07	245.76
745.40	245.62
745.73	245.46
746.06	245.24
746.39	245.03
746.71	244.92
747.04	244.77
747.37	244.63
747.70	244.61
748.03	244.40
748.36	244.34
748.68	244.23
749.01	243.90
749.34	243.76
749.67	243.53
750.00	243.47
750.33	243.44
750.65	243.24
750.98	242.91
751.31	242.80
751.64	242.81
751.97	242.80
752.29	242.57
752.62	242.42
752.95	242.24
753.28	242.13
753.60	241.84
753.93	241.78
754.26	241.67
754.59	241.35
754.91	241.27
755.24	241.15
755.57	240.90
755.90	240.73
756.22	240.55
756.55	240.30
756.88	240.08
757.20	239.88
757.53	239.83
757.86	239.67
758.19	239.51
758.51	239.35
758.84	239.05
759.17	238.98
759.49	238.83
759.82	238.80
760.15	238.66
760.47	238.75
760.80	238.62
761.13	238.56
761.45	238.50
761.78	238.40
762.11	238.25
762.43	238.16
762.76	238.05
763.08	237.95
763.41	237.95
763.74	237.79
764.06	237.64
764.39	237.43
764.71	237.26
765.04	237.16
765.37	237.09
765.69	237.04
766.02	236.89
766.34	236.77
766.67	236.70
767.00	236.68
767.32	236.59
767.65	236.56
767.97	236.32
768.30	236.22
768.62	236.10
768.95	235.91
769.27	235.90
769.60	235.78
769.92	235.68
770.25	235.59
770.57	235.52
770.90	235.48
771.22	235.46
771.55	235.45
771.87	235.29
772.20	235.03
772.52	235.16
772.85	235.28
773.17	235.12
773.50	234.98
773.82	234.78
774.15	234.54
774.47	234.39
774.80	234.40
775.12	234.38
775.45	234.35
775.77	234.28
776.09	234.21
776.42	234.20
776.74	234.26
777.07	234.15
777.39	234.08
777.72	233.94
778.04	233.93
778.36	233.81
778.69	233.82
779.01	233.90
779.33	233.63
779.66	233.44
779.98	233.40
780.31	233.38
780.63	233.44
780.95	233.40
781.28	233.37
781.60	233.32
781.92	233.21
782.25	233.09
782.57	233.08
782.89	232.93
783.22	232.85
783.54	232.70
783.86	232.71
784.19	232.62
784.51	232.74
784.83	232.63
785.16	232.55
785.48	232.50
785.80	232.49
786.12	232.34
786.45	232.26
786.77	232.24
787.09	232.18
787.42	232.08
787.74	232.13
788.06	232.11
788.38	232.04
788.71	231.97
789.03	231.99
789.35	232.10
789.67	232.04
789.99	231.99
790.32	232.00
790.64	231.97
790.96	232.12
791.28	231.93
791.61	231.88
791.93	231.92
792.25	231.83
792.57	231.89
792.89	231.95
793.21	231.99
793.54	231.92
793.86	231.91
794.18	231.94
794.50	231.89
794.82	231.88
795.14	231.92
795.47	231.96
795.79	232.03
796.11	231.87
796.43	232.03
796.75	232.11
797.07	232.11
797.39	232.01
797.71	231.85
798.04	231.93
798.36	232.00
798.68	232.08
799.00	232.14
799.32	232.02
799.64	232.11
799.96	232.10
800.28	232.22
800.60	232.21
800.92	232.19
801.24	232.14
801.56	232.08
801.89	232.07
802.21	232.13
802.53	232.07
802.85	232.22
803.17	232.15
803.49	232.10
803.81	232.08
804.13	232.08
804.45	232.09
804.77	232.17
805.09	232.08
805.41	231.92
805.73	231.76
806.05	231.66
806.37	231.52
806.69	231.48
807.01	231.32
807.33	231.30
807.65	231.16
807.97	231.22
808.28	231.17
808.60	231.16
808.92	230.97
809.24	230.98
809.56	230.81
809.88	230.77
810.20	230.73
810.52	230.70
810.84	230.67
811.16	230.70
811.48	230.57
811.80	230.64
812.12	230.54
812.43	230.64
812.75	230.56
813.07	230.55
813.39	230.54
813.71	230.53
814.03	230.46
814.35	230.50
814.67	230.32
814.98	230.24
815.30	230.18
815.62	230.18
815.94	230.00
816.26	230.04
816.58	230.02
816.89	230.00
817.21	229.89
817.53	229.83
817.85	229.72
818.17	229.66
818.48	229.52
818.80	229.61
819.12	229.50
819.44	229.49
819.76	229.44
820.07	229.32
820.39	229.30
820.71	229.32
821.03	229.28
821.34	229.22
821.66	229.27
821.98	229.24
822.30	229.21
822.61	229.26
822.93	229.14
823.25	229.00
823.57	228.94
823.88	229.05
824.20	229.06
824.52	229.10
824.83	229.04
825.15	228.87
825.47	228.86
825.79	228.86
826.10	228.90
826.42	228.88
826.74	229.05
827.05	229.06
827.37	229.06
827.69	229.04
828.00	229.10
828.32	229.09
828.64	228.96
828.95	229.05
829.27	229.13
829.58	229.07
829.90	229.14
830.22	229.11
830.53	229.03
830.85	229.02
831.17	229.00
831.48	229.10
831.80	229.20
832.11	229.26
832.43	229.31
832.75	229.24
833.06	229.40
833.38	229.23
833.69	229.26
834.01	229.33
834.32	229.37
834.64	229.40
834.96	229.44
835.27	229.52
835.59	229.52
835.90	229.46
836.22	229.58
836.53	229.63
836.85	229.68
837.16	229.78
837.48	229.82
837.79	229.87
838.11	229.90
838.42	229.91
838.74	229.82
839.05	229.76
839.37	229.86
839.68	229.68
840.00	229.72
840.31	229.71
840.63	229.56
840.94	229.64
841.26	229.63
841.57	229.59
841.88	229.65
842.20	229.56
842.51	229.47
842.83	229.43
843.14	229.54
843.46	229.52
843.77	229.43
844.08	229.37
844.40	229.23
844.71	229.14
845.03	229.18
845.34	229.09
845.65	229.13
845.97	229.09
846.28	229.19
846.60	229.16
846.91	229.09
847.22	229.20
847.54	229.03
847.85	229.10
848.16	229.05
848.48	228.99
848.79	229.12
849.10	229.20
849.42	229.12
849.73	228.97
850.04	228.98
850.36	228.86
850.67	228.92
850.98	228.99
851.30	228.90
851.61	228.64
851.92	228.75
852.23	228.70
852.55	228.72
852.86	228.64
853.17	228.66
853.49	228.68
853.80	228.54
854.11	228.69
854.42	228.60
854.74	228.61
855.05	228.55
855.36	228.40
855.67	228.32
855.99	228.34
856.30	228.42
856.61	228.38
856.92	228.38
857.23	228.28
857.55	228.20
857.86	228.24
858.17	228.46
858.48	228.30
858.79	228.29
859.11	228.23
859.42	228.22
859.73	228.20
860.04	228.15
860.35	228.20
860.66	228.07
860.98	227.97
861.29	227.98
861.60	227.97
861.91	227.98
862.22	228.05
862.53	228.04
862.84	227.90
863.16	227.97
863.47	228.05
863.78	228.00
864.09	227.91
864.40	227.94
864.71	227.93
865.02	228.06
865.33	228.00
865.64	228.00
865.95	227.95
866.27	228.03
866.58	228.08
866.89	228.11
867.20	228.10
867.51	228.20
867.82	228.17
868.13	228.26
868.44	228.31
868.75	228.39
869.06	228.55
869.37	228.64
869.68	228.58
869.99	228.55
870.30	228.76
870.61	228.99
870.92	229.07
871.23	229.20
871.54	229.30
871.85	229.36
872.16	229.37
872.47	229.38
872.78	229.46
873.09	229.53
873.40	229.53
873.71	229.61
874.02	229.60
874.33	229.68
874.64	229.65
874.95	229.76
875.26	229.73
875.56	229.58
875.87	229.55
876.18	229.60
876.49	229.93
876.80	229.85
877.11	229.84
877.42	229.87
877.73	229.70
878.04	229.66
878.35	229.84
878.66	229.94
878.96	229.99
879.27	229.88
879.58	229.79
879.89	229.73
880.20	229.80
880.51	229.73
880.82	229.71
881.12	229.82
881.43	229.71
881.74	229.61
882.05	229.67
882.36	229.64
882.67	229.65
882.97	229.25
883.28	229.22
883.59	229.07
883.90	228.97
884.21	229.05
884.51	229.00
884.82	228.81
885.13	228.77
885.44	228.62
885.74	228.55
886.05	228.63
886.36	228.70
886.67	228.62
886.98	228.80
887.28	228.70
887.59	228.60
887.90	228.60
888.20	228.44
888.51	228.45
888.82	228.35
889.13	228.31
889.43	228.54
889.74	228.48
890.05	228.54
890.35	228.59
890.66	228.53
890.97	228.50
891.28	228.45
891.58	228.34
891.89	228.51
892.20	228.50
892.50	228.40
892.81	228.36
893.12	228.24
893.42	228.02
893.73	228.01
894.04	227.97
894.34	227.84
894.65	227.99
894.95	227.96
895.26	227.96
895.57	228.09
895.87	227.76
896.18	227.73
896.48	227.66
896.79	227.48
897.10	227.46
897.40	227.43
897.71	227.44
898.01	227.44
898.32	227.47
898.63	227.48
898.93	227.51
899.24	227.51
899.54	227.60
899.85	227.66
900.15	227.71
900.46	227.67
900.76	227.73
901.07	227.73
901.38	227.71
901.68	227.77
901.99	227.60
902.29	227.74
902.60	227.76
902.90	227.81
903.21	227.98
903.51	228.03
903.82	228.04
904.12	228.03
904.43	228.06
904.73	227.90
905.03	227.90
905.34	228.05
905.64	228.09
905.95	228.07
906.25	228.10
906.56	228.17
906.86	228.26
907.17	228.34
907.47	228.40
907.77	228.48
908.08	228.50
908.38	228.70
908.69	228.81
908.99	228.99
909.30	229.01
909.60	228.93
909.90	228.97
910.21	228.97
910.51	229.00
910.81	229.02
911.12	229.12
911.42	229.17
911.73	229.09
912.03	229.10
912.33	229.11
912.64	229.16
912.94	229.11
913.24	229.12
913.55	229.09
913.85	229.13
914.15	229.12
914.46	229.18
914.76	229.01
915.06	229.00
915.37	228.98
915.67	229.01
915.97	229.12
916.27	229.19
916.58	229.22
916.88	229.35
917.18	229.39
917.49	229.49
917.79	229.51
918.09	229.45
918.39	229.50
918.70	229.60
919.00	229.61
919.30	229.70
919.60	229.67
919.91	229.63
920.21	229.55
920.51	229.46
920.81	229.47
921.12	229.48
921.42	229.39
921.72	229.37
922.02	229.26
922.32	229.27
922.63	229.11
922.93	229.24
923.23	229.15
923.53	229.16
923.83	229.04
924.13	228.97
924.44	228.95
924.74	228.95
925.04	228.83
925.34	228.77
925.64	228.58
925.94	228.52
926.24	228.61
926.55	228.48
926.85	228.59
927.15	228.44
927.45	228.38
927.75	228.41
928.05	228.30
928.35	228.31
928.65	228.29
928.95	228.24
929.26	228.16
929.56	228.09
929.86	227.99
930.16	227.92
930.46	227.86
930.76	227.82
931.06	227.56
931.36	227.55
931.66	227.47
931.96	227.50
932.26	227.45
932.56	227.33
932.86	227.41
933.16	227.27
933.46	227.22
933.76	227.24
934.06	227.26
934.36	227.30
934.66	227.32
934.96	227.20
935.26	227.30
935.56	227.28
935.86	227.37
936.16	227.42
936.46	227.35
936.76	227.40
937.06	227.32
937.36	227.48
937.66	227.43
937.96	227.34
938.26	227.47
938.56	227.60
938.86	227.61
939.16	227.63
939.46	227.66
939.76	227.81
940.06	227.88
940.35	227.85
940.65	227.86
940.95	227.91
941.25	227.91
941.55	227.87
941.85	227.84
942.15	227.70
942.45	227.81
942.75	227.87
943.04	227.86
943.34	228.01
943.64	228.01
943.94	228.14
944.24	228.29
944.54	228.24
944.84	228.20
945.13	228.19
945.43	228.20
945.73	228.20
946.03	228.22
946.33	228.19
946.62	228.10
946.92	228.15
947.22	228.09
947.52	228.21
947.82	228.26
948.11	228.23
948.41	228.32
948.71	228.22
949.01	228.30
949.31	228.27
949.60	228.30
949.90	228.30
950.20	228.26
950.50	228.30
950.79	228.26
951.09	228.37
951.39	228.43
951.69	228.51
951.98	228.66
952.28	228.64
952.58	228.72
952.87	228.84
953.17	228.72
953.47	228.79
953.76	228.73
954.06	228.70
954.36	228.72
954.66	228.66
954.95	228.74
955.25	228.84
955.55	228.94
955.84	228.92
956.14	229.01
956.44	229.02
956.73	229.06
957.03	229.20
957.32	229.15
957.62	229.07
957.92	229.01
958.21	229.00
958.51	229.21
958.81	229.10
959.10	229.20
959.40	229.28
959.69	229.35
959.99	229.43
960.29	229.47
960.58	229.44
960.88	229.65
961.17	229.60
961.47	229.50
961.76	229.43
962.06	229.38
962.36	229.27
962.65	229.22
962.95	229.25
963.24	229.07
963.54	229.00
963.83	229.09
964.13	229.08
964.42	228.96
964.72	228.69
965.01	228.71
965.31	228.59
965.60	228.56
965.90	228.56
966.19	228.40
966.49	228.32
966.78	228.28
967.08	228.12
967.37	228.13
967.67	228.10
967.96	228.09
968.26	228.07
968.55	228.09
968.85	228.05
969.14	227.86
969.43	227.95
969.73	227.95
970.02	227.81
970.32	227.73
970.61	227.65
970.91	227.64
971.20	227.62
971.49	227.56
971.79	227.54
972.08	227.42
972.38	227.52
972.67	227.62
972.96	227.70
973.26	227.70
973.55	227.69
973.85	227.71
974.14	227.65
974.43	227.61
974.73	227.62
975.02	227.62
975.31	227.69
975.61	227.64
975.90	227.65
976.19	227.69
976.49	227.70
976.78	227.81
977.07	227.85
977.37	227.80
977.66	227.84
977.95	227.90
978.24	227.94
978.54	227.92
978.83	227.88
979.12	227.81
979.42	227.78
979.71	227.80
980.00	227.87
980.29	228.02
980.59	228.03
980.88	228.10
981.17	228.15
981.46	228.29
981.76	228.23
982.05	228.34
982.34	228.46
982.63	228.51
982.93	228.52
983.22	228.56
983.51	228.59
983.80	228.67
984.09	228.70
984.39	228.69
984.68	228.75
984.97	228.67
985.26	228.74
985.55	228.88
985.85	228.83
986.14	228.79
986.43	228.78
986.72	228.82
987.01	228.82
987.30	228.80
987.59	228.72
987.89	228.87
988.18	228.71
988.47	228.67
988.76	228.56
989.05	228.61
989.34	228.49
989.63	228.57
989.92	228.53
990.22	228.45
990.51	228.42
990.80	228.36
991.09	228.42
991.38	228.37
991.67	228.20
991.96	228.10
992.25	228.11
992.54	228.12
992.83	228.08
993.12	227.94
993.41	228.03
993.70	228.16
993.99	228.14
994.28	228.20
994.58	228.26
994.87	228.40
995.16	228.29
995.45	228.32
995.74	228.19
996.03	228.13
996.32	228.23
996.61	228.28
996.90	228.31
997.19	228.35
997.48	228.32
997.77	228.37
998.06	228.40
998.34	228.33
998.63	228.18
998.92	228.18
999.21	228.23
999.50	228.18
999.79	228.07
1000.08	228.02
1000.37	227.96
1000.66	227.80
1000.95	227.71
1001.24	227.76
1001.53	227.84
1001.82	227.85
1002.11	227.89
1002.40	227.84
1002.68	227.94
1002.97	227.93
1003.26	227.90
1003.55	227.90
1003.84	227.92
1004.13	228.00
1004.42	227.99
1004.71	228.01
1004.99	227.99
1005.28	228.01
1005.57	227.97
1005.86	227.93
1006.15	227.98
1006.44	228.06
1006.72	228.13
1007.01	228.05
1007.30	228.06
1007.59	228.03
1007.88	228.01
1008.17	228.03
1008.45	227.94
1008.74	227.81
1009.03	227.81
1009.32	227.80
1009.60	227.81
1009.89	227.73
1010.18	227.60
1010.47	227.66
1010.76	227.62
1011.04	227.54
1011.33	227.61
1011.62	227.61
1011.91	227.60
1012.19	227.59
1012.48	227.60
1012.77	227.60
1013.05	227.79
1013.34	227.76
1013.63	227.76
1013.92	227.76
1014.20	227.66
1014.49	227.70
1014.78	227.72
1015.06	227.70
1015.35	227.70
1015.64	227.82
1015.92	227.94
1016.21	228.10
1016.50	228.17
1016.78	228.28
1017.07	228.46
1017.36	228.47
1017.64	228.54
1017.93	228.60
1018.22	228.60
1018.50	228.57
1018.79	228.64
1019.08	228.60
1019.36	228.71
1019.65	228.75
1019.93	228.90
1020.22	229.04
1020.51	229.12
1020.79	229.20
1021.08	228.60
1021.36	228.30
1021.65	229.50
1021.94	229.00
1022.22	230.00
1022.51	229.30
1022.79	229.70
1023.08	229.30
1023.36	230.10
1023.65	229.90
>>>>>End Processed Spectral Data<<<<<
