SpectraSuite Data File
++++++++++++++++++++++++++++++++++++
Date: Fri Feb 01 14:41:30 EST 2013
User: group
Dark Spectrum Present: No
Reference Spectrum Present: No
Number of Sampled Component Spectra: 1
Spectrometers: USB2E7196
Integration Time (usec): 70000 (USB2E7196)
Spectra Averaged: 10 (USB2E7196)
Boxcar Smoothing: 10 (USB2E7196)
Correct for Electrical Dark: No (USB2E7196)
Strobe/Lamp Enabled: No (USB2E7196)
Correct for Detector Non-linearity: No (USB2E7196)
Correct for Stray Light: No (USB2E7196)
Number of Pixels in Processed Spectrum: 2048
>>>>>Begin Processed Spectral Data<<<<<
339.09	0.00
339.48	215.90
339.86	215.50
340.24	219.60
340.63	220.00
341.01	225.50
341.39	222.40
341.78	225.80
342.16	226.50
342.54	225.90
342.93	214.70
343.31	225.56
343.69	226.15
344.07	226.66
344.46	227.11
344.84	227.57
345.22	227.69
345.60	227.90
345.99	228.06
346.37	228.17
346.75	228.27
347.13	228.30
347.52	228.43
347.90	228.54
348.28	228.61
348.66	228.64
349.05	228.69
349.43	228.68
349.81	228.56
350.19	228.62
350.57	228.65
350.96	228.69
351.34	228.79
351.72	228.80
352.10	228.94
352.48	228.96
352.87	228.98
353.25	229.05
353.63	229.17
354.01	229.14
354.39	229.21
354.77	229.35
355.15	229.51
355.54	229.57
355.92	229.55
356.30	229.60
356.68	229.74
357.06	229.74
357.44	229.85
357.82	229.89
358.20	230.05
358.58	230.09
358.97	230.19
359.35	230.28
359.73	230.38
360.11	230.47
360.49	230.48
360.87	230.46
361.25	230.52
361.63	230.70
362.01	230.81
362.39	230.80
362.77	230.72
363.15	230.68
363.53	230.70
363.91	230.80
364.29	230.74
364.67	230.55
365.05	230.59
365.43	230.63
365.81	230.77
366.19	230.81
366.57	230.92
366.95	230.82
367.33	230.68
367.71	230.69
368.09	230.61
368.47	230.61
368.85	230.60
369.23	230.57
369.61	230.40
369.99	230.45
370.37	230.49
370.75	230.60
371.13	230.62
371.51	230.58
371.89	230.53
372.27	230.54
372.65	230.57
373.03	230.54
373.41	230.41
373.78	230.34
374.16	230.10
374.54	230.10
374.92	230.08
375.30	230.11
375.68	230.03
376.06	230.04
376.44	229.92
376.82	229.88
377.19	229.80
377.57	229.71
377.95	229.60
378.33	229.40
378.71	229.19
379.09	229.00
379.47	228.89
379.84	228.84
380.22	228.73
380.60	228.60
380.98	228.53
381.36	228.48
381.73	228.33
382.11	228.34
382.49	228.18
382.87	228.07
383.25	227.88
383.62	227.95
384.00	227.84
384.38	227.84
384.76	227.84
385.13	227.91
385.51	227.85
385.89	227.73
386.27	227.76
386.64	227.73
387.02	227.70
387.40	227.61
387.78	227.60
388.15	227.59
388.53	227.59
388.91	227.59
389.29	227.51
389.66	227.58
390.04	227.48
390.42	227.56
390.79	227.63
391.17	227.70
391.55	227.67
391.92	227.57
392.30	227.71
392.68	227.69
393.05	227.55
393.43	227.66
393.81	227.62
394.18	227.74
394.56	227.86
394.94	227.95
395.31	228.08
395.69	228.12
396.06	228.23
396.44	228.38
396.82	228.45
397.19	228.68
397.57	228.74
397.95	228.96
398.32	228.95
398.70	229.00
399.07	229.17
399.45	229.16
399.82	229.40
400.20	229.30
400.58	229.46
400.95	229.58
401.33	229.73
401.70	230.07
402.08	230.15
402.45	230.27
402.83	230.51
403.20	230.61
403.58	230.77
403.95	230.91
404.33	231.11
404.71	231.27
405.08	231.33
405.46	231.48
405.83	231.62
406.21	231.83
406.58	231.99
406.96	232.17
407.33	232.40
407.70	232.69
408.08	233.10
408.45	233.35
408.83	233.63
409.20	233.84
409.58	234.03
409.95	234.33
410.33	234.59
410.70	234.82
411.08	235.10
411.45	235.39
411.82	235.74
412.20	236.10
412.57	236.60
412.95	237.03
413.32	237.60
413.69	238.13
414.07	238.61
414.44	239.18
414.82	239.87
415.19	240.56
415.56	241.22
415.94	241.91
416.31	242.65
416.68	243.43
417.06	244.28
417.43	245.10
417.81	246.09
418.18	247.07
418.55	248.06
418.93	249.14
419.30	250.20
419.67	251.38
420.04	252.57
420.42	253.79
420.79	255.39
421.16	256.65
421.54	258.20
421.91	259.77
422.28	261.46
422.66	263.05
423.03	264.75
423.40	266.33
423.77	268.10
424.15	269.80
424.52	271.77
424.89	273.76
425.26	275.72
425.64	277.63
426.01	279.79
426.38	281.93
426.75	284.25
427.13	286.63
427.50	288.89
427.87	291.25
428.24	293.46
428.61	295.70
428.99	298.40
429.36	301.12
429.73	303.74
430.10	306.24
430.47	308.87
430.85	311.55
431.22	314.40
431.59	317.51
431.96	320.49
432.33	323.62
432.70	326.83
433.08	330.42
433.45	333.69
433.82	337.02
434.19	340.85
434.56	344.24
434.93	347.61
435.30	351.10
435.68	354.86
436.05	358.61
436.42	362.00
436.79	365.24
437.16	368.64
437.53	372.31
437.90	375.89
438.27	379.27
438.64	382.81
439.01	386.14
439.38	388.96
439.75	391.85
440.13	395.14
440.50	397.89
440.87	400.28
441.24	402.86
441.61	405.53
441.98	407.28
442.35	409.57
442.72	411.84
443.09	414.13
443.46	415.41
443.83	416.26
444.20	416.98
444.57	417.90
444.94	418.12
445.31	418.42
445.68	419.04
446.05	419.10
446.42	418.53
446.79	418.01
447.16	417.41
447.53	416.92
447.90	415.27
448.27	413.83
448.64	411.84
449.01	410.32
449.37	407.69
449.74	405.24
450.11	402.53
450.48	399.34
450.85	395.97
451.22	393.15
451.59	390.47
451.96	387.86
452.33	384.47
452.70	381.56
453.07	377.94
453.43	374.13
453.80	370.57
454.17	367.24
454.54	363.89
454.91	360.36
455.28	356.71
455.65	353.51
456.02	350.53
456.38	347.78
456.75	344.36
457.12	341.55
457.49	338.79
457.86	335.83
458.23	333.55
458.59	330.85
458.96	328.05
459.33	325.64
459.70	323.32
460.07	321.43
460.43	319.09
460.80	317.00
461.17	315.14
461.54	313.43
461.91	311.65
462.27	309.68
462.64	307.98
463.01	306.27
463.38	304.57
463.74	302.67
464.11	301.04
464.48	299.55
464.85	298.07
465.21	296.85
465.58	295.72
465.95	294.30
466.32	293.20
466.68	292.14
467.05	290.87
467.42	289.61
467.78	288.35
468.15	287.21
468.52	286.40
468.88	285.16
469.25	284.04
469.62	283.03
469.98	282.26
470.35	281.46
470.72	280.77
471.08	279.99
471.45	279.19
471.82	278.43
472.18	277.70
472.55	277.02
472.92	276.23
473.28	275.43
473.65	274.58
474.02	273.94
474.38	273.31
474.75	272.97
475.11	272.51
475.48	272.02
475.85	271.74
476.21	271.30
476.58	270.98
476.94	270.62
477.31	270.25
477.67	269.97
478.04	269.70
478.41	269.35
478.77	269.29
479.14	269.10
479.50	268.97
479.87	268.84
480.23	268.80
480.60	268.77
480.96	268.79
481.33	269.00
481.69	269.02
482.06	269.25
482.42	269.24
482.79	269.35
483.15	269.50
483.52	269.74
483.88	269.96
484.25	270.19
484.61	270.40
484.98	270.76
485.34	271.25
485.71	271.72
486.07	272.32
486.44	272.61
486.80	273.15
487.17	273.68
487.53	274.39
487.90	275.16
488.26	275.94
488.62	276.80
488.99	277.62
489.35	278.54
489.72	279.44
490.08	280.46
490.44	281.65
490.81	282.87
491.17	283.91
491.54	285.17
491.90	286.52
492.26	288.16
492.63	289.85
492.99	291.48
493.36	293.17
493.72	295.20
494.08	297.29
494.45	299.56
494.81	301.81
495.17	304.15
495.54	306.63
495.90	309.17
496.26	311.94
496.63	314.81
496.99	317.88
497.35	321.23
497.72	324.59
498.08	328.03
498.44	331.81
498.80	335.93
499.17	340.06
499.53	344.23
499.89	348.74
500.26	353.22
500.62	357.95
500.98	362.92
501.34	368.02
501.71	373.46
502.07	378.87
502.43	384.77
502.79	390.83
503.16	397.00
503.52	403.67
503.88	410.22
504.24	417.23
504.60	424.34
504.97	431.53
505.33	439.30
505.69	447.45
506.05	455.66
506.41	463.98
506.78	472.64
507.14	481.90
507.50	491.21
507.86	500.80
508.22	510.83
508.59	521.03
508.95	531.51
509.31	542.50
509.67	553.83
510.03	565.09
510.39	576.70
510.75	588.60
511.12	600.68
511.48	613.31
511.84	626.10
512.20	639.17
512.56	652.72
512.92	666.38
513.28	680.19
513.64	694.35
514.00	708.88
514.37	723.66
514.73	738.58
515.09	753.66
515.45	769.19
515.81	784.90
516.17	801.09
516.53	817.23
516.89	833.32
517.25	849.57
517.61	866.33
517.97	883.28
518.33	900.21
518.69	917.63
519.05	935.54
519.41	953.38
519.77	972.01
520.13	990.36
520.49	1008.68
520.85	1027.46
521.21	1046.30
521.57	1065.23
521.93	1083.95
522.29	1103.21
522.65	1122.16
523.01	1141.26
523.37	1160.29
523.73	1179.53
524.09	1198.77
524.45	1218.67
524.81	1239.08
525.17	1259.79
525.53	1280.48
525.89	1301.26
526.25	1321.95
526.61	1341.78
526.97	1362.50
527.33	1382.55
527.68	1403.21
528.04	1423.63
528.40	1444.37
528.76	1465.49
529.12	1486.57
529.48	1507.74
529.84	1528.36
530.20	1549.80
530.56	1571.41
530.91	1593.29
531.27	1614.73
531.63	1635.88
531.99	1656.70
532.35	1677.51
532.71	1697.19
533.07	1717.85
533.42	1738.40
533.78	1758.78
534.14	1779.53
534.50	1798.98
534.86	1819.06
535.21	1838.62
535.57	1859.06
535.93	1879.10
536.29	1898.62
536.65	1917.72
537.00	1936.90
537.36	1956.52
537.72	1975.31
538.08	1993.74
538.44	2011.62
538.79	2029.96
539.15	2048.36
539.51	2066.66
539.87	2084.93
540.22	2103.48
540.58	2121.51
540.94	2138.73
541.29	2155.75
541.65	2172.95
542.01	2191.29
542.37	2208.20
542.72	2224.89
543.08	2240.93
543.44	2256.98
543.79	2272.05
544.15	2287.99
544.51	2304.51
544.87	2319.81
545.22	2334.86
545.58	2349.54
545.94	2363.42
546.29	2376.89
546.65	2390.82
547.01	2404.69
547.36	2417.60
547.72	2430.19
548.07	2442.40
548.43	2455.15
548.79	2467.38
549.14	2478.77
549.50	2489.12
549.86	2500.07
550.21	2510.93
550.57	2522.10
550.92	2533.01
551.28	2543.42
551.64	2553.37
551.99	2562.41
552.35	2571.87
552.70	2581.69
553.06	2591.50
553.41	2601.49
553.77	2611.43
554.13	2620.28
554.48	2629.00
554.84	2637.44
555.19	2645.64
555.55	2653.87
555.90	2661.28
556.26	2669.09
556.61	2676.62
556.97	2683.64
557.32	2690.95
557.68	2697.93
558.03	2705.12
558.39	2711.38
558.74	2719.19
559.10	2726.06
559.45	2733.02
559.81	2740.61
560.16	2746.51
560.52	2751.94
560.87	2758.20
561.23	2762.65
561.58	2767.64
561.94	2772.40
562.29	2776.81
562.64	2780.91
563.00	2785.06
563.35	2790.66
563.71	2795.80
564.06	2801.29
564.42	2806.13
564.77	2810.33
565.12	2815.15
565.48	2818.82
565.83	2821.67
566.19	2824.13
566.54	2826.71
566.89	2829.10
567.25	2830.08
567.60	2832.60
567.96	2834.88
568.31	2836.08
568.66	2838.10
569.02	2840.20
569.37	2841.09
569.72	2842.76
570.08	2844.67
570.43	2845.35
570.78	2845.06
571.14	2844.11
571.49	2843.20
571.84	2843.80
572.20	2843.08
572.55	2841.38
572.90	2839.59
573.26	2839.12
573.61	2837.90
573.96	2835.73
574.31	2832.38
574.67	2829.24
575.02	2825.78
575.37	2823.08
575.72	2819.45
576.08	2816.77
576.43	2812.93
576.78	2809.58
577.13	2805.79
577.49	2801.86
577.84	2797.94
578.19	2793.54
578.54	2789.22
578.90	2784.48
579.25	2778.07
579.60	2772.94
579.95	2767.37
580.30	2761.84
580.66	2755.64
581.01	2749.23
581.36	2743.63
581.71	2738.70
582.06	2733.62
582.42	2727.53
582.77	2721.00
583.12	2714.69
583.47	2708.45
583.82	2702.83
584.17	2695.86
584.53	2689.47
584.88	2683.42
585.23	2677.02
585.58	2671.04
585.93	2664.59
586.28	2658.54
586.63	2652.95
586.98	2646.63
587.34	2640.57
587.69	2633.98
588.04	2627.58
588.39	2621.45
588.74	2613.72
589.09	2606.29
589.44	2598.33
589.79	2591.74
590.14	2585.33
590.49	2578.91
590.84	2571.05
591.19	2563.44
591.54	2555.34
591.89	2546.10
592.25	2537.36
592.60	2528.27
592.95	2518.98
593.30	2510.35
593.65	2500.85
594.00	2491.96
594.35	2483.64
594.70	2473.99
595.05	2465.64
595.40	2456.13
595.75	2446.62
596.10	2438.88
596.45	2431.07
596.80	2423.48
597.15	2415.10
597.50	2405.80
597.85	2396.82
598.19	2388.86
598.54	2380.81
598.89	2373.47
599.24	2366.91
599.59	2359.20
599.94	2351.91
600.29	2343.99
600.64	2335.89
600.99	2327.27
601.34	2318.82
601.69	2309.38
602.04	2301.38
602.39	2292.91
602.74	2285.79
603.08	2278.03
603.43	2269.99
603.78	2261.21
604.13	2252.57
604.48	2243.44
604.83	2235.01
605.18	2227.03
605.53	2217.58
605.87	2206.94
606.22	2197.64
606.57	2187.40
606.92	2178.01
607.27	2168.80
607.62	2159.96
607.96	2151.13
608.31	2142.53
608.66	2132.91
609.01	2123.60
609.36	2113.79
609.70	2102.98
610.05	2092.08
610.40	2082.30
610.75	2071.78
611.10	2061.37
611.44	2050.31
611.79	2041.09
612.14	2031.06
612.49	2019.52
612.83	2008.87
613.18	1999.25
613.53	1988.99
613.88	1978.64
614.22	1968.16
614.57	1956.94
614.92	1946.51
615.27	1936.63
615.61	1926.01
615.96	1915.74
616.31	1906.20
616.65	1897.20
617.00	1888.03
617.35	1878.62
617.70	1868.08
618.04	1857.68
618.39	1847.40
618.74	1838.02
619.08	1826.99
619.43	1816.92
619.78	1808.07
620.12	1798.62
620.47	1788.88
620.82	1779.11
621.16	1769.72
621.51	1760.14
621.85	1751.18
622.20	1740.73
622.55	1730.17
622.89	1721.21
623.24	1711.98
623.59	1702.54
623.93	1692.99
624.28	1683.70
624.62	1673.89
624.97	1664.89
625.32	1656.30
625.66	1647.69
626.01	1638.82
626.35	1629.76
626.70	1620.60
627.04	1611.25
627.39	1601.87
627.73	1592.56
628.08	1583.37
628.43	1574.38
628.77	1565.00
629.12	1555.09
629.46	1546.07
629.81	1536.42
630.15	1526.45
630.50	1516.73
630.84	1506.41
631.19	1495.96
631.53	1486.19
631.88	1476.16
632.22	1465.98
632.57	1456.26
632.91	1446.60
633.26	1436.63
633.60	1427.10
633.95	1417.40
634.29	1408.10
634.64	1399.24
634.98	1390.02
635.32	1381.14
635.67	1372.09
636.01	1363.24
636.36	1354.77
636.70	1346.38
637.05	1338.26
637.39	1330.44
637.73	1322.40
638.08	1315.01
638.42	1307.49
638.77	1299.22
639.11	1291.21
639.45	1283.26
639.80	1274.88
640.14	1266.65
640.49	1258.70
640.83	1250.81
641.17	1242.90
641.52	1234.76
641.86	1226.30
642.20	1218.60
642.55	1210.29
642.89	1202.40
643.23	1194.38
643.58	1186.71
643.92	1178.32
644.26	1169.91
644.61	1161.91
644.95	1154.01
645.29	1144.88
645.64	1136.40
645.98	1128.65
646.32	1120.95
646.66	1112.93
647.01	1105.39
647.35	1097.84
647.69	1089.97
648.04	1082.32
648.38	1074.40
648.72	1066.31
649.06	1058.49
649.41	1050.68
649.75	1042.50
650.09	1034.53
650.43	1026.48
650.78	1018.30
651.12	1010.84
651.46	1003.78
651.80	996.04
652.14	988.46
652.49	981.63
652.83	974.49
653.17	966.85
653.51	959.37
653.85	952.39
654.20	944.83
654.54	937.01
654.88	929.75
655.22	922.18
655.56	914.85
655.90	907.90
656.25	901.23
656.59	894.15
656.93	887.86
657.27	881.18
657.61	874.19
657.95	867.82
658.29	861.04
658.64	854.05
658.98	847.13
659.32	840.16
659.66	833.49
660.00	826.89
660.34	820.50
660.68	814.29
661.02	807.68
661.36	801.52
661.70	795.91
662.05	790.03
662.39	784.31
662.73	778.72
663.07	773.01
663.41	767.10
663.75	761.40
664.09	755.48
664.43	749.45
664.77	744.58
665.11	738.94
665.45	733.65
665.79	728.46
666.13	723.20
666.47	718.06
666.81	712.75
667.15	707.25
667.49	701.99
667.83	696.76
668.17	691.78
668.51	686.71
668.85	681.34
669.19	676.52
669.53	671.87
669.87	666.72
670.21	661.90
670.55	657.30
670.89	653.00
671.23	648.87
671.57	644.62
671.91	640.09
672.25	635.69
672.58	631.39
672.92	627.07
673.26	622.99
673.60	619.00
673.94	614.92
674.28	611.20
674.62	607.61
674.96	603.63
675.30	599.82
675.64	596.04
675.97	592.38
676.31	588.49
676.65	584.72
676.99	581.24
677.33	577.54
677.67	573.69
678.01	569.58
678.34	565.62
678.68	561.95
679.02	558.08
679.36	554.49
679.70	551.03
680.04	547.45
680.37	543.75
680.71	540.24
681.05	537.15
681.39	533.88
681.73	530.52
682.06	527.55
682.40	524.47
682.74	521.25
683.08	518.03
683.42	514.82
683.75	511.42
684.09	507.97
684.43	504.89
684.77	501.92
685.10	498.80
685.44	495.76
685.78	492.82
686.12	489.92
686.45	486.93
686.79	483.80
687.13	481.03
687.46	478.13
687.80	475.24
688.14	472.14
688.48	469.35
688.81	466.36
689.15	463.54
689.49	460.51
689.82	457.71
690.16	455.11
690.50	452.50
690.83	449.84
691.17	447.27
691.51	444.65
691.84	442.25
692.18	439.89
692.52	437.43
692.85	434.88
693.19	432.52
693.52	430.11
693.86	427.70
694.20	425.18
694.53	422.80
694.87	420.31
695.21	418.03
695.54	415.50
695.88	413.16
696.21	410.87
696.55	408.77
696.88	406.58
697.22	404.29
697.56	402.12
697.89	399.97
698.23	397.97
698.56	395.83
698.90	393.69
699.23	391.36
699.57	389.29
699.90	387.30
700.24	385.20
700.58	383.05
700.91	381.20
701.25	379.40
701.58	377.60
701.92	375.88
702.25	374.17
702.59	372.41
702.92	370.58
703.26	368.74
703.59	366.97
703.93	365.45
704.26	363.69
704.60	361.91
704.93	360.20
705.26	358.62
705.60	357.08
705.93	355.49
706.27	354.24
706.60	352.87
706.94	351.37
707.27	349.82
707.61	348.59
707.94	347.12
708.27	345.55
708.61	344.07
708.94	342.70
709.28	341.25
709.61	339.95
709.94	338.76
710.28	337.40
710.61	336.19
710.95	334.73
711.28	333.60
711.61	332.33
711.95	331.12
712.28	329.80
712.61	328.56
712.95	327.37
713.28	326.19
713.61	324.85
713.95	323.70
714.28	322.68
714.61	321.50
714.95	320.55
715.28	319.42
715.61	318.32
715.95	317.22
716.28	316.27
716.61	315.29
716.95	314.27
717.28	313.36
717.61	312.32
717.94	311.35
718.28	310.26
718.61	309.33
718.94	308.45
719.27	307.61
719.61	306.76
719.94	305.88
720.27	304.83
720.60	304.05
720.94	303.12
721.27	302.30
721.60	301.47
721.93	300.59
722.27	299.86
722.60	299.10
722.93	298.17
723.26	297.34
723.59	296.62
723.93	295.84
724.26	295.12
724.59	294.35
724.92	293.43
725.25	292.82
725.59	292.12
725.92	291.50
726.25	290.70
726.58	289.98
726.91	289.30
727.24	288.73
727.57	287.98
727.91	287.32
728.24	286.62
728.57	285.92
728.90	285.20
729.23	284.44
729.56	283.93
729.89	283.40
730.22	282.65
730.55	281.99
730.89	281.41
731.22	280.75
731.55	280.07
731.88	279.67
732.21	278.97
732.54	278.41
732.87	277.76
733.20	277.20
733.53	276.61
733.86	275.90
734.19	275.34
734.52	274.83
734.85	274.49
735.18	274.00
735.51	273.49
735.84	272.95
736.17	272.50
736.50	271.84
736.83	271.54
737.16	271.12
737.49	270.54
737.82	269.90
738.15	269.41
738.48	268.98
738.81	268.43
739.14	267.97
739.47	267.43
739.80	266.97
740.13	266.56
740.46	266.11
740.79	265.75
741.12	265.32
741.45	264.93
741.78	264.36
742.11	263.94
742.44	263.65
742.77	263.33
743.10	262.88
743.43	262.39
743.75	261.70
744.08	261.52
744.41	261.23
744.74	260.97
745.07	260.67
745.40	260.31
745.73	259.98
746.06	259.66
746.39	259.41
746.71	258.99
747.04	258.50
747.37	258.08
747.70	257.67
748.03	257.18
748.36	256.77
748.68	256.49
749.01	256.13
749.34	255.68
749.67	255.29
750.00	255.00
750.33	254.86
750.65	254.71
750.98	254.18
751.31	253.85
751.64	253.40
751.97	253.12
752.29	252.90
752.62	252.49
752.95	252.21
753.28	251.85
753.60	251.53
753.93	251.39
754.26	251.26
754.59	250.97
754.91	250.78
755.24	250.58
755.57	250.25
755.90	249.99
756.22	249.66
756.55	249.38
756.88	249.05
757.20	248.73
757.53	248.37
757.86	248.12
758.19	247.85
758.51	247.70
758.84	247.37
759.17	247.12
759.49	246.99
759.82	246.80
760.15	246.54
760.47	246.43
760.80	246.25
761.13	246.08
761.45	245.94
761.78	245.80
762.11	245.56
762.43	245.34
762.76	245.07
763.08	244.88
763.41	244.68
763.74	244.58
764.06	244.28
764.39	244.15
764.71	243.95
765.04	243.78
765.37	243.53
765.69	243.43
766.02	243.22
766.34	243.04
766.67	242.80
767.00	242.84
767.32	242.68
767.65	242.53
767.97	242.27
768.30	242.09
768.62	241.88
768.95	241.74
769.27	241.63
769.60	241.48
769.92	241.39
770.25	241.19
770.57	240.93
770.90	240.90
771.22	240.72
771.55	240.57
771.87	240.43
772.20	240.34
772.52	240.33
772.85	240.33
773.17	240.22
773.50	240.12
773.82	239.83
774.15	239.70
774.47	239.34
774.80	239.16
775.12	239.11
775.45	238.93
775.77	238.71
776.09	238.59
776.42	238.49
776.74	238.45
777.07	238.39
777.39	238.36
777.72	238.21
778.04	238.11
778.36	238.01
778.69	237.88
779.01	237.81
779.33	237.48
779.66	237.21
779.98	237.14
780.31	237.04
780.63	237.11
780.95	237.06
781.28	237.10
781.60	237.11
781.92	236.92
782.25	236.86
782.57	236.98
782.89	236.85
783.22	236.80
783.54	236.66
783.86	236.53
784.19	236.46
784.51	236.46
784.83	236.36
785.16	236.27
785.48	236.20
785.80	236.12
786.12	236.15
786.45	236.05
786.77	235.87
787.09	235.84
787.42	235.66
787.74	235.49
788.06	235.48
788.38	235.40
788.71	235.32
789.03	235.36
789.35	235.20
789.67	235.17
789.99	235.10
790.32	235.04
790.64	235.08
790.96	235.18
791.28	235.04
791.61	235.00
791.93	234.95
792.25	234.81
792.57	234.83
792.89	234.66
793.21	234.71
793.54	234.77
793.86	234.59
794.18	234.50
794.50	234.43
794.82	234.27
795.14	234.20
795.47	234.23
795.79	234.18
796.11	234.10
796.43	234.09
796.75	234.01
797.07	233.95
797.39	233.97
797.71	233.85
798.04	233.83
798.36	233.86
798.68	233.80
799.00	233.90
799.32	233.69
799.64	233.68
799.96	233.65
800.28	233.60
800.60	233.49
800.92	233.51
801.24	233.56
801.56	233.66
801.89	233.70
802.21	233.63
802.53	233.61
802.85	233.61
803.17	233.54
803.49	233.51
803.81	233.50
804.13	233.44
804.45	233.38
804.77	233.29
805.09	233.29
805.41	233.25
805.73	233.09
806.05	233.08
806.37	233.12
806.69	233.11
807.01	233.02
807.33	233.10
807.65	232.92
807.97	232.98
808.28	232.84
808.60	232.67
808.92	232.62
809.24	232.57
809.56	232.42
809.88	232.39
810.20	232.36
810.52	232.22
810.84	232.04
811.16	231.92
811.48	231.79
811.80	231.62
812.12	231.56
812.43	231.56
812.75	231.70
813.07	231.61
813.39	231.61
813.71	231.58
814.03	231.58
814.35	231.57
814.67	231.43
814.98	231.46
815.30	231.39
815.62	231.25
815.94	231.13
816.26	231.18
816.58	231.02
816.89	231.09
817.21	231.07
817.53	231.04
817.85	230.93
818.17	231.00
818.48	231.00
818.80	231.01
819.12	231.00
819.44	230.81
819.76	230.79
820.07	230.67
820.39	230.62
820.71	230.45
821.03	230.52
821.34	230.47
821.66	230.37
821.98	230.46
822.30	230.67
822.61	230.65
822.93	230.57
823.25	230.51
823.57	230.43
823.88	230.44
824.20	230.44
824.52	230.56
824.83	230.54
825.15	230.46
825.47	230.43
825.79	230.43
826.10	230.36
826.42	230.22
826.74	230.20
827.05	230.29
827.37	230.34
827.69	230.26
828.00	230.22
828.32	230.30
828.64	230.27
828.95	230.14
829.27	230.19
829.58	230.18
829.90	230.26
830.22	230.20
830.53	230.16
830.85	230.11
831.17	229.95
831.48	229.92
831.80	229.93
832.11	229.93
832.43	229.73
832.75	229.79
833.06	229.90
833.38	229.76
833.69	229.65
834.01	229.67
834.32	229.63
834.64	229.56
834.96	229.52
835.27	229.38
835.59	229.41
835.90	229.31
836.22	229.34
836.53	229.33
836.85	229.35
837.16	229.44
837.48	229.57
837.79	229.59
838.11	229.63
838.42	229.64
838.74	229.55
839.05	229.66
839.37	229.68
839.68	229.61
840.00	229.59
840.31	229.55
840.63	229.48
840.94	229.54
841.26	229.63
841.57	229.61
841.88	229.72
842.20	229.74
842.51	229.77
842.83	229.74
843.14	229.91
843.46	229.92
843.77	229.86
844.08	229.82
844.40	229.80
844.71	229.80
845.03	229.85
845.34	229.92
845.65	229.91
845.97	229.89
846.28	229.90
846.60	229.95
846.91	229.99
847.22	229.99
847.54	229.90
847.85	229.89
848.16	229.92
848.48	229.81
848.79	229.79
849.10	229.84
849.42	229.79
849.73	229.60
850.04	229.57
850.36	229.53
850.67	229.44
850.98	229.47
851.30	229.46
851.61	229.36
851.92	229.38
852.23	229.51
852.55	229.47
852.86	229.37
853.17	229.43
853.49	229.48
853.80	229.52
854.11	229.54
854.42	229.54
854.74	229.42
855.05	229.44
855.36	229.32
855.67	229.20
855.99	229.28
856.30	229.51
856.61	229.51
856.92	229.46
857.23	229.58
857.55	229.57
857.86	229.57
858.17	229.64
858.48	229.56
858.79	229.48
859.11	229.53
859.42	229.58
859.73	229.53
860.04	229.51
860.35	229.45
860.66	229.50
860.98	229.44
861.29	229.53
861.60	229.61
861.91	229.66
862.22	229.75
862.53	229.76
862.84	229.49
863.16	229.45
863.47	229.45
863.78	229.34
864.09	229.46
864.40	229.45
864.71	229.41
865.02	229.45
865.33	229.45
865.64	229.38
865.95	229.41
866.27	229.41
866.58	229.32
866.89	229.35
867.20	229.19
867.51	229.11
867.82	229.08
868.13	229.03
868.44	228.96
868.75	228.83
869.06	228.78
869.37	228.72
869.68	228.70
869.99	228.70
870.30	228.71
870.61	228.61
870.92	228.49
871.23	228.49
871.54	228.47
871.85	228.44
872.16	228.44
872.47	228.39
872.78	228.37
873.09	228.37
873.40	228.40
873.71	228.40
874.02	228.43
874.33	228.38
874.64	228.35
874.95	228.38
875.26	228.38
875.56	228.24
875.87	228.22
876.18	228.27
876.49	228.43
876.80	228.38
877.11	228.35
877.42	228.44
877.73	228.40
878.04	228.36
878.35	228.32
878.66	228.29
878.96	228.35
879.27	228.24
879.58	228.27
879.89	228.06
880.20	228.14
880.51	228.12
880.82	228.18
881.12	228.12
881.43	228.13
881.74	228.13
882.05	228.22
882.36	228.28
882.67	228.23
882.97	228.05
883.28	228.04
883.59	227.96
883.90	227.95
884.21	227.99
884.51	227.93
884.82	227.90
885.13	227.91
885.44	227.79
885.74	227.84
886.05	227.79
886.36	227.95
886.67	227.91
886.98	228.11
887.28	228.07
887.59	228.17
887.90	228.18
888.20	228.16
888.51	228.22
888.82	228.30
889.13	228.36
889.43	228.55
889.74	228.55
890.05	228.59
890.35	228.52
890.66	228.42
890.97	228.46
891.28	228.46
891.58	228.39
891.89	228.44
892.20	228.46
892.50	228.41
892.81	228.44
893.12	228.42
893.42	228.25
893.73	228.20
894.04	228.20
894.34	228.21
894.65	228.25
894.95	228.23
895.26	228.18
895.57	228.17
895.87	228.00
896.18	228.04
896.48	228.08
896.79	228.10
897.10	228.17
897.40	228.21
897.71	228.24
898.01	228.38
898.32	228.46
898.63	228.52
898.93	228.60
899.24	228.59
899.54	228.59
899.85	228.64
900.15	228.74
900.46	228.66
900.76	228.66
901.07	228.60
901.38	228.64
901.68	228.64
901.99	228.50
902.29	228.53
902.60	228.41
902.90	228.44
903.21	228.53
903.51	228.56
903.82	228.51
904.12	228.52
904.43	228.50
904.73	228.45
905.03	228.44
905.34	228.64
905.64	228.67
905.95	228.68
906.25	228.60
906.56	228.57
906.86	228.60
907.17	228.63
907.47	228.69
907.77	228.70
908.08	228.66
908.38	228.76
908.69	228.74
908.99	228.89
909.30	228.83
909.60	228.80
909.90	228.78
910.21	228.87
910.51	228.95
910.81	228.97
911.12	229.00
911.42	229.06
911.73	228.85
912.03	228.79
912.33	228.81
912.64	228.80
912.94	228.79
913.24	228.79
913.55	228.75
913.85	228.75
914.15	228.70
914.46	228.80
914.76	228.81
915.06	228.82
915.37	228.73
915.67	228.72
915.97	228.72
916.27	228.77
916.58	228.70
916.88	228.61
917.18	228.62
917.49	228.76
917.79	228.70
918.09	228.75
918.39	228.87
918.70	228.81
919.00	228.90
919.30	229.02
919.60	229.04
919.91	229.01
920.21	229.08
920.51	229.01
920.81	228.98
921.12	229.05
921.42	228.98
921.72	229.00
922.02	229.00
922.32	228.93
922.63	228.91
922.93	229.00
923.23	229.03
923.53	228.93
923.83	228.74
924.13	228.73
924.44	228.68
924.74	228.70
925.04	228.78
925.34	228.76
925.64	228.67
925.94	228.60
926.24	228.65
926.55	228.70
926.85	228.83
927.15	228.77
927.45	228.65
927.75	228.64
928.05	228.63
928.35	228.71
928.65	228.78
928.95	228.88
929.26	228.81
929.56	228.80
929.86	228.79
930.16	228.91
930.46	228.90
930.76	228.88
931.06	228.66
931.36	228.60
931.66	228.55
931.96	228.61
932.26	228.60
932.56	228.60
932.86	228.44
933.16	228.32
933.46	228.32
933.76	228.24
934.06	228.38
934.36	228.50
934.66	228.38
934.96	228.35
935.26	228.14
935.56	228.15
935.86	228.18
936.16	228.21
936.46	228.09
936.76	228.08
937.06	228.10
937.36	228.22
937.66	228.29
937.96	228.39
938.26	228.29
938.56	228.37
938.86	228.34
939.16	228.41
939.46	228.45
939.76	228.57
940.06	228.70
940.35	228.68
940.65	228.63
940.95	228.70
941.25	228.73
941.55	228.89
941.85	228.95
942.15	228.93
942.45	229.00
942.75	229.02
943.04	229.07
943.34	229.13
943.64	229.10
943.94	229.10
944.24	229.00
944.54	229.05
944.84	229.04
945.13	228.90
945.43	228.84
945.73	228.91
946.03	228.78
946.33	228.73
946.62	228.65
946.92	228.62
947.22	228.64
947.52	228.70
947.82	228.67
948.11	228.56
948.41	228.60
948.71	228.53
949.01	228.58
949.31	228.49
949.60	228.47
949.90	228.51
950.20	228.50
950.50	228.53
950.79	228.49
951.09	228.55
951.39	228.71
951.69	228.64
951.98	228.61
952.28	228.73
952.58	228.73
952.87	228.72
953.17	228.65
953.47	228.71
953.76	228.52
954.06	228.48
954.36	228.54
954.66	228.51
954.95	228.63
955.25	228.60
955.55	228.68
955.84	228.64
956.14	228.56
956.44	228.53
956.73	228.50
957.03	228.45
957.32	228.45
957.62	228.46
957.92	228.55
958.21	228.52
958.51	228.55
958.81	228.51
959.10	228.52
959.40	228.62
959.69	228.53
959.99	228.67
960.29	228.66
960.58	228.60
960.88	228.66
961.17	228.60
961.47	228.62
961.76	228.50
962.06	228.59
962.36	228.60
962.65	228.64
962.95	228.69
963.24	228.74
963.54	228.61
963.83	228.53
964.13	228.52
964.42	228.48
964.72	228.40
965.01	228.48
965.31	228.41
965.60	228.37
965.90	228.42
966.19	228.35
966.49	228.33
966.78	228.26
967.08	228.24
967.37	228.28
967.67	228.20
967.96	228.39
968.26	228.35
968.55	228.29
968.85	228.23
969.14	228.14
969.43	228.12
969.73	228.23
970.02	228.21
970.32	228.22
970.61	228.21
970.91	228.16
971.20	228.15
971.49	228.19
971.79	228.20
972.08	228.13
972.38	228.15
972.67	228.12
972.96	228.19
973.26	228.13
973.55	228.13
973.85	228.20
974.14	228.08
974.43	228.05
974.73	228.08
975.02	228.06
975.31	228.05
975.61	228.00
975.90	227.94
976.19	227.86
976.49	227.83
976.78	227.89
977.07	227.88
977.37	227.89
977.66	227.89
977.95	227.95
978.24	227.99
978.54	228.01
978.83	228.08
979.12	228.14
979.42	228.13
979.71	227.98
980.00	228.00
980.29	227.93
980.59	227.85
980.88	227.96
981.17	228.02
981.46	228.05
981.76	228.04
982.05	228.08
982.34	228.14
982.63	228.19
982.93	228.19
983.22	228.25
983.51	228.32
983.80	228.37
984.09	228.38
984.39	228.40
984.68	228.38
984.97	228.43
985.26	228.32
985.55	228.34
985.85	228.40
986.14	228.37
986.43	228.49
986.72	228.50
987.01	228.43
987.30	228.42
987.59	228.48
987.89	228.46
988.18	228.45
988.47	228.52
988.76	228.43
989.05	228.42
989.34	228.46
989.63	228.38
989.92	228.33
990.22	228.14
990.51	228.08
990.80	228.05
991.09	228.01
991.38	228.04
991.67	227.91
991.96	228.02
992.25	228.01
992.54	227.92
992.83	227.92
993.12	227.83
993.41	227.81
993.70	227.83
993.99	227.93
994.28	227.88
994.58	227.92
994.87	228.00
995.16	228.00
995.45	227.89
995.74	227.83
996.03	227.89
996.32	227.88
996.61	227.82
996.90	227.81
997.19	227.86
997.48	227.91
997.77	227.91
998.06	227.72
998.34	227.69
998.63	227.75
998.92	227.73
999.21	227.76
999.50	227.71
999.79	227.63
1000.08	227.60
1000.37	227.60
1000.66	227.54
1000.95	227.57
1001.24	227.60
1001.53	227.60
1001.82	227.67
1002.11	227.58
1002.40	227.76
1002.68	227.82
1002.97	228.12
1003.26	228.03
1003.55	227.99
1003.84	228.06
1004.13	228.15
1004.42	228.18
1004.71	228.16
1004.99	228.22
1005.28	228.34
1005.57	228.30
1005.86	228.35
1006.15	228.37
1006.44	228.37
1006.72	228.38
1007.01	228.26
1007.30	228.26
1007.59	228.29
1007.88	228.20
1008.17	228.23
1008.45	228.21
1008.74	228.24
1009.03	228.04
1009.32	228.10
1009.60	228.07
1009.89	228.11
1010.18	228.06
1010.47	228.10
1010.76	228.11
1011.04	228.00
1011.33	228.06
1011.62	228.23
1011.91	228.28
1012.19	228.29
1012.48	228.33
1012.77	228.33
1013.05	228.54
1013.34	228.54
1013.63	228.56
1013.92	228.61
1014.20	228.60
1014.49	228.62
1014.78	228.65
1015.06	228.57
1015.35	228.55
1015.64	228.63
1015.92	228.62
1016.21	228.69
1016.50	228.69
1016.78	228.73
1017.07	228.83
1017.36	228.77
1017.64	228.66
1017.93	228.66
1018.22	228.62
1018.50	228.59
1018.79	228.58
1019.08	228.54
1019.36	228.56
1019.65	228.47
1019.93	228.49
1020.22	228.53
1020.51	228.54
1020.79	228.51
1021.08	227.90
1021.36	227.80
1021.65	228.00
1021.94	230.20
1022.22	229.50
1022.51	226.80
1022.79	228.20
1023.08	228.70
1023.36	229.60
1023.65	228.40
>>>>>End Processed Spectral Data<<<<<
