SpectraSuite Data File
++++++++++++++++++++++++++++++++++++
Date: Fri Feb 01 14:40:12 EST 2013
User: group
Dark Spectrum Present: No
Reference Spectrum Present: No
Number of Sampled Component Spectra: 1
Spectrometers: USB2E7196
Integration Time (usec): 70000 (USB2E7196)
Spectra Averaged: 10 (USB2E7196)
Boxcar Smoothing: 10 (USB2E7196)
Correct for Electrical Dark: No (USB2E7196)
Strobe/Lamp Enabled: No (USB2E7196)
Correct for Detector Non-linearity: No (USB2E7196)
Correct for Stray Light: No (USB2E7196)
Number of Pixels in Processed Spectrum: 2048
>>>>>Begin Processed Spectral Data<<<<<
339.09	0.00
339.48	214.40
339.86	217.20
340.24	218.20
340.63	219.60
341.01	225.10
341.39	224.10
341.78	224.00
342.16	226.60
342.54	224.50
342.93	214.20
343.31	224.98
343.69	225.60
344.07	226.18
344.46	226.56
344.84	226.91
345.22	227.02
345.60	227.23
345.99	227.47
346.37	227.54
346.75	227.78
347.13	227.81
347.52	227.87
347.90	227.94
348.28	227.92
348.66	227.83
349.05	227.70
349.43	227.73
349.81	227.82
350.19	227.89
350.57	227.99
350.96	228.08
351.34	228.30
351.72	228.34
352.10	228.35
352.48	228.43
352.87	228.50
353.25	228.46
353.63	228.52
354.01	228.52
354.39	228.54
354.77	228.57
355.15	228.80
355.54	228.78
355.92	228.78
356.30	228.99
356.68	229.24
357.06	229.30
357.44	229.42
357.82	229.49
358.20	229.46
358.58	229.46
358.97	229.56
359.35	229.57
359.73	229.67
360.11	229.64
360.49	229.78
360.87	229.83
361.25	230.00
361.63	230.06
362.01	230.10
362.39	230.21
362.77	230.24
363.15	230.19
363.53	230.28
363.91	230.37
364.29	230.34
364.67	230.20
365.05	230.24
365.43	230.26
365.81	230.30
366.19	230.46
366.57	230.62
366.95	230.64
367.33	230.57
367.71	230.57
368.09	230.59
368.47	230.58
368.85	230.55
369.23	230.55
369.61	230.50
369.99	230.58
370.37	230.56
370.75	230.57
371.13	230.54
371.51	230.53
371.89	230.42
372.27	230.23
372.65	230.31
373.03	230.24
373.41	230.24
373.78	230.20
374.16	230.00
374.54	229.81
374.92	229.68
375.30	229.68
375.68	229.57
376.06	229.60
376.44	229.40
376.82	229.43
377.19	229.38
377.57	229.27
377.95	229.10
378.33	229.03
378.71	228.98
379.09	228.95
379.47	228.85
379.84	228.76
380.22	228.81
380.60	228.60
380.98	228.56
381.36	228.50
381.73	228.40
382.11	228.40
382.49	228.38
382.87	228.30
383.25	228.10
383.62	228.20
384.00	228.03
384.38	228.00
384.76	227.96
385.13	227.93
385.51	227.97
385.89	227.76
386.27	227.69
386.64	227.60
387.02	227.45
387.40	227.40
387.78	227.37
388.15	227.29
388.53	227.28
388.91	227.30
389.29	227.13
389.66	227.01
390.04	226.93
390.42	226.92
390.79	226.79
391.17	226.82
391.55	226.60
391.92	226.68
392.30	226.66
392.68	226.60
393.05	226.61
393.43	226.53
393.81	226.61
394.18	226.60
394.56	226.59
394.94	226.69
395.31	226.64
395.69	226.70
396.06	226.70
396.44	226.59
396.82	226.53
397.19	226.65
397.57	226.74
397.95	226.88
398.32	226.81
398.70	227.06
399.07	227.16
399.45	227.30
399.82	227.27
400.20	227.39
400.58	227.45
400.95	227.42
401.33	227.56
401.70	227.83
402.08	227.89
402.45	227.99
402.83	228.17
403.20	228.38
403.58	228.64
403.95	228.78
404.33	229.13
404.71	229.21
405.08	229.50
405.46	229.58
405.83	229.72
406.21	229.94
406.58	230.02
406.96	230.20
407.33	230.36
407.70	230.60
408.08	230.99
408.45	231.31
408.83	231.70
409.20	231.92
409.58	232.06
409.95	232.36
410.33	232.66
410.70	232.94
411.08	233.17
411.45	233.38
411.82	233.62
412.20	234.03
412.57	234.53
412.95	234.74
413.32	235.12
413.69	235.47
414.07	235.90
414.44	236.44
414.82	236.98
415.19	237.45
415.56	238.00
415.94	238.50
416.31	239.02
416.68	239.57
417.06	240.21
417.43	240.92
417.81	241.64
418.18	242.37
418.55	243.10
418.93	244.02
419.30	244.90
419.67	245.86
420.04	246.69
420.42	247.61
420.79	248.90
421.16	249.96
421.54	251.18
421.91	252.41
422.28	253.58
422.66	254.89
423.03	256.21
423.40	257.56
423.77	258.87
424.15	260.21
424.52	261.62
424.89	263.27
425.26	264.73
425.64	266.19
426.01	267.75
426.38	269.30
426.75	270.99
427.13	272.63
427.50	274.37
427.87	276.25
428.24	278.18
428.61	279.80
428.99	281.85
429.36	283.90
429.73	285.92
430.10	287.90
430.47	289.96
430.85	292.06
431.22	294.04
431.59	296.37
431.96	298.48
432.33	300.98
432.70	303.26
433.08	306.05
433.45	308.62
433.82	311.10
434.19	313.99
434.56	316.77
434.93	319.46
435.30	322.13
435.68	324.92
436.05	327.69
436.42	330.34
436.79	332.84
437.16	335.53
437.53	338.43
437.90	341.28
438.27	343.88
438.64	346.53
439.01	349.33
439.38	351.56
439.75	354.10
440.13	356.52
440.50	358.99
440.87	360.86
441.24	362.88
441.61	365.16
441.98	366.68
442.35	368.51
442.72	370.50
443.09	372.46
443.46	373.51
443.83	374.08
444.20	374.64
444.57	375.55
444.94	375.80
445.31	376.11
445.68	376.70
446.05	376.98
446.42	376.84
446.79	376.49
447.16	376.01
447.53	375.48
447.90	374.38
448.27	373.23
448.64	371.61
449.01	370.57
449.37	368.70
449.74	366.81
450.11	364.61
450.48	362.07
450.85	359.44
451.22	357.36
451.59	355.51
451.96	353.67
452.33	351.11
452.70	348.82
453.07	346.08
453.43	342.95
453.80	340.17
454.17	337.46
454.54	334.86
454.91	332.30
455.28	329.72
455.65	327.29
456.02	324.98
456.38	322.92
456.75	320.25
457.12	317.90
457.49	315.68
457.86	313.53
458.23	311.74
458.59	309.76
458.96	307.78
459.33	305.94
459.70	304.17
460.07	302.57
460.43	300.77
460.80	299.08
461.17	297.73
461.54	296.19
461.91	294.84
462.27	293.40
462.64	292.16
463.01	290.91
463.38	289.61
463.74	287.96
464.11	286.75
464.48	285.74
464.85	284.63
465.21	283.81
465.58	282.86
465.95	281.60
466.32	280.65
466.68	279.57
467.05	278.55
467.42	277.64
467.78	276.73
468.15	275.81
468.52	275.10
468.88	274.13
469.25	273.26
469.62	272.52
469.98	271.81
470.35	271.06
470.72	270.26
471.08	269.45
471.45	269.00
471.82	268.39
472.18	267.56
472.55	266.96
472.92	266.19
473.28	265.53
473.65	265.07
474.02	264.40
474.38	263.92
474.75	263.40
475.11	262.80
475.48	262.39
475.85	262.02
476.21	261.60
476.58	261.28
476.94	260.92
477.31	260.44
477.67	259.99
478.04	259.64
478.41	259.26
478.77	259.12
479.14	258.64
479.50	258.47
479.87	258.31
480.23	258.15
480.60	257.98
480.96	257.81
481.33	257.60
481.69	257.55
482.06	257.34
482.42	257.16
482.79	256.97
483.15	256.78
483.52	256.80
483.88	256.70
484.25	256.47
484.61	256.43
484.98	256.40
485.34	256.55
485.71	256.54
486.07	256.60
486.44	256.46
486.80	256.60
487.17	256.51
487.53	256.63
487.90	256.70
488.26	256.92
488.62	257.04
488.99	257.19
489.35	257.34
489.72	257.51
490.08	257.72
490.44	258.03
490.81	258.43
491.17	258.72
491.54	259.10
491.90	259.55
492.26	259.97
492.63	260.46
492.99	260.82
493.36	261.32
493.72	261.84
494.08	262.37
494.45	263.00
494.81	263.65
495.17	264.34
495.54	265.07
495.90	265.80
496.26	266.70
496.63	267.55
496.99	268.37
497.35	269.51
497.72	270.58
498.08	271.67
498.44	272.70
498.80	273.85
499.17	275.17
499.53	276.54
499.89	277.91
500.26	279.33
500.62	280.83
500.98	282.40
501.34	284.03
501.71	285.86
502.07	287.59
502.43	289.38
502.79	291.28
503.16	293.38
503.52	295.55
503.88	297.65
504.24	299.91
504.60	302.37
504.97	304.76
505.33	307.43
505.69	310.21
506.05	312.99
506.41	315.81
506.78	318.64
507.14	321.57
507.50	324.80
507.86	328.14
508.22	331.56
508.59	335.11
508.95	338.84
509.31	342.70
509.67	346.60
510.03	350.69
510.39	354.83
510.75	359.08
511.12	363.43
511.48	367.90
511.84	372.61
512.20	377.29
512.56	382.12
512.92	387.12
513.28	392.13
513.64	397.67
514.00	403.32
514.37	409.15
514.73	414.95
515.09	420.75
515.45	426.76
515.81	432.71
516.17	438.91
516.53	445.24
516.89	451.71
517.25	458.44
517.61	465.41
517.97	472.32
518.33	479.13
518.69	486.18
519.05	493.58
519.41	500.97
519.77	508.63
520.13	516.50
520.49	524.33
520.85	532.34
521.21	540.25
521.57	548.20
521.93	556.16
522.29	564.50
522.65	572.75
523.01	581.12
523.37	589.64
523.73	598.28
524.09	607.09
524.45	616.10
524.81	625.11
525.17	634.35
525.53	643.60
525.89	653.28
526.25	662.77
526.61	672.30
526.97	682.06
527.33	691.65
527.68	701.68
528.04	711.49
528.40	721.59
528.76	731.79
529.12	741.95
529.48	752.37
529.84	762.61
530.20	773.19
530.56	784.07
530.91	795.21
531.27	806.12
531.63	817.07
531.99	827.70
532.35	838.36
532.71	848.92
533.07	860.25
533.42	870.96
533.78	882.19
534.14	893.29
534.50	903.95
534.86	915.21
535.21	926.00
535.57	937.20
535.93	948.11
536.29	958.85
536.65	969.89
537.00	980.52
537.36	991.64
537.72	1002.65
538.08	1013.38
538.44	1023.93
538.79	1034.74
539.15	1045.50
539.51	1056.57
539.87	1067.90
540.22	1079.00
540.58	1089.80
540.94	1100.75
541.29	1111.27
541.65	1121.51
542.01	1132.25
542.37	1142.83
542.72	1153.03
543.08	1163.04
543.44	1173.36
543.79	1183.42
544.15	1193.74
544.51	1204.52
544.87	1214.96
545.22	1225.20
545.58	1234.86
545.94	1244.40
546.29	1254.14
546.65	1263.56
547.01	1272.65
547.36	1281.44
547.72	1290.13
548.07	1298.43
548.43	1307.04
548.79	1315.81
549.14	1324.88
549.50	1332.96
549.86	1341.07
550.21	1349.11
550.57	1357.72
550.92	1365.86
551.28	1373.67
551.64	1381.42
551.99	1389.15
552.35	1396.30
552.70	1403.70
553.06	1411.64
553.41	1419.52
553.77	1426.86
554.13	1434.25
554.48	1442.03
554.84	1449.08
555.19	1456.17
555.55	1463.70
555.90	1470.59
556.26	1477.04
556.61	1483.35
556.97	1490.02
557.32	1496.68
557.68	1503.41
558.03	1509.23
558.39	1515.27
558.74	1522.04
559.10	1528.14
559.45	1533.61
559.81	1540.01
560.16	1545.67
560.52	1550.73
560.87	1555.91
561.23	1561.01
561.58	1566.36
561.94	1571.02
562.29	1575.54
562.64	1580.34
563.00	1584.62
563.35	1589.70
563.71	1595.19
564.06	1600.30
564.42	1605.16
564.77	1609.50
565.12	1614.19
565.48	1619.40
565.83	1623.20
566.19	1627.32
566.54	1631.05
566.89	1634.72
567.25	1637.85
567.60	1641.38
567.96	1645.03
568.31	1648.42
568.66	1651.88
569.02	1654.90
569.37	1657.75
569.72	1661.24
570.08	1663.92
570.43	1666.80
570.78	1668.68
571.14	1670.18
571.49	1672.03
571.84	1674.37
572.20	1676.06
572.55	1677.42
572.90	1678.04
573.26	1679.64
573.61	1680.29
573.96	1680.96
574.31	1681.17
574.67	1681.45
575.02	1681.91
575.37	1682.18
575.72	1681.72
576.08	1681.65
576.43	1681.51
576.78	1681.35
577.13	1681.05
577.49	1680.74
577.84	1680.14
578.19	1679.45
578.54	1678.42
578.90	1677.32
579.25	1675.29
579.60	1673.90
579.95	1672.24
580.30	1670.34
580.66	1668.20
581.01	1666.61
581.36	1665.29
581.71	1664.55
582.06	1663.01
582.42	1660.78
582.77	1658.35
583.12	1656.47
583.47	1654.38
583.82	1652.38
584.17	1649.78
584.53	1647.52
584.88	1645.50
585.23	1642.92
585.58	1640.78
585.93	1638.56
586.28	1636.16
586.63	1634.38
586.98	1632.07
587.34	1629.64
587.69	1627.74
588.04	1625.60
588.39	1622.89
588.74	1619.35
589.09	1615.62
589.44	1612.50
589.79	1609.68
590.14	1607.44
590.49	1604.66
590.84	1601.33
591.19	1598.10
591.54	1594.52
591.89	1590.02
592.25	1586.50
592.60	1582.37
592.95	1578.39
593.30	1574.47
593.65	1570.18
594.00	1565.92
594.35	1562.32
594.70	1557.95
595.05	1554.24
595.40	1550.15
595.75	1545.66
596.10	1542.10
596.45	1538.70
596.80	1535.10
597.15	1530.94
597.50	1526.60
597.85	1522.42
598.19	1518.62
598.54	1514.60
598.89	1510.91
599.24	1508.10
599.59	1503.71
599.94	1500.38
600.29	1496.39
600.64	1492.10
600.99	1487.71
601.34	1483.39
601.69	1478.47
602.04	1474.58
602.39	1469.80
602.74	1465.95
603.08	1462.22
603.43	1458.53
603.78	1454.10
604.13	1449.54
604.48	1445.48
604.83	1441.11
605.18	1437.07
605.53	1431.69
605.87	1426.40
606.22	1421.71
606.57	1416.18
606.92	1411.45
607.27	1406.47
607.62	1401.83
607.96	1397.61
608.31	1393.31
608.66	1388.20
609.01	1383.46
609.36	1377.88
609.70	1372.08
610.05	1366.04
610.40	1360.55
610.75	1354.10
611.10	1348.58
611.44	1342.17
611.79	1336.26
612.14	1330.75
612.49	1324.28
612.83	1318.73
613.18	1312.81
613.53	1307.08
613.88	1301.59
614.22	1295.73
614.57	1289.66
614.92	1283.67
615.27	1277.71
615.61	1271.62
615.96	1265.91
616.31	1259.97
616.65	1255.13
617.00	1249.78
617.35	1244.33
617.70	1238.33
618.04	1232.71
618.39	1226.78
618.74	1221.58
619.08	1215.48
619.43	1209.72
619.78	1204.60
620.12	1199.20
620.47	1193.79
620.82	1188.03
621.16	1182.53
621.51	1177.08
621.85	1171.48
622.20	1165.35
622.55	1159.73
622.89	1154.34
623.24	1149.13
623.59	1143.74
623.93	1137.91
624.28	1132.39
624.62	1126.98
624.97	1121.96
625.32	1116.74
625.66	1111.73
626.01	1106.57
626.35	1101.70
626.70	1096.22
627.04	1090.83
627.39	1085.14
627.73	1079.49
628.08	1074.25
628.43	1068.32
628.77	1062.80
629.12	1057.06
629.46	1052.03
629.81	1045.92
630.15	1039.87
630.50	1034.05
630.84	1028.08
631.19	1022.18
631.53	1016.67
631.88	1010.79
632.22	1004.64
632.57	999.15
632.91	992.90
633.26	987.05
633.60	980.85
633.95	975.11
634.29	969.41
634.64	964.43
634.98	958.75
635.32	953.49
635.67	948.83
636.01	943.44
636.36	938.09
636.70	932.96
637.05	928.21
637.39	923.51
637.73	918.65
638.08	914.18
638.42	909.41
638.77	904.53
639.11	899.76
639.45	895.09
639.80	890.21
640.14	885.75
640.49	880.90
640.83	876.39
641.17	871.63
641.52	866.94
641.86	861.93
642.20	857.67
642.55	852.81
642.89	847.63
643.23	842.70
643.58	838.51
643.92	833.60
644.26	828.95
644.61	824.40
644.95	819.81
645.29	814.54
645.64	809.38
645.98	804.59
646.32	799.87
646.66	795.07
647.01	790.30
647.35	785.64
647.69	781.08
648.04	776.28
648.38	771.47
648.72	766.33
649.06	761.35
649.41	756.61
649.75	751.62
650.09	746.89
650.43	742.27
650.78	737.26
651.12	732.57
651.46	727.79
651.80	723.08
652.14	718.51
652.49	714.15
652.83	710.06
653.17	705.51
653.51	700.81
653.85	696.27
654.20	691.85
654.54	687.21
654.88	682.61
655.22	677.89
655.56	673.07
655.90	668.88
656.25	664.69
656.59	660.53
656.93	656.38
657.27	652.28
657.61	647.75
657.95	643.92
658.29	639.89
658.64	635.57
658.98	631.34
659.32	627.03
659.66	622.98
660.00	618.63
660.34	614.75
660.68	610.98
661.02	606.96
661.36	603.00
661.70	599.04
662.05	595.40
662.39	592.20
662.73	588.80
663.07	585.32
663.41	581.89
663.75	578.34
664.09	574.79
664.43	571.06
664.77	567.90
665.11	564.26
665.45	560.73
665.79	557.45
666.13	553.90
666.47	550.53
666.81	546.96
667.15	543.56
667.49	540.18
667.83	537.08
668.17	534.06
668.51	530.85
668.85	528.00
669.19	525.01
669.53	521.89
669.87	518.77
670.21	515.81
670.55	512.77
670.89	509.90
671.23	507.20
671.57	504.63
671.91	501.81
672.25	499.06
672.58	496.42
672.92	493.81
673.26	491.38
673.60	488.72
673.94	486.29
674.28	483.99
674.62	481.67
674.96	478.98
675.30	476.40
675.64	474.03
675.97	471.50
676.31	469.04
676.65	466.71
676.99	464.81
677.33	462.25
677.67	459.81
678.01	457.35
678.34	454.94
678.68	452.65
679.02	450.32
679.36	448.18
679.70	446.02
680.04	443.80
680.37	441.65
680.71	439.39
681.05	437.37
681.39	435.31
681.73	433.06
682.06	431.10
682.40	429.21
682.74	427.13
683.08	425.31
683.42	423.35
683.75	421.27
684.09	419.00
684.43	417.27
684.77	415.30
685.10	413.45
685.44	411.56
685.78	409.82
686.12	408.07
686.45	406.07
686.79	404.14
687.13	402.48
687.46	400.52
687.80	398.73
688.14	396.91
688.48	395.12
688.81	393.31
689.15	391.52
689.49	389.68
689.82	387.92
690.16	385.92
690.50	384.08
690.83	382.36
691.17	380.68
691.51	378.70
691.84	377.17
692.18	375.41
692.52	373.57
692.85	371.60
693.19	369.97
693.52	368.56
693.86	366.88
694.20	365.05
694.53	363.62
694.87	362.05
695.21	360.44
695.54	358.95
695.88	357.21
696.21	355.67
696.55	354.14
696.88	352.58
697.22	351.11
697.56	349.80
697.89	348.27
698.23	346.80
698.56	345.31
698.90	343.78
699.23	342.19
699.57	340.91
699.90	339.50
700.24	338.17
700.58	336.66
700.91	335.33
701.25	334.18
701.58	332.80
701.92	331.52
702.25	330.27
702.59	328.87
702.92	327.76
703.26	326.45
703.59	325.32
703.93	324.32
704.26	323.15
704.60	321.95
704.93	320.85
705.26	319.70
705.60	318.81
705.93	317.90
706.27	317.06
706.60	316.15
706.94	315.24
707.27	313.96
707.61	312.91
707.94	311.89
708.27	310.71
708.61	309.67
708.94	308.81
709.28	307.87
709.61	307.02
709.94	306.16
710.28	305.40
710.61	304.40
710.95	303.40
711.28	302.68
711.61	301.81
711.95	300.91
712.28	299.88
712.61	298.99
712.95	298.15
713.28	297.19
713.61	296.23
713.95	295.47
714.28	294.79
714.61	294.02
714.95	293.32
715.28	292.61
715.61	291.88
715.95	291.15
716.28	290.37
716.61	289.64
716.95	289.00
717.28	288.30
717.61	287.66
717.94	287.08
718.28	286.38
718.61	285.58
718.94	284.96
719.27	284.57
719.61	283.96
719.94	283.32
720.27	282.76
720.60	282.17
720.94	281.56
721.27	280.95
721.60	280.43
721.93	280.00
722.27	279.40
722.60	278.77
722.93	278.09
723.26	277.66
723.59	277.14
723.93	276.53
724.26	275.98
724.59	275.42
724.92	274.79
725.25	274.32
725.59	274.02
725.92	273.50
726.25	273.04
726.58	272.64
726.91	272.08
727.24	271.72
727.57	271.28
727.91	270.74
728.24	270.38
728.57	269.82
728.90	269.24
729.23	268.78
729.56	268.58
729.89	268.24
730.22	267.71
730.55	267.30
730.89	266.90
731.22	266.49
731.55	266.12
731.88	265.69
732.21	265.16
732.54	264.61
732.87	264.28
733.20	263.75
733.53	263.45
733.86	263.23
734.19	262.74
734.52	262.33
734.85	262.10
735.18	261.70
735.51	261.46
735.84	261.10
736.17	260.81
736.50	260.27
736.83	260.21
737.16	259.81
737.49	259.43
737.82	259.04
738.15	258.74
738.48	258.34
738.81	258.10
739.14	257.69
739.47	257.31
739.80	256.99
740.13	256.65
740.46	256.19
740.79	255.74
741.12	255.40
741.45	255.08
741.78	254.80
742.11	254.46
742.44	254.07
742.77	253.77
743.10	253.37
743.43	253.09
743.75	252.44
744.08	252.47
744.41	252.17
744.74	251.91
745.07	251.60
745.40	251.40
745.73	251.16
746.06	251.08
746.39	250.80
746.71	250.59
747.04	250.34
747.37	250.07
747.70	249.88
748.03	249.59
748.36	249.35
748.68	248.92
749.01	248.69
749.34	248.40
749.67	248.14
750.00	247.98
750.33	247.90
750.65	247.73
750.98	247.22
751.31	247.03
751.64	246.85
751.97	246.69
752.29	246.46
752.62	246.06
752.95	245.72
753.28	245.52
753.60	245.25
753.93	245.15
754.26	244.90
754.59	244.70
754.91	244.49
755.24	244.38
755.57	244.26
755.90	244.09
756.22	244.04
756.55	243.85
756.88	243.64
757.20	243.32
757.53	243.07
757.86	242.96
758.19	242.84
758.51	242.66
758.84	242.45
759.17	242.26
759.49	242.19
759.82	242.18
760.15	242.09
760.47	242.02
760.80	241.77
761.13	241.77
761.45	241.57
761.78	241.53
762.11	241.30
762.43	241.24
762.76	241.15
763.08	240.95
763.41	240.84
763.74	240.72
764.06	240.65
764.39	240.66
764.71	240.56
765.04	240.39
765.37	240.34
765.69	240.30
766.02	240.28
766.34	240.29
766.67	240.03
767.00	240.02
767.32	239.97
767.65	239.98
767.97	239.74
768.30	239.65
768.62	239.53
768.95	239.39
769.27	239.24
769.60	239.21
769.92	239.10
770.25	239.01
770.57	238.93
770.90	238.89
771.22	238.64
771.55	238.52
771.87	238.44
772.20	238.19
772.52	238.08
772.85	238.18
773.17	238.00
773.50	237.95
773.82	237.75
774.15	237.53
774.47	237.45
774.80	237.34
775.12	237.26
775.45	237.16
775.77	237.10
776.09	236.93
776.42	236.80
776.74	236.69
777.07	236.56
777.39	236.39
777.72	236.15
778.04	236.04
778.36	235.91
778.69	235.71
779.01	235.60
779.33	235.34
779.66	234.91
779.98	234.96
780.31	234.87
780.63	234.86
780.95	234.81
781.28	234.62
781.60	234.52
781.92	234.35
782.25	234.24
782.57	234.17
782.89	234.15
783.22	233.93
783.54	233.73
783.86	233.63
784.19	233.60
784.51	233.49
784.83	233.45
785.16	233.24
785.48	233.16
785.80	233.09
786.12	233.14
786.45	233.12
786.77	232.86
787.09	232.75
787.42	232.66
787.74	232.52
788.06	232.42
788.38	232.40
788.71	232.35
789.03	232.34
789.35	232.28
789.67	232.10
789.99	232.20
790.32	232.13
790.64	232.08
790.96	232.26
791.28	232.32
791.61	232.32
791.93	232.36
792.25	232.33
792.57	232.50
792.89	232.28
793.21	232.21
793.54	232.28
793.86	232.21
794.18	232.18
794.50	232.07
794.82	232.07
795.14	232.09
795.47	232.15
795.79	232.19
796.11	232.11
796.43	232.14
796.75	231.98
797.07	232.11
797.39	232.16
797.71	231.95
798.04	231.94
798.36	231.90
798.68	231.93
799.00	232.04
799.32	231.90
799.64	232.01
799.96	232.09
800.28	232.03
800.60	232.03
800.92	232.00
801.24	232.04
801.56	231.98
801.89	232.03
802.21	232.10
802.53	232.06
802.85	232.13
803.17	232.29
803.49	232.40
803.81	232.29
804.13	232.30
804.45	232.17
804.77	232.09
805.09	232.10
805.41	232.07
805.73	231.95
806.05	231.95
806.37	232.09
806.69	231.97
807.01	231.98
807.33	232.05
807.65	232.00
807.97	232.16
808.28	232.16
808.60	232.07
808.92	231.93
809.24	231.94
809.56	231.93
809.88	231.78
810.20	231.62
810.52	231.69
810.84	231.61
811.16	231.71
811.48	231.70
811.80	231.67
812.12	231.62
812.43	231.58
812.75	231.53
813.07	231.30
813.39	231.30
813.71	231.22
814.03	231.19
814.35	231.10
814.67	230.97
814.98	230.97
815.30	230.95
815.62	230.82
815.94	230.60
816.26	230.64
816.58	230.57
816.89	230.60
817.21	230.50
817.53	230.41
817.85	230.34
818.17	230.24
818.48	230.17
818.80	230.16
819.12	230.15
819.44	230.04
819.76	230.04
820.07	230.00
820.39	230.05
820.71	230.00
821.03	230.07
821.34	230.00
821.66	229.96
821.98	229.87
822.30	229.94
822.61	230.06
822.93	229.86
823.25	229.86
823.57	229.72
823.88	229.74
824.20	229.74
824.52	229.68
824.83	229.60
825.15	229.44
825.47	229.50
825.79	229.45
826.10	229.42
826.42	229.44
826.74	229.42
827.05	229.39
827.37	229.28
827.69	229.11
828.00	229.20
828.32	229.14
828.64	229.11
828.95	229.14
829.27	229.09
829.58	229.16
829.90	229.10
830.22	229.13
830.53	229.17
830.85	229.18
831.17	229.16
831.48	229.22
831.80	229.37
832.11	229.20
832.43	229.23
832.75	229.26
833.06	229.30
833.38	229.24
833.69	229.09
834.01	229.04
834.32	229.09
834.64	229.00
834.96	229.02
835.27	228.95
835.59	228.85
835.90	228.78
836.22	228.72
836.53	228.75
836.85	228.81
837.16	228.88
837.48	228.86
837.79	228.88
838.11	228.85
838.42	228.88
838.74	228.94
839.05	228.89
839.37	228.93
839.68	228.79
840.00	228.86
840.31	229.00
840.63	229.12
840.94	229.16
841.26	229.08
841.57	229.05
841.88	229.23
842.20	229.30
842.51	229.36
842.83	229.40
843.14	229.65
843.46	229.71
843.77	229.61
844.08	229.62
844.40	229.59
844.71	229.63
845.03	229.56
845.34	229.62
845.65	229.61
845.97	229.66
846.28	229.71
846.60	229.58
846.91	229.57
847.22	229.59
847.54	229.51
847.85	229.53
848.16	229.52
848.48	229.46
848.79	229.53
849.10	229.49
849.42	229.45
849.73	229.16
850.04	229.05
850.36	228.95
850.67	228.97
850.98	229.10
851.30	229.08
851.61	229.01
851.92	229.02
852.23	229.04
852.55	228.85
852.86	228.77
853.17	228.85
853.49	228.75
853.80	228.70
854.11	228.81
854.42	228.81
854.74	228.78
855.05	228.72
855.36	228.55
855.67	228.56
855.99	228.52
856.30	228.80
856.61	228.80
856.92	228.81
857.23	228.76
857.55	228.65
857.86	228.60
858.17	228.72
858.48	228.62
858.79	228.54
859.11	228.71
859.42	228.74
859.73	228.74
860.04	228.75
860.35	228.74
860.66	228.68
860.98	228.75
861.29	228.83
861.60	228.91
861.91	228.90
862.22	228.86
862.53	228.78
862.84	228.52
863.16	228.50
863.47	228.45
863.78	228.41
864.09	228.45
864.40	228.53
864.71	228.44
865.02	228.52
865.33	228.59
865.64	228.55
865.95	228.55
866.27	228.61
866.58	228.60
866.89	228.57
867.20	228.57
867.51	228.52
867.82	228.41
868.13	228.37
868.44	228.39
868.75	228.40
869.06	228.48
869.37	228.51
869.68	228.51
869.99	228.55
870.30	228.58
870.61	228.53
870.92	228.39
871.23	228.32
871.54	228.28
871.85	228.26
872.16	228.29
872.47	228.41
872.78	228.37
873.09	228.51
873.40	228.51
873.71	228.41
874.02	228.42
874.33	228.53
874.64	228.55
874.95	228.56
875.26	228.48
875.56	228.38
875.87	228.28
876.18	228.35
876.49	228.56
876.80	228.53
877.11	228.51
877.42	228.56
877.73	228.68
878.04	228.74
878.35	228.77
878.66	228.74
878.96	228.61
879.27	228.54
879.58	228.37
879.89	228.39
880.20	228.58
880.51	228.61
880.82	228.55
881.12	228.61
881.43	228.66
881.74	228.75
882.05	228.92
882.36	229.03
882.67	228.98
882.97	228.76
883.28	228.67
883.59	228.65
883.90	228.68
884.21	228.67
884.51	228.63
884.82	228.61
885.13	228.57
885.44	228.54
885.74	228.55
886.05	228.60
886.36	228.55
886.67	228.43
886.98	228.50
887.28	228.58
887.59	228.47
887.90	228.53
888.20	228.49
888.51	228.51
888.82	228.51
889.13	228.58
889.43	228.70
889.74	228.77
890.05	228.81
890.35	228.80
890.66	228.72
890.97	228.67
891.28	228.70
891.58	228.74
891.89	228.74
892.20	228.82
892.50	228.90
892.81	228.86
893.12	228.85
893.42	228.70
893.73	228.61
894.04	228.67
894.34	228.68
894.65	228.73
894.95	228.66
895.26	228.60
895.57	228.60
895.87	228.43
896.18	228.47
896.48	228.46
896.79	228.48
897.10	228.51
897.40	228.53
897.71	228.57
898.01	228.47
898.32	228.51
898.63	228.43
898.93	228.32
899.24	228.37
899.54	228.36
899.85	228.40
900.15	228.44
900.46	228.50
900.76	228.33
901.07	228.26
901.38	228.20
901.68	228.13
901.99	228.06
902.29	228.10
902.60	228.13
902.90	228.16
903.21	228.18
903.51	228.19
903.82	228.18
904.12	228.12
904.43	228.24
904.73	228.18
905.03	228.18
905.34	228.40
905.64	228.33
905.95	228.36
906.25	228.31
906.56	228.31
906.86	228.13
907.17	228.19
907.47	228.19
907.77	228.30
908.08	228.40
908.38	228.39
908.69	228.39
908.99	228.39
909.30	228.30
909.60	228.27
909.90	228.29
910.21	228.31
910.51	228.34
910.81	228.30
911.12	228.35
911.42	228.35
911.73	228.17
912.03	228.24
912.33	228.30
912.64	228.37
912.94	228.31
913.24	228.30
913.55	228.32
913.85	228.30
914.15	228.27
914.46	228.28
914.76	228.24
915.06	228.26
915.37	228.20
915.67	228.24
915.97	228.23
916.27	228.25
916.58	228.27
916.88	228.25
917.18	228.09
917.49	228.19
917.79	228.18
918.09	228.14
918.39	228.21
918.70	228.21
919.00	228.19
919.30	228.32
919.60	228.47
919.91	228.43
920.21	228.52
920.51	228.43
920.81	228.38
921.12	228.49
921.42	228.42
921.72	228.42
922.02	228.49
922.32	228.52
922.63	228.47
922.93	228.60
923.23	228.61
923.53	228.71
923.83	228.69
924.13	228.78
924.44	228.77
924.74	228.78
925.04	228.85
925.34	228.83
925.64	228.71
925.94	228.66
926.24	228.80
926.55	228.66
926.85	228.78
927.15	228.78
927.45	228.87
927.75	228.88
928.05	228.93
928.35	228.88
928.65	228.92
928.95	228.90
929.26	228.78
929.56	228.89
929.86	228.97
930.16	228.84
930.46	228.91
930.76	229.03
931.06	229.01
931.36	228.97
931.66	229.03
931.96	229.08
932.26	229.06
932.56	229.00
932.86	229.11
933.16	229.06
933.46	229.01
933.76	228.87
934.06	228.90
934.36	228.96
934.66	228.99
934.96	228.98
935.26	229.12
935.56	229.12
935.86	229.05
936.16	229.00
936.46	229.00
936.76	228.92
937.06	228.87
937.36	228.93
937.66	228.79
937.96	228.72
938.26	228.70
938.56	228.74
938.86	228.67
939.16	228.63
939.46	228.67
939.76	228.73
940.06	228.81
940.35	228.81
940.65	228.71
940.95	228.66
941.25	228.56
941.55	228.46
941.85	228.41
942.15	228.37
942.45	228.47
942.75	228.47
943.04	228.41
943.34	228.36
943.64	228.21
943.94	228.22
944.24	228.23
944.54	228.16
944.84	228.11
945.13	228.06
945.43	228.05
945.73	228.06
946.03	228.05
946.33	228.01
946.62	228.00
946.92	227.99
947.22	228.09
947.52	228.20
947.82	228.11
948.11	228.09
948.41	228.04
948.71	227.92
949.01	228.04
949.31	228.13
949.60	228.10
949.90	228.06
950.20	228.04
950.50	228.06
950.79	228.05
951.09	228.03
951.39	228.02
951.69	228.03
951.98	228.00
952.28	228.03
952.58	227.95
952.87	227.91
953.17	227.95
953.47	227.93
953.76	227.82
954.06	227.87
954.36	227.83
954.66	227.84
954.95	227.86
955.25	227.84
955.55	227.78
955.84	227.81
956.14	227.89
956.44	227.87
956.73	227.81
957.03	227.83
957.32	227.85
957.62	227.96
957.92	228.06
958.21	228.08
958.51	228.25
958.81	228.41
959.10	228.56
959.40	228.61
959.69	228.56
959.99	228.62
960.29	228.62
960.58	228.72
960.88	228.94
961.17	228.95
961.47	228.99
961.76	228.94
962.06	228.99
962.36	229.06
962.65	229.12
962.95	229.19
963.24	229.22
963.54	229.18
963.83	229.19
964.13	229.21
964.42	229.15
964.72	229.07
965.01	228.98
965.31	228.96
965.60	228.85
965.90	228.98
966.19	229.04
966.49	229.06
966.78	229.01
967.08	228.85
967.37	228.87
967.67	228.81
967.96	228.90
968.26	228.96
968.55	228.94
968.85	228.90
969.14	229.00
969.43	229.06
969.73	229.12
970.02	229.07
970.32	229.13
970.61	229.21
970.91	229.20
971.20	229.29
971.49	229.28
971.79	229.35
972.08	229.25
972.38	229.22
972.67	229.16
972.96	229.23
973.26	229.21
973.55	229.34
973.85	229.33
974.14	229.35
974.43	229.32
974.73	229.22
975.02	229.27
975.31	229.19
975.61	229.12
975.90	229.16
976.19	229.20
976.49	229.15
976.78	229.04
977.07	229.07
977.37	229.02
977.66	228.93
977.95	228.86
978.24	228.77
978.54	228.86
978.83	228.86
979.12	228.68
979.42	228.63
979.71	228.53
980.00	228.52
980.29	228.45
980.59	228.36
980.88	228.48
981.17	228.43
981.46	228.36
981.76	228.38
982.05	228.40
982.34	228.37
982.63	228.25
982.93	228.18
983.22	228.07
983.51	228.04
983.80	228.06
984.09	228.12
984.39	228.18
984.68	228.06
984.97	228.15
985.26	228.19
985.55	228.28
985.85	228.22
986.14	228.15
986.43	228.10
986.72	228.05
987.01	227.96
987.30	227.95
987.59	227.84
987.89	227.75
988.18	227.61
988.47	227.59
988.76	227.56
989.05	227.63
989.34	227.60
989.63	227.61
989.92	227.50
990.22	227.45
990.51	227.39
990.80	227.38
991.09	227.36
991.38	227.42
991.67	227.30
991.96	227.34
992.25	227.37
992.54	227.34
992.83	227.48
993.12	227.40
993.41	227.43
993.70	227.55
993.99	227.67
994.28	227.70
994.58	227.61
994.87	227.64
995.16	227.58
995.45	227.68
995.74	227.56
996.03	227.79
996.32	227.83
996.61	227.92
996.90	227.85
997.19	227.90
997.48	227.88
997.77	227.93
998.06	227.83
998.34	227.86
998.63	227.86
998.92	227.74
999.21	227.75
999.50	227.78
999.79	227.77
1000.08	227.79
1000.37	227.79
1000.66	227.94
1000.95	227.95
1001.24	228.03
1001.53	227.98
1001.82	228.09
1002.11	228.00
1002.40	228.07
1002.68	228.14
1002.97	228.44
1003.26	228.38
1003.55	228.41
1003.84	228.52
1004.13	228.70
1004.42	228.69
1004.71	228.73
1004.99	228.78
1005.28	228.92
1005.57	228.93
1005.86	228.89
1006.15	228.84
1006.44	228.91
1006.72	228.93
1007.01	229.02
1007.30	229.06
1007.59	229.07
1007.88	229.09
1008.17	228.99
1008.45	228.89
1008.74	228.79
1009.03	228.66
1009.32	228.72
1009.60	228.77
1009.89	228.69
1010.18	228.57
1010.47	228.62
1010.76	228.72
1011.04	228.75
1011.33	228.87
1011.62	228.83
1011.91	228.94
1012.19	229.08
1012.48	229.05
1012.77	228.96
1013.05	229.00
1013.34	228.98
1013.63	228.90
1013.92	228.83
1014.20	228.87
1014.49	228.90
1014.78	228.87
1015.06	228.71
1015.35	228.66
1015.64	228.65
1015.92	228.59
1016.21	228.65
1016.50	228.61
1016.78	228.60
1017.07	228.53
1017.36	228.31
1017.64	228.32
1017.93	228.28
1018.22	228.18
1018.50	228.13
1018.79	228.10
1019.08	227.98
1019.36	227.91
1019.65	227.90
1019.93	228.00
1020.22	228.00
1020.51	228.11
1020.79	228.17
1021.08	228.40
1021.36	227.70
1021.65	226.60
1021.94	228.40
1022.22	227.30
1022.51	226.80
1022.79	229.80
1023.08	227.60
1023.36	230.80
1023.65	228.40
>>>>>End Processed Spectral Data<<<<<
