SpectraSuite Data File
++++++++++++++++++++++++++++++++++++
Date: Fri Feb 01 14:36:09 EST 2013
User: group
Dark Spectrum Present: No
Reference Spectrum Present: No
Number of Sampled Component Spectra: 1
Spectrometers: USB2E7196
Integration Time (usec): 70000 (USB2E7196)
Spectra Averaged: 10 (USB2E7196)
Boxcar Smoothing: 10 (USB2E7196)
Correct for Electrical Dark: No (USB2E7196)
Strobe/Lamp Enabled: No (USB2E7196)
Correct for Detector Non-linearity: No (USB2E7196)
Correct for Stray Light: No (USB2E7196)
Number of Pixels in Processed Spectrum: 2048
>>>>>Begin Processed Spectral Data<<<<<
339.09	0.00
339.48	216.40
339.86	217.30
340.24	218.30
340.63	221.10
341.01	224.20
341.39	224.30
341.78	224.60
342.16	227.90
342.54	225.10
342.93	214.98
343.31	225.82
343.69	226.39
344.07	226.87
344.46	227.40
344.84	227.75
345.22	227.90
345.60	228.09
345.99	228.38
346.37	228.38
346.75	228.50
347.13	228.44
347.52	228.48
347.90	228.49
348.28	228.39
348.66	228.40
349.05	228.34
349.43	228.36
349.81	228.44
350.19	228.55
350.57	228.63
350.96	228.70
351.34	228.77
351.72	228.77
352.10	228.85
352.48	228.80
352.87	228.78
353.25	228.85
353.63	228.91
354.01	228.90
354.39	229.06
354.77	229.18
355.15	229.29
355.54	229.31
355.92	229.30
356.30	229.39
356.68	229.48
357.06	229.60
357.44	229.61
357.82	229.67
358.20	229.69
358.58	229.65
358.97	229.69
359.35	229.76
359.73	229.86
360.11	229.87
360.49	229.93
360.87	229.99
361.25	230.12
361.63	230.17
362.01	230.20
362.39	230.13
362.77	230.15
363.15	230.10
363.53	230.14
363.91	230.13
364.29	230.16
364.67	230.05
365.05	229.94
365.43	229.95
365.81	229.90
366.19	230.00
366.57	230.10
366.95	230.06
367.33	230.01
367.71	230.00
368.09	230.04
368.47	229.96
368.85	229.91
369.23	229.91
369.61	229.90
369.99	229.82
370.37	229.84
370.75	229.89
371.13	229.80
371.51	229.70
371.89	229.65
372.27	229.64
372.65	229.60
373.03	229.69
373.41	229.53
373.78	229.44
374.16	229.27
374.54	229.16
374.92	229.06
375.30	228.95
375.68	228.89
376.06	228.79
376.44	228.73
376.82	228.71
377.19	228.54
377.57	228.41
377.95	228.27
378.33	228.13
378.71	227.93
379.09	227.92
379.47	227.90
379.84	227.81
380.22	227.63
380.60	227.58
380.98	227.36
381.36	227.45
381.73	227.34
382.11	227.33
382.49	227.08
382.87	226.96
383.25	226.87
383.62	226.99
384.00	226.82
384.38	226.84
384.76	226.80
385.13	226.82
385.51	226.76
385.89	226.79
386.27	226.79
386.64	226.78
387.02	226.70
387.40	226.63
387.78	226.74
388.15	226.78
388.53	226.74
388.91	226.72
389.29	226.62
389.66	226.64
390.04	226.54
390.42	226.69
390.79	226.77
391.17	226.83
391.55	226.59
391.92	226.73
392.30	226.73
392.68	226.69
393.05	226.70
393.43	226.69
393.81	226.65
394.18	226.63
394.56	226.65
394.94	226.77
395.31	226.73
395.69	226.76
396.06	226.83
396.44	226.87
396.82	226.99
397.19	227.12
397.57	227.21
397.95	227.36
398.32	227.43
398.70	227.52
399.07	227.64
399.45	227.74
399.82	227.74
400.20	227.82
400.58	227.95
400.95	228.03
401.33	228.23
401.70	228.46
402.08	228.56
402.45	228.80
402.83	229.02
403.20	229.29
403.58	229.41
403.95	229.60
404.33	229.88
404.71	230.01
405.08	230.40
405.46	230.68
405.83	230.99
406.21	231.32
406.58	231.70
406.96	232.01
407.33	232.31
407.70	232.78
408.08	233.34
408.45	233.85
408.83	234.25
409.20	234.71
409.58	235.14
409.95	235.68
410.33	236.15
410.70	236.53
411.08	237.10
411.45	237.78
411.82	238.33
412.20	238.90
412.57	239.91
412.95	240.48
413.32	241.26
413.69	242.11
414.07	243.01
414.44	243.75
414.82	244.80
415.19	245.98
415.56	247.17
415.94	248.21
416.31	249.43
416.68	250.79
417.06	252.22
417.43	253.61
417.81	255.27
418.18	257.00
418.55	258.96
418.93	260.85
419.30	262.80
419.67	264.96
420.04	267.21
420.42	269.34
420.79	271.92
421.16	274.60
421.54	277.18
421.91	279.98
422.28	283.01
422.66	286.12
423.03	289.20
423.40	292.23
423.77	295.62
424.15	299.03
424.52	302.53
424.89	306.42
425.26	310.24
425.64	313.79
426.01	317.58
426.38	321.55
426.75	325.66
427.13	329.80
427.50	334.35
427.87	339.00
428.24	343.59
428.61	347.99
428.99	352.71
429.36	357.93
429.73	363.12
430.10	368.28
430.47	373.39
430.85	378.68
431.22	384.35
431.59	390.26
431.96	396.07
432.33	402.40
432.70	408.47
433.08	415.70
433.45	422.48
433.82	429.12
434.19	436.75
434.56	444.28
434.93	451.46
435.30	458.35
435.68	466.31
436.05	474.07
436.42	481.57
436.79	488.36
437.16	495.67
437.53	503.36
437.90	511.07
438.27	518.68
438.64	526.52
439.01	534.02
439.38	540.68
439.75	546.94
440.13	554.24
440.50	561.12
440.87	566.72
441.24	572.56
441.61	579.21
441.98	583.97
442.35	589.69
442.72	595.25
443.09	601.06
443.46	604.41
443.83	606.82
444.20	609.29
444.57	612.68
444.94	614.75
445.31	616.71
445.68	618.61
446.05	620.08
446.42	620.26
446.79	620.17
447.16	620.06
447.53	620.40
447.90	618.30
448.27	616.26
448.64	613.14
449.01	611.35
449.37	607.10
449.74	602.88
450.11	597.51
450.48	592.02
450.85	586.17
451.22	581.29
451.59	576.65
451.96	572.28
452.33	566.00
452.70	560.21
453.07	553.47
453.43	546.47
453.80	539.45
454.17	532.94
454.54	526.70
454.91	519.90
455.28	513.12
455.65	507.12
456.02	500.94
456.38	495.45
456.75	488.50
457.12	482.79
457.49	477.19
457.86	471.85
458.23	467.08
458.59	461.74
458.96	456.32
459.33	451.67
459.70	446.83
460.07	443.14
460.43	438.73
460.80	434.35
461.17	430.52
461.54	426.70
461.91	422.88
462.27	419.02
462.64	415.81
463.01	412.21
463.38	408.55
463.74	404.98
464.11	401.83
464.48	399.20
464.85	396.23
465.21	394.01
465.58	391.40
465.95	388.41
466.32	386.01
466.68	383.72
467.05	381.15
467.42	378.65
467.78	375.92
468.15	373.55
468.52	371.71
468.88	369.35
469.25	367.20
469.62	365.42
469.98	363.54
470.35	361.61
470.72	360.02
471.08	358.40
471.45	356.85
471.82	355.42
472.18	353.66
472.55	352.42
472.92	350.95
473.28	349.61
473.65	348.30
474.02	346.87
474.38	345.76
474.75	344.75
475.11	343.70
475.48	342.79
475.85	342.05
476.21	341.21
476.58	340.53
476.94	339.83
477.31	339.21
477.67	338.48
478.04	337.88
478.41	337.30
478.77	336.85
479.14	336.40
479.50	335.92
479.87	335.77
480.23	335.47
480.60	335.14
480.96	334.99
481.33	334.99
481.69	334.90
482.06	334.74
482.42	334.56
482.79	334.54
483.15	334.67
483.52	334.97
483.88	335.25
484.25	335.56
484.61	335.80
484.98	336.14
485.34	336.56
485.71	337.12
486.07	337.71
486.44	338.07
486.80	338.52
487.17	339.26
487.53	339.94
487.90	340.82
488.26	341.68
488.62	342.67
488.99	343.50
489.35	344.41
489.72	345.30
490.08	346.53
490.44	347.63
490.81	348.90
491.17	349.86
491.54	350.94
491.90	352.06
492.26	353.40
492.63	354.68
492.99	356.04
493.36	357.44
493.72	358.82
494.08	360.49
494.45	362.27
494.81	363.81
495.17	365.38
495.54	367.00
495.90	368.60
496.26	369.95
496.63	371.80
496.99	373.70
497.35	375.70
497.72	377.50
498.08	379.13
498.44	380.73
498.80	382.83
499.17	384.69
499.53	386.50
499.89	388.41
500.26	390.12
500.62	391.95
500.98	393.90
501.34	395.82
501.71	397.61
502.07	399.32
502.43	401.00
502.79	402.78
503.16	404.30
503.52	405.96
503.88	407.61
504.24	409.21
504.60	410.87
504.97	412.35
505.33	413.83
505.69	415.60
506.05	417.44
506.41	418.70
506.78	420.20
507.14	421.74
507.50	423.03
507.86	424.47
508.22	425.70
508.59	426.61
508.95	427.77
509.31	428.77
509.67	429.80
510.03	430.97
510.39	431.91
510.75	433.07
511.12	433.89
511.48	434.91
511.84	435.63
512.20	436.30
512.56	437.14
512.92	437.90
513.28	438.50
513.64	438.92
514.00	439.45
514.37	440.04
514.73	440.47
515.09	440.98
515.45	441.50
515.81	441.93
516.17	442.44
516.53	442.74
516.89	443.14
517.25	443.57
517.61	443.71
517.97	443.91
518.33	444.15
518.69	444.57
519.05	444.97
519.41	445.48
519.77	446.01
520.13	446.36
520.49	446.72
520.85	446.96
521.21	447.47
521.57	448.04
521.93	448.36
522.29	448.82
522.65	449.33
523.01	449.68
523.37	450.20
523.73	450.70
524.09	451.28
524.45	451.91
524.81	452.51
525.17	453.45
525.53	454.42
525.89	455.27
526.25	456.22
526.61	456.90
526.97	457.63
527.33	458.38
527.68	459.47
528.04	460.44
528.40	461.52
528.76	462.59
529.12	463.75
529.48	464.99
529.84	466.21
530.20	467.58
530.56	469.21
530.91	470.97
531.27	472.59
531.63	474.28
531.99	475.84
532.35	477.68
532.71	479.45
533.07	481.21
533.42	483.23
533.78	485.03
534.14	487.17
534.50	489.31
534.86	491.54
535.21	493.30
535.57	495.74
535.93	498.24
536.29	500.67
536.65	503.17
537.00	505.79
537.36	508.39
537.72	511.00
538.08	513.58
538.44	516.08
538.79	518.95
539.15	521.82
539.51	524.87
539.87	527.96
540.22	531.00
540.58	534.04
540.94	536.88
541.29	540.08
541.65	543.19
542.01	546.76
542.37	550.18
542.72	553.67
543.08	556.97
543.44	560.37
543.79	563.83
544.15	567.25
544.51	570.94
544.87	574.73
545.22	578.37
545.58	582.03
545.94	585.80
546.29	589.67
546.65	593.19
547.01	596.94
547.36	600.54
547.72	604.30
548.07	608.10
548.43	612.01
548.79	615.79
549.14	619.59
549.50	622.96
549.86	626.59
550.21	630.67
550.57	634.49
550.92	638.21
551.28	641.88
551.64	645.88
551.99	649.60
552.35	653.32
552.70	657.17
553.06	661.21
553.41	665.24
553.77	669.17
554.13	673.21
554.48	677.36
554.84	681.25
555.19	684.99
555.55	688.95
555.90	692.73
556.26	696.50
556.61	700.39
556.97	704.27
557.32	708.27
557.68	712.06
558.03	716.14
558.39	720.16
558.74	724.16
559.10	727.96
559.45	731.60
559.81	735.60
560.16	739.32
560.52	743.11
560.87	746.78
561.23	750.03
561.58	753.93
561.94	757.28
562.29	760.83
562.64	764.51
563.00	767.91
563.35	771.74
563.71	775.71
564.06	779.59
564.42	783.28
564.77	786.88
565.12	790.39
565.48	793.85
565.83	797.31
566.19	800.81
566.54	804.01
566.89	807.50
567.25	810.76
567.60	814.33
567.96	817.48
568.31	820.64
568.66	823.72
569.02	826.50
569.37	829.45
569.72	832.22
570.08	835.10
570.43	837.89
570.78	840.31
571.14	842.63
571.49	844.70
571.84	847.18
572.20	849.40
572.55	851.60
572.90	853.58
573.26	855.67
573.61	857.55
573.96	859.48
574.31	861.00
574.67	862.30
575.02	863.71
575.37	864.99
575.72	866.00
576.08	867.74
576.43	868.93
576.78	870.60
577.13	872.19
577.49	873.39
577.84	874.68
578.19	876.08
578.54	877.03
578.90	878.29
579.25	878.98
579.60	879.58
579.95	880.21
580.30	881.13
580.66	881.80
581.01	882.22
581.36	882.67
581.71	883.59
582.06	884.31
582.42	884.69
582.77	885.23
583.12	885.68
583.47	886.22
583.82	886.89
584.17	886.36
584.53	886.49
584.88	886.38
585.23	886.32
585.58	886.38
585.93	886.48
586.28	886.74
586.63	886.79
586.98	886.71
587.34	886.76
587.69	886.20
588.04	885.81
588.39	886.14
588.74	885.75
589.09	885.11
589.44	884.65
589.79	884.12
590.14	883.86
590.49	883.66
590.84	882.74
591.19	882.08
591.54	881.65
591.89	880.24
592.25	879.72
592.60	878.58
592.95	877.26
593.30	876.05
593.65	874.47
594.00	873.40
594.35	872.99
594.70	871.62
595.05	870.62
595.40	869.50
595.75	867.69
596.10	866.74
596.45	865.81
596.80	864.81
597.15	863.49
597.50	862.08
597.85	860.65
598.19	859.77
598.54	858.26
598.89	857.01
599.24	856.36
599.59	854.94
599.94	853.88
600.29	852.53
600.64	851.10
600.99	849.61
601.34	848.25
601.69	846.05
602.04	844.38
602.39	842.64
602.74	841.19
603.08	840.06
603.43	838.37
603.78	836.73
604.13	835.00
604.48	833.45
604.83	831.83
605.18	830.30
605.53	828.10
605.87	826.17
606.22	824.39
606.57	822.13
606.92	820.18
607.27	818.39
607.62	816.83
607.96	815.20
608.31	813.24
608.66	810.96
609.01	809.00
609.36	806.94
609.70	804.87
610.05	802.25
610.40	799.97
610.75	797.53
611.10	795.00
611.44	792.17
611.79	789.92
612.14	787.08
612.49	783.97
612.83	781.25
613.18	778.65
613.53	775.90
613.88	773.44
614.22	770.74
614.57	767.94
614.92	765.02
615.27	762.50
615.61	759.96
615.96	757.48
616.31	754.82
616.65	752.60
617.00	750.13
617.35	747.77
617.70	744.91
618.04	742.19
618.39	739.51
618.74	737.20
619.08	734.11
619.43	731.72
619.78	729.45
620.12	726.93
620.47	724.56
620.82	721.80
621.16	719.08
621.51	716.57
621.85	713.85
622.20	710.98
622.55	708.14
622.89	705.74
623.24	703.40
623.59	700.81
623.93	698.37
624.28	695.71
624.62	693.20
624.97	690.77
625.32	688.49
625.66	686.05
626.01	683.39
626.35	681.26
626.70	678.65
627.04	676.04
627.39	673.36
627.73	670.61
628.08	668.29
628.43	665.91
628.77	663.47
629.12	660.88
629.46	658.55
629.81	655.88
630.15	653.24
630.50	650.47
630.84	647.68
631.19	644.63
631.53	642.00
631.88	639.18
632.22	636.40
632.57	633.90
632.91	631.37
633.26	628.91
633.60	626.03
633.95	623.38
634.29	621.00
634.64	618.77
634.98	616.19
635.32	613.78
635.67	611.45
636.01	608.84
636.36	606.63
636.70	604.37
637.05	602.25
637.39	599.85
637.73	597.44
638.08	595.63
638.42	593.30
638.77	591.14
639.11	588.96
639.45	586.70
639.80	584.29
640.14	581.68
640.49	579.30
640.83	577.02
641.17	574.70
641.52	572.27
641.86	569.69
642.20	567.60
642.55	565.05
642.89	562.55
643.23	560.09
643.58	557.88
643.92	555.28
644.26	552.77
644.61	550.46
644.95	548.40
645.29	545.53
645.64	543.27
645.98	540.62
646.32	538.44
646.66	535.94
647.01	533.62
647.35	531.54
647.69	529.32
648.04	527.19
648.38	525.01
648.72	522.49
649.06	520.14
649.41	517.69
649.75	515.36
650.09	512.98
650.43	510.76
650.78	508.18
651.12	505.85
651.46	503.57
651.80	501.32
652.14	498.68
652.49	496.69
652.83	494.44
653.17	492.21
653.51	489.63
653.85	487.41
654.20	484.97
654.54	482.44
654.88	480.04
655.22	477.51
655.56	475.18
655.90	473.06
656.25	470.97
656.59	468.95
656.93	466.94
657.27	464.96
657.61	462.75
657.95	460.80
658.29	458.63
658.64	456.48
658.98	454.28
659.32	452.20
659.66	450.20
660.00	448.02
660.34	446.11
660.68	444.31
661.02	442.29
661.36	440.42
661.70	438.64
662.05	436.80
662.39	435.17
662.73	433.21
663.07	431.53
663.41	429.82
663.75	427.90
664.09	426.09
664.43	424.20
664.77	422.58
665.11	420.74
665.45	419.08
665.79	417.30
666.13	415.42
666.47	413.64
666.81	411.64
667.15	409.89
667.49	408.31
667.83	406.49
668.17	404.86
668.51	403.09
668.85	401.40
669.19	399.80
669.53	398.06
669.87	396.54
670.21	394.98
670.55	393.36
670.89	391.99
671.23	390.47
671.57	388.89
671.91	387.30
672.25	386.06
672.58	384.80
672.92	383.41
673.26	382.22
673.60	380.97
673.94	379.76
674.28	378.71
674.62	377.39
674.96	376.19
675.30	374.94
675.64	373.75
675.97	372.53
676.31	371.27
676.65	370.00
676.99	368.87
677.33	367.40
677.67	366.08
678.01	364.56
678.34	363.39
678.68	362.23
679.02	361.01
679.36	359.70
679.70	358.35
680.04	357.10
680.37	355.85
680.71	354.61
681.05	353.59
681.39	352.21
681.73	350.98
682.06	349.85
682.40	348.76
682.74	347.83
683.08	346.71
683.42	345.55
683.75	344.46
684.09	343.22
684.43	342.32
684.77	341.31
685.10	340.37
685.44	339.21
685.78	338.11
686.12	337.18
686.45	336.03
686.79	335.01
687.13	334.04
687.46	333.01
687.80	331.94
688.14	330.66
688.48	329.63
688.81	328.52
689.15	327.57
689.49	326.56
689.82	325.31
690.16	324.33
690.50	323.37
690.83	322.44
691.17	321.58
691.51	320.60
691.84	319.57
692.18	318.60
692.52	317.72
692.85	316.87
693.19	315.95
693.52	315.08
693.86	314.16
694.20	313.31
694.53	312.41
694.87	311.52
695.21	310.68
695.54	309.75
695.88	308.87
696.21	307.87
696.55	307.00
696.88	306.07
697.22	305.28
697.56	304.52
697.89	303.60
698.23	302.73
698.56	301.96
698.90	301.21
699.23	300.41
699.57	299.52
699.90	298.63
700.24	297.73
700.58	296.90
700.91	296.19
701.25	295.43
701.58	294.88
701.92	294.22
702.25	293.57
702.59	292.99
702.92	292.39
703.26	291.76
703.59	291.13
703.93	290.78
704.26	290.03
704.60	289.33
704.93	288.82
705.26	288.13
705.60	287.38
705.93	286.78
706.27	286.18
706.60	285.56
706.94	285.17
707.27	284.53
707.61	283.86
707.94	283.22
708.27	282.59
708.61	281.83
708.94	281.18
709.28	280.58
709.61	280.08
709.94	279.50
710.28	278.92
710.61	278.35
710.95	277.66
711.28	277.22
711.61	276.67
711.95	276.19
712.28	275.61
712.61	275.18
712.95	274.76
713.28	274.26
713.61	273.86
713.95	273.23
714.28	272.88
714.61	272.43
714.95	271.91
715.28	271.38
715.61	270.80
715.95	270.37
716.28	270.10
716.61	269.73
716.95	269.34
717.28	268.91
717.61	268.42
717.94	267.94
718.28	267.24
718.61	266.80
718.94	266.30
719.27	265.95
719.61	265.55
719.94	265.09
720.27	264.72
720.60	264.25
720.94	263.96
721.27	263.64
721.60	263.39
721.93	263.16
722.27	262.94
722.60	262.68
722.93	262.51
723.26	262.00
723.59	261.52
723.93	261.17
724.26	260.81
724.59	260.41
724.92	260.11
725.25	260.00
725.59	259.67
725.92	259.35
726.25	259.06
726.58	258.81
726.91	258.60
727.24	258.28
727.57	258.14
727.91	257.80
728.24	257.50
728.57	257.17
728.90	256.92
729.23	256.57
729.56	256.48
729.89	256.10
730.22	255.83
730.55	255.53
730.89	255.22
731.22	255.04
731.55	254.76
731.88	254.48
732.21	254.11
732.54	253.85
732.87	253.61
733.20	253.34
733.53	253.02
733.86	252.75
734.19	252.48
734.52	252.12
734.85	251.98
735.18	251.64
735.51	251.41
735.84	250.99
736.17	250.84
736.50	250.39
736.83	250.35
737.16	250.11
737.49	249.94
737.82	249.74
738.15	249.48
738.48	249.26
738.81	249.06
739.14	248.90
739.47	248.75
739.80	248.50
740.13	248.29
740.46	248.00
740.79	247.62
741.12	247.45
741.45	247.27
741.78	246.95
742.11	246.81
742.44	246.61
742.77	246.45
743.10	246.18
743.43	245.98
743.75	245.56
744.08	245.66
744.41	245.36
744.74	245.22
745.07	244.96
745.40	244.92
745.73	244.72
746.06	244.57
746.39	244.45
746.71	244.30
747.04	244.15
747.37	244.07
747.70	243.98
748.03	243.81
748.36	243.64
748.68	243.43
749.01	243.27
749.34	243.08
749.67	242.96
750.00	242.86
750.33	242.93
750.65	242.78
750.98	242.24
751.31	242.16
751.64	242.02
751.97	242.10
752.29	241.92
752.62	241.84
752.95	241.75
753.28	241.50
753.60	241.29
753.93	241.21
754.26	241.01
754.59	240.83
754.91	240.67
755.24	240.50
755.57	240.43
755.90	240.26
756.22	240.17
756.55	240.05
756.88	239.89
757.20	239.58
757.53	239.42
757.86	239.50
758.19	239.43
758.51	239.19
758.84	238.92
759.17	238.78
759.49	238.61
759.82	238.52
760.15	238.42
760.47	238.35
760.80	238.15
761.13	238.12
761.45	238.04
761.78	237.89
762.11	237.87
762.43	237.70
762.76	237.73
763.08	237.69
763.41	237.62
763.74	237.44
764.06	237.33
764.39	237.27
764.71	237.10
765.04	236.97
765.37	236.91
765.69	236.88
766.02	236.84
766.34	236.77
766.67	236.66
767.00	236.63
767.32	236.59
767.65	236.57
767.97	236.41
768.30	236.27
768.62	236.22
768.95	236.06
769.27	235.97
769.60	235.80
769.92	235.61
770.25	235.47
770.57	235.43
770.90	235.35
771.22	235.30
771.55	235.25
771.87	235.20
772.20	235.18
772.52	235.21
772.85	235.35
773.17	235.38
773.50	235.16
773.82	235.03
774.15	234.94
774.47	234.83
774.80	234.76
775.12	234.81
775.45	234.84
775.77	234.77
776.09	234.75
776.42	234.72
776.74	234.80
777.07	234.75
777.39	234.65
777.72	234.51
778.04	234.48
778.36	234.37
778.69	234.30
779.01	234.22
779.33	233.94
779.66	233.64
779.98	233.43
780.31	233.50
780.63	233.50
780.95	233.50
781.28	233.43
781.60	233.46
781.92	233.39
782.25	233.25
782.57	233.24
782.89	233.15
783.22	233.10
783.54	232.92
783.86	232.82
784.19	232.85
784.51	232.95
784.83	232.83
785.16	232.78
785.48	232.77
785.80	232.70
786.12	232.71
786.45	232.69
786.77	232.63
787.09	232.57
787.42	232.40
787.74	232.30
788.06	232.23
788.38	232.18
788.71	232.08
789.03	231.98
789.35	231.92
789.67	231.93
789.99	231.79
790.32	231.73
790.64	231.84
790.96	231.96
791.28	231.80
791.61	231.74
791.93	231.69
792.25	231.58
792.57	231.60
792.89	231.54
793.21	231.52
793.54	231.41
793.86	231.27
794.18	231.32
794.50	231.23
794.82	231.08
795.14	231.07
795.47	231.06
795.79	231.06
796.11	230.95
796.43	230.79
796.75	230.77
797.07	230.78
797.39	230.71
797.71	230.52
798.04	230.44
798.36	230.40
798.68	230.40
799.00	230.40
799.32	230.24
799.64	230.20
799.96	230.15
800.28	230.32
800.60	230.38
800.92	230.36
801.24	230.31
801.56	230.45
801.89	230.36
802.21	230.35
802.53	230.35
802.85	230.34
803.17	230.47
803.49	230.46
803.81	230.40
804.13	230.33
804.45	230.23
804.77	230.27
805.09	230.20
805.41	230.13
805.73	230.15
806.05	230.19
806.37	230.18
806.69	230.08
807.01	230.07
807.33	229.96
807.65	229.86
807.97	230.00
808.28	229.97
808.60	229.95
808.92	229.94
809.24	230.10
809.56	230.21
809.88	230.13
810.20	230.15
810.52	230.23
810.84	230.17
811.16	230.16
811.48	230.15
811.80	230.30
812.12	230.29
812.43	230.24
812.75	230.27
813.07	230.33
813.39	230.41
813.71	230.31
814.03	230.36
814.35	230.30
814.67	230.13
814.98	230.08
815.30	230.01
815.62	229.94
815.94	229.70
816.26	229.68
816.58	229.61
816.89	229.51
817.21	229.39
817.53	229.45
817.85	229.44
818.17	229.44
818.48	229.35
818.80	229.33
819.12	229.31
819.44	229.21
819.76	229.14
820.07	229.12
820.39	229.12
820.71	229.10
821.03	229.21
821.34	229.28
821.66	229.34
821.98	229.37
822.30	229.44
822.61	229.59
822.93	229.50
823.25	229.54
823.57	229.63
823.88	229.64
824.20	229.58
824.52	229.60
824.83	229.57
825.15	229.50
825.47	229.48
825.79	229.50
826.10	229.53
826.42	229.46
826.74	229.42
827.05	229.41
827.37	229.53
827.69	229.56
828.00	229.47
828.32	229.39
828.64	229.41
828.95	229.41
829.27	229.38
829.58	229.30
829.90	229.31
830.22	229.31
830.53	229.30
830.85	229.38
831.17	229.36
831.48	229.40
831.80	229.43
832.11	229.55
832.43	229.55
832.75	229.46
833.06	229.60
833.38	229.50
833.69	229.40
834.01	229.26
834.32	229.15
834.64	229.22
834.96	229.33
835.27	229.39
835.59	229.36
835.90	229.23
836.22	229.22
836.53	229.19
836.85	229.08
837.16	229.22
837.48	229.16
837.79	229.21
838.11	229.25
838.42	229.25
838.74	229.19
839.05	229.14
839.37	229.19
839.68	229.08
840.00	229.03
840.31	229.03
840.63	229.07
840.94	229.12
841.26	229.06
841.57	229.01
841.88	228.94
842.20	228.77
842.51	228.78
842.83	228.84
843.14	228.94
843.46	229.00
843.77	228.90
844.08	228.95
844.40	228.81
844.71	228.76
845.03	228.77
845.34	228.70
845.65	228.71
845.97	228.71
846.28	228.67
846.60	228.90
846.91	228.94
847.22	228.91
847.54	228.87
847.85	228.90
848.16	228.88
848.48	228.77
848.79	228.99
849.10	229.04
849.42	229.06
849.73	229.02
850.04	228.95
850.36	228.91
850.67	228.83
850.98	228.91
851.30	228.96
851.61	228.93
851.92	228.91
852.23	228.94
852.55	228.97
852.86	229.04
853.17	228.85
853.49	228.87
853.80	228.98
854.11	229.00
854.42	229.04
854.74	228.92
855.05	228.94
855.36	228.86
855.67	228.78
855.99	228.76
856.30	228.95
856.61	228.95
856.92	228.97
857.23	229.06
857.55	228.96
857.86	228.97
858.17	228.97
858.48	229.02
858.79	228.94
859.11	228.96
859.42	228.90
859.73	228.97
860.04	229.04
860.35	228.89
860.66	228.91
860.98	228.90
861.29	228.97
861.60	228.99
861.91	229.02
862.22	229.07
862.53	229.05
862.84	228.70
863.16	228.72
863.47	228.68
863.78	228.71
864.09	228.77
864.40	228.73
864.71	228.75
865.02	228.64
865.33	228.74
865.64	228.67
865.95	228.67
866.27	228.76
866.58	228.65
866.89	228.62
867.20	228.58
867.51	228.54
867.82	228.55
868.13	228.65
868.44	228.57
868.75	228.70
869.06	228.60
869.37	228.78
869.68	228.84
869.99	228.92
870.30	228.96
870.61	228.96
870.92	228.89
871.23	228.89
871.54	229.11
871.85	229.08
872.16	229.10
872.47	229.12
872.78	228.91
873.09	229.01
873.40	228.99
873.71	228.93
874.02	228.96
874.33	228.99
874.64	228.90
874.95	228.93
875.26	228.77
875.56	228.81
875.87	228.78
876.18	228.68
876.49	228.74
876.80	228.56
877.11	228.58
877.42	228.59
877.73	228.59
878.04	228.44
878.35	228.47
878.66	228.46
878.96	228.40
879.27	228.42
879.58	228.35
879.89	228.43
880.20	228.56
880.51	228.56
880.82	228.50
881.12	228.51
881.43	228.47
881.74	228.37
882.05	228.26
882.36	228.21
882.67	228.28
882.97	228.20
883.28	228.20
883.59	228.31
883.90	228.39
884.21	228.41
884.51	228.37
884.82	228.25
885.13	228.29
885.44	228.30
885.74	228.32
886.05	228.27
886.36	228.23
886.67	228.20
886.98	228.20
887.28	228.15
887.59	228.16
887.90	228.21
888.20	228.29
888.51	228.47
888.82	228.44
889.13	228.40
889.43	228.44
889.74	228.41
890.05	228.32
890.35	228.24
890.66	228.20
890.97	228.15
891.28	228.22
891.58	228.20
891.89	228.28
892.20	228.22
892.50	228.20
892.81	228.11
893.12	227.98
893.42	227.92
893.73	227.96
894.04	227.97
894.34	227.97
894.65	227.92
894.95	227.80
895.26	227.80
895.57	227.88
895.87	227.78
896.18	227.91
896.48	227.77
896.79	227.74
897.10	227.84
897.40	227.83
897.71	227.82
898.01	227.81
898.32	227.77
898.63	227.82
898.93	227.85
899.24	227.91
899.54	228.02
899.85	228.00
900.15	227.94
900.46	227.95
900.76	227.94
901.07	227.92
901.38	227.91
901.68	227.92
901.99	227.88
902.29	227.81
902.60	227.62
902.90	227.69
903.21	227.69
903.51	227.58
903.82	227.68
904.12	227.65
904.43	227.65
904.73	227.65
905.03	227.71
905.34	227.81
905.64	227.89
905.95	227.79
906.25	227.87
906.56	227.98
906.86	228.02
907.17	227.95
907.47	228.09
907.77	228.15
908.08	228.23
908.38	228.14
908.69	228.18
908.99	228.24
909.30	228.28
909.60	228.30
909.90	228.35
910.21	228.30
910.51	228.27
910.81	228.28
911.12	228.35
911.42	228.26
911.73	228.18
912.03	228.20
912.33	228.29
912.64	228.24
912.94	228.15
913.24	228.16
913.55	228.23
913.85	228.17
914.15	228.20
914.46	228.12
914.76	228.22
915.06	228.25
915.37	228.35
915.67	228.42
915.97	228.51
916.27	228.51
916.58	228.67
916.88	228.70
917.18	228.76
917.49	228.83
917.79	228.94
918.09	229.01
918.39	229.02
918.70	228.98
919.00	229.03
919.30	229.20
919.60	229.08
919.91	229.14
920.21	229.13
920.51	229.27
920.81	229.23
921.12	229.24
921.42	229.29
921.72	229.18
922.02	229.08
922.32	229.08
922.63	229.05
922.93	229.07
923.23	229.12
923.53	229.12
923.83	229.07
924.13	229.14
924.44	229.16
924.74	229.21
925.04	229.38
925.34	229.34
925.64	229.23
925.94	229.35
926.24	229.42
926.55	229.40
926.85	229.32
927.15	229.38
927.45	229.32
927.75	229.24
928.05	229.36
928.35	229.45
928.65	229.49
928.95	229.50
929.26	229.30
929.56	229.25
929.86	229.20
930.16	229.12
930.46	229.03
930.76	228.86
931.06	228.74
931.36	228.63
931.66	228.63
931.96	228.60
932.26	228.52
932.56	228.36
932.86	228.28
933.16	228.20
933.46	228.13
933.76	228.08
934.06	228.04
934.36	228.12
934.66	228.08
934.96	228.01
935.26	228.04
935.56	228.12
935.86	228.01
936.16	227.95
936.46	227.95
936.76	227.94
937.06	228.05
937.36	228.05
937.66	228.04
937.96	227.97
938.26	227.88
938.56	227.85
938.86	227.92
939.16	227.95
939.46	228.04
939.76	228.10
940.06	228.07
940.35	228.10
940.65	227.85
940.95	227.74
941.25	227.71
941.55	227.65
941.85	227.62
942.15	227.70
942.45	227.77
942.75	227.67
943.04	227.67
943.34	227.61
943.64	227.68
943.94	227.57
944.24	227.57
944.54	227.53
944.84	227.54
945.13	227.51
945.43	227.52
945.73	227.39
946.03	227.23
946.33	227.28
946.62	227.33
946.92	227.39
947.22	227.45
947.52	227.37
947.82	227.35
948.11	227.35
948.41	227.35
948.71	227.31
949.01	227.41
949.31	227.39
949.60	227.40
949.90	227.47
950.20	227.60
950.50	227.74
950.79	227.75
951.09	227.76
951.39	227.71
951.69	227.78
951.98	227.90
952.28	228.03
952.58	228.08
952.87	228.07
953.17	228.17
953.47	228.18
953.76	228.25
954.06	228.33
954.36	228.30
954.66	228.36
954.95	228.36
955.25	228.46
955.55	228.49
955.84	228.47
956.14	228.51
956.44	228.44
956.73	228.41
957.03	228.50
957.32	228.53
957.62	228.60
957.92	228.66
958.21	228.68
958.51	228.93
958.81	228.93
959.10	228.91
959.40	228.98
959.69	229.03
959.99	229.02
960.29	228.91
960.58	228.97
960.88	229.06
961.17	229.16
961.47	229.10
961.76	229.04
962.06	229.12
962.36	228.92
962.65	228.90
962.95	228.85
963.24	228.83
963.54	228.83
963.83	228.83
964.13	228.85
964.42	228.69
964.72	228.52
965.01	228.50
965.31	228.46
965.60	228.32
965.90	228.43
966.19	228.40
966.49	228.44
966.78	228.48
967.08	228.40
967.37	228.26
967.67	228.23
967.96	228.26
968.26	228.15
968.55	228.17
968.85	228.15
969.14	228.09
969.43	228.06
969.73	228.04
970.02	227.92
970.32	227.82
970.61	227.81
970.91	227.77
971.20	227.69
971.49	227.74
971.79	227.71
972.08	227.48
972.38	227.48
972.67	227.41
972.96	227.36
973.26	227.32
973.55	227.37
973.85	227.33
974.14	227.30
974.43	227.30
974.73	227.37
975.02	227.35
975.31	227.36
975.61	227.33
975.90	227.35
976.19	227.40
976.49	227.46
976.78	227.44
977.07	227.37
977.37	227.43
977.66	227.40
977.95	227.47
978.24	227.46
978.54	227.60
978.83	227.62
979.12	227.59
979.42	227.65
979.71	227.66
980.00	227.59
980.29	227.61
980.59	227.60
980.88	227.59
981.17	227.63
981.46	227.68
981.76	227.72
982.05	227.72
982.34	227.73
982.63	227.65
982.93	227.68
983.22	227.79
983.51	227.74
983.80	227.78
984.09	227.78
984.39	227.85
984.68	227.82
984.97	227.85
985.26	227.83
985.55	227.81
985.85	227.75
986.14	227.94
986.43	227.96
986.72	227.97
987.01	228.02
987.30	228.07
987.59	228.08
987.89	228.11
988.18	228.02
988.47	227.99
988.76	228.00
989.05	227.99
989.34	227.95
989.63	228.04
989.92	227.99
990.22	227.99
990.51	227.94
990.80	227.85
991.09	227.89
991.38	227.96
991.67	227.96
991.96	228.07
992.25	228.08
992.54	228.03
992.83	228.06
993.12	227.97
993.41	228.04
993.70	228.17
993.99	228.19
994.28	228.18
994.58	228.27
994.87	228.33
995.16	228.37
995.45	228.39
995.74	228.28
996.03	228.37
996.32	228.42
996.61	228.59
996.90	228.60
997.19	228.64
997.48	228.66
997.77	228.56
998.06	228.56
998.34	228.51
998.63	228.51
998.92	228.57
999.21	228.59
999.50	228.57
999.79	228.43
1000.08	228.43
1000.37	228.53
1000.66	228.48
1000.95	228.51
1001.24	228.50
1001.53	228.48
1001.82	228.61
1002.11	228.55
1002.40	228.49
1002.68	228.38
1002.97	228.57
1003.26	228.52
1003.55	228.54
1003.84	228.62
1004.13	228.63
1004.42	228.66
1004.71	228.60
1004.99	228.61
1005.28	228.70
1005.57	228.66
1005.86	228.61
1006.15	228.65
1006.44	228.65
1006.72	228.65
1007.01	228.60
1007.30	228.57
1007.59	228.52
1007.88	228.44
1008.17	228.34
1008.45	228.31
1008.74	228.29
1009.03	228.18
1009.32	228.13
1009.60	228.01
1009.89	227.90
1010.18	227.74
1010.47	227.61
1010.76	227.62
1011.04	227.59
1011.33	227.61
1011.62	227.60
1011.91	227.62
1012.19	227.57
1012.48	227.51
1012.77	227.56
1013.05	227.62
1013.34	227.65
1013.63	227.63
1013.92	227.67
1014.20	227.77
1014.49	227.76
1014.78	227.70
1015.06	227.67
1015.35	227.64
1015.64	227.70
1015.92	227.80
1016.21	227.89
1016.50	228.02
1016.78	228.10
1017.07	228.00
1017.36	227.93
1017.64	227.90
1017.93	227.96
1018.22	228.01
1018.50	228.00
1018.79	227.99
1019.08	227.90
1019.36	228.02
1019.65	228.05
1019.93	228.12
1020.22	228.24
1020.51	228.44
1020.79	228.47
1021.08	228.90
1021.36	227.30
1021.65	228.80
1021.94	227.80
1022.22	229.50
1022.51	227.80
1022.79	229.60
1023.08	230.40
1023.36	231.40
1023.65	227.00
>>>>>End Processed Spectral Data<<<<<
