SpectraSuite Data File
++++++++++++++++++++++++++++++++++++
Date: Fri Feb 01 14:36:15 EST 2013
User: group
Dark Spectrum Present: No
Reference Spectrum Present: No
Number of Sampled Component Spectra: 1
Spectrometers: USB2E7196
Integration Time (usec): 70000 (USB2E7196)
Spectra Averaged: 10 (USB2E7196)
Boxcar Smoothing: 10 (USB2E7196)
Correct for Electrical Dark: No (USB2E7196)
Strobe/Lamp Enabled: No (USB2E7196)
Correct for Detector Non-linearity: No (USB2E7196)
Correct for Stray Light: No (USB2E7196)
Number of Pixels in Processed Spectrum: 2048
>>>>>Begin Processed Spectral Data<<<<<
339.09	0.00
339.48	218.00
339.86	219.10
340.24	217.20
340.63	220.40
341.01	223.40
341.39	222.00
341.78	225.60
342.16	225.00
342.54	226.30
342.93	214.70
343.31	225.57
343.69	226.04
344.07	226.35
344.46	226.86
344.84	227.20
345.22	227.40
345.60	227.70
345.99	227.88
346.37	228.05
346.75	228.10
347.13	228.16
347.52	228.27
347.90	228.45
348.28	228.39
348.66	228.36
349.05	228.24
349.43	228.23
349.81	228.28
350.19	228.21
350.57	228.26
350.96	228.44
351.34	228.50
351.72	228.58
352.10	228.78
352.48	228.91
352.87	229.03
353.25	229.13
353.63	229.20
354.01	229.17
354.39	229.19
354.77	229.27
355.15	229.36
355.54	229.34
355.92	229.29
356.30	229.46
356.68	229.68
357.06	229.75
357.44	229.81
357.82	229.85
358.20	230.00
358.58	230.16
358.97	230.28
359.35	230.44
359.73	230.51
360.11	230.43
360.49	230.42
360.87	230.47
361.25	230.49
361.63	230.48
362.01	230.56
362.39	230.70
362.77	230.74
363.15	230.66
363.53	230.75
363.91	230.83
364.29	230.82
364.67	230.61
365.05	230.59
365.43	230.61
365.81	230.59
366.19	230.60
366.57	230.59
366.95	230.48
367.33	230.32
367.71	230.30
368.09	230.33
368.47	230.29
368.85	230.20
369.23	230.20
369.61	230.12
369.99	230.18
370.37	230.01
370.75	230.03
371.13	229.99
371.51	229.91
371.89	229.73
372.27	229.65
372.65	229.58
373.03	229.57
373.41	229.49
373.78	229.47
374.16	229.24
374.54	229.12
374.92	229.01
375.30	229.00
375.68	228.84
376.06	228.82
376.44	228.73
376.82	228.66
377.19	228.63
377.57	228.53
377.95	228.32
378.33	228.32
378.71	228.19
379.09	228.21
379.47	228.09
379.84	228.00
380.22	227.88
380.60	227.80
380.98	227.66
381.36	227.58
381.73	227.40
382.11	227.46
382.49	227.39
382.87	227.31
383.25	227.15
383.62	227.24
384.00	227.24
384.38	227.20
384.76	227.20
385.13	227.11
385.51	227.15
385.89	227.03
386.27	227.00
386.64	227.06
387.02	226.89
387.40	226.84
387.78	226.82
388.15	226.75
388.53	226.78
388.91	226.76
389.29	226.78
389.66	226.81
390.04	226.72
390.42	226.74
390.79	226.78
391.17	226.83
391.55	226.67
391.92	226.59
392.30	226.60
392.68	226.52
393.05	226.53
393.43	226.50
393.81	226.60
394.18	226.55
394.56	226.44
394.94	226.56
395.31	226.64
395.69	226.85
396.06	227.08
396.44	227.15
396.82	227.25
397.19	227.39
397.57	227.52
397.95	227.62
398.32	227.69
398.70	227.90
399.07	228.04
399.45	228.19
399.82	228.28
400.20	228.36
400.58	228.63
400.95	228.74
401.33	228.95
401.70	229.23
402.08	229.30
402.45	229.53
402.83	229.80
403.20	230.06
403.58	230.10
403.95	230.23
404.33	230.47
404.71	230.75
405.08	231.00
405.46	231.09
405.83	231.41
406.21	231.65
406.58	231.80
406.96	232.01
407.33	232.31
407.70	232.74
408.08	233.31
408.45	233.64
408.83	234.11
409.20	234.49
409.58	234.81
409.95	235.47
410.33	235.96
410.70	236.38
411.08	236.85
411.45	237.49
411.82	238.13
412.20	238.78
412.57	239.60
412.95	240.28
413.32	241.16
413.69	241.98
414.07	242.83
414.44	243.81
414.82	244.82
415.19	246.06
415.56	247.19
415.94	248.22
416.31	249.54
416.68	250.82
417.06	252.33
417.43	253.84
417.81	255.38
418.18	257.15
418.55	259.01
418.93	260.92
419.30	262.98
419.67	265.04
420.04	267.08
420.42	269.32
420.79	271.88
421.16	274.30
421.54	276.86
421.91	279.57
422.28	282.29
422.66	285.18
423.03	288.05
423.40	290.99
423.77	294.17
424.15	297.38
424.52	300.75
424.89	304.50
425.26	308.06
425.64	311.46
426.01	315.15
426.38	318.84
426.75	322.83
427.13	326.94
427.50	331.11
427.87	335.68
428.24	339.95
428.61	344.13
428.99	348.78
429.36	353.94
429.73	358.97
430.10	363.99
430.47	369.29
430.85	374.50
431.22	380.21
431.59	386.25
431.96	391.87
432.33	398.26
432.70	404.26
433.08	411.30
433.45	417.90
433.82	424.48
434.19	431.99
434.56	439.12
434.93	445.90
435.30	452.65
435.68	460.09
436.05	467.63
436.42	475.03
436.79	481.92
437.16	489.11
437.53	496.73
437.90	504.33
438.27	511.66
438.64	519.32
439.01	526.28
439.38	532.60
439.75	538.72
440.13	545.63
440.50	552.08
440.87	557.57
441.24	563.30
441.61	569.45
441.98	574.05
442.35	579.69
442.72	585.30
443.09	591.06
443.46	594.72
443.83	597.31
444.20	599.56
444.57	602.82
444.94	604.56
445.31	606.21
445.68	608.03
446.05	609.37
446.42	609.58
446.79	609.47
447.16	609.28
447.53	609.64
447.90	607.68
448.27	606.17
448.64	603.00
449.01	601.18
449.37	597.23
449.74	593.40
450.11	588.36
450.48	582.86
450.85	577.09
451.22	572.35
451.59	567.69
451.96	563.49
452.33	557.26
452.70	551.93
453.07	545.52
453.43	538.68
453.80	532.09
454.17	525.47
454.54	519.67
454.91	513.04
455.28	506.48
455.65	500.41
456.02	494.00
456.38	488.92
456.75	482.21
457.12	476.74
457.49	471.08
457.86	465.79
458.23	461.32
458.59	456.23
458.96	450.95
459.33	446.24
459.70	441.60
460.07	437.96
460.43	433.54
460.80	429.29
461.17	425.81
461.54	421.90
461.91	418.47
462.27	414.78
462.64	411.65
463.01	408.12
463.38	404.82
463.74	401.46
464.11	398.30
464.48	395.61
464.85	392.54
465.21	390.24
465.58	387.75
465.95	384.81
466.32	382.39
466.68	379.81
467.05	377.49
467.42	374.98
467.78	372.30
468.15	369.97
468.52	368.22
468.88	365.73
469.25	363.60
469.62	361.79
469.98	359.65
470.35	357.89
470.72	356.36
471.08	354.45
471.45	352.93
471.82	351.56
472.18	349.93
472.55	348.75
472.92	347.38
473.28	345.99
473.65	344.62
474.02	343.27
474.38	342.29
474.75	341.30
475.11	340.33
475.48	339.66
475.85	338.82
476.21	338.09
476.58	337.48
476.94	336.81
477.31	336.13
477.67	335.61
478.04	334.96
478.41	334.49
478.77	334.23
479.14	333.61
479.50	333.12
479.87	332.86
480.23	332.59
480.60	332.41
480.96	332.14
481.33	332.13
481.69	332.13
482.06	332.00
482.42	331.93
482.79	331.98
483.15	332.02
483.52	332.22
483.88	332.32
484.25	332.44
484.61	332.80
484.98	333.04
485.34	333.58
485.71	334.05
486.07	334.47
486.44	334.90
486.80	335.66
487.17	336.34
487.53	337.18
487.90	338.00
488.26	338.78
488.62	339.69
488.99	340.48
489.35	341.31
489.72	342.33
490.08	343.37
490.44	344.38
490.81	345.47
491.17	346.57
491.54	347.60
491.90	348.84
492.26	350.10
492.63	351.62
492.99	352.70
493.36	354.11
493.72	355.46
494.08	356.81
494.45	358.43
494.81	360.01
495.17	361.47
495.54	362.98
495.90	364.50
496.26	366.07
496.63	367.73
496.99	369.49
497.35	371.19
497.72	372.82
498.08	374.41
498.44	376.17
498.80	377.96
499.17	379.88
499.53	381.42
499.89	383.10
500.26	384.39
500.62	386.02
500.98	387.70
501.34	389.52
501.71	391.21
502.07	392.70
502.43	394.18
502.79	395.72
503.16	397.33
503.52	399.06
503.88	400.47
504.24	401.91
504.60	403.33
504.97	404.82
505.33	406.24
505.69	407.79
506.05	409.05
506.41	410.34
506.78	411.63
507.14	413.04
507.50	414.24
507.86	415.74
508.22	416.94
508.59	417.97
508.95	418.83
509.31	419.99
509.67	420.89
510.03	421.84
510.39	422.70
510.75	423.52
511.12	424.05
511.48	424.95
511.84	425.61
512.20	426.26
512.56	426.73
512.92	427.31
513.28	427.94
513.64	428.35
514.00	428.73
514.37	429.16
514.73	429.67
515.09	430.14
515.45	430.32
515.81	430.70
516.17	430.94
516.53	431.19
516.89	431.32
517.25	431.52
517.61	431.89
517.97	432.28
518.33	432.45
518.69	432.79
519.05	433.03
519.41	433.41
519.77	433.84
520.13	434.19
520.49	434.48
520.85	434.62
521.21	435.03
521.57	435.53
521.93	435.70
522.29	436.01
522.65	436.31
523.01	436.71
523.37	437.11
523.73	437.67
524.09	438.11
524.45	438.70
524.81	439.40
525.17	439.89
525.53	440.49
525.89	441.31
526.25	442.11
526.61	442.88
526.97	443.72
527.33	444.58
527.68	445.75
528.04	446.78
528.40	447.72
528.76	448.99
529.12	450.09
529.48	451.48
529.84	452.54
530.20	454.05
530.56	455.59
530.91	457.30
531.27	458.99
531.63	460.82
531.99	462.47
532.35	464.15
532.71	466.18
533.07	468.16
533.42	470.16
533.78	472.16
534.14	474.22
534.50	476.44
534.86	478.79
535.21	480.83
535.57	483.27
535.93	486.00
536.29	488.45
536.65	490.97
537.00	493.45
537.36	496.41
537.72	498.96
538.08	501.80
538.44	504.29
538.79	507.08
539.15	509.98
539.51	512.95
539.87	516.04
540.22	519.16
540.58	522.46
540.94	525.57
541.29	528.73
541.65	532.02
542.01	535.44
542.37	538.73
542.72	542.11
543.08	545.57
543.44	549.01
543.79	552.29
544.15	555.90
544.51	559.75
544.87	563.47
545.22	567.35
545.58	570.86
545.94	574.71
546.29	578.54
546.65	582.30
547.01	586.08
547.36	590.02
547.72	593.72
548.07	597.20
548.43	601.05
548.79	604.99
549.14	608.70
549.50	612.33
549.86	616.36
550.21	620.29
550.57	624.22
550.92	628.14
551.28	632.29
551.64	635.99
551.99	639.68
552.35	643.56
552.70	647.39
553.06	651.61
553.41	655.61
553.77	659.46
554.13	663.66
554.48	667.67
554.84	671.60
555.19	675.44
555.55	679.80
555.90	683.69
556.26	687.68
556.61	691.79
556.97	695.76
557.32	699.67
557.68	703.54
558.03	707.63
558.39	711.32
558.74	715.16
559.10	719.30
559.45	723.35
559.81	727.43
560.16	731.33
560.52	734.92
560.87	738.68
561.23	742.47
561.58	746.38
561.94	750.21
562.29	753.88
562.64	757.38
563.00	760.57
563.35	764.24
563.71	767.75
564.06	771.30
564.42	774.97
564.77	778.14
565.12	781.98
565.48	785.29
565.83	788.75
566.19	792.13
566.54	795.45
566.89	798.46
567.25	801.80
567.60	805.28
567.96	808.63
568.31	811.91
568.66	814.92
569.02	817.53
569.37	820.26
569.72	823.29
570.08	826.55
570.43	829.49
570.78	832.20
571.14	834.75
571.49	837.51
571.84	840.19
572.20	842.77
572.55	844.83
572.90	846.91
573.26	849.29
573.61	851.65
573.96	853.94
574.31	855.85
574.67	857.29
575.02	858.71
575.37	860.19
575.72	861.27
576.08	863.10
576.43	864.74
576.78	866.10
577.13	867.41
577.49	868.51
577.84	870.09
578.19	871.30
578.54	872.50
578.90	873.57
579.25	874.05
579.60	874.88
579.95	875.86
580.30	876.57
580.66	877.24
581.01	877.67
581.36	878.00
581.71	878.85
582.06	879.63
582.42	879.92
582.77	880.09
583.12	881.00
583.47	881.21
583.82	881.68
584.17	882.10
584.53	882.51
584.88	882.75
585.23	882.61
585.58	882.57
585.93	882.74
586.28	882.76
586.63	882.98
586.98	883.07
587.34	883.09
587.69	883.12
588.04	883.22
588.39	883.10
588.74	882.77
589.09	882.50
589.44	881.66
589.79	881.30
590.14	881.34
590.49	880.76
590.84	880.09
591.19	879.41
591.54	878.45
591.89	877.05
592.25	876.34
592.60	875.08
592.95	874.14
593.30	873.30
593.65	872.15
594.00	870.87
594.35	870.12
594.70	868.51
595.05	867.28
595.40	865.70
595.75	864.41
596.10	863.39
596.45	862.19
596.80	861.55
597.15	860.61
597.50	859.20
597.85	858.16
598.19	857.13
598.54	856.04
598.89	855.00
599.24	854.10
599.59	852.71
599.94	851.80
600.29	850.32
600.64	848.49
600.99	846.85
601.34	845.78
601.69	843.71
602.04	842.53
602.39	841.12
602.74	839.71
603.08	838.27
603.43	836.77
603.78	835.19
604.13	833.31
604.48	831.30
604.83	829.81
605.18	828.12
605.53	826.02
605.87	823.93
606.22	822.05
606.57	820.14
606.92	818.31
607.27	816.45
607.62	815.07
607.96	813.67
608.31	812.34
608.66	810.20
609.01	808.16
609.36	805.94
609.70	803.53
610.05	801.19
610.40	799.05
610.75	796.79
611.10	794.41
611.44	791.74
611.79	789.50
612.14	786.90
612.49	783.88
612.83	781.40
613.18	778.79
613.53	776.39
613.88	773.62
614.22	771.09
614.57	768.42
614.92	765.49
615.27	762.63
615.61	759.57
615.96	756.84
616.31	754.64
616.65	752.31
617.00	750.08
617.35	747.48
617.70	744.68
618.04	741.70
618.39	739.25
618.74	736.91
619.08	734.20
619.43	731.56
619.78	729.31
620.12	726.89
620.47	724.26
620.82	721.50
621.16	719.33
621.51	716.97
621.85	714.32
622.20	711.79
622.55	709.35
622.89	706.91
623.24	704.60
623.59	701.99
623.93	699.55
624.28	696.96
624.62	694.54
624.97	692.20
625.32	690.04
625.66	687.45
626.01	684.86
626.35	682.68
626.70	680.35
627.04	677.75
627.39	675.16
627.73	672.58
628.08	670.16
628.43	667.50
628.77	664.74
629.12	662.26
629.46	659.76
629.81	656.99
630.15	654.18
630.50	651.50
630.84	648.71
631.19	645.82
631.53	643.32
631.88	640.73
632.22	637.79
632.57	635.19
632.91	632.44
633.26	629.77
633.60	626.87
633.95	624.25
634.29	621.75
634.64	619.53
634.98	617.05
635.32	614.69
635.67	612.35
636.01	610.01
636.36	607.37
636.70	605.07
637.05	602.73
637.39	600.44
637.73	598.02
638.08	595.94
638.42	593.64
638.77	591.16
639.11	588.75
639.45	586.52
639.80	583.99
640.14	581.65
640.49	579.42
640.83	577.21
641.17	574.88
641.52	572.51
641.86	569.83
642.20	567.66
642.55	565.33
642.89	562.83
643.23	560.22
643.58	558.17
643.92	555.60
644.26	553.26
644.61	551.10
644.95	548.82
645.29	546.02
645.64	543.73
645.98	541.28
646.32	539.00
646.66	536.65
647.01	534.35
647.35	532.10
647.69	529.72
648.04	527.42
648.38	524.93
648.72	522.48
649.06	520.10
649.41	517.71
649.75	515.08
650.09	512.53
650.43	510.23
650.78	507.83
651.12	505.45
651.46	503.08
651.80	500.60
652.14	498.43
652.49	496.45
652.83	494.17
653.17	492.01
653.51	489.67
653.85	487.49
654.20	485.04
654.54	482.72
654.88	480.41
655.22	477.82
655.56	475.76
655.90	473.62
656.25	471.44
656.59	469.25
656.93	467.12
657.27	465.15
657.61	462.80
657.95	460.62
658.29	458.69
658.64	456.54
658.98	454.54
659.32	452.21
659.66	449.96
660.00	447.90
660.34	445.79
660.68	443.67
661.02	441.47
661.36	439.72
661.70	437.91
662.05	436.14
662.39	434.64
662.73	432.68
663.07	431.08
663.41	429.36
663.75	427.61
664.09	425.98
664.43	424.24
664.77	422.81
665.11	421.08
665.45	419.33
665.79	417.78
666.13	416.09
666.47	414.55
666.81	413.10
667.15	411.26
667.49	409.54
667.83	408.07
668.17	406.59
668.51	404.91
668.85	403.22
669.19	401.62
669.53	400.07
669.87	398.46
670.21	396.91
670.55	395.48
670.89	394.00
671.23	392.49
671.57	391.08
671.91	389.61
672.25	388.33
672.58	386.92
672.92	385.53
673.26	384.05
673.60	382.60
673.94	381.15
674.28	380.05
674.62	378.95
674.96	377.60
675.30	376.37
675.64	374.99
675.97	373.62
676.31	372.32
676.65	370.94
676.99	369.91
677.33	368.53
677.67	367.12
678.01	365.82
678.34	364.63
678.68	363.26
679.02	361.93
679.36	360.56
679.70	359.35
680.04	358.16
680.37	356.92
680.71	355.74
681.05	354.58
681.39	353.31
681.73	352.09
682.06	351.12
682.40	350.06
682.74	348.95
683.08	347.90
683.42	346.79
683.75	345.76
684.09	344.47
684.43	343.44
684.77	342.44
685.10	341.26
685.44	340.10
685.78	339.11
686.12	338.09
686.45	336.98
686.79	335.82
687.13	334.69
687.46	333.63
687.80	332.53
688.14	331.45
688.48	330.34
688.81	329.18
689.15	328.08
689.49	326.83
689.82	325.83
690.16	324.64
690.50	323.71
690.83	322.62
691.17	321.71
691.51	320.59
691.84	319.70
692.18	318.74
692.52	317.89
692.85	316.73
693.19	315.75
693.52	314.89
693.86	313.92
694.20	312.88
694.53	312.00
694.87	311.16
695.21	310.09
695.54	309.28
695.88	308.27
696.21	307.10
696.55	306.29
696.88	305.53
697.22	304.84
697.56	303.87
697.89	302.97
698.23	302.02
698.56	301.17
698.90	300.29
699.23	299.48
699.57	298.67
699.90	297.96
700.24	297.07
700.58	296.25
700.91	295.50
701.25	294.92
701.58	294.26
701.92	293.49
702.25	292.87
702.59	292.16
702.92	291.60
703.26	291.07
703.59	290.43
703.93	289.88
704.26	289.17
704.60	288.61
704.93	288.03
705.26	287.37
705.60	286.79
705.93	286.23
706.27	285.67
706.60	285.06
706.94	284.52
707.27	284.08
707.61	283.55
707.94	283.01
708.27	282.34
708.61	281.78
708.94	281.22
709.28	280.73
709.61	280.22
709.94	279.73
710.28	279.26
710.61	278.75
710.95	278.10
711.28	277.74
711.61	277.30
711.95	276.83
712.28	276.41
712.61	275.94
712.95	275.42
713.28	274.94
713.61	274.35
713.95	273.85
714.28	273.38
714.61	272.83
714.95	272.37
715.28	271.93
715.61	271.50
715.95	271.10
716.28	270.49
716.61	270.10
716.95	269.64
717.28	269.16
717.61	268.65
717.94	268.26
718.28	267.74
718.61	267.22
718.94	266.87
719.27	266.43
719.61	265.97
719.94	265.51
720.27	265.12
720.60	264.86
720.94	264.49
721.27	264.09
721.60	263.79
721.93	263.38
722.27	263.10
722.60	262.67
722.93	262.26
723.26	261.98
723.59	261.54
723.93	261.13
724.26	260.81
724.59	260.59
724.92	260.18
725.25	259.83
725.59	259.52
725.92	259.12
726.25	258.79
726.58	258.37
726.91	258.09
727.24	257.83
727.57	257.45
727.91	257.21
728.24	256.94
728.57	256.65
728.90	256.35
729.23	255.96
729.56	255.74
729.89	255.50
730.22	255.20
730.55	254.95
730.89	254.78
731.22	254.42
731.55	254.04
731.88	253.85
732.21	253.59
732.54	253.31
732.87	253.04
733.20	252.84
733.53	252.71
733.86	252.45
734.19	252.09
734.52	251.79
734.85	251.62
735.18	251.21
735.51	250.98
735.84	250.76
736.17	250.70
736.50	250.35
736.83	250.32
737.16	250.17
737.49	249.79
737.82	249.45
738.15	249.35
738.48	249.05
738.81	248.76
739.14	248.50
739.47	248.25
739.80	248.00
740.13	247.82
740.46	247.59
740.79	247.40
741.12	247.18
741.45	247.03
741.78	246.74
742.11	246.56
742.44	246.32
742.77	246.07
743.10	245.76
743.43	245.59
743.75	245.10
744.08	245.09
744.41	244.96
744.74	244.83
745.07	244.59
745.40	244.56
745.73	244.39
746.06	244.14
746.39	243.95
746.71	243.84
747.04	243.62
747.37	243.50
747.70	243.18
748.03	242.91
748.36	242.79
748.68	242.58
749.01	242.42
749.34	242.27
749.67	242.19
750.00	242.01
750.33	241.93
750.65	241.91
750.98	241.59
751.31	241.46
751.64	241.30
751.97	241.22
752.29	241.16
752.62	240.94
752.95	240.93
753.28	240.78
753.60	240.73
753.93	240.54
754.26	240.51
754.59	240.44
754.91	240.43
755.24	240.38
755.57	240.29
755.90	240.25
756.22	240.06
756.55	239.90
756.88	239.83
757.20	239.64
757.53	239.40
757.86	239.33
758.19	239.28
758.51	239.16
758.84	239.03
759.17	238.77
759.49	238.70
759.82	238.67
760.15	238.65
760.47	238.45
760.80	238.34
761.13	238.18
761.45	238.10
761.78	238.09
762.11	237.94
762.43	237.90
762.76	237.79
763.08	237.85
763.41	237.74
763.74	237.66
764.06	237.66
764.39	237.63
764.71	237.52
765.04	237.37
765.37	237.34
765.69	237.25
766.02	237.14
766.34	237.09
766.67	237.01
767.00	236.89
767.32	236.91
767.65	237.00
767.97	236.94
768.30	236.87
768.62	236.70
768.95	236.61
769.27	236.41
769.60	236.36
769.92	236.21
770.25	236.14
770.57	235.97
770.90	235.89
771.22	235.82
771.55	235.73
771.87	235.71
772.20	235.63
772.52	235.66
772.85	235.88
773.17	235.74
773.50	235.49
773.82	235.37
774.15	235.23
774.47	235.04
774.80	234.90
775.12	234.79
775.45	234.69
775.77	234.60
776.09	234.58
776.42	234.35
776.74	234.21
777.07	234.13
777.39	234.00
777.72	233.84
778.04	233.76
778.36	233.60
778.69	233.53
779.01	233.39
779.33	233.15
779.66	232.80
779.98	232.82
780.31	232.77
780.63	232.88
780.95	232.78
781.28	232.69
781.60	232.56
781.92	232.48
782.25	232.46
782.57	232.34
782.89	232.23
783.22	232.22
783.54	232.19
783.86	232.13
784.19	232.15
784.51	232.10
784.83	231.96
785.16	231.85
785.48	231.86
785.80	231.83
786.12	231.89
786.45	231.84
786.77	231.69
787.09	231.69
787.42	231.50
787.74	231.49
788.06	231.43
788.38	231.40
788.71	231.41
789.03	231.30
789.35	231.34
789.67	231.30
789.99	231.25
790.32	231.21
790.64	231.31
790.96	231.43
791.28	231.46
791.61	231.47
791.93	231.55
792.25	231.51
792.57	231.58
792.89	231.44
793.21	231.53
793.54	231.74
793.86	231.74
794.18	231.80
794.50	231.77
794.82	231.73
795.14	231.78
795.47	231.90
795.79	231.94
796.11	231.90
796.43	231.97
796.75	231.99
797.07	231.97
797.39	231.75
797.71	231.63
798.04	231.53
798.36	231.55
798.68	231.52
799.00	231.50
799.32	231.51
799.64	231.57
799.96	231.61
800.28	231.57
800.60	231.61
800.92	231.68
801.24	231.68
801.56	231.74
801.89	231.72
802.21	231.67
802.53	231.70
802.85	231.82
803.17	231.91
803.49	231.99
803.81	232.05
804.13	232.15
804.45	232.08
804.77	232.13
805.09	232.23
805.41	232.28
805.73	232.13
806.05	232.03
806.37	232.05
806.69	231.84
807.01	231.70
807.33	231.60
807.65	231.48
807.97	231.55
808.28	231.53
808.60	231.45
808.92	231.40
809.24	231.52
809.56	231.30
809.88	231.25
810.20	231.20
810.52	231.20
810.84	231.11
811.16	231.05
811.48	231.02
811.80	230.89
812.12	230.88
812.43	230.90
812.75	230.88
813.07	230.81
813.39	230.86
813.71	230.77
814.03	230.65
814.35	230.65
814.67	230.52
814.98	230.46
815.30	230.49
815.62	230.30
815.94	230.15
816.26	230.25
816.58	230.13
816.89	230.07
817.21	229.93
817.53	229.98
817.85	229.93
818.17	229.84
818.48	229.76
818.80	229.70
819.12	229.68
819.44	229.55
819.76	229.42
820.07	229.41
820.39	229.39
820.71	229.48
821.03	229.36
821.34	229.35
821.66	229.32
821.98	229.26
822.30	229.32
822.61	229.30
822.93	229.20
823.25	229.17
823.57	229.12
823.88	229.12
824.20	229.00
824.52	229.07
824.83	229.00
825.15	228.95
825.47	228.84
825.79	228.88
826.10	228.89
826.42	228.92
826.74	228.96
827.05	229.03
827.37	228.90
827.69	228.87
828.00	228.75
828.32	228.79
828.64	228.79
828.95	228.73
829.27	228.68
829.58	228.59
829.90	228.51
830.22	228.50
830.53	228.51
830.85	228.53
831.17	228.49
831.48	228.52
831.80	228.52
832.11	228.56
832.43	228.49
832.75	228.54
833.06	228.63
833.38	228.51
833.69	228.38
834.01	228.51
834.32	228.48
834.64	228.48
834.96	228.53
835.27	228.60
835.59	228.69
835.90	228.61
836.22	228.77
836.53	228.79
836.85	228.84
837.16	229.02
837.48	229.07
837.79	228.99
838.11	229.08
838.42	229.16
838.74	229.19
839.05	229.25
839.37	229.27
839.68	229.18
840.00	229.15
840.31	229.35
840.63	229.31
840.94	229.42
841.26	229.46
841.57	229.45
841.88	229.46
842.20	229.45
842.51	229.47
842.83	229.39
843.14	229.49
843.46	229.55
843.77	229.44
844.08	229.37
844.40	229.44
844.71	229.51
845.03	229.49
845.34	229.56
845.65	229.56
845.97	229.42
846.28	229.44
846.60	229.55
846.91	229.42
847.22	229.36
847.54	229.38
847.85	229.39
848.16	229.35
848.48	229.30
848.79	229.30
849.10	229.33
849.42	229.45
849.73	229.31
850.04	229.09
850.36	229.02
850.67	229.11
850.98	229.15
851.30	229.03
851.61	229.00
851.92	228.90
852.23	228.93
852.55	228.92
852.86	228.86
853.17	228.84
853.49	228.85
853.80	228.89
854.11	228.76
854.42	228.86
854.74	228.76
855.05	228.72
855.36	228.68
855.67	228.68
855.99	228.54
856.30	228.77
856.61	228.78
856.92	228.70
857.23	228.68
857.55	228.54
857.86	228.55
858.17	228.58
858.48	228.49
858.79	228.42
859.11	228.60
859.42	228.55
859.73	228.42
860.04	228.42
860.35	228.32
860.66	228.32
860.98	228.12
861.29	228.16
861.60	228.18
861.91	228.21
862.22	228.15
862.53	228.08
862.84	227.82
863.16	227.94
863.47	227.91
863.78	227.84
864.09	227.94
864.40	227.94
864.71	227.88
865.02	227.93
865.33	227.89
865.64	227.64
865.95	227.80
866.27	227.91
866.58	227.90
866.89	227.91
867.20	227.90
867.51	227.91
867.82	227.79
868.13	227.78
868.44	227.65
868.75	227.69
869.06	227.76
869.37	227.69
869.68	227.64
869.99	227.64
870.30	227.78
870.61	227.71
870.92	227.66
871.23	227.71
871.54	227.80
871.85	227.82
872.16	227.93
872.47	227.79
872.78	227.69
873.09	227.62
873.40	227.61
873.71	227.69
874.02	227.80
874.33	227.87
874.64	227.85
874.95	227.98
875.26	227.98
875.56	227.99
875.87	228.10
876.18	228.16
876.49	228.44
876.80	228.42
877.11	228.47
877.42	228.45
877.73	228.57
878.04	228.54
878.35	228.62
878.66	228.59
878.96	228.69
879.27	228.76
879.58	229.05
879.89	229.16
880.20	229.31
880.51	229.29
880.82	229.31
881.12	229.46
881.43	229.39
881.74	229.38
882.05	229.33
882.36	229.39
882.67	229.36
882.97	229.17
883.28	229.21
883.59	229.22
883.90	229.20
884.21	229.17
884.51	229.20
884.82	229.27
885.13	229.46
885.44	229.46
885.74	229.57
886.05	229.43
886.36	229.46
886.67	229.36
886.98	229.52
887.28	229.58
887.59	229.48
887.90	229.59
888.20	229.62
888.51	229.72
888.82	229.74
889.13	229.75
889.43	229.95
889.74	229.83
890.05	229.86
890.35	229.96
890.66	229.89
890.97	229.88
891.28	229.72
891.58	229.64
891.89	229.66
892.20	229.60
892.50	229.56
892.81	229.46
893.12	229.42
893.42	229.26
893.73	229.28
894.04	229.23
894.34	229.14
894.65	229.15
894.95	229.09
895.26	228.95
895.57	229.06
895.87	228.75
896.18	228.65
896.48	228.65
896.79	228.63
897.10	228.69
897.40	228.65
897.71	228.66
898.01	228.65
898.32	228.55
898.63	228.43
898.93	228.37
899.24	228.32
899.54	228.28
899.85	228.16
900.15	228.08
900.46	228.12
900.76	228.04
901.07	227.83
901.38	227.73
901.68	227.81
901.99	227.65
902.29	227.71
902.60	227.71
902.90	227.55
903.21	227.45
903.51	227.37
903.82	227.30
904.12	227.31
904.43	227.24
904.73	227.23
905.03	227.27
905.34	227.38
905.64	227.40
905.95	227.35
906.25	227.39
906.56	227.38
906.86	227.32
907.17	227.31
907.47	227.37
907.77	227.32
908.08	227.30
908.38	227.27
908.69	227.30
908.99	227.39
909.30	227.48
909.60	227.44
909.90	227.51
910.21	227.54
910.51	227.47
910.81	227.50
911.12	227.55
911.42	227.60
911.73	227.43
912.03	227.46
912.33	227.51
912.64	227.51
912.94	227.54
913.24	227.55
913.55	227.55
913.85	227.63
914.15	227.77
914.46	227.77
914.76	227.82
915.06	227.79
915.37	227.86
915.67	227.84
915.97	227.91
916.27	227.79
916.58	227.74
916.88	227.79
917.18	227.73
917.49	227.91
917.79	227.93
918.09	228.06
918.39	228.12
918.70	228.13
919.00	228.15
919.30	228.20
919.60	228.18
919.91	228.28
920.21	228.28
920.51	228.26
920.81	228.29
921.12	228.36
921.42	228.39
921.72	228.40
922.02	228.53
922.32	228.63
922.63	228.69
922.93	228.92
923.23	229.03
923.53	229.08
923.83	228.95
924.13	229.00
924.44	229.04
924.74	229.07
925.04	229.15
925.34	229.25
925.64	229.19
925.94	229.15
926.24	229.29
926.55	229.33
926.85	229.37
927.15	229.41
927.45	229.39
927.75	229.36
928.05	229.29
928.35	229.25
928.65	229.28
928.95	229.23
929.26	229.17
929.56	229.10
929.86	229.18
930.16	229.16
930.46	229.08
930.76	228.99
931.06	228.93
931.36	228.82
931.66	228.85
931.96	228.81
932.26	228.97
932.56	228.86
932.86	228.79
933.16	228.77
933.46	228.70
933.76	228.52
934.06	228.59
934.36	228.69
934.66	228.61
934.96	228.48
935.26	228.57
935.56	228.45
935.86	228.41
936.16	228.33
936.46	228.26
936.76	228.25
937.06	228.21
937.36	228.10
937.66	228.09
937.96	228.07
938.26	228.06
938.56	227.93
938.86	227.94
939.16	227.94
939.46	227.93
939.76	227.94
940.06	228.05
940.35	228.03
940.65	227.83
940.95	227.68
941.25	227.72
941.55	227.61
941.85	227.55
942.15	227.54
942.45	227.51
942.75	227.42
943.04	227.40
943.34	227.47
943.64	227.46
943.94	227.40
944.24	227.23
944.54	227.30
944.84	227.27
945.13	227.14
945.43	227.16
945.73	227.14
946.03	227.07
946.33	226.87
946.62	226.79
946.92	226.90
947.22	227.03
947.52	226.99
947.82	227.03
948.11	227.10
948.41	227.09
948.71	227.08
949.01	227.20
949.31	227.18
949.60	227.13
949.90	227.17
950.20	227.18
950.50	227.28
950.79	227.28
951.09	227.34
951.39	227.35
951.69	227.32
951.98	227.38
952.28	227.38
952.58	227.53
952.87	227.58
953.17	227.59
953.47	227.66
953.76	227.74
954.06	227.68
954.36	227.68
954.66	227.70
954.95	227.85
955.25	227.86
955.55	227.88
955.84	227.88
956.14	227.92
956.44	228.13
956.73	228.12
957.03	228.12
957.32	228.18
957.62	228.23
957.92	228.32
958.21	228.41
958.51	228.73
958.81	228.79
959.10	228.87
959.40	228.92
959.69	228.96
959.99	228.92
960.29	229.02
960.58	229.05
960.88	229.24
961.17	229.10
961.47	229.12
961.76	229.12
962.06	229.18
962.36	229.09
962.65	228.99
962.95	229.00
963.24	228.95
963.54	228.95
963.83	228.94
964.13	228.94
964.42	228.84
964.72	228.64
965.01	228.64
965.31	228.56
965.60	228.58
965.90	228.72
966.19	228.70
966.49	228.62
966.78	228.53
967.08	228.39
967.37	228.44
967.67	228.51
967.96	228.63
968.26	228.62
968.55	228.80
968.85	228.87
969.14	228.90
969.43	228.94
969.73	228.88
970.02	228.99
970.32	228.96
970.61	228.93
970.91	228.90
971.20	228.89
971.49	228.89
971.79	228.83
972.08	228.56
972.38	228.47
972.67	228.56
972.96	228.58
973.26	228.64
973.55	228.71
973.85	228.61
974.14	228.48
974.43	228.41
974.73	228.32
975.02	228.15
975.31	228.11
975.61	228.12
975.90	228.07
976.19	227.86
976.49	227.91
976.78	227.88
977.07	227.83
977.37	227.88
977.66	227.92
977.95	227.82
978.24	227.88
978.54	228.08
978.83	227.99
979.12	227.97
979.42	227.88
979.71	227.73
980.00	227.76
980.29	227.79
980.59	227.82
980.88	227.87
981.17	227.89
981.46	227.82
981.76	227.73
982.05	227.86
982.34	227.99
982.63	227.90
982.93	227.80
983.22	227.89
983.51	227.83
983.80	227.78
984.09	227.81
984.39	227.75
984.68	227.60
984.97	227.63
985.26	227.72
985.55	227.70
985.85	227.72
986.14	227.68
986.43	227.64
986.72	227.61
987.01	227.64
987.30	227.72
987.59	227.88
987.89	228.02
988.18	228.00
988.47	227.89
988.76	227.90
989.05	227.97
989.34	227.97
989.63	228.01
989.92	228.00
990.22	228.03
990.51	228.14
990.80	228.29
991.09	228.33
991.38	228.29
991.67	228.35
991.96	228.38
992.25	228.38
992.54	228.50
992.83	228.45
993.12	228.49
993.41	228.55
993.70	228.55
993.99	228.56
994.28	228.61
994.58	228.75
994.87	228.79
995.16	228.72
995.45	228.76
995.74	228.79
996.03	228.79
996.32	228.79
996.61	228.80
996.90	228.68
997.19	228.73
997.48	228.79
997.77	228.80
998.06	228.88
998.34	228.89
998.63	228.88
998.92	229.00
999.21	228.95
999.50	228.96
999.79	228.87
1000.08	228.91
1000.37	228.91
1000.66	228.87
1000.95	228.91
1001.24	229.12
1001.53	229.01
1001.82	228.97
1002.11	228.98
1002.40	228.96
1002.68	228.91
1002.97	229.04
1003.26	228.87
1003.55	228.80
1003.84	228.79
1004.13	228.80
1004.42	228.78
1004.71	228.72
1004.99	228.64
1005.28	228.68
1005.57	228.65
1005.86	228.66
1006.15	228.57
1006.44	228.45
1006.72	228.45
1007.01	228.39
1007.30	228.25
1007.59	228.34
1007.88	228.28
1008.17	228.32
1008.45	228.34
1008.74	228.34
1009.03	228.34
1009.32	228.38
1009.60	228.38
1009.89	228.39
1010.18	228.34
1010.47	228.29
1010.76	228.20
1011.04	228.18
1011.33	228.16
1011.62	228.24
1011.91	228.16
1012.19	228.10
1012.48	228.13
1012.77	228.02
1013.05	228.15
1013.34	228.16
1013.63	228.10
1013.92	228.15
1014.20	228.06
1014.49	228.05
1014.78	227.99
1015.06	227.81
1015.35	227.88
1015.64	227.83
1015.92	227.80
1016.21	227.80
1016.50	227.83
1016.78	227.91
1017.07	227.91
1017.36	227.79
1017.64	227.62
1017.93	227.67
1018.22	227.68
1018.50	227.61
1018.79	227.63
1019.08	227.59
1019.36	227.54
1019.65	227.52
1019.93	227.57
1020.22	227.61
1020.51	227.71
1020.79	227.74
1021.08	227.50
1021.36	226.70
1021.65	226.30
1021.94	229.90
1022.22	226.50
1022.51	228.20
1022.79	228.80
1023.08	227.80
1023.36	230.00
1023.65	227.80
>>>>>End Processed Spectral Data<<<<<
