SpectraSuite Data File
++++++++++++++++++++++++++++++++++++
Date: Fri Feb 01 14:39:09 EST 2013
User: group
Dark Spectrum Present: No
Reference Spectrum Present: No
Number of Sampled Component Spectra: 1
Spectrometers: USB2E7196
Integration Time (usec): 70000 (USB2E7196)
Spectra Averaged: 10 (USB2E7196)
Boxcar Smoothing: 10 (USB2E7196)
Correct for Electrical Dark: No (USB2E7196)
Strobe/Lamp Enabled: No (USB2E7196)
Correct for Detector Non-linearity: No (USB2E7196)
Correct for Stray Light: No (USB2E7196)
Number of Pixels in Processed Spectrum: 2048
>>>>>Begin Processed Spectral Data<<<<<
339.09	0.00
339.48	215.70
339.86	217.00
340.24	219.80
340.63	220.10
341.01	225.30
341.39	222.10
341.78	225.20
342.16	224.80
342.54	226.90
342.93	214.79
343.31	225.67
343.69	226.21
344.07	226.65
344.46	227.05
344.84	227.36
345.22	227.53
345.60	227.86
345.99	228.00
346.37	228.25
346.75	228.30
347.13	228.31
347.52	228.31
347.90	228.50
348.28	228.41
348.66	228.47
349.05	228.30
349.43	228.31
349.81	228.28
350.19	228.31
350.57	228.24
350.96	228.31
351.34	228.38
351.72	228.38
352.10	228.56
352.48	228.60
352.87	228.74
353.25	228.73
353.63	228.74
354.01	228.79
354.39	228.72
354.77	228.72
355.15	228.80
355.54	228.80
355.92	228.78
356.30	228.89
356.68	229.05
357.06	229.25
357.44	229.31
357.82	229.41
358.20	229.41
358.58	229.50
358.97	229.44
359.35	229.53
359.73	229.68
360.11	229.70
360.49	229.62
360.87	229.62
361.25	229.64
361.63	229.69
362.01	229.69
362.39	229.69
362.77	229.79
363.15	229.77
363.53	229.73
363.91	229.66
364.29	229.65
364.67	229.48
365.05	229.37
365.43	229.39
365.81	229.35
366.19	229.42
366.57	229.45
366.95	229.45
367.33	229.27
367.71	229.19
368.09	229.16
368.47	229.25
368.85	229.27
369.23	229.24
369.61	229.10
369.99	229.10
370.37	229.08
370.75	229.03
371.13	228.95
371.51	228.83
371.89	228.75
372.27	228.73
372.65	228.59
373.03	228.53
373.41	228.41
373.78	228.24
374.16	228.10
374.54	227.96
374.92	227.93
375.30	227.90
375.68	227.84
376.06	227.72
376.44	227.63
376.82	227.43
377.19	227.36
377.57	227.33
377.95	227.27
378.33	227.14
378.71	226.95
379.09	226.90
379.47	227.01
379.84	226.93
380.22	226.86
380.60	226.78
380.98	226.69
381.36	226.65
381.73	226.65
382.11	226.65
382.49	226.60
382.87	226.41
383.25	226.31
383.62	226.40
384.00	226.30
384.38	226.22
384.76	226.26
385.13	226.30
385.51	226.15
385.89	225.98
386.27	226.09
386.64	226.14
387.02	226.24
387.40	226.02
387.78	225.96
388.15	225.99
388.53	226.06
388.91	226.13
389.29	226.07
389.66	226.16
390.04	226.06
390.42	226.10
390.79	226.26
391.17	226.27
391.55	226.19
391.92	226.25
392.30	226.40
392.68	226.46
393.05	226.53
393.43	226.70
393.81	226.86
394.18	226.85
394.56	226.87
394.94	226.86
395.31	227.02
395.69	227.25
396.06	227.24
396.44	227.27
396.82	227.28
397.19	227.47
397.57	227.44
397.95	227.60
398.32	227.59
398.70	227.67
399.07	227.80
399.45	227.88
399.82	228.02
400.20	227.91
400.58	227.94
400.95	227.97
401.33	228.05
401.70	228.33
402.08	228.50
402.45	228.71
402.83	228.80
403.20	229.00
403.58	229.01
403.95	229.30
404.33	229.49
404.71	229.72
405.08	229.99
405.46	230.07
405.83	230.28
406.21	230.43
406.58	230.63
406.96	230.81
407.33	230.92
407.70	231.15
408.08	231.58
408.45	231.80
408.83	231.99
409.20	232.23
409.58	232.30
409.95	232.38
410.33	232.58
410.70	232.85
411.08	233.05
411.45	233.45
411.82	233.64
412.20	233.98
412.57	234.35
412.95	234.53
413.32	235.07
413.69	235.35
414.07	235.87
414.44	236.29
414.82	236.86
415.19	237.53
415.56	238.14
415.94	238.63
416.31	239.27
416.68	239.89
417.06	240.68
417.43	241.33
417.81	242.23
418.18	243.06
418.55	243.86
418.93	244.78
419.30	245.69
419.67	246.71
420.04	247.76
420.42	248.88
420.79	250.22
421.16	251.40
421.54	252.76
421.91	254.07
422.28	255.48
422.66	256.85
423.03	258.35
423.40	259.80
423.77	261.33
424.15	262.97
424.52	264.74
424.89	266.47
425.26	268.15
425.64	269.77
426.01	271.44
426.38	273.42
426.75	275.32
427.13	277.25
427.50	279.23
427.87	281.35
428.24	283.32
428.61	285.40
428.99	287.63
429.36	290.02
429.73	292.45
430.10	294.82
430.47	297.26
430.85	299.61
431.22	302.17
431.59	304.93
431.96	307.50
432.33	310.35
432.70	313.20
433.08	316.65
433.45	319.91
433.82	323.09
434.19	326.56
434.56	329.97
434.93	333.17
435.30	336.42
435.68	340.09
436.05	343.67
436.42	347.04
436.79	350.26
437.16	353.72
437.53	357.28
437.90	360.75
438.27	363.98
438.64	367.53
439.01	370.65
439.38	373.61
439.75	376.39
440.13	379.60
440.50	382.74
440.87	385.11
441.24	387.49
441.61	390.31
441.98	392.30
442.35	394.76
442.72	397.37
443.09	399.82
443.46	401.05
443.83	401.84
444.20	402.73
444.57	403.92
444.94	404.48
445.31	405.08
445.68	405.80
446.05	406.33
446.42	406.25
446.79	406.09
447.16	405.96
447.53	405.90
447.90	404.76
448.27	403.36
448.64	401.72
449.01	400.83
449.37	398.74
449.74	396.66
450.11	394.03
450.48	391.15
450.85	388.30
451.22	385.98
451.59	383.86
451.96	381.60
452.33	378.75
452.70	376.08
453.07	372.87
453.43	369.49
453.80	366.26
454.17	363.01
454.54	360.20
454.91	356.88
455.28	353.70
455.65	350.83
456.02	348.13
456.38	345.57
456.75	342.21
457.12	339.62
457.49	337.06
457.86	334.50
458.23	332.32
458.59	329.89
458.96	327.45
459.33	325.24
459.70	323.11
460.07	321.14
460.43	319.08
460.80	316.97
461.17	315.25
461.54	313.40
461.91	311.60
462.27	309.72
462.64	308.17
463.01	306.58
463.38	304.92
463.74	303.17
464.11	301.71
464.48	300.51
464.85	299.01
465.21	297.88
465.58	296.66
465.95	295.27
466.32	294.11
466.68	292.80
467.05	291.66
467.42	290.41
467.78	289.23
468.15	287.99
468.52	287.19
468.88	285.95
469.25	284.92
469.62	284.20
469.98	283.31
470.35	282.39
470.72	281.59
471.08	280.60
471.45	279.75
471.82	279.01
472.18	278.12
472.55	277.45
472.92	276.65
473.28	276.07
473.65	275.36
474.02	274.64
474.38	274.03
474.75	273.49
475.11	272.86
475.48	272.50
475.85	271.99
476.21	271.44
476.58	270.95
476.94	270.60
477.31	270.01
477.67	269.62
478.04	269.26
478.41	268.78
478.77	268.73
479.14	268.41
479.50	268.09
479.87	267.85
480.23	267.70
480.60	267.40
480.96	267.10
481.33	267.00
481.69	266.78
482.06	266.77
482.42	266.61
482.79	266.47
483.15	266.13
483.52	266.14
483.88	266.03
484.25	265.94
484.61	265.95
484.98	265.95
485.34	266.00
485.71	265.91
486.07	265.96
486.44	265.78
486.80	265.87
487.17	265.98
487.53	266.17
487.90	266.19
488.26	266.34
488.62	266.50
488.99	266.56
489.35	266.71
489.72	266.61
490.08	266.67
490.44	266.89
490.81	267.20
491.17	267.41
491.54	267.76
491.90	268.03
492.26	268.22
492.63	268.42
492.99	268.51
493.36	268.82
493.72	269.08
494.08	269.32
494.45	269.61
494.81	269.81
495.17	269.96
495.54	270.29
495.90	270.70
496.26	271.00
496.63	271.35
496.99	271.69
497.35	272.12
497.72	272.49
498.08	272.85
498.44	273.17
498.80	273.57
499.17	273.89
499.53	274.29
499.89	274.77
500.26	275.28
500.62	275.87
500.98	276.49
501.34	277.07
501.71	277.66
502.07	278.27
502.43	278.78
502.79	279.32
503.16	279.91
503.52	280.42
503.88	280.91
504.24	281.60
504.60	282.21
504.97	283.05
505.33	283.73
505.69	284.58
506.05	285.49
506.41	286.12
506.78	286.94
507.14	287.94
507.50	288.71
507.86	289.71
508.22	290.55
508.59	291.47
508.95	292.57
509.31	293.84
509.67	294.80
510.03	296.19
510.39	297.55
510.75	298.83
511.12	300.07
511.48	301.62
511.84	303.04
512.20	304.61
512.56	306.24
512.92	308.10
513.28	309.81
513.64	311.55
514.00	313.68
514.37	315.67
514.73	317.64
515.09	319.65
515.45	321.76
515.81	324.13
516.17	326.35
516.53	328.58
516.89	330.91
517.25	333.62
517.61	336.15
517.97	338.89
518.33	341.68
518.69	344.60
519.05	347.67
519.41	350.79
519.77	354.14
520.13	357.28
520.49	360.57
520.85	364.10
521.21	367.70
521.57	371.28
521.93	374.88
522.29	378.66
522.65	382.61
523.01	386.53
523.37	390.40
523.73	394.75
524.09	399.11
524.45	403.43
524.81	407.95
525.17	412.61
525.53	417.34
525.89	422.09
526.25	426.87
526.61	431.63
526.97	436.50
527.33	441.56
527.68	446.81
528.04	452.05
528.40	457.33
528.76	462.69
529.12	468.27
529.48	473.85
529.84	479.47
530.20	485.39
530.56	491.22
530.91	497.28
531.27	503.31
531.63	509.57
531.99	515.57
532.35	521.69
532.71	527.74
533.07	534.08
533.42	540.54
533.78	547.17
534.14	553.75
534.50	560.30
534.86	566.79
535.21	573.39
535.57	580.10
535.93	586.87
536.29	593.67
536.65	600.41
537.00	607.19
537.36	614.01
537.72	620.79
538.08	627.81
538.44	634.87
538.79	641.66
539.15	648.44
539.51	655.93
539.87	663.17
540.22	670.42
540.58	677.44
540.94	684.52
541.29	691.49
541.65	698.65
542.01	706.12
542.37	713.41
542.72	720.61
543.08	727.64
543.44	734.86
543.79	741.57
544.15	748.48
544.51	755.81
544.87	763.31
545.22	770.37
545.58	777.56
545.94	784.39
546.29	791.44
546.65	798.45
547.01	805.06
547.36	811.63
547.72	818.36
548.07	825.32
548.43	831.80
548.79	838.78
549.14	845.21
549.50	851.51
549.86	857.94
550.21	864.23
550.57	870.92
550.92	877.43
551.28	883.88
551.64	890.13
551.99	896.52
552.35	902.60
552.70	909.06
553.06	915.44
553.41	921.94
553.77	928.30
554.13	934.50
554.48	940.67
554.84	946.98
555.19	953.18
555.55	958.97
555.90	964.82
556.26	970.52
556.61	976.39
556.97	982.17
557.32	987.80
557.68	993.64
558.03	999.46
558.39	1004.95
558.74	1011.04
559.10	1016.80
559.45	1022.13
559.81	1027.89
560.16	1032.96
560.52	1037.83
560.87	1042.82
561.23	1047.54
561.58	1052.37
561.94	1057.03
562.29	1061.40
562.64	1065.90
563.00	1070.17
563.35	1075.24
563.71	1080.29
564.06	1085.13
564.42	1089.79
564.77	1093.87
565.12	1098.26
565.48	1102.19
565.83	1106.37
566.19	1110.59
566.54	1114.47
566.89	1118.57
567.25	1121.96
567.60	1125.87
567.96	1129.86
568.31	1133.64
568.66	1137.55
569.02	1141.11
569.37	1144.66
569.72	1148.16
570.08	1151.25
570.43	1154.58
570.78	1157.17
571.14	1159.22
571.49	1161.60
571.84	1164.76
572.20	1167.68
572.55	1169.97
572.90	1172.34
573.26	1174.70
573.61	1176.66
573.96	1178.71
574.31	1180.34
574.67	1181.73
575.02	1183.10
575.37	1184.66
575.72	1185.48
576.08	1186.72
576.43	1187.87
576.78	1189.28
577.13	1190.62
577.49	1192.26
577.84	1193.35
578.19	1194.40
578.54	1195.67
578.90	1196.27
579.25	1196.13
579.60	1196.64
579.95	1196.84
580.30	1196.88
580.66	1196.72
581.01	1196.36
581.36	1196.49
581.71	1196.50
582.06	1196.94
582.42	1196.75
582.77	1196.24
583.12	1196.43
583.47	1196.15
583.82	1195.91
584.17	1195.05
584.53	1194.57
584.88	1193.79
585.23	1193.27
585.58	1192.72
585.93	1192.28
586.28	1192.33
586.63	1191.71
586.98	1191.08
587.34	1190.47
587.69	1189.89
588.04	1189.24
588.39	1188.95
588.74	1187.28
589.09	1185.63
589.44	1184.18
589.79	1183.36
590.14	1182.53
590.49	1181.00
590.84	1179.50
591.19	1178.31
591.54	1176.51
591.89	1174.14
592.25	1172.44
592.60	1170.15
592.95	1167.68
593.30	1165.19
593.65	1162.44
594.00	1160.30
594.35	1158.56
594.70	1156.16
595.05	1153.94
595.40	1151.50
595.75	1148.69
596.10	1147.08
596.45	1145.47
596.80	1143.56
597.15	1141.05
597.50	1138.42
597.85	1136.48
598.19	1134.50
598.54	1132.25
598.89	1130.32
599.24	1129.07
599.59	1126.88
599.94	1124.99
600.29	1123.35
600.64	1120.91
600.99	1118.63
601.34	1116.15
601.69	1112.98
602.04	1110.90
602.39	1108.36
602.74	1106.24
603.08	1104.17
603.43	1102.01
603.78	1099.49
604.13	1096.94
604.48	1094.35
604.83	1091.63
605.18	1088.92
605.53	1085.63
605.87	1082.18
606.22	1079.43
606.57	1076.03
606.92	1072.69
607.27	1070.11
607.62	1067.09
607.96	1064.64
608.31	1061.91
608.66	1058.84
609.01	1055.64
609.36	1052.09
609.70	1048.14
610.05	1044.34
610.40	1040.88
610.75	1036.85
611.10	1033.25
611.44	1029.36
611.79	1026.08
612.14	1022.75
612.49	1018.57
612.83	1014.98
613.18	1011.40
613.53	1007.45
613.88	1003.38
614.22	999.70
614.57	995.26
614.92	991.18
615.27	987.10
615.61	983.00
615.96	979.14
616.31	975.70
616.65	972.47
617.00	969.20
617.35	965.43
617.70	961.39
618.04	957.50
618.39	953.78
618.74	950.17
619.08	946.31
619.43	942.40
619.78	938.97
620.12	935.25
620.47	931.72
620.82	928.08
621.16	924.63
621.51	921.25
621.85	917.81
622.20	914.26
622.55	910.57
622.89	907.01
623.24	903.68
623.59	900.17
623.93	896.46
624.28	893.07
624.62	889.52
624.97	886.23
625.32	882.73
625.66	879.11
626.01	875.47
626.35	871.58
626.70	867.82
627.04	864.36
627.39	860.57
627.73	856.76
628.08	853.10
628.43	849.37
628.77	845.41
629.12	841.44
629.46	837.59
629.81	833.61
630.15	829.64
630.50	825.59
630.84	821.38
631.19	817.02
631.53	812.76
631.88	808.80
632.22	804.54
632.57	800.76
632.91	796.71
633.26	792.73
633.60	788.77
633.95	785.01
634.29	781.24
634.64	777.66
634.98	773.65
635.32	769.89
635.67	766.28
636.01	762.74
636.36	759.01
636.70	755.60
637.05	752.19
637.39	748.76
637.73	745.24
638.08	742.13
638.42	739.25
638.77	736.05
639.11	732.47
639.45	729.14
639.80	725.50
640.14	722.09
640.49	718.66
640.83	715.23
641.17	711.80
641.52	708.20
641.86	704.67
642.20	701.65
642.55	698.42
642.89	695.30
643.23	691.62
643.58	688.74
643.92	685.33
644.26	681.88
644.61	678.90
644.95	675.49
645.29	671.73
645.64	667.72
645.98	664.33
646.32	661.00
646.66	657.59
647.01	654.42
647.35	650.99
647.69	647.55
648.04	644.58
648.38	641.20
648.72	637.48
649.06	634.02
649.41	630.46
649.75	626.44
650.09	622.72
650.43	619.40
650.78	615.47
651.12	611.80
651.46	608.34
651.80	604.41
652.14	601.11
652.49	597.79
652.83	594.65
653.17	591.27
653.51	587.97
653.85	584.51
654.20	581.16
654.54	577.74
654.88	574.55
655.22	570.88
655.56	567.50
655.90	564.43
656.25	561.12
656.59	558.07
656.93	555.31
657.27	552.16
657.61	549.05
657.95	546.30
658.29	543.38
658.64	540.33
658.98	537.15
659.32	533.98
659.66	530.95
660.00	528.05
660.34	524.97
660.68	522.05
661.02	519.20
661.36	516.36
661.70	513.80
662.05	511.06
662.39	508.74
662.73	506.08
663.07	503.67
663.41	501.46
663.75	498.69
664.09	496.08
664.43	493.49
664.77	490.96
665.11	488.43
665.45	485.91
665.79	483.52
666.13	481.40
666.47	479.10
666.81	476.68
667.15	474.10
667.49	471.90
667.83	469.71
668.17	467.43
668.51	465.10
668.85	462.83
669.19	460.60
669.53	458.10
669.87	455.84
670.21	453.58
670.55	451.29
670.89	449.24
671.23	447.35
671.57	445.24
671.91	443.29
672.25	441.20
672.58	439.27
672.92	437.27
673.26	435.41
673.60	433.39
673.94	431.54
674.28	429.84
674.62	428.15
674.96	426.26
675.30	424.56
675.64	422.95
675.97	421.13
676.31	419.38
676.65	417.70
676.99	416.19
677.33	414.38
677.67	412.49
678.01	410.74
678.34	408.86
678.68	407.43
679.02	405.68
679.36	404.01
679.70	402.33
680.04	400.76
680.37	399.09
680.71	397.45
681.05	395.98
681.39	394.38
681.73	392.68
682.06	391.12
682.40	389.47
682.74	387.94
683.08	386.52
683.42	384.88
683.75	383.40
684.09	381.67
684.43	380.01
684.77	378.60
685.10	377.19
685.44	375.67
685.78	374.05
686.12	372.47
686.45	370.93
686.79	369.43
687.13	367.91
687.46	366.34
687.80	365.04
688.14	363.55
688.48	362.06
688.81	360.63
689.15	359.16
689.49	357.71
689.82	356.10
690.16	354.40
690.50	353.08
690.83	351.61
691.17	350.23
691.51	348.90
691.84	347.54
692.18	346.12
692.52	344.82
692.85	343.49
693.19	342.23
693.52	340.95
693.86	339.51
694.20	338.24
694.53	337.07
694.87	335.67
695.21	334.28
695.54	333.14
695.88	331.91
696.21	330.68
696.55	329.59
696.88	328.37
697.22	327.38
697.56	326.21
697.89	325.03
698.23	323.97
698.56	322.97
698.90	321.76
699.23	320.63
699.57	319.51
699.90	318.44
700.24	317.29
700.58	316.17
700.91	315.25
701.25	314.16
701.58	313.10
701.92	312.17
702.25	311.20
702.59	310.11
702.92	309.16
703.26	308.22
703.59	307.30
703.93	306.68
704.26	305.75
704.60	304.91
704.93	304.08
705.26	303.24
705.60	302.55
705.93	301.76
706.27	301.00
706.60	300.33
706.94	299.63
707.27	298.90
707.61	298.19
707.94	297.52
708.27	296.85
708.61	296.10
708.94	295.31
709.28	294.62
709.61	293.96
709.94	293.37
710.28	292.68
710.61	291.99
710.95	291.20
711.28	290.70
711.61	289.99
711.95	289.40
712.28	288.56
712.61	287.73
712.95	287.21
713.28	286.58
713.61	285.90
713.95	285.13
714.28	284.59
714.61	283.95
714.95	283.30
715.28	282.62
715.61	281.95
715.95	281.47
716.28	281.00
716.61	280.38
716.95	279.73
717.28	279.28
717.61	278.70
717.94	278.15
718.28	277.48
718.61	276.86
718.94	276.41
719.27	275.91
719.61	275.43
719.94	274.81
720.27	274.28
720.60	273.74
720.94	273.34
721.27	272.87
721.60	272.42
721.93	272.01
722.27	271.68
722.60	271.35
722.93	270.91
723.26	270.49
723.59	270.13
723.93	269.69
724.26	269.16
724.59	268.73
724.92	268.25
725.25	267.79
725.59	267.40
725.92	266.86
726.25	266.55
726.58	266.17
726.91	265.82
727.24	265.50
727.57	265.20
727.91	264.75
728.24	264.40
728.57	264.04
728.90	263.58
729.23	263.20
729.56	262.81
729.89	262.39
730.22	261.92
730.55	261.56
730.89	261.22
731.22	260.86
731.55	260.47
731.88	260.09
732.21	259.78
732.54	259.54
732.87	259.22
733.20	258.79
733.53	258.44
733.86	257.98
734.19	257.49
734.52	257.11
734.85	256.91
735.18	256.52
735.51	256.20
735.84	255.86
736.17	255.49
736.50	255.07
736.83	254.88
737.16	254.57
737.49	254.30
737.82	253.85
738.15	253.70
738.48	253.38
738.81	253.06
739.14	252.72
739.47	252.30
739.80	251.90
740.13	251.73
740.46	251.40
740.79	251.24
741.12	251.10
741.45	250.77
741.78	250.39
742.11	250.14
742.44	249.84
742.77	249.60
743.10	249.33
743.43	249.18
743.75	248.76
744.08	248.78
744.41	248.51
744.74	248.33
745.07	248.01
745.40	247.82
745.73	247.71
746.06	247.64
746.39	247.39
746.71	247.27
747.04	247.00
747.37	246.78
747.70	246.75
748.03	246.49
748.36	246.36
748.68	246.14
749.01	245.90
749.34	245.75
749.67	245.65
750.00	245.56
750.33	245.43
750.65	245.29
750.98	244.77
751.31	244.63
751.64	244.48
751.97	244.41
752.29	244.35
752.62	244.18
752.95	243.90
753.28	243.77
753.60	243.55
753.93	243.35
754.26	243.32
754.59	243.07
754.91	242.89
755.24	242.68
755.57	242.55
755.90	242.30
756.22	242.09
756.55	241.94
756.88	241.77
757.20	241.59
757.53	241.43
757.86	241.43
758.19	241.32
758.51	241.25
758.84	241.09
759.17	240.90
759.49	240.68
759.82	240.63
760.15	240.61
760.47	240.54
760.80	240.48
761.13	240.33
761.45	240.19
761.78	240.13
762.11	240.11
762.43	239.94
762.76	239.85
763.08	239.84
763.41	239.70
763.74	239.49
764.06	239.27
764.39	239.23
764.71	239.09
765.04	238.85
765.37	238.72
765.69	238.44
766.02	238.33
766.34	238.22
766.67	238.09
767.00	237.98
767.32	237.89
767.65	237.90
767.97	237.73
768.30	237.62
768.62	237.54
768.95	237.42
769.27	237.36
769.60	237.30
769.92	237.22
770.25	237.13
770.57	237.06
770.90	237.00
771.22	236.80
771.55	236.72
771.87	236.73
772.20	236.60
772.52	236.76
772.85	236.84
773.17	236.69
773.50	236.45
773.82	236.30
774.15	236.12
774.47	235.87
774.80	235.83
775.12	235.75
775.45	235.66
775.77	235.53
776.09	235.45
776.42	235.35
776.74	235.23
777.07	235.03
777.39	235.00
777.72	234.82
778.04	234.78
778.36	234.66
778.69	234.57
779.01	234.54
779.33	234.21
779.66	233.87
779.98	233.93
780.31	234.01
780.63	234.06
780.95	233.99
781.28	233.85
781.60	233.72
781.92	233.49
782.25	233.34
782.57	233.27
782.89	233.23
783.22	233.10
783.54	232.97
783.86	233.00
784.19	232.93
784.51	232.95
784.83	232.90
785.16	232.82
785.48	232.69
785.80	232.54
786.12	232.62
786.45	232.58
786.77	232.44
787.09	232.41
787.42	232.25
787.74	232.33
788.06	232.38
788.38	232.36
788.71	232.48
789.03	232.55
789.35	232.50
789.67	232.37
789.99	232.32
790.32	232.34
790.64	232.41
790.96	232.55
791.28	232.46
791.61	232.41
791.93	232.50
792.25	232.55
792.57	232.65
792.89	232.46
793.21	232.57
793.54	232.55
793.86	232.38
794.18	232.42
794.50	232.32
794.82	232.25
795.14	232.27
795.47	232.27
795.79	232.12
796.11	232.04
796.43	232.08
796.75	232.28
797.07	232.31
797.39	232.16
797.71	232.02
798.04	232.01
798.36	232.00
798.68	231.92
799.00	231.94
799.32	231.89
799.64	231.98
799.96	231.93
800.28	231.97
800.60	232.03
800.92	232.03
801.24	232.08
801.56	232.17
801.89	232.10
802.21	232.09
802.53	232.13
802.85	232.20
803.17	232.33
803.49	232.14
803.81	232.10
804.13	232.11
804.45	232.07
804.77	232.19
805.09	232.16
805.41	232.10
805.73	232.11
806.05	232.06
806.37	232.01
806.69	231.97
807.01	232.00
807.33	232.03
807.65	231.95
807.97	231.99
808.28	231.90
808.60	231.85
808.92	231.78
809.24	231.81
809.56	231.74
809.88	231.58
810.20	231.62
810.52	231.55
810.84	231.50
811.16	231.44
811.48	231.33
811.80	231.32
812.12	231.30
812.43	231.16
812.75	231.08
813.07	231.08
813.39	231.02
813.71	230.85
814.03	230.70
814.35	230.54
814.67	230.44
814.98	230.40
815.30	230.29
815.62	230.13
815.94	230.02
816.26	230.09
816.58	229.99
816.89	230.00
817.21	229.91
817.53	229.91
817.85	229.88
818.17	229.89
818.48	229.79
818.80	229.84
819.12	229.73
819.44	229.82
819.76	229.79
820.07	229.69
820.39	229.67
820.71	229.76
821.03	229.81
821.34	229.71
821.66	229.73
821.98	229.84
822.30	229.86
822.61	229.97
822.93	229.89
823.25	229.77
823.57	229.61
823.88	229.66
824.20	229.61
824.52	229.56
824.83	229.53
825.15	229.46
825.47	229.46
825.79	229.48
826.10	229.37
826.42	229.29
826.74	229.24
827.05	229.22
827.37	229.10
827.69	229.15
828.00	229.16
828.32	229.10
828.64	229.02
828.95	229.08
829.27	228.89
829.58	228.79
829.90	228.86
830.22	228.95
830.53	228.93
830.85	228.92
831.17	228.95
831.48	228.87
831.80	228.87
832.11	228.81
832.43	228.84
832.75	228.77
833.06	228.90
833.38	228.91
833.69	228.94
834.01	228.98
834.32	228.88
834.64	228.90
834.96	228.93
835.27	228.91
835.59	228.91
835.90	228.96
836.22	229.00
836.53	229.09
836.85	229.12
837.16	229.31
837.48	229.29
837.79	229.28
838.11	229.37
838.42	229.45
838.74	229.44
839.05	229.41
839.37	229.48
839.68	229.40
840.00	229.43
840.31	229.50
840.63	229.49
840.94	229.54
841.26	229.56
841.57	229.58
841.88	229.66
842.20	229.65
842.51	229.70
842.83	229.70
843.14	229.87
843.46	229.83
843.77	229.69
844.08	229.65
844.40	229.66
844.71	229.68
845.03	229.65
845.34	229.59
845.65	229.62
845.97	229.66
846.28	229.62
846.60	229.68
846.91	229.49
847.22	229.57
847.54	229.65
847.85	229.60
848.16	229.50
848.48	229.46
848.79	229.48
849.10	229.46
849.42	229.50
849.73	229.23
850.04	229.28
850.36	229.11
850.67	229.19
850.98	229.05
851.30	229.02
851.61	228.98
851.92	229.03
852.23	229.08
852.55	228.95
852.86	229.03
853.17	228.96
853.49	229.07
853.80	228.96
854.11	228.94
854.42	228.97
854.74	228.97
855.05	228.95
855.36	228.77
855.67	228.78
855.99	228.75
856.30	228.90
856.61	228.79
856.92	228.80
857.23	228.73
857.55	228.75
857.86	228.66
858.17	228.67
858.48	228.56
858.79	228.44
859.11	228.49
859.42	228.35
859.73	228.31
860.04	228.29
860.35	228.20
860.66	228.04
860.98	227.99
861.29	228.00
861.60	227.93
861.91	227.99
862.22	227.80
862.53	227.63
862.84	227.49
863.16	227.49
863.47	227.39
863.78	227.35
864.09	227.33
864.40	227.36
864.71	227.34
865.02	227.31
865.33	227.27
865.64	227.21
865.95	227.21
866.27	227.28
866.58	227.28
866.89	227.41
867.20	227.39
867.51	227.33
867.82	227.29
868.13	227.42
868.44	227.49
868.75	227.65
869.06	227.76
869.37	227.74
869.68	227.72
869.99	227.86
870.30	227.88
870.61	227.92
870.92	227.92
871.23	227.90
871.54	227.98
871.85	228.00
872.16	228.18
872.47	228.19
872.78	228.10
873.09	228.23
873.40	228.18
873.71	228.33
874.02	228.38
874.33	228.43
874.64	228.27
874.95	228.25
875.26	228.18
875.56	228.13
875.87	228.16
876.18	228.12
876.49	228.37
876.80	228.49
877.11	228.46
877.42	228.43
877.73	228.53
878.04	228.61
878.35	228.63
878.66	228.55
878.96	228.54
879.27	228.57
879.58	228.52
879.89	228.58
880.20	228.62
880.51	228.63
880.82	228.70
881.12	228.80
881.43	228.77
881.74	228.76
882.05	228.90
882.36	228.90
882.67	229.00
882.97	228.75
883.28	228.67
883.59	228.78
883.90	228.80
884.21	228.81
884.51	228.77
884.82	228.88
885.13	228.93
885.44	228.96
885.74	228.98
886.05	229.00
886.36	228.90
886.67	228.76
886.98	228.82
887.28	228.72
887.59	228.74
887.90	228.83
888.20	228.99
888.51	228.95
888.82	228.97
889.13	229.01
889.43	229.12
889.74	229.15
890.05	229.13
890.35	229.14
890.66	229.06
890.97	229.02
891.28	228.90
891.58	228.79
891.89	228.75
892.20	228.75
892.50	228.67
892.81	228.69
893.12	228.71
893.42	228.67
893.73	228.67
894.04	228.49
894.34	228.52
894.65	228.39
894.95	228.30
895.26	228.26
895.57	228.22
895.87	228.03
896.18	228.00
896.48	227.91
896.79	227.86
897.10	227.89
897.40	227.93
897.71	227.90
898.01	227.95
898.32	228.03
898.63	228.04
898.93	228.03
899.24	227.95
899.54	227.86
899.85	227.77
900.15	227.70
900.46	227.72
900.76	227.61
901.07	227.55
901.38	227.59
901.68	227.47
901.99	227.32
902.29	227.37
902.60	227.30
902.90	227.32
903.21	227.27
903.51	227.26
903.82	227.20
904.12	227.27
904.43	227.23
904.73	227.12
905.03	227.15
905.34	227.28
905.64	227.36
905.95	227.46
906.25	227.50
906.56	227.60
906.86	227.64
907.17	227.70
907.47	227.74
907.77	227.74
908.08	227.75
908.38	227.94
908.69	227.87
908.99	227.83
909.30	227.78
909.60	227.88
909.90	227.84
910.21	227.90
910.51	227.87
910.81	227.86
911.12	227.90
911.42	227.90
911.73	227.77
912.03	227.76
912.33	227.67
912.64	227.69
912.94	227.72
913.24	227.75
913.55	227.71
913.85	227.71
914.15	227.71
914.46	227.77
914.76	227.70
915.06	227.85
915.37	227.91
915.67	227.96
915.97	228.00
916.27	228.02
916.58	227.99
916.88	228.07
917.18	228.11
917.49	228.31
917.79	228.32
918.09	228.38
918.39	228.48
918.70	228.58
919.00	228.63
919.30	228.61
919.60	228.60
919.91	228.60
920.21	228.61
920.51	228.70
920.81	228.73
921.12	228.78
921.42	228.75
921.72	228.72
922.02	228.85
922.32	228.98
922.63	228.92
922.93	229.04
923.23	229.00
923.53	229.02
923.83	228.86
924.13	228.86
924.44	228.87
924.74	228.92
925.04	229.02
925.34	229.00
925.64	229.01
925.94	229.05
926.24	229.19
926.55	229.17
926.85	229.12
927.15	229.25
927.45	229.30
927.75	229.26
928.05	229.32
928.35	229.21
928.65	229.13
928.95	229.28
929.26	229.26
929.56	229.24
929.86	229.24
930.16	229.25
930.46	229.21
930.76	229.25
931.06	229.10
931.36	229.03
931.66	229.08
931.96	229.12
932.26	229.13
932.56	228.97
932.86	228.95
933.16	228.96
933.46	228.90
933.76	228.79
934.06	228.87
934.36	229.02
934.66	229.00
934.96	228.91
935.26	228.88
935.56	228.94
935.86	228.89
936.16	228.77
936.46	228.80
936.76	228.69
937.06	228.59
937.36	228.70
937.66	228.69
937.96	228.65
938.26	228.54
938.56	228.52
938.86	228.64
939.16	228.76
939.46	228.67
939.76	228.56
940.06	228.57
940.35	228.51
940.65	228.31
940.95	228.31
941.25	228.31
941.55	228.22
941.85	228.10
942.15	228.16
942.45	228.24
942.75	228.19
943.04	228.25
943.34	228.21
943.64	228.14
943.94	228.11
944.24	228.10
944.54	228.20
944.84	228.11
945.13	227.95
945.43	227.87
945.73	227.93
946.03	227.96
946.33	227.89
946.62	227.89
946.92	227.90
947.22	227.90
947.52	227.97
947.82	227.99
948.11	227.97
948.41	227.81
948.71	227.78
949.01	227.82
949.31	227.88
949.60	227.93
949.90	227.97
950.20	227.96
950.50	227.95
950.79	227.78
951.09	227.91
951.39	228.06
951.69	228.07
951.98	228.12
952.28	228.22
952.58	228.25
952.87	228.28
953.17	228.25
953.47	228.27
953.76	228.18
954.06	228.18
954.36	228.16
954.66	228.31
954.95	228.30
955.25	228.28
955.55	228.32
955.84	228.20
956.14	228.17
956.44	228.21
956.73	228.27
957.03	228.39
957.32	228.39
957.62	228.42
957.92	228.48
958.21	228.42
958.51	228.52
958.81	228.54
959.10	228.60
959.40	228.71
959.69	228.75
959.99	228.90
960.29	228.88
960.58	228.88
960.88	228.89
961.17	229.01
961.47	229.12
961.76	229.18
962.06	229.30
962.36	229.35
962.65	229.40
962.95	229.34
963.24	229.35
963.54	229.28
963.83	229.20
964.13	229.18
964.42	229.24
964.72	229.07
965.01	229.08
965.31	228.99
965.60	229.04
965.90	229.12
966.19	228.99
966.49	228.99
966.78	228.99
967.08	229.08
967.37	229.07
967.67	228.88
967.96	228.90
968.26	228.88
968.55	228.91
968.85	228.84
969.14	228.81
969.43	228.88
969.73	228.86
970.02	228.73
970.32	228.73
970.61	228.63
970.91	228.71
971.20	228.80
971.49	228.76
971.79	228.65
972.08	228.59
972.38	228.64
972.67	228.69
972.96	228.75
973.26	228.67
973.55	228.61
973.85	228.70
974.14	228.58
974.43	228.59
974.73	228.52
975.02	228.50
975.31	228.56
975.61	228.34
975.90	228.35
976.19	228.35
976.49	228.35
976.78	228.44
977.07	228.29
977.37	228.13
977.66	228.11
977.95	228.19
978.24	228.11
978.54	228.14
978.83	228.05
979.12	228.00
979.42	227.93
979.71	227.91
980.00	227.88
980.29	227.86
980.59	227.82
980.88	227.76
981.17	227.70
981.46	227.67
981.76	227.89
982.05	227.90
982.34	228.05
982.63	228.00
982.93	227.90
983.22	228.00
983.51	228.05
983.80	228.00
984.09	227.91
984.39	227.90
984.68	227.81
984.97	227.88
985.26	227.93
985.55	228.03
985.85	227.94
986.14	227.99
986.43	227.97
986.72	228.01
987.01	228.06
987.30	228.12
987.59	228.12
987.89	228.00
988.18	228.02
988.47	227.99
988.76	228.02
989.05	228.00
989.34	228.03
989.63	228.14
989.92	228.28
990.22	228.35
990.51	228.40
990.80	228.43
991.09	228.50
991.38	228.50
991.67	228.40
991.96	228.41
992.25	228.42
992.54	228.43
992.83	228.40
993.12	228.26
993.41	228.35
993.70	228.39
993.99	228.41
994.28	228.45
994.58	228.46
994.87	228.39
995.16	228.36
995.45	228.32
995.74	228.24
996.03	228.36
996.32	228.27
996.61	228.26
996.90	228.24
997.19	228.28
997.48	228.23
997.77	228.27
998.06	228.34
998.34	228.34
998.63	228.33
998.92	228.34
999.21	228.50
999.50	228.40
999.79	228.45
1000.08	228.50
1000.37	228.50
1000.66	228.50
1000.95	228.56
1001.24	228.65
1001.53	228.72
1001.82	228.67
1002.11	228.51
1002.40	228.57
1002.68	228.64
1002.97	228.75
1003.26	228.58
1003.55	228.58
1003.84	228.65
1004.13	228.77
1004.42	228.71
1004.71	228.83
1004.99	228.86
1005.28	228.86
1005.57	228.85
1005.86	228.71
1006.15	228.67
1006.44	228.62
1006.72	228.55
1007.01	228.48
1007.30	228.51
1007.59	228.43
1007.88	228.45
1008.17	228.43
1008.45	228.42
1008.74	228.27
1009.03	228.23
1009.32	228.30
1009.60	228.25
1009.89	228.03
1010.18	227.84
1010.47	227.83
1010.76	227.76
1011.04	227.74
1011.33	227.71
1011.62	227.74
1011.91	227.79
1012.19	227.77
1012.48	227.65
1012.77	227.68
1013.05	227.76
1013.34	227.68
1013.63	227.61
1013.92	227.57
1014.20	227.52
1014.49	227.49
1014.78	227.64
1015.06	227.54
1015.35	227.48
1015.64	227.52
1015.92	227.74
1016.21	227.75
1016.50	227.71
1016.78	227.71
1017.07	227.64
1017.36	227.58
1017.64	227.59
1017.93	227.50
1018.22	227.47
1018.50	227.54
1018.79	227.58
1019.08	227.46
1019.36	227.49
1019.65	227.49
1019.93	227.45
1020.22	227.47
1020.51	227.61
1020.79	227.49
1021.08	226.70
1021.36	227.50
1021.65	228.60
1021.94	226.10
1022.22	227.70
1022.51	226.90
1022.79	225.90
1023.08	226.80
1023.36	230.70
1023.65	227.30
>>>>>End Processed Spectral Data<<<<<
