SpectraSuite Data File
++++++++++++++++++++++++++++++++++++
Date: Fri Feb 01 14:35:56 EST 2013
User: group
Dark Spectrum Present: No
Reference Spectrum Present: No
Number of Sampled Component Spectra: 1
Spectrometers: USB2E7196
Integration Time (usec): 70000 (USB2E7196)
Spectra Averaged: 10 (USB2E7196)
Boxcar Smoothing: 10 (USB2E7196)
Correct for Electrical Dark: No (USB2E7196)
Strobe/Lamp Enabled: No (USB2E7196)
Correct for Detector Non-linearity: No (USB2E7196)
Correct for Stray Light: No (USB2E7196)
Number of Pixels in Processed Spectrum: 2048
>>>>>Begin Processed Spectral Data<<<<<
339.09	0.00
339.48	216.60
339.86	217.90
340.24	218.50
340.63	220.30
341.01	226.90
341.39	223.00
341.78	224.50
342.16	226.60
342.54	227.00
342.93	215.05
343.31	225.95
343.69	226.57
344.07	227.02
344.46	227.50
344.84	227.83
345.22	227.93
345.60	228.18
345.99	228.29
346.37	228.40
346.75	228.50
347.13	228.56
347.52	228.61
347.90	228.73
348.28	228.66
348.66	228.65
349.05	228.60
349.43	228.71
349.81	228.72
350.19	228.77
350.57	228.74
350.96	228.79
351.34	228.80
351.72	228.80
352.10	228.84
352.48	228.90
352.87	229.02
353.25	229.03
353.63	229.17
354.01	229.18
354.39	229.20
354.77	229.21
355.15	229.42
355.54	229.46
355.92	229.42
356.30	229.57
356.68	229.83
357.06	229.92
357.44	229.90
357.82	230.00
358.20	230.10
358.58	230.25
358.97	230.31
359.35	230.31
359.73	230.43
360.11	230.49
360.49	230.52
360.87	230.48
361.25	230.48
361.63	230.52
362.01	230.72
362.39	230.77
362.77	230.75
363.15	230.56
363.53	230.50
363.91	230.50
364.29	230.45
364.67	230.18
365.05	230.13
365.43	230.20
365.81	230.10
366.19	230.14
366.57	230.24
366.95	230.09
367.33	230.09
367.71	229.95
368.09	230.04
368.47	230.02
368.85	230.03
369.23	230.13
369.61	230.01
369.99	229.92
370.37	229.78
370.75	229.89
371.13	229.80
371.51	229.70
371.89	229.72
372.27	229.66
372.65	229.66
373.03	229.59
373.41	229.45
373.78	229.38
374.16	229.21
374.54	229.05
374.92	229.10
375.30	229.03
375.68	229.01
376.06	228.83
376.44	228.69
376.82	228.59
377.19	228.46
377.57	228.30
377.95	228.31
378.33	228.27
378.71	228.10
379.09	228.15
379.47	228.07
379.84	228.00
380.22	227.89
380.60	227.81
380.98	227.78
381.36	227.82
381.73	227.76
382.11	227.65
382.49	227.60
382.87	227.44
383.25	227.38
383.62	227.55
384.00	227.49
384.38	227.51
384.76	227.53
385.13	227.53
385.51	227.50
385.89	227.30
386.27	227.40
386.64	227.28
387.02	227.15
387.40	227.25
387.78	227.22
388.15	227.25
388.53	227.23
388.91	227.20
389.29	227.06
389.66	227.00
390.04	227.02
390.42	226.99
390.79	227.06
391.17	227.12
391.55	226.89
391.92	226.80
392.30	226.89
392.68	226.83
393.05	226.77
393.43	226.88
393.81	226.89
394.18	226.79
394.56	226.94
394.94	227.11
395.31	227.17
395.69	227.30
396.06	227.46
396.44	227.52
396.82	227.60
397.19	227.87
397.57	227.87
397.95	227.96
398.32	227.99
398.70	228.20
399.07	228.31
399.45	228.36
399.82	228.53
400.20	228.53
400.58	228.63
400.95	228.80
401.33	228.94
401.70	229.38
402.08	229.52
402.45	229.62
402.83	229.84
403.20	229.95
403.58	230.07
403.95	230.20
404.33	230.38
404.71	230.54
405.08	230.72
405.46	231.16
405.83	231.43
406.21	231.72
406.58	231.93
406.96	232.10
407.33	232.50
407.70	232.93
408.08	233.47
408.45	233.98
408.83	234.42
409.20	234.84
409.58	235.10
409.95	235.70
410.33	236.28
410.70	236.65
411.08	237.28
411.45	237.84
411.82	238.51
412.20	239.27
412.57	240.15
412.95	240.85
413.32	241.71
413.69	242.59
414.07	243.50
414.44	244.48
414.82	245.62
415.19	246.79
415.56	248.03
415.94	249.20
416.31	250.57
416.68	251.93
417.06	253.49
417.43	255.01
417.81	256.74
418.18	258.43
418.55	260.39
418.93	262.32
419.30	264.38
419.67	266.50
420.04	268.72
420.42	271.00
420.79	273.74
421.16	276.33
421.54	279.23
421.91	282.04
422.28	285.07
422.66	288.34
423.03	291.61
423.40	294.80
423.77	298.18
424.15	301.71
424.52	305.52
424.89	309.60
425.26	313.41
425.64	317.08
426.01	321.13
426.38	325.32
426.75	329.71
427.13	334.16
427.50	338.90
427.87	343.80
428.24	348.71
428.61	353.18
428.99	358.21
429.36	363.72
429.73	369.29
430.10	374.69
430.47	379.99
430.85	385.50
431.22	391.59
431.59	398.17
431.96	404.29
432.33	410.83
432.70	417.39
433.08	425.15
433.45	432.41
433.82	439.70
434.19	447.74
434.56	455.30
434.93	462.83
435.30	470.05
435.68	478.11
436.05	486.16
436.42	494.37
436.79	501.77
437.16	509.38
437.53	517.62
437.90	525.83
438.27	534.02
438.64	542.30
439.01	549.71
439.38	556.61
439.75	563.42
440.13	571.02
440.50	578.39
440.87	584.44
441.24	590.72
441.61	597.59
441.98	602.78
442.35	608.97
442.72	615.17
443.09	621.35
443.46	625.20
443.83	627.84
444.20	630.11
444.57	633.56
444.94	635.80
445.31	637.83
445.68	639.89
446.05	641.44
446.42	641.85
446.79	642.21
447.16	642.00
447.53	642.10
447.90	639.98
448.27	637.60
448.64	634.20
449.01	632.04
449.37	627.55
449.74	623.10
450.11	617.57
450.48	611.46
450.85	605.24
451.22	600.28
451.59	595.40
451.96	590.76
452.33	584.21
452.70	578.30
453.07	571.00
453.43	563.71
453.80	556.25
454.17	549.05
454.54	542.30
454.91	535.02
455.28	528.01
455.65	521.72
456.02	515.19
456.38	509.42
456.75	502.06
457.12	496.21
457.49	490.20
457.86	484.63
458.23	479.72
458.59	474.20
458.96	468.52
459.33	463.56
459.70	458.71
460.07	454.64
460.43	449.84
460.80	445.48
461.17	441.40
461.54	437.42
461.91	433.61
462.27	429.71
462.64	426.31
463.01	422.34
463.38	418.53
463.74	414.80
464.11	411.66
464.48	408.98
464.85	405.61
465.21	403.24
465.58	400.58
465.95	397.37
466.32	394.74
466.68	392.04
467.05	389.60
467.42	386.97
467.78	384.27
468.15	381.74
468.52	379.83
468.88	377.36
469.25	375.10
469.62	373.12
469.98	370.99
470.35	369.16
470.72	367.49
471.08	365.60
471.45	363.97
471.82	362.21
472.18	360.40
472.55	359.16
472.92	357.63
473.28	356.12
473.65	354.80
474.02	353.39
474.38	352.22
474.75	351.03
475.11	349.85
475.48	349.02
475.85	348.27
476.21	347.39
476.58	346.70
476.94	346.03
477.31	345.36
477.67	344.80
478.04	344.25
478.41	343.86
478.77	343.53
479.14	343.06
479.50	342.78
479.87	342.60
480.23	342.48
480.60	342.22
480.96	342.00
481.33	342.05
481.69	342.11
482.06	342.21
482.42	342.05
482.79	342.27
483.15	342.40
483.52	342.70
483.88	342.88
484.25	343.08
484.61	343.38
484.98	343.74
485.34	344.32
485.71	344.92
486.07	345.56
486.44	346.06
486.80	346.90
487.17	347.65
487.53	348.50
487.90	349.41
488.26	350.50
488.62	351.61
488.99	352.47
489.35	353.49
489.72	354.58
490.08	355.94
490.44	357.06
490.81	358.35
491.17	359.42
491.54	360.89
491.90	362.30
492.26	363.68
492.63	365.23
492.99	366.62
493.36	368.21
493.72	369.78
494.08	371.42
494.45	373.08
494.81	374.94
495.17	376.68
495.54	378.39
495.90	380.16
496.26	382.04
496.63	384.29
496.99	386.24
497.35	388.14
497.72	390.19
498.08	392.15
498.44	394.22
498.80	396.53
499.17	398.55
499.53	400.60
499.89	402.82
500.26	404.93
500.62	407.14
500.98	409.50
501.34	411.59
501.71	413.72
502.07	415.70
502.43	417.75
502.79	419.86
503.16	421.81
503.52	423.79
503.88	425.65
504.24	427.32
504.60	429.21
504.97	431.07
505.33	432.90
505.69	434.84
506.05	436.63
506.41	438.14
506.78	439.66
507.14	441.23
507.50	442.91
507.86	444.55
508.22	446.11
508.59	447.19
508.95	448.67
509.31	450.20
509.67	451.81
510.03	453.11
510.39	454.16
510.75	455.36
511.12	456.47
511.48	457.76
511.84	458.98
512.20	460.07
512.56	461.08
512.92	462.13
513.28	463.09
513.64	463.75
514.00	464.77
514.37	465.90
514.73	466.75
515.09	467.47
515.45	468.11
515.81	468.57
516.17	469.20
516.53	469.95
516.89	470.53
517.25	470.88
517.61	471.40
517.97	471.98
518.33	472.50
518.69	473.15
519.05	473.63
519.41	474.14
519.77	474.66
520.13	475.18
520.49	475.54
520.85	475.93
521.21	476.60
521.57	477.08
521.93	477.27
522.29	477.90
522.65	478.43
523.01	478.90
523.37	479.36
523.73	480.20
524.09	480.47
524.45	480.99
524.81	481.65
525.17	482.32
525.53	483.23
525.89	484.10
526.25	484.90
526.61	485.46
526.97	486.13
527.33	487.02
527.68	488.26
528.04	489.38
528.40	490.47
528.76	491.63
529.12	492.82
529.48	494.41
529.84	495.57
530.20	496.80
530.56	498.38
530.91	500.18
531.27	501.72
531.63	503.51
531.99	505.21
532.35	506.87
532.71	508.55
533.07	510.38
533.42	512.41
533.78	514.13
534.14	516.32
534.50	518.27
534.86	520.38
535.21	522.10
535.57	524.37
535.93	526.80
536.29	529.28
536.65	531.75
537.00	533.91
537.36	536.49
537.72	538.98
538.08	541.50
538.44	544.00
538.79	546.56
539.15	549.18
539.51	552.08
539.87	554.98
540.22	557.88
540.58	560.81
540.94	563.67
541.29	566.68
541.65	569.74
542.01	573.31
542.37	576.58
542.72	579.91
543.08	582.97
543.44	586.33
543.79	589.27
544.15	592.50
544.51	596.28
544.87	599.78
545.22	603.44
545.58	606.84
545.94	610.42
546.29	613.95
546.65	617.61
547.01	621.06
547.36	624.65
547.72	628.39
548.07	631.84
548.43	635.43
548.79	639.18
549.14	642.75
549.50	646.08
549.86	649.54
550.21	653.33
550.57	657.20
550.92	660.67
551.28	664.43
551.64	668.04
551.99	671.58
552.35	675.23
552.70	679.03
553.06	682.71
553.41	686.42
553.77	690.18
554.13	693.80
554.48	697.56
554.84	701.35
555.19	704.89
555.55	708.89
555.90	712.68
556.26	716.14
556.61	719.85
556.97	723.58
557.32	727.46
557.68	730.98
558.03	734.72
558.39	738.26
558.74	742.03
559.10	745.84
559.45	749.50
559.81	753.34
560.16	756.85
560.52	760.86
560.87	764.55
561.23	767.82
561.58	771.64
561.94	775.10
562.29	778.39
562.64	781.67
563.00	785.16
563.35	788.47
563.71	792.35
564.06	795.86
564.42	799.29
564.77	802.58
565.12	806.13
565.48	809.38
565.83	812.79
566.19	815.85
566.54	818.76
566.89	821.71
567.25	824.55
567.60	827.76
567.96	830.57
568.31	833.61
568.66	836.57
569.02	839.35
569.37	842.06
569.72	845.08
570.08	847.78
570.43	850.06
570.78	852.46
571.14	854.51
571.49	856.65
571.84	859.47
572.20	861.81
572.55	863.96
572.90	865.75
573.26	867.77
573.61	869.88
573.96	871.71
574.31	873.32
574.67	874.70
575.02	875.93
575.37	877.16
575.72	878.15
576.08	879.60
576.43	880.55
576.78	882.11
577.13	882.98
577.49	884.21
577.84	885.34
578.19	886.45
578.54	887.66
578.90	888.57
579.25	888.48
579.60	889.05
579.95	889.45
580.30	889.93
580.66	890.22
581.01	890.56
581.36	891.25
581.71	891.87
582.06	892.59
582.42	893.05
582.77	893.48
583.12	893.72
583.47	894.01
583.82	894.51
584.17	894.33
584.53	894.74
584.88	894.96
585.23	894.73
585.58	894.87
585.93	894.60
586.28	894.82
586.63	895.49
586.98	895.33
587.34	895.42
587.69	895.64
588.04	895.61
588.39	895.53
588.74	894.73
589.09	894.35
589.44	893.87
589.79	893.56
590.14	893.26
590.49	892.77
590.84	891.82
591.19	891.12
591.54	890.04
591.89	888.68
592.25	887.70
592.60	886.72
592.95	885.33
593.30	884.08
593.65	882.69
594.00	881.06
594.35	880.39
594.70	878.69
595.05	877.36
595.40	875.95
595.75	874.21
596.10	873.06
596.45	871.76
596.80	870.49
597.15	868.98
597.50	867.29
597.85	865.97
598.19	864.85
598.54	863.25
598.89	862.07
599.24	861.07
599.59	859.60
599.94	858.34
600.29	856.87
600.64	855.37
600.99	853.76
601.34	852.17
601.69	849.89
602.04	848.36
602.39	846.60
602.74	845.29
603.08	843.89
603.43	842.53
603.78	840.84
604.13	838.99
604.48	837.13
604.83	835.67
605.18	834.06
605.53	832.10
605.87	829.96
606.22	828.10
606.57	825.98
606.92	824.03
607.27	822.10
607.62	820.46
607.96	818.81
608.31	817.04
608.66	815.04
609.01	812.85
609.36	810.52
609.70	807.77
610.05	805.00
610.40	802.78
610.75	800.22
611.10	797.34
611.44	794.54
611.79	792.20
612.14	789.41
612.49	786.20
612.83	783.44
613.18	780.88
613.53	778.11
613.88	775.19
614.22	772.35
614.57	769.36
614.92	766.33
615.27	763.46
615.61	760.51
615.96	757.70
616.31	755.51
616.65	753.25
617.00	751.06
617.35	748.78
617.70	745.64
618.04	742.81
618.39	740.48
618.74	738.10
619.08	735.33
619.43	732.64
619.78	730.21
620.12	727.73
620.47	725.37
620.82	722.77
621.16	720.25
621.51	717.76
621.85	715.35
622.20	712.70
622.55	710.06
622.89	707.41
623.24	704.93
623.59	702.29
623.93	699.65
624.28	697.08
624.62	694.30
624.97	692.29
625.32	689.86
625.66	687.56
626.01	684.99
626.35	682.28
626.70	679.78
627.04	677.63
627.39	674.71
627.73	672.07
628.08	669.51
628.43	666.92
628.77	664.41
629.12	661.71
629.46	659.26
629.81	656.71
630.15	654.14
630.50	651.49
630.84	648.45
631.19	645.70
631.53	643.07
631.88	640.17
632.22	637.08
632.57	634.54
632.91	631.43
633.26	628.51
633.60	625.87
633.95	623.21
634.29	620.35
634.64	618.20
634.98	615.61
635.32	613.30
635.67	611.09
636.01	608.51
636.36	606.08
636.70	603.74
637.05	601.20
637.39	599.01
637.73	596.44
638.08	594.40
638.42	591.82
638.77	589.44
639.11	587.10
639.45	584.91
639.80	582.35
640.14	580.16
640.49	578.15
640.83	575.78
641.17	573.39
641.52	571.04
641.86	568.60
642.20	566.25
642.55	563.74
642.89	561.31
643.23	558.90
643.58	556.63
643.92	554.00
644.26	551.65
644.61	549.29
644.95	546.98
645.29	544.24
645.64	541.97
645.98	539.42
646.32	537.30
646.66	535.01
647.01	532.63
647.35	530.24
647.69	527.85
648.04	525.81
648.38	523.40
648.72	521.00
649.06	518.64
649.41	516.07
649.75	513.48
650.09	510.86
650.43	508.40
650.78	505.90
651.12	503.67
651.46	501.45
651.80	499.12
652.14	496.94
652.49	494.82
652.83	492.75
653.17	490.50
653.51	488.09
653.85	485.64
654.20	483.40
654.54	481.15
654.88	478.72
655.22	476.09
655.56	473.81
655.90	471.60
656.25	469.33
656.59	467.24
656.93	465.27
657.27	463.21
657.61	461.10
657.95	459.10
658.29	456.99
658.64	454.95
658.98	452.76
659.32	450.68
659.66	448.53
660.00	446.31
660.34	444.37
660.68	442.36
661.02	440.39
661.36	438.57
661.70	436.55
662.05	434.80
662.39	433.21
662.73	431.42
663.07	429.77
663.41	428.07
663.75	426.39
664.09	424.72
664.43	422.95
664.77	421.28
665.11	419.53
665.45	417.91
665.79	416.10
666.13	414.41
666.47	412.53
666.81	410.87
667.15	409.03
667.49	407.33
667.83	405.80
668.17	404.28
668.51	402.48
668.85	400.96
669.19	399.47
669.53	397.77
669.87	396.28
670.21	394.62
670.55	393.09
670.89	391.80
671.23	390.16
671.57	388.80
671.91	387.40
672.25	386.04
672.58	384.50
672.92	383.03
673.26	381.71
673.60	380.49
673.94	379.28
674.28	378.12
674.62	376.95
674.96	375.59
675.30	374.35
675.64	373.17
675.97	371.93
676.31	370.55
676.65	369.40
676.99	368.26
677.33	367.03
677.67	365.86
678.01	364.34
678.34	363.16
678.68	361.96
679.02	360.76
679.36	359.46
679.70	358.33
680.04	357.13
680.37	355.85
680.71	354.68
681.05	353.49
681.39	352.52
681.73	351.36
682.06	350.37
682.40	349.13
682.74	348.04
683.08	347.02
683.42	345.94
683.75	344.94
684.09	343.69
684.43	342.61
684.77	341.40
685.10	340.36
685.44	339.33
685.78	338.34
686.12	337.20
686.45	336.20
686.79	335.00
687.13	334.04
687.46	332.94
687.80	331.88
688.14	330.74
688.48	329.58
688.81	328.63
689.15	327.53
689.49	326.65
689.82	325.70
690.16	324.62
690.50	323.56
690.83	322.46
691.17	321.51
691.51	320.57
691.84	319.68
692.18	318.77
692.52	317.90
692.85	316.93
693.19	316.05
693.52	315.07
693.86	314.35
694.20	313.47
694.53	312.59
694.87	311.61
695.21	310.69
695.54	309.90
695.88	308.93
696.21	308.02
696.55	307.09
696.88	306.15
697.22	305.21
697.56	304.49
697.89	303.50
698.23	302.73
698.56	301.79
698.90	300.98
699.23	300.07
699.57	299.17
699.90	298.22
700.24	297.34
700.58	296.45
700.91	295.52
701.25	294.82
701.58	294.09
701.92	293.49
702.25	292.86
702.59	292.00
702.92	291.31
703.26	290.62
703.59	289.94
703.93	289.50
704.26	288.89
704.60	288.13
704.93	287.65
705.26	286.93
705.60	286.34
705.93	285.80
706.27	285.26
706.60	284.72
706.94	284.30
707.27	283.67
707.61	283.23
707.94	282.75
708.27	282.11
708.61	281.57
708.94	280.86
709.28	280.30
709.61	279.80
709.94	279.26
710.28	278.74
710.61	278.12
710.95	277.37
711.28	277.01
711.61	276.55
711.95	276.04
712.28	275.43
712.61	275.00
712.95	274.46
713.28	274.13
713.61	273.50
713.95	273.02
714.28	272.70
714.61	272.20
714.95	271.73
715.28	271.21
715.61	270.70
715.95	270.38
716.28	269.97
716.61	269.54
716.95	269.07
717.28	268.55
717.61	268.26
717.94	267.94
718.28	267.37
718.61	267.00
718.94	266.56
719.27	266.33
719.61	265.94
719.94	265.57
720.27	265.10
720.60	264.78
720.94	264.25
721.27	263.85
721.60	263.52
721.93	263.24
722.27	262.95
722.60	262.82
722.93	262.46
723.26	262.05
723.59	261.79
723.93	261.48
724.26	261.24
724.59	260.90
724.92	260.51
725.25	260.20
725.59	259.85
725.92	259.61
726.25	259.28
726.58	258.84
726.91	258.55
727.24	258.20
727.57	257.99
727.91	257.83
728.24	257.57
728.57	257.25
728.90	256.91
729.23	256.54
729.56	256.27
729.89	256.04
730.22	255.78
730.55	255.47
730.89	255.20
731.22	254.95
731.55	254.59
731.88	254.35
732.21	254.16
732.54	253.91
732.87	253.57
733.20	253.27
733.53	253.08
733.86	252.86
734.19	252.61
734.52	252.35
734.85	252.19
735.18	251.94
735.51	251.77
735.84	251.55
736.17	251.36
736.50	250.88
736.83	250.73
737.16	250.49
737.49	250.19
737.82	249.88
738.15	249.62
738.48	249.39
738.81	249.17
739.14	248.85
739.47	248.47
739.80	248.23
740.13	248.10
740.46	247.94
740.79	247.67
741.12	247.47
741.45	247.15
741.78	246.82
742.11	246.78
742.44	246.51
742.77	246.31
743.10	246.13
743.43	245.95
743.75	245.62
744.08	245.58
744.41	245.43
744.74	245.28
745.07	245.00
745.40	244.92
745.73	244.73
746.06	244.58
746.39	244.53
746.71	244.27
747.04	244.02
747.37	243.80
747.70	243.56
748.03	243.31
748.36	243.22
748.68	243.01
749.01	242.61
749.34	242.42
749.67	242.24
750.00	242.09
750.33	242.16
750.65	241.93
750.98	241.68
751.31	241.54
751.64	241.40
751.97	241.48
752.29	241.30
752.62	241.12
752.95	240.88
753.28	240.69
753.60	240.58
753.93	240.49
754.26	240.36
754.59	240.19
754.91	240.08
755.24	239.92
755.57	239.77
755.90	239.70
756.22	239.58
756.55	239.41
756.88	239.28
757.20	239.04
757.53	238.99
757.86	238.84
758.19	238.72
758.51	238.63
758.84	238.29
759.17	238.20
759.49	238.22
759.82	238.38
760.15	238.29
760.47	238.21
760.80	238.06
761.13	237.98
761.45	237.98
761.78	237.92
762.11	237.84
762.43	237.81
762.76	237.73
763.08	237.75
763.41	237.84
763.74	237.76
764.06	237.63
764.39	237.50
764.71	237.41
765.04	237.43
765.37	237.35
765.69	237.37
766.02	237.13
766.34	236.98
766.67	236.74
767.00	236.73
767.32	236.80
767.65	236.70
767.97	236.67
768.30	236.61
768.62	236.50
768.95	236.48
769.27	236.37
769.60	236.39
769.92	236.21
770.25	236.02
770.57	235.87
770.90	235.71
771.22	235.67
771.55	235.63
771.87	235.42
772.20	235.39
772.52	235.45
772.85	235.69
773.17	235.50
773.50	235.43
773.82	235.33
774.15	235.20
774.47	235.14
774.80	234.96
775.12	234.79
775.45	234.71
775.77	234.57
776.09	234.55
776.42	234.35
776.74	234.26
777.07	234.00
777.39	234.02
777.72	233.99
778.04	233.85
778.36	233.77
778.69	233.68
779.01	233.58
779.33	233.28
779.66	232.94
779.98	232.89
780.31	232.79
780.63	232.78
780.95	232.75
781.28	232.76
781.60	232.75
781.92	232.70
782.25	232.58
782.57	232.50
782.89	232.37
783.22	232.29
783.54	232.20
783.86	232.27
784.19	232.18
784.51	232.20
784.83	232.17
785.16	232.08
785.48	232.08
785.80	232.03
786.12	232.03
786.45	232.14
786.77	232.13
787.09	232.02
787.42	231.93
787.74	231.74
788.06	231.68
788.38	231.59
788.71	231.45
789.03	231.50
789.35	231.47
789.67	231.41
789.99	231.40
790.32	231.37
790.64	231.32
790.96	231.40
791.28	231.25
791.61	231.14
791.93	231.07
792.25	231.01
792.57	231.04
792.89	231.00
793.21	230.83
793.54	230.86
793.86	230.81
794.18	230.79
794.50	230.71
794.82	230.57
795.14	230.60
795.47	230.77
795.79	230.75
796.11	230.64
796.43	230.59
796.75	230.56
797.07	230.51
797.39	230.51
797.71	230.36
798.04	230.41
798.36	230.45
798.68	230.47
799.00	230.52
799.32	230.51
799.64	230.41
799.96	230.52
800.28	230.47
800.60	230.47
800.92	230.49
801.24	230.57
801.56	230.74
801.89	230.69
802.21	230.62
802.53	230.68
802.85	230.80
803.17	230.86
803.49	230.84
803.81	230.88
804.13	230.87
804.45	230.86
804.77	230.82
805.09	230.80
805.41	230.88
805.73	230.83
806.05	230.72
806.37	230.82
806.69	230.78
807.01	230.85
807.33	230.89
807.65	230.76
807.97	230.88
808.28	230.87
808.60	230.89
808.92	230.90
809.24	230.99
809.56	230.97
809.88	230.95
810.20	231.00
810.52	231.04
810.84	231.10
811.16	231.08
811.48	231.12
811.80	231.20
812.12	231.11
812.43	231.10
812.75	231.23
813.07	231.17
813.39	231.11
813.71	230.94
814.03	230.92
814.35	230.97
814.67	230.77
814.98	230.59
815.30	230.55
815.62	230.48
815.94	230.24
816.26	230.32
816.58	230.24
816.89	230.27
817.21	230.17
817.53	230.10
817.85	230.08
818.17	229.98
818.48	229.80
818.80	229.82
819.12	229.73
819.44	229.55
819.76	229.53
820.07	229.43
820.39	229.53
820.71	229.54
821.03	229.44
821.34	229.41
821.66	229.39
821.98	229.38
822.30	229.33
822.61	229.44
822.93	229.21
823.25	229.20
823.57	229.06
823.88	229.10
824.20	229.05
824.52	229.03
824.83	228.93
825.15	228.90
825.47	228.78
825.79	228.82
826.10	228.83
826.42	228.74
826.74	228.84
827.05	228.67
827.37	228.57
827.69	228.51
828.00	228.53
828.32	228.57
828.64	228.49
828.95	228.63
829.27	228.55
829.58	228.58
829.90	228.53
830.22	228.58
830.53	228.55
830.85	228.64
831.17	228.53
831.48	228.65
831.80	228.72
832.11	228.69
832.43	228.64
832.75	228.53
833.06	228.66
833.38	228.57
833.69	228.60
834.01	228.71
834.32	228.66
834.64	228.70
834.96	228.70
835.27	228.73
835.59	228.70
835.90	228.62
836.22	228.68
836.53	228.69
836.85	228.68
837.16	228.85
837.48	228.79
837.79	228.86
838.11	228.85
838.42	228.74
838.74	228.88
839.05	228.90
839.37	229.00
839.68	228.92
840.00	228.94
840.31	229.03
840.63	229.00
840.94	229.11
841.26	229.17
841.57	229.23
841.88	229.32
842.20	229.15
842.51	229.19
842.83	229.23
843.14	229.52
843.46	229.50
843.77	229.35
844.08	229.30
844.40	229.35
844.71	229.38
845.03	229.45
845.34	229.37
845.65	229.27
845.97	229.30
846.28	229.30
846.60	229.40
846.91	229.38
847.22	229.43
847.54	229.52
847.85	229.52
848.16	229.50
848.48	229.38
848.79	229.50
849.10	229.50
849.42	229.45
849.73	229.25
850.04	229.19
850.36	229.20
850.67	229.21
850.98	229.23
851.30	229.24
851.61	229.23
851.92	229.26
852.23	229.43
852.55	229.47
852.86	229.42
853.17	229.36
853.49	229.36
853.80	229.31
854.11	229.30
854.42	229.21
854.74	229.10
855.05	229.14
855.36	229.09
855.67	229.14
855.99	229.10
856.30	229.25
856.61	229.22
856.92	229.25
857.23	229.22
857.55	229.27
857.86	229.17
858.17	229.27
858.48	229.24
858.79	229.19
859.11	229.15
859.42	229.16
859.73	229.12
860.04	229.12
860.35	229.10
860.66	228.96
860.98	228.95
861.29	228.97
861.60	228.92
861.91	228.93
862.22	228.80
862.53	228.72
862.84	228.50
863.16	228.51
863.47	228.35
863.78	228.23
864.09	228.04
864.40	228.04
864.71	227.93
865.02	227.89
865.33	227.75
865.64	227.64
865.95	227.63
866.27	227.74
866.58	227.67
866.89	227.70
867.20	227.76
867.51	227.75
867.82	227.79
868.13	227.85
868.44	227.74
868.75	227.84
869.06	227.90
869.37	227.94
869.68	227.91
869.99	228.03
870.30	228.18
870.61	228.23
870.92	228.30
871.23	228.30
871.54	228.40
871.85	228.61
872.16	228.73
872.47	228.75
872.78	228.78
873.09	228.87
873.40	228.84
873.71	228.74
874.02	228.79
874.33	228.77
874.64	228.70
874.95	228.84
875.26	228.75
875.56	228.75
875.87	228.73
876.18	228.81
876.49	229.03
876.80	228.94
877.11	228.97
877.42	228.99
877.73	229.04
878.04	229.10
878.35	229.11
878.66	229.11
878.96	229.15
879.27	229.10
879.58	229.01
879.89	228.95
880.20	229.11
880.51	229.14
880.82	229.13
881.12	229.15
881.43	229.08
881.74	229.11
882.05	229.14
882.36	229.16
882.67	229.19
882.97	229.00
883.28	229.06
883.59	229.04
883.90	229.14
884.21	229.22
884.51	229.13
884.82	228.99
885.13	229.00
885.44	229.07
885.74	229.05
886.05	229.12
886.36	229.20
886.67	229.23
886.98	229.33
887.28	229.42
887.59	229.41
887.90	229.39
888.20	229.43
888.51	229.45
888.82	229.48
889.13	229.51
889.43	229.67
889.74	229.65
890.05	229.60
890.35	229.53
890.66	229.44
890.97	229.44
891.28	229.56
891.58	229.45
891.89	229.31
892.20	229.34
892.50	229.34
892.81	229.35
893.12	229.30
893.42	229.19
893.73	229.17
894.04	229.19
894.34	229.24
894.65	229.31
894.95	229.33
895.26	229.28
895.57	229.25
895.87	229.18
896.18	229.23
896.48	229.31
896.79	229.21
897.10	229.21
897.40	229.22
897.71	229.10
898.01	229.11
898.32	229.10
898.63	228.97
898.93	228.88
899.24	228.79
899.54	228.72
899.85	228.71
900.15	228.63
900.46	228.60
900.76	228.58
901.07	228.38
901.38	228.37
901.68	228.37
901.99	228.30
902.29	228.19
902.60	228.19
902.90	228.12
903.21	228.12
903.51	228.01
903.82	228.00
904.12	228.01
904.43	228.03
904.73	227.99
905.03	228.07
905.34	228.21
905.64	228.23
905.95	228.23
906.25	228.27
906.56	228.36
906.86	228.35
907.17	228.42
907.47	228.47
907.77	228.40
908.08	228.38
908.38	228.50
908.69	228.43
908.99	228.43
909.30	228.58
909.60	228.47
909.90	228.57
910.21	228.49
910.51	228.46
910.81	228.33
911.12	228.52
911.42	228.43
911.73	228.30
912.03	228.36
912.33	228.18
912.64	228.15
912.94	228.09
913.24	228.13
913.55	228.01
913.85	227.99
914.15	228.15
914.46	228.19
914.76	228.07
915.06	228.08
915.37	228.08
915.67	227.98
915.97	228.13
916.27	228.12
916.58	228.19
916.88	228.14
917.18	228.34
917.49	228.43
917.79	228.51
918.09	228.62
918.39	228.61
918.70	228.78
919.00	228.78
919.30	228.98
919.60	229.02
919.91	229.01
920.21	229.06
920.51	228.94
920.81	228.98
921.12	229.10
921.42	229.10
921.72	229.10
922.02	229.09
922.32	229.17
922.63	229.17
922.93	229.23
923.23	229.29
923.53	229.25
923.83	229.08
924.13	229.08
924.44	228.94
924.74	229.07
925.04	229.10
925.34	229.08
925.64	228.98
925.94	228.89
926.24	229.00
926.55	229.01
926.85	228.92
927.15	228.90
927.45	228.89
927.75	228.87
928.05	228.85
928.35	228.90
928.65	228.91
928.95	228.96
929.26	228.80
929.56	228.85
929.86	228.84
930.16	228.70
930.46	228.69
930.76	228.73
931.06	228.56
931.36	228.53
931.66	228.52
931.96	228.35
932.26	228.39
932.56	228.32
932.86	228.27
933.16	228.36
933.46	228.22
933.76	228.05
934.06	228.07
934.36	228.16
934.66	228.00
934.96	227.88
935.26	227.78
935.56	227.85
935.86	227.73
936.16	227.65
936.46	227.71
936.76	227.70
937.06	227.63
937.36	227.59
937.66	227.52
937.96	227.47
938.26	227.44
938.56	227.35
938.86	227.33
939.16	227.40
939.46	227.42
939.76	227.47
940.06	227.46
940.35	227.47
940.65	227.29
940.95	227.23
941.25	227.12
941.55	227.16
941.85	227.08
942.15	227.13
942.45	227.13
942.75	227.15
943.04	227.01
943.34	226.98
943.64	226.93
943.94	226.90
944.24	226.85
944.54	226.96
944.84	227.01
945.13	226.89
945.43	226.90
945.73	226.80
946.03	226.77
946.33	226.79
946.62	226.75
946.92	226.74
947.22	226.89
947.52	226.99
947.82	227.05
948.11	227.16
948.41	227.17
948.71	227.19
949.01	227.19
949.31	227.28
949.60	227.35
949.90	227.52
950.20	227.47
950.50	227.52
950.79	227.48
951.09	227.50
951.39	227.61
951.69	227.58
951.98	227.72
952.28	227.77
952.58	227.83
952.87	227.87
953.17	227.90
953.47	227.95
953.76	227.93
954.06	227.82
954.36	227.81
954.66	227.82
954.95	227.86
955.25	227.91
955.55	227.96
955.84	228.02
956.14	228.05
956.44	228.25
956.73	228.37
957.03	228.35
957.32	228.38
957.62	228.45
957.92	228.54
958.21	228.60
958.51	228.89
958.81	228.95
959.10	229.01
959.40	229.14
959.69	229.20
959.99	229.27
960.29	229.32
960.58	229.33
960.88	229.37
961.17	229.41
961.47	229.40
961.76	229.40
962.06	229.43
962.36	229.44
962.65	229.37
962.95	229.35
963.24	229.38
963.54	229.42
963.83	229.36
964.13	229.32
964.42	229.13
964.72	228.95
965.01	228.90
965.31	228.89
965.60	228.80
965.90	228.86
966.19	228.80
966.49	228.91
966.78	228.94
967.08	228.93
967.37	228.95
967.67	228.90
967.96	228.95
968.26	228.89
968.55	228.89
968.85	228.80
969.14	228.69
969.43	228.73
969.73	228.63
970.02	228.59
970.32	228.59
970.61	228.60
970.91	228.46
971.20	228.43
971.49	228.35
971.79	228.37
972.08	228.27
972.38	228.31
972.67	228.21
972.96	228.14
973.26	228.16
973.55	228.16
973.85	228.19
974.14	228.10
974.43	228.10
974.73	228.00
975.02	228.00
975.31	228.03
975.61	227.94
975.90	227.90
976.19	227.91
976.49	227.75
976.78	227.75
977.07	227.80
977.37	227.72
977.66	227.75
977.95	227.64
978.24	227.58
978.54	227.52
978.83	227.49
979.12	227.54
979.42	227.37
979.71	227.26
980.00	227.18
980.29	227.18
980.59	227.19
980.88	227.21
981.17	227.17
981.46	227.19
981.76	227.18
982.05	227.30
982.34	227.31
982.63	227.39
982.93	227.34
983.22	227.26
983.51	227.38
983.80	227.37
984.09	227.45
984.39	227.53
984.68	227.49
984.97	227.44
985.26	227.32
985.55	227.40
985.85	227.43
986.14	227.56
986.43	227.60
986.72	227.53
987.01	227.50
987.30	227.60
987.59	227.56
987.89	227.55
988.18	227.46
988.47	227.40
988.76	227.49
989.05	227.58
989.34	227.67
989.63	227.69
989.92	227.66
990.22	227.61
990.51	227.59
990.80	227.69
991.09	227.75
991.38	227.86
991.67	227.90
991.96	227.82
992.25	227.88
992.54	227.91
992.83	227.93
993.12	227.94
993.41	227.98
993.70	228.05
993.99	228.20
994.28	228.26
994.58	228.30
994.87	228.26
995.16	228.26
995.45	228.23
995.74	228.20
996.03	228.21
996.32	228.32
996.61	228.38
996.90	228.30
997.19	228.32
997.48	228.33
997.77	228.42
998.06	228.56
998.34	228.37
998.63	228.40
998.92	228.52
999.21	228.60
999.50	228.62
999.79	228.57
1000.08	228.62
1000.37	228.60
1000.66	228.61
1000.95	228.70
1001.24	228.73
1001.53	228.73
1001.82	228.75
1002.11	228.75
1002.40	228.78
1002.68	228.78
1002.97	228.98
1003.26	228.96
1003.55	228.96
1003.84	228.90
1004.13	229.00
1004.42	229.02
1004.71	228.92
1004.99	228.70
1005.28	228.65
1005.57	228.60
1005.86	228.60
1006.15	228.50
1006.44	228.46
1006.72	228.50
1007.01	228.37
1007.30	228.30
1007.59	228.24
1007.88	228.15
1008.17	228.22
1008.45	228.13
1008.74	228.00
1009.03	227.89
1009.32	227.82
1009.60	227.76
1009.89	227.70
1010.18	227.51
1010.47	227.57
1010.76	227.59
1011.04	227.69
1011.33	227.70
1011.62	227.64
1011.91	227.69
1012.19	227.60
1012.48	227.54
1012.77	227.47
1013.05	227.57
1013.34	227.42
1013.63	227.47
1013.92	227.46
1014.20	227.36
1014.49	227.42
1014.78	227.50
1015.06	227.41
1015.35	227.40
1015.64	227.39
1015.92	227.43
1016.21	227.48
1016.50	227.45
1016.78	227.42
1017.07	227.37
1017.36	227.34
1017.64	227.38
1017.93	227.33
1018.22	227.30
1018.50	227.40
1018.79	227.41
1019.08	227.24
1019.36	227.38
1019.65	227.26
1019.93	227.31
1020.22	227.44
1020.51	227.37
1020.79	227.29
1021.08	225.90
1021.36	228.20
1021.65	227.20
1021.94	225.80
1022.22	227.60
1022.51	224.80
1022.79	227.70
1023.08	229.50
1023.36	228.30
1023.65	226.80
>>>>>End Processed Spectral Data<<<<<
