SpectraSuite Data File
++++++++++++++++++++++++++++++++++++
Date: Fri Feb 01 14:41:43 EST 2013
User: group
Dark Spectrum Present: No
Reference Spectrum Present: No
Number of Sampled Component Spectra: 1
Spectrometers: USB2E7196
Integration Time (usec): 70000 (USB2E7196)
Spectra Averaged: 10 (USB2E7196)
Boxcar Smoothing: 10 (USB2E7196)
Correct for Electrical Dark: No (USB2E7196)
Strobe/Lamp Enabled: No (USB2E7196)
Correct for Detector Non-linearity: No (USB2E7196)
Correct for Stray Light: No (USB2E7196)
Number of Pixels in Processed Spectrum: 2048
>>>>>Begin Processed Spectral Data<<<<<
339.09	0.00
339.48	217.60
339.86	217.80
340.24	218.20
340.63	221.20
341.01	225.60
341.39	225.30
341.78	225.40
342.16	226.30
342.54	227.10
342.93	215.31
343.31	226.23
343.69	226.77
344.07	227.30
344.46	227.82
344.84	228.21
345.22	228.41
345.60	228.57
345.99	228.76
346.37	228.93
346.75	229.03
347.13	229.14
347.52	229.27
347.90	229.49
348.28	229.51
348.66	229.58
349.05	229.48
349.43	229.73
349.81	229.90
350.19	229.87
350.57	229.92
350.96	229.87
351.34	230.00
351.72	230.05
352.10	230.10
352.48	230.14
352.87	230.16
353.25	230.21
353.63	230.20
354.01	230.29
354.39	230.42
354.77	230.44
355.15	230.56
355.54	230.57
355.92	230.50
356.30	230.52
356.68	230.70
357.06	230.77
357.44	230.72
357.82	230.70
358.20	230.83
358.58	230.97
358.97	231.16
359.35	231.15
359.73	231.27
360.11	231.32
360.49	231.32
360.87	231.45
361.25	231.52
361.63	231.79
362.01	231.79
362.39	231.64
362.77	231.76
363.15	231.76
363.53	231.81
363.91	231.87
364.29	231.87
364.67	231.65
365.05	231.67
365.43	231.71
365.81	231.79
366.19	231.90
366.57	231.90
366.95	231.84
367.33	231.80
367.71	231.74
368.09	231.74
368.47	231.83
368.85	231.72
369.23	231.64
369.61	231.49
369.99	231.52
370.37	231.68
370.75	231.70
371.13	231.59
371.51	231.44
371.89	231.32
372.27	231.27
372.65	231.20
373.03	231.17
373.41	231.10
373.78	230.96
374.16	230.76
374.54	230.60
374.92	230.49
375.30	230.44
375.68	230.26
376.06	230.16
376.44	230.08
376.82	229.98
377.19	230.00
377.57	229.89
377.95	229.72
378.33	229.51
378.71	229.24
379.09	229.27
379.47	229.15
379.84	229.06
380.22	228.95
380.60	228.92
380.98	228.77
381.36	228.75
381.73	228.62
382.11	228.54
382.49	228.44
382.87	228.41
383.25	228.31
383.62	228.57
384.00	228.54
384.38	228.41
384.76	228.48
385.13	228.33
385.51	228.24
385.89	228.21
386.27	228.28
386.64	228.34
387.02	228.26
387.40	228.37
387.78	228.39
388.15	228.36
388.53	228.40
388.91	228.41
389.29	228.20
389.66	228.23
390.04	228.23
390.42	228.32
390.79	228.25
391.17	228.27
391.55	228.02
391.92	228.05
392.30	228.01
392.68	227.90
393.05	227.96
393.43	228.08
393.81	228.17
394.18	228.12
394.56	228.15
394.94	228.18
395.31	228.16
395.69	228.26
396.06	228.38
396.44	228.46
396.82	228.49
397.19	228.87
397.57	229.01
397.95	229.07
398.32	229.15
398.70	229.40
399.07	229.48
399.45	229.69
399.82	229.78
400.20	230.02
400.58	230.18
400.95	230.30
401.33	230.41
401.70	230.49
402.08	230.60
402.45	230.77
402.83	230.95
403.20	231.09
403.58	231.21
403.95	231.32
404.33	231.38
404.71	231.67
405.08	231.88
405.46	232.14
405.83	232.44
406.21	232.56
406.58	232.69
406.96	232.90
407.33	233.02
407.70	233.30
408.08	233.69
408.45	234.03
408.83	234.36
409.20	234.64
409.58	234.90
409.95	235.23
410.33	235.53
410.70	235.78
411.08	236.11
411.45	236.50
411.82	236.92
412.20	237.53
412.57	237.96
412.95	238.28
413.32	238.62
413.69	239.04
414.07	239.59
414.44	240.21
414.82	240.82
415.19	241.60
415.56	242.42
415.94	242.97
416.31	243.79
416.68	244.52
417.06	245.44
417.43	246.37
417.81	247.43
418.18	248.45
418.55	249.61
418.93	250.80
419.30	252.02
419.67	253.37
420.04	254.64
420.42	255.96
420.79	257.54
421.16	259.19
421.54	260.90
421.91	262.67
422.28	264.38
422.66	266.19
423.03	268.02
423.40	269.66
423.77	271.53
424.15	273.44
424.52	275.53
424.89	277.72
425.26	279.95
425.64	281.94
426.01	284.18
426.38	286.34
426.75	288.62
427.13	290.96
427.50	293.37
427.87	295.94
428.24	298.57
428.61	300.95
428.99	303.63
429.36	306.49
429.73	309.32
430.10	312.01
430.47	314.82
430.85	317.58
431.22	320.70
431.59	324.06
431.96	327.26
432.33	330.70
432.70	334.10
433.08	337.96
433.45	341.51
433.82	345.13
434.19	349.24
434.56	353.15
434.93	356.91
435.30	360.50
435.68	364.45
436.05	368.21
436.42	371.95
436.79	375.50
437.16	379.17
437.53	382.97
437.90	386.93
438.27	390.83
438.64	394.72
439.01	398.25
439.38	401.35
439.75	404.29
440.13	407.68
440.50	410.68
440.87	413.31
441.24	416.02
441.61	418.90
441.98	420.92
442.35	423.56
442.72	426.10
443.09	428.65
443.46	430.01
443.83	430.91
444.20	431.69
444.57	432.67
444.94	433.16
445.31	433.63
445.68	434.18
446.05	434.08
446.42	433.64
446.79	432.95
447.16	432.40
447.53	431.89
447.90	430.21
448.27	428.75
448.64	426.46
449.01	424.89
449.37	422.16
449.74	419.52
450.11	416.31
450.48	412.88
450.85	409.33
451.22	406.25
451.59	403.35
451.96	400.63
452.33	397.10
452.70	393.69
453.07	389.93
453.43	385.83
453.80	382.01
454.17	378.23
454.54	374.84
454.91	371.05
455.28	367.25
455.65	363.85
456.02	360.48
456.38	357.44
456.75	353.78
457.12	350.63
457.49	347.60
457.86	344.65
458.23	342.02
458.59	339.14
458.96	336.29
459.33	333.89
459.70	331.30
460.07	329.15
460.43	326.83
460.80	324.28
461.17	322.25
461.54	320.27
461.91	318.30
462.27	316.30
462.64	314.40
463.01	312.56
463.38	310.71
463.74	308.74
464.11	307.08
464.48	305.47
464.85	303.97
465.21	302.77
465.58	301.29
465.95	299.73
466.32	298.42
466.68	297.05
467.05	295.73
467.42	294.45
467.78	293.10
468.15	291.78
468.52	290.97
468.88	289.74
469.25	288.61
469.62	287.67
469.98	286.70
470.35	285.91
470.72	285.02
471.08	284.05
471.45	283.26
471.82	282.41
472.18	281.57
472.55	280.87
472.92	279.92
473.28	279.28
473.65	278.47
474.02	277.81
474.38	277.28
474.75	276.66
475.11	276.05
475.48	275.66
475.85	275.21
476.21	274.75
476.58	274.37
476.94	274.05
477.31	273.65
477.67	273.24
478.04	272.87
478.41	272.82
478.77	272.76
479.14	272.48
479.50	272.40
479.87	272.39
480.23	272.40
480.60	272.42
480.96	272.28
481.33	272.47
481.69	272.54
482.06	272.72
482.42	272.80
482.79	273.05
483.15	273.23
483.52	273.61
483.88	273.81
484.25	274.27
484.61	274.65
484.98	275.07
485.34	275.67
485.71	276.30
486.07	276.84
486.44	277.40
486.80	278.18
487.17	278.81
487.53	279.65
487.90	280.47
488.26	281.54
488.62	282.76
488.99	283.74
489.35	284.83
489.72	285.94
490.08	287.20
490.44	288.52
490.81	289.91
491.17	291.31
491.54	293.00
491.90	294.60
492.26	296.42
492.63	298.31
492.99	300.23
493.36	302.31
493.72	304.46
494.08	306.81
494.45	309.28
494.81	311.96
495.17	314.72
495.54	317.60
495.90	320.45
496.26	323.48
496.63	326.88
496.99	330.34
497.35	334.05
497.72	337.92
498.08	342.00
498.44	346.29
498.80	350.80
499.17	355.40
499.53	360.01
499.89	365.00
500.26	370.19
500.62	375.54
500.98	381.34
501.34	387.38
501.71	393.51
502.07	399.79
502.43	406.30
502.79	412.95
503.16	420.08
503.52	427.40
503.88	434.95
504.24	442.67
504.60	450.90
504.97	459.30
505.33	468.18
505.69	477.24
506.05	486.48
506.41	495.84
506.78	505.66
507.14	515.74
507.50	526.12
507.86	537.08
508.22	548.20
508.59	559.37
508.95	570.90
509.31	582.91
509.67	595.44
510.03	608.39
510.39	621.42
510.75	634.78
511.12	648.37
511.48	662.18
511.84	676.50
512.20	690.83
512.56	705.75
512.92	721.04
513.28	736.41
513.64	752.16
514.00	768.27
514.37	784.56
514.73	801.36
515.09	817.95
515.45	834.66
515.81	851.88
516.17	869.58
516.53	887.67
516.89	905.66
517.25	923.81
517.61	941.94
517.97	960.89
518.33	979.41
518.69	998.33
519.05	1017.79
519.41	1037.40
519.77	1057.60
520.13	1077.85
520.49	1097.89
520.85	1118.22
521.21	1138.44
521.57	1159.37
521.93	1179.81
522.29	1201.00
522.65	1222.18
523.01	1243.18
523.37	1264.47
523.73	1285.98
524.09	1307.13
524.45	1328.81
524.81	1350.80
525.17	1373.10
525.53	1394.95
525.89	1417.46
526.25	1439.89
526.61	1462.07
526.97	1484.59
527.33	1506.49
527.68	1528.76
528.04	1550.89
528.40	1573.41
528.76	1597.06
529.12	1619.88
529.48	1643.02
529.84	1665.08
530.20	1687.73
530.56	1711.16
530.91	1734.91
531.27	1757.67
531.63	1780.33
531.99	1803.08
532.35	1825.15
532.71	1847.01
533.07	1869.20
533.42	1891.18
533.78	1913.32
534.14	1935.64
534.50	1956.65
534.86	1978.69
535.21	1999.63
535.57	2021.61
535.93	2042.97
536.29	2063.39
536.65	2084.13
537.00	2104.54
537.36	2125.65
537.72	2146.42
538.08	2166.50
538.44	2185.39
538.79	2205.12
539.15	2224.01
539.51	2243.54
539.87	2263.33
540.22	2282.87
540.58	2302.65
540.94	2321.16
541.29	2339.48
541.65	2357.43
542.01	2376.46
542.37	2394.73
542.72	2412.65
543.08	2430.17
543.44	2447.58
543.79	2463.27
544.15	2479.67
544.51	2497.06
544.87	2513.13
545.22	2528.70
545.58	2543.90
545.94	2558.58
546.29	2573.17
546.65	2588.39
547.01	2602.30
547.36	2615.92
547.72	2628.91
548.07	2641.56
548.43	2654.59
548.79	2666.70
549.14	2678.56
549.50	2689.83
549.86	2700.40
550.21	2711.33
550.57	2722.19
550.92	2732.90
551.28	2743.86
551.64	2754.03
551.99	2763.58
552.35	2773.41
552.70	2783.12
553.06	2793.29
553.41	2803.10
553.77	2813.00
554.13	2822.10
554.48	2830.93
554.84	2839.82
555.19	2848.58
555.55	2856.55
555.90	2863.89
556.26	2872.37
556.61	2880.12
556.97	2886.93
557.32	2894.84
557.68	2902.12
558.03	2908.89
558.39	2915.20
558.74	2923.01
559.10	2929.62
559.45	2936.02
559.81	2943.41
560.16	2949.01
560.52	2954.33
560.87	2960.25
561.23	2964.80
561.58	2970.17
561.94	2975.22
562.29	2978.60
562.64	2982.65
563.00	2987.36
563.35	2992.84
563.71	2997.78
564.06	3002.40
564.42	3007.29
564.77	3010.70
565.12	3014.41
565.48	3018.14
565.83	3020.92
566.19	3023.37
566.54	3025.87
566.89	3027.60
567.25	3028.73
567.60	3032.41
567.96	3034.66
568.31	3036.51
568.66	3037.94
569.02	3038.74
569.37	3039.10
569.72	3040.66
570.08	3041.03
570.43	3041.13
570.78	3040.55
571.14	3038.98
571.49	3038.56
571.84	3038.95
572.20	3037.19
572.55	3036.11
572.90	3033.77
573.26	3032.55
573.61	3030.60
573.96	3027.93
574.31	3025.23
574.67	3021.19
575.02	3016.42
575.37	3012.67
575.72	3008.11
576.08	3004.40
576.43	3000.25
576.78	2996.41
577.13	2992.62
577.49	2989.00
577.84	2984.13
578.19	2979.52
578.54	2974.65
578.90	2968.90
579.25	2961.44
579.60	2956.59
579.95	2950.32
580.30	2944.50
580.66	2937.68
581.01	2930.64
581.36	2925.24
581.71	2919.41
582.06	2913.86
582.42	2907.30
582.77	2900.30
583.12	2893.30
583.47	2886.96
583.82	2881.29
584.17	2874.09
584.53	2867.21
584.88	2860.01
585.23	2853.43
585.58	2847.02
585.93	2840.43
586.28	2834.41
586.63	2828.08
586.98	2821.23
587.34	2814.73
587.69	2807.36
588.04	2800.72
588.39	2794.20
588.74	2784.96
589.09	2776.42
589.44	2767.62
589.79	2759.80
590.14	2752.57
590.49	2744.76
590.84	2736.05
591.19	2727.10
591.54	2718.20
591.89	2707.80
592.25	2698.64
592.60	2688.12
592.95	2677.70
593.30	2667.73
593.65	2657.22
594.00	2647.21
594.35	2637.74
594.70	2626.88
595.05	2617.56
595.40	2607.15
595.75	2597.03
596.10	2588.90
596.45	2580.52
596.80	2572.26
597.15	2563.52
597.50	2554.07
597.85	2545.23
598.19	2536.16
598.54	2527.35
598.89	2519.56
599.24	2512.14
599.59	2503.91
599.94	2496.21
600.29	2487.53
600.64	2478.77
600.99	2469.02
601.34	2460.60
601.69	2450.92
602.04	2442.70
602.39	2433.76
602.74	2425.85
603.08	2417.37
603.43	2408.37
603.78	2398.97
604.13	2389.80
604.48	2380.24
604.83	2370.40
605.18	2361.72
605.53	2351.54
605.87	2340.44
606.22	2329.70
606.57	2319.38
606.92	2309.18
607.27	2299.32
607.62	2290.05
607.96	2280.50
608.31	2271.93
608.66	2261.41
609.01	2251.40
609.36	2240.89
609.70	2229.47
610.05	2217.68
610.40	2206.90
610.75	2195.84
611.10	2184.67
611.44	2172.80
611.79	2161.97
612.14	2151.00
612.49	2138.47
612.83	2127.50
613.18	2116.81
613.53	2106.41
613.88	2094.84
614.22	2083.50
614.57	2071.72
614.92	2060.40
615.27	2049.70
615.61	2038.00
615.96	2027.10
616.31	2016.93
616.65	2006.88
617.00	1996.84
617.35	1986.88
617.70	1975.93
618.04	1964.73
618.39	1954.20
618.74	1943.96
619.08	1933.00
619.43	1922.88
619.78	1913.20
620.12	1903.16
620.47	1892.93
620.82	1881.96
621.16	1871.81
621.51	1861.83
621.85	1851.80
622.20	1840.81
622.55	1829.99
622.89	1819.97
623.24	1810.19
623.59	1799.97
623.93	1789.76
624.28	1779.75
624.62	1769.39
624.97	1759.60
625.32	1750.40
625.66	1740.84
626.01	1731.25
626.35	1721.50
626.70	1711.23
627.04	1701.42
627.39	1690.97
627.73	1680.95
628.08	1671.30
628.43	1661.50
628.77	1651.46
629.12	1641.28
629.46	1631.52
629.81	1621.14
630.15	1610.79
630.50	1600.23
630.84	1589.32
631.19	1578.52
631.53	1567.77
631.88	1557.31
632.22	1546.71
632.57	1536.54
632.91	1526.02
633.26	1515.59
633.60	1504.96
633.95	1494.91
634.29	1484.90
634.64	1475.75
634.98	1465.97
635.32	1456.85
635.67	1447.82
636.01	1438.42
636.36	1428.86
636.70	1420.17
637.05	1411.32
637.39	1402.69
637.73	1394.25
638.08	1386.08
638.42	1377.65
638.77	1369.85
639.11	1361.35
639.45	1352.59
639.80	1343.55
640.14	1334.81
640.49	1326.01
640.83	1317.36
641.17	1309.12
641.52	1300.50
641.86	1291.44
642.20	1282.89
642.55	1273.60
642.89	1264.64
643.23	1255.76
643.58	1247.95
643.92	1238.68
644.26	1230.20
644.61	1221.51
644.95	1212.76
645.29	1203.45
645.64	1194.46
645.98	1185.67
646.32	1177.67
646.66	1169.26
647.01	1160.87
647.35	1152.52
647.69	1144.48
648.04	1136.81
648.38	1127.90
648.72	1119.13
649.06	1110.70
649.41	1102.63
649.75	1093.95
650.09	1085.42
650.43	1077.23
650.78	1068.56
651.12	1060.47
651.46	1052.04
651.80	1044.10
652.14	1036.50
652.49	1028.83
652.83	1021.19
653.17	1012.82
653.51	1004.53
653.85	996.61
654.20	988.75
654.54	980.71
654.88	972.70
655.22	964.58
655.56	956.70
655.90	949.38
656.25	942.05
656.59	934.60
656.93	927.64
657.27	920.48
657.61	913.00
657.95	906.05
658.29	898.98
658.64	892.00
658.98	884.53
659.32	876.89
659.66	869.93
660.00	862.87
660.34	856.26
660.68	849.66
661.02	842.84
661.36	836.31
661.70	830.24
662.05	824.27
662.39	818.41
662.73	812.54
663.07	806.56
663.41	800.45
663.75	794.38
664.09	788.43
664.43	782.53
664.77	776.79
665.11	770.88
665.45	765.39
665.79	759.65
666.13	753.94
666.47	748.28
666.81	742.34
667.15	736.40
667.49	730.77
667.83	725.25
668.17	720.09
668.51	714.43
668.85	708.97
669.19	703.72
669.53	698.28
669.87	692.88
670.21	687.49
670.55	682.60
670.89	677.80
671.23	673.19
671.57	668.43
671.91	663.77
672.25	659.10
672.58	654.32
672.92	649.74
673.26	645.55
673.60	641.14
673.94	637.00
674.28	633.26
674.62	629.14
674.96	624.89
675.30	620.65
675.64	616.83
675.97	612.79
676.31	608.60
676.65	604.43
676.99	600.69
677.33	596.86
677.67	592.81
678.01	588.63
678.34	584.43
678.68	580.52
679.02	576.50
679.36	572.41
679.70	568.66
680.04	564.98
680.37	561.18
680.71	557.54
681.05	554.10
681.39	550.49
681.73	546.87
682.06	543.50
682.40	540.20
682.74	536.67
683.08	533.32
683.42	529.91
683.75	526.69
684.09	523.26
684.43	519.90
684.77	516.65
685.10	513.57
685.44	510.54
685.78	507.28
686.12	504.38
686.45	501.50
686.79	498.34
687.13	495.19
687.46	492.04
687.80	488.91
688.14	485.71
688.48	482.59
688.81	479.59
689.15	476.65
689.49	473.60
689.82	470.79
690.16	467.88
690.50	464.98
690.83	462.34
691.17	459.40
691.51	456.81
691.84	454.18
692.18	451.52
692.52	448.68
692.85	446.16
693.19	443.41
693.52	440.71
693.86	437.98
694.20	435.52
694.53	433.05
694.87	430.52
695.21	428.09
695.54	425.79
695.88	423.50
696.21	420.94
696.55	418.59
696.88	416.27
697.22	413.86
697.56	411.58
697.89	409.08
698.23	407.11
698.56	404.80
698.90	402.55
699.23	400.17
699.57	397.90
699.90	395.68
700.24	393.42
700.58	391.41
700.91	389.50
701.25	387.48
701.58	385.51
701.92	383.66
702.25	381.68
702.59	379.61
702.92	377.66
703.26	375.81
703.59	373.95
703.93	372.15
704.26	370.40
704.60	368.70
704.93	367.07
705.26	365.22
705.60	363.66
705.93	362.07
706.27	360.63
706.60	359.32
706.94	357.90
707.27	356.46
707.61	354.99
707.94	353.50
708.27	351.88
708.61	350.33
708.94	348.86
709.28	347.39
709.61	346.01
709.94	344.78
710.28	343.56
710.61	342.32
710.95	340.78
711.28	339.63
711.61	338.26
711.95	336.96
712.28	335.61
712.61	334.11
712.95	332.88
713.28	331.67
713.61	330.18
713.95	328.77
714.28	327.60
714.61	326.39
714.95	325.26
715.28	324.20
715.61	322.89
715.95	321.68
716.28	320.61
716.61	319.55
716.95	318.33
717.28	317.22
717.61	316.10
717.94	315.15
718.28	313.98
718.61	313.02
718.94	312.04
719.27	311.13
719.61	310.29
719.94	309.25
720.27	308.17
720.60	307.41
720.94	306.60
721.27	305.63
721.60	304.78
721.93	303.86
722.27	302.94
722.60	302.24
722.93	301.38
723.26	300.69
723.59	299.77
723.93	298.84
724.26	297.94
724.59	297.17
724.92	296.40
725.25	295.66
725.59	294.84
725.92	293.98
726.25	293.23
726.58	292.56
726.91	291.82
727.24	291.09
727.57	290.49
727.91	289.72
728.24	289.13
728.57	288.25
728.90	287.64
729.23	287.00
729.56	286.40
729.89	285.80
730.22	284.98
730.55	284.37
730.89	283.75
731.22	283.16
731.55	282.64
731.88	282.00
732.21	281.30
732.54	280.73
732.87	280.13
733.20	279.60
733.53	278.98
733.86	278.44
734.19	277.87
734.52	277.12
734.85	276.73
735.18	276.02
735.51	275.60
735.84	275.10
736.17	274.66
736.50	274.08
736.83	273.83
737.16	273.25
737.49	272.90
737.82	272.42
738.15	271.92
738.48	271.20
738.81	270.71
739.14	270.22
739.47	269.75
739.80	269.37
740.13	268.91
740.46	268.37
740.79	267.98
741.12	267.56
741.45	267.21
741.78	266.70
742.11	266.36
742.44	265.89
742.77	265.28
743.10	264.74
743.43	264.26
743.75	263.60
744.08	263.57
744.41	262.95
744.74	262.48
745.07	262.00
745.40	261.62
745.73	261.31
746.06	261.00
746.39	260.67
746.71	260.23
747.04	259.68
747.37	259.31
747.70	258.90
748.03	258.40
748.36	257.93
748.68	257.55
749.01	257.15
749.34	256.81
749.67	256.53
750.00	256.15
750.33	255.96
750.65	255.67
750.98	255.07
751.31	254.82
751.64	254.58
751.97	254.43
752.29	254.13
752.62	253.67
752.95	253.20
753.28	252.78
753.60	252.49
753.93	252.30
754.26	252.07
754.59	251.70
754.91	251.41
755.24	251.20
755.57	250.80
755.90	250.43
756.22	250.11
756.55	249.87
756.88	249.69
757.20	249.25
757.53	248.85
757.86	248.49
758.19	248.33
758.51	248.05
758.84	247.66
759.17	247.47
759.49	247.28
759.82	247.19
760.15	246.99
760.47	246.78
760.80	246.55
761.13	246.29
761.45	246.07
761.78	245.90
762.11	245.56
762.43	245.48
762.76	245.31
763.08	245.15
763.41	244.99
763.74	244.77
764.06	244.60
764.39	244.47
764.71	244.31
765.04	244.02
765.37	243.92
765.69	243.74
766.02	243.47
766.34	243.32
766.67	243.10
767.00	243.03
767.32	242.94
767.65	242.90
767.97	242.81
768.30	242.64
768.62	242.68
768.95	242.67
769.27	242.48
769.60	242.39
769.92	242.18
770.25	242.05
770.57	241.85
770.90	241.74
771.22	241.65
771.55	241.52
771.87	241.49
772.20	241.29
772.52	241.32
772.85	241.42
773.17	241.28
773.50	241.10
773.82	240.85
774.15	240.54
774.47	240.25
774.80	240.03
775.12	239.88
775.45	239.63
775.77	239.49
776.09	239.37
776.42	239.23
776.74	239.11
777.07	238.95
777.39	238.84
777.72	238.65
778.04	238.43
778.36	238.33
778.69	238.13
779.01	238.05
779.33	237.80
779.66	237.57
779.98	237.48
780.31	237.43
780.63	237.49
780.95	237.38
781.28	237.29
781.60	237.18
781.92	237.14
782.25	237.03
782.57	236.96
782.89	236.81
783.22	236.60
783.54	236.56
783.86	236.29
784.19	236.18
784.51	236.18
784.83	236.15
785.16	236.04
785.48	235.85
785.80	235.71
786.12	235.67
786.45	235.55
786.77	235.50
787.09	235.30
787.42	235.19
787.74	235.23
788.06	235.16
788.38	235.17
788.71	234.90
789.03	234.85
789.35	234.76
789.67	234.80
789.99	234.77
790.32	234.65
790.64	234.69
790.96	234.74
791.28	234.61
791.61	234.56
791.93	234.62
792.25	234.59
792.57	234.71
792.89	234.58
793.21	234.48
793.54	234.34
793.86	234.41
794.18	234.17
794.50	234.09
794.82	234.00
795.14	233.86
795.47	234.02
795.79	233.98
796.11	233.90
796.43	233.75
796.75	233.68
797.07	233.71
797.39	233.73
797.71	233.51
798.04	233.60
798.36	233.46
798.68	233.29
799.00	233.31
799.32	233.12
799.64	233.20
799.96	233.24
800.28	233.33
800.60	233.26
800.92	233.28
801.24	233.20
801.56	233.18
801.89	233.21
802.21	233.16
802.53	233.09
802.85	233.02
803.17	233.09
803.49	233.03
803.81	233.00
804.13	232.92
804.45	232.94
804.77	232.90
805.09	232.92
805.41	232.93
805.73	232.93
806.05	232.90
806.37	232.89
806.69	232.91
807.01	232.77
807.33	232.80
807.65	232.72
807.97	232.79
808.28	232.76
808.60	232.70
808.92	232.65
809.24	232.68
809.56	232.65
809.88	232.61
810.20	232.67
810.52	232.60
810.84	232.52
811.16	232.49
811.48	232.34
811.80	232.38
812.12	232.39
812.43	232.37
812.75	232.35
813.07	232.26
813.39	232.27
813.71	232.17
814.03	232.08
814.35	232.18
814.67	232.03
814.98	231.95
815.30	231.90
815.62	231.86
815.94	231.69
816.26	231.76
816.58	231.70
816.89	231.72
817.21	231.79
817.53	231.89
817.85	231.91
818.17	231.92
818.48	231.82
818.80	231.74
819.12	231.66
819.44	231.55
819.76	231.49
820.07	231.42
820.39	231.40
820.71	231.35
821.03	231.17
821.34	231.14
821.66	231.22
821.98	231.22
822.30	231.19
822.61	231.33
822.93	231.21
823.25	231.08
823.57	230.97
823.88	230.81
824.20	230.68
824.52	230.70
824.83	230.71
825.15	230.58
825.47	230.47
825.79	230.45
826.10	230.56
826.42	230.50
826.74	230.34
827.05	230.38
827.37	230.37
827.69	230.37
828.00	230.40
828.32	230.36
828.64	230.28
828.95	230.41
829.27	230.35
829.58	230.28
829.90	230.32
830.22	230.40
830.53	230.28
830.85	230.24
831.17	230.07
831.48	229.97
831.80	230.02
832.11	230.05
832.43	230.03
832.75	229.95
833.06	230.02
833.38	230.18
833.69	230.05
834.01	230.04
834.32	230.09
834.64	230.01
834.96	230.01
835.27	230.00
835.59	229.89
835.90	229.81
836.22	229.87
836.53	229.80
836.85	229.68
837.16	229.94
837.48	230.03
837.79	230.09
838.11	230.15
838.42	230.14
838.74	230.17
839.05	230.12
839.37	230.01
839.68	229.94
840.00	229.81
840.31	229.94
840.63	229.91
840.94	229.85
841.26	229.92
841.57	229.89
841.88	229.91
842.20	229.93
842.51	229.97
842.83	229.88
843.14	230.05
843.46	230.08
843.77	229.93
844.08	229.88
844.40	229.84
844.71	229.77
845.03	229.77
845.34	229.72
845.65	229.78
845.97	229.89
846.28	229.90
846.60	229.94
846.91	229.83
847.22	229.85
847.54	229.96
847.85	229.90
848.16	229.84
848.48	229.87
848.79	229.79
849.10	229.81
849.42	229.84
849.73	229.77
850.04	229.80
850.36	229.77
850.67	229.71
850.98	229.79
851.30	229.72
851.61	229.80
851.92	229.83
852.23	229.90
852.55	229.92
852.86	229.85
853.17	229.83
853.49	230.00
853.80	230.08
854.11	230.04
854.42	230.04
854.74	230.14
855.05	230.10
855.36	230.13
855.67	230.07
855.99	230.03
856.30	230.18
856.61	230.13
856.92	230.15
857.23	230.16
857.55	230.01
857.86	230.09
858.17	229.97
858.48	229.83
858.79	229.76
859.11	229.70
859.42	229.72
859.73	229.64
860.04	229.52
860.35	229.34
860.66	229.30
860.98	229.31
861.29	229.27
861.60	229.24
861.91	229.09
862.22	229.01
862.53	229.07
862.84	228.87
863.16	228.91
863.47	228.82
863.78	228.88
864.09	228.96
864.40	228.81
864.71	228.81
865.02	228.91
865.33	228.86
865.64	228.83
865.95	228.81
866.27	228.96
866.58	228.92
866.89	229.01
867.20	229.03
867.51	228.99
867.82	228.89
868.13	228.77
868.44	228.80
868.75	228.89
869.06	228.83
869.37	228.82
869.68	228.70
869.99	228.73
870.30	228.68
870.61	228.66
870.92	228.72
871.23	228.70
871.54	228.60
871.85	228.55
872.16	228.50
872.47	228.45
872.78	228.32
873.09	228.36
873.40	228.26
873.71	228.23
874.02	228.25
874.33	228.27
874.64	228.32
874.95	228.39
875.26	228.35
875.56	228.37
875.87	228.41
876.18	228.46
876.49	228.67
876.80	228.58
877.11	228.60
877.42	228.61
877.73	228.61
878.04	228.67
878.35	228.77
878.66	228.82
878.96	228.88
879.27	228.88
879.58	228.86
879.89	228.75
880.20	228.81
880.51	228.82
880.82	228.82
881.12	228.87
881.43	228.83
881.74	228.77
882.05	228.76
882.36	228.71
882.67	228.75
882.97	228.51
883.28	228.60
883.59	228.63
883.90	228.59
884.21	228.66
884.51	228.72
884.82	228.70
885.13	228.80
885.44	228.79
885.74	228.89
886.05	228.86
886.36	229.00
886.67	229.01
886.98	229.07
887.28	229.18
887.59	229.23
887.90	229.30
888.20	229.26
888.51	229.36
888.82	229.31
889.13	229.39
889.43	229.59
889.74	229.61
890.05	229.54
890.35	229.74
890.66	229.70
890.97	229.72
891.28	229.77
891.58	229.76
891.89	229.75
892.20	229.68
892.50	229.66
892.81	229.64
893.12	229.60
893.42	229.64
893.73	229.60
894.04	229.62
894.34	229.64
894.65	229.75
894.95	229.72
895.26	229.82
895.57	229.88
895.87	229.71
896.18	229.76
896.48	229.70
896.79	229.56
897.10	229.63
897.40	229.63
897.71	229.65
898.01	229.57
898.32	229.54
898.63	229.48
898.93	229.61
899.24	229.65
899.54	229.61
899.85	229.59
900.15	229.57
900.46	229.54
900.76	229.51
901.07	229.40
901.38	229.40
901.68	229.40
901.99	229.22
902.29	229.16
902.60	229.12
902.90	229.21
903.21	229.23
903.51	229.14
903.82	229.11
904.12	229.01
904.43	228.94
904.73	228.94
905.03	228.99
905.34	229.04
905.64	228.92
905.95	228.80
906.25	228.59
906.56	228.49
906.86	228.35
907.17	228.29
907.47	228.31
907.77	228.20
908.08	228.06
908.38	227.97
908.69	228.00
908.99	227.92
909.30	227.86
909.60	227.84
909.90	227.81
910.21	227.62
910.51	227.56
910.81	227.55
911.12	227.51
911.42	227.46
911.73	227.23
912.03	227.26
912.33	227.39
912.64	227.40
912.94	227.35
913.24	227.43
913.55	227.34
913.85	227.29
914.15	227.29
914.46	227.33
914.76	227.37
915.06	227.27
915.37	227.38
915.67	227.40
915.97	227.48
916.27	227.45
916.58	227.58
916.88	227.58
917.18	227.68
917.49	227.81
917.79	227.85
918.09	227.84
918.39	227.96
918.70	227.89
919.00	227.95
919.30	228.13
919.60	228.10
919.91	228.18
920.21	228.26
920.51	228.27
920.81	228.24
921.12	228.23
921.42	228.34
921.72	228.27
922.02	228.24
922.32	228.17
922.63	228.20
922.93	228.33
923.23	228.52
923.53	228.44
923.83	228.32
924.13	228.40
924.44	228.40
924.74	228.42
925.04	228.48
925.34	228.50
925.64	228.50
925.94	228.47
926.24	228.68
926.55	228.68
926.85	228.80
927.15	228.83
927.45	228.94
927.75	229.00
928.05	229.09
928.35	229.13
928.65	229.19
928.95	229.23
929.26	229.22
929.56	229.20
929.86	229.20
930.16	229.25
930.46	229.19
930.76	229.37
931.06	229.37
931.36	229.39
931.66	229.47
931.96	229.54
932.26	229.65
932.56	229.57
932.86	229.57
933.16	229.58
933.46	229.64
933.76	229.63
934.06	229.63
934.36	229.70
934.66	229.72
934.96	229.70
935.26	229.76
935.56	229.72
935.86	229.65
936.16	229.76
936.46	229.79
936.76	229.86
937.06	229.76
937.36	229.66
937.66	229.64
937.96	229.55
938.26	229.47
938.56	229.43
938.86	229.39
939.16	229.47
939.46	229.48
939.76	229.46
940.06	229.48
940.35	229.50
940.65	229.32
940.95	229.28
941.25	229.20
941.55	229.15
941.85	228.98
942.15	229.00
942.45	228.98
942.75	228.96
943.04	228.82
943.34	228.84
943.64	228.92
943.94	228.82
944.24	228.76
944.54	228.70
944.84	228.57
945.13	228.49
945.43	228.32
945.73	228.26
946.03	228.15
946.33	228.00
946.62	227.86
946.92	227.81
947.22	227.85
947.52	227.80
947.82	227.81
948.11	227.85
948.41	227.83
948.71	227.68
949.01	227.72
949.31	227.67
949.60	227.60
949.90	227.47
950.20	227.45
950.50	227.47
950.79	227.43
951.09	227.50
951.39	227.49
951.69	227.50
951.98	227.42
952.28	227.47
952.58	227.51
952.87	227.48
953.17	227.47
953.47	227.31
953.76	227.41
954.06	227.36
954.36	227.43
954.66	227.33
954.95	227.40
955.25	227.27
955.55	227.36
955.84	227.30
956.14	227.28
956.44	227.45
956.73	227.48
957.03	227.49
957.32	227.51
957.62	227.50
957.92	227.66
958.21	227.80
958.51	228.08
958.81	228.10
959.10	228.25
959.40	228.30
959.69	228.43
959.99	228.39
960.29	228.44
960.58	228.45
960.88	228.55
961.17	228.60
961.47	228.66
961.76	228.70
962.06	228.78
962.36	228.84
962.65	228.84
962.95	228.89
963.24	228.91
963.54	228.91
963.83	228.98
964.13	228.94
964.42	228.70
964.72	228.44
965.01	228.53
965.31	228.41
965.60	228.50
965.90	228.64
966.19	228.61
966.49	228.54
966.78	228.56
967.08	228.63
967.37	228.60
967.67	228.67
967.96	228.70
968.26	228.77
968.55	228.93
968.85	228.94
969.14	228.84
969.43	228.93
969.73	228.99
970.02	229.04
970.32	229.02
970.61	229.20
970.91	229.31
971.20	229.27
971.49	229.38
971.79	229.48
972.08	229.40
972.38	229.40
972.67	229.46
972.96	229.43
973.26	229.37
973.55	229.48
973.85	229.44
974.14	229.36
974.43	229.39
974.73	229.29
975.02	229.29
975.31	229.37
975.61	229.31
975.90	229.38
976.19	229.32
976.49	229.33
976.78	229.35
977.07	229.25
977.37	229.26
977.66	229.24
977.95	229.14
978.24	229.13
978.54	229.26
978.83	229.28
979.12	229.34
979.42	229.33
979.71	229.21
980.00	229.15
980.29	229.16
980.59	229.07
980.88	229.08
981.17	229.02
981.46	228.97
981.76	228.97
982.05	228.93
982.34	228.90
982.63	228.87
982.93	228.82
983.22	228.95
983.51	228.95
983.80	228.92
984.09	228.84
984.39	228.82
984.68	228.83
984.97	228.78
985.26	228.69
985.55	228.66
985.85	228.60
986.14	228.60
986.43	228.59
986.72	228.55
987.01	228.51
987.30	228.42
987.59	228.43
987.89	228.43
988.18	228.30
988.47	228.30
988.76	228.27
989.05	228.20
989.34	228.06
989.63	228.14
989.92	228.14
990.22	228.14
990.51	228.09
990.80	228.02
991.09	227.99
991.38	227.95
991.67	227.88
991.96	227.93
992.25	227.93
992.54	227.95
992.83	227.92
993.12	227.91
993.41	228.10
993.70	228.14
993.99	228.14
994.28	228.19
994.58	228.18
994.87	228.22
995.16	228.31
995.45	228.33
995.74	228.14
996.03	228.15
996.32	228.05
996.61	228.00
996.90	228.01
997.19	228.01
997.48	228.07
997.77	228.03
998.06	228.08
998.34	228.11
998.63	228.05
998.92	228.09
999.21	228.10
999.50	228.00
999.79	227.94
1000.08	227.92
1000.37	228.00
1000.66	228.02
1000.95	228.10
1001.24	228.07
1001.53	228.03
1001.82	228.15
1002.11	228.11
1002.40	228.33
1002.68	228.49
1002.97	228.58
1003.26	228.61
1003.55	228.61
1003.84	228.73
1004.13	228.78
1004.42	228.89
1004.71	228.97
1004.99	228.98
1005.28	229.02
1005.57	229.12
1005.86	229.18
1006.15	229.25
1006.44	229.00
1006.72	228.84
1007.01	228.79
1007.30	228.81
1007.59	228.84
1007.88	228.82
1008.17	228.80
1008.45	228.65
1008.74	228.55
1009.03	228.49
1009.32	228.50
1009.60	228.45
1009.89	228.40
1010.18	228.27
1010.47	228.17
1010.76	228.16
1011.04	228.11
1011.33	228.18
1011.62	228.10
1011.91	228.03
1012.19	227.92
1012.48	228.05
1012.77	228.07
1013.05	228.00
1013.34	228.00
1013.63	227.94
1013.92	228.01
1014.20	228.15
1014.49	228.19
1014.78	228.25
1015.06	228.18
1015.35	228.14
1015.64	228.29
1015.92	228.35
1016.21	228.44
1016.50	228.40
1016.78	228.40
1017.07	228.38
1017.36	228.33
1017.64	228.27
1017.93	228.29
1018.22	228.41
1018.50	228.43
1018.79	228.51
1019.08	228.54
1019.36	228.56
1019.65	228.60
1019.93	228.56
1020.22	228.43
1020.51	228.51
1020.79	228.48
1021.08	229.50
1021.36	227.80
1021.65	227.70
1021.94	228.80
1022.22	228.80
1022.51	228.10
1022.79	228.80
1023.08	228.00
1023.36	230.30
1023.65	228.40
>>>>>End Processed Spectral Data<<<<<
