SpectraSuite Data File
++++++++++++++++++++++++++++++++++++
Date: Fri Feb 01 14:34:26 EST 2013
User: group
Dark Spectrum Present: No
Reference Spectrum Present: No
Number of Sampled Component Spectra: 1
Spectrometers: USB2E7196
Integration Time (usec): 70000 (USB2E7196)
Spectra Averaged: 10 (USB2E7196)
Boxcar Smoothing: 10 (USB2E7196)
Correct for Electrical Dark: No (USB2E7196)
Strobe/Lamp Enabled: No (USB2E7196)
Correct for Detector Non-linearity: No (USB2E7196)
Correct for Stray Light: No (USB2E7196)
Number of Pixels in Processed Spectrum: 2048
>>>>>Begin Processed Spectral Data<<<<<
339.09	0.00
339.48	217.40
339.86	218.60
340.24	218.30
340.63	220.00
341.01	222.70
341.39	224.40
341.78	226.20
342.16	225.70
342.54	227.70
342.93	214.93
343.31	225.80
343.69	226.25
344.07	226.65
344.46	227.14
344.84	227.53
345.22	227.82
345.60	228.00
345.99	228.01
346.37	228.12
346.75	228.02
347.13	228.18
347.52	228.19
347.90	228.24
348.28	228.22
348.66	228.23
349.05	228.16
349.43	228.22
349.81	228.41
350.19	228.43
350.57	228.48
350.96	228.55
351.34	228.66
351.72	228.74
352.10	228.81
352.48	228.86
352.87	228.92
353.25	228.97
353.63	229.01
354.01	229.17
354.39	229.30
354.77	229.51
355.15	229.64
355.54	229.66
355.92	229.70
356.30	229.72
356.68	230.05
357.06	230.12
357.44	230.17
357.82	230.09
358.20	230.19
358.58	230.29
358.97	230.39
359.35	230.41
359.73	230.56
360.11	230.66
360.49	230.75
360.87	230.77
361.25	230.83
361.63	230.92
362.01	230.96
362.39	231.04
362.77	231.10
363.15	231.07
363.53	231.11
363.91	231.22
364.29	231.24
364.67	230.92
365.05	230.97
365.43	231.03
365.81	231.21
366.19	231.36
366.57	231.43
366.95	231.43
367.33	231.40
367.71	231.39
368.09	231.43
368.47	231.31
368.85	231.33
369.23	231.37
369.61	231.29
369.99	231.30
370.37	231.21
370.75	231.28
371.13	231.20
371.51	231.08
371.89	231.04
372.27	231.04
372.65	231.14
373.03	231.16
373.41	231.06
373.78	230.90
374.16	230.69
374.54	230.49
374.92	230.27
375.30	230.21
375.68	230.01
376.06	229.96
376.44	229.93
376.82	229.87
377.19	229.72
377.57	229.62
377.95	229.51
378.33	229.49
378.71	229.35
379.09	229.36
379.47	229.37
379.84	229.24
380.22	229.12
380.60	229.00
380.98	228.77
381.36	228.67
381.73	228.49
382.11	228.34
382.49	228.33
382.87	228.35
383.25	228.23
383.62	228.44
384.00	228.29
384.38	228.24
384.76	228.19
385.13	228.20
385.51	228.15
385.89	228.08
386.27	227.93
386.64	227.82
387.02	227.73
387.40	227.60
387.78	227.64
388.15	227.69
388.53	227.57
388.91	227.54
389.29	227.51
389.66	227.50
390.04	227.44
390.42	227.40
390.79	227.38
391.17	227.48
391.55	227.16
391.92	227.20
392.30	227.24
392.68	227.17
393.05	227.24
393.43	227.26
393.81	227.30
394.18	227.29
394.56	227.26
394.94	227.25
395.31	227.32
395.69	227.38
396.06	227.37
396.44	227.49
396.82	227.63
397.19	227.74
397.57	227.93
397.95	228.17
398.32	228.30
398.70	228.37
399.07	228.48
399.45	228.66
399.82	228.75
400.20	228.80
400.58	228.94
400.95	228.90
401.33	229.10
401.70	229.37
402.08	229.70
402.45	230.00
402.83	230.32
403.20	230.55
403.58	230.66
403.95	230.94
404.33	231.15
404.71	231.39
405.08	231.76
405.46	232.10
405.83	232.40
406.21	232.76
406.58	233.27
406.96	233.69
407.33	234.21
407.70	234.75
408.08	235.49
408.45	236.13
408.83	236.90
409.20	237.52
409.58	238.09
409.95	238.78
410.33	239.51
410.70	240.20
411.08	241.16
411.45	242.20
411.82	243.10
412.20	244.20
412.57	245.42
412.95	246.50
413.32	247.60
413.69	248.89
414.07	250.19
414.44	251.56
414.82	253.03
415.19	254.74
415.56	256.42
415.94	258.16
416.31	260.10
416.68	262.05
417.06	264.23
417.43	266.45
417.81	268.89
418.18	271.35
418.55	274.10
418.93	276.84
419.30	279.66
419.67	282.75
420.04	285.85
420.42	289.18
420.79	293.05
421.16	297.07
421.54	301.03
421.91	305.02
422.28	309.22
422.66	313.82
423.03	318.14
423.40	322.63
423.77	327.38
424.15	332.39
424.52	337.52
424.89	343.25
425.26	348.71
425.64	354.00
426.01	359.71
426.38	365.60
426.75	371.49
427.13	377.63
427.50	384.22
427.87	390.93
428.24	397.62
428.61	403.99
428.99	410.89
429.36	418.61
429.73	426.24
430.10	433.62
430.47	441.10
430.85	448.93
431.22	457.43
431.59	466.44
431.96	474.72
432.33	484.02
432.70	492.93
433.08	503.42
433.45	513.18
433.82	523.13
434.19	534.13
434.56	545.02
434.93	555.42
435.30	565.70
435.68	577.25
436.05	588.61
436.42	599.91
436.79	610.11
437.16	620.99
437.53	632.50
437.90	644.01
438.27	655.31
438.64	667.28
439.01	678.16
439.38	687.51
439.75	696.84
440.13	707.73
440.50	718.21
440.87	726.75
441.24	735.70
441.61	745.49
441.98	753.12
442.35	761.61
442.72	770.12
443.09	778.66
443.46	783.98
443.83	787.91
444.20	791.23
444.57	796.33
444.94	799.34
445.31	802.38
445.68	805.38
446.05	807.34
446.42	807.58
446.79	807.31
447.16	807.46
447.53	808.20
447.90	805.22
448.27	802.08
448.64	797.23
449.01	794.46
449.37	788.10
449.74	781.60
450.11	773.98
450.48	765.68
450.85	756.95
451.22	749.88
451.59	742.87
451.96	736.70
452.33	727.43
452.70	718.87
453.07	708.80
453.43	698.58
453.80	688.57
454.17	678.46
454.54	669.39
454.91	659.38
455.28	649.42
455.65	640.40
456.02	630.98
456.38	623.17
456.75	612.95
457.12	604.56
457.49	596.42
457.86	588.71
458.23	582.09
458.59	574.48
458.96	566.47
459.33	559.50
459.70	552.35
460.07	546.47
460.43	540.10
460.80	533.75
461.17	528.10
461.54	522.53
461.91	517.34
462.27	511.89
462.64	507.07
463.01	501.64
463.38	496.55
463.74	491.49
464.11	487.08
464.48	483.26
464.85	479.00
465.21	475.48
465.58	471.72
465.95	467.22
466.32	463.60
466.68	460.08
467.05	456.50
467.42	452.85
467.78	449.26
468.15	445.84
468.52	443.25
468.88	440.05
469.25	437.05
469.62	434.57
469.98	431.90
470.35	429.56
470.72	427.42
471.08	424.86
471.45	422.95
471.82	420.75
472.18	418.20
472.55	416.37
472.92	414.51
473.28	412.57
473.65	410.88
474.02	409.12
474.38	407.46
474.75	406.26
475.11	404.98
475.48	403.82
475.85	402.72
476.21	401.83
476.58	400.88
476.94	400.17
477.31	399.25
477.67	398.51
478.04	397.83
478.41	397.34
478.77	397.05
479.14	396.35
479.50	396.08
479.87	396.00
480.23	396.12
480.60	395.63
480.96	395.67
481.33	395.93
481.69	396.06
482.06	396.45
482.42	396.65
482.79	396.85
483.15	397.38
483.52	398.13
483.88	398.57
484.25	399.20
484.61	399.80
484.98	400.66
485.34	401.60
485.71	402.69
486.07	403.72
486.44	404.67
486.80	405.98
487.17	407.29
487.53	409.01
487.90	410.57
488.26	412.50
488.62	414.26
488.99	415.97
489.35	417.90
489.72	420.00
490.08	422.08
490.44	424.50
490.81	426.75
491.17	429.14
491.54	431.84
491.90	434.56
492.26	437.19
492.63	439.99
492.99	442.95
493.36	445.89
493.72	449.32
494.08	452.50
494.45	456.06
494.81	459.71
495.17	463.07
495.54	466.47
495.90	470.17
496.26	473.85
496.63	477.82
496.99	481.82
497.35	485.76
497.72	490.03
498.08	494.05
498.44	498.49
498.80	502.94
499.17	507.21
499.53	511.52
499.89	516.10
500.26	520.50
500.62	524.72
500.98	529.54
501.34	533.88
501.71	538.71
502.07	543.22
502.43	547.75
502.79	552.38
503.16	557.26
503.52	562.02
503.88	566.88
504.24	571.51
504.60	576.11
504.97	580.91
505.33	585.59
505.69	590.40
506.05	595.26
506.41	599.58
506.78	604.06
507.14	608.81
507.50	613.54
507.86	618.30
508.22	623.11
508.59	627.37
508.95	631.90
509.31	636.44
509.67	641.10
510.03	645.61
510.39	649.92
510.75	654.14
511.12	658.52
511.48	662.68
511.84	666.56
512.20	670.69
512.56	674.83
512.92	679.00
513.28	682.96
513.64	686.47
514.00	690.33
514.37	694.18
514.73	697.78
515.09	701.07
515.45	704.35
515.81	707.77
516.17	711.07
516.53	714.32
516.89	717.52
517.25	720.18
517.61	722.88
517.97	725.78
518.33	728.54
518.69	731.27
519.05	733.75
519.41	736.79
519.77	739.64
520.13	742.17
520.49	744.62
520.85	747.02
521.21	749.67
521.57	752.24
521.93	754.51
522.29	757.00
522.65	759.46
523.01	761.70
523.37	763.86
523.73	765.93
524.09	767.86
524.45	769.79
524.81	772.28
525.17	774.73
525.53	777.32
525.89	779.56
526.25	781.61
526.61	783.74
526.97	785.94
527.33	788.06
527.68	790.13
528.04	792.01
528.40	793.95
528.76	796.11
529.12	798.25
529.48	800.61
529.84	802.67
530.20	805.04
530.56	807.40
530.91	809.81
531.27	812.54
531.63	814.82
531.99	817.02
532.35	818.92
532.71	820.96
533.07	823.04
533.42	825.35
533.78	827.73
534.14	830.39
534.50	832.28
534.86	834.46
535.21	836.62
535.57	839.08
535.93	841.57
536.29	843.73
536.65	846.14
537.00	848.46
537.36	850.68
537.72	852.80
538.08	855.21
538.44	857.40
538.79	859.72
539.15	862.20
539.51	864.83
539.87	867.75
540.22	870.40
540.58	873.20
540.94	875.61
541.29	877.95
541.65	880.23
542.01	883.22
542.37	885.70
542.72	888.40
543.08	890.84
543.44	893.41
543.79	895.89
544.15	898.30
544.51	901.29
544.87	904.01
545.22	906.69
545.58	909.20
545.94	911.52
546.29	913.93
546.65	916.27
547.01	918.58
547.36	920.99
547.72	923.42
548.07	925.33
548.43	927.70
548.79	930.21
549.14	932.66
549.50	934.95
549.86	937.37
550.21	939.62
550.57	942.29
550.92	944.76
551.28	947.02
551.64	949.26
551.99	951.21
552.35	953.60
552.70	956.07
553.06	958.65
553.41	961.41
553.77	964.17
554.13	966.67
554.48	969.22
554.84	971.56
555.19	973.90
555.55	976.44
555.90	978.75
556.26	981.12
556.61	983.52
556.97	985.47
557.32	987.77
557.68	990.05
558.03	992.00
558.39	994.01
558.74	996.57
559.10	998.86
559.45	1001.00
559.81	1003.42
560.16	1005.55
560.52	1007.48
560.87	1009.85
561.23	1011.26
561.58	1013.53
561.94	1015.41
562.29	1017.10
562.64	1018.74
563.00	1020.52
563.35	1022.61
563.71	1024.72
564.06	1026.78
564.42	1028.92
564.77	1030.85
565.12	1032.90
565.48	1035.12
565.83	1036.69
566.19	1038.56
566.54	1040.21
566.89	1041.90
567.25	1043.13
567.60	1045.04
567.96	1046.69
568.31	1047.99
568.66	1049.59
569.02	1050.91
569.37	1052.47
569.72	1053.70
570.08	1054.92
570.43	1056.13
570.78	1057.29
571.14	1057.81
571.49	1058.54
571.84	1059.71
572.20	1060.53
572.55	1061.32
572.90	1061.48
573.26	1062.70
573.61	1062.85
573.96	1063.42
574.31	1063.52
574.67	1063.21
575.02	1062.42
575.37	1062.33
575.72	1061.79
576.08	1061.84
576.43	1061.39
576.78	1060.85
577.13	1060.87
577.49	1060.81
577.84	1060.50
578.19	1059.91
578.54	1059.67
578.90	1059.16
579.25	1057.75
579.60	1056.84
579.95	1055.67
580.30	1054.60
580.66	1053.24
581.01	1052.20
581.36	1051.01
581.71	1050.04
582.06	1049.32
582.42	1048.63
582.77	1047.28
583.12	1046.28
583.47	1044.94
583.82	1043.99
584.17	1042.63
584.53	1041.31
584.88	1040.16
585.23	1038.80
585.58	1037.25
585.93	1036.00
586.28	1034.69
586.63	1033.70
586.98	1032.26
587.34	1030.88
587.69	1029.63
588.04	1028.14
588.39	1026.81
588.74	1024.72
589.09	1022.91
589.44	1020.91
589.79	1018.99
590.14	1017.67
590.49	1015.88
590.84	1013.75
591.19	1011.77
591.54	1009.61
591.89	1007.08
592.25	1004.84
592.60	1002.12
592.95	999.87
593.30	997.28
593.65	994.69
594.00	991.79
594.35	989.92
594.70	987.01
595.05	984.63
595.40	981.90
595.75	979.06
596.10	976.92
596.45	974.70
596.80	972.50
597.15	970.32
597.50	967.58
597.85	965.30
598.19	963.26
598.54	960.77
598.89	958.48
599.24	956.40
599.59	953.91
599.94	951.70
600.29	949.02
600.64	946.54
600.99	943.47
601.34	941.47
601.69	938.16
602.04	935.93
602.39	932.95
602.74	930.45
603.08	928.15
603.43	925.60
603.78	923.00
604.13	920.38
604.48	917.46
604.83	914.78
605.18	912.09
605.53	908.83
605.87	905.66
606.22	902.79
606.57	899.61
606.92	896.51
607.27	893.76
607.62	891.28
607.96	888.58
608.31	886.12
608.66	882.88
609.01	880.00
609.36	876.64
609.70	873.39
610.05	869.95
610.40	866.66
610.75	863.32
611.10	859.65
611.44	855.97
611.79	852.73
612.14	849.14
612.49	845.22
612.83	841.77
613.18	838.45
613.53	835.21
613.88	831.69
614.22	828.00
614.57	824.18
614.92	820.60
615.27	816.70
615.61	813.00
615.96	809.60
616.31	806.13
616.65	803.29
617.00	800.39
617.35	797.09
617.70	793.48
618.04	790.18
618.39	786.86
618.74	783.73
619.08	780.08
619.43	776.87
619.78	773.96
620.12	770.80
620.47	767.68
620.82	764.08
621.16	760.86
621.51	757.87
621.85	754.83
622.20	751.60
622.55	748.64
622.89	745.66
623.24	742.67
623.59	739.73
623.93	736.36
624.28	732.98
624.62	730.30
624.97	727.40
625.32	724.44
625.66	721.39
626.01	718.30
626.35	715.09
626.70	711.92
627.04	708.77
627.39	705.65
627.73	702.60
628.08	699.91
628.43	697.00
628.77	693.86
629.12	690.86
629.46	687.53
629.81	684.00
630.15	680.68
630.50	677.25
630.84	673.75
631.19	670.60
631.53	667.79
631.88	664.24
632.22	660.94
632.57	657.80
632.91	654.86
633.26	651.67
633.60	648.89
633.95	645.75
634.29	642.63
634.64	639.75
634.98	636.72
635.32	633.75
635.67	630.96
636.01	628.18
636.36	625.02
636.70	622.34
637.05	619.79
637.39	617.07
637.73	614.61
638.08	612.28
638.42	609.59
638.77	606.79
639.11	604.06
639.45	601.42
639.80	598.63
640.14	595.91
640.49	593.50
640.83	590.59
641.17	588.22
641.52	585.54
641.86	582.87
642.20	580.18
642.55	577.27
642.89	574.71
643.23	572.09
643.58	569.75
643.92	567.06
644.26	564.46
644.61	562.23
644.95	559.49
645.29	556.43
645.64	553.76
645.98	551.15
646.32	548.70
646.66	546.15
647.01	543.56
647.35	541.03
647.69	538.50
648.04	536.30
648.38	533.76
648.72	531.03
649.06	528.49
649.41	526.10
649.75	523.61
650.09	520.80
650.43	518.18
650.78	515.44
651.12	512.93
651.46	510.61
651.80	508.02
652.14	505.66
652.49	503.55
652.83	501.46
653.17	498.98
653.51	496.60
653.85	494.11
654.20	491.72
654.54	489.07
654.88	486.62
655.22	484.07
655.56	481.44
655.90	479.20
656.25	477.02
656.59	474.82
656.93	472.60
657.27	470.43
657.61	468.17
657.95	466.26
658.29	464.19
658.64	461.92
658.98	459.67
659.32	457.37
659.66	455.12
660.00	452.78
660.34	450.63
660.68	448.54
661.02	446.50
661.36	444.35
661.70	442.45
662.05	440.44
662.39	438.71
662.73	437.01
663.07	435.24
663.41	433.26
663.75	431.22
664.09	429.38
664.43	427.74
664.77	426.01
665.11	424.17
665.45	422.20
665.79	420.44
666.13	418.58
666.47	416.88
666.81	415.00
667.15	413.11
667.49	411.52
667.83	409.90
668.17	408.21
668.51	406.52
668.85	405.07
669.19	403.49
669.53	401.70
669.87	399.93
670.21	398.27
670.55	396.67
670.89	395.26
671.23	393.66
671.57	392.16
671.91	390.66
672.25	389.00
672.58	387.79
672.92	386.25
673.26	385.00
673.60	383.68
673.94	382.49
674.28	381.34
674.62	379.91
674.96	378.62
675.30	377.33
675.64	376.17
675.97	374.74
676.31	373.41
676.65	372.10
676.99	370.97
677.33	369.70
677.67	368.36
678.01	366.97
678.34	365.70
678.68	364.37
679.02	363.13
679.36	362.06
679.70	360.67
680.04	359.51
680.37	358.09
680.71	356.78
681.05	355.47
681.39	354.25
681.73	353.06
682.06	351.84
682.40	350.77
682.74	349.54
683.08	348.41
683.42	347.28
683.75	346.22
684.09	345.07
684.43	343.99
684.77	342.82
685.10	341.70
685.44	340.71
685.78	339.42
686.12	338.26
686.45	337.11
686.79	336.06
687.13	334.93
687.46	333.92
687.80	332.86
688.14	331.91
688.48	330.77
688.81	329.57
689.15	328.61
689.49	327.37
689.82	326.53
690.16	325.43
690.50	324.41
690.83	323.41
691.17	322.27
691.51	321.17
691.84	320.28
692.18	319.27
692.52	318.17
692.85	317.30
693.19	316.32
693.52	315.35
693.86	314.32
694.20	313.35
694.53	312.36
694.87	311.50
695.21	310.47
695.54	309.60
695.88	308.87
696.21	307.91
696.55	307.25
696.88	306.22
697.22	305.35
697.56	304.52
697.89	303.63
698.23	302.89
698.56	302.18
698.90	301.35
699.23	300.50
699.57	299.67
699.90	298.83
700.24	298.01
700.58	297.30
700.91	296.50
701.25	295.94
701.58	295.37
701.92	294.60
702.25	293.99
702.59	293.33
702.92	292.52
703.26	291.80
703.59	291.02
703.93	290.51
704.26	289.89
704.60	289.12
704.93	288.58
705.26	287.88
705.60	287.22
705.93	286.62
706.27	286.10
706.60	285.66
706.94	285.24
707.27	284.70
707.61	284.08
707.94	283.64
708.27	282.98
708.61	282.21
708.94	281.60
709.28	280.94
709.61	280.39
709.94	280.02
710.28	279.45
710.61	278.97
710.95	278.30
711.28	277.88
711.61	277.36
711.95	276.78
712.28	276.27
712.61	275.71
712.95	275.29
713.28	274.93
713.61	274.30
713.95	273.71
714.28	273.18
714.61	272.80
714.95	272.35
715.28	271.87
715.61	271.50
715.95	271.14
716.28	270.74
716.61	270.26
716.95	269.63
717.28	269.28
717.61	268.94
717.94	268.55
718.28	268.11
718.61	267.86
718.94	267.53
719.27	267.25
719.61	266.91
719.94	266.53
720.27	265.99
720.60	265.66
720.94	265.30
721.27	265.04
721.60	264.75
721.93	264.27
722.27	264.01
722.60	263.82
722.93	263.36
723.26	263.10
723.59	262.85
723.93	262.71
724.26	262.31
724.59	261.98
724.92	261.63
725.25	261.28
725.59	260.86
725.92	260.53
726.25	260.19
726.58	259.95
726.91	259.68
727.24	259.40
727.57	259.13
727.91	258.82
728.24	258.61
728.57	258.19
728.90	258.01
729.23	257.61
729.56	257.34
729.89	257.11
730.22	256.75
730.55	256.38
730.89	256.02
731.22	255.87
731.55	255.45
731.88	255.21
732.21	254.93
732.54	254.62
732.87	254.40
733.20	254.08
733.53	253.70
733.86	253.39
734.19	253.14
734.52	252.89
734.85	252.71
735.18	252.34
735.51	252.17
735.84	251.89
736.17	251.63
736.50	251.15
736.83	250.95
737.16	250.84
737.49	250.66
737.82	250.42
738.15	250.05
738.48	249.86
738.81	249.53
739.14	249.33
739.47	249.21
739.80	248.83
740.13	248.50
740.46	248.28
740.79	248.04
741.12	247.78
741.45	247.50
741.78	247.12
742.11	247.01
742.44	246.70
742.77	246.50
743.10	246.32
743.43	246.16
743.75	245.90
744.08	245.80
744.41	245.51
744.74	245.26
745.07	245.04
745.40	244.94
745.73	244.81
746.06	244.53
746.39	244.22
746.71	244.11
747.04	243.92
747.37	243.64
747.70	243.41
748.03	243.20
748.36	243.11
748.68	243.16
749.01	242.85
749.34	242.70
749.67	242.59
750.00	242.39
750.33	242.38
750.65	242.29
750.98	241.90
751.31	241.75
751.64	241.68
751.97	241.67
752.29	241.54
752.62	241.30
752.95	241.25
753.28	241.12
753.60	240.91
753.93	240.82
754.26	240.82
754.59	240.71
754.91	240.64
755.24	240.55
755.57	240.21
755.90	240.15
756.22	239.98
756.55	239.86
756.88	239.71
757.20	239.42
757.53	239.20
757.86	239.12
758.19	239.05
758.51	238.98
758.84	238.87
759.17	238.61
759.49	238.61
759.82	238.56
760.15	238.57
760.47	238.60
760.80	238.56
761.13	238.50
761.45	238.42
761.78	238.41
762.11	238.28
762.43	238.35
762.76	238.30
763.08	238.30
763.41	238.17
763.74	238.07
764.06	238.07
764.39	238.00
764.71	237.90
765.04	237.83
765.37	237.66
765.69	237.47
766.02	237.42
766.34	237.37
766.67	237.27
767.00	237.25
767.32	237.14
767.65	237.24
767.97	237.20
768.30	237.13
768.62	237.05
768.95	236.94
769.27	236.71
769.60	236.62
769.92	236.50
770.25	236.40
770.57	236.38
770.90	236.30
771.22	236.28
771.55	236.18
771.87	236.07
772.20	236.02
772.52	236.11
772.85	236.34
773.17	236.29
773.50	236.11
773.82	235.96
774.15	235.75
774.47	235.45
774.80	235.26
775.12	235.17
775.45	234.99
775.77	234.92
776.09	234.95
776.42	234.82
776.74	234.77
777.07	234.77
777.39	234.71
777.72	234.67
778.04	234.55
778.36	234.50
778.69	234.46
779.01	234.44
779.33	234.25
779.66	233.94
779.98	233.78
780.31	233.79
780.63	233.77
780.95	233.75
781.28	233.73
781.60	233.65
781.92	233.60
782.25	233.53
782.57	233.47
782.89	233.32
783.22	233.24
783.54	233.14
783.86	232.95
784.19	232.82
784.51	232.76
784.83	232.60
785.16	232.46
785.48	232.39
785.80	232.23
786.12	232.14
786.45	232.14
786.77	232.00
787.09	231.92
787.42	231.79
787.74	231.79
788.06	231.70
788.38	231.69
788.71	231.60
789.03	231.57
789.35	231.55
789.67	231.47
789.99	231.39
790.32	231.42
790.64	231.39
790.96	231.50
791.28	231.45
791.61	231.54
791.93	231.57
792.25	231.41
792.57	231.54
792.89	231.50
793.21	231.43
793.54	231.48
793.86	231.42
794.18	231.46
794.50	231.45
794.82	231.45
795.14	231.47
795.47	231.50
795.79	231.43
796.11	231.46
796.43	231.47
796.75	231.63
797.07	231.59
797.39	231.58
797.71	231.53
798.04	231.55
798.36	231.58
798.68	231.49
799.00	231.52
799.32	231.46
799.64	231.58
799.96	231.58
800.28	231.64
800.60	231.69
800.92	231.67
801.24	231.60
801.56	231.64
801.89	231.59
802.21	231.61
802.53	231.65
802.85	231.64
803.17	231.79
803.49	231.70
803.81	231.69
804.13	231.67
804.45	231.64
804.77	231.71
805.09	231.62
805.41	231.66
805.73	231.78
806.05	231.73
806.37	231.63
806.69	231.56
807.01	231.53
807.33	231.47
807.65	231.34
807.97	231.44
808.28	231.41
808.60	231.40
808.92	231.37
809.24	231.50
809.56	231.36
809.88	231.27
810.20	231.32
810.52	231.35
810.84	231.43
811.16	231.39
811.48	231.19
811.80	231.32
812.12	231.31
812.43	231.21
812.75	231.17
813.07	231.07
813.39	230.95
813.71	230.91
814.03	230.90
814.35	231.00
814.67	230.89
814.98	230.78
815.30	230.70
815.62	230.60
815.94	230.37
816.26	230.51
816.58	230.37
816.89	230.31
817.21	230.21
817.53	230.08
817.85	229.92
818.17	229.89
818.48	229.60
818.80	229.56
819.12	229.57
819.44	229.53
819.76	229.47
820.07	229.43
820.39	229.31
820.71	229.24
821.03	229.01
821.34	228.98
821.66	229.01
821.98	229.01
822.30	228.98
822.61	229.07
822.93	228.91
823.25	228.93
823.57	228.85
823.88	228.90
824.20	228.88
824.52	229.06
824.83	229.04
825.15	229.12
825.47	229.07
825.79	228.99
826.10	228.88
826.42	228.90
826.74	228.96
827.05	228.93
827.37	228.87
827.69	228.87
828.00	228.83
828.32	228.88
828.64	228.81
828.95	228.92
829.27	228.85
829.58	228.83
829.90	228.83
830.22	228.74
830.53	228.63
830.85	228.65
831.17	228.46
831.48	228.46
831.80	228.42
832.11	228.50
832.43	228.46
832.75	228.53
833.06	228.70
833.38	228.73
833.69	228.79
834.01	228.80
834.32	228.80
834.64	228.75
834.96	228.79
835.27	228.73
835.59	228.62
835.90	228.65
836.22	228.58
836.53	228.62
836.85	228.73
837.16	228.95
837.48	228.97
837.79	229.15
838.11	229.14
838.42	229.19
838.74	229.14
839.05	229.17
839.37	229.17
839.68	229.00
840.00	228.99
840.31	228.97
840.63	229.12
840.94	229.23
841.26	229.31
841.57	229.23
841.88	229.40
842.20	229.45
842.51	229.39
842.83	229.49
843.14	229.70
843.46	229.65
843.77	229.56
844.08	229.51
844.40	229.52
844.71	229.59
845.03	229.53
845.34	229.56
845.65	229.60
845.97	229.67
846.28	229.80
846.60	229.90
846.91	230.02
847.22	229.92
847.54	229.96
847.85	229.96
848.16	230.01
848.48	229.92
848.79	229.96
849.10	230.05
849.42	230.14
849.73	229.92
850.04	229.88
850.36	229.80
850.67	229.87
850.98	229.80
851.30	229.82
851.61	229.86
851.92	229.81
852.23	229.80
852.55	229.71
852.86	229.59
853.17	229.50
853.49	229.43
853.80	229.41
854.11	229.40
854.42	229.41
854.74	229.38
855.05	229.42
855.36	229.34
855.67	229.22
855.99	229.17
856.30	229.36
856.61	229.39
856.92	229.33
857.23	229.20
857.55	229.17
857.86	229.17
858.17	229.16
858.48	229.14
858.79	229.12
859.11	229.18
859.42	229.15
859.73	229.04
860.04	229.02
860.35	229.03
860.66	228.94
860.98	228.96
861.29	228.88
861.60	228.78
861.91	228.70
862.22	228.70
862.53	228.55
862.84	228.29
863.16	228.28
863.47	228.12
863.78	228.16
864.09	228.08
864.40	227.88
864.71	227.80
865.02	227.84
865.33	227.80
865.64	227.70
865.95	227.76
866.27	227.98
866.58	227.90
866.89	227.80
867.20	227.80
867.51	227.65
867.82	227.65
868.13	227.67
868.44	227.59
868.75	227.61
869.06	227.63
869.37	227.70
869.68	227.58
869.99	227.78
870.30	227.83
870.61	227.89
870.92	228.02
871.23	227.94
871.54	228.02
871.85	227.99
872.16	228.02
872.47	227.89
872.78	227.77
873.09	227.76
873.40	227.78
873.71	227.86
874.02	227.98
874.33	227.93
874.64	227.93
874.95	228.07
875.26	228.03
875.56	228.00
875.87	227.98
876.18	228.08
876.49	228.23
876.80	228.18
877.11	228.16
877.42	228.04
877.73	228.18
878.04	228.08
878.35	228.16
878.66	228.18
878.96	228.26
879.27	228.26
879.58	228.29
879.89	228.29
880.20	228.30
880.51	228.32
880.82	228.43
881.12	228.52
881.43	228.50
881.74	228.55
882.05	228.59
882.36	228.51
882.67	228.56
882.97	228.24
883.28	228.30
883.59	228.34
883.90	228.47
884.21	228.40
884.51	228.44
884.82	228.49
885.13	228.56
885.44	228.50
885.74	228.54
886.05	228.70
886.36	228.71
886.67	228.73
886.98	228.81
887.28	228.75
887.59	228.75
887.90	228.77
888.20	228.71
888.51	228.75
888.82	228.72
889.13	228.80
889.43	229.10
889.74	229.08
890.05	229.00
890.35	229.03
890.66	229.10
890.97	229.02
891.28	228.90
891.58	228.91
891.89	228.93
892.20	228.86
892.50	228.63
892.81	228.68
893.12	228.60
893.42	228.59
893.73	228.56
894.04	228.53
894.34	228.45
894.65	228.54
894.95	228.60
895.26	228.68
895.57	228.56
895.87	228.36
896.18	228.32
896.48	228.43
896.79	228.36
897.10	228.32
897.40	228.36
897.71	228.42
898.01	228.37
898.32	228.40
898.63	228.41
898.93	228.51
899.24	228.45
899.54	228.44
899.85	228.31
900.15	228.37
900.46	228.35
900.76	228.43
901.07	228.30
901.38	228.24
901.68	228.21
901.99	228.23
902.29	228.15
902.60	228.12
902.90	227.99
903.21	228.00
903.51	228.03
903.82	228.03
904.12	228.01
904.43	227.97
904.73	227.91
905.03	227.92
905.34	228.05
905.64	228.09
905.95	228.05
906.25	228.04
906.56	227.96
906.86	227.99
907.17	227.93
907.47	228.04
907.77	228.08
908.08	228.14
908.38	228.15
908.69	228.15
908.99	228.19
909.30	228.24
909.60	228.17
909.90	228.16
910.21	228.08
910.51	228.04
910.81	228.04
911.12	228.12
911.42	228.08
911.73	227.89
912.03	227.87
912.33	227.98
912.64	227.96
912.94	227.94
913.24	227.84
913.55	227.92
913.85	227.86
914.15	227.86
914.46	227.76
914.76	227.67
915.06	227.70
915.37	227.63
915.67	227.56
915.97	227.60
916.27	227.60
916.58	227.66
916.88	227.77
917.18	227.74
917.49	227.88
917.79	227.97
918.09	228.09
918.39	228.23
918.70	228.20
919.00	228.24
919.30	228.37
919.60	228.43
919.91	228.44
920.21	228.44
920.51	228.46
920.81	228.61
921.12	228.75
921.42	228.82
921.72	228.93
922.02	229.12
922.32	229.25
922.63	229.22
922.93	229.37
923.23	229.43
923.53	229.41
923.83	229.36
924.13	229.41
924.44	229.37
924.74	229.32
925.04	229.30
925.34	229.33
925.64	229.28
925.94	229.24
926.24	229.28
926.55	229.30
926.85	229.38
927.15	229.26
927.45	229.25
927.75	229.18
928.05	229.18
928.35	229.09
928.65	229.01
928.95	229.07
929.26	229.03
929.56	228.95
929.86	229.10
930.16	229.06
930.46	229.04
930.76	229.03
931.06	228.98
931.36	229.01
931.66	229.04
931.96	229.08
932.26	229.10
932.56	229.06
932.86	229.07
933.16	228.89
933.46	228.89
933.76	228.81
934.06	228.90
934.36	229.04
934.66	228.97
934.96	228.98
935.26	228.97
935.56	228.94
935.86	228.91
936.16	228.74
936.46	228.74
936.76	228.59
937.06	228.51
937.36	228.43
937.66	228.38
937.96	228.36
938.26	228.31
938.56	228.25
938.86	228.20
939.16	228.28
939.46	228.30
939.76	228.42
940.06	228.50
940.35	228.44
940.65	228.32
940.95	228.34
941.25	228.30
941.55	228.33
941.85	228.33
942.15	228.35
942.45	228.42
942.75	228.33
943.04	228.39
943.34	228.49
943.64	228.59
943.94	228.61
944.24	228.58
944.54	228.60
944.84	228.58
945.13	228.52
945.43	228.42
945.73	228.41
946.03	228.32
946.33	228.24
946.62	228.25
946.92	228.18
947.22	228.17
947.52	228.11
947.82	228.10
948.11	228.06
948.41	228.05
948.71	228.12
949.01	228.13
949.31	228.06
949.60	227.98
949.90	227.96
950.20	227.86
950.50	227.97
950.79	227.82
951.09	227.91
951.39	227.92
951.69	227.95
951.98	228.01
952.28	227.93
952.58	227.90
952.87	227.95
953.17	228.03
953.47	228.06
953.76	228.12
954.06	228.06
954.36	228.03
954.66	228.03
954.95	228.01
955.25	228.04
955.55	228.10
955.84	228.11
956.14	228.19
956.44	228.19
956.73	228.11
957.03	228.23
957.32	228.30
957.62	228.32
957.92	228.42
958.21	228.45
958.51	228.74
958.81	228.86
959.10	228.88
959.40	228.86
959.69	228.89
959.99	228.85
960.29	228.92
960.58	228.83
960.88	228.83
961.17	228.90
961.47	228.94
961.76	228.95
962.06	228.97
962.36	228.88
962.65	228.99
962.95	228.99
963.24	228.90
963.54	228.86
963.83	228.93
964.13	228.84
964.42	228.70
964.72	228.49
965.01	228.45
965.31	228.37
965.60	228.43
965.90	228.48
966.19	228.49
966.49	228.47
966.78	228.61
967.08	228.64
967.37	228.60
967.67	228.54
967.96	228.58
968.26	228.66
968.55	228.67
968.85	228.66
969.14	228.73
969.43	228.90
969.73	228.91
970.02	228.92
970.32	228.95
970.61	229.01
970.91	228.94
971.20	228.91
971.49	228.91
971.79	228.90
972.08	228.84
972.38	228.89
972.67	228.87
972.96	228.86
973.26	228.90
973.55	228.83
973.85	228.89
974.14	228.88
974.43	228.90
974.73	229.03
975.02	228.96
975.31	228.86
975.61	228.81
975.90	228.74
976.19	228.54
976.49	228.48
976.78	228.56
977.07	228.64
977.37	228.72
977.66	228.74
977.95	228.67
978.24	228.60
978.54	228.71
978.83	228.76
979.12	228.74
979.42	228.67
979.71	228.56
980.00	228.49
980.29	228.53
980.59	228.42
980.88	228.36
981.17	228.39
981.46	228.42
981.76	228.40
982.05	228.40
982.34	228.57
982.63	228.64
982.93	228.61
983.22	228.62
983.51	228.60
983.80	228.61
984.09	228.54
984.39	228.57
984.68	228.34
984.97	228.22
985.26	228.24
985.55	228.22
985.85	228.24
986.14	228.21
986.43	228.28
986.72	228.31
987.01	228.17
987.30	228.18
987.59	228.06
987.89	228.08
988.18	228.00
988.47	227.94
988.76	227.87
989.05	227.86
989.34	227.84
989.63	227.76
989.92	227.73
990.22	227.74
990.51	227.70
990.80	227.81
991.09	227.92
991.38	227.92
991.67	227.89
991.96	227.88
992.25	227.90
992.54	227.71
992.83	227.63
993.12	227.67
993.41	227.70
993.70	227.85
993.99	227.81
994.28	227.93
994.58	227.92
994.87	227.81
995.16	227.83
995.45	227.68
995.74	227.75
996.03	227.74
996.32	227.91
996.61	228.04
996.90	228.05
997.19	228.01
997.48	228.00
997.77	228.05
998.06	228.14
998.34	228.12
998.63	228.15
998.92	228.21
999.21	228.23
999.50	228.23
999.79	228.18
1000.08	228.27
1000.37	228.20
1000.66	228.22
1000.95	228.36
1001.24	228.28
1001.53	228.43
1001.82	228.36
1002.11	228.41
1002.40	228.46
1002.68	228.47
1002.97	228.50
1003.26	228.42
1003.55	228.45
1003.84	228.49
1004.13	228.50
1004.42	228.62
1004.71	228.77
1004.99	228.80
1005.28	228.87
1005.57	228.75
1005.86	228.64
1006.15	228.61
1006.44	228.70
1006.72	228.65
1007.01	228.61
1007.30	228.67
1007.59	228.66
1007.88	228.71
1008.17	228.70
1008.45	228.52
1008.74	228.43
1009.03	228.42
1009.32	228.64
1009.60	228.60
1009.89	228.56
1010.18	228.54
1010.47	228.52
1010.76	228.34
1011.04	228.27
1011.33	228.25
1011.62	228.38
1011.91	228.50
1012.19	228.50
1012.48	228.42
1012.77	228.44
1013.05	228.60
1013.34	228.55
1013.63	228.60
1013.92	228.62
1014.20	228.56
1014.49	228.51
1014.78	228.47
1015.06	228.42
1015.35	228.39
1015.64	228.31
1015.92	228.23
1016.21	228.23
1016.50	228.26
1016.78	228.32
1017.07	228.26
1017.36	228.18
1017.64	228.08
1017.93	228.06
1018.22	228.00
1018.50	228.02
1018.79	228.04
1019.08	227.90
1019.36	227.95
1019.65	227.90
1019.93	227.90
1020.22	227.97
1020.51	228.15
1020.79	228.10
1021.08	227.50
1021.36	227.70
1021.65	227.80
1021.94	228.00
1022.22	228.30
1022.51	228.60
1022.79	228.90
1023.08	229.00
1023.36	230.60
1023.65	226.10
>>>>>End Processed Spectral Data<<<<<
