SpectraSuite Data File
++++++++++++++++++++++++++++++++++++
Date: Fri Feb 01 14:33:48 EST 2013
User: group
Dark Spectrum Present: No
Reference Spectrum Present: No
Number of Sampled Component Spectra: 1
Spectrometers: USB2E7196
Integration Time (usec): 70000 (USB2E7196)
Spectra Averaged: 10 (USB2E7196)
Boxcar Smoothing: 10 (USB2E7196)
Correct for Electrical Dark: No (USB2E7196)
Strobe/Lamp Enabled: No (USB2E7196)
Correct for Detector Non-linearity: No (USB2E7196)
Correct for Stray Light: No (USB2E7196)
Number of Pixels in Processed Spectrum: 2048
>>>>>Begin Processed Spectral Data<<<<<
339.09	0.00
339.48	215.00
339.86	217.40
340.24	217.70
340.63	221.10
341.01	224.40
341.39	224.00
341.78	223.80
342.16	228.20
342.54	227.70
342.93	214.94
343.31	225.78
343.69	226.43
344.07	226.87
344.46	227.36
344.84	227.70
345.22	227.87
345.60	228.06
345.99	228.31
346.37	228.24
346.75	228.32
347.13	228.32
347.52	228.30
347.90	228.35
348.28	228.29
348.66	228.33
349.05	228.30
349.43	228.41
349.81	228.36
350.19	228.35
350.57	228.46
350.96	228.52
351.34	228.70
351.72	228.73
352.10	228.89
352.48	228.96
352.87	229.02
353.25	229.05
353.63	229.10
354.01	229.13
354.39	229.36
354.77	229.43
355.15	229.62
355.54	229.74
355.92	229.71
356.30	229.90
356.68	230.12
357.06	230.16
357.44	230.16
357.82	230.23
358.20	230.34
358.58	230.40
358.97	230.51
359.35	230.52
359.73	230.60
360.11	230.68
360.49	230.66
360.87	230.65
361.25	230.80
361.63	230.90
362.01	230.96
362.39	230.90
362.77	230.86
363.15	230.90
363.53	230.85
363.91	230.93
364.29	230.83
364.67	230.68
365.05	230.70
365.43	230.80
365.81	230.84
366.19	230.79
366.57	230.83
366.95	230.74
367.33	230.60
367.71	230.61
368.09	230.57
368.47	230.60
368.85	230.69
369.23	230.65
369.61	230.62
369.99	230.60
370.37	230.59
370.75	230.67
371.13	230.57
371.51	230.64
371.89	230.57
372.27	230.55
372.65	230.50
373.03	230.46
373.41	230.34
373.78	230.31
374.16	230.30
374.54	230.12
374.92	230.08
375.30	230.02
375.68	229.88
376.06	229.80
376.44	229.74
376.82	229.59
377.19	229.54
377.57	229.34
377.95	229.22
378.33	229.22
378.71	229.05
379.09	228.93
379.47	228.84
379.84	228.76
380.22	228.71
380.60	228.60
380.98	228.32
381.36	228.20
381.73	228.10
382.11	228.07
382.49	227.99
382.87	227.88
383.25	227.83
383.62	228.06
384.00	227.93
384.38	227.86
384.76	227.81
385.13	227.81
385.51	227.74
385.89	227.62
386.27	227.51
386.64	227.46
387.02	227.52
387.40	227.29
387.78	227.22
388.15	227.11
388.53	227.12
388.91	227.22
389.29	227.16
389.66	227.25
390.04	227.26
390.42	227.29
390.79	227.40
391.17	227.45
391.55	227.23
391.92	227.28
392.30	227.46
392.68	227.49
393.05	227.46
393.43	227.59
393.81	227.70
394.18	227.69
394.56	227.80
394.94	227.86
395.31	228.03
395.69	228.19
396.06	228.35
396.44	228.40
396.82	228.54
397.19	228.80
397.57	228.82
397.95	228.93
398.32	228.95
398.70	228.94
399.07	229.04
399.45	229.24
399.82	229.35
400.20	229.35
400.58	229.51
400.95	229.67
401.33	229.83
401.70	230.15
402.08	230.41
402.45	230.64
402.83	230.93
403.20	231.17
403.58	231.40
403.95	231.73
404.33	232.09
404.71	232.31
405.08	232.75
405.46	233.14
405.83	233.42
406.21	233.88
406.58	234.48
406.96	234.97
407.33	235.39
407.70	235.99
408.08	236.77
408.45	237.53
408.83	238.23
409.20	238.93
409.58	239.65
409.95	240.44
410.33	241.21
410.70	241.99
411.08	242.96
411.45	243.97
411.82	245.04
412.20	246.17
412.57	247.59
412.95	248.47
413.32	249.76
413.69	251.16
414.07	252.72
414.44	254.31
414.82	256.02
415.19	257.94
415.56	259.87
415.94	261.75
416.31	263.98
416.68	266.23
417.06	268.81
417.43	271.04
417.81	273.84
418.18	276.79
418.55	279.93
418.93	283.12
419.30	286.50
419.67	290.00
420.04	293.60
420.42	297.37
420.79	301.80
421.16	306.18
421.54	310.69
421.91	315.29
422.28	320.05
422.66	325.16
423.03	329.98
423.40	335.20
423.77	340.74
424.15	346.30
424.52	351.98
424.89	358.22
425.26	364.46
425.64	370.13
426.01	376.41
426.38	382.91
426.75	389.58
427.13	396.58
427.50	403.77
427.87	411.55
428.24	419.19
428.61	426.61
428.99	434.53
429.36	443.43
429.73	452.16
430.10	460.72
430.47	469.23
430.85	478.20
431.22	487.45
431.59	497.25
431.96	506.62
432.33	517.20
432.70	527.44
433.08	539.26
433.45	550.75
433.82	562.18
434.19	574.68
434.56	587.09
434.93	598.74
435.30	610.51
435.68	623.11
436.05	635.89
436.42	648.57
436.79	659.90
437.16	671.97
437.53	684.78
437.90	697.57
438.27	710.58
438.64	724.00
439.01	736.37
439.38	747.43
439.75	758.27
440.13	770.64
440.50	782.37
440.87	792.12
441.24	802.13
441.61	813.27
441.98	821.33
442.35	830.96
442.72	840.65
443.09	850.07
443.46	856.37
443.83	860.42
444.20	864.29
444.57	870.05
444.94	873.20
445.31	876.66
445.68	879.67
446.05	881.80
446.42	881.93
446.79	881.91
447.16	881.76
447.53	882.33
447.90	879.13
448.27	875.69
448.64	870.39
449.01	866.90
449.37	859.54
449.74	852.84
450.11	844.12
450.48	834.66
450.85	825.23
451.22	817.15
451.59	809.61
451.96	802.55
452.33	792.03
452.70	782.80
453.07	771.19
453.43	759.68
453.80	748.19
454.17	737.20
454.54	726.84
454.91	715.66
455.28	704.33
455.65	693.94
456.02	683.14
456.38	674.20
456.75	662.90
457.12	653.46
457.49	644.00
457.86	635.04
458.23	627.29
458.59	618.52
458.96	609.56
459.33	601.70
459.70	593.70
460.07	587.44
460.43	580.09
460.80	573.17
461.17	567.14
461.54	560.89
461.91	554.88
462.27	548.70
462.64	543.37
463.01	537.49
463.38	531.49
463.74	526.16
464.11	521.24
464.48	516.82
464.85	511.94
465.21	508.31
465.58	504.37
465.95	499.61
466.32	495.63
466.68	491.66
467.05	487.66
467.42	483.55
467.78	479.50
468.15	475.55
468.52	472.70
468.88	468.88
469.25	465.58
469.62	462.82
469.98	459.82
470.35	456.97
470.72	454.34
471.08	451.67
471.45	449.13
471.82	446.46
472.18	443.88
472.55	441.99
472.92	439.69
473.28	437.59
473.65	435.61
474.02	433.52
474.38	431.82
474.75	430.48
475.11	428.92
475.48	427.73
475.85	426.88
476.21	425.76
476.58	424.72
476.94	423.80
477.31	422.93
477.67	422.12
478.04	421.47
478.41	420.98
478.77	420.68
479.14	420.18
479.50	420.04
479.87	420.01
480.23	420.04
480.60	419.98
480.96	419.82
481.33	420.23
481.69	420.60
482.06	420.72
482.42	420.73
482.79	421.11
483.15	421.72
483.52	422.47
483.88	423.10
484.25	424.06
484.61	424.95
484.98	425.81
485.34	427.22
485.71	428.59
486.07	429.85
486.44	431.19
486.80	432.92
487.17	434.62
487.53	436.50
487.90	438.44
488.26	440.59
488.62	442.94
488.99	444.97
489.35	447.30
489.72	450.09
490.08	452.87
490.44	455.73
490.81	458.65
491.17	461.48
491.54	464.73
491.90	467.98
492.26	471.39
492.63	474.79
492.99	478.19
493.36	481.83
493.72	485.98
494.08	490.06
494.45	494.23
494.81	498.69
495.17	502.86
495.54	507.44
495.90	511.85
496.26	516.42
496.63	521.33
496.99	526.33
497.35	531.40
497.72	536.78
498.08	541.98
498.44	547.28
498.80	553.02
499.17	558.58
499.53	564.09
499.89	569.75
500.26	575.49
500.62	581.06
500.98	587.15
501.34	592.74
501.71	598.78
502.07	604.66
502.43	610.65
502.79	616.98
503.16	623.01
503.52	629.25
503.88	635.16
504.24	641.13
504.60	647.34
504.97	653.65
505.33	659.81
505.69	666.31
506.05	672.54
506.41	678.27
506.78	684.34
507.14	690.74
507.50	697.17
507.86	703.64
508.22	710.22
508.59	716.09
508.95	722.46
509.31	728.42
509.67	734.61
510.03	740.55
510.39	746.53
510.75	752.66
511.12	758.64
511.48	764.83
511.84	771.07
512.20	776.59
512.56	782.51
512.92	788.11
513.28	793.80
513.64	799.12
514.00	804.74
514.37	810.21
514.73	815.40
515.09	820.39
515.45	825.20
515.81	830.00
516.17	835.60
516.53	840.46
516.89	845.43
517.25	850.11
517.61	854.92
517.97	859.19
518.33	863.43
518.69	867.76
519.05	872.09
519.41	876.43
519.77	880.98
520.13	884.97
520.49	889.02
520.85	893.02
521.21	897.00
521.57	901.10
521.93	904.48
522.29	908.32
522.65	912.08
523.01	915.70
523.37	918.73
523.73	921.72
524.09	924.91
524.45	928.26
524.81	931.56
525.17	934.95
525.53	938.55
525.89	941.53
526.25	944.75
526.61	947.29
526.97	950.17
527.33	953.32
527.68	956.32
528.04	959.26
528.40	961.83
528.76	965.12
529.12	968.08
529.48	971.52
529.84	974.28
530.20	977.44
530.56	980.70
530.91	984.79
531.27	987.88
531.63	991.18
531.99	994.14
532.35	996.79
532.71	998.93
533.07	1001.98
533.42	1005.12
533.78	1008.15
534.14	1011.56
534.50	1014.04
534.86	1016.55
535.21	1018.72
535.57	1021.70
535.93	1024.41
536.29	1026.87
536.65	1029.64
537.00	1031.75
537.36	1034.28
537.72	1036.50
538.08	1038.94
538.44	1040.90
538.79	1043.11
539.15	1045.12
539.51	1047.22
539.87	1050.24
540.22	1053.04
540.58	1055.65
540.94	1057.85
541.29	1060.08
541.65	1062.24
542.01	1065.19
542.37	1067.34
542.72	1069.80
543.08	1071.98
543.44	1074.40
543.79	1075.99
544.15	1077.95
544.51	1080.97
544.87	1083.54
545.22	1085.81
545.58	1087.56
545.94	1089.47
546.29	1091.60
546.65	1093.52
547.01	1095.61
547.36	1097.10
547.72	1098.79
548.07	1100.18
548.43	1101.79
548.79	1103.38
549.14	1105.29
549.50	1106.32
549.86	1107.91
550.21	1109.69
550.57	1111.19
550.92	1112.84
551.28	1114.91
551.64	1116.53
551.99	1117.46
552.35	1118.38
552.70	1119.66
553.06	1121.59
553.41	1123.01
553.77	1124.74
554.13	1126.34
554.48	1128.06
554.84	1129.60
555.19	1131.12
555.55	1132.46
555.90	1133.83
556.26	1135.35
556.61	1136.52
556.97	1137.98
557.32	1139.35
557.68	1140.68
558.03	1141.94
558.39	1142.88
558.74	1144.42
559.10	1145.55
559.45	1147.25
559.81	1149.39
560.16	1150.68
560.52	1151.73
560.87	1152.92
561.23	1153.93
561.58	1155.55
561.94	1156.22
562.29	1157.13
562.64	1158.19
563.00	1159.20
563.35	1160.68
563.71	1162.04
564.06	1163.11
564.42	1164.53
564.77	1165.87
565.12	1166.95
565.48	1167.97
565.83	1168.90
566.19	1169.70
566.54	1170.30
566.89	1170.72
567.25	1171.04
567.60	1172.24
567.96	1172.97
568.31	1173.71
568.66	1173.92
569.02	1174.09
569.37	1174.63
569.72	1174.85
570.08	1175.35
570.43	1175.70
570.78	1175.69
571.14	1175.18
571.49	1175.36
571.84	1175.29
572.20	1175.01
572.55	1174.45
572.90	1173.97
573.26	1173.51
573.61	1173.09
573.96	1172.87
574.31	1171.81
574.67	1170.56
575.02	1168.90
575.37	1167.68
575.72	1166.44
576.08	1165.40
576.43	1164.07
576.78	1163.18
577.13	1162.34
577.49	1160.99
577.84	1159.70
578.19	1158.34
578.54	1156.97
578.90	1155.59
579.25	1153.70
579.60	1151.94
579.95	1150.34
580.30	1148.47
580.66	1146.93
581.01	1144.83
581.36	1142.92
581.71	1141.80
582.06	1140.10
582.42	1138.43
582.77	1136.65
583.12	1134.88
583.47	1133.30
583.82	1131.60
584.17	1129.15
584.53	1126.99
584.88	1124.80
585.23	1122.42
585.58	1120.25
585.93	1118.12
586.28	1115.88
586.63	1113.95
586.98	1111.86
587.34	1110.00
587.69	1108.15
588.04	1105.94
588.39	1103.94
588.74	1101.13
589.09	1098.16
589.44	1095.89
589.79	1093.40
590.14	1091.00
590.49	1088.66
590.84	1085.78
591.19	1083.18
591.54	1080.37
591.89	1077.32
592.25	1074.43
592.60	1071.35
592.95	1068.17
593.30	1065.00
593.65	1061.70
594.00	1058.19
594.35	1055.75
594.70	1052.21
595.05	1049.03
595.40	1045.70
595.75	1042.10
596.10	1039.39
596.45	1036.59
596.80	1033.71
597.15	1030.39
597.50	1027.08
597.85	1023.69
598.19	1020.83
598.54	1017.53
598.89	1014.82
599.24	1012.21
599.59	1009.24
599.94	1006.37
600.29	1003.31
600.64	1000.44
600.99	997.08
601.34	994.21
601.69	990.41
602.04	987.31
602.39	983.91
602.74	981.03
603.08	978.07
603.43	975.21
603.78	971.77
604.13	968.52
604.48	965.70
604.83	962.60
605.18	959.54
605.53	955.52
605.87	951.73
606.22	948.40
606.57	944.83
606.92	941.60
607.27	938.51
607.62	935.34
607.96	932.02
608.31	928.88
608.66	925.16
609.01	921.47
609.36	917.95
609.70	913.93
610.05	909.81
610.40	906.22
610.75	902.13
611.10	898.47
611.44	894.22
611.79	890.32
612.14	886.54
612.49	882.26
612.83	878.76
613.18	875.14
613.53	871.10
613.88	867.04
614.22	863.04
614.57	858.60
614.92	854.61
615.27	850.68
615.61	846.61
615.96	842.88
616.31	839.27
616.65	835.84
617.00	832.82
617.35	829.11
617.70	825.18
618.04	821.20
618.39	817.33
618.74	813.74
619.08	810.04
619.43	806.38
619.78	803.03
620.12	799.32
620.47	795.89
620.82	792.19
621.16	788.60
621.51	785.10
621.85	781.75
622.20	778.06
622.55	774.73
622.89	771.54
623.24	768.33
623.59	764.85
623.93	761.36
624.28	757.82
624.62	754.85
624.97	751.50
625.32	748.54
625.66	745.37
626.01	742.05
626.35	738.43
626.70	734.72
627.04	731.49
627.39	728.33
627.73	725.04
628.08	721.96
628.43	718.53
628.77	715.18
629.12	711.81
629.46	708.63
629.81	705.07
630.15	701.25
630.50	697.46
630.84	693.79
631.19	690.12
631.53	686.55
631.88	682.70
632.22	679.24
632.57	675.84
632.91	672.44
633.26	669.08
633.60	665.84
633.95	662.63
634.29	659.33
634.64	656.20
634.98	652.62
635.32	649.38
635.67	646.64
636.01	643.58
636.36	640.39
636.70	637.43
637.05	634.55
637.39	632.08
637.73	629.32
638.08	626.85
638.42	624.07
638.77	621.35
639.11	618.49
639.45	615.57
639.80	612.62
640.14	609.71
640.49	606.88
640.83	604.09
641.17	601.28
641.52	598.38
641.86	595.37
642.20	592.89
642.55	589.94
642.89	586.90
643.23	584.00
643.58	581.83
643.92	578.93
644.26	576.06
644.61	573.17
644.95	570.52
645.29	567.43
645.64	564.42
645.98	561.66
646.32	559.09
646.66	556.47
647.01	553.66
647.35	551.22
647.69	548.60
648.04	546.03
648.38	543.50
648.72	540.62
649.06	537.87
649.41	535.31
649.75	532.70
650.09	530.19
650.43	527.60
650.78	524.45
651.12	521.93
651.46	519.49
651.80	516.94
652.14	514.33
652.49	511.97
652.83	509.58
653.17	506.93
653.51	504.25
653.85	501.80
654.20	499.41
654.54	496.62
654.88	494.08
655.22	491.37
655.56	488.87
655.90	486.52
656.25	484.41
656.59	481.85
656.93	479.51
657.27	477.05
657.61	474.66
657.95	472.41
658.29	470.10
658.64	467.74
658.98	465.49
659.32	463.09
659.66	460.83
660.00	458.51
660.34	456.28
660.68	454.12
661.02	451.82
661.36	449.70
661.70	447.80
662.05	445.92
662.39	444.12
662.73	442.10
663.07	440.31
663.41	438.34
663.75	436.31
664.09	434.30
664.43	432.33
664.77	430.49
665.11	428.73
665.45	426.70
665.79	424.75
666.13	422.80
666.47	421.00
666.81	419.04
667.15	417.26
667.49	415.50
667.83	413.82
668.17	412.11
668.51	410.27
668.85	408.29
669.19	406.61
669.53	404.80
669.87	403.15
670.21	401.42
670.55	399.53
670.89	398.18
671.23	396.78
671.57	395.30
671.91	393.71
672.25	391.99
672.58	390.66
672.92	389.13
673.26	387.62
673.60	386.22
673.94	384.88
674.28	383.53
674.62	382.21
674.96	380.94
675.30	379.62
675.64	378.27
675.97	377.17
676.31	375.70
676.65	374.50
676.99	373.36
677.33	372.00
677.67	370.69
678.01	369.28
678.34	367.87
678.68	366.62
679.02	365.23
679.36	364.09
679.70	362.69
680.04	361.41
680.37	360.27
680.71	359.09
681.05	357.86
681.39	356.76
681.73	355.43
682.06	354.25
682.40	353.10
682.74	352.05
683.08	350.90
683.42	349.61
683.75	348.38
684.09	346.95
684.43	345.80
684.77	344.74
685.10	343.51
685.44	342.28
685.78	341.20
686.12	340.21
686.45	339.02
686.79	337.98
687.13	336.96
687.46	335.86
687.80	334.66
688.14	333.59
688.48	332.42
688.81	331.46
689.15	330.30
689.49	329.24
689.82	328.13
690.16	327.00
690.50	325.98
690.83	324.96
691.17	323.93
691.51	322.95
691.84	322.10
692.18	321.18
692.52	320.31
692.85	319.31
693.19	318.38
693.52	317.39
693.86	316.46
694.20	315.51
694.53	314.59
694.87	313.64
695.21	312.75
695.54	311.85
695.88	310.83
696.21	309.77
696.55	308.93
696.88	308.02
697.22	307.10
697.56	306.44
697.89	305.74
698.23	305.03
698.56	304.11
698.90	303.25
699.23	302.37
699.57	301.49
699.90	300.65
700.24	299.79
700.58	299.18
700.91	298.42
701.25	297.61
701.58	296.85
701.92	296.33
702.25	295.61
702.59	294.96
702.92	294.30
703.26	293.75
703.59	293.14
703.93	292.77
704.26	292.10
704.60	291.49
704.93	290.80
705.26	290.07
705.60	289.59
705.93	288.86
706.27	288.35
706.60	287.90
706.94	287.28
707.27	286.63
707.61	285.90
707.94	285.26
708.27	284.75
708.61	284.15
708.94	283.46
709.28	282.90
709.61	282.33
709.94	281.84
710.28	281.26
710.61	280.75
710.95	279.96
711.28	279.64
711.61	278.93
711.95	278.40
712.28	277.86
712.61	277.23
712.95	276.88
713.28	276.41
713.61	275.82
713.95	275.36
714.28	274.97
714.61	274.52
714.95	273.99
715.28	273.48
715.61	272.99
715.95	272.59
716.28	272.04
716.61	271.52
716.95	271.01
717.28	270.64
717.61	270.10
717.94	269.60
718.28	269.03
718.61	268.57
718.94	268.07
719.27	267.73
719.61	267.40
719.94	266.83
720.27	266.26
720.60	265.87
720.94	265.46
721.27	265.07
721.60	264.68
721.93	264.32
722.27	263.98
722.60	263.64
722.93	263.06
723.26	262.75
723.59	262.39
723.93	262.07
724.26	261.67
724.59	261.22
724.92	260.84
725.25	260.50
725.59	260.31
725.92	260.00
726.25	259.55
726.58	259.23
726.91	258.88
727.24	258.69
727.57	258.32
727.91	257.98
728.24	257.58
728.57	257.21
728.90	256.98
729.23	256.58
729.56	256.33
729.89	256.23
730.22	255.97
730.55	255.64
730.89	255.40
731.22	255.09
731.55	254.88
731.88	254.69
732.21	254.36
732.54	253.93
732.87	253.62
733.20	253.44
733.53	253.19
733.86	252.94
734.19	252.61
734.52	252.40
734.85	252.27
735.18	252.08
735.51	252.02
735.84	251.80
736.17	251.73
736.50	251.50
736.83	251.49
737.16	251.30
737.49	251.12
737.82	250.83
738.15	250.69
738.48	250.48
738.81	250.28
739.14	250.04
739.47	249.87
739.80	249.82
740.13	249.65
740.46	249.40
740.79	249.25
741.12	249.06
741.45	248.77
741.78	248.53
742.11	248.40
742.44	248.11
742.77	247.98
743.10	247.69
743.43	247.43
743.75	246.92
744.08	246.97
744.41	246.84
744.74	246.76
745.07	246.51
745.40	246.30
745.73	246.23
746.06	246.09
746.39	245.98
746.71	245.73
747.04	245.46
747.37	245.20
747.70	244.97
748.03	244.80
748.36	244.74
748.68	244.49
749.01	244.21
749.34	244.00
749.67	243.90
750.00	243.81
750.33	243.79
750.65	243.70
750.98	243.26
751.31	243.03
751.64	242.84
751.97	242.79
752.29	242.66
752.62	242.32
752.95	242.18
753.28	242.07
753.60	241.95
753.93	241.90
754.26	241.90
754.59	241.76
754.91	241.51
755.24	241.31
755.57	241.22
755.90	241.18
756.22	241.01
756.55	240.72
756.88	240.45
757.20	240.23
757.53	240.08
757.86	239.93
758.19	239.88
758.51	239.74
758.84	239.49
759.17	239.42
759.49	239.28
759.82	239.14
760.15	238.98
760.47	238.77
760.80	238.54
761.13	238.41
761.45	238.41
761.78	238.35
762.11	238.20
762.43	238.02
762.76	237.88
763.08	237.79
763.41	237.70
763.74	237.61
764.06	237.46
764.39	237.32
764.71	237.22
765.04	237.14
765.37	237.01
765.69	236.97
766.02	236.84
766.34	236.77
766.67	236.69
767.00	236.62
767.32	236.75
767.65	236.79
767.97	236.67
768.30	236.55
768.62	236.44
768.95	236.35
769.27	236.32
769.60	236.18
769.92	236.12
770.25	236.06
770.57	236.07
770.90	236.00
771.22	235.93
771.55	235.86
771.87	235.76
772.20	235.68
772.52	235.75
772.85	235.87
773.17	235.85
773.50	235.80
773.82	235.75
774.15	235.51
774.47	235.33
774.80	235.20
775.12	235.10
775.45	235.04
775.77	235.10
776.09	235.06
776.42	235.09
776.74	234.98
777.07	234.93
777.39	234.80
777.72	234.77
778.04	234.67
778.36	234.58
778.69	234.57
779.01	234.56
779.33	234.38
779.66	234.20
779.98	234.18
780.31	234.10
780.63	234.09
780.95	233.99
781.28	233.94
781.60	233.91
781.92	233.90
782.25	233.90
782.57	233.82
782.89	233.70
783.22	233.61
783.54	233.54
783.86	233.43
784.19	233.31
784.51	233.26
784.83	233.26
785.16	233.26
785.48	233.10
785.80	233.05
786.12	233.02
786.45	232.91
786.77	232.86
787.09	232.84
787.42	232.70
787.74	232.82
788.06	232.81
788.38	232.80
788.71	232.73
789.03	232.67
789.35	232.67
789.67	232.70
789.99	232.69
790.32	232.71
790.64	232.65
790.96	232.76
791.28	232.62
791.61	232.60
791.93	232.51
792.25	232.52
792.57	232.57
792.89	232.48
793.21	232.42
793.54	232.31
793.86	232.26
794.18	232.25
794.50	232.10
794.82	232.06
795.14	232.01
795.47	232.01
795.79	232.02
796.11	231.91
796.43	231.78
796.75	231.70
797.07	231.62
797.39	231.60
797.71	231.49
798.04	231.46
798.36	231.38
798.68	231.31
799.00	231.22
799.32	231.05
799.64	231.10
799.96	231.10
800.28	231.10
800.60	231.04
800.92	230.95
801.24	230.90
801.56	230.92
801.89	230.87
802.21	230.78
802.53	230.72
802.85	230.70
803.17	230.77
803.49	230.73
803.81	230.80
804.13	230.82
804.45	230.80
804.77	230.82
805.09	230.74
805.41	230.78
805.73	230.80
806.05	230.85
806.37	230.80
806.69	230.71
807.01	230.68
807.33	230.70
807.65	230.66
807.97	230.69
808.28	230.71
808.60	230.64
808.92	230.70
809.24	230.72
809.56	230.77
809.88	230.73
810.20	230.81
810.52	230.71
810.84	230.66
811.16	230.65
811.48	230.64
811.80	230.82
812.12	230.78
812.43	230.88
812.75	230.92
813.07	230.99
813.39	231.05
813.71	231.00
814.03	230.97
814.35	231.08
814.67	231.09
814.98	231.01
815.30	231.10
815.62	231.01
815.94	231.01
816.26	231.03
816.58	231.02
816.89	230.89
817.21	230.85
817.53	230.87
817.85	230.89
818.17	230.87
818.48	230.80
818.80	230.81
819.12	230.80
819.44	230.62
819.76	230.50
820.07	230.43
820.39	230.42
820.71	230.33
821.03	230.27
821.34	230.20
821.66	230.15
821.98	230.12
822.30	230.06
822.61	230.06
822.93	229.85
823.25	229.79
823.57	229.81
823.88	229.95
824.20	229.91
824.52	229.95
824.83	229.92
825.15	229.81
825.47	229.81
825.79	229.63
826.10	229.71
826.42	229.72
826.74	229.77
827.05	229.79
827.37	229.86
827.69	229.75
828.00	229.72
828.32	229.62
828.64	229.58
828.95	229.74
829.27	229.67
829.58	229.72
829.90	229.62
830.22	229.57
830.53	229.41
830.85	229.27
831.17	229.15
831.48	229.13
831.80	229.12
832.11	229.10
832.43	229.10
832.75	228.93
833.06	229.04
833.38	228.95
833.69	228.80
834.01	228.78
834.32	228.80
834.64	228.84
834.96	228.85
835.27	228.75
835.59	228.50
835.90	228.48
836.22	228.43
836.53	228.39
836.85	228.30
837.16	228.52
837.48	228.54
837.79	228.60
838.11	228.56
838.42	228.55
838.74	228.51
839.05	228.49
839.37	228.49
839.68	228.35
840.00	228.39
840.31	228.57
840.63	228.51
840.94	228.46
841.26	228.46
841.57	228.49
841.88	228.59
842.20	228.71
842.51	228.74
842.83	228.76
843.14	228.97
843.46	229.08
843.77	228.93
844.08	229.01
844.40	228.92
844.71	229.02
845.03	228.98
845.34	229.05
845.65	229.15
845.97	229.18
846.28	229.12
846.60	229.09
846.91	229.03
847.22	229.04
847.54	229.15
847.85	229.09
848.16	229.09
848.48	229.01
848.79	229.10
849.10	229.11
849.42	229.22
849.73	229.15
850.04	229.16
850.36	229.10
850.67	229.18
850.98	229.33
851.30	229.28
851.61	229.40
851.92	229.35
852.23	229.30
852.55	229.49
852.86	229.50
853.17	229.52
853.49	229.56
853.80	229.65
854.11	229.66
854.42	229.62
854.74	229.63
855.05	229.65
855.36	229.47
855.67	229.48
855.99	229.48
856.30	229.64
856.61	229.66
856.92	229.68
857.23	229.67
857.55	229.45
857.86	229.44
858.17	229.45
858.48	229.45
858.79	229.48
859.11	229.39
859.42	229.45
859.73	229.40
860.04	229.35
860.35	229.30
860.66	229.16
860.98	229.19
861.29	229.30
861.60	229.32
861.91	229.46
862.22	229.35
862.53	229.24
862.84	229.11
863.16	229.14
863.47	229.08
863.78	229.00
864.09	229.09
864.40	229.10
864.71	229.10
865.02	229.08
865.33	229.00
865.64	228.95
865.95	228.99
866.27	229.12
866.58	229.03
866.89	229.04
867.20	229.07
867.51	229.03
867.82	229.07
868.13	229.11
868.44	229.04
868.75	229.13
869.06	229.15
869.37	229.12
869.68	228.95
869.99	228.93
870.30	228.87
870.61	228.88
870.92	228.84
871.23	228.78
871.54	228.82
871.85	228.91
872.16	228.96
872.47	228.84
872.78	228.72
873.09	228.88
873.40	228.79
873.71	228.84
874.02	228.90
874.33	228.64
874.64	228.55
874.95	228.63
875.26	228.55
875.56	228.52
875.87	228.51
876.18	228.62
876.49	228.94
876.80	229.01
877.11	228.98
877.42	229.00
877.73	229.04
878.04	229.00
878.35	228.94
878.66	228.91
878.96	228.96
879.27	229.01
879.58	228.92
879.89	229.05
880.20	229.10
880.51	229.00
880.82	229.09
881.12	229.13
881.43	229.02
881.74	229.10
882.05	229.16
882.36	229.17
882.67	229.18
882.97	228.95
883.28	228.93
883.59	228.94
883.90	229.02
884.21	229.06
884.51	229.07
884.82	229.18
885.13	229.15
885.44	229.08
885.74	228.97
886.05	229.06
886.36	229.03
886.67	229.01
886.98	229.22
887.28	229.28
887.59	229.28
887.90	229.36
888.20	229.30
888.51	229.28
888.82	229.27
889.13	229.27
889.43	229.36
889.74	229.27
890.05	229.21
890.35	229.07
890.66	229.06
890.97	229.01
891.28	228.87
891.58	228.92
891.89	229.03
892.20	229.07
892.50	228.96
892.81	228.89
893.12	228.74
893.42	228.67
893.73	228.68
894.04	228.70
894.34	228.65
894.65	228.60
894.95	228.53
895.26	228.46
895.57	228.50
895.87	228.24
896.18	228.36
896.48	228.40
896.79	228.34
897.10	228.29
897.40	228.16
897.71	228.18
898.01	228.07
898.32	227.99
898.63	227.97
898.93	227.94
899.24	227.92
899.54	227.83
899.85	227.69
900.15	227.63
900.46	227.67
900.76	227.60
901.07	227.57
901.38	227.61
901.68	227.66
901.99	227.52
902.29	227.61
902.60	227.54
902.90	227.50
903.21	227.55
903.51	227.56
903.82	227.68
904.12	227.77
904.43	227.79
904.73	227.78
905.03	227.76
905.34	228.01
905.64	227.93
905.95	228.01
906.25	227.99
906.56	228.06
906.86	227.91
907.17	227.90
907.47	227.97
907.77	227.90
908.08	227.81
908.38	227.86
908.69	227.89
908.99	227.94
909.30	227.97
909.60	228.03
909.90	227.99
910.21	228.08
910.51	228.04
910.81	228.11
911.12	228.16
911.42	228.22
911.73	227.95
912.03	228.06
912.33	228.16
912.64	228.34
912.94	228.23
913.24	228.22
913.55	228.28
913.85	228.28
914.15	228.36
914.46	228.53
914.76	228.56
915.06	228.55
915.37	228.56
915.67	228.50
915.97	228.59
916.27	228.56
916.58	228.55
916.88	228.59
917.18	228.59
917.49	228.77
917.79	228.74
918.09	228.78
918.39	228.77
918.70	228.79
919.00	228.72
919.30	228.93
919.60	229.00
919.91	229.00
920.21	229.10
920.51	229.10
920.81	229.07
921.12	229.10
921.42	229.09
921.72	229.11
922.02	229.19
922.32	229.08
922.63	229.19
922.93	229.15
923.23	229.11
923.53	229.09
923.83	229.02
924.13	229.02
924.44	229.07
924.74	229.21
925.04	229.28
925.34	229.32
925.64	229.17
925.94	229.15
926.24	229.25
926.55	229.24
926.85	229.27
927.15	229.24
927.45	229.18
927.75	229.28
928.05	229.29
928.35	229.27
928.65	229.35
928.95	229.27
929.26	229.29
929.56	229.24
929.86	229.30
930.16	229.22
930.46	229.23
930.76	229.21
931.06	229.06
931.36	228.90
931.66	228.86
931.96	228.96
932.26	229.00
932.56	228.89
932.86	228.73
933.16	228.67
933.46	228.64
933.76	228.60
934.06	228.57
934.36	228.57
934.66	228.54
934.96	228.47
935.26	228.46
935.56	228.43
935.86	228.37
936.16	228.28
936.46	228.21
936.76	228.17
937.06	228.13
937.36	228.15
937.66	228.16
937.96	228.13
938.26	228.01
938.56	227.98
938.86	227.98
939.16	228.11
939.46	228.14
939.76	228.13
940.06	228.10
940.35	228.08
940.65	228.00
940.95	227.97
941.25	228.00
941.55	228.04
941.85	228.00
942.15	228.04
942.45	228.07
942.75	228.08
943.04	228.17
943.34	228.17
943.64	228.21
943.94	228.22
944.24	228.31
944.54	228.27
944.84	228.28
945.13	228.21
945.43	228.18
945.73	228.06
946.03	228.09
946.33	228.12
946.62	228.05
946.92	228.13
947.22	228.19
947.52	228.15
947.82	228.08
948.11	228.09
948.41	228.07
948.71	228.00
949.01	227.96
949.31	227.94
949.60	227.94
949.90	227.99
950.20	227.98
950.50	227.90
950.79	227.96
951.09	227.96
951.39	228.03
951.69	228.01
951.98	228.15
952.28	228.08
952.58	228.10
952.87	228.22
953.17	228.17
953.47	228.20
953.76	228.24
954.06	228.23
954.36	228.20
954.66	228.21
954.95	228.28
955.25	228.40
955.55	228.42
955.84	228.43
956.14	228.36
956.44	228.40
956.73	228.40
957.03	228.39
957.32	228.45
957.62	228.52
957.92	228.54
958.21	228.53
958.51	228.74
958.81	228.80
959.10	228.78
959.40	228.79
959.69	228.76
959.99	228.77
960.29	228.77
960.58	228.87
960.88	228.94
961.17	228.95
961.47	228.89
961.76	228.84
962.06	228.94
962.36	228.88
962.65	228.87
962.95	228.94
963.24	228.95
963.54	228.92
963.83	228.85
964.13	228.91
964.42	228.87
964.72	228.74
965.01	228.74
965.31	228.70
965.60	228.80
965.90	228.96
966.19	228.90
966.49	228.94
966.78	228.90
967.08	228.88
967.37	228.86
967.67	228.88
967.96	228.83
968.26	228.77
968.55	228.94
968.85	228.88
969.14	228.89
969.43	228.92
969.73	228.88
970.02	228.84
970.32	228.78
970.61	228.70
970.91	228.63
971.20	228.61
971.49	228.56
971.79	228.54
972.08	228.34
972.38	228.32
972.67	228.32
972.96	228.35
973.26	228.33
973.55	228.41
973.85	228.41
974.14	228.50
974.43	228.53
974.73	228.39
975.02	228.45
975.31	228.35
975.61	228.30
975.90	228.30
976.19	228.34
976.49	228.38
976.78	228.46
977.07	228.47
977.37	228.42
977.66	228.45
977.95	228.26
978.24	228.33
978.54	228.41
978.83	228.40
979.12	228.39
979.42	228.45
979.71	228.35
980.00	228.29
980.29	228.25
980.59	228.23
980.88	228.26
981.17	228.32
981.46	228.30
981.76	228.34
982.05	228.33
982.34	228.26
982.63	228.22
982.93	228.18
983.22	228.30
983.51	228.29
983.80	228.37
984.09	228.51
984.39	228.45
984.68	228.50
984.97	228.45
985.26	228.42
985.55	228.45
985.85	228.46
986.14	228.51
986.43	228.60
986.72	228.60
987.01	228.63
987.30	228.56
987.59	228.65
987.89	228.69
988.18	228.70
988.47	228.76
988.76	228.76
989.05	228.89
989.34	228.81
989.63	228.81
989.92	228.77
990.22	228.69
990.51	228.69
990.80	228.69
991.09	228.82
991.38	228.91
991.67	228.82
991.96	228.82
992.25	228.88
992.54	228.86
992.83	228.93
993.12	228.83
993.41	228.92
993.70	228.98
993.99	229.06
994.28	229.10
994.58	229.16
994.87	229.24
995.16	229.20
995.45	229.20
995.74	229.22
996.03	229.22
996.32	229.33
996.61	229.43
996.90	229.40
997.19	229.33
997.48	229.34
997.77	229.35
998.06	229.29
998.34	229.34
998.63	229.25
998.92	229.16
999.21	229.35
999.50	229.35
999.79	229.34
1000.08	229.29
1000.37	229.39
1000.66	229.35
1000.95	229.33
1001.24	229.28
1001.53	229.39
1001.82	229.42
1002.11	229.37
1002.40	229.28
1002.68	229.28
1002.97	229.45
1003.26	229.47
1003.55	229.46
1003.84	229.41
1004.13	229.53
1004.42	229.45
1004.71	229.43
1004.99	229.39
1005.28	229.26
1005.57	229.20
1005.86	229.05
1006.15	228.94
1006.44	228.80
1006.72	228.74
1007.01	228.67
1007.30	228.65
1007.59	228.52
1007.88	228.42
1008.17	228.40
1008.45	228.37
1008.74	228.17
1009.03	227.95
1009.32	227.95
1009.60	227.92
1009.89	227.91
1010.18	227.80
1010.47	227.79
1010.76	227.83
1011.04	227.80
1011.33	227.82
1011.62	227.69
1011.91	227.77
1012.19	227.80
1012.48	227.76
1012.77	227.76
1013.05	227.82
1013.34	227.83
1013.63	227.82
1013.92	227.77
1014.20	227.79
1014.49	227.77
1014.78	227.81
1015.06	227.80
1015.35	227.69
1015.64	227.55
1015.92	227.52
1016.21	227.50
1016.50	227.41
1016.78	227.40
1017.07	227.41
1017.36	227.42
1017.64	227.41
1017.93	227.38
1018.22	227.32
1018.50	227.30
1018.79	227.28
1019.08	227.14
1019.36	227.07
1019.65	227.10
1019.93	227.23
1020.22	227.29
1020.51	227.44
1020.79	227.47
1021.08	227.30
1021.36	226.50
1021.65	227.30
1021.94	226.70
1022.22	226.20
1022.51	228.70
1022.79	228.30
1023.08	228.90
1023.36	230.40
1023.65	227.30
>>>>>End Processed Spectral Data<<<<<
