SpectraSuite Data File
++++++++++++++++++++++++++++++++++++
Date: Fri Feb 01 14:36:16 EST 2013
User: group
Dark Spectrum Present: No
Reference Spectrum Present: No
Number of Sampled Component Spectra: 1
Spectrometers: USB2E7196
Integration Time (usec): 70000 (USB2E7196)
Spectra Averaged: 10 (USB2E7196)
Boxcar Smoothing: 10 (USB2E7196)
Correct for Electrical Dark: No (USB2E7196)
Strobe/Lamp Enabled: No (USB2E7196)
Correct for Detector Non-linearity: No (USB2E7196)
Correct for Stray Light: No (USB2E7196)
Number of Pixels in Processed Spectrum: 2048
>>>>>Begin Processed Spectral Data<<<<<
339.09	0.00
339.48	216.40
339.86	218.50
340.24	218.80
340.63	220.50
341.01	225.60
341.39	222.40
341.78	225.90
342.16	226.80
342.54	224.50
342.93	214.43
343.31	225.39
343.69	225.90
344.07	226.29
344.46	226.73
344.84	227.06
345.22	227.16
345.60	227.38
345.99	227.50
346.37	227.56
346.75	227.62
347.13	227.75
347.52	227.79
347.90	227.75
348.28	227.69
348.66	227.70
349.05	227.70
349.43	227.72
349.81	227.73
350.19	227.74
350.57	227.83
350.96	227.92
351.34	227.82
351.72	227.82
352.10	227.86
352.48	227.91
352.87	227.97
353.25	228.07
353.63	228.11
354.01	228.18
354.39	228.19
354.77	228.36
355.15	228.41
355.54	228.57
355.92	228.69
356.30	228.83
356.68	229.10
357.06	229.18
357.44	229.23
357.82	229.30
358.20	229.40
358.58	229.34
358.97	229.48
359.35	229.59
359.73	229.81
360.11	229.92
360.49	229.97
360.87	230.06
361.25	230.13
361.63	230.22
362.01	230.20
362.39	230.29
362.77	230.30
363.15	230.33
363.53	230.31
363.91	230.28
364.29	230.34
364.67	230.12
365.05	230.21
365.43	230.17
365.81	230.21
366.19	230.21
366.57	230.31
366.95	230.16
367.33	230.11
367.71	230.01
368.09	230.04
368.47	229.96
368.85	229.86
369.23	229.78
369.61	229.70
369.99	229.68
370.37	229.60
370.75	229.70
371.13	229.65
371.51	229.54
371.89	229.50
372.27	229.48
372.65	229.40
373.03	229.31
373.41	229.29
373.78	229.20
374.16	229.07
374.54	228.96
374.92	228.88
375.30	228.80
375.68	228.66
376.06	228.59
376.44	228.42
376.82	228.35
377.19	228.25
377.57	228.21
377.95	228.11
378.33	228.06
378.71	227.85
379.09	227.88
379.47	227.82
379.84	227.82
380.22	227.69
380.60	227.66
380.98	227.52
381.36	227.40
381.73	227.37
382.11	227.34
382.49	227.27
382.87	227.31
383.25	227.27
383.62	227.43
384.00	227.32
384.38	227.40
384.76	227.38
385.13	227.34
385.51	227.32
385.89	227.24
386.27	227.23
386.64	227.18
387.02	227.08
387.40	227.10
387.78	227.08
388.15	227.04
388.53	226.95
388.91	227.00
389.29	227.06
389.66	226.93
390.04	226.86
390.42	226.85
390.79	226.78
391.17	226.76
391.55	226.62
391.92	226.65
392.30	226.61
392.68	226.70
393.05	226.81
393.43	226.79
393.81	226.83
394.18	226.85
394.56	226.86
394.94	226.88
395.31	226.86
395.69	226.95
396.06	227.04
396.44	227.15
396.82	227.16
397.19	227.35
397.57	227.44
397.95	227.57
398.32	227.64
398.70	227.74
399.07	227.90
399.45	227.98
399.82	228.06
400.20	228.21
400.58	228.29
400.95	228.32
401.33	228.49
401.70	228.75
402.08	228.79
402.45	228.93
402.83	229.08
403.20	229.31
403.58	229.43
403.95	229.63
404.33	229.80
404.71	230.06
405.08	230.29
405.46	230.55
405.83	230.84
406.21	231.10
406.58	231.39
406.96	231.52
407.33	231.84
407.70	232.19
408.08	232.68
408.45	233.01
408.83	233.41
409.20	233.79
409.58	234.19
409.95	234.69
410.33	235.19
410.70	235.66
411.08	236.17
411.45	236.87
411.82	237.51
412.20	238.14
412.57	238.92
412.95	239.58
413.32	240.38
413.69	241.14
414.07	242.03
414.44	243.03
414.82	244.15
415.19	245.25
415.56	246.40
415.94	247.56
416.31	248.83
416.68	250.16
417.06	251.66
417.43	253.10
417.81	254.87
418.18	256.61
418.55	258.46
418.93	260.20
419.30	262.04
419.67	264.01
420.04	266.18
420.42	268.38
420.79	270.90
421.16	273.49
421.54	276.11
421.91	278.88
422.28	281.57
422.66	284.68
423.03	287.61
423.40	290.54
423.77	293.80
424.15	297.20
424.52	300.59
424.89	304.32
425.26	307.86
425.64	311.27
426.01	314.89
426.38	318.86
426.75	322.99
427.13	327.10
427.50	331.49
427.87	336.02
428.24	340.53
428.61	344.78
428.99	349.44
429.36	354.60
429.73	359.50
430.10	364.64
430.47	369.63
430.85	374.90
431.22	380.55
431.59	386.46
431.96	392.10
432.33	398.29
432.70	404.23
433.08	411.35
433.45	418.00
433.82	424.75
434.19	431.88
434.56	438.98
434.93	445.71
435.30	452.50
435.68	460.05
436.05	467.35
436.42	474.77
436.79	481.37
437.16	488.52
437.53	496.19
437.90	503.53
438.27	510.80
438.64	518.56
439.01	525.67
439.38	531.93
439.75	538.00
440.13	545.04
440.50	551.75
440.87	557.39
441.24	563.08
441.61	569.20
441.98	574.20
442.35	579.67
442.72	585.40
443.09	590.94
443.46	594.25
443.83	596.73
444.20	599.00
444.57	602.39
444.94	604.16
445.31	606.14
445.68	608.20
446.05	609.66
446.42	609.53
446.79	609.56
447.16	609.33
447.53	609.59
447.90	607.81
448.27	606.02
448.64	602.68
449.01	600.79
449.37	596.66
449.74	592.80
450.11	588.00
450.48	582.44
450.85	576.73
451.22	572.20
451.59	567.79
451.96	563.51
452.33	557.47
452.70	552.09
453.07	545.21
453.43	538.25
453.80	531.53
454.17	525.02
454.54	518.78
454.91	512.11
455.28	505.57
455.65	499.37
456.02	492.93
456.38	487.72
456.75	480.99
457.12	475.42
457.49	469.56
457.86	464.02
458.23	459.52
458.59	454.40
458.96	449.05
459.33	444.31
459.70	439.66
460.07	435.82
460.43	431.50
460.80	427.37
461.17	423.87
461.54	419.99
461.91	416.60
462.27	412.98
462.64	409.83
463.01	406.34
463.38	403.04
463.74	399.82
464.11	396.76
464.48	394.04
464.85	391.33
465.21	388.99
465.58	386.67
465.95	383.83
466.32	381.40
466.68	378.97
467.05	376.67
467.42	374.15
467.78	371.62
468.15	369.17
468.52	367.50
468.88	365.11
469.25	363.14
469.62	361.37
469.98	359.59
470.35	357.85
470.72	356.14
471.08	354.30
471.45	352.75
471.82	351.17
472.18	349.50
472.55	348.28
472.92	346.90
473.28	345.65
473.65	344.33
474.02	343.20
474.38	342.08
474.75	341.08
475.11	340.01
475.48	339.13
475.85	338.58
476.21	337.75
476.58	337.02
476.94	336.29
477.31	335.54
477.67	334.79
478.04	334.33
478.41	333.95
478.77	333.55
479.14	333.06
479.50	332.90
479.87	332.70
480.23	332.46
480.60	332.19
480.96	331.83
481.33	331.77
481.69	331.69
482.06	331.75
482.42	331.56
482.79	331.49
483.15	331.70
483.52	331.80
483.88	331.86
484.25	332.01
484.61	332.29
484.98	332.58
485.34	333.01
485.71	333.49
486.07	334.01
486.44	334.52
486.80	335.12
487.17	335.67
487.53	336.42
487.90	337.15
488.26	338.12
488.62	339.01
488.99	339.80
489.35	340.48
489.72	341.27
490.08	342.42
490.44	343.47
490.81	344.46
491.17	345.47
491.54	346.69
491.90	347.80
492.26	349.04
492.63	350.40
492.99	351.68
493.36	353.12
493.72	354.50
494.08	355.83
494.45	357.28
494.81	358.82
495.17	360.42
495.54	361.79
495.90	363.23
496.26	364.88
496.63	366.55
496.99	368.32
497.35	370.07
497.72	371.77
498.08	373.47
498.44	375.11
498.80	376.80
499.17	378.53
499.53	380.37
499.89	382.05
500.26	383.76
500.62	385.32
500.98	387.05
501.34	388.60
501.71	390.34
502.07	391.98
502.43	393.44
502.79	394.89
503.16	396.46
503.52	397.87
503.88	399.19
504.24	400.49
504.60	401.99
504.97	403.47
505.33	404.61
505.69	406.16
506.05	407.63
506.41	408.85
506.78	410.04
507.14	411.22
507.50	412.33
507.86	413.59
508.22	414.95
508.59	415.72
508.95	416.84
509.31	417.79
509.67	418.72
510.03	419.83
510.39	420.86
510.75	421.82
511.12	422.69
511.48	423.49
511.84	424.50
512.20	425.08
512.56	425.70
512.92	426.40
513.28	426.94
513.64	427.39
514.00	427.98
514.37	428.52
514.73	429.03
515.09	429.52
515.45	429.75
515.81	429.82
516.17	430.33
516.53	430.51
516.89	430.80
517.25	431.11
517.61	431.34
517.97	431.48
518.33	431.72
518.69	431.90
519.05	432.07
519.41	432.07
519.77	432.41
520.13	432.78
520.49	433.15
520.85	433.40
521.21	433.70
521.57	434.05
521.93	434.25
522.29	434.53
522.65	434.99
523.01	435.38
523.37	435.76
523.73	436.02
524.09	436.50
524.45	436.99
524.81	437.56
525.17	438.22
525.53	438.82
525.89	439.57
526.25	440.43
526.61	441.50
526.97	442.40
527.33	443.20
527.68	444.16
528.04	445.22
528.40	446.22
528.76	447.42
529.12	448.54
529.48	450.01
529.84	451.24
530.20	452.71
530.56	454.28
530.91	456.08
531.27	457.83
531.63	459.64
531.99	461.56
532.35	463.27
532.71	465.00
533.07	467.10
533.42	469.22
533.78	471.29
534.14	473.29
534.50	475.40
534.86	477.84
535.21	479.94
535.57	482.33
535.93	484.78
536.29	487.24
536.65	489.80
537.00	492.21
537.36	495.09
537.72	497.55
538.08	500.21
538.44	503.04
538.79	505.82
539.15	508.67
539.51	511.63
539.87	514.57
540.22	517.73
540.58	521.02
540.94	524.08
541.29	527.35
541.65	530.53
542.01	534.06
542.37	537.52
542.72	540.97
543.08	544.41
543.44	548.10
543.79	551.40
544.15	555.29
544.51	559.13
544.87	562.73
545.22	566.61
545.58	570.39
545.94	573.87
546.29	577.65
546.65	581.59
547.01	585.24
547.36	589.34
547.72	593.04
548.07	596.71
548.43	600.55
548.79	604.37
549.14	608.30
549.50	612.12
549.86	615.62
550.21	619.60
550.57	623.31
550.92	627.06
551.28	631.13
551.64	634.87
551.99	638.78
552.35	642.71
552.70	646.60
553.06	650.80
553.41	654.89
553.77	658.96
554.13	662.87
554.48	667.04
554.84	670.88
555.19	674.97
555.55	678.90
555.90	682.96
556.26	687.08
556.61	690.93
556.97	694.79
557.32	699.10
557.68	703.02
558.03	707.18
558.39	711.20
558.74	715.26
559.10	719.07
559.45	722.95
559.81	727.04
560.16	730.98
560.52	734.78
560.87	738.93
561.23	742.68
561.58	746.57
561.94	750.35
562.29	754.18
562.64	757.48
563.00	761.24
563.35	764.96
563.71	768.65
564.06	772.54
564.42	776.14
564.77	779.56
565.12	783.38
565.48	786.92
565.83	790.27
566.19	793.60
566.54	797.22
566.89	800.47
567.25	803.82
567.60	807.14
567.96	810.41
568.31	813.20
568.66	816.27
569.02	819.17
569.37	821.89
569.72	824.73
570.08	827.91
570.43	830.59
570.78	833.12
571.14	835.45
571.49	837.85
571.84	840.71
572.20	843.12
572.55	845.30
572.90	847.51
573.26	849.74
573.61	851.74
573.96	853.44
574.31	855.21
574.67	856.52
575.02	857.93
575.37	859.26
575.72	860.58
576.08	862.13
576.43	863.43
576.78	864.86
577.13	866.36
577.49	867.67
577.84	868.95
578.19	870.10
578.54	871.12
578.90	872.16
579.25	872.50
579.60	873.22
579.95	873.90
580.30	874.80
580.66	875.52
581.01	876.21
581.36	876.84
581.71	877.65
582.06	878.52
582.42	879.10
582.77	879.59
583.12	880.28
583.47	880.90
583.82	881.58
584.17	881.73
584.53	882.03
584.88	882.12
585.23	882.37
585.58	882.49
585.93	882.73
586.28	882.97
586.63	883.27
586.98	883.21
587.34	883.34
587.69	883.00
588.04	882.94
588.39	883.00
588.74	882.68
589.09	882.13
589.44	881.55
589.79	881.44
590.14	881.12
590.49	880.77
590.84	880.08
591.19	879.37
591.54	878.66
591.89	877.28
592.25	876.75
592.60	875.43
592.95	874.35
593.30	873.31
593.65	872.16
594.00	871.05
594.35	870.63
594.70	869.14
595.05	868.21
595.40	866.80
595.75	865.31
596.10	864.40
596.45	863.40
596.80	862.78
597.15	861.50
597.50	860.24
597.85	859.14
598.19	858.05
598.54	856.83
598.89	855.68
599.24	855.02
599.59	853.60
599.94	852.72
600.29	851.48
600.64	850.05
600.99	848.36
601.34	846.85
601.69	844.98
602.04	843.72
602.39	841.90
602.74	840.60
603.08	839.29
603.43	837.76
603.78	836.24
604.13	834.03
604.48	832.23
604.83	830.70
605.18	828.99
605.53	826.83
605.87	824.63
606.22	822.94
606.57	820.79
606.92	819.31
607.27	817.33
607.62	815.62
607.96	814.13
608.31	812.63
608.66	810.70
609.01	808.46
609.36	806.10
609.70	803.80
610.05	801.24
610.40	798.91
610.75	796.50
611.10	794.02
611.44	791.43
611.79	789.28
612.14	786.82
612.49	783.82
612.83	781.42
613.18	779.18
613.53	776.54
613.88	774.06
614.22	770.91
614.57	768.34
614.92	765.66
615.27	762.89
615.61	760.04
615.96	757.21
616.31	754.73
616.65	752.74
617.00	750.44
617.35	748.17
617.70	745.30
618.04	742.59
618.39	740.12
618.74	737.88
619.08	734.93
619.43	732.40
619.78	730.21
620.12	727.36
620.47	724.90
620.82	722.41
621.16	719.78
621.51	717.56
621.85	714.75
622.20	712.23
622.55	709.36
622.89	706.87
623.24	704.62
623.59	702.30
623.93	699.72
624.28	697.35
624.62	695.02
624.97	692.88
625.32	690.49
625.66	688.02
626.01	685.67
626.35	683.35
626.70	680.59
627.04	678.20
627.39	675.84
627.73	673.06
628.08	670.62
628.43	668.20
628.77	665.65
629.12	663.02
629.46	660.36
629.81	657.99
630.15	655.38
630.50	652.77
630.84	649.70
631.19	646.73
631.53	643.96
631.88	641.01
632.22	637.98
632.57	635.33
632.91	632.50
633.26	629.52
633.60	626.94
633.95	624.41
634.29	621.65
634.64	619.42
634.98	616.71
635.32	614.20
635.67	611.85
636.01	609.09
636.36	606.79
636.70	604.45
637.05	601.93
637.39	599.58
637.73	597.20
638.08	595.23
638.42	593.00
638.77	590.63
639.11	588.45
639.45	586.48
639.80	583.99
640.14	581.79
640.49	579.72
640.83	577.32
641.17	575.24
641.52	573.04
641.86	570.46
642.20	568.49
642.55	566.03
642.89	563.58
643.23	561.34
643.58	559.15
643.92	556.58
644.26	554.39
644.61	552.15
644.95	549.81
645.29	547.18
645.64	544.75
645.98	542.35
646.32	540.01
646.66	537.60
647.01	535.36
647.35	532.87
647.69	530.54
648.04	528.16
648.38	525.55
648.72	523.07
649.06	520.85
649.41	518.37
649.75	515.96
650.09	513.55
650.43	511.24
650.78	508.72
651.12	506.35
651.46	504.04
651.80	501.66
652.14	499.45
652.49	497.47
652.83	495.43
653.17	493.10
653.51	490.81
653.85	488.47
654.20	486.30
654.54	483.97
654.88	481.54
655.22	479.27
655.56	476.89
655.90	474.53
656.25	472.25
656.59	470.16
656.93	468.04
657.27	465.95
657.61	463.71
657.95	461.77
658.29	459.73
658.64	457.70
658.98	455.54
659.32	453.37
659.66	451.03
660.00	448.65
660.34	446.52
660.68	444.29
661.02	442.28
661.36	440.35
661.70	438.62
662.05	436.76
662.39	434.91
662.73	433.26
663.07	431.51
663.41	429.58
663.75	427.62
664.09	425.92
664.43	424.01
664.77	422.33
665.11	420.63
665.45	418.84
665.79	417.06
666.13	415.25
666.47	413.41
666.81	411.78
667.15	409.99
667.49	408.47
667.83	406.91
668.17	405.21
668.51	403.38
668.85	401.67
669.19	400.22
669.53	398.66
669.87	396.90
670.21	395.47
670.55	394.13
670.89	392.84
671.23	391.30
671.57	389.92
671.91	388.56
672.25	387.06
672.58	385.78
672.92	384.20
673.26	382.90
673.60	381.66
673.94	380.39
674.28	379.19
674.62	378.04
674.96	376.83
675.30	375.57
675.64	374.32
675.97	373.07
676.31	371.77
676.65	370.52
676.99	369.39
677.33	368.13
677.67	366.71
678.01	365.31
678.34	364.11
678.68	362.82
679.02	361.36
679.36	360.27
679.70	359.11
680.04	357.90
680.37	356.68
680.71	355.41
681.05	354.15
681.39	353.15
681.73	351.90
682.06	350.80
682.40	349.88
682.74	348.85
683.08	347.74
683.42	346.57
683.75	345.42
684.09	344.20
684.43	342.98
684.77	341.96
685.10	340.77
685.44	339.60
685.78	338.56
686.12	337.75
686.45	336.53
686.79	335.45
687.13	334.58
687.46	333.51
687.80	332.66
688.14	331.64
688.48	330.56
688.81	329.43
689.15	328.41
689.49	327.20
689.82	326.26
690.16	325.21
690.50	324.20
690.83	323.26
691.17	322.33
691.51	321.30
691.84	320.39
692.18	319.46
692.52	318.44
692.85	317.50
693.19	316.50
693.52	315.49
693.86	314.39
694.20	313.51
694.53	312.59
694.87	311.52
695.21	310.55
695.54	309.46
695.88	308.58
696.21	307.51
696.55	306.67
696.88	305.74
697.22	304.88
697.56	304.12
697.89	303.23
698.23	302.37
698.56	301.63
698.90	300.80
699.23	299.89
699.57	299.14
699.90	298.34
700.24	297.50
700.58	296.86
700.91	296.23
701.25	295.38
701.58	294.78
701.92	294.07
702.25	293.36
702.59	292.64
702.92	292.10
703.26	291.50
703.59	290.69
703.93	290.18
704.26	289.60
704.60	288.84
704.93	288.06
705.26	287.38
705.60	286.75
705.93	285.98
706.27	285.62
706.60	285.00
706.94	284.35
707.27	283.68
707.61	282.93
707.94	282.43
708.27	281.82
708.61	281.09
708.94	280.57
709.28	280.15
709.61	279.70
709.94	279.01
710.28	278.52
710.61	278.17
710.95	277.49
711.28	277.00
711.61	276.52
711.95	276.13
712.28	275.62
712.61	275.15
712.95	274.80
713.28	274.31
713.61	273.75
713.95	273.34
714.28	272.87
714.61	272.49
714.95	271.94
715.28	271.33
715.61	270.85
715.95	270.33
716.28	269.84
716.61	269.45
716.95	269.06
717.28	268.59
717.61	268.19
717.94	267.70
718.28	267.21
718.61	266.78
718.94	266.35
719.27	266.06
719.61	265.69
719.94	265.31
720.27	264.76
720.60	264.54
720.94	264.17
721.27	263.83
721.60	263.42
721.93	263.03
722.27	262.89
722.60	262.72
722.93	262.43
723.26	261.97
723.59	261.74
723.93	261.37
724.26	261.06
724.59	260.69
724.92	260.40
725.25	260.16
725.59	259.82
725.92	259.50
726.25	259.13
726.58	258.86
726.91	258.46
727.24	258.29
727.57	258.00
727.91	257.73
728.24	257.45
728.57	257.14
728.90	256.93
729.23	256.52
729.56	256.22
729.89	256.00
730.22	255.73
730.55	255.28
730.89	255.00
731.22	254.73
731.55	254.38
731.88	254.03
732.21	253.65
732.54	253.40
732.87	253.05
733.20	252.74
733.53	252.43
733.86	252.20
734.19	251.94
734.52	251.74
734.85	251.53
735.18	251.38
735.51	251.23
735.84	250.90
736.17	250.67
736.50	250.21
736.83	250.10
737.16	249.83
737.49	249.57
737.82	249.35
738.15	249.16
738.48	248.94
738.81	248.75
739.14	248.55
739.47	248.26
739.80	248.10
740.13	247.97
740.46	247.76
740.79	247.51
741.12	247.19
741.45	246.78
741.78	246.53
742.11	246.22
742.44	246.02
742.77	245.77
743.10	245.56
743.43	245.46
743.75	245.08
744.08	245.28
744.41	245.13
744.74	245.00
745.07	244.78
745.40	244.49
745.73	244.30
746.06	244.16
746.39	244.00
746.71	243.77
747.04	243.48
747.37	243.31
747.70	243.29
748.03	243.12
748.36	243.03
748.68	242.84
749.01	242.69
749.34	242.50
749.67	242.50
750.00	242.40
750.33	242.49
750.65	242.39
750.98	241.94
751.31	241.76
751.64	241.56
751.97	241.50
752.29	241.37
752.62	241.26
752.95	241.13
753.28	240.98
753.60	240.90
753.93	240.90
754.26	240.78
754.59	240.59
754.91	240.60
755.24	240.49
755.57	240.39
755.90	240.21
756.22	240.00
756.55	239.76
756.88	239.57
757.20	239.25
757.53	239.07
757.86	239.03
758.19	239.01
758.51	238.91
758.84	238.76
759.17	238.85
759.49	238.83
759.82	238.76
760.15	238.80
760.47	238.72
760.80	238.56
761.13	238.50
761.45	238.32
761.78	238.10
762.11	237.95
762.43	237.84
762.76	237.73
763.08	237.72
763.41	237.60
763.74	237.65
764.06	237.60
764.39	237.61
764.71	237.57
765.04	237.50
765.37	237.50
765.69	237.28
766.02	237.14
766.34	236.98
766.67	236.89
767.00	236.80
767.32	236.95
767.65	237.00
767.97	236.78
768.30	236.70
768.62	236.64
768.95	236.62
769.27	236.51
769.60	236.51
769.92	236.35
770.25	236.27
770.57	236.01
770.90	235.87
771.22	235.69
771.55	235.53
771.87	235.36
772.20	235.12
772.52	235.32
772.85	235.50
773.17	235.44
773.50	235.42
773.82	235.33
774.15	235.11
774.47	234.86
774.80	234.82
775.12	234.80
775.45	234.75
775.77	234.66
776.09	234.56
776.42	234.51
776.74	234.51
777.07	234.41
777.39	234.40
777.72	234.34
778.04	234.26
778.36	234.10
778.69	234.14
779.01	234.12
779.33	233.81
779.66	233.44
779.98	233.42
780.31	233.23
780.63	233.02
780.95	232.96
781.28	232.83
781.60	232.80
781.92	232.67
782.25	232.56
782.57	232.43
782.89	232.32
783.22	232.15
783.54	232.02
783.86	231.95
784.19	231.87
784.51	231.83
784.83	231.75
785.16	231.70
785.48	231.58
785.80	231.45
786.12	231.42
786.45	231.39
786.77	231.25
787.09	231.19
787.42	231.11
787.74	231.01
788.06	231.10
788.38	231.01
788.71	230.98
789.03	231.05
789.35	231.11
789.67	231.10
789.99	231.15
790.32	231.14
790.64	231.20
790.96	231.34
791.28	231.21
791.61	231.16
791.93	231.16
792.25	231.18
792.57	231.39
792.89	231.38
793.21	231.32
793.54	231.33
793.86	231.31
794.18	231.46
794.50	231.43
794.82	231.37
795.14	231.37
795.47	231.35
795.79	231.28
796.11	231.23
796.43	231.22
796.75	231.21
797.07	231.16
797.39	231.13
797.71	230.96
798.04	231.08
798.36	231.14
798.68	231.12
799.00	231.02
799.32	230.85
799.64	230.78
799.96	230.79
800.28	230.82
800.60	230.76
800.92	230.74
801.24	230.72
801.56	230.74
801.89	230.70
802.21	230.70
802.53	230.68
802.85	230.72
803.17	230.80
803.49	230.85
803.81	230.88
804.13	230.91
804.45	230.81
804.77	230.81
805.09	230.85
805.41	230.83
805.73	230.80
806.05	230.79
806.37	230.97
806.69	230.91
807.01	230.87
807.33	230.87
807.65	230.78
807.97	230.81
808.28	230.82
808.60	230.81
808.92	230.83
809.24	230.99
809.56	230.92
809.88	230.80
810.20	230.68
810.52	230.57
810.84	230.59
811.16	230.63
811.48	230.56
811.80	230.59
812.12	230.70
812.43	230.76
812.75	230.80
813.07	230.70
813.39	230.80
813.71	230.71
814.03	230.73
814.35	230.74
814.67	230.67
814.98	230.52
815.30	230.52
815.62	230.44
815.94	230.12
816.26	230.16
816.58	230.15
816.89	230.22
817.21	230.22
817.53	230.17
817.85	230.15
818.17	230.13
818.48	229.97
818.80	229.93
819.12	229.82
819.44	229.78
819.76	229.69
820.07	229.61
820.39	229.61
820.71	229.52
821.03	229.43
821.34	229.39
821.66	229.41
821.98	229.40
822.30	229.35
822.61	229.60
822.93	229.44
823.25	229.39
823.57	229.29
823.88	229.34
824.20	229.20
824.52	229.23
824.83	229.21
825.15	229.14
825.47	229.05
825.79	229.12
826.10	229.07
826.42	229.07
826.74	229.06
827.05	229.10
827.37	229.17
827.69	229.19
828.00	229.15
828.32	229.22
828.64	229.14
828.95	229.30
829.27	229.14
829.58	229.12
829.90	229.17
830.22	229.23
830.53	229.09
830.85	229.17
831.17	229.07
831.48	229.06
831.80	229.11
832.11	228.97
832.43	228.93
832.75	228.90
833.06	228.92
833.38	228.86
833.69	228.78
834.01	228.81
834.32	228.80
834.64	228.90
834.96	228.87
835.27	228.97
835.59	228.89
835.90	228.84
836.22	228.88
836.53	228.82
836.85	228.76
837.16	228.99
837.48	229.05
837.79	229.22
838.11	229.20
838.42	229.24
838.74	229.44
839.05	229.35
839.37	229.36
839.68	229.26
840.00	229.30
840.31	229.31
840.63	229.30
840.94	229.30
841.26	229.20
841.57	229.18
841.88	229.19
842.20	229.20
842.51	229.22
842.83	229.25
843.14	229.46
843.46	229.50
843.77	229.36
844.08	229.33
844.40	229.15
844.71	229.16
845.03	229.10
845.34	229.06
845.65	229.15
845.97	229.06
846.28	229.14
846.60	229.14
846.91	229.12
847.22	229.04
847.54	229.03
847.85	229.12
848.16	229.09
848.48	229.02
848.79	229.11
849.10	229.11
849.42	229.06
849.73	228.91
850.04	228.79
850.36	228.81
850.67	228.71
850.98	228.84
851.30	228.89
851.61	228.89
851.92	228.88
852.23	228.82
852.55	228.83
852.86	228.81
853.17	228.80
853.49	228.78
853.80	228.96
854.11	228.94
854.42	228.85
854.74	228.77
855.05	228.77
855.36	228.62
855.67	228.66
855.99	228.67
856.30	228.87
856.61	228.86
856.92	228.87
857.23	228.91
857.55	228.74
857.86	228.69
858.17	228.70
858.48	228.61
858.79	228.61
859.11	228.68
859.42	228.71
859.73	228.65
860.04	228.72
860.35	228.58
860.66	228.57
860.98	228.65
861.29	228.75
861.60	228.61
861.91	228.64
862.22	228.49
862.53	228.38
862.84	228.04
863.16	228.10
863.47	228.08
863.78	228.02
864.09	228.09
864.40	228.08
864.71	227.98
865.02	228.07
865.33	227.96
865.64	227.91
865.95	227.89
866.27	228.07
866.58	227.98
866.89	228.01
867.20	228.02
867.51	227.93
867.82	227.94
868.13	228.15
868.44	228.15
868.75	228.33
869.06	228.60
869.37	228.60
869.68	228.55
869.99	228.47
870.30	228.50
870.61	228.50
870.92	228.34
871.23	228.42
871.54	228.35
871.85	228.48
872.16	228.55
872.47	228.53
872.78	228.38
873.09	228.44
873.40	228.51
873.71	228.47
874.02	228.52
874.33	228.57
874.64	228.54
874.95	228.53
875.26	228.47
875.56	228.39
875.87	228.48
876.18	228.55
876.49	228.80
876.80	228.74
877.11	228.74
877.42	228.94
877.73	228.95
878.04	228.98
878.35	228.96
878.66	228.96
878.96	228.91
879.27	228.97
879.58	228.95
879.89	228.77
880.20	228.84
880.51	228.82
880.82	228.78
881.12	228.71
881.43	228.72
881.74	228.80
882.05	228.87
882.36	228.87
882.67	228.89
882.97	228.70
883.28	228.75
883.59	228.78
883.90	228.78
884.21	228.74
884.51	228.75
884.82	228.77
885.13	228.73
885.44	228.81
885.74	228.71
886.05	228.75
886.36	228.77
886.67	228.77
886.98	228.91
887.28	228.87
887.59	228.95
887.90	228.93
888.20	228.81
888.51	228.74
888.82	228.75
889.13	228.74
889.43	228.92
889.74	228.84
890.05	228.84
890.35	228.80
890.66	228.76
890.97	228.71
891.28	228.65
891.58	228.59
891.89	228.63
892.20	228.63
892.50	228.57
892.81	228.59
893.12	228.46
893.42	228.42
893.73	228.47
894.04	228.53
894.34	228.55
894.65	228.54
894.95	228.49
895.26	228.46
895.57	228.50
895.87	228.27
896.18	228.39
896.48	228.35
896.79	228.33
897.10	228.33
897.40	228.36
897.71	228.40
898.01	228.40
898.32	228.21
898.63	228.17
898.93	228.25
899.24	228.26
899.54	228.32
899.85	228.16
900.15	228.14
900.46	228.00
900.76	227.96
901.07	228.04
901.38	228.03
901.68	228.11
901.99	228.01
902.29	228.02
902.60	227.99
902.90	228.01
903.21	227.98
903.51	228.05
903.82	228.10
904.12	228.21
904.43	228.19
904.73	228.20
905.03	228.21
905.34	228.38
905.64	228.33
905.95	228.36
906.25	228.40
906.56	228.35
906.86	228.28
907.17	228.24
907.47	228.10
907.77	228.12
908.08	228.08
908.38	228.06
908.69	228.16
908.99	228.23
909.30	228.25
909.60	228.40
909.90	228.36
910.21	228.25
910.51	228.08
910.81	228.16
911.12	228.30
911.42	228.39
911.73	228.18
912.03	228.20
912.33	228.21
912.64	228.26
912.94	228.28
913.24	228.34
913.55	228.45
913.85	228.57
914.15	228.62
914.46	228.61
914.76	228.70
915.06	228.59
915.37	228.55
915.67	228.47
915.97	228.34
916.27	228.39
916.58	228.44
916.88	228.59
917.18	228.63
917.49	228.75
917.79	228.68
918.09	228.73
918.39	228.81
918.70	228.79
919.00	228.78
919.30	228.91
919.60	228.95
919.91	228.89
920.21	228.90
920.51	228.80
920.81	228.89
921.12	228.92
921.42	228.95
921.72	228.99
922.02	229.08
922.32	229.17
922.63	229.19
922.93	229.27
923.23	229.27
923.53	229.18
923.83	229.01
924.13	229.15
924.44	229.10
924.74	229.07
925.04	229.04
925.34	229.07
925.64	229.00
925.94	228.95
926.24	229.05
926.55	228.99
926.85	229.10
927.15	229.03
927.45	229.07
927.75	229.08
928.05	229.07
928.35	229.01
928.65	229.04
928.95	229.05
929.26	229.00
929.56	229.07
929.86	229.06
930.16	229.12
930.46	229.03
930.76	229.09
931.06	229.00
931.36	228.96
931.66	229.00
931.96	229.06
932.26	229.10
932.56	228.99
932.86	229.01
933.16	229.01
933.46	228.81
933.76	228.73
934.06	228.69
934.36	228.72
934.66	228.78
934.96	228.75
935.26	228.70
935.56	228.64
935.86	228.45
936.16	228.46
936.46	228.33
936.76	228.28
937.06	228.16
937.36	228.22
937.66	228.23
937.96	228.14
938.26	228.06
938.56	228.06
938.86	228.15
939.16	228.19
939.46	228.13
939.76	228.27
940.06	228.14
940.35	228.18
940.65	228.14
940.95	228.12
941.25	227.97
941.55	227.92
941.85	227.97
942.15	228.10
942.45	228.09
942.75	228.13
943.04	228.14
943.34	228.11
943.64	228.07
943.94	228.09
944.24	228.16
944.54	228.15
944.84	228.00
945.13	227.88
945.43	227.80
945.73	227.86
946.03	227.82
946.33	227.84
946.62	227.82
946.92	227.76
947.22	227.80
947.52	227.83
947.82	227.90
948.11	227.91
948.41	227.80
948.71	227.77
949.01	227.78
949.31	227.83
949.60	227.92
949.90	227.91
950.20	227.92
950.50	227.92
950.79	227.94
951.09	228.05
951.39	228.07
951.69	228.07
951.98	228.05
952.28	228.02
952.58	228.11
952.87	228.10
953.17	228.16
953.47	228.13
953.76	228.24
954.06	228.22
954.36	228.25
954.66	228.28
954.95	228.35
955.25	228.37
955.55	228.32
955.84	228.29
956.14	228.32
956.44	228.40
956.73	228.36
957.03	228.26
957.32	228.26
957.62	228.30
957.92	228.32
958.21	228.19
958.51	228.44
958.81	228.51
959.10	228.59
959.40	228.59
959.69	228.62
959.99	228.61
960.29	228.64
960.58	228.62
960.88	228.77
961.17	228.75
961.47	228.88
961.76	228.97
962.06	229.04
962.36	229.06
962.65	229.04
962.95	229.05
963.24	229.17
963.54	229.23
963.83	229.23
964.13	229.27
964.42	229.32
964.72	229.32
965.01	229.12
965.31	229.01
965.60	228.94
965.90	229.06
966.19	229.04
966.49	229.07
966.78	228.97
967.08	228.94
967.37	229.03
967.67	228.94
967.96	228.94
968.26	228.87
968.55	228.97
968.85	228.98
969.14	228.92
969.43	228.88
969.73	228.84
970.02	228.83
970.32	228.87
970.61	228.93
970.91	228.80
971.20	228.87
971.49	228.95
971.79	229.02
972.08	228.79
972.38	228.79
972.67	228.72
972.96	228.70
973.26	228.60
973.55	228.53
973.85	228.46
974.14	228.40
974.43	228.48
974.73	228.37
975.02	228.36
975.31	228.35
975.61	228.29
975.90	228.31
976.19	228.26
976.49	228.16
976.78	228.16
977.07	228.11
977.37	228.23
977.66	228.14
977.95	228.05
978.24	228.16
978.54	228.08
978.83	228.01
979.12	228.05
979.42	228.10
979.71	228.10
980.00	228.11
980.29	228.00
980.59	227.90
980.88	227.85
981.17	227.83
981.46	227.91
981.76	227.89
982.05	227.88
982.34	227.85
982.63	227.88
982.93	227.77
983.22	227.70
983.51	227.56
983.80	227.64
984.09	227.64
984.39	227.58
984.68	227.62
984.97	227.68
985.26	227.79
985.55	227.70
985.85	227.67
986.14	227.74
986.43	227.79
986.72	227.80
987.01	227.80
987.30	227.66
987.59	227.54
987.89	227.54
988.18	227.52
988.47	227.50
988.76	227.52
989.05	227.60
989.34	227.69
989.63	227.79
989.92	227.74
990.22	227.80
990.51	227.77
990.80	227.70
991.09	227.74
991.38	227.62
991.67	227.69
991.96	227.65
992.25	227.61
992.54	227.63
992.83	227.66
993.12	227.64
993.41	227.73
993.70	227.93
993.99	228.03
994.28	228.11
994.58	228.12
994.87	228.06
995.16	228.01
995.45	228.00
995.74	228.00
996.03	228.06
996.32	228.08
996.61	228.17
996.90	228.22
997.19	228.21
997.48	228.26
997.77	228.25
998.06	228.32
998.34	228.32
998.63	228.40
998.92	228.50
999.21	228.60
999.50	228.62
999.79	228.50
1000.08	228.51
1000.37	228.36
1000.66	228.41
1000.95	228.52
1001.24	228.52
1001.53	228.58
1001.82	228.50
1002.11	228.40
1002.40	228.41
1002.68	228.49
1002.97	228.58
1003.26	228.54
1003.55	228.61
1003.84	228.62
1004.13	228.66
1004.42	228.60
1004.71	228.57
1004.99	228.49
1005.28	228.49
1005.57	228.53
1005.86	228.42
1006.15	228.47
1006.44	228.50
1006.72	228.51
1007.01	228.47
1007.30	228.49
1007.59	228.49
1007.88	228.45
1008.17	228.50
1008.45	228.35
1008.74	228.32
1009.03	228.24
1009.32	228.27
1009.60	228.23
1009.89	228.21
1010.18	228.22
1010.47	228.23
1010.76	228.25
1011.04	228.29
1011.33	228.31
1011.62	228.28
1011.91	228.34
1012.19	228.30
1012.48	228.27
1012.77	228.20
1013.05	228.16
1013.34	228.11
1013.63	227.99
1013.92	228.02
1014.20	227.93
1014.49	228.10
1014.78	227.99
1015.06	227.99
1015.35	228.02
1015.64	228.05
1015.92	228.09
1016.21	227.93
1016.50	227.97
1016.78	227.95
1017.07	228.00
1017.36	228.00
1017.64	227.90
1017.93	227.95
1018.22	227.95
1018.50	227.91
1018.79	227.86
1019.08	227.80
1019.36	227.83
1019.65	227.85
1019.93	227.93
1020.22	228.03
1020.51	228.11
1020.79	228.11
1021.08	229.00
1021.36	226.00
1021.65	225.80
1021.94	226.50
1022.22	227.50
1022.51	227.30
1022.79	228.60
1023.08	228.50
1023.36	231.30
1023.65	227.40
>>>>>End Processed Spectral Data<<<<<
