SpectraSuite Data File
++++++++++++++++++++++++++++++++++++
Date: Fri Feb 01 14:41:27 EST 2013
User: group
Dark Spectrum Present: No
Reference Spectrum Present: No
Number of Sampled Component Spectra: 1
Spectrometers: USB2E7196
Integration Time (usec): 70000 (USB2E7196)
Spectra Averaged: 10 (USB2E7196)
Boxcar Smoothing: 10 (USB2E7196)
Correct for Electrical Dark: No (USB2E7196)
Strobe/Lamp Enabled: No (USB2E7196)
Correct for Detector Non-linearity: No (USB2E7196)
Correct for Stray Light: No (USB2E7196)
Number of Pixels in Processed Spectrum: 2048
>>>>>Begin Processed Spectral Data<<<<<
339.09	0.00
339.48	215.60
339.86	219.60
340.24	217.80
340.63	221.30
341.01	224.60
341.39	222.10
341.78	225.10
342.16	225.40
342.54	226.60
342.93	214.59
343.31	225.43
343.69	225.92
344.07	226.27
344.46	226.71
344.84	227.12
345.22	227.33
345.60	227.61
345.99	227.78
346.37	227.96
346.75	228.11
347.13	228.12
347.52	228.24
347.90	228.44
348.28	228.57
348.66	228.69
349.05	228.75
349.43	228.80
349.81	228.80
350.19	228.86
350.57	228.90
350.96	228.92
351.34	229.15
351.72	229.32
352.10	229.51
352.48	229.56
352.87	229.52
353.25	229.48
353.63	229.55
354.01	229.61
354.39	229.58
354.77	229.62
355.15	229.83
355.54	229.89
355.92	229.85
356.30	229.78
356.68	230.04
357.06	230.11
357.44	230.17
357.82	230.27
358.20	230.41
358.58	230.45
358.97	230.52
359.35	230.44
359.73	230.53
360.11	230.50
360.49	230.62
360.87	230.81
361.25	230.94
361.63	231.05
362.01	231.08
362.39	231.18
362.77	231.21
363.15	231.24
363.53	231.21
363.91	231.31
364.29	231.45
364.67	231.15
365.05	231.10
365.43	231.06
365.81	231.16
366.19	231.12
366.57	231.24
366.95	231.21
367.33	231.26
367.71	231.23
368.09	231.23
368.47	231.21
368.85	231.12
369.23	231.16
369.61	231.01
369.99	231.04
370.37	230.96
370.75	230.94
371.13	230.74
371.51	230.73
371.89	230.60
372.27	230.52
372.65	230.51
373.03	230.49
373.41	230.47
373.78	230.29
374.16	230.14
374.54	229.90
374.92	229.70
375.30	229.54
375.68	229.40
376.06	229.36
376.44	229.26
376.82	229.14
377.19	228.95
377.57	228.98
377.95	228.77
378.33	228.69
378.71	228.59
379.09	228.57
379.47	228.46
379.84	228.40
380.22	228.28
380.60	228.19
380.98	228.13
381.36	228.14
381.73	227.99
382.11	228.01
382.49	228.05
382.87	227.95
383.25	227.87
383.62	228.17
384.00	228.08
384.38	227.95
384.76	227.90
385.13	228.07
385.51	227.93
385.89	227.99
386.27	228.03
386.64	227.89
387.02	227.92
387.40	227.87
387.78	227.92
388.15	227.82
388.53	227.82
388.91	227.76
389.29	227.60
389.66	227.75
390.04	227.70
390.42	227.80
390.79	227.92
391.17	227.93
391.55	227.53
391.92	227.52
392.30	227.58
392.68	227.54
393.05	227.50
393.43	227.50
393.81	227.50
394.18	227.35
394.56	227.48
394.94	227.53
395.31	227.45
395.69	227.51
396.06	227.70
396.44	227.71
396.82	227.82
397.19	228.07
397.57	228.10
397.95	228.24
398.32	228.21
398.70	228.29
399.07	228.50
399.45	228.73
399.82	228.83
400.20	229.01
400.58	229.10
400.95	229.07
401.33	229.27
401.70	229.42
402.08	229.64
402.45	229.78
402.83	229.92
403.20	230.15
403.58	230.28
403.95	230.49
404.33	230.72
404.71	230.80
405.08	230.98
405.46	231.11
405.83	231.20
406.21	231.37
406.58	231.70
406.96	231.80
407.33	231.95
407.70	232.28
408.08	232.64
408.45	233.00
408.83	233.34
409.20	233.61
409.58	233.90
409.95	234.28
410.33	234.49
410.70	234.73
411.08	235.14
411.45	235.52
411.82	235.87
412.20	236.13
412.57	236.66
412.95	236.96
413.32	237.54
413.69	238.05
414.07	238.53
414.44	239.05
414.82	239.65
415.19	240.34
415.56	240.87
415.94	241.35
416.31	242.15
416.68	242.93
417.06	243.82
417.43	244.59
417.81	245.53
418.18	246.59
418.55	247.78
418.93	248.87
419.30	250.01
419.67	251.12
420.04	252.47
420.42	253.68
420.79	255.25
421.16	256.64
421.54	258.32
421.91	259.92
422.28	261.56
422.66	263.22
423.03	264.96
423.40	266.70
423.77	268.58
424.15	270.30
424.52	272.16
424.89	274.23
425.26	276.29
425.64	278.12
426.01	280.19
426.38	282.19
426.75	284.38
427.13	286.54
427.50	288.85
427.87	291.15
428.24	293.51
428.61	295.72
428.99	298.14
429.36	300.69
429.73	303.44
430.10	305.93
430.47	308.65
430.85	311.26
431.22	314.09
431.59	317.27
431.96	320.17
432.33	323.29
432.70	326.39
433.08	329.87
433.45	333.38
433.82	336.61
434.19	340.36
434.56	343.69
434.93	346.90
435.30	350.31
435.68	354.23
436.05	357.85
436.42	361.30
436.79	364.43
437.16	367.89
437.53	371.29
437.90	374.78
438.27	378.35
438.64	381.95
439.01	385.25
439.38	387.98
439.75	390.65
440.13	393.89
440.50	396.62
440.87	399.12
441.24	401.44
441.61	404.13
441.98	405.96
442.35	408.46
442.72	410.83
443.09	413.02
443.46	413.98
443.83	414.70
444.20	415.34
444.57	416.41
444.94	416.66
445.31	416.93
445.68	417.53
446.05	417.44
446.42	416.80
446.79	416.19
447.16	415.66
447.53	415.20
447.90	413.58
448.27	411.93
448.64	409.70
449.01	408.17
449.37	405.65
449.74	403.00
450.11	400.04
450.48	396.95
450.85	393.67
451.22	390.99
451.59	388.36
451.96	385.83
452.33	382.50
452.70	379.35
453.07	375.83
453.43	372.01
453.80	368.52
454.17	365.12
454.54	361.83
454.91	358.23
455.28	354.83
455.65	351.65
456.02	348.85
456.38	346.06
456.75	342.69
457.12	339.80
457.49	337.05
457.86	334.16
458.23	331.70
458.59	329.00
458.96	326.20
459.33	323.88
459.70	321.47
460.07	319.55
460.43	317.49
460.80	315.45
461.17	313.58
461.54	311.52
461.91	309.70
462.27	307.90
462.64	306.23
463.01	304.56
463.38	302.96
463.74	301.00
464.11	299.61
464.48	298.21
464.85	296.85
465.21	295.95
465.58	294.88
465.95	293.47
466.32	292.32
466.68	291.25
467.05	289.95
467.42	288.79
467.78	287.60
468.15	286.44
468.52	285.53
468.88	284.30
469.25	283.33
469.62	282.45
469.98	281.41
470.35	280.57
470.72	279.67
471.08	278.70
471.45	278.06
471.82	277.20
472.18	276.41
472.55	275.71
472.92	274.81
473.28	274.06
473.65	273.47
474.02	272.81
474.38	272.32
474.75	271.95
475.11	271.48
475.48	270.97
475.85	270.57
476.21	270.11
476.58	269.82
476.94	269.42
477.31	269.18
477.67	269.10
478.04	268.90
478.41	268.77
478.77	268.77
479.14	268.48
479.50	268.46
479.87	268.36
480.23	268.32
480.60	268.30
480.96	268.28
481.33	268.24
481.69	268.38
482.06	268.43
482.42	268.43
482.79	268.45
483.15	268.70
483.52	268.89
483.88	269.24
484.25	269.49
484.61	269.83
484.98	270.05
485.34	270.33
485.71	270.72
486.07	271.12
486.44	271.36
486.80	271.92
487.17	272.34
487.53	273.08
487.90	273.80
488.26	274.55
488.62	275.39
488.99	276.19
489.35	277.10
489.72	278.07
490.08	279.10
490.44	280.30
490.81	281.42
491.17	282.60
491.54	283.83
491.90	285.25
492.26	286.72
492.63	288.27
492.99	289.92
493.36	291.62
493.72	293.39
494.08	295.44
494.45	297.52
494.81	299.78
495.17	302.01
495.54	304.43
495.90	306.90
496.26	309.57
496.63	312.37
496.99	315.21
497.35	318.25
497.72	321.50
498.08	324.84
498.44	328.37
498.80	332.10
499.17	336.03
499.53	340.02
499.89	344.39
500.26	348.79
500.62	353.42
500.98	358.38
501.34	363.40
501.71	368.64
502.07	374.10
502.43	379.68
502.79	385.49
503.16	391.55
503.52	397.90
503.88	404.32
504.24	411.34
504.60	418.45
504.97	425.76
505.33	433.30
505.69	441.07
506.05	449.20
506.41	457.55
506.78	466.15
507.14	474.93
507.50	483.92
507.86	493.39
508.22	503.15
508.59	512.89
508.95	523.12
509.31	533.45
509.67	544.37
510.03	555.37
510.39	566.75
510.75	578.34
511.12	590.00
511.48	602.06
511.84	614.16
512.20	626.66
512.56	639.65
512.92	653.03
513.28	666.70
513.64	680.39
514.00	694.29
514.37	708.57
514.73	723.30
515.09	738.02
515.45	753.20
515.81	768.34
516.17	784.12
516.53	799.99
516.89	815.97
517.25	831.90
517.61	848.42
517.97	864.77
518.33	881.40
518.69	898.47
519.05	915.96
519.41	933.62
519.77	951.58
520.13	969.64
520.49	987.84
520.85	1005.78
521.21	1024.09
521.57	1042.77
521.93	1061.19
522.29	1080.22
522.65	1098.97
523.01	1117.62
523.37	1136.11
523.73	1155.25
524.09	1174.35
524.45	1193.84
524.81	1213.44
525.17	1233.29
525.53	1253.80
525.89	1273.76
526.25	1294.16
526.61	1313.68
526.97	1333.72
527.33	1353.88
527.68	1374.21
528.04	1394.12
528.40	1414.93
528.76	1436.15
529.12	1456.67
529.48	1477.37
529.84	1497.08
530.20	1518.01
530.56	1539.23
530.91	1561.00
531.27	1581.96
531.63	1602.43
531.99	1623.04
532.35	1643.45
532.71	1663.42
533.07	1683.40
533.42	1703.64
533.78	1723.60
534.14	1744.17
534.50	1763.38
534.86	1782.72
535.21	1801.75
535.57	1821.94
535.93	1841.16
536.29	1860.05
536.65	1879.64
537.00	1898.52
537.36	1918.10
537.72	1936.20
538.08	1954.28
538.44	1972.30
538.79	1990.12
539.15	2008.09
539.51	2026.19
539.87	2044.26
540.22	2062.26
540.58	2079.88
540.94	2097.00
541.29	2113.53
541.65	2130.18
542.01	2148.19
542.37	2165.39
542.72	2181.80
543.08	2197.57
543.44	2213.70
543.79	2228.21
544.15	2242.70
544.51	2258.63
544.87	2274.09
545.22	2289.50
545.58	2303.89
545.94	2317.27
546.29	2331.60
546.65	2345.45
547.01	2358.39
547.36	2371.11
547.72	2383.66
548.07	2396.36
548.43	2408.99
548.79	2420.93
549.14	2432.80
549.50	2443.30
549.86	2453.65
550.21	2464.62
550.57	2475.42
550.92	2485.77
551.28	2495.96
551.64	2506.20
551.99	2515.59
552.35	2524.34
552.70	2533.67
553.06	2543.94
553.41	2553.84
553.77	2562.42
554.13	2571.49
554.48	2580.80
554.84	2589.50
555.19	2598.27
555.55	2605.95
555.90	2612.80
556.26	2621.03
556.61	2628.23
556.97	2635.32
557.32	2643.02
557.68	2649.85
558.03	2656.92
558.39	2663.23
558.74	2671.72
559.10	2678.43
559.45	2684.80
559.81	2692.57
560.16	2698.56
560.52	2703.43
560.87	2709.27
561.23	2714.66
561.58	2719.92
561.94	2724.26
562.29	2728.53
562.64	2732.29
563.00	2736.40
563.35	2742.16
563.71	2747.47
564.06	2752.47
564.42	2757.27
564.77	2761.67
565.12	2766.59
565.48	2769.98
565.83	2773.34
566.19	2775.98
566.54	2778.77
566.89	2781.18
567.25	2782.61
567.60	2785.59
567.96	2787.51
568.31	2789.31
568.66	2790.80
569.02	2792.38
569.37	2794.17
569.72	2795.46
570.08	2796.68
570.43	2797.70
570.78	2797.96
571.14	2796.98
571.49	2796.64
571.84	2797.24
572.20	2795.83
572.55	2794.05
572.90	2793.03
573.26	2792.14
573.61	2790.58
573.96	2789.26
574.31	2786.81
574.67	2783.44
575.02	2779.85
575.37	2777.26
575.72	2773.50
576.08	2770.30
576.43	2766.89
576.78	2763.66
577.13	2761.40
577.49	2758.36
577.84	2754.84
578.19	2750.76
578.54	2746.37
578.90	2741.55
579.25	2735.20
579.60	2730.15
579.95	2724.78
580.30	2719.08
580.66	2712.99
581.01	2706.99
581.36	2701.41
581.71	2696.43
582.06	2691.75
582.42	2685.90
582.77	2680.08
583.12	2674.56
583.47	2669.55
583.82	2663.64
584.17	2657.22
584.53	2650.41
584.88	2643.76
585.23	2637.17
585.58	2630.36
585.93	2624.22
586.28	2618.64
586.63	2613.47
586.98	2607.84
587.34	2602.08
587.69	2595.82
588.04	2590.27
588.39	2584.30
588.74	2576.29
589.09	2568.83
589.44	2560.66
589.79	2554.40
590.14	2548.01
590.49	2540.70
590.84	2532.54
591.19	2525.25
591.54	2516.60
591.89	2507.23
592.25	2498.97
592.60	2490.06
592.95	2481.68
593.30	2472.90
593.65	2463.65
594.00	2454.12
594.35	2445.79
594.70	2436.27
595.05	2427.78
595.40	2418.42
595.75	2408.98
596.10	2401.41
596.45	2393.94
596.80	2386.82
597.15	2378.47
597.50	2369.60
597.85	2361.66
598.19	2354.04
598.54	2345.91
598.89	2338.43
599.24	2332.15
599.59	2324.05
599.94	2316.88
600.29	2308.85
600.64	2301.16
600.99	2292.66
601.34	2284.98
601.69	2275.93
602.04	2268.46
602.39	2260.22
602.74	2252.79
603.08	2245.11
603.43	2236.96
603.78	2227.93
604.13	2219.27
604.48	2209.98
604.83	2201.39
605.18	2192.97
605.53	2183.06
605.87	2172.96
606.22	2164.23
606.57	2154.45
606.92	2145.82
607.27	2137.35
607.62	2129.26
607.96	2120.64
608.31	2112.50
608.66	2103.39
609.01	2094.07
609.36	2084.25
609.70	2073.52
610.05	2062.83
610.40	2052.87
610.75	2042.27
611.10	2032.19
611.44	2021.33
611.79	2012.02
612.14	2002.09
612.49	1990.92
612.83	1981.00
613.18	1971.41
613.53	1961.57
613.88	1951.07
614.22	1940.81
614.57	1929.63
614.92	1918.68
615.27	1908.58
615.61	1897.75
615.96	1887.57
616.31	1878.16
616.65	1868.95
617.00	1859.87
617.35	1850.64
617.70	1840.90
618.04	1831.31
618.39	1821.94
618.74	1812.66
619.08	1802.29
619.43	1792.68
619.78	1783.87
620.12	1774.65
620.47	1765.18
620.82	1755.02
621.16	1745.85
621.51	1736.64
621.85	1727.41
622.20	1717.94
622.55	1708.13
622.89	1699.00
623.24	1690.26
623.59	1681.10
623.93	1671.72
624.28	1662.63
624.62	1653.03
624.97	1643.85
625.32	1635.07
625.66	1626.09
626.01	1617.25
626.35	1608.30
626.70	1599.05
627.04	1590.21
627.39	1580.73
627.73	1571.44
628.08	1562.51
628.43	1553.15
628.77	1543.92
629.12	1534.36
629.46	1524.94
629.81	1515.15
630.15	1505.32
630.50	1495.05
630.84	1484.95
631.19	1474.91
631.53	1465.40
631.88	1455.67
632.22	1445.61
632.57	1436.41
632.91	1426.76
633.26	1417.22
633.60	1407.77
633.95	1398.60
634.29	1389.03
634.64	1380.34
634.98	1371.36
635.32	1362.60
635.67	1354.29
636.01	1345.45
636.36	1337.05
636.70	1329.13
637.05	1321.17
637.39	1313.64
637.73	1305.88
638.08	1298.60
638.42	1291.05
638.77	1283.40
639.11	1275.45
639.45	1267.75
639.80	1259.46
640.14	1251.37
640.49	1243.12
640.83	1235.10
641.17	1227.20
641.52	1219.39
641.86	1211.06
642.20	1203.54
642.55	1195.53
642.89	1187.30
643.23	1179.26
643.58	1171.69
643.92	1163.24
644.26	1155.47
644.61	1147.82
644.95	1139.83
645.29	1131.00
645.64	1122.65
645.98	1114.60
646.32	1107.12
646.66	1099.34
647.01	1091.50
647.35	1084.04
647.69	1076.84
648.04	1070.03
648.38	1062.30
648.72	1054.27
649.06	1046.68
649.41	1038.70
649.75	1030.77
650.09	1022.97
650.43	1015.05
650.78	1007.15
651.12	999.87
651.46	992.16
651.80	984.51
652.14	977.41
652.49	970.49
652.83	963.73
653.17	956.19
653.51	948.78
653.85	941.66
654.20	934.45
654.54	926.78
654.88	919.40
655.22	911.77
655.56	904.29
655.90	897.43
656.25	890.80
656.59	884.10
656.93	877.60
657.27	871.18
657.61	864.39
657.95	858.01
658.29	851.42
658.64	844.90
658.98	838.07
659.32	831.08
659.66	824.76
660.00	818.06
660.34	811.65
660.68	805.58
661.02	799.33
661.36	793.54
661.70	787.94
662.05	782.32
662.39	776.64
662.73	771.07
663.07	765.51
663.41	759.68
663.75	754.42
664.09	748.93
664.43	743.48
664.77	738.24
665.11	732.85
665.45	727.65
665.79	722.49
666.13	717.04
666.47	711.94
666.81	706.32
667.15	700.89
667.49	696.06
667.83	691.08
668.17	686.10
668.51	680.83
668.85	675.94
669.19	671.09
669.53	666.21
669.87	661.23
670.21	656.68
670.55	652.29
670.89	647.52
671.23	643.19
671.57	638.84
671.91	634.65
672.25	630.23
672.58	625.71
672.92	621.39
673.26	617.55
673.60	613.47
673.94	609.62
674.28	606.07
674.62	602.32
674.96	598.41
675.30	594.51
675.64	591.03
675.97	587.16
676.31	583.15
676.65	579.51
676.99	576.16
677.33	572.35
677.67	568.66
678.01	564.79
678.34	560.92
678.68	557.33
679.02	553.89
679.36	550.28
679.70	547.00
680.04	543.51
680.37	539.96
680.71	536.75
681.05	533.53
681.39	530.23
681.73	526.83
682.06	523.63
682.40	520.67
682.74	517.25
683.08	514.08
683.42	511.00
683.75	507.80
684.09	504.52
684.43	501.47
684.77	498.35
685.10	495.41
685.44	492.39
685.78	489.33
686.12	486.28
686.45	483.26
686.79	480.18
687.13	477.19
687.46	474.36
687.80	471.57
688.14	468.64
688.48	466.04
688.81	463.21
689.15	460.46
689.49	457.61
689.82	455.08
690.16	452.32
690.50	449.72
690.83	447.00
691.17	444.40
691.51	441.79
691.84	439.34
692.18	437.00
692.52	434.42
692.85	432.00
693.19	429.57
693.52	427.40
693.86	424.92
694.20	422.65
694.53	420.32
694.87	417.88
695.21	415.68
695.54	413.16
695.88	410.75
696.21	408.56
696.55	406.51
696.88	404.23
697.22	402.25
697.56	400.21
697.89	398.25
698.23	396.29
698.56	394.20
698.90	392.15
699.23	389.91
699.57	387.97
699.90	385.88
700.24	383.90
700.58	381.77
700.91	380.04
701.25	378.22
701.58	376.35
701.92	374.38
702.25	372.54
702.59	370.90
702.92	369.42
703.26	367.75
703.59	365.90
703.93	364.44
704.26	362.80
704.60	361.14
704.93	359.35
705.26	357.74
705.60	356.31
705.93	354.85
706.27	353.52
706.60	352.19
706.94	350.71
707.27	349.23
707.61	347.93
707.94	346.53
708.27	345.10
708.61	343.64
708.94	342.33
709.28	341.08
709.61	339.78
709.94	338.43
710.28	337.00
710.61	335.80
710.95	334.25
711.28	333.04
711.61	331.76
711.95	330.63
712.28	329.34
712.61	327.88
712.95	326.68
713.28	325.47
713.61	324.30
713.95	323.19
714.28	321.94
714.61	320.80
714.95	319.72
715.28	318.63
715.61	317.48
715.95	316.54
716.28	315.51
716.61	314.35
716.95	313.22
717.28	312.30
717.61	311.27
717.94	310.34
718.28	309.28
718.61	308.35
718.94	307.33
719.27	306.40
719.61	305.67
719.94	304.74
720.27	303.63
720.60	302.78
720.94	301.90
721.27	301.23
721.60	300.36
721.93	299.39
722.27	298.64
722.60	297.91
722.93	296.97
723.26	296.17
723.59	295.42
723.93	294.68
724.26	294.02
724.59	293.15
724.92	292.50
725.25	291.86
725.59	291.11
725.92	290.33
726.25	289.71
726.58	289.06
726.91	288.35
727.24	287.81
727.57	287.20
727.91	286.45
728.24	285.88
728.57	285.20
728.90	284.72
729.23	283.99
729.56	283.48
729.89	282.90
730.22	282.06
730.55	281.40
730.89	280.75
731.22	280.09
731.55	279.58
731.88	278.97
732.21	278.33
732.54	277.72
732.87	277.28
733.20	276.74
733.53	276.15
733.86	275.61
734.19	275.06
734.52	274.35
734.85	273.97
735.18	273.39
735.51	272.96
735.84	272.49
736.17	271.98
736.50	271.36
736.83	271.01
737.16	270.71
737.49	270.18
737.82	269.63
738.15	269.10
738.48	268.65
738.81	268.10
739.14	267.56
739.47	267.01
739.80	266.60
740.13	266.22
740.46	265.65
740.79	265.12
741.12	264.64
741.45	264.21
741.78	263.69
742.11	263.15
742.44	262.60
742.77	262.12
743.10	261.62
743.43	261.18
743.75	260.69
744.08	260.39
744.41	260.00
744.74	259.68
745.07	259.21
745.40	258.82
745.73	258.53
746.06	258.16
746.39	257.85
746.71	257.40
747.04	256.87
747.37	256.60
747.70	256.27
748.03	255.89
748.36	255.60
748.68	255.26
749.01	254.85
749.34	254.60
749.67	254.16
750.00	253.90
750.33	253.81
750.65	253.49
750.98	252.96
751.31	252.60
751.64	252.34
751.97	252.19
752.29	251.80
752.62	251.38
752.95	251.17
753.28	250.98
753.60	250.69
753.93	250.53
754.26	250.24
754.59	249.96
754.91	249.76
755.24	249.46
755.57	249.07
755.90	248.84
756.22	248.52
756.55	248.27
756.88	247.99
757.20	247.58
757.53	247.27
757.86	247.21
758.19	247.12
758.51	246.80
758.84	246.43
759.17	246.34
759.49	246.25
759.82	246.02
760.15	245.70
760.47	245.59
760.80	245.28
761.13	245.12
761.45	244.90
761.78	244.63
762.11	244.56
762.43	244.58
762.76	244.55
763.08	244.43
763.41	244.30
763.74	244.28
764.06	244.12
764.39	243.97
764.71	243.67
765.04	243.50
765.37	243.49
765.69	243.46
766.02	243.30
766.34	243.10
766.67	243.00
767.00	243.01
767.32	242.95
767.65	243.01
767.97	242.95
768.30	242.92
768.62	242.85
768.95	242.66
769.27	242.57
769.60	242.42
769.92	242.26
770.25	242.06
770.57	241.82
770.90	241.73
771.22	241.56
771.55	241.46
771.87	241.31
772.20	241.11
772.52	241.14
772.85	241.19
773.17	241.06
773.50	240.94
773.82	240.80
774.15	240.57
774.47	240.27
774.80	240.11
775.12	239.87
775.45	239.74
775.77	239.53
776.09	239.30
776.42	239.05
776.74	239.02
777.07	238.88
777.39	238.75
777.72	238.62
778.04	238.50
778.36	238.25
778.69	238.19
779.01	238.07
779.33	237.78
779.66	237.46
779.98	237.32
780.31	237.10
780.63	237.11
780.95	237.02
781.28	236.97
781.60	236.70
781.92	236.64
782.25	236.54
782.57	236.40
782.89	236.30
783.22	236.18
783.54	236.02
783.86	236.01
784.19	235.85
784.51	235.80
784.83	235.70
785.16	235.66
785.48	235.41
785.80	235.34
786.12	235.15
786.45	235.07
786.77	235.03
787.09	234.93
787.42	234.58
787.74	234.42
788.06	234.27
788.38	234.21
788.71	234.15
789.03	234.15
789.35	234.10
789.67	233.91
789.99	233.88
790.32	233.67
790.64	233.57
790.96	233.63
791.28	233.46
791.61	233.41
791.93	233.39
792.25	233.43
792.57	233.55
792.89	233.56
793.21	233.52
793.54	233.37
793.86	233.27
794.18	233.30
794.50	233.24
794.82	233.10
795.14	233.18
795.47	233.14
795.79	233.02
796.11	233.00
796.43	233.10
796.75	233.11
797.07	233.16
797.39	233.17
797.71	233.00
798.04	232.99
798.36	232.98
798.68	233.00
799.00	233.02
799.32	232.87
799.64	232.93
799.96	232.92
800.28	232.98
800.60	233.06
800.92	233.15
801.24	233.25
801.56	233.40
801.89	233.32
802.21	233.46
802.53	233.35
802.85	233.39
803.17	233.41
803.49	233.37
803.81	233.34
804.13	233.38
804.45	233.37
804.77	233.45
805.09	233.39
805.41	233.35
805.73	233.36
806.05	233.36
806.37	233.31
806.69	233.26
807.01	233.33
807.33	233.40
807.65	233.34
807.97	233.26
808.28	233.16
808.60	233.20
808.92	233.02
809.24	233.24
809.56	233.23
809.88	233.14
810.20	233.16
810.52	233.19
810.84	233.14
811.16	233.05
811.48	232.98
811.80	233.10
812.12	233.09
812.43	232.99
812.75	232.85
813.07	232.78
813.39	232.77
813.71	232.63
814.03	232.56
814.35	232.47
814.67	232.43
814.98	232.42
815.30	232.40
815.62	232.35
815.94	232.19
816.26	232.25
816.58	232.16
816.89	232.08
817.21	232.04
817.53	231.91
817.85	232.01
818.17	231.96
818.48	231.80
818.80	231.83
819.12	231.88
819.44	231.87
819.76	231.83
820.07	231.74
820.39	231.66
820.71	231.54
821.03	231.49
821.34	231.43
821.66	231.42
821.98	231.34
822.30	231.27
822.61	231.25
822.93	231.02
823.25	230.93
823.57	230.89
823.88	230.90
824.20	230.82
824.52	230.72
824.83	230.66
825.15	230.65
825.47	230.47
825.79	230.30
826.10	230.16
826.42	230.12
826.74	230.19
827.05	230.22
827.37	230.10
827.69	230.15
828.00	230.10
828.32	230.02
828.64	229.95
828.95	230.00
829.27	229.98
829.58	229.95
829.90	230.02
830.22	229.96
830.53	229.80
830.85	229.70
831.17	229.62
831.48	229.51
831.80	229.46
832.11	229.49
832.43	229.43
832.75	229.44
833.06	229.44
833.38	229.29
833.69	229.22
834.01	229.38
834.32	229.18
834.64	229.18
834.96	229.17
835.27	229.07
835.59	229.07
835.90	229.00
836.22	229.01
836.53	228.84
836.85	228.93
837.16	229.12
837.48	229.22
837.79	229.35
838.11	229.39
838.42	229.40
838.74	229.43
839.05	229.52
839.37	229.53
839.68	229.46
840.00	229.47
840.31	229.44
840.63	229.35
840.94	229.40
841.26	229.50
841.57	229.45
841.88	229.57
842.20	229.51
842.51	229.60
842.83	229.69
843.14	230.05
843.46	230.02
843.77	229.92
844.08	229.99
844.40	229.88
844.71	229.94
845.03	229.83
845.34	229.80
845.65	229.82
845.97	229.90
846.28	230.01
846.60	230.11
846.91	230.23
847.22	230.21
847.54	230.34
847.85	230.27
848.16	230.27
848.48	230.28
848.79	230.38
849.10	230.37
849.42	230.39
849.73	230.15
850.04	230.20
850.36	230.18
850.67	230.20
850.98	230.34
851.30	230.33
851.61	230.45
851.92	230.46
852.23	230.48
852.55	230.43
852.86	230.40
853.17	230.40
853.49	230.41
853.80	230.53
854.11	230.49
854.42	230.46
854.74	230.59
855.05	230.59
855.36	230.48
855.67	230.40
855.99	230.40
856.30	230.60
856.61	230.55
856.92	230.60
857.23	230.54
857.55	230.47
857.86	230.48
858.17	230.47
858.48	230.47
858.79	230.42
859.11	230.52
859.42	230.40
859.73	230.22
860.04	230.24
860.35	230.07
860.66	229.93
860.98	229.87
861.29	229.74
861.60	229.62
861.91	229.62
862.22	229.54
862.53	229.40
862.84	229.10
863.16	229.10
863.47	228.97
863.78	228.91
864.09	228.91
864.40	228.89
864.71	228.84
865.02	228.83
865.33	228.76
865.64	228.67
865.95	228.70
866.27	228.83
866.58	228.75
866.89	228.67
867.20	228.64
867.51	228.67
867.82	228.61
868.13	228.60
868.44	228.55
868.75	228.52
869.06	228.49
869.37	228.59
869.68	228.60
869.99	228.60
870.30	228.59
870.61	228.45
870.92	228.34
871.23	228.39
871.54	228.32
871.85	228.26
872.16	228.26
872.47	228.22
872.78	228.10
873.09	228.06
873.40	228.17
873.71	228.28
874.02	228.19
874.33	228.13
874.64	228.17
874.95	228.27
875.26	228.28
875.56	228.30
875.87	228.31
876.18	228.22
876.49	228.46
876.80	228.51
877.11	228.60
877.42	228.59
877.73	228.49
878.04	228.50
878.35	228.51
878.66	228.58
878.96	228.58
879.27	228.65
879.58	228.66
879.89	228.67
880.20	228.72
880.51	228.91
880.82	229.11
881.12	229.15
881.43	229.07
881.74	229.08
882.05	229.01
882.36	228.94
882.67	228.98
882.97	228.80
883.28	228.78
883.59	228.76
883.90	228.96
884.21	229.02
884.51	229.06
884.82	229.20
885.13	229.14
885.44	229.14
885.74	229.16
886.05	229.16
886.36	229.18
886.67	229.06
886.98	229.10
887.28	229.09
887.59	229.12
887.90	229.10
888.20	229.20
888.51	229.34
888.82	229.39
889.13	229.42
889.43	229.55
889.74	229.55
890.05	229.58
890.35	229.50
890.66	229.52
890.97	229.55
891.28	229.48
891.58	229.53
891.89	229.52
892.20	229.50
892.50	229.47
892.81	229.45
893.12	229.44
893.42	229.37
893.73	229.38
894.04	229.29
894.34	229.31
894.65	229.24
894.95	229.17
895.26	229.10
895.57	229.22
895.87	229.07
896.18	229.08
896.48	229.15
896.79	229.11
897.10	229.17
897.40	229.11
897.71	229.09
898.01	229.03
898.32	228.99
898.63	229.01
898.93	229.06
899.24	229.10
899.54	229.12
899.85	229.04
900.15	228.96
900.46	228.92
900.76	228.86
901.07	228.84
901.38	228.84
901.68	228.90
901.99	228.78
902.29	228.73
902.60	228.71
902.90	228.60
903.21	228.53
903.51	228.41
903.82	228.40
904.12	228.42
904.43	228.28
904.73	228.30
905.03	228.26
905.34	228.41
905.64	228.21
905.95	228.18
906.25	228.15
906.56	228.15
906.86	228.14
907.17	228.14
907.47	228.10
907.77	227.98
908.08	227.87
908.38	227.79
908.69	227.76
908.99	227.75
909.30	227.73
909.60	227.73
909.90	227.78
910.21	227.75
910.51	227.62
910.81	227.72
911.12	227.70
911.42	227.70
911.73	227.49
912.03	227.63
912.33	227.72
912.64	227.71
912.94	227.73
913.24	227.74
913.55	227.75
913.85	227.82
914.15	228.00
914.46	228.02
914.76	228.07
915.06	228.05
915.37	228.07
915.67	228.02
915.97	228.07
916.27	228.09
916.58	228.16
916.88	228.27
917.18	228.20
917.49	228.39
917.79	228.36
918.09	228.46
918.39	228.47
918.70	228.36
919.00	228.39
919.30	228.48
919.60	228.51
919.91	228.50
920.21	228.60
920.51	228.49
920.81	228.59
921.12	228.55
921.42	228.67
921.72	228.68
922.02	228.73
922.32	228.74
922.63	228.72
922.93	228.86
923.23	228.87
923.53	228.96
923.83	228.90
924.13	228.99
924.44	228.98
924.74	228.99
925.04	229.06
925.34	229.08
925.64	229.04
925.94	229.10
926.24	229.28
926.55	229.19
926.85	229.30
927.15	229.24
927.45	229.23
927.75	229.14
928.05	229.13
928.35	229.17
928.65	229.21
928.95	229.23
929.26	229.10
929.56	229.23
929.86	229.15
930.16	229.10
930.46	229.00
930.76	229.03
931.06	229.04
931.36	228.96
931.66	228.97
931.96	228.96
932.26	228.95
932.56	228.78
932.86	228.83
933.16	228.72
933.46	228.71
933.76	228.81
934.06	228.90
934.36	229.00
934.66	228.95
934.96	228.95
935.26	228.80
935.56	228.78
935.86	228.57
936.16	228.51
936.46	228.48
936.76	228.44
937.06	228.30
937.36	228.26
937.66	228.30
937.96	228.26
938.26	228.18
938.56	228.13
938.86	228.17
939.16	228.15
939.46	228.25
939.76	228.28
940.06	228.30
940.35	228.23
940.65	228.07
940.95	228.06
941.25	227.98
941.55	228.12
941.85	228.12
942.15	228.17
942.45	228.26
942.75	228.21
943.04	228.14
943.34	228.24
943.64	228.29
943.94	228.29
944.24	228.37
944.54	228.26
944.84	228.19
945.13	228.26
945.43	228.14
945.73	228.04
946.03	228.10
946.33	227.96
946.62	227.96
946.92	228.03
947.22	228.09
947.52	228.08
947.82	227.96
948.11	227.88
948.41	227.87
948.71	227.85
949.01	227.83
949.31	227.94
949.60	227.91
949.90	227.92
950.20	227.82
950.50	227.69
950.79	227.78
951.09	227.92
951.39	227.79
951.69	227.87
951.98	228.02
952.28	227.97
952.58	227.98
952.87	228.00
953.17	227.88
953.47	227.86
953.76	227.87
954.06	227.91
954.36	228.11
954.66	228.09
954.95	228.21
955.25	228.27
955.55	228.34
955.84	228.36
956.14	228.35
956.44	228.44
956.73	228.53
957.03	228.59
957.32	228.54
957.62	228.57
957.92	228.58
958.21	228.59
958.51	228.79
958.81	228.85
959.10	228.82
959.40	228.97
959.69	228.92
959.99	229.02
960.29	229.05
960.58	228.99
960.88	229.09
961.17	229.01
961.47	229.08
961.76	229.02
962.06	229.05
962.36	229.02
962.65	229.05
962.95	229.06
963.24	229.03
963.54	229.14
963.83	229.17
964.13	229.17
964.42	229.05
964.72	228.84
965.01	228.80
965.31	228.91
965.60	228.84
965.90	229.08
966.19	229.02
966.49	229.10
966.78	229.00
967.08	229.02
967.37	229.10
967.67	229.06
967.96	229.23
968.26	229.23
968.55	229.31
968.85	229.33
969.14	229.37
969.43	229.40
969.73	229.25
970.02	229.37
970.32	229.36
970.61	229.38
970.91	229.41
971.20	229.39
971.49	229.28
971.79	229.36
972.08	229.23
972.38	229.23
972.67	229.18
972.96	229.17
973.26	229.19
973.55	229.15
973.85	229.13
974.14	228.90
974.43	228.86
974.73	228.81
975.02	228.80
975.31	228.75
975.61	228.69
975.90	228.73
976.19	228.55
976.49	228.57
976.78	228.54
977.07	228.51
977.37	228.60
977.66	228.65
977.95	228.54
978.24	228.47
978.54	228.43
978.83	228.34
979.12	228.30
979.42	228.11
979.71	228.13
980.00	228.06
980.29	228.13
980.59	228.12
980.88	228.06
981.17	228.01
981.46	228.03
981.76	227.98
982.05	228.02
982.34	227.97
982.63	227.86
982.93	227.79
983.22	227.84
983.51	227.76
983.80	227.72
984.09	227.78
984.39	227.79
984.68	227.80
984.97	227.87
985.26	227.90
985.55	227.92
985.85	227.81
986.14	227.86
986.43	227.83
986.72	227.74
987.01	227.68
987.30	227.73
987.59	227.67
987.89	227.71
988.18	227.59
988.47	227.57
988.76	227.55
989.05	227.61
989.34	227.51
989.63	227.60
989.92	227.61
990.22	227.59
990.51	227.55
990.80	227.53
991.09	227.53
991.38	227.61
991.67	227.76
991.96	227.67
992.25	227.73
992.54	227.77
992.83	227.78
993.12	227.82
993.41	227.88
993.70	227.95
993.99	228.02
994.28	228.11
994.58	228.24
994.87	228.30
995.16	228.35
995.45	228.32
995.74	228.35
996.03	228.39
996.32	228.42
996.61	228.46
996.90	228.54
997.19	228.51
997.48	228.50
997.77	228.39
998.06	228.47
998.34	228.40
998.63	228.35
998.92	228.38
999.21	228.56
999.50	228.49
999.79	228.46
1000.08	228.52
1000.37	228.55
1000.66	228.52
1000.95	228.59
1001.24	228.60
1001.53	228.68
1001.82	228.65
1002.11	228.68
1002.40	228.71
1002.68	228.86
1002.97	229.00
1003.26	229.00
1003.55	229.08
1003.84	229.11
1004.13	229.21
1004.42	229.26
1004.71	229.34
1004.99	229.36
1005.28	229.33
1005.57	229.33
1005.86	229.28
1006.15	229.23
1006.44	229.15
1006.72	229.29
1007.01	229.25
1007.30	229.21
1007.59	229.26
1007.88	229.15
1008.17	229.13
1008.45	229.12
1008.74	229.03
1009.03	228.89
1009.32	228.87
1009.60	228.82
1009.89	228.80
1010.18	228.80
1010.47	228.78
1010.76	228.70
1011.04	228.68
1011.33	228.79
1011.62	228.83
1011.91	228.84
1012.19	228.78
1012.48	228.76
1012.77	228.70
1013.05	228.88
1013.34	228.79
1013.63	228.71
1013.92	228.75
1014.20	228.66
1014.49	228.59
1014.78	228.45
1015.06	228.41
1015.35	228.39
1015.64	228.33
1015.92	228.39
1016.21	228.27
1016.50	228.28
1016.78	228.32
1017.07	228.29
1017.36	228.04
1017.64	227.99
1017.93	227.99
1018.22	228.07
1018.50	228.10
1018.79	227.98
1019.08	227.70
1019.36	227.71
1019.65	227.67
1019.93	227.67
1020.22	227.66
1020.51	227.73
1020.79	227.70
1021.08	229.50
1021.36	227.80
1021.65	226.50
1021.94	226.20
1022.22	226.90
1022.51	227.20
1022.79	227.70
1023.08	227.20
1023.36	229.40
1023.65	225.90
>>>>>End Processed Spectral Data<<<<<
