SpectraSuite Data File
++++++++++++++++++++++++++++++++++++
Date: Fri Feb 01 14:34:05 EST 2013
User: group
Dark Spectrum Present: No
Reference Spectrum Present: No
Number of Sampled Component Spectra: 1
Spectrometers: USB2E7196
Integration Time (usec): 70000 (USB2E7196)
Spectra Averaged: 10 (USB2E7196)
Boxcar Smoothing: 10 (USB2E7196)
Correct for Electrical Dark: No (USB2E7196)
Strobe/Lamp Enabled: No (USB2E7196)
Correct for Detector Non-linearity: No (USB2E7196)
Correct for Stray Light: No (USB2E7196)
Number of Pixels in Processed Spectrum: 2048
>>>>>Begin Processed Spectral Data<<<<<
339.09	0.00
339.48	216.50
339.86	218.10
340.24	220.20
340.63	222.10
341.01	223.70
341.39	221.70
341.78	222.80
342.16	224.80
342.54	227.30
342.93	214.50
343.31	225.31
343.69	225.77
344.07	226.21
344.46	226.60
344.84	226.95
345.22	227.19
345.60	227.52
345.99	227.82
346.37	228.10
346.75	228.14
347.13	228.16
347.52	228.37
347.90	228.42
348.28	228.44
348.66	228.50
349.05	228.50
349.43	228.56
349.81	228.60
350.19	228.67
350.57	228.65
350.96	228.80
351.34	228.91
351.72	229.02
352.10	229.14
352.48	229.20
352.87	229.21
353.25	229.24
353.63	229.27
354.01	229.32
354.39	229.34
354.77	229.42
355.15	229.66
355.54	229.70
355.92	229.66
356.30	229.68
356.68	229.92
357.06	229.99
357.44	230.17
357.82	230.25
358.20	230.36
358.58	230.44
358.97	230.47
359.35	230.63
359.73	230.80
360.11	230.85
360.49	230.87
360.87	230.97
361.25	231.01
361.63	231.15
362.01	231.07
362.39	231.03
362.77	231.17
363.15	231.08
363.53	231.00
363.91	231.10
364.29	231.20
364.67	231.03
365.05	231.06
365.43	231.10
365.81	231.17
366.19	231.28
366.57	231.30
366.95	231.33
367.33	231.31
367.71	231.25
368.09	231.18
368.47	231.15
368.85	231.13
369.23	231.23
369.61	231.12
369.99	231.18
370.37	231.23
370.75	231.22
371.13	231.12
371.51	231.10
371.89	231.03
372.27	230.92
372.65	230.86
373.03	230.81
373.41	230.64
373.78	230.59
374.16	230.37
374.54	230.28
374.92	230.29
375.30	230.06
375.68	229.90
376.06	229.95
376.44	229.80
376.82	229.72
377.19	229.68
377.57	229.60
377.95	229.48
378.33	229.36
378.71	229.13
379.09	229.16
379.47	229.08
379.84	229.07
380.22	228.96
380.60	228.78
380.98	228.77
381.36	228.76
381.73	228.61
382.11	228.56
382.49	228.48
382.87	228.34
383.25	228.38
383.62	228.65
384.00	228.54
384.38	228.56
384.76	228.44
385.13	228.43
385.51	228.38
385.89	228.42
386.27	228.34
386.64	228.36
387.02	228.18
387.40	228.17
387.78	228.00
388.15	227.93
388.53	227.89
388.91	227.83
389.29	227.74
389.66	227.83
390.04	227.74
390.42	227.88
390.79	227.79
391.17	227.74
391.55	227.46
391.92	227.43
392.30	227.53
392.68	227.60
393.05	227.54
393.43	227.53
393.81	227.44
394.18	227.45
394.56	227.40
394.94	227.52
395.31	227.54
395.69	227.80
396.06	227.99
396.44	228.08
396.82	228.02
397.19	228.23
397.57	228.24
397.95	228.45
398.32	228.42
398.70	228.55
399.07	228.74
399.45	228.95
399.82	229.03
400.20	229.19
400.58	229.31
400.95	229.37
401.33	229.66
401.70	230.04
402.08	230.32
402.45	230.60
402.83	230.92
403.20	231.16
403.58	231.31
403.95	231.51
404.33	231.92
404.71	232.35
405.08	232.66
405.46	232.96
405.83	233.27
406.21	233.60
406.58	234.09
406.96	234.52
407.33	234.90
407.70	235.47
408.08	236.13
408.45	236.75
408.83	237.53
409.20	238.11
409.58	238.72
409.95	239.47
410.33	240.31
410.70	241.05
411.08	241.96
411.45	242.88
411.82	243.85
412.20	244.81
412.57	246.02
412.95	247.17
413.32	248.46
413.69	249.87
414.07	251.30
414.44	252.84
414.82	254.30
415.19	256.16
415.56	257.99
415.94	259.69
416.31	261.77
416.68	263.81
417.06	266.16
417.43	268.46
417.81	270.93
418.18	273.53
418.55	276.46
418.93	279.40
419.30	282.58
419.67	285.96
420.04	289.40
420.42	293.05
420.79	297.03
421.16	300.99
421.54	305.14
421.91	309.60
422.28	314.14
422.66	319.05
423.03	323.68
423.40	328.61
423.77	333.96
424.15	339.15
424.52	344.57
424.89	350.60
425.26	356.29
425.64	361.96
426.01	368.07
426.38	374.39
426.75	380.80
427.13	387.37
427.50	394.31
427.87	401.47
428.24	408.60
428.61	415.69
428.99	423.44
429.36	431.80
429.73	440.03
430.10	448.08
430.47	456.30
430.85	464.92
431.22	473.62
431.59	483.06
431.96	492.21
432.33	502.01
432.70	511.59
433.08	523.03
433.45	533.78
433.82	544.46
434.19	556.27
434.56	567.87
434.93	579.01
435.30	590.07
435.68	602.30
436.05	614.36
436.42	626.28
436.79	637.03
437.16	648.57
437.53	660.77
437.90	672.82
438.27	684.85
438.64	697.12
439.01	708.97
439.38	719.55
439.75	729.55
440.13	741.16
440.50	751.89
440.87	760.93
441.24	770.36
441.61	780.37
441.98	788.04
442.35	796.79
442.72	805.78
443.09	814.73
443.46	820.61
443.83	824.46
444.20	828.14
444.57	833.56
444.94	836.60
445.31	839.90
445.68	842.83
446.05	844.92
446.42	845.45
446.79	845.39
447.16	845.03
447.53	845.59
447.90	842.84
448.27	839.89
448.64	834.78
449.01	831.55
449.37	824.98
449.74	818.57
450.11	810.71
450.48	801.94
450.85	792.69
451.22	784.91
451.59	777.80
451.96	770.93
452.33	760.78
452.70	751.88
453.07	740.83
453.43	730.13
453.80	719.45
454.17	708.96
454.54	699.09
454.91	688.41
455.28	677.77
455.65	667.92
456.02	657.84
456.38	649.60
456.75	638.96
457.12	630.14
457.49	621.23
457.86	612.70
458.23	605.23
458.59	597.26
458.96	588.89
459.33	581.49
459.70	573.93
460.07	568.30
460.43	561.37
460.80	554.70
461.17	548.80
461.54	542.57
461.91	536.80
462.27	530.90
462.64	525.87
463.01	520.32
463.38	514.76
463.74	509.56
464.11	504.73
464.48	500.61
464.85	496.20
465.21	492.64
465.58	488.98
465.95	484.79
466.32	481.03
466.68	477.28
467.05	473.63
467.42	470.04
467.78	466.15
468.15	462.45
468.52	459.79
468.88	456.29
469.25	453.05
469.62	450.41
469.98	447.70
470.35	445.13
470.72	442.47
471.08	439.90
471.45	437.67
471.82	435.27
472.18	432.51
472.55	430.60
472.92	428.29
473.28	426.35
473.65	424.24
474.02	422.02
474.38	420.40
474.75	419.01
475.11	417.45
475.48	416.04
475.85	414.92
476.21	413.88
476.58	412.98
476.94	412.38
477.31	411.52
477.67	410.65
478.04	410.03
478.41	409.69
478.77	409.31
479.14	408.76
479.50	408.62
479.87	408.55
480.23	408.49
480.60	408.44
480.96	408.34
481.33	408.72
481.69	409.09
482.06	409.30
482.42	409.33
482.79	409.60
483.15	410.16
483.52	411.15
483.88	411.70
484.25	412.39
484.61	413.11
484.98	413.95
485.34	415.04
485.71	416.31
486.07	417.60
486.44	418.87
486.80	420.14
487.17	421.60
487.53	423.46
487.90	425.15
488.26	427.09
488.62	429.05
488.99	430.89
489.35	433.00
489.72	435.28
490.08	437.87
490.44	440.49
490.81	443.02
491.17	445.60
491.54	448.50
491.90	451.43
492.26	454.51
492.63	457.60
492.99	460.75
493.36	464.02
493.72	467.55
494.08	471.20
494.45	475.30
494.81	479.04
495.17	482.92
495.54	486.93
495.90	491.11
496.26	495.38
496.63	499.80
496.99	504.46
497.35	509.11
497.72	513.56
498.08	518.18
498.44	523.12
498.80	528.06
499.17	533.03
499.53	537.93
499.89	543.21
500.26	548.26
500.62	553.50
500.98	558.75
501.34	563.99
501.71	569.38
502.07	574.55
502.43	580.04
502.79	585.44
503.16	591.02
503.52	596.50
503.88	601.75
504.24	607.01
504.60	612.41
504.97	617.92
505.33	623.55
505.69	629.42
506.05	635.21
506.41	640.62
506.78	645.92
507.14	651.36
507.50	656.65
507.86	662.29
508.22	667.92
508.59	673.19
508.95	678.75
509.31	684.03
509.67	689.63
510.03	694.85
510.39	700.14
510.75	705.28
511.12	710.58
511.48	715.83
511.84	721.29
512.20	726.18
512.56	731.22
512.92	736.41
513.28	741.04
513.64	745.40
514.00	750.10
514.37	754.90
514.73	759.27
515.09	763.45
515.45	767.54
515.81	771.91
516.17	776.21
516.53	780.10
516.89	783.92
517.25	787.85
517.61	791.94
517.97	795.62
518.33	799.21
518.69	802.46
519.05	805.84
519.41	809.18
519.77	812.76
520.13	816.00
520.49	819.05
520.85	822.02
521.21	825.11
521.57	828.35
521.93	831.35
522.29	834.83
522.65	837.93
523.01	840.94
523.37	843.19
523.73	846.09
524.09	848.89
524.45	851.94
524.81	854.42
525.17	856.85
525.53	859.78
525.89	862.67
526.25	865.56
526.61	868.26
526.97	870.67
527.33	873.11
527.68	875.79
528.04	878.37
528.40	881.10
528.76	884.09
529.12	886.72
529.48	889.16
529.84	891.21
530.20	893.81
530.56	896.84
530.91	900.04
531.27	902.51
531.63	904.99
531.99	907.27
532.35	909.62
532.71	912.00
533.07	914.33
533.42	916.76
533.78	919.40
534.14	921.90
534.50	924.32
534.86	926.86
535.21	928.91
535.57	931.55
535.93	933.94
536.29	936.27
536.65	938.39
537.00	940.78
537.36	943.40
537.72	945.71
538.08	947.65
538.44	949.62
538.79	951.91
539.15	953.91
539.51	956.55
539.87	959.16
540.22	961.77
540.58	964.45
540.94	966.70
541.29	968.75
541.65	971.12
542.01	973.99
542.37	976.65
542.72	979.30
543.08	981.49
543.44	984.04
543.79	985.72
544.15	988.31
544.51	991.10
544.87	993.64
545.22	996.32
545.58	998.78
545.94	1001.15
546.29	1003.39
546.65	1005.96
547.01	1007.88
547.36	1010.06
547.72	1012.21
548.07	1014.18
548.43	1016.36
548.79	1018.49
549.14	1020.48
549.50	1022.31
549.86	1024.14
550.21	1025.91
550.57	1027.96
550.92	1029.78
551.28	1032.04
551.64	1033.82
551.99	1035.55
552.35	1037.37
552.70	1039.40
553.06	1041.24
553.41	1042.90
553.77	1044.82
554.13	1046.58
554.48	1048.67
554.84	1050.92
555.19	1052.67
555.55	1054.31
555.90	1055.97
556.26	1057.95
556.61	1060.05
556.97	1061.67
557.32	1063.39
557.68	1065.36
558.03	1067.22
558.39	1068.77
558.74	1070.87
559.10	1072.78
559.45	1074.35
559.81	1076.34
560.16	1077.89
560.52	1079.60
560.87	1081.84
561.23	1083.69
561.58	1085.89
561.94	1087.58
562.29	1088.58
562.64	1090.39
563.00	1091.92
563.35	1094.09
563.71	1096.02
564.06	1097.55
564.42	1099.18
564.77	1101.09
565.12	1102.74
565.48	1104.36
565.83	1105.75
566.19	1106.99
566.54	1108.00
566.89	1109.17
567.25	1110.17
567.60	1111.60
567.96	1112.95
568.31	1114.09
568.66	1114.90
569.02	1115.22
569.37	1115.80
569.72	1116.77
570.08	1117.40
570.43	1118.40
570.78	1118.49
571.14	1118.48
571.49	1118.61
571.84	1119.50
572.20	1119.33
572.55	1119.54
572.90	1119.25
573.26	1119.65
573.61	1119.55
573.96	1119.78
574.31	1119.47
574.67	1118.97
575.02	1118.47
575.37	1117.81
575.72	1116.58
576.08	1115.86
576.43	1115.52
576.78	1115.08
577.13	1114.60
577.49	1114.01
577.84	1112.70
578.19	1111.94
578.54	1111.03
578.90	1109.96
579.25	1108.07
579.60	1106.71
579.95	1105.00
580.30	1103.53
580.66	1101.76
581.01	1100.02
581.36	1098.63
581.71	1097.70
582.06	1096.40
582.42	1094.22
582.77	1092.37
583.12	1090.97
583.47	1089.64
583.82	1088.09
584.17	1086.28
584.53	1084.40
584.88	1082.40
585.23	1080.94
585.58	1079.10
585.93	1077.20
586.28	1075.56
586.63	1074.20
586.98	1072.70
587.34	1071.39
587.69	1069.44
588.04	1067.54
588.39	1066.02
588.74	1063.30
589.09	1060.55
589.44	1058.12
589.79	1056.38
590.14	1054.71
590.49	1052.29
590.84	1049.80
591.19	1047.38
591.54	1044.45
591.89	1041.36
592.25	1039.04
592.60	1036.04
592.95	1033.39
593.30	1030.50
593.65	1027.86
594.00	1024.87
594.35	1022.28
594.70	1018.98
595.05	1016.64
595.40	1013.90
595.75	1010.73
596.10	1008.39
596.45	1006.13
596.80	1003.80
597.15	1000.92
597.50	997.74
597.85	995.24
598.19	992.75
598.54	989.99
598.89	987.73
599.24	985.68
599.59	982.70
599.94	980.06
600.29	977.24
600.64	974.79
600.99	971.66
601.34	968.54
601.69	965.21
602.04	962.67
602.39	959.36
602.74	956.79
603.08	954.34
603.43	951.56
603.78	948.36
604.13	945.30
604.48	942.26
604.83	939.57
605.18	936.51
605.53	933.08
605.87	929.79
606.22	926.87
606.57	923.69
606.92	920.58
607.27	917.87
607.62	915.07
607.96	912.08
608.31	909.14
608.66	906.04
609.01	902.95
609.36	899.05
609.70	895.54
610.05	891.60
610.40	888.15
610.75	884.20
611.10	880.63
611.44	876.58
611.79	873.10
612.14	869.36
612.49	865.38
612.83	861.55
613.18	857.84
613.53	853.83
613.88	850.10
614.22	846.43
614.57	842.44
614.92	838.16
615.27	834.22
615.61	830.59
615.96	826.89
616.31	823.26
616.65	820.49
617.00	817.10
617.35	813.88
617.70	810.11
618.04	806.62
618.39	803.10
618.74	800.00
619.08	796.22
619.43	792.52
619.78	789.37
620.12	785.98
620.47	782.44
620.82	778.88
621.16	775.33
621.51	772.00
621.85	768.62
622.20	765.47
622.55	762.31
622.89	758.75
623.24	755.67
623.59	752.58
623.93	748.85
624.28	745.67
624.62	742.44
624.97	739.29
625.32	736.32
625.66	733.18
626.01	729.66
626.35	726.61
626.70	723.47
627.04	719.96
627.39	716.93
627.73	713.74
628.08	710.64
628.43	707.50
628.77	704.01
629.12	700.68
629.46	697.32
629.81	693.73
630.15	690.45
630.50	687.11
630.84	683.24
631.19	680.01
631.53	676.65
631.88	673.02
632.22	669.50
632.57	666.37
632.91	663.09
633.26	659.96
633.60	656.72
633.95	653.62
634.29	650.82
634.64	647.90
634.98	644.99
635.32	641.95
635.67	639.01
636.01	636.22
636.36	633.37
636.70	630.53
637.05	627.99
637.39	625.45
637.73	622.58
638.08	620.32
638.42	617.60
638.77	615.00
639.11	612.46
639.45	609.74
639.80	606.70
640.14	603.99
640.49	601.40
640.83	598.71
641.17	596.10
641.52	593.51
641.86	590.51
642.20	587.67
642.55	585.05
642.89	582.25
643.23	579.49
643.58	576.89
643.92	574.17
644.26	571.40
644.61	568.78
644.95	566.12
645.29	563.00
645.64	560.11
645.98	557.31
646.32	554.76
646.66	552.20
647.01	549.60
647.35	547.30
647.69	544.74
648.04	542.30
648.38	539.66
648.72	536.79
649.06	534.13
649.41	531.78
649.75	529.07
650.09	526.52
650.43	523.87
650.78	521.03
651.12	518.51
651.46	515.94
651.80	513.33
652.14	511.00
652.49	508.70
652.83	506.46
653.17	504.10
653.51	501.58
653.85	499.01
654.20	496.50
654.54	493.56
654.88	490.95
655.22	488.19
655.56	485.68
655.90	483.65
656.25	481.41
656.59	479.01
656.93	476.82
657.27	474.35
657.61	472.07
657.95	469.93
658.29	467.77
658.64	465.35
658.98	462.92
659.32	460.45
659.66	458.20
660.00	455.85
660.34	453.58
660.68	451.30
661.02	449.07
661.36	447.16
661.70	445.17
662.05	443.10
662.39	441.34
662.73	439.38
663.07	437.16
663.41	435.24
663.75	433.19
664.09	431.38
664.43	429.43
664.77	427.69
665.11	425.81
665.45	423.88
665.79	422.19
666.13	420.53
666.47	418.77
666.81	416.80
667.15	414.88
667.49	413.20
667.83	411.65
668.17	410.01
668.51	408.29
668.85	406.76
669.19	405.22
669.53	403.40
669.87	401.59
670.21	399.92
670.55	398.18
670.89	396.70
671.23	394.97
671.57	393.61
671.91	391.98
672.25	390.56
672.58	388.96
672.92	387.33
673.26	385.77
673.60	384.38
673.94	383.28
674.28	382.15
674.62	380.66
674.96	379.20
675.30	377.83
675.64	376.36
675.97	374.88
676.31	373.55
676.65	372.24
676.99	371.04
677.33	369.76
677.67	368.60
678.01	367.19
678.34	365.93
678.68	364.70
679.02	363.46
679.36	362.16
679.70	360.93
680.04	359.75
680.37	358.53
680.71	357.28
681.05	356.00
681.39	354.72
681.73	353.63
682.06	352.44
682.40	351.45
682.74	350.38
683.08	349.36
683.42	348.19
683.75	347.14
684.09	346.03
684.43	344.86
684.77	343.71
685.10	342.71
685.44	341.72
685.78	340.45
686.12	339.39
686.45	338.10
686.79	337.06
687.13	335.92
687.46	334.76
687.80	333.77
688.14	332.65
688.48	331.60
688.81	330.51
689.15	329.50
689.49	328.38
689.82	327.31
690.16	326.10
690.50	325.11
690.83	324.13
691.17	323.06
691.51	322.06
691.84	321.05
692.18	320.00
692.52	318.97
692.85	318.10
693.19	317.11
693.52	316.38
693.86	315.50
694.20	314.71
694.53	313.89
694.87	312.78
695.21	311.95
695.54	311.07
695.88	309.94
696.21	309.08
696.55	308.19
696.88	307.35
697.22	306.63
697.56	305.76
697.89	304.94
698.23	304.14
698.56	303.37
698.90	302.50
699.23	301.64
699.57	300.77
699.90	300.04
700.24	299.25
700.58	298.50
700.91	297.70
701.25	297.05
701.58	296.40
701.92	295.76
702.25	294.93
702.59	294.18
702.92	293.62
703.26	292.84
703.59	292.28
703.93	291.72
704.26	291.05
704.60	290.35
704.93	289.70
705.26	289.05
705.60	288.50
705.93	287.88
706.27	287.40
706.60	286.93
706.94	286.26
707.27	285.65
707.61	285.00
707.94	284.46
708.27	283.78
708.61	283.14
708.94	282.54
709.28	282.06
709.61	281.60
709.94	281.16
710.28	280.63
710.61	280.06
710.95	279.35
711.28	278.94
711.61	278.51
711.95	277.89
712.28	277.43
712.61	276.77
712.95	276.42
713.28	276.12
713.61	275.50
713.95	275.00
714.28	274.56
714.61	274.04
714.95	273.60
715.28	273.00
715.61	272.38
715.95	271.96
716.28	271.44
716.61	270.92
716.95	270.39
717.28	270.01
717.61	269.44
717.94	268.98
718.28	268.30
718.61	267.78
718.94	267.44
719.27	266.92
719.61	266.57
719.94	266.10
720.27	265.42
720.60	265.02
720.94	264.66
721.27	264.27
721.60	263.93
721.93	263.56
722.27	263.30
722.60	263.04
722.93	262.69
723.26	262.32
723.59	261.95
723.93	261.60
724.26	261.30
724.59	260.93
724.92	260.70
725.25	260.59
725.59	260.32
725.92	259.97
726.25	259.57
726.58	259.30
726.91	258.94
727.24	258.62
727.57	258.40
727.91	258.11
728.24	257.88
728.57	257.49
728.90	257.07
729.23	256.69
729.56	256.50
729.89	256.19
730.22	255.91
730.55	255.60
730.89	255.40
731.22	255.09
731.55	254.82
731.88	254.51
732.21	254.03
732.54	253.72
732.87	253.36
733.20	253.17
733.53	252.81
733.86	252.57
734.19	252.20
734.52	251.80
734.85	251.60
735.18	251.22
735.51	250.96
735.84	250.82
736.17	250.71
736.50	250.33
736.83	250.37
737.16	250.15
737.49	250.03
737.82	249.72
738.15	249.43
738.48	249.34
738.81	249.08
739.14	249.02
739.47	248.89
739.80	248.87
740.13	248.69
740.46	248.46
740.79	248.29
741.12	248.24
741.45	248.15
741.78	247.90
742.11	247.73
742.44	247.72
742.77	247.49
743.10	247.30
743.43	247.19
743.75	246.73
744.08	246.73
744.41	246.50
744.74	246.31
745.07	246.16
745.40	245.91
745.73	245.81
746.06	245.57
746.39	245.37
746.71	245.19
747.04	245.10
747.37	245.01
747.70	244.83
748.03	244.69
748.36	244.59
748.68	244.41
749.01	244.31
749.34	244.05
749.67	243.76
750.00	243.53
750.33	243.49
750.65	243.32
750.98	243.10
751.31	242.88
751.64	242.72
751.97	242.63
752.29	242.53
752.62	242.28
752.95	242.14
753.28	241.97
753.60	241.68
753.93	241.45
754.26	241.21
754.59	241.07
754.91	240.87
755.24	240.64
755.57	240.57
755.90	240.34
756.22	240.23
756.55	240.27
756.88	240.11
757.20	239.73
757.53	239.63
757.86	239.44
758.19	239.43
758.51	239.38
758.84	239.12
759.17	238.93
759.49	238.94
759.82	238.81
760.15	238.75
760.47	238.67
760.80	238.50
761.13	238.55
761.45	238.30
761.78	238.24
762.11	238.10
762.43	237.90
762.76	237.89
763.08	237.80
763.41	237.69
763.74	237.60
764.06	237.59
764.39	237.51
764.71	237.44
765.04	237.11
765.37	236.93
765.69	236.95
766.02	236.83
766.34	236.69
766.67	236.51
767.00	236.37
767.32	236.31
767.65	236.44
767.97	236.23
768.30	236.18
768.62	236.12
768.95	236.02
769.27	235.90
769.60	235.82
769.92	235.57
770.25	235.42
770.57	235.29
770.90	235.21
771.22	235.09
771.55	234.94
771.87	234.99
772.20	234.94
772.52	235.02
772.85	235.17
773.17	235.06
773.50	235.09
773.82	235.02
774.15	234.87
774.47	234.59
774.80	234.56
775.12	234.57
775.45	234.44
775.77	234.41
776.09	234.38
776.42	234.24
776.74	234.34
777.07	234.29
777.39	234.23
777.72	234.16
778.04	234.12
778.36	234.02
778.69	233.94
779.01	233.89
779.33	233.64
779.66	233.35
779.98	233.33
780.31	233.23
780.63	233.31
780.95	233.44
781.28	233.44
781.60	233.48
781.92	233.37
782.25	233.25
782.57	233.22
782.89	233.27
783.22	233.26
783.54	233.20
783.86	233.18
784.19	233.28
784.51	233.42
784.83	233.39
785.16	233.36
785.48	233.38
785.80	233.40
786.12	233.40
786.45	233.35
786.77	233.31
787.09	233.23
787.42	233.10
787.74	232.95
788.06	232.86
788.38	232.64
788.71	232.70
789.03	232.69
789.35	232.74
789.67	232.65
789.99	232.56
790.32	232.50
790.64	232.63
790.96	232.61
791.28	232.38
791.61	232.34
791.93	232.39
792.25	232.30
792.57	232.40
792.89	232.30
793.21	232.42
793.54	232.30
793.86	232.31
794.18	232.38
794.50	232.45
794.82	232.41
795.14	232.46
795.47	232.45
795.79	232.54
796.11	232.33
796.43	232.16
796.75	232.14
797.07	232.12
797.39	231.91
797.71	231.78
798.04	231.80
798.36	231.73
798.68	231.77
799.00	231.72
799.32	231.58
799.64	231.55
799.96	231.44
800.28	231.49
800.60	231.49
800.92	231.43
801.24	231.28
801.56	231.32
801.89	231.32
802.21	231.23
802.53	231.18
802.85	231.25
803.17	231.50
803.49	231.48
803.81	231.36
804.13	231.38
804.45	231.22
804.77	231.26
805.09	231.26
805.41	231.11
805.73	231.09
806.05	231.03
806.37	231.07
806.69	231.01
807.01	231.02
807.33	230.95
807.65	230.77
807.97	230.92
808.28	230.95
808.60	230.86
808.92	230.86
809.24	230.89
809.56	230.86
809.88	230.74
810.20	230.74
810.52	230.79
810.84	230.76
811.16	230.84
811.48	230.75
811.80	230.71
812.12	230.70
812.43	230.81
812.75	230.75
813.07	230.63
813.39	230.69
813.71	230.62
814.03	230.56
814.35	230.68
814.67	230.39
814.98	230.31
815.30	230.21
815.62	230.17
815.94	229.99
816.26	230.13
816.58	230.04
816.89	229.96
817.21	229.93
817.53	229.80
817.85	229.80
818.17	229.69
818.48	229.64
818.80	229.66
819.12	229.54
819.44	229.46
819.76	229.44
820.07	229.35
820.39	229.39
820.71	229.45
821.03	229.34
821.34	229.39
821.66	229.40
821.98	229.54
822.30	229.57
822.61	229.66
822.93	229.50
823.25	229.45
823.57	229.51
823.88	229.49
824.20	229.53
824.52	229.51
824.83	229.53
825.15	229.50
825.47	229.46
825.79	229.42
826.10	229.47
826.42	229.49
826.74	229.55
827.05	229.50
827.37	229.49
827.69	229.51
828.00	229.58
828.32	229.56
828.64	229.60
828.95	229.64
829.27	229.61
829.58	229.56
829.90	229.60
830.22	229.60
830.53	229.60
830.85	229.75
831.17	229.70
831.48	229.73
831.80	229.75
832.11	229.78
832.43	229.81
832.75	229.83
833.06	229.93
833.38	229.81
833.69	229.82
834.01	229.82
834.32	229.78
834.64	229.64
834.96	229.64
835.27	229.60
835.59	229.58
835.90	229.68
836.22	229.70
836.53	229.68
836.85	229.67
837.16	230.05
837.48	229.93
837.79	229.97
838.11	230.08
838.42	230.15
838.74	230.11
839.05	230.10
839.37	230.11
839.68	229.94
840.00	230.00
840.31	229.96
840.63	229.96
840.94	229.98
841.26	230.00
841.57	229.99
841.88	229.90
842.20	229.74
842.51	229.58
842.83	229.54
843.14	229.60
843.46	229.48
843.77	229.23
844.08	229.22
844.40	229.16
844.71	228.97
845.03	228.94
845.34	229.00
845.65	228.99
845.97	228.95
846.28	228.98
846.60	228.97
846.91	228.97
847.22	228.95
847.54	228.92
847.85	229.00
848.16	229.00
848.48	228.95
848.79	229.09
849.10	229.13
849.42	229.10
849.73	228.97
850.04	229.00
850.36	228.81
850.67	228.73
850.98	228.81
851.30	228.92
851.61	228.90
851.92	228.87
852.23	228.86
852.55	228.85
852.86	228.88
853.17	228.82
853.49	228.85
853.80	228.86
854.11	228.85
854.42	228.70
854.74	228.60
855.05	228.63
855.36	228.48
855.67	228.40
855.99	228.37
856.30	228.52
856.61	228.48
856.92	228.50
857.23	228.56
857.55	228.42
857.86	228.37
858.17	228.35
858.48	228.30
858.79	228.27
859.11	228.30
859.42	228.23
859.73	228.26
860.04	228.13
860.35	227.98
860.66	227.96
860.98	228.00
861.29	228.14
861.60	228.07
861.91	228.18
862.22	228.17
862.53	228.19
862.84	227.94
863.16	227.98
863.47	227.97
863.78	227.98
864.09	227.91
864.40	227.94
864.71	227.96
865.02	227.88
865.33	227.88
865.64	227.89
865.95	227.89
866.27	227.98
866.58	228.05
866.89	228.08
867.20	228.05
867.51	228.14
867.82	228.07
868.13	228.13
868.44	228.15
868.75	228.16
869.06	228.27
869.37	228.39
869.68	228.41
869.99	228.47
870.30	228.59
870.61	228.67
870.92	228.65
871.23	228.63
871.54	228.77
871.85	228.85
872.16	228.92
872.47	228.95
872.78	228.91
873.09	228.95
873.40	229.00
873.71	229.05
874.02	229.08
874.33	229.10
874.64	229.20
874.95	229.22
875.26	229.29
875.56	229.24
875.87	229.22
876.18	229.22
876.49	229.52
876.80	229.32
877.11	229.35
877.42	229.30
877.73	229.28
878.04	229.18
878.35	229.08
878.66	229.00
878.96	228.96
879.27	228.91
879.58	228.94
879.89	228.98
880.20	228.99
880.51	228.92
880.82	228.88
881.12	228.90
881.43	228.80
881.74	228.73
882.05	228.65
882.36	228.74
882.67	228.79
882.97	228.48
883.28	228.54
883.59	228.67
883.90	228.71
884.21	228.85
884.51	228.86
884.82	228.88
885.13	228.80
885.44	228.82
885.74	228.81
886.05	228.70
886.36	228.70
886.67	228.69
886.98	228.73
887.28	228.71
887.59	228.59
887.90	228.55
888.20	228.55
888.51	228.60
888.82	228.55
889.13	228.53
889.43	228.72
889.74	228.78
890.05	228.63
890.35	228.64
890.66	228.55
890.97	228.51
891.28	228.45
891.58	228.44
891.89	228.46
892.20	228.44
892.50	228.40
892.81	228.47
893.12	228.47
893.42	228.35
893.73	228.43
894.04	228.43
894.34	228.55
894.65	228.55
894.95	228.58
895.26	228.58
895.57	228.60
895.87	228.32
896.18	228.29
896.48	228.30
896.79	228.30
897.10	228.33
897.40	228.37
897.71	228.49
898.01	228.57
898.32	228.53
898.63	228.58
898.93	228.64
899.24	228.45
899.54	228.45
899.85	228.53
900.15	228.54
900.46	228.50
900.76	228.47
901.07	228.50
901.38	228.45
901.68	228.56
901.99	228.48
902.29	228.51
902.60	228.50
902.90	228.44
903.21	228.39
903.51	228.30
903.82	228.42
904.12	228.42
904.43	228.53
904.73	228.58
905.03	228.52
905.34	228.77
905.64	228.94
905.95	228.89
906.25	228.87
906.56	228.74
906.86	228.78
907.17	228.70
907.47	228.77
907.77	228.75
908.08	228.67
908.38	228.74
908.69	228.82
908.99	228.84
909.30	229.02
909.60	229.02
909.90	229.09
910.21	229.02
910.51	229.01
910.81	228.97
911.12	229.03
911.42	229.09
911.73	228.89
912.03	228.80
912.33	228.80
912.64	228.84
912.94	228.97
913.24	228.94
913.55	229.06
913.85	228.99
914.15	229.07
914.46	229.05
914.76	229.00
915.06	229.08
915.37	229.07
915.67	229.00
915.97	229.02
916.27	228.92
916.58	228.81
916.88	228.75
917.18	228.78
917.49	228.81
917.79	228.79
918.09	228.70
918.39	228.80
918.70	228.84
919.00	228.83
919.30	228.89
919.60	228.87
919.91	228.80
920.21	228.78
920.51	228.78
920.81	228.83
921.12	228.79
921.42	228.72
921.72	228.75
922.02	228.69
922.32	228.74
922.63	228.85
922.93	229.01
923.23	228.98
923.53	228.94
923.83	228.81
924.13	228.68
924.44	228.80
924.74	228.75
925.04	228.72
925.34	228.70
925.64	228.67
925.94	228.72
926.24	228.75
926.55	228.74
926.85	228.74
927.15	228.70
927.45	228.67
927.75	228.68
928.05	228.63
928.35	228.69
928.65	228.68
928.95	228.62
929.26	228.50
929.56	228.54
929.86	228.47
930.16	228.56
930.46	228.65
930.76	228.62
931.06	228.54
931.36	228.54
931.66	228.58
931.96	228.56
932.26	228.49
932.56	228.43
932.86	228.42
933.16	228.36
933.46	228.25
933.76	228.35
934.06	228.32
934.36	228.40
934.66	228.38
934.96	228.46
935.26	228.48
935.56	228.50
935.86	228.43
936.16	228.38
936.46	228.27
936.76	228.28
937.06	228.22
937.36	228.29
937.66	228.32
937.96	228.28
938.26	228.18
938.56	228.23
938.86	228.34
939.16	228.37
939.46	228.34
939.76	228.41
940.06	228.34
940.35	228.27
940.65	228.18
940.95	228.10
941.25	227.94
941.55	227.92
941.85	228.04
942.15	228.12
942.45	228.20
942.75	228.20
943.04	228.21
943.34	228.20
943.64	228.10
943.94	228.06
944.24	228.12
944.54	228.20
944.84	228.21
945.13	228.24
945.43	228.19
945.73	228.22
946.03	228.18
946.33	228.20
946.62	228.30
946.92	228.28
947.22	228.37
947.52	228.36
947.82	228.33
948.11	228.24
948.41	228.26
948.71	228.13
949.01	228.19
949.31	228.17
949.60	228.16
949.90	228.26
950.20	228.24
950.50	228.31
950.79	228.32
951.09	228.28
951.39	228.21
951.69	228.30
951.98	228.34
952.28	228.36
952.58	228.42
952.87	228.45
953.17	228.48
953.47	228.45
953.76	228.47
954.06	228.47
954.36	228.52
954.66	228.50
954.95	228.66
955.25	228.60
955.55	228.65
955.84	228.71
956.14	228.72
956.44	228.79
956.73	228.74
957.03	228.63
957.32	228.66
957.62	228.71
957.92	228.67
958.21	228.66
958.51	228.90
958.81	228.85
959.10	228.82
959.40	228.74
959.69	228.75
959.99	228.76
960.29	228.74
960.58	228.67
960.88	228.70
961.17	228.70
961.47	228.75
961.76	228.71
962.06	228.73
962.36	228.67
962.65	228.67
962.95	228.59
963.24	228.66
963.54	228.70
963.83	228.63
964.13	228.57
964.42	228.50
964.72	228.31
965.01	228.36
965.31	228.32
965.60	228.38
965.90	228.48
966.19	228.53
966.49	228.54
966.78	228.52
967.08	228.68
967.37	228.57
967.67	228.59
967.96	228.64
968.26	228.61
968.55	228.73
968.85	228.63
969.14	228.67
969.43	228.69
969.73	228.68
970.02	228.65
970.32	228.73
970.61	228.77
970.91	228.76
971.20	228.69
971.49	228.65
971.79	228.75
972.08	228.57
972.38	228.61
972.67	228.62
972.96	228.63
973.26	228.42
973.55	228.60
973.85	228.55
974.14	228.40
974.43	228.52
974.73	228.41
975.02	228.53
975.31	228.52
975.61	228.52
975.90	228.45
976.19	228.48
976.49	228.47
976.78	228.56
977.07	228.54
977.37	228.67
977.66	228.72
977.95	228.61
978.24	228.73
978.54	228.74
978.83	228.72
979.12	228.78
979.42	228.87
979.71	228.73
980.00	228.74
980.29	228.81
980.59	228.76
980.88	228.86
981.17	228.87
981.46	228.82
981.76	228.77
982.05	228.92
982.34	228.89
982.63	228.77
982.93	228.69
983.22	228.80
983.51	228.74
983.80	228.77
984.09	228.82
984.39	228.72
984.68	228.68
984.97	228.60
985.26	228.63
985.55	228.67
985.85	228.73
986.14	228.71
986.43	228.76
986.72	228.69
987.01	228.51
987.30	228.39
987.59	228.41
987.89	228.51
988.18	228.40
988.47	228.41
988.76	228.46
989.05	228.44
989.34	228.24
989.63	228.23
989.92	228.17
990.22	228.14
990.51	228.18
990.80	228.14
991.09	228.28
991.38	228.14
991.67	228.01
991.96	228.00
992.25	228.04
992.54	228.00
992.83	227.94
993.12	227.99
993.41	228.11
993.70	228.20
993.99	228.12
994.28	228.07
994.58	228.16
994.87	228.26
995.16	228.24
995.45	228.37
995.74	228.30
996.03	228.24
996.32	228.27
996.61	228.30
996.90	228.26
997.19	228.27
997.48	228.34
997.77	228.28
998.06	228.25
998.34	228.19
998.63	228.23
998.92	228.28
999.21	228.25
999.50	228.22
999.79	228.17
1000.08	228.12
1000.37	228.18
1000.66	228.09
1000.95	228.05
1001.24	228.07
1001.53	228.11
1001.82	228.11
1002.11	228.19
1002.40	228.17
1002.68	228.25
1002.97	228.40
1003.26	228.43
1003.55	228.41
1003.84	228.54
1004.13	228.68
1004.42	228.77
1004.71	228.71
1004.99	228.71
1005.28	228.76
1005.57	228.80
1005.86	228.83
1006.15	228.94
1006.44	228.95
1006.72	229.00
1007.01	229.00
1007.30	229.07
1007.59	229.02
1007.88	229.10
1008.17	229.13
1008.45	229.16
1008.74	229.03
1009.03	229.03
1009.32	228.94
1009.60	229.05
1009.89	229.10
1010.18	228.97
1010.47	228.99
1010.76	229.01
1011.04	229.10
1011.33	229.17
1011.62	229.13
1011.91	229.13
1012.19	229.13
1012.48	229.19
1012.77	229.05
1013.05	229.13
1013.34	229.16
1013.63	229.17
1013.92	229.18
1014.20	229.14
1014.49	229.20
1014.78	229.26
1015.06	229.21
1015.35	229.28
1015.64	229.21
1015.92	229.19
1016.21	229.22
1016.50	229.17
1016.78	229.29
1017.07	229.18
1017.36	229.21
1017.64	229.16
1017.93	229.19
1018.22	229.18
1018.50	229.16
1018.79	229.24
1019.08	229.10
1019.36	229.06
1019.65	229.11
1019.93	229.14
1020.22	229.14
1020.51	229.12
1020.79	229.11
1021.08	229.00
1021.36	229.10
1021.65	228.10
1021.94	227.40
1022.22	229.10
1022.51	230.10
1022.79	230.30
1023.08	228.50
1023.36	229.60
1023.65	228.50
>>>>>End Processed Spectral Data<<<<<
