SpectraSuite Data File
++++++++++++++++++++++++++++++++++++
Date: Fri Feb 01 14:42:07 EST 2013
User: group
Dark Spectrum Present: No
Reference Spectrum Present: No
Number of Sampled Component Spectra: 1
Spectrometers: USB2E7196
Integration Time (usec): 70000 (USB2E7196)
Spectra Averaged: 10 (USB2E7196)
Boxcar Smoothing: 10 (USB2E7196)
Correct for Electrical Dark: No (USB2E7196)
Strobe/Lamp Enabled: No (USB2E7196)
Correct for Detector Non-linearity: No (USB2E7196)
Correct for Stray Light: No (USB2E7196)
Number of Pixels in Processed Spectrum: 2048
>>>>>Begin Processed Spectral Data<<<<<
339.09	0.00
339.48	215.10
339.86	218.10
340.24	218.90
340.63	223.10
341.01	224.50
341.39	225.60
341.78	224.90
342.16	226.50
342.54	224.40
342.93	215.04
343.31	225.95
343.69	226.54
344.07	226.92
344.46	227.41
344.84	227.64
345.22	227.82
345.60	227.90
345.99	228.07
346.37	228.23
346.75	228.52
347.13	228.57
347.52	228.58
347.90	228.76
348.28	228.86
348.66	228.95
349.05	228.79
349.43	228.80
349.81	228.86
350.19	228.87
350.57	228.91
350.96	228.81
351.34	228.90
351.72	229.03
352.10	229.23
352.48	229.24
352.87	229.35
353.25	229.43
353.63	229.69
354.01	229.74
354.39	229.82
354.77	229.81
355.15	229.91
355.54	230.04
355.92	229.94
356.30	229.91
356.68	230.17
357.06	230.42
357.44	230.52
357.82	230.62
358.20	230.72
358.58	230.86
358.97	230.97
359.35	230.91
359.73	230.98
360.11	231.01
360.49	231.07
360.87	231.11
361.25	231.17
361.63	231.19
362.01	231.29
362.39	231.33
362.77	231.36
363.15	231.37
363.53	231.37
363.91	231.37
364.29	231.49
364.67	231.24
365.05	231.24
365.43	231.26
365.81	231.16
366.19	231.24
366.57	231.20
366.95	231.28
367.33	231.30
367.71	231.31
368.09	231.33
368.47	231.30
368.85	231.26
369.23	231.29
369.61	231.18
369.99	231.23
370.37	231.01
370.75	231.03
371.13	230.89
371.51	230.70
371.89	230.72
372.27	230.69
372.65	230.72
373.03	230.59
373.41	230.48
373.78	230.52
374.16	230.39
374.54	230.25
374.92	230.19
375.30	230.15
375.68	230.02
376.06	229.95
376.44	229.82
376.82	229.80
377.19	229.63
377.57	229.57
377.95	229.40
378.33	229.46
378.71	229.22
379.09	229.23
379.47	229.27
379.84	229.12
380.22	228.94
380.60	228.83
380.98	228.80
381.36	228.78
381.73	228.65
382.11	228.55
382.49	228.57
382.87	228.45
383.25	228.35
383.62	228.47
384.00	228.28
384.38	228.36
384.76	228.32
385.13	228.35
385.51	228.22
385.89	228.15
386.27	228.03
386.64	228.06
387.02	227.98
387.40	227.97
387.78	227.99
388.15	228.03
388.53	228.06
388.91	227.96
389.29	227.91
389.66	227.90
390.04	227.92
390.42	227.99
390.79	227.92
391.17	228.04
391.55	227.88
391.92	228.00
392.30	227.92
392.68	227.90
393.05	227.91
393.43	227.97
393.81	228.05
394.18	228.08
394.56	228.12
394.94	228.20
395.31	228.21
395.69	228.32
396.06	228.38
396.44	228.38
396.82	228.52
397.19	228.67
397.57	228.85
397.95	229.01
398.32	229.01
398.70	229.19
399.07	229.23
399.45	229.31
399.82	229.46
400.20	229.59
400.58	229.69
400.95	229.83
401.33	229.99
401.70	230.15
402.08	230.35
402.45	230.56
402.83	230.76
403.20	230.94
403.58	231.09
403.95	231.30
404.33	231.49
404.71	231.63
405.08	231.90
405.46	231.97
405.83	232.20
406.21	232.40
406.58	232.70
406.96	232.96
407.33	233.26
407.70	233.51
408.08	234.03
408.45	234.36
408.83	234.72
409.20	235.09
409.58	235.40
409.95	235.77
410.33	236.20
410.70	236.61
411.08	237.07
411.45	237.58
411.82	237.97
412.20	238.59
412.57	239.24
412.95	239.69
413.32	240.37
413.69	240.97
414.07	241.73
414.44	242.28
414.82	242.95
415.19	243.88
415.56	244.68
415.94	245.39
416.31	246.50
416.68	247.42
417.06	248.47
417.43	249.53
417.81	250.74
418.18	251.95
418.55	253.13
418.93	254.53
419.30	255.88
419.67	257.41
420.04	258.92
420.42	260.46
420.79	262.34
421.16	264.09
421.54	265.95
421.91	267.80
422.28	269.88
422.66	272.13
423.03	274.13
423.40	276.18
423.77	278.43
424.15	280.57
424.52	282.81
424.89	285.30
425.26	287.79
425.64	290.06
426.01	292.48
426.38	295.19
426.75	297.93
427.13	300.73
427.50	303.63
427.87	306.50
428.24	309.60
428.61	312.39
428.99	315.54
429.36	318.86
429.73	322.09
430.10	325.22
430.47	328.31
430.85	331.61
431.22	335.28
431.59	339.10
431.96	342.62
432.33	346.70
432.70	350.43
433.08	354.84
433.45	358.99
433.82	363.19
434.19	367.80
434.56	372.00
434.93	376.15
435.30	380.17
435.68	384.74
436.05	389.19
436.42	393.55
436.79	397.59
437.16	401.84
437.53	406.17
437.90	410.49
438.27	414.95
438.64	419.53
439.01	423.59
439.38	427.07
439.75	430.48
440.13	434.25
440.50	438.04
440.87	440.79
441.24	443.82
441.61	447.27
441.98	449.46
442.35	452.35
442.72	455.27
443.09	458.30
443.46	459.81
443.83	460.55
444.20	461.23
444.57	462.40
444.94	462.86
445.31	463.63
445.68	464.39
446.05	464.40
446.42	463.58
446.79	462.84
447.16	462.06
447.53	461.64
447.90	459.85
448.27	457.93
448.64	455.51
449.01	453.66
449.37	450.41
449.74	447.50
450.11	443.91
450.48	439.96
450.85	435.76
451.22	432.39
451.59	429.20
451.96	426.06
452.33	422.00
452.70	418.28
453.07	413.50
453.43	408.84
453.80	404.41
454.17	400.16
454.54	396.06
454.91	391.75
455.28	387.37
455.65	383.56
456.02	379.80
456.38	376.46
456.75	372.33
457.12	368.82
457.49	365.20
457.86	361.79
458.23	358.86
458.59	355.68
458.96	352.31
459.33	349.33
459.70	346.42
460.07	343.98
460.43	341.14
460.80	338.65
461.17	336.26
461.54	333.91
461.91	331.71
462.27	329.43
462.64	327.45
463.01	325.32
463.38	323.07
463.74	320.77
464.11	318.91
464.48	317.36
464.85	315.47
465.21	314.16
465.58	312.74
465.95	310.94
466.32	309.49
466.68	308.08
467.05	306.66
467.42	305.31
467.78	303.73
468.15	302.37
468.52	301.25
468.88	299.80
469.25	298.57
469.62	297.63
469.98	296.53
470.35	295.47
470.72	294.50
471.08	293.52
471.45	292.69
471.82	291.81
472.18	290.82
472.55	290.24
472.92	289.38
473.28	288.57
473.65	287.80
474.02	287.01
474.38	286.46
474.75	285.94
475.11	285.39
475.48	284.97
475.85	284.60
476.21	284.35
476.58	284.07
476.94	283.79
477.31	283.41
477.67	283.13
478.04	282.81
478.41	282.72
478.77	282.75
479.14	282.48
479.50	282.28
479.87	282.23
480.23	282.20
480.60	282.15
480.96	282.16
481.33	282.55
481.69	282.74
482.06	282.88
482.42	283.08
482.79	283.23
483.15	283.56
483.52	283.90
483.88	284.22
484.25	284.71
484.61	285.15
484.98	285.62
485.34	286.36
485.71	287.21
486.07	287.92
486.44	288.40
486.80	289.26
487.17	290.15
487.53	291.14
487.90	292.34
488.26	293.59
488.62	294.96
488.99	296.11
489.35	297.52
489.72	299.12
490.08	300.74
490.44	302.40
490.81	304.25
491.17	306.19
491.54	308.16
491.90	310.38
492.26	312.72
492.63	315.16
492.99	317.67
493.36	320.26
493.72	323.00
494.08	325.96
494.45	329.11
494.81	332.58
495.17	336.10
495.54	339.66
495.90	343.45
496.26	347.40
496.63	351.50
496.99	355.82
497.35	360.28
497.72	365.01
498.08	370.12
498.44	375.40
498.80	380.87
499.17	386.57
499.53	392.40
499.89	398.47
500.26	404.74
500.62	411.32
500.98	418.44
501.34	425.80
501.71	433.31
502.07	441.00
502.43	448.93
502.79	457.11
503.16	465.77
503.52	474.77
503.88	484.04
504.24	493.79
504.60	503.81
504.97	514.02
505.33	524.67
505.69	535.93
506.05	547.28
506.41	558.78
506.78	570.83
507.14	583.17
507.50	596.00
507.86	609.62
508.22	623.36
508.59	637.04
508.95	651.34
509.31	666.10
509.67	681.63
510.03	697.13
510.39	713.02
510.75	729.17
511.12	745.84
511.48	762.85
511.84	780.12
512.20	797.56
512.56	815.83
512.92	834.28
513.28	852.89
513.64	872.11
514.00	891.66
514.37	911.67
514.73	931.61
515.09	951.63
515.45	971.95
515.81	992.68
516.17	1014.13
516.53	1035.94
516.89	1057.72
517.25	1079.55
517.61	1101.92
517.97	1124.09
518.33	1146.48
518.69	1169.14
519.05	1192.46
519.41	1215.91
519.77	1240.00
520.13	1264.30
520.49	1288.15
520.85	1312.26
521.21	1336.11
521.57	1360.94
521.93	1385.14
522.29	1410.60
522.65	1435.56
523.01	1460.25
523.37	1485.00
523.73	1509.81
524.09	1534.41
524.45	1559.80
524.81	1585.40
525.17	1611.26
525.53	1637.63
525.89	1663.45
526.25	1689.53
526.61	1714.65
526.97	1740.59
527.33	1766.34
527.68	1792.11
528.04	1817.77
528.40	1843.69
528.76	1870.80
529.12	1897.17
529.48	1923.80
529.84	1948.92
530.20	1975.46
530.56	2002.61
530.91	2029.60
531.27	2056.29
531.63	2082.31
531.99	2108.29
532.35	2133.27
532.71	2157.72
533.07	2183.20
533.42	2208.34
533.78	2233.15
534.14	2258.45
534.50	2282.47
534.86	2306.97
535.21	2330.46
535.57	2355.60
535.93	2379.74
536.29	2402.50
536.65	2425.82
537.00	2448.13
537.36	2471.96
537.72	2494.27
538.08	2515.80
538.44	2537.16
538.79	2558.81
539.15	2580.35
539.51	2601.98
539.87	2624.26
540.22	2645.86
540.58	2667.38
540.94	2688.34
541.29	2708.66
541.65	2728.75
542.01	2750.02
542.37	2770.01
542.72	2789.55
543.08	2807.92
543.44	2827.09
543.79	2844.64
544.15	2862.32
544.51	2881.62
544.87	2899.52
545.22	2916.88
545.58	2934.33
545.94	2950.17
546.29	2966.24
546.65	2982.23
547.01	2997.18
547.36	3011.80
547.72	3026.21
548.07	3039.61
548.43	3052.95
548.79	3066.52
549.14	3079.26
549.50	3090.59
549.86	3102.53
550.21	3114.68
550.57	3127.16
550.92	3138.63
551.28	3150.49
551.64	3161.59
551.99	3171.74
552.35	3181.57
552.70	3191.90
553.06	3202.21
553.41	3213.38
553.77	3223.01
554.13	3232.56
554.48	3242.40
554.84	3251.54
555.19	3260.51
555.55	3269.16
555.90	3277.36
556.26	3285.48
556.61	3293.63
556.97	3301.35
557.32	3309.00
557.68	3316.30
558.03	3323.33
558.39	3329.27
558.74	3337.46
559.10	3344.30
559.45	3351.00
559.81	3358.52
560.16	3364.19
560.52	3369.71
560.87	3375.38
561.23	3379.83
561.58	3385.19
561.94	3389.64
562.29	3393.16
562.64	3397.09
563.00	3400.75
563.35	3406.20
563.71	3411.39
564.06	3416.19
564.42	3420.48
564.77	3424.47
565.12	3429.16
565.48	3432.51
565.83	3435.59
566.19	3437.24
566.54	3439.05
566.89	3440.60
567.25	3441.38
567.60	3443.95
567.96	3444.86
568.31	3445.67
568.66	3447.47
569.02	3447.68
569.37	3447.56
569.72	3448.50
570.08	3449.02
570.43	3449.52
570.78	3448.08
571.14	3445.65
571.49	3443.75
571.84	3443.17
572.20	3440.38
572.55	3436.60
572.90	3433.18
573.26	3431.20
573.61	3428.57
573.96	3425.37
574.31	3420.25
574.67	3414.84
575.02	3409.38
575.37	3405.35
575.72	3399.55
576.08	3394.74
576.43	3389.17
576.78	3384.50
577.13	3379.53
577.49	3374.37
577.84	3368.10
578.19	3362.40
578.54	3356.17
578.90	3349.33
579.25	3340.56
579.60	3333.31
579.95	3325.99
580.30	3318.22
580.66	3309.71
581.01	3301.06
581.36	3293.60
581.71	3287.71
582.06	3280.82
582.42	3272.89
582.77	3264.23
583.12	3256.47
583.47	3247.96
583.82	3240.88
584.17	3231.88
584.53	3223.42
584.88	3215.01
585.23	3206.47
585.58	3197.84
585.93	3189.40
586.28	3181.60
586.63	3173.81
586.98	3166.22
587.34	3158.42
587.69	3150.96
588.04	3143.30
588.39	3135.77
588.74	3125.23
589.09	3114.92
589.44	3104.88
589.79	3096.35
590.14	3087.83
590.49	3079.00
590.84	3069.77
591.19	3060.02
591.54	3049.61
591.89	3037.61
592.25	3026.87
592.60	3015.15
592.95	3003.97
593.30	2992.48
593.65	2980.95
594.00	2970.06
594.35	2959.31
594.70	2947.30
595.05	2936.19
595.40	2923.96
595.75	2911.67
596.10	2902.04
596.45	2892.22
596.80	2883.10
597.15	2872.44
597.50	2861.34
597.85	2850.50
598.19	2840.25
598.54	2830.11
598.89	2820.53
599.24	2811.86
599.59	2802.05
599.94	2793.13
600.29	2782.73
600.64	2772.91
600.99	2761.70
601.34	2751.78
601.69	2740.66
602.04	2730.54
602.39	2719.90
602.74	2710.44
603.08	2701.11
603.43	2691.42
603.78	2680.85
604.13	2669.44
604.48	2658.73
604.83	2648.18
605.18	2637.68
605.53	2625.93
605.87	2612.98
606.22	2602.29
606.57	2590.09
606.92	2578.20
607.27	2567.36
607.62	2557.25
607.96	2546.77
608.31	2536.37
608.66	2524.28
609.01	2512.40
609.36	2500.16
609.70	2486.63
610.05	2473.50
610.40	2461.01
610.75	2447.69
611.10	2434.83
611.44	2421.58
611.79	2409.43
612.14	2396.51
612.49	2382.65
612.83	2369.34
613.18	2356.83
613.53	2343.53
613.88	2330.62
614.22	2318.07
614.57	2304.08
614.92	2290.92
615.27	2278.40
615.61	2265.56
615.96	2252.76
616.31	2241.08
616.65	2230.31
617.00	2219.91
617.35	2208.57
617.70	2196.04
618.04	2183.87
618.39	2171.50
618.74	2160.33
619.08	2147.60
619.43	2135.70
619.78	2124.79
620.12	2113.51
620.47	2102.08
620.82	2090.22
621.16	2079.17
621.51	2067.30
621.85	2056.12
622.20	2043.52
622.55	2031.25
622.89	2019.84
623.24	2009.03
623.59	1997.72
623.93	1985.69
624.28	1973.88
624.62	1961.74
624.97	1950.94
625.32	1940.29
625.66	1930.19
626.01	1918.85
626.35	1907.59
626.70	1896.61
627.04	1885.29
627.39	1873.79
627.73	1862.76
628.08	1851.77
628.43	1840.49
628.77	1829.45
629.12	1817.67
629.46	1806.83
629.81	1794.95
630.15	1783.05
630.50	1771.15
630.84	1758.85
631.19	1746.74
631.53	1734.77
631.88	1723.41
632.22	1710.99
632.57	1699.23
632.91	1687.08
633.26	1675.46
633.60	1663.82
633.95	1652.30
634.29	1641.30
634.64	1630.96
634.98	1619.79
635.32	1609.24
635.67	1598.93
636.01	1588.70
636.36	1578.37
636.70	1568.43
637.05	1558.77
637.39	1549.66
637.73	1539.91
638.08	1530.85
638.42	1521.66
638.77	1512.21
639.11	1502.49
639.45	1493.02
639.80	1483.37
640.14	1473.79
640.49	1464.38
640.83	1454.95
641.17	1445.27
641.52	1434.97
641.86	1424.71
642.20	1415.57
642.55	1405.63
642.89	1395.98
643.23	1385.52
643.58	1376.70
643.92	1366.29
644.26	1356.60
644.61	1346.95
644.95	1337.82
645.29	1327.26
645.64	1317.04
645.98	1307.50
646.32	1298.17
646.66	1288.96
647.01	1279.57
647.35	1270.13
647.69	1260.53
648.04	1251.70
648.38	1242.43
648.72	1233.02
649.06	1223.60
649.41	1214.23
649.75	1204.44
650.09	1194.64
650.43	1185.64
650.78	1175.75
651.12	1166.79
651.46	1157.76
651.80	1148.41
652.14	1139.19
652.49	1130.54
652.83	1122.07
653.17	1112.81
653.51	1103.58
653.85	1094.57
654.20	1085.30
654.54	1076.10
654.88	1067.30
655.22	1057.65
655.56	1048.44
655.90	1040.29
656.25	1031.98
656.59	1023.30
656.93	1015.33
657.27	1007.37
657.61	998.72
657.95	990.72
658.29	982.85
658.64	974.56
658.98	966.22
659.32	957.83
659.66	949.78
660.00	941.75
660.34	934.12
660.68	926.68
661.02	918.88
661.36	911.72
661.70	904.57
662.05	897.60
662.39	890.95
662.73	884.01
663.07	877.22
663.41	870.47
663.75	863.70
664.09	856.66
664.43	849.56
664.77	843.08
665.11	836.44
665.45	829.70
665.79	823.34
666.13	816.81
666.47	810.46
666.81	803.81
667.15	797.22
667.49	790.67
667.83	784.69
668.17	778.45
668.51	772.10
668.85	766.10
669.19	759.98
669.53	753.96
669.87	747.85
670.21	741.74
670.55	735.90
670.89	730.49
671.23	725.42
671.57	720.22
671.91	715.07
672.25	709.50
672.58	704.18
672.92	698.96
673.26	694.11
673.60	689.03
673.94	684.35
674.28	679.81
674.62	675.36
674.96	670.42
675.30	666.04
675.64	661.34
675.97	656.60
676.31	651.94
676.65	647.37
676.99	643.32
677.33	638.68
677.67	634.20
678.01	629.39
678.34	624.74
678.68	620.30
679.02	615.85
679.36	611.76
679.70	607.70
680.04	603.30
680.37	598.83
680.71	594.75
681.05	591.02
681.39	586.99
681.73	583.05
682.06	579.15
682.40	575.29
682.74	571.49
683.08	567.76
683.42	564.00
683.75	560.15
684.09	556.26
684.43	552.68
684.77	549.13
685.10	545.47
685.44	541.82
685.78	538.21
686.12	534.66
686.45	531.00
686.79	527.46
687.13	524.23
687.46	520.87
687.80	517.40
688.14	513.60
688.48	510.31
688.81	506.88
689.15	503.71
689.49	500.38
689.82	497.16
690.16	493.75
690.50	490.74
690.83	487.74
691.17	484.69
691.51	481.73
691.84	478.87
692.18	476.01
692.52	473.04
692.85	470.15
693.19	467.16
693.52	464.45
693.86	461.61
694.20	458.77
694.53	456.05
694.87	453.32
695.21	450.56
695.54	447.56
695.88	444.74
696.21	441.91
696.55	439.20
696.88	436.55
697.22	434.20
697.56	431.48
697.89	428.95
698.23	426.39
698.56	423.98
698.90	421.23
699.23	418.64
699.57	416.15
699.90	413.69
700.24	411.40
700.58	408.86
700.91	406.69
701.25	404.49
701.58	402.30
701.92	400.19
702.25	398.05
702.59	395.98
702.92	393.95
703.26	391.87
703.59	389.72
703.93	387.92
704.26	385.85
704.60	383.94
704.93	381.96
705.26	380.03
705.60	378.08
705.93	376.37
706.27	374.71
706.60	373.08
706.94	371.48
707.27	369.53
707.61	367.99
707.94	366.16
708.27	364.32
708.61	362.59
708.94	360.97
709.28	359.48
709.61	358.12
709.94	356.62
710.28	355.14
710.61	353.73
710.95	351.95
711.28	350.51
711.61	349.04
711.95	347.58
712.28	346.16
712.61	344.64
712.95	343.21
713.28	341.80
713.61	340.20
713.95	338.73
714.28	337.60
714.61	336.19
714.95	334.90
715.28	333.60
715.61	332.26
715.95	330.86
716.28	329.60
716.61	328.37
716.95	327.16
717.28	325.95
717.61	324.80
717.94	323.74
718.28	322.45
718.61	321.20
718.94	320.08
719.27	319.04
719.61	318.02
719.94	316.82
720.27	315.75
720.60	314.88
720.94	313.96
721.27	312.91
721.60	311.93
721.93	311.10
722.27	310.32
722.60	309.35
722.93	308.45
723.26	307.49
723.59	306.45
723.93	305.52
724.26	304.63
724.59	303.70
724.92	302.79
725.25	302.04
725.59	301.33
725.92	300.42
726.25	299.50
726.58	298.71
726.91	297.98
727.24	297.19
727.57	296.41
727.91	295.54
728.24	294.82
728.57	294.18
728.90	293.35
729.23	292.40
729.56	291.74
729.89	291.09
730.22	290.34
730.55	289.70
730.89	289.18
731.22	288.50
731.55	287.99
731.88	287.34
732.21	286.66
732.54	285.98
732.87	285.50
733.20	285.00
733.53	284.36
733.86	283.87
734.19	283.12
734.52	282.59
734.85	282.19
735.18	281.59
735.51	280.97
735.84	280.45
736.17	279.99
736.50	279.41
736.83	279.12
737.16	278.58
737.49	277.90
737.82	277.23
738.15	276.57
738.48	275.87
738.81	275.36
739.14	274.76
739.47	274.25
739.80	273.65
740.13	273.05
740.46	272.55
740.79	272.03
741.12	271.77
741.45	271.14
741.78	270.44
742.11	269.97
742.44	269.37
742.77	268.68
743.10	268.10
743.43	267.56
743.75	266.79
744.08	266.52
744.41	266.14
744.74	265.71
745.07	265.39
745.40	265.05
745.73	264.61
746.06	264.23
746.39	263.70
746.71	263.26
747.04	262.74
747.37	262.33
747.70	261.90
748.03	261.25
748.36	260.93
748.68	260.51
749.01	260.07
749.34	259.67
749.67	259.40
750.00	259.02
750.33	258.82
750.65	258.45
750.98	257.87
751.31	257.46
751.64	257.12
751.97	256.80
752.29	256.42
752.62	256.00
752.95	255.65
753.28	255.36
753.60	255.01
753.93	254.68
754.26	254.29
754.59	253.84
754.91	253.60
755.24	253.41
755.57	253.19
755.90	252.85
756.22	252.59
756.55	252.24
756.88	252.02
757.20	251.59
757.53	251.23
757.86	251.04
758.19	250.77
758.51	250.49
758.84	250.17
759.17	249.96
759.49	249.80
759.82	249.64
760.15	249.45
760.47	249.25
760.80	249.08
761.13	248.93
761.45	248.71
761.78	248.38
762.11	248.07
762.43	247.75
762.76	247.58
763.08	247.43
763.41	247.26
763.74	247.04
764.06	246.80
764.39	246.64
764.71	246.40
765.04	246.20
765.37	245.95
765.69	245.74
766.02	245.50
766.34	245.17
766.67	244.97
767.00	244.87
767.32	244.74
767.65	244.72
767.97	244.49
768.30	244.40
768.62	244.33
768.95	244.11
769.27	244.02
769.60	243.80
769.92	243.57
770.25	243.45
770.57	243.24
770.90	243.12
771.22	242.96
771.55	242.77
771.87	242.65
772.20	242.50
772.52	242.45
772.85	242.52
773.17	242.45
773.50	242.27
773.82	241.99
774.15	241.73
774.47	241.41
774.80	241.34
775.12	241.08
775.45	240.93
775.77	240.77
776.09	240.60
776.42	240.50
776.74	240.45
777.07	240.35
777.39	240.22
777.72	240.02
778.04	239.96
778.36	239.93
778.69	239.90
779.01	239.76
779.33	239.50
779.66	239.16
779.98	239.05
780.31	238.85
780.63	238.88
780.95	238.86
781.28	238.78
781.60	238.60
781.92	238.50
782.25	238.37
782.57	238.28
782.89	238.22
783.22	238.09
783.54	237.94
783.86	237.89
784.19	237.65
784.51	237.63
784.83	237.40
785.16	237.20
785.48	236.95
785.80	236.90
786.12	236.96
786.45	236.81
786.77	236.63
787.09	236.54
787.42	236.38
787.74	236.33
788.06	236.17
788.38	236.10
788.71	236.01
789.03	235.95
789.35	235.86
789.67	235.62
789.99	235.53
790.32	235.32
790.64	235.08
790.96	235.30
791.28	235.17
791.61	235.16
791.93	235.07
792.25	235.08
792.57	235.10
792.89	234.87
793.21	234.78
793.54	234.83
793.86	234.75
794.18	234.70
794.50	234.54
794.82	234.52
795.14	234.40
795.47	234.44
795.79	234.40
796.11	234.35
796.43	234.32
796.75	234.29
797.07	234.35
797.39	234.21
797.71	234.01
798.04	233.95
798.36	233.86
798.68	233.81
799.00	233.71
799.32	233.53
799.64	233.59
799.96	233.55
800.28	233.43
800.60	233.42
800.92	233.36
801.24	233.36
801.56	233.33
801.89	233.39
802.21	233.33
802.53	233.27
802.85	233.21
803.17	233.40
803.49	233.34
803.81	233.23
804.13	233.31
804.45	233.23
804.77	233.27
805.09	233.27
805.41	233.19
805.73	233.23
806.05	233.10
806.37	232.97
806.69	232.99
807.01	232.90
807.33	232.96
807.65	232.89
807.97	232.90
808.28	232.92
808.60	232.87
808.92	232.84
809.24	232.97
809.56	233.00
809.88	232.85
810.20	232.84
810.52	232.89
810.84	232.90
811.16	232.87
811.48	232.89
811.80	232.86
812.12	232.87
812.43	232.82
812.75	232.96
813.07	232.98
813.39	232.93
813.71	233.00
814.03	232.84
814.35	232.79
814.67	232.69
814.98	232.63
815.30	232.56
815.62	232.48
815.94	232.31
816.26	232.36
816.58	232.35
816.89	232.28
817.21	232.24
817.53	232.20
817.85	232.16
818.17	231.99
818.48	232.00
818.80	232.00
819.12	231.92
819.44	231.77
819.76	231.62
820.07	231.56
820.39	231.47
820.71	231.44
821.03	231.42
821.34	231.38
821.66	231.24
821.98	231.28
822.30	231.19
822.61	231.26
822.93	231.10
823.25	231.00
823.57	231.00
823.88	231.11
824.20	231.08
824.52	231.15
824.83	231.17
825.15	231.07
825.47	231.14
825.79	231.21
826.10	231.26
826.42	231.28
826.74	231.31
827.05	231.32
827.37	231.32
827.69	231.33
828.00	231.28
828.32	231.29
828.64	231.16
828.95	231.20
829.27	231.06
829.58	230.94
829.90	230.90
830.22	230.90
830.53	230.71
830.85	230.66
831.17	230.48
831.48	230.40
831.80	230.40
832.11	230.33
832.43	230.12
832.75	230.13
833.06	230.16
833.38	230.07
833.69	229.92
834.01	229.92
834.32	229.82
834.64	229.73
834.96	229.71
835.27	229.70
835.59	229.65
835.90	229.60
836.22	229.59
836.53	229.60
836.85	229.52
837.16	229.66
837.48	229.62
837.79	229.77
838.11	229.69
838.42	229.69
838.74	229.54
839.05	229.65
839.37	229.50
839.68	229.40
840.00	229.33
840.31	229.32
840.63	229.23
840.94	229.20
841.26	229.23
841.57	229.19
841.88	229.23
842.20	229.32
842.51	229.36
842.83	229.40
843.14	229.50
843.46	229.50
843.77	229.34
844.08	229.36
844.40	229.25
844.71	229.33
845.03	229.33
845.34	229.44
845.65	229.37
845.97	229.35
846.28	229.45
846.60	229.53
846.91	229.59
847.22	229.62
847.54	229.74
847.85	229.74
848.16	229.90
848.48	229.80
848.79	229.83
849.10	229.84
849.42	229.79
849.73	229.71
850.04	229.76
850.36	229.70
850.67	229.71
850.98	229.70
851.30	229.77
851.61	229.77
851.92	229.74
852.23	229.77
852.55	229.85
852.86	229.83
853.17	229.87
853.49	229.92
853.80	230.05
854.11	230.00
854.42	230.13
854.74	230.03
855.05	230.07
855.36	229.95
855.67	230.00
855.99	230.10
856.30	230.29
856.61	230.26
856.92	230.29
857.23	230.26
857.55	230.14
857.86	230.15
858.17	230.02
858.48	229.98
858.79	229.95
859.11	229.94
859.42	230.01
859.73	229.96
860.04	229.89
860.35	229.75
860.66	229.70
860.98	229.60
861.29	229.64
861.60	229.64
861.91	229.77
862.22	229.76
862.53	229.62
862.84	229.33
863.16	229.33
863.47	229.34
863.78	229.40
864.09	229.50
864.40	229.42
864.71	229.59
865.02	229.61
865.33	229.62
865.64	229.54
865.95	229.45
866.27	229.56
866.58	229.58
866.89	229.61
867.20	229.59
867.51	229.57
867.82	229.51
868.13	229.56
868.44	229.42
868.75	229.43
869.06	229.41
869.37	229.41
869.68	229.49
869.99	229.46
870.30	229.45
870.61	229.49
870.92	229.55
871.23	229.45
871.54	229.50
871.85	229.40
872.16	229.49
872.47	229.46
872.78	229.40
873.09	229.45
873.40	229.40
873.71	229.40
874.02	229.31
874.33	229.25
874.64	229.22
874.95	229.25
875.26	229.03
875.56	229.22
875.87	229.16
876.18	229.04
876.49	229.31
876.80	229.16
877.11	229.12
877.42	229.04
877.73	229.09
878.04	228.97
878.35	229.05
878.66	229.03
878.96	229.03
879.27	228.95
879.58	228.84
879.89	228.86
880.20	228.94
880.51	228.95
880.82	228.96
881.12	228.95
881.43	228.89
881.74	229.03
882.05	228.96
882.36	229.08
882.67	229.02
882.97	228.75
883.28	228.84
883.59	228.85
883.90	228.87
884.21	228.78
884.51	228.74
884.82	228.71
885.13	228.71
885.44	228.72
885.74	228.77
886.05	228.91
886.36	228.84
886.67	228.79
886.98	228.95
887.28	228.89
887.59	228.85
887.90	228.80
888.20	228.71
888.51	228.77
888.82	228.77
889.13	228.92
889.43	229.04
889.74	228.97
890.05	228.91
890.35	228.85
890.66	228.87
890.97	228.98
891.28	229.06
891.58	229.03
891.89	229.00
892.20	228.96
892.50	228.89
892.81	229.01
893.12	229.01
893.42	228.91
893.73	229.03
894.04	229.09
894.34	229.16
894.65	229.25
894.95	229.15
895.26	229.09
895.57	229.07
895.87	228.97
896.18	229.06
896.48	229.03
896.79	229.03
897.10	228.99
897.40	228.90
897.71	228.83
898.01	228.80
898.32	228.83
898.63	228.90
898.93	228.81
899.24	228.70
899.54	228.58
899.85	228.55
900.15	228.55
900.46	228.40
900.76	228.53
901.07	228.38
901.38	228.38
901.68	228.28
901.99	228.21
902.29	228.18
902.60	228.15
902.90	228.14
903.21	228.17
903.51	228.12
903.82	228.25
904.12	228.30
904.43	228.25
904.73	228.22
905.03	228.10
905.34	228.42
905.64	228.47
905.95	228.61
906.25	228.60
906.56	228.60
906.86	228.75
907.17	228.55
907.47	228.73
907.77	228.71
908.08	228.89
908.38	228.90
908.69	228.96
908.99	229.03
909.30	229.07
909.60	229.03
909.90	229.19
910.21	229.07
910.51	229.02
910.81	229.04
911.12	229.10
911.42	229.14
911.73	228.92
912.03	228.94
912.33	228.93
912.64	228.97
912.94	229.02
913.24	229.00
913.55	229.10
913.85	228.97
914.15	229.11
914.46	229.10
914.76	229.07
915.06	229.12
915.37	229.04
915.67	229.02
915.97	229.02
916.27	228.97
916.58	229.00
916.88	229.00
917.18	229.07
917.49	229.14
917.79	229.20
918.09	229.19
918.39	229.22
918.70	229.22
919.00	229.22
919.30	229.21
919.60	229.15
919.91	229.11
920.21	229.19
920.51	229.11
920.81	229.10
921.12	229.14
921.42	229.08
921.72	229.05
922.02	229.10
922.32	229.23
922.63	229.26
922.93	229.44
923.23	229.39
923.53	229.34
923.83	229.28
924.13	229.24
924.44	229.20
924.74	229.22
925.04	229.27
925.34	229.25
925.64	229.16
925.94	229.18
926.24	229.30
926.55	229.28
926.85	229.17
927.15	229.14
927.45	229.16
927.75	229.12
928.05	229.16
928.35	229.24
928.65	229.21
928.95	229.15
929.26	228.99
929.56	229.06
929.86	229.16
930.16	229.10
930.46	229.13
930.76	229.16
931.06	229.05
931.36	229.01
931.66	229.05
931.96	229.04
932.26	229.16
932.56	229.00
932.86	228.94
933.16	229.08
933.46	228.99
933.76	228.98
934.06	229.02
934.36	229.08
934.66	229.08
934.96	228.99
935.26	229.00
935.56	229.05
935.86	229.00
936.16	228.93
936.46	228.89
936.76	228.74
937.06	228.66
937.36	228.67
937.66	228.70
937.96	228.65
938.26	228.62
938.56	228.49
938.86	228.54
939.16	228.61
939.46	228.50
939.76	228.52
940.06	228.45
940.35	228.35
940.65	228.30
940.95	228.24
941.25	228.17
941.55	228.01
941.85	228.01
942.15	228.16
942.45	228.17
942.75	228.18
943.04	228.22
943.34	228.34
943.64	228.33
943.94	228.30
944.24	228.28
944.54	228.39
944.84	228.39
945.13	228.34
945.43	228.20
945.73	228.20
946.03	228.19
946.33	228.20
946.62	228.24
946.92	228.18
947.22	228.10
947.52	228.20
947.82	228.34
948.11	228.27
948.41	228.17
948.71	228.19
949.01	228.24
949.31	228.30
949.60	228.30
949.90	228.40
950.20	228.39
950.50	228.41
950.79	228.29
951.09	228.37
951.39	228.41
951.69	228.49
951.98	228.51
952.28	228.61
952.58	228.54
952.87	228.44
953.17	228.41
953.47	228.45
953.76	228.46
954.06	228.54
954.36	228.55
954.66	228.45
954.95	228.43
955.25	228.40
955.55	228.33
955.84	228.19
956.14	228.10
956.44	228.09
956.73	228.00
957.03	228.03
957.32	227.94
957.62	227.88
957.92	227.86
958.21	227.86
958.51	228.10
958.81	228.16
959.10	228.24
959.40	228.39
959.69	228.44
959.99	228.50
960.29	228.39
960.58	228.41
960.88	228.40
961.17	228.34
961.47	228.30
961.76	228.27
962.06	228.32
962.36	228.31
962.65	228.27
962.95	228.29
963.24	228.38
963.54	228.39
963.83	228.38
964.13	228.44
964.42	228.36
964.72	228.09
965.01	228.13
965.31	228.25
965.60	228.15
965.90	228.21
966.19	228.11
966.49	228.19
966.78	228.20
967.08	228.29
967.37	228.40
967.67	228.42
967.96	228.54
968.26	228.60
968.55	228.61
968.85	228.61
969.14	228.69
969.43	228.55
969.73	228.55
970.02	228.57
970.32	228.60
970.61	228.75
970.91	228.71
971.20	228.65
971.49	228.59
971.79	228.68
972.08	228.57
972.38	228.65
972.67	228.60
972.96	228.63
973.26	228.63
973.55	228.53
973.85	228.53
974.14	228.55
974.43	228.62
974.73	228.60
975.02	228.60
975.31	228.59
975.61	228.58
975.90	228.60
976.19	228.60
976.49	228.56
976.78	228.51
977.07	228.61
977.37	228.71
977.66	228.69
977.95	228.54
978.24	228.60
978.54	228.59
978.83	228.56
979.12	228.49
979.42	228.55
979.71	228.63
980.00	228.56
980.29	228.44
980.59	228.28
980.88	228.30
981.17	228.32
981.46	228.31
981.76	228.37
982.05	228.34
982.34	228.31
982.63	228.32
982.93	228.28
983.22	228.26
983.51	228.13
983.80	228.15
984.09	228.27
984.39	228.15
984.68	228.08
984.97	228.17
985.26	228.13
985.55	228.14
985.85	228.09
986.14	228.13
986.43	228.27
986.72	228.33
987.01	228.31
987.30	228.27
987.59	228.23
987.89	228.30
988.18	228.34
988.47	228.33
988.76	228.20
989.05	228.24
989.34	228.20
989.63	228.34
989.92	228.32
990.22	228.24
990.51	228.30
990.80	228.31
991.09	228.24
991.38	228.30
991.67	228.28
991.96	228.20
992.25	228.29
992.54	228.26
992.83	228.21
993.12	228.28
993.41	228.30
993.70	228.39
993.99	228.36
994.28	228.33
994.58	228.37
994.87	228.54
995.16	228.42
995.45	228.41
995.74	228.34
996.03	228.28
996.32	228.36
996.61	228.32
996.90	228.30
997.19	228.31
997.48	228.24
997.77	228.16
998.06	228.23
998.34	228.18
998.63	228.08
998.92	228.08
999.21	228.07
999.50	228.11
999.79	227.99
1000.08	227.96
1000.37	228.05
1000.66	228.09
1000.95	228.08
1001.24	228.19
1001.53	228.24
1001.82	228.22
1002.11	228.28
1002.40	228.35
1002.68	228.45
1002.97	228.51
1003.26	228.36
1003.55	228.35
1003.84	228.38
1004.13	228.40
1004.42	228.34
1004.71	228.32
1004.99	228.34
1005.28	228.43
1005.57	228.39
1005.86	228.43
1006.15	228.40
1006.44	228.40
1006.72	228.39
1007.01	228.30
1007.30	228.21
1007.59	228.11
1007.88	228.08
1008.17	227.99
1008.45	227.87
1008.74	227.83
1009.03	227.88
1009.32	227.91
1009.60	227.99
1009.89	228.02
1010.18	227.92
1010.47	227.98
1010.76	227.92
1011.04	227.86
1011.33	227.77
1011.62	227.73
1011.91	227.73
1012.19	227.75
1012.48	227.64
1012.77	227.59
1013.05	227.74
1013.34	227.75
1013.63	227.81
1013.92	227.80
1014.20	227.83
1014.49	227.77
1014.78	227.71
1015.06	227.56
1015.35	227.66
1015.64	227.62
1015.92	227.51
1016.21	227.49
1016.50	227.40
1016.78	227.55
1017.07	227.48
1017.36	227.44
1017.64	227.45
1017.93	227.51
1018.22	227.45
1018.50	227.40
1018.79	227.38
1019.08	227.22
1019.36	227.18
1019.65	227.18
1019.93	227.20
1020.22	227.17
1020.51	227.26
1020.79	227.15
1021.08	226.30
1021.36	226.80
1021.65	227.00
1021.94	227.20
1022.22	226.10
1022.51	228.00
1022.79	228.00
1023.08	227.30
1023.36	228.80
1023.65	225.10
>>>>>End Processed Spectral Data<<<<<
