SpectraSuite Data File
++++++++++++++++++++++++++++++++++++
Date: Fri Feb 01 14:34:46 EST 2013
User: group
Dark Spectrum Present: No
Reference Spectrum Present: No
Number of Sampled Component Spectra: 1
Spectrometers: USB2E7196
Integration Time (usec): 70000 (USB2E7196)
Spectra Averaged: 10 (USB2E7196)
Boxcar Smoothing: 10 (USB2E7196)
Correct for Electrical Dark: No (USB2E7196)
Strobe/Lamp Enabled: No (USB2E7196)
Correct for Detector Non-linearity: No (USB2E7196)
Correct for Stray Light: No (USB2E7196)
Number of Pixels in Processed Spectrum: 2048
>>>>>Begin Processed Spectral Data<<<<<
339.09	0.00
339.48	214.60
339.86	218.30
340.24	218.00
340.63	220.20
341.01	223.60
341.39	222.10
341.78	223.00
342.16	224.10
342.54	224.10
342.93	214.19
343.31	225.02
343.69	225.59
344.07	226.05
344.46	226.56
344.84	226.96
345.22	227.18
345.60	227.45
345.99	227.72
346.37	227.86
346.75	228.11
347.13	228.17
347.52	228.23
347.90	228.35
348.28	228.40
348.66	228.47
349.05	228.39
349.43	228.45
349.81	228.57
350.19	228.67
350.57	228.79
350.96	228.77
351.34	228.84
351.72	229.04
352.10	229.14
352.48	229.24
352.87	229.35
353.25	229.47
353.63	229.52
354.01	229.54
354.39	229.70
354.77	229.70
355.15	229.77
355.54	229.84
355.92	229.84
356.30	229.97
356.68	230.08
357.06	230.18
357.44	230.16
357.82	230.16
358.20	230.17
358.58	230.24
358.97	230.28
359.35	230.35
359.73	230.33
360.11	230.36
360.49	230.32
360.87	230.32
361.25	230.37
361.63	230.48
362.01	230.49
362.39	230.45
362.77	230.57
363.15	230.69
363.53	230.72
363.91	230.75
364.29	230.70
364.67	230.58
365.05	230.67
365.43	230.73
365.81	230.80
366.19	230.87
366.57	230.87
366.95	230.83
367.33	230.75
367.71	230.81
368.09	230.83
368.47	230.80
368.85	230.68
369.23	230.71
369.61	230.58
369.99	230.68
370.37	230.67
370.75	230.54
371.13	230.41
371.51	230.22
371.89	230.23
372.27	230.12
372.65	230.06
373.03	229.94
373.41	229.90
373.78	229.87
374.16	229.74
374.54	229.60
374.92	229.58
375.30	229.58
375.68	229.36
376.06	229.29
376.44	229.20
376.82	229.21
377.19	229.03
377.57	228.97
377.95	228.75
378.33	228.63
378.71	228.62
379.09	228.56
379.47	228.66
379.84	228.54
380.22	228.48
380.60	228.36
380.98	228.30
381.36	228.28
381.73	228.07
382.11	228.00
382.49	227.92
382.87	227.79
383.25	227.69
383.62	228.00
384.00	227.88
384.38	227.90
384.76	227.80
385.13	227.82
385.51	227.78
385.89	227.73
386.27	227.79
386.64	227.69
387.02	227.60
387.40	227.54
387.78	227.54
388.15	227.58
388.53	227.50
388.91	227.52
389.29	227.43
389.66	227.47
390.04	227.38
390.42	227.48
390.79	227.55
391.17	227.55
391.55	227.29
391.92	227.32
392.30	227.32
392.68	227.35
393.05	227.35
393.43	227.42
393.81	227.51
394.18	227.42
394.56	227.46
394.94	227.60
395.31	227.64
395.69	227.74
396.06	227.80
396.44	228.02
396.82	227.96
397.19	228.12
397.57	228.22
397.95	228.36
398.32	228.29
398.70	228.34
399.07	228.53
399.45	228.63
399.82	228.83
400.20	228.96
400.58	229.13
400.95	229.29
401.33	229.56
401.70	229.92
402.08	230.19
402.45	230.46
402.83	230.73
403.20	230.86
403.58	231.09
403.95	231.38
404.33	231.66
404.71	231.99
405.08	232.39
405.46	232.72
405.83	233.08
406.21	233.46
406.58	233.89
406.96	234.20
407.33	234.65
407.70	235.01
408.08	235.56
408.45	236.09
408.83	236.65
409.20	237.05
409.58	237.50
409.95	238.15
410.33	238.81
410.70	239.45
411.08	240.31
411.45	241.09
411.82	241.82
412.20	242.66
412.57	243.69
412.95	244.57
413.32	245.54
413.69	246.69
414.07	247.91
414.44	249.23
414.82	250.63
415.19	252.18
415.56	253.80
415.94	255.55
416.31	257.40
416.68	259.17
417.06	261.34
417.43	263.26
417.81	265.56
418.18	267.84
418.55	270.43
418.93	273.05
419.30	275.83
419.67	278.72
420.04	281.75
420.42	284.92
420.79	288.41
421.16	292.03
421.54	295.80
421.91	299.60
422.28	303.59
422.66	307.85
423.03	311.83
423.40	316.04
423.77	320.72
424.15	325.38
424.52	330.14
424.89	335.50
425.26	340.67
425.64	345.50
426.01	350.86
426.38	356.30
426.75	361.70
427.13	367.37
427.50	373.54
427.87	380.01
428.24	386.34
428.61	392.46
428.99	399.09
429.36	406.31
429.73	413.59
430.10	420.57
430.47	427.69
430.85	435.31
431.22	443.18
431.59	451.34
431.96	459.22
432.33	468.04
432.70	476.47
433.08	486.33
433.45	495.67
433.82	505.14
434.19	515.44
434.56	525.93
434.93	535.76
435.30	545.45
435.68	556.09
436.05	566.62
436.42	577.11
436.79	586.76
437.16	597.12
437.53	607.87
437.90	618.58
438.27	629.27
438.64	640.27
439.01	650.50
439.38	659.62
439.75	668.45
440.13	678.49
440.50	687.95
440.87	696.17
441.24	704.55
441.61	713.55
441.98	720.44
442.35	728.46
442.72	736.72
443.09	744.58
443.46	749.59
443.83	753.14
444.20	756.58
444.57	761.20
444.94	763.73
445.31	766.67
445.68	769.39
446.05	771.25
446.42	771.52
446.79	771.60
447.16	771.68
447.53	772.21
447.90	769.70
448.27	767.20
448.64	762.67
449.01	759.87
449.37	753.95
449.74	748.20
450.11	741.00
450.48	733.10
450.85	725.19
451.22	718.55
451.59	712.26
451.96	706.06
452.33	697.31
452.70	689.75
453.07	680.07
453.43	670.63
453.80	661.20
454.17	652.06
454.54	643.42
454.91	633.88
455.28	624.70
455.65	616.07
456.02	606.90
456.38	599.60
456.75	590.36
457.12	582.55
457.49	574.73
457.86	567.10
458.23	560.66
458.59	553.34
458.96	545.86
459.33	539.38
459.70	532.73
460.07	527.43
460.43	521.17
460.80	515.34
461.17	509.99
461.54	504.46
461.91	499.20
462.27	494.08
462.64	489.47
463.01	484.28
463.38	479.50
463.74	474.93
464.11	470.58
464.48	466.75
464.85	462.67
465.21	459.55
465.58	456.26
465.95	451.97
466.32	448.53
466.68	445.27
467.05	441.82
467.42	438.46
467.78	434.99
468.15	431.67
468.52	429.22
468.88	426.00
469.25	423.21
469.62	420.95
469.98	418.26
470.35	415.88
470.72	413.67
471.08	411.32
471.45	409.45
471.82	407.46
472.18	405.14
472.55	403.47
472.92	401.63
473.28	399.81
473.65	398.24
474.02	396.58
474.38	395.10
474.75	393.99
475.11	392.76
475.48	391.63
475.85	390.67
476.21	389.78
476.58	388.92
476.94	388.31
477.31	387.63
477.67	386.91
478.04	386.30
478.41	385.93
478.77	385.71
479.14	384.99
479.50	384.49
479.87	384.41
480.23	384.44
480.60	384.26
480.96	384.09
481.33	384.34
481.69	384.59
482.06	384.60
482.42	384.49
482.79	384.63
483.15	385.39
483.52	385.89
483.88	386.25
484.25	386.85
484.61	387.50
484.98	387.91
485.34	388.84
485.71	389.86
486.07	390.65
486.44	391.43
486.80	392.84
487.17	394.03
487.53	395.31
487.90	396.52
488.26	398.01
488.62	399.78
488.99	401.32
489.35	402.90
489.72	404.87
490.08	407.02
490.44	409.10
490.81	410.99
491.17	413.15
491.54	415.47
491.90	417.80
492.26	420.29
492.63	422.86
492.99	425.39
493.36	427.91
493.72	430.76
494.08	433.62
494.45	436.56
494.81	439.77
495.17	442.85
495.54	446.02
495.90	449.30
496.26	452.53
496.63	455.94
496.99	459.50
497.35	462.94
497.72	466.67
498.08	470.17
498.44	473.86
498.80	477.76
499.17	481.62
499.53	485.43
499.89	489.25
500.26	493.08
500.62	496.87
500.98	500.98
501.34	504.96
501.71	509.04
502.07	512.91
502.43	516.96
502.79	520.96
503.16	525.10
503.52	528.95
503.88	532.94
504.24	536.80
504.60	540.78
504.97	544.85
505.33	548.59
505.69	552.99
506.05	557.08
506.41	560.86
506.78	564.53
507.14	568.42
507.50	572.51
507.86	576.53
508.22	580.44
508.59	584.06
508.95	587.95
509.31	591.72
509.67	595.63
510.03	599.26
510.39	603.05
510.75	606.69
511.12	610.33
511.48	613.68
511.84	617.34
512.20	620.60
512.56	624.05
512.92	627.28
513.28	630.32
513.64	633.18
514.00	636.24
514.37	639.47
514.73	642.57
515.09	645.01
515.45	647.63
515.81	650.24
516.17	653.15
516.53	655.50
516.89	657.87
517.25	660.14
517.61	662.52
517.97	664.55
518.33	666.44
518.69	668.41
519.05	670.66
519.41	672.77
519.77	675.03
520.13	676.94
520.49	679.27
520.85	681.21
521.21	683.12
521.57	685.35
521.93	687.07
522.29	688.92
522.65	690.82
523.01	692.49
523.37	694.14
523.73	695.57
524.09	697.50
524.45	699.20
524.81	700.80
525.17	702.51
525.53	704.57
525.89	706.57
526.25	708.54
526.61	710.13
526.97	711.56
527.33	713.26
527.68	715.12
528.04	716.72
528.40	718.13
528.76	720.28
529.12	721.82
529.48	723.65
529.84	725.42
530.20	727.07
530.56	729.46
530.91	731.85
531.27	733.90
531.63	735.64
531.99	737.58
532.35	739.63
532.71	741.28
533.07	743.47
533.42	745.58
533.78	747.58
534.14	750.09
534.50	752.24
534.86	754.47
535.21	756.52
535.57	758.69
535.93	761.18
536.29	763.27
536.65	765.58
537.00	767.80
537.36	770.00
537.72	772.66
538.08	774.55
538.44	776.67
538.79	779.10
539.15	781.58
539.51	783.98
539.87	786.45
540.22	789.33
540.58	791.69
540.94	794.34
541.29	796.79
541.65	799.14
542.01	802.20
542.37	804.94
542.72	807.35
543.08	809.91
543.44	812.59
543.79	815.10
544.15	817.80
544.51	820.74
544.87	823.70
545.22	826.58
545.58	829.40
545.94	832.09
546.29	834.97
546.65	837.60
547.01	840.54
547.36	843.45
547.72	846.11
548.07	848.76
548.43	851.10
548.79	854.11
549.14	856.55
549.50	858.77
549.86	861.22
550.21	864.13
550.57	866.88
550.92	869.46
551.28	872.28
551.64	874.98
551.99	877.67
552.35	880.20
552.70	882.56
553.06	885.20
553.41	887.89
553.77	890.55
554.13	893.36
554.48	895.99
554.84	898.81
555.19	901.67
555.55	904.56
555.90	907.11
556.26	909.51
556.61	912.35
556.97	915.11
557.32	917.80
557.68	920.25
558.03	922.67
558.39	925.46
558.74	928.12
559.10	930.61
559.45	933.03
559.81	935.71
560.16	938.49
560.52	941.21
560.87	943.95
561.23	946.24
561.58	948.62
561.94	950.88
562.29	953.21
562.64	955.39
563.00	957.49
563.35	960.26
563.71	962.95
564.06	965.36
564.42	967.79
564.77	970.04
565.12	972.52
565.48	975.46
565.83	977.35
566.19	979.51
566.54	981.82
566.89	983.68
567.25	985.69
567.60	987.96
567.96	989.93
568.31	991.65
568.66	993.50
569.02	995.38
569.37	997.31
569.72	998.60
570.08	1000.07
570.43	1001.83
570.78	1002.98
571.14	1003.83
571.49	1005.03
571.84	1006.54
572.20	1007.76
572.55	1008.90
572.90	1009.10
573.26	1010.32
573.61	1011.06
573.96	1011.44
574.31	1012.11
574.67	1012.19
575.02	1011.94
575.37	1012.39
575.72	1012.28
576.08	1012.62
576.43	1012.70
576.78	1012.87
577.13	1013.36
577.49	1013.63
577.84	1013.67
578.19	1013.69
578.54	1014.03
578.90	1013.85
579.25	1013.06
579.60	1012.39
579.95	1011.70
580.30	1011.53
580.66	1010.90
581.01	1010.39
581.36	1010.02
581.71	1009.47
582.06	1009.24
582.42	1008.71
582.77	1008.05
583.12	1007.38
583.47	1006.47
583.82	1005.84
584.17	1004.63
584.53	1003.74
584.88	1002.61
585.23	1001.38
585.58	1000.21
585.93	999.10
586.28	998.00
586.63	996.99
586.98	996.03
587.34	995.07
587.69	993.89
588.04	992.74
588.39	991.52
588.74	989.74
589.09	988.33
589.44	986.63
589.79	985.17
590.14	983.72
590.49	982.33
590.84	980.96
591.19	979.11
591.54	977.32
591.89	974.98
592.25	973.28
592.60	971.00
592.95	968.92
593.30	966.79
593.65	964.56
594.00	962.50
594.35	960.76
594.70	958.16
595.05	956.16
595.40	953.44
595.75	950.98
596.10	949.04
596.45	947.14
596.80	945.16
597.15	942.88
597.50	940.10
597.85	937.98
598.19	935.73
598.54	934.01
598.89	932.07
599.24	930.15
599.59	927.91
599.94	926.14
600.29	924.24
600.64	921.88
600.99	919.59
601.34	917.18
601.69	914.44
602.04	912.37
602.39	909.55
602.74	907.66
603.08	905.22
603.43	903.06
603.78	900.48
604.13	897.91
604.48	895.68
604.83	893.71
605.18	891.17
605.53	888.28
605.87	884.88
606.22	882.35
606.57	879.58
606.92	876.85
607.27	873.87
607.62	871.36
607.96	868.97
608.31	866.27
608.66	863.34
609.01	860.35
609.36	857.24
609.70	854.11
610.05	850.71
610.40	847.77
610.75	844.50
611.10	841.20
611.44	837.61
611.79	834.57
612.14	831.05
612.49	827.29
612.83	823.96
613.18	820.99
613.53	817.73
613.88	814.21
614.22	810.71
614.57	807.47
614.92	803.98
615.27	800.56
615.61	797.49
615.96	794.32
616.31	791.44
616.65	788.62
617.00	785.84
617.35	783.01
617.70	779.65
618.04	776.31
618.39	773.26
618.74	770.44
619.08	767.05
619.43	763.90
619.78	761.27
620.12	758.21
620.47	755.17
620.82	751.68
621.16	748.63
621.51	745.93
621.85	742.71
622.20	739.48
622.55	736.30
622.89	732.98
623.24	730.18
623.59	727.02
623.93	724.11
624.28	721.18
624.62	718.18
624.97	715.63
625.32	712.99
625.66	710.24
626.01	707.49
626.35	704.37
626.70	701.66
627.04	698.96
627.39	696.01
627.73	693.01
628.08	690.36
628.43	687.57
628.77	684.58
629.12	681.83
629.46	678.99
629.81	675.75
630.15	672.80
630.50	669.55
630.84	666.27
631.19	662.82
631.53	659.73
631.88	656.46
632.22	652.89
632.57	650.08
632.91	646.83
633.26	643.80
633.60	640.90
633.95	637.89
634.29	634.95
634.64	632.30
634.98	629.57
635.32	626.72
635.67	624.03
636.01	621.16
636.36	618.26
636.70	615.69
637.05	613.38
637.39	610.84
637.73	608.37
638.08	606.16
638.42	603.89
638.77	601.16
639.11	598.71
639.45	596.17
639.80	593.16
640.14	590.63
640.49	587.88
640.83	585.37
641.17	582.79
641.52	580.01
641.86	577.29
642.20	574.67
642.55	572.11
642.89	569.70
643.23	566.98
643.58	564.54
643.92	561.75
644.26	558.93
644.61	556.65
644.95	554.11
645.29	551.36
645.64	548.53
645.98	546.15
646.32	543.74
646.66	541.56
647.01	539.01
647.35	536.55
647.69	534.34
648.04	532.04
648.38	529.47
648.72	526.93
649.06	524.23
649.41	521.74
649.75	519.35
650.09	516.76
650.43	514.31
650.78	511.70
651.12	509.26
651.46	507.16
651.80	504.58
652.14	502.20
652.49	499.90
652.83	497.89
653.17	495.43
653.51	492.97
653.85	490.60
654.20	488.25
654.54	485.77
654.88	483.34
655.22	480.81
655.56	478.45
655.90	476.30
656.25	474.28
656.59	471.90
656.93	469.61
657.27	467.27
657.61	465.02
657.95	463.20
658.29	461.07
658.64	458.79
658.98	456.61
659.32	454.44
659.66	452.36
660.00	450.10
660.34	447.97
660.68	446.05
661.02	444.04
661.36	442.32
661.70	440.49
662.05	438.46
662.39	436.66
662.73	434.80
663.07	433.00
663.41	431.31
663.75	429.60
664.09	427.95
664.43	426.23
664.77	424.70
665.11	422.77
665.45	421.03
665.79	419.19
666.13	417.24
666.47	415.47
666.81	413.70
667.15	411.88
667.49	410.26
667.83	408.55
668.17	406.80
668.51	405.10
668.85	403.43
669.19	401.97
669.53	400.36
669.87	398.77
670.21	397.08
670.55	395.27
670.89	393.94
671.23	392.38
671.57	390.90
671.91	389.25
672.25	387.81
672.58	386.50
672.92	385.14
673.26	383.92
673.60	382.52
673.94	381.11
674.28	379.97
674.62	378.71
674.96	377.37
675.30	376.10
675.64	374.70
675.97	373.34
676.31	372.03
676.65	370.74
676.99	369.53
677.33	368.22
677.67	367.13
678.01	365.56
678.34	364.24
678.68	362.91
679.02	361.83
679.36	360.66
679.70	359.31
680.04	358.13
680.37	356.97
680.71	355.72
681.05	354.66
681.39	353.25
681.73	352.00
682.06	350.95
682.40	349.82
682.74	348.71
683.08	347.74
683.42	346.51
683.75	345.32
684.09	344.23
684.43	343.14
684.77	342.00
685.10	340.93
685.44	339.70
685.78	338.73
686.12	337.54
686.45	336.29
686.79	335.12
687.13	334.06
687.46	332.90
687.80	331.91
688.14	330.78
688.48	329.95
688.81	328.90
689.15	327.80
689.49	326.74
689.82	325.70
690.16	324.50
690.50	323.48
690.83	322.52
691.17	321.37
691.51	320.34
691.84	319.31
692.18	318.41
692.52	317.51
692.85	316.58
693.19	315.65
693.52	314.72
693.86	313.85
694.20	312.94
694.53	311.92
694.87	311.00
695.21	309.97
695.54	309.06
695.88	308.02
696.21	306.98
696.55	306.15
696.88	305.27
697.22	304.55
697.56	303.84
697.89	302.95
698.23	302.12
698.56	301.39
698.90	300.67
699.23	299.90
699.57	299.05
699.90	298.20
700.24	297.30
700.58	296.65
700.91	295.92
701.25	295.25
701.58	294.76
701.92	294.13
702.25	293.51
702.59	292.69
702.92	292.18
703.26	291.64
703.59	290.84
703.93	290.36
704.26	289.75
704.60	289.10
704.93	288.61
705.26	288.05
705.60	287.41
705.93	286.72
706.27	286.11
706.60	285.65
706.94	285.16
707.27	284.61
707.61	284.07
707.94	283.43
708.27	282.67
708.61	281.98
708.94	281.34
709.28	280.75
709.61	280.29
709.94	279.73
710.28	279.12
710.61	278.62
710.95	277.97
711.28	277.46
711.61	276.82
711.95	276.29
712.28	275.74
712.61	275.24
712.95	274.91
713.28	274.50
713.61	273.92
713.95	273.39
714.28	272.96
714.61	272.47
714.95	271.97
715.28	271.56
715.61	271.15
715.95	270.69
716.28	270.27
716.61	269.78
716.95	269.35
717.28	268.94
717.61	268.47
717.94	268.09
718.28	267.68
718.61	267.27
718.94	266.84
719.27	266.41
719.61	266.01
719.94	265.54
720.27	265.07
720.60	264.68
720.94	264.34
721.27	263.92
721.60	263.40
721.93	263.17
722.27	262.91
722.60	262.55
722.93	262.17
723.26	261.97
723.59	261.52
723.93	261.16
724.26	260.76
724.59	260.53
724.92	260.11
725.25	259.87
725.59	259.57
725.92	259.31
726.25	259.02
726.58	258.71
726.91	258.38
727.24	258.01
727.57	257.68
727.91	257.27
728.24	257.01
728.57	256.75
728.90	256.37
729.23	255.97
729.56	255.67
729.89	255.33
730.22	254.88
730.55	254.67
730.89	254.42
731.22	254.20
731.55	253.88
731.88	253.56
732.21	253.12
732.54	252.88
732.87	252.44
733.20	252.17
733.53	251.89
733.86	251.63
734.19	251.41
734.52	251.13
734.85	251.10
735.18	250.74
735.51	250.60
735.84	250.45
736.17	250.19
736.50	249.94
736.83	250.02
737.16	249.82
737.49	249.53
737.82	249.30
738.15	249.15
738.48	248.90
738.81	248.74
739.14	248.55
739.47	248.39
739.80	248.29
740.13	248.05
740.46	247.90
740.79	247.78
741.12	247.51
741.45	247.44
741.78	247.05
742.11	246.89
742.44	246.59
742.77	246.37
743.10	246.18
743.43	245.98
743.75	245.54
744.08	245.55
744.41	245.44
744.74	245.17
745.07	244.96
745.40	244.92
745.73	244.84
746.06	244.77
746.39	244.54
746.71	244.38
747.04	244.44
747.37	244.19
747.70	244.05
748.03	243.98
748.36	243.84
748.68	243.67
749.01	243.52
749.34	243.45
749.67	243.37
750.00	243.22
750.33	243.24
750.65	243.16
750.98	242.86
751.31	242.79
751.64	242.74
751.97	242.65
752.29	242.50
752.62	242.24
752.95	242.03
753.28	241.85
753.60	241.70
753.93	241.46
754.26	241.45
754.59	241.15
754.91	240.99
755.24	240.86
755.57	240.76
755.90	240.70
756.22	240.50
756.55	240.30
756.88	240.20
757.20	240.00
757.53	239.80
757.86	239.73
758.19	239.55
758.51	239.43
758.84	239.21
759.17	239.11
759.49	239.06
759.82	238.93
760.15	238.81
760.47	238.74
760.80	238.57
761.13	238.45
761.45	238.38
761.78	238.28
762.11	238.08
762.43	237.90
762.76	237.83
763.08	237.75
763.41	237.66
763.74	237.46
764.06	237.32
764.39	237.34
764.71	237.15
765.04	237.02
765.37	236.89
765.69	236.77
766.02	236.50
766.34	236.37
766.67	236.23
767.00	236.13
767.32	236.05
767.65	236.02
767.97	235.95
768.30	235.86
768.62	235.77
768.95	235.73
769.27	235.73
769.60	235.62
769.92	235.52
770.25	235.33
770.57	235.26
770.90	235.10
771.22	234.86
771.55	234.82
771.87	234.72
772.20	234.71
772.52	234.87
772.85	235.07
773.17	234.97
773.50	234.82
773.82	234.73
774.15	234.56
774.47	234.41
774.80	234.10
775.12	233.96
775.45	233.87
775.77	233.71
776.09	233.55
776.42	233.39
776.74	233.42
777.07	233.42
777.39	233.40
777.72	233.35
778.04	233.31
778.36	233.15
778.69	233.16
779.01	233.03
779.33	232.89
779.66	232.55
779.98	232.55
780.31	232.60
780.63	232.73
780.95	232.75
781.28	232.66
781.60	232.77
781.92	232.78
782.25	232.72
782.57	232.67
782.89	232.71
783.22	232.74
783.54	232.58
783.86	232.47
784.19	232.49
784.51	232.46
784.83	232.51
785.16	232.56
785.48	232.49
785.80	232.39
786.12	232.30
786.45	232.45
786.77	232.35
787.09	232.31
787.42	232.11
787.74	232.11
788.06	232.18
788.38	232.16
788.71	232.07
789.03	232.08
789.35	232.14
789.67	232.07
789.99	231.96
790.32	231.91
790.64	232.06
790.96	232.08
791.28	231.97
791.61	231.97
791.93	231.96
792.25	231.89
792.57	232.15
792.89	232.07
793.21	232.01
793.54	232.00
793.86	232.04
794.18	232.07
794.50	231.98
794.82	231.96
795.14	231.90
795.47	231.98
795.79	231.97
796.11	231.85
796.43	231.78
796.75	231.86
797.07	231.91
797.39	231.79
797.71	231.66
798.04	231.73
798.36	231.57
798.68	231.44
799.00	231.47
799.32	231.28
799.64	231.23
799.96	231.12
800.28	231.10
800.60	230.92
800.92	230.97
801.24	230.87
801.56	230.90
801.89	230.81
802.21	230.78
802.53	230.60
802.85	230.56
803.17	230.62
803.49	230.42
803.81	230.34
804.13	230.27
804.45	230.21
804.77	230.21
805.09	230.20
805.41	230.31
805.73	230.20
806.05	230.18
806.37	230.21
806.69	230.23
807.01	230.20
807.33	230.17
807.65	229.94
807.97	230.05
808.28	229.91
808.60	230.00
808.92	229.96
809.24	230.13
809.56	230.19
809.88	230.20
810.20	230.25
810.52	230.32
810.84	230.35
811.16	230.25
811.48	230.16
811.80	230.27
812.12	230.12
812.43	230.25
812.75	230.21
813.07	230.15
813.39	230.07
813.71	230.06
814.03	230.02
814.35	230.07
814.67	229.94
814.98	229.92
815.30	229.74
815.62	229.71
815.94	229.55
816.26	229.62
816.58	229.49
816.89	229.53
817.21	229.43
817.53	229.42
817.85	229.50
818.17	229.53
818.48	229.43
818.80	229.52
819.12	229.42
819.44	229.30
819.76	229.34
820.07	229.41
820.39	229.39
820.71	229.48
821.03	229.59
821.34	229.62
821.66	229.64
821.98	229.79
822.30	229.80
822.61	230.04
822.93	229.91
823.25	229.99
823.57	229.95
823.88	230.01
824.20	230.00
824.52	230.08
824.83	230.15
825.15	230.08
825.47	230.04
825.79	230.02
826.10	230.15
826.42	230.05
826.74	230.06
827.05	230.12
827.37	230.21
827.69	230.18
828.00	230.17
828.32	230.23
828.64	230.23
828.95	230.31
829.27	230.20
829.58	230.20
829.90	230.16
830.22	230.20
830.53	230.15
830.85	230.17
831.17	230.05
831.48	229.89
831.80	229.95
832.11	230.02
832.43	230.03
832.75	229.96
833.06	230.21
833.38	230.06
833.69	230.03
834.01	229.96
834.32	229.85
834.64	229.84
834.96	229.73
835.27	229.68
835.59	229.57
835.90	229.48
836.22	229.48
836.53	229.44
836.85	229.48
837.16	229.63
837.48	229.62
837.79	229.62
838.11	229.67
838.42	229.63
838.74	229.55
839.05	229.56
839.37	229.58
839.68	229.25
840.00	229.29
840.31	229.24
840.63	229.16
840.94	229.16
841.26	229.01
841.57	229.05
841.88	229.00
842.20	228.99
842.51	228.89
842.83	228.87
843.14	229.02
843.46	228.92
843.77	228.85
844.08	228.76
844.40	228.75
844.71	228.75
845.03	228.68
845.34	228.70
845.65	228.58
845.97	228.50
846.28	228.56
846.60	228.60
846.91	228.61
847.22	228.59
847.54	228.65
847.85	228.67
848.16	228.66
848.48	228.62
848.79	228.65
849.10	228.72
849.42	228.74
849.73	228.57
850.04	228.46
850.36	228.28
850.67	228.26
850.98	228.35
851.30	228.30
851.61	228.28
851.92	228.32
852.23	228.50
852.55	228.44
852.86	228.42
853.17	228.40
853.49	228.30
853.80	228.29
854.11	228.11
854.42	228.20
854.74	228.17
855.05	228.11
855.36	227.98
855.67	227.94
855.99	227.92
856.30	228.13
856.61	228.16
856.92	228.25
857.23	228.27
857.55	228.11
857.86	228.15
858.17	228.30
858.48	228.24
858.79	228.19
859.11	228.35
859.42	228.35
859.73	228.35
860.04	228.51
860.35	228.55
860.66	228.69
860.98	228.68
861.29	228.75
861.60	228.78
861.91	229.04
862.22	229.10
862.53	229.03
862.84	228.77
863.16	228.81
863.47	228.88
863.78	228.96
864.09	229.07
864.40	229.11
864.71	229.10
865.02	229.08
865.33	228.97
865.64	228.95
865.95	229.01
866.27	229.16
866.58	229.10
866.89	229.09
867.20	229.05
867.51	229.08
867.82	229.07
868.13	229.22
868.44	229.08
868.75	229.10
869.06	229.23
869.37	229.41
869.68	229.43
869.99	229.41
870.30	229.32
870.61	229.36
870.92	229.31
871.23	229.30
871.54	229.36
871.85	229.45
872.16	229.49
872.47	229.48
872.78	229.34
873.09	229.33
873.40	229.39
873.71	229.42
874.02	229.35
874.33	229.36
874.64	229.24
874.95	229.32
875.26	229.34
875.56	229.20
875.87	229.15
876.18	229.14
876.49	229.30
876.80	229.30
877.11	229.17
877.42	229.14
877.73	229.02
878.04	228.98
878.35	228.94
878.66	228.82
878.96	228.75
879.27	228.78
879.58	228.77
879.89	228.79
880.20	228.84
880.51	228.87
880.82	228.75
881.12	228.78
881.43	228.66
881.74	228.47
882.05	228.62
882.36	228.64
882.67	228.66
882.97	228.42
883.28	228.41
883.59	228.49
883.90	228.53
884.21	228.63
884.51	228.61
884.82	228.60
885.13	228.66
885.44	228.64
885.74	228.57
886.05	228.60
886.36	228.49
886.67	228.40
886.98	228.42
887.28	228.59
887.59	228.51
887.90	228.56
888.20	228.64
888.51	228.57
888.82	228.45
889.13	228.45
889.43	228.50
889.74	228.50
890.05	228.47
890.35	228.47
890.66	228.36
890.97	228.33
891.28	228.31
891.58	228.34
891.89	228.38
892.20	228.38
892.50	228.38
892.81	228.36
893.12	228.37
893.42	228.30
893.73	228.20
894.04	228.14
894.34	228.16
894.65	228.17
894.95	228.09
895.26	228.05
895.57	228.06
895.87	227.97
896.18	227.97
896.48	227.99
896.79	227.92
897.10	228.01
897.40	228.07
897.71	228.01
898.01	227.95
898.32	227.97
898.63	227.96
898.93	227.88
899.24	227.87
899.54	227.90
899.85	227.90
900.15	227.90
900.46	228.06
900.76	228.00
901.07	228.00
901.38	228.09
901.68	228.21
901.99	228.20
902.29	228.21
902.60	228.17
902.90	228.22
903.21	228.24
903.51	228.25
903.82	228.21
904.12	228.27
904.43	228.28
904.73	228.26
905.03	228.24
905.34	228.59
905.64	228.67
905.95	228.65
906.25	228.61
906.56	228.64
906.86	228.62
907.17	228.63
907.47	228.68
907.77	228.73
908.08	228.68
908.38	228.70
908.69	228.82
908.99	228.91
909.30	228.88
909.60	228.91
909.90	228.92
910.21	228.92
910.51	229.02
910.81	229.00
911.12	229.04
911.42	229.08
911.73	228.80
912.03	228.70
912.33	228.77
912.64	228.81
912.94	228.82
913.24	228.78
913.55	228.81
913.85	228.86
914.15	228.87
914.46	228.85
914.76	228.75
915.06	228.69
915.37	228.63
915.67	228.62
915.97	228.65
916.27	228.60
916.58	228.60
916.88	228.54
917.18	228.61
917.49	228.82
917.79	228.78
918.09	228.83
918.39	228.96
918.70	228.86
919.00	228.89
919.30	229.03
919.60	228.98
919.91	228.94
920.21	228.87
920.51	228.83
920.81	228.87
921.12	228.98
921.42	228.93
921.72	229.00
922.02	228.93
922.32	228.89
922.63	228.88
922.93	229.04
923.23	229.01
923.53	228.97
923.83	228.79
924.13	228.85
924.44	228.83
924.74	228.84
925.04	228.90
925.34	228.90
925.64	228.63
925.94	228.67
926.24	228.69
926.55	228.52
926.85	228.56
927.15	228.50
927.45	228.40
927.75	228.44
928.05	228.38
928.35	228.40
928.65	228.49
928.95	228.52
929.26	228.40
929.56	228.43
929.86	228.52
930.16	228.47
930.46	228.49
930.76	228.47
931.06	228.46
931.36	228.41
931.66	228.32
931.96	228.32
932.26	228.37
932.56	228.32
932.86	228.47
933.16	228.41
933.46	228.36
933.76	228.35
934.06	228.35
934.36	228.39
934.66	228.39
934.96	228.27
935.26	228.28
935.56	228.27
935.86	228.17
936.16	228.00
936.46	227.95
936.76	227.89
937.06	227.83
937.36	227.80
937.66	227.82
937.96	227.87
938.26	227.90
938.56	227.85
938.86	227.93
939.16	227.94
939.46	227.91
939.76	227.97
940.06	227.99
940.35	227.96
940.65	227.90
940.95	227.93
941.25	227.93
941.55	227.88
941.85	227.85
942.15	228.01
942.45	228.05
942.75	227.95
943.04	228.00
943.34	228.02
943.64	228.06
943.94	227.97
944.24	228.06
944.54	228.19
944.84	228.21
945.13	228.16
945.43	228.14
945.73	228.10
946.03	228.09
946.33	228.11
946.62	228.12
946.92	228.17
947.22	228.25
947.52	228.33
947.82	228.44
948.11	228.58
948.41	228.46
948.71	228.41
949.01	228.58
949.31	228.60
949.60	228.55
949.90	228.53
950.20	228.62
950.50	228.61
950.79	228.50
951.09	228.43
951.39	228.52
951.69	228.49
951.98	228.54
952.28	228.64
952.58	228.71
952.87	228.69
953.17	228.64
953.47	228.58
953.76	228.63
954.06	228.49
954.36	228.30
954.66	228.31
954.95	228.40
955.25	228.34
955.55	228.38
955.84	228.37
956.14	228.36
956.44	228.32
956.73	228.29
957.03	228.22
957.32	228.27
957.62	228.13
957.92	228.18
958.21	228.17
958.51	228.28
958.81	228.16
959.10	228.19
959.40	228.29
959.69	228.21
959.99	228.14
960.29	228.13
960.58	228.16
960.88	228.14
961.17	228.08
961.47	228.17
961.76	228.01
962.06	228.08
962.36	228.01
962.65	228.06
962.95	228.00
963.24	227.99
963.54	227.96
963.83	227.97
964.13	227.80
964.42	227.76
964.72	227.60
965.01	227.68
965.31	227.63
965.60	227.60
965.90	227.72
966.19	227.59
966.49	227.61
966.78	227.67
967.08	227.73
967.37	227.71
967.67	227.66
967.96	227.73
968.26	227.78
968.55	227.86
968.85	227.75
969.14	227.82
969.43	227.83
969.73	227.88
970.02	227.88
970.32	228.00
970.61	228.02
970.91	227.94
971.20	227.98
971.49	227.99
971.79	227.96
972.08	227.83
972.38	227.94
972.67	227.95
972.96	227.90
973.26	227.88
973.55	228.02
973.85	228.05
974.14	228.07
974.43	228.13
974.73	228.00
975.02	228.06
975.31	228.01
975.61	228.03
975.90	227.99
976.19	228.05
976.49	228.10
976.78	228.08
977.07	228.17
977.37	228.15
977.66	228.21
977.95	228.29
978.24	228.34
978.54	228.47
978.83	228.61
979.12	228.64
979.42	228.68
979.71	228.64
980.00	228.60
980.29	228.65
980.59	228.55
980.88	228.77
981.17	228.85
981.46	228.84
981.76	229.05
982.05	229.08
982.34	229.21
982.63	229.18
982.93	229.20
983.22	229.28
983.51	229.25
983.80	229.32
984.09	229.34
984.39	229.37
984.68	229.36
984.97	229.28
985.26	229.20
985.55	229.13
985.85	229.16
986.14	229.18
986.43	229.23
986.72	229.21
987.01	229.07
987.30	228.94
987.59	229.02
987.89	228.94
988.18	228.97
988.47	228.85
988.76	228.84
989.05	228.87
989.34	228.81
989.63	228.91
989.92	228.78
990.22	228.66
990.51	228.65
990.80	228.51
991.09	228.50
991.38	228.51
991.67	228.56
991.96	228.47
992.25	228.40
992.54	228.25
992.83	228.23
993.12	228.26
993.41	228.32
993.70	228.26
993.99	228.27
994.28	228.23
994.58	228.20
994.87	228.17
995.16	228.11
995.45	228.05
995.74	227.90
996.03	227.88
996.32	227.94
996.61	227.95
996.90	227.88
997.19	227.82
997.48	227.79
997.77	227.73
998.06	227.71
998.34	227.82
998.63	227.83
998.92	227.82
999.21	227.75
999.50	227.75
999.79	227.69
1000.08	227.66
1000.37	227.54
1000.66	227.53
1000.95	227.60
1001.24	227.65
1001.53	227.66
1001.82	227.60
1002.11	227.67
1002.40	227.62
1002.68	227.55
1002.97	227.80
1003.26	227.73
1003.55	227.67
1003.84	227.60
1004.13	227.61
1004.42	227.47
1004.71	227.44
1004.99	227.40
1005.28	227.49
1005.57	227.48
1005.86	227.48
1006.15	227.42
1006.44	227.49
1006.72	227.48
1007.01	227.45
1007.30	227.40
1007.59	227.37
1007.88	227.29
1008.17	227.26
1008.45	227.20
1008.74	227.18
1009.03	227.04
1009.32	227.08
1009.60	227.23
1009.89	227.21
1010.18	227.24
1010.47	227.35
1010.76	227.27
1011.04	227.17
1011.33	227.21
1011.62	227.12
1011.91	227.16
1012.19	227.27
1012.48	227.33
1012.77	227.26
1013.05	227.36
1013.34	227.30
1013.63	227.31
1013.92	227.54
1014.20	227.49
1014.49	227.58
1014.78	227.64
1015.06	227.65
1015.35	227.63
1015.64	227.63
1015.92	227.72
1016.21	227.66
1016.50	227.65
1016.78	227.82
1017.07	228.08
1017.36	228.03
1017.64	228.15
1017.93	228.16
1018.22	228.00
1018.50	228.09
1018.79	228.20
1019.08	228.18
1019.36	228.38
1019.65	228.38
1019.93	228.38
1020.22	228.49
1020.51	228.60
1020.79	228.65
1021.08	226.80
1021.36	230.00
1021.65	228.60
1021.94	229.60
1022.22	229.80
1022.51	227.80
1022.79	229.10
1023.08	229.20
1023.36	230.80
1023.65	229.20
>>>>>End Processed Spectral Data<<<<<
