SpectraSuite Data File
++++++++++++++++++++++++++++++++++++
Date: Fri Feb 01 14:37:24 EST 2013
User: group
Dark Spectrum Present: No
Reference Spectrum Present: No
Number of Sampled Component Spectra: 1
Spectrometers: USB2E7196
Integration Time (usec): 70000 (USB2E7196)
Spectra Averaged: 10 (USB2E7196)
Boxcar Smoothing: 10 (USB2E7196)
Correct for Electrical Dark: No (USB2E7196)
Strobe/Lamp Enabled: No (USB2E7196)
Correct for Detector Non-linearity: No (USB2E7196)
Correct for Stray Light: No (USB2E7196)
Number of Pixels in Processed Spectrum: 2048
>>>>>Begin Processed Spectral Data<<<<<
339.09	0.00
339.48	215.90
339.86	217.50
340.24	218.70
340.63	220.10
341.01	224.60
341.39	222.20
341.78	224.00
342.16	226.00
342.54	226.50
342.93	214.60
343.31	225.52
343.69	226.11
344.07	226.65
344.46	227.18
344.84	227.59
345.22	227.73
345.60	227.97
345.99	228.23
346.37	228.45
346.75	228.47
347.13	228.50
347.52	228.59
347.90	228.71
348.28	228.72
348.66	228.91
349.05	228.92
349.43	228.96
349.81	228.97
350.19	229.05
350.57	229.02
350.96	228.96
351.34	228.98
351.72	229.09
352.10	229.06
352.48	228.99
352.87	229.03
353.25	229.10
353.63	229.17
354.01	229.19
354.39	229.13
354.77	229.22
355.15	229.33
355.54	229.25
355.92	229.20
356.30	229.20
356.68	229.31
357.06	229.36
357.44	229.44
357.82	229.54
358.20	229.59
358.58	229.64
358.97	229.74
359.35	229.81
359.73	229.84
360.11	229.95
360.49	229.94
360.87	230.00
361.25	230.02
361.63	230.18
362.01	230.21
362.39	230.27
362.77	230.15
363.15	230.20
363.53	230.36
363.91	230.33
364.29	230.40
364.67	230.17
365.05	230.08
365.43	230.00
365.81	229.98
366.19	229.99
366.57	230.04
366.95	230.03
367.33	229.98
367.71	229.91
368.09	229.88
368.47	229.98
368.85	229.79
369.23	229.92
369.61	229.80
369.99	229.82
370.37	229.64
370.75	229.72
371.13	229.52
371.51	229.31
371.89	229.42
372.27	229.30
372.65	229.26
373.03	229.26
373.41	229.12
373.78	229.08
374.16	228.90
374.54	228.84
374.92	228.76
375.30	228.63
375.68	228.48
376.06	228.37
376.44	228.26
376.82	228.33
377.19	228.14
377.57	228.02
377.95	227.84
378.33	227.82
378.71	227.72
379.09	227.74
379.47	227.70
379.84	227.62
380.22	227.55
380.60	227.53
380.98	227.42
381.36	227.49
381.73	227.40
382.11	227.40
382.49	227.29
382.87	227.29
383.25	227.20
383.62	227.47
384.00	227.40
384.38	227.31
384.76	227.30
385.13	227.24
385.51	227.10
385.89	227.00
386.27	226.95
386.64	226.97
387.02	226.94
387.40	226.87
387.78	226.81
388.15	226.78
388.53	226.70
388.91	226.71
389.29	226.63
389.66	226.59
390.04	226.60
390.42	226.64
390.79	226.52
391.17	226.65
391.55	226.43
391.92	226.39
392.30	226.47
392.68	226.45
393.05	226.50
393.43	226.68
393.81	226.83
394.18	226.88
394.56	226.90
394.94	227.02
395.31	227.03
395.69	227.14
396.06	227.23
396.44	227.32
396.82	227.38
397.19	227.54
397.57	227.63
397.95	227.73
398.32	227.71
398.70	227.84
399.07	227.98
399.45	228.01
399.82	228.16
400.20	228.24
400.58	228.33
400.95	228.37
401.33	228.50
401.70	228.76
402.08	228.85
402.45	229.00
402.83	229.09
403.20	229.34
403.58	229.33
403.95	229.59
404.33	229.79
404.71	230.06
405.08	230.32
405.46	230.59
405.83	230.76
406.21	230.98
406.58	231.20
406.96	231.39
407.33	231.62
407.70	231.96
408.08	232.28
408.45	232.67
408.83	233.08
409.20	233.41
409.58	233.52
409.95	234.01
410.33	234.48
410.70	234.95
411.08	235.38
411.45	235.94
411.82	236.35
412.20	236.89
412.57	237.38
412.95	237.87
413.32	238.51
413.69	239.13
414.07	239.81
414.44	240.53
414.82	241.19
415.19	241.99
415.56	242.80
415.94	243.72
416.31	244.69
416.68	245.70
417.06	246.90
417.43	248.14
417.81	249.30
418.18	250.40
418.55	251.73
418.93	253.15
419.30	254.57
419.67	255.96
420.04	257.56
420.42	259.21
420.79	261.23
421.16	263.10
421.54	265.16
421.91	267.24
422.28	269.35
422.66	271.68
423.03	274.04
423.40	276.22
423.77	278.60
424.15	280.94
424.52	283.56
424.89	286.26
425.26	288.86
425.64	291.47
426.01	294.52
426.38	297.37
426.75	300.28
427.13	303.36
427.50	306.75
427.87	310.09
428.24	313.46
428.61	316.49
428.99	320.07
429.36	323.95
429.73	327.89
430.10	331.80
430.47	335.55
430.85	339.33
431.22	343.74
431.59	348.36
431.96	352.71
432.33	357.36
432.70	361.98
433.08	367.42
433.45	372.52
433.82	377.56
434.19	383.12
434.56	388.66
434.93	393.88
435.30	399.07
435.68	404.81
436.05	410.53
436.42	416.20
436.79	421.33
437.16	426.73
437.53	432.38
437.90	438.06
438.27	443.75
438.64	449.82
439.01	455.09
439.38	459.66
439.75	464.35
440.13	469.67
440.50	474.59
440.87	478.96
441.24	483.05
441.61	487.70
441.98	491.31
442.35	495.42
442.72	499.72
443.09	503.97
443.46	506.63
443.83	508.56
444.20	510.22
444.57	512.46
444.94	513.75
445.31	515.07
445.68	516.37
446.05	517.18
446.42	517.01
446.79	516.94
447.16	516.82
447.53	517.05
447.90	515.52
448.27	514.15
448.64	511.35
449.01	509.97
449.37	506.76
449.74	503.68
450.11	499.79
450.48	495.43
450.85	490.93
451.22	487.10
451.59	483.56
451.96	480.30
452.33	475.56
452.70	471.32
453.07	466.30
453.43	460.97
453.80	455.80
454.17	450.92
454.54	446.32
454.91	441.32
455.28	436.30
455.65	431.67
456.02	426.84
456.38	422.93
456.75	417.79
457.12	413.51
457.49	409.36
457.86	405.37
458.23	401.92
458.59	398.07
458.96	394.23
459.33	390.55
459.70	386.98
460.07	384.32
460.43	381.10
460.80	377.94
461.17	375.17
461.54	372.34
461.91	369.67
462.27	366.70
462.64	364.36
463.01	361.58
463.38	359.00
463.74	356.37
464.11	354.19
464.48	352.35
464.85	350.26
465.21	348.43
465.58	346.54
465.95	344.25
466.32	342.42
466.68	340.45
467.05	338.78
467.42	336.91
467.78	334.88
468.15	332.94
468.52	331.59
468.88	329.89
469.25	328.40
469.62	327.14
469.98	325.74
470.35	324.25
470.72	323.01
471.08	321.58
471.45	320.38
471.82	318.97
472.18	317.51
472.55	316.35
472.92	315.15
473.28	314.12
473.65	313.19
474.02	312.10
474.38	311.24
474.75	310.31
475.11	309.38
475.48	308.69
475.85	308.14
476.21	307.33
476.58	306.82
476.94	306.22
477.31	305.57
477.67	305.07
478.04	304.59
478.41	304.11
478.77	303.93
479.14	303.51
479.50	303.20
479.87	302.99
480.23	302.80
480.60	302.60
480.96	302.38
481.33	302.20
481.69	302.06
482.06	301.94
482.42	301.86
482.79	301.79
483.15	301.79
483.52	301.80
483.88	301.79
484.25	301.76
484.61	301.89
484.98	301.84
485.34	301.95
485.71	302.20
486.07	302.30
486.44	302.34
486.80	302.73
487.17	303.04
487.53	303.40
487.90	303.69
488.26	304.00
488.62	304.41
488.99	304.94
489.35	305.42
489.72	305.81
490.08	306.30
490.44	306.88
490.81	307.40
491.17	307.91
491.54	308.56
491.90	309.15
492.26	309.66
492.63	310.30
492.99	310.97
493.36	311.68
493.72	312.50
494.08	313.19
494.45	313.89
494.81	314.73
495.17	315.53
495.54	316.39
495.90	317.18
496.26	317.89
496.63	318.63
496.99	319.45
497.35	320.35
497.72	321.24
498.08	321.86
498.44	322.72
498.80	323.59
499.17	324.25
499.53	325.07
499.89	325.91
500.26	326.80
500.62	327.56
500.98	328.32
501.34	329.00
501.71	329.79
502.07	330.42
502.43	330.93
502.79	331.53
503.16	332.04
503.52	332.65
503.88	333.21
504.24	333.69
504.60	334.12
504.97	334.69
505.33	334.96
505.69	335.68
506.05	335.95
506.41	336.45
506.78	336.95
507.14	337.30
507.50	337.60
507.86	337.90
508.22	338.29
508.59	338.35
508.95	338.58
509.31	338.88
509.67	339.06
510.03	339.22
510.39	339.33
510.75	339.50
511.12	339.56
511.48	339.65
511.84	339.81
512.20	339.93
512.56	339.98
512.92	340.18
513.28	340.10
513.64	340.19
514.00	340.16
514.37	340.09
514.73	340.10
515.09	340.17
515.45	340.12
515.81	340.04
516.17	340.32
516.53	340.37
516.89	340.30
517.25	340.34
517.61	340.66
517.97	340.84
518.33	341.05
518.69	341.17
519.05	341.43
519.41	341.63
519.77	342.02
520.13	342.25
520.49	342.54
520.85	342.94
521.21	343.52
521.57	344.12
521.93	344.74
522.29	345.33
522.65	345.93
523.01	346.75
523.37	347.45
523.73	348.07
524.09	348.88
524.45	349.69
524.81	350.72
525.17	351.75
525.53	352.95
525.89	354.16
526.25	355.54
526.61	356.77
526.97	358.02
527.33	359.42
527.68	361.31
528.04	362.95
528.40	364.66
528.76	366.44
529.12	368.18
529.48	370.26
529.84	372.29
530.20	374.41
530.56	376.55
530.91	378.91
531.27	381.29
531.63	383.67
531.99	386.18
532.35	388.78
532.71	391.30
533.07	393.90
533.42	396.82
533.78	399.70
534.14	402.69
534.50	405.74
534.86	408.91
535.21	411.69
535.57	415.00
535.93	418.30
536.29	421.80
536.65	425.16
537.00	428.34
537.36	431.90
537.72	435.59
538.08	439.23
538.44	442.95
538.79	446.92
539.15	450.90
539.51	454.98
539.87	458.90
540.22	463.23
540.58	467.44
540.94	471.32
541.29	475.56
541.65	479.80
542.01	484.30
542.37	488.63
542.72	493.20
543.08	497.74
543.44	502.21
543.79	506.38
544.15	510.98
544.51	515.83
544.87	520.47
545.22	525.21
545.58	529.88
545.94	534.45
546.29	539.08
546.65	543.60
547.01	548.25
547.36	553.10
547.72	557.54
548.07	562.16
548.43	566.79
548.79	571.43
549.14	576.08
549.50	580.97
549.86	585.56
550.21	590.23
550.57	594.83
550.92	599.45
551.28	604.40
551.64	609.04
551.99	613.60
552.35	618.24
552.70	622.78
553.06	627.65
553.41	632.48
553.77	637.11
554.13	641.95
554.48	646.69
554.84	651.27
555.19	655.87
555.55	660.69
555.90	665.52
556.26	670.10
556.61	674.80
556.97	678.99
557.32	683.52
557.68	687.99
558.03	692.78
558.39	697.57
558.74	701.94
559.10	706.43
559.45	711.20
559.81	715.92
560.16	720.14
560.52	724.43
560.87	729.07
561.23	733.33
561.58	737.89
561.94	742.23
562.29	746.57
562.64	750.79
563.00	754.95
563.35	759.27
563.71	763.61
564.06	767.89
564.42	772.01
564.77	776.30
565.12	780.66
565.48	784.57
565.83	788.21
566.19	792.45
566.54	796.20
566.89	799.87
567.25	803.74
567.60	807.78
567.96	811.52
568.31	814.72
568.66	818.22
569.02	821.52
569.37	824.74
569.72	828.08
570.08	831.03
570.43	834.08
570.78	837.12
571.14	839.99
571.49	843.02
571.84	846.37
572.20	849.12
572.55	851.40
572.90	853.99
573.26	856.88
573.61	859.20
573.96	861.67
574.31	863.78
574.67	865.14
575.02	866.97
575.37	868.97
575.72	870.94
576.08	872.84
576.43	874.55
576.78	876.48
577.13	878.19
577.49	879.91
577.84	881.48
578.19	883.17
578.54	884.76
578.90	885.73
579.25	886.43
579.60	887.40
579.95	888.82
580.30	889.96
580.66	890.88
581.01	891.43
581.36	892.40
581.71	893.50
582.06	894.65
582.42	895.41
582.77	895.92
583.12	896.29
583.47	897.06
583.82	897.64
584.17	897.92
584.53	898.38
584.88	899.17
585.23	899.51
585.58	899.58
585.93	899.57
586.28	900.27
586.63	900.57
586.98	900.89
587.34	901.05
587.69	901.37
588.04	901.34
588.39	901.94
588.74	901.35
589.09	900.80
589.44	900.42
589.79	900.30
590.14	900.39
590.49	900.38
590.84	899.83
591.19	899.37
591.54	898.76
591.89	897.82
592.25	897.34
592.60	896.47
592.95	895.63
593.30	894.86
593.65	893.64
594.00	892.85
594.35	892.54
594.70	891.23
595.05	890.01
595.40	888.97
595.75	887.43
596.10	886.88
596.45	886.34
596.80	885.54
597.15	884.58
597.50	883.30
597.85	882.50
598.19	881.73
598.54	880.79
598.89	879.85
599.24	879.20
599.59	877.80
599.94	876.62
600.29	875.60
600.64	874.29
600.99	873.03
601.34	871.58
601.69	869.57
602.04	868.24
602.39	866.62
602.74	865.30
603.08	864.11
603.43	862.77
603.78	861.22
604.13	859.65
604.48	858.20
604.83	856.55
605.18	854.80
605.53	852.58
605.87	850.67
606.22	848.80
606.57	846.69
606.92	844.94
607.27	843.28
607.62	841.53
607.96	840.00
608.31	838.36
608.66	836.51
609.01	834.49
609.36	832.06
609.70	829.60
610.05	827.03
610.40	824.76
610.75	822.27
611.10	819.60
611.44	817.05
611.79	814.55
612.14	812.08
612.49	809.02
612.83	806.61
613.18	804.22
613.53	801.94
613.88	799.20
614.22	796.60
614.57	794.16
614.92	791.45
615.27	788.81
615.61	785.81
615.96	783.31
616.31	780.78
616.65	779.06
617.00	776.86
617.35	774.63
617.70	771.82
618.04	769.12
618.39	766.65
618.74	764.47
619.08	761.80
619.43	759.25
619.78	757.11
620.12	754.69
620.47	752.04
620.82	749.15
621.16	746.70
621.51	744.02
621.85	741.14
622.20	738.36
622.55	735.77
622.89	733.25
623.24	730.49
623.59	728.09
623.93	725.28
624.28	722.90
624.62	720.18
624.97	717.79
625.32	715.61
625.66	713.06
626.01	710.30
626.35	707.64
626.70	705.16
627.04	702.76
627.39	699.95
627.73	697.37
628.08	695.00
628.43	692.31
628.77	689.76
629.12	687.16
629.46	684.42
629.81	681.39
630.15	678.85
630.50	676.30
630.84	673.27
631.19	670.24
631.53	667.23
631.88	664.21
632.22	661.16
632.57	658.32
632.91	655.62
633.26	652.93
633.60	650.18
633.95	647.30
634.29	644.55
634.64	642.24
634.98	639.42
635.32	636.79
635.67	634.50
636.01	631.82
636.36	629.22
636.70	626.80
637.05	624.60
637.39	622.12
637.73	619.52
638.08	617.26
638.42	615.22
638.77	612.92
639.11	610.65
639.45	608.68
639.80	606.12
640.14	603.73
640.49	601.19
640.83	598.80
641.17	596.56
641.52	593.82
641.86	591.09
642.20	588.72
642.55	586.18
642.89	583.57
643.23	581.36
643.58	579.23
643.92	576.83
644.26	574.40
644.61	572.00
644.95	569.63
645.29	567.01
645.64	564.21
645.98	561.54
646.32	559.37
646.66	556.54
647.01	554.06
647.35	551.59
647.69	549.17
648.04	546.78
648.38	544.20
648.72	541.74
649.06	539.26
649.41	536.78
649.75	534.18
650.09	531.66
650.43	528.94
650.78	526.17
651.12	523.37
651.46	520.87
651.80	518.45
652.14	515.99
652.49	513.73
652.83	511.30
653.17	508.86
653.51	506.26
653.85	503.86
654.20	501.46
654.54	498.90
654.88	496.37
655.22	493.81
655.56	491.20
655.90	488.87
656.25	486.65
656.59	484.63
656.93	482.45
657.27	480.23
657.61	477.82
657.95	475.78
658.29	473.74
658.64	471.43
658.98	469.09
659.32	466.68
659.66	464.43
660.00	462.25
660.34	460.07
660.68	457.90
661.02	455.66
661.36	453.53
661.70	451.37
662.05	449.53
662.39	447.65
662.73	445.80
663.07	444.12
663.41	442.27
663.75	440.01
664.09	438.04
664.43	436.02
664.77	434.28
665.11	432.35
665.45	430.47
665.79	428.65
666.13	426.75
666.47	425.05
666.81	423.03
667.15	421.14
667.49	419.31
667.83	417.54
668.17	415.77
668.51	413.98
668.85	412.34
669.19	410.50
669.53	408.72
669.87	406.92
670.21	405.13
670.55	403.27
670.89	401.76
671.23	400.25
671.57	398.75
671.91	397.15
672.25	395.54
672.58	394.02
672.92	392.38
673.26	390.71
673.60	389.27
673.94	387.87
674.28	386.56
674.62	385.44
674.96	384.10
675.30	382.72
675.64	381.26
675.97	380.02
676.31	378.72
676.65	377.37
676.99	376.13
677.33	374.63
677.67	373.30
678.01	371.87
678.34	370.44
678.68	369.05
679.02	367.90
679.36	366.55
679.70	365.25
680.04	364.12
680.37	362.99
680.71	361.70
681.05	360.59
681.39	359.37
681.73	358.09
682.06	356.97
682.40	355.84
682.74	354.90
683.08	353.78
683.42	352.67
683.75	351.63
684.09	350.59
684.43	349.50
684.77	348.40
685.10	347.33
685.44	346.29
685.78	345.26
686.12	343.97
686.45	342.95
686.79	341.71
687.13	340.72
687.46	339.66
687.80	338.68
688.14	337.56
688.48	336.50
688.81	335.47
689.15	334.36
689.49	333.45
689.82	332.25
690.16	330.97
690.50	329.88
690.83	328.78
691.17	327.69
691.51	326.68
691.84	325.80
692.18	324.75
692.52	323.64
692.85	322.56
693.19	321.63
693.52	320.59
693.86	319.75
694.20	318.70
694.53	317.78
694.87	316.72
695.21	315.69
695.54	314.72
695.88	313.71
696.21	312.72
696.55	311.76
696.88	310.94
697.22	310.11
697.56	309.27
697.89	308.31
698.23	307.40
698.56	306.53
698.90	305.63
699.23	304.65
699.57	303.78
699.90	302.94
700.24	302.07
700.58	301.19
700.91	300.36
701.25	299.61
701.58	298.93
701.92	298.10
702.25	297.41
702.59	296.59
702.92	295.72
703.26	294.95
703.59	294.17
703.93	293.60
704.26	292.81
704.60	292.18
704.93	291.46
705.26	290.64
705.60	290.05
705.93	289.36
706.27	288.84
706.60	288.35
706.94	287.74
707.27	287.10
707.61	286.52
707.94	286.01
708.27	285.22
708.61	284.40
708.94	283.75
709.28	283.05
709.61	282.43
709.94	281.90
710.28	281.32
710.61	280.84
710.95	279.97
711.28	279.53
711.61	278.91
711.95	278.28
712.28	277.81
712.61	277.04
712.95	276.42
713.28	275.93
713.61	275.24
713.95	274.74
714.28	274.19
714.61	273.70
714.95	273.13
715.28	272.56
715.61	272.07
715.95	271.67
716.28	271.28
716.61	270.80
716.95	270.35
717.28	269.69
717.61	269.23
717.94	268.90
718.28	268.36
718.61	267.83
718.94	267.42
719.27	266.96
719.61	266.69
719.94	266.26
720.27	265.79
720.60	265.40
720.94	265.03
721.27	264.75
721.60	264.34
721.93	263.97
722.27	263.80
722.60	263.51
722.93	263.13
723.26	262.72
723.59	262.42
723.93	262.04
724.26	261.88
724.59	261.50
724.92	261.17
725.25	260.89
725.59	260.64
725.92	260.40
726.25	260.10
726.58	259.81
726.91	259.57
727.24	259.32
727.57	259.03
727.91	258.67
728.24	258.41
728.57	258.15
728.90	257.81
729.23	257.44
729.56	257.21
729.89	256.99
730.22	256.85
730.55	256.54
730.89	256.23
731.22	255.95
731.55	255.72
731.88	255.44
732.21	255.16
732.54	254.88
732.87	254.59
733.20	254.42
733.53	254.26
733.86	254.06
734.19	253.82
734.52	253.60
734.85	253.45
735.18	253.12
735.51	252.98
735.84	252.86
736.17	252.61
736.50	252.29
736.83	252.24
737.16	251.97
737.49	251.84
737.82	251.58
738.15	251.43
738.48	251.12
738.81	250.95
739.14	250.79
739.47	250.54
739.80	250.42
740.13	250.04
740.46	249.75
740.79	249.50
741.12	249.29
741.45	249.08
741.78	248.87
742.11	248.75
742.44	248.33
742.77	247.99
743.10	247.74
743.43	247.53
743.75	247.05
744.08	247.07
744.41	246.76
744.74	246.62
745.07	246.30
745.40	246.13
745.73	245.93
746.06	245.58
746.39	245.34
746.71	245.11
747.04	244.97
747.37	244.67
747.70	244.46
748.03	244.17
748.36	243.98
748.68	243.76
749.01	243.46
749.34	243.44
749.67	243.41
750.00	243.29
750.33	243.24
750.65	243.03
750.98	242.52
751.31	242.40
751.64	242.16
751.97	242.20
752.29	242.00
752.62	241.79
752.95	241.71
753.28	241.57
753.60	241.34
753.93	241.32
754.26	241.25
754.59	241.10
754.91	240.97
755.24	240.81
755.57	240.58
755.90	240.43
756.22	240.21
756.55	239.96
756.88	239.86
757.20	239.58
757.53	239.59
757.86	239.52
758.19	239.38
758.51	239.38
758.84	239.13
759.17	239.03
759.49	238.97
759.82	238.97
760.15	238.90
760.47	238.80
760.80	238.60
761.13	238.47
761.45	238.37
761.78	238.26
762.11	238.10
762.43	238.03
762.76	237.97
763.08	237.90
763.41	237.86
763.74	237.63
764.06	237.52
764.39	237.38
764.71	237.30
765.04	237.17
765.37	237.00
765.69	236.97
766.02	236.91
766.34	236.80
766.67	236.62
767.00	236.52
767.32	236.69
767.65	236.76
767.97	236.66
768.30	236.66
768.62	236.59
768.95	236.53
769.27	236.45
769.60	236.40
769.92	236.37
770.25	236.23
770.57	236.26
770.90	236.21
771.22	236.09
771.55	236.02
771.87	236.07
772.20	236.08
772.52	236.20
772.85	236.38
773.17	236.27
773.50	236.23
773.82	236.17
774.15	236.00
774.47	235.83
774.80	235.72
775.12	235.57
775.45	235.52
775.77	235.44
776.09	235.45
776.42	235.38
776.74	235.38
777.07	235.33
777.39	235.29
777.72	235.27
778.04	235.24
778.36	235.24
778.69	235.16
779.01	235.02
779.33	234.70
779.66	234.33
779.98	234.25
780.31	234.14
780.63	234.11
780.95	234.00
781.28	233.94
781.60	233.96
781.92	233.96
782.25	233.87
782.57	233.86
782.89	233.80
783.22	233.70
783.54	233.47
783.86	233.46
784.19	233.35
784.51	233.35
784.83	233.25
785.16	233.12
785.48	233.08
785.80	233.14
786.12	233.05
786.45	232.96
786.77	232.89
787.09	232.81
787.42	232.79
787.74	232.81
788.06	232.67
788.38	232.55
788.71	232.48
789.03	232.43
789.35	232.44
789.67	232.28
789.99	232.15
790.32	232.10
790.64	232.03
790.96	232.01
791.28	231.76
791.61	231.63
791.93	231.57
792.25	231.34
792.57	231.35
792.89	231.28
793.21	231.35
793.54	231.29
793.86	231.28
794.18	231.20
794.50	231.02
794.82	230.93
795.14	230.93
795.47	230.91
795.79	230.90
796.11	230.72
796.43	230.65
796.75	230.75
797.07	230.77
797.39	230.71
797.71	230.62
798.04	230.69
798.36	230.69
798.68	230.60
799.00	230.60
799.32	230.43
799.64	230.47
799.96	230.40
800.28	230.44
800.60	230.33
800.92	230.33
801.24	230.29
801.56	230.35
801.89	230.28
802.21	230.12
802.53	230.01
802.85	229.99
803.17	230.10
803.49	230.05
803.81	230.00
804.13	229.90
804.45	229.79
804.77	229.79
805.09	229.84
805.41	229.83
805.73	229.84
806.05	229.90
806.37	229.95
806.69	229.95
807.01	229.88
807.33	229.96
807.65	229.92
807.97	230.06
808.28	230.01
808.60	229.99
808.92	229.98
809.24	230.09
809.56	230.17
809.88	230.10
810.20	229.98
810.52	230.00
810.84	230.01
811.16	230.12
811.48	230.10
811.80	230.19
812.12	230.24
812.43	230.33
812.75	230.29
813.07	230.19
813.39	230.23
813.71	230.17
814.03	230.10
814.35	230.02
814.67	229.90
814.98	229.90
815.30	229.93
815.62	229.95
815.94	229.79
816.26	229.84
816.58	229.81
816.89	229.89
817.21	229.79
817.53	229.81
817.85	229.71
818.17	229.77
818.48	229.69
818.80	229.75
819.12	229.68
819.44	229.59
819.76	229.63
820.07	229.61
820.39	229.66
820.71	229.77
821.03	229.78
821.34	229.74
821.66	229.74
821.98	229.70
822.30	229.76
822.61	229.89
822.93	229.82
823.25	229.84
823.57	229.83
823.88	229.91
824.20	229.88
824.52	230.00
824.83	229.87
825.15	229.87
825.47	229.82
825.79	229.81
826.10	229.87
826.42	229.82
826.74	229.69
827.05	229.68
827.37	229.59
827.69	229.50
828.00	229.58
828.32	229.57
828.64	229.59
828.95	229.54
829.27	229.49
829.58	229.45
829.90	229.42
830.22	229.40
830.53	229.28
830.85	229.24
831.17	229.10
831.48	229.10
831.80	229.02
832.11	228.94
832.43	228.89
832.75	228.76
833.06	228.89
833.38	228.88
833.69	228.93
834.01	228.84
834.32	228.80
834.64	228.78
834.96	228.77
835.27	228.73
835.59	228.73
835.90	228.61
836.22	228.54
836.53	228.50
836.85	228.50
837.16	228.67
837.48	228.68
837.79	228.79
838.11	228.82
838.42	228.75
838.74	228.75
839.05	228.70
839.37	228.78
839.68	228.55
840.00	228.53
840.31	228.50
840.63	228.56
840.94	228.60
841.26	228.53
841.57	228.53
841.88	228.54
842.20	228.45
842.51	228.51
842.83	228.61
843.14	228.78
843.46	228.80
843.77	228.78
844.08	228.80
844.40	228.80
844.71	228.76
845.03	228.87
845.34	228.80
845.65	228.79
845.97	228.75
846.28	228.78
846.60	228.78
846.91	228.69
847.22	228.77
847.54	228.83
847.85	228.80
848.16	228.71
848.48	228.63
848.79	228.71
849.10	228.75
849.42	228.77
849.73	228.60
850.04	228.59
850.36	228.56
850.67	228.58
850.98	228.49
851.30	228.57
851.61	228.54
851.92	228.61
852.23	228.82
852.55	228.89
852.86	228.89
853.17	229.05
853.49	229.15
853.80	229.14
854.11	229.15
854.42	229.35
854.74	229.48
855.05	229.48
855.36	229.43
855.67	229.44
855.99	229.50
856.30	229.75
856.61	229.75
856.92	229.65
857.23	229.65
857.55	229.75
857.86	229.65
858.17	229.70
858.48	229.67
858.79	229.57
859.11	229.58
859.42	229.63
859.73	229.60
860.04	229.59
860.35	229.61
860.66	229.54
860.98	229.47
861.29	229.49
861.60	229.51
861.91	229.57
862.22	229.57
862.53	229.44
862.84	229.19
863.16	229.24
863.47	229.20
863.78	229.16
864.09	229.09
864.40	229.08
864.71	229.03
865.02	229.10
865.33	229.08
865.64	229.01
865.95	228.91
866.27	228.93
866.58	228.89
866.89	228.84
867.20	228.84
867.51	228.85
867.82	228.84
868.13	228.90
868.44	228.81
868.75	228.81
869.06	228.86
869.37	228.88
869.68	228.82
869.99	228.93
870.30	228.98
870.61	229.06
870.92	229.10
871.23	229.17
871.54	229.15
871.85	229.17
872.16	229.15
872.47	229.14
872.78	229.10
873.09	229.16
873.40	229.19
873.71	229.21
874.02	229.04
874.33	228.89
874.64	228.77
874.95	228.79
875.26	228.67
875.56	228.72
875.87	228.64
876.18	228.56
876.49	228.74
876.80	228.67
877.11	228.51
877.42	228.46
877.73	228.31
878.04	228.31
878.35	228.28
878.66	228.20
878.96	228.22
879.27	228.14
879.58	228.03
879.89	227.89
880.20	227.91
880.51	227.91
880.82	227.96
881.12	228.00
881.43	227.97
881.74	227.93
882.05	227.82
882.36	227.90
882.67	227.94
882.97	227.70
883.28	227.69
883.59	227.71
883.90	227.76
884.21	227.84
884.51	227.86
884.82	227.89
885.13	227.97
885.44	228.00
885.74	228.02
886.05	228.09
886.36	228.12
886.67	228.06
886.98	228.14
887.28	228.24
887.59	228.20
887.90	228.26
888.20	228.31
888.51	228.35
888.82	228.24
889.13	228.27
889.43	228.41
889.74	228.39
890.05	228.41
890.35	228.41
890.66	228.46
890.97	228.34
891.28	228.30
891.58	228.31
891.89	228.31
892.20	228.25
892.50	228.16
892.81	228.16
893.12	228.21
893.42	228.16
893.73	228.16
894.04	228.21
894.34	228.23
894.65	228.26
894.95	228.29
895.26	228.30
895.57	228.43
895.87	228.29
896.18	228.38
896.48	228.37
896.79	228.33
897.10	228.30
897.40	228.42
897.71	228.48
898.01	228.44
898.32	228.42
898.63	228.45
898.93	228.61
899.24	228.56
899.54	228.52
899.85	228.55
900.15	228.55
900.46	228.55
900.76	228.49
901.07	228.48
901.38	228.47
901.68	228.48
901.99	228.42
902.29	228.48
902.60	228.48
902.90	228.53
903.21	228.53
903.51	228.41
903.82	228.44
904.12	228.40
904.43	228.48
904.73	228.57
905.03	228.61
905.34	228.69
905.64	228.72
905.95	228.68
906.25	228.62
906.56	228.46
906.86	228.47
907.17	228.49
907.47	228.49
907.77	228.43
908.08	228.42
908.38	228.40
908.69	228.34
908.99	228.26
909.30	228.20
909.60	228.23
909.90	228.35
910.21	228.21
910.51	228.17
910.81	228.15
911.12	228.09
911.42	228.02
911.73	227.83
912.03	227.86
912.33	227.94
912.64	228.02
912.94	228.07
913.24	227.97
913.55	227.96
913.85	227.94
914.15	227.96
914.46	228.01
914.76	227.92
915.06	227.90
915.37	227.95
915.67	228.00
915.97	227.99
916.27	227.93
916.58	228.00
916.88	228.00
917.18	227.95
917.49	228.06
917.79	228.13
918.09	228.20
918.39	228.22
918.70	228.10
919.00	228.04
919.30	228.19
919.60	228.33
919.91	228.36
920.21	228.49
920.51	228.47
920.81	228.48
921.12	228.49
921.42	228.52
921.72	228.53
922.02	228.48
922.32	228.52
922.63	228.57
922.93	228.61
923.23	228.56
923.53	228.61
923.83	228.50
924.13	228.42
924.44	228.40
924.74	228.49
925.04	228.53
925.34	228.57
925.64	228.48
925.94	228.51
926.24	228.45
926.55	228.36
926.85	228.39
927.15	228.43
927.45	228.45
927.75	228.45
928.05	228.35
928.35	228.38
928.65	228.31
928.95	228.31
929.26	228.20
929.56	228.26
929.86	228.30
930.16	228.28
930.46	228.35
930.76	228.37
931.06	228.29
931.36	228.35
931.66	228.30
931.96	228.40
932.26	228.33
932.56	228.42
932.86	228.40
933.16	228.43
933.46	228.35
933.76	228.31
934.06	228.30
934.36	228.47
934.66	228.38
934.96	228.42
935.26	228.41
935.56	228.53
935.86	228.52
936.16	228.39
936.46	228.38
936.76	228.35
937.06	228.27
937.36	228.20
937.66	228.23
937.96	228.31
938.26	228.23
938.56	228.19
938.86	228.09
939.16	228.09
939.46	228.10
939.76	228.08
940.06	228.10
940.35	228.14
940.65	228.02
940.95	228.10
941.25	228.11
941.55	228.07
941.85	227.94
942.15	228.00
942.45	228.08
942.75	228.10
943.04	228.09
943.34	228.22
943.64	228.26
943.94	228.18
944.24	228.13
944.54	228.17
944.84	228.22
945.13	228.27
945.43	228.37
945.73	228.38
946.03	228.40
946.33	228.42
946.62	228.34
946.92	228.36
947.22	228.32
947.52	228.33
947.82	228.38
948.11	228.48
948.41	228.50
948.71	228.40
949.01	228.53
949.31	228.52
949.60	228.45
949.90	228.50
950.20	228.56
950.50	228.61
950.79	228.57
951.09	228.56
951.39	228.58
951.69	228.50
951.98	228.52
952.28	228.57
952.58	228.60
952.87	228.75
953.17	228.84
953.47	228.90
953.76	228.86
954.06	228.87
954.36	228.81
954.66	228.71
954.95	228.90
955.25	228.80
955.55	228.84
955.84	228.80
956.14	228.76
956.44	228.73
956.73	228.62
957.03	228.62
957.32	228.63
957.62	228.59
957.92	228.54
958.21	228.44
958.51	228.54
958.81	228.54
959.10	228.32
959.40	228.23
959.69	228.13
959.99	228.20
960.29	228.17
960.58	228.17
960.88	228.27
961.17	228.07
961.47	228.01
961.76	227.84
962.06	227.77
962.36	227.70
962.65	227.71
962.95	227.78
963.24	227.68
963.54	227.67
963.83	227.69
964.13	227.71
964.42	227.67
964.72	227.40
965.01	227.29
965.31	227.34
965.60	227.32
965.90	227.52
966.19	227.39
966.49	227.33
966.78	227.23
967.08	227.14
967.37	227.28
967.67	227.30
967.96	227.45
968.26	227.52
968.55	227.60
968.85	227.58
969.14	227.44
969.43	227.50
969.73	227.43
970.02	227.39
970.32	227.36
970.61	227.39
970.91	227.46
971.20	227.48
971.49	227.45
971.79	227.45
972.08	227.33
972.38	227.36
972.67	227.40
972.96	227.53
973.26	227.44
973.55	227.41
973.85	227.40
974.14	227.40
974.43	227.51
974.73	227.43
975.02	227.39
975.31	227.48
975.61	227.55
975.90	227.59
976.19	227.68
976.49	227.77
976.78	227.81
977.07	227.79
977.37	227.93
977.66	228.04
977.95	228.12
978.24	228.11
978.54	228.17
978.83	228.15
979.12	228.11
979.42	228.22
979.71	228.22
980.00	228.29
980.29	228.24
980.59	228.18
980.88	228.33
981.17	228.34
981.46	228.31
981.76	228.31
982.05	228.40
982.34	228.35
982.63	228.42
982.93	228.48
983.22	228.65
983.51	228.61
983.80	228.60
984.09	228.65
984.39	228.65
984.68	228.60
984.97	228.60
985.26	228.67
985.55	228.60
985.85	228.61
986.14	228.54
986.43	228.58
986.72	228.54
987.01	228.41
987.30	228.45
987.59	228.51
987.89	228.47
988.18	228.35
988.47	228.26
988.76	228.16
989.05	228.10
989.34	228.05
989.63	228.10
989.92	228.10
990.22	228.03
990.51	228.08
990.80	228.21
991.09	228.25
991.38	228.08
991.67	228.11
991.96	228.01
992.25	228.11
992.54	228.04
992.83	228.07
993.12	228.14
993.41	228.07
993.70	228.11
993.99	228.10
994.28	228.19
994.58	228.28
994.87	228.21
995.16	228.17
995.45	228.05
995.74	227.93
996.03	227.93
996.32	227.93
996.61	227.83
996.90	227.62
997.19	227.67
997.48	227.78
997.77	227.76
998.06	227.74
998.34	227.71
998.63	227.80
998.92	227.80
999.21	227.67
999.50	227.67
999.79	227.60
1000.08	227.60
1000.37	227.52
1000.66	227.39
1000.95	227.42
1001.24	227.48
1001.53	227.50
1001.82	227.42
1002.11	227.37
1002.40	227.23
1002.68	227.36
1002.97	227.55
1003.26	227.43
1003.55	227.52
1003.84	227.46
1004.13	227.47
1004.42	227.38
1004.71	227.37
1004.99	227.23
1005.28	227.32
1005.57	227.38
1005.86	227.33
1006.15	227.25
1006.44	227.24
1006.72	227.34
1007.01	227.35
1007.30	227.30
1007.59	227.24
1007.88	227.28
1008.17	227.30
1008.45	227.35
1008.74	227.22
1009.03	227.23
1009.32	227.27
1009.60	227.13
1009.89	227.13
1010.18	227.10
1010.47	227.18
1010.76	227.16
1011.04	227.22
1011.33	227.23
1011.62	227.29
1011.91	227.31
1012.19	227.42
1012.48	227.43
1012.77	227.51
1013.05	227.58
1013.34	227.61
1013.63	227.59
1013.92	227.69
1014.20	227.68
1014.49	227.73
1014.78	227.76
1015.06	227.56
1015.35	227.55
1015.64	227.57
1015.92	227.74
1016.21	227.86
1016.50	227.81
1016.78	227.80
1017.07	227.89
1017.36	228.01
1017.64	227.99
1017.93	228.06
1018.22	228.01
1018.50	228.05
1018.79	228.07
1019.08	228.09
1019.36	228.13
1019.65	228.24
1019.93	228.30
1020.22	228.30
1020.51	228.37
1020.79	228.43
1021.08	227.60
1021.36	227.80
1021.65	229.50
1021.94	229.50
1022.22	229.10
1022.51	227.80
1022.79	229.80
1023.08	227.70
1023.36	229.80
1023.65	228.70
>>>>>End Processed Spectral Data<<<<<
