SpectraSuite Data File
++++++++++++++++++++++++++++++++++++
Date: Fri Feb 01 14:34:07 EST 2013
User: group
Dark Spectrum Present: No
Reference Spectrum Present: No
Number of Sampled Component Spectra: 1
Spectrometers: USB2E7196
Integration Time (usec): 70000 (USB2E7196)
Spectra Averaged: 10 (USB2E7196)
Boxcar Smoothing: 10 (USB2E7196)
Correct for Electrical Dark: No (USB2E7196)
Strobe/Lamp Enabled: No (USB2E7196)
Correct for Detector Non-linearity: No (USB2E7196)
Correct for Stray Light: No (USB2E7196)
Number of Pixels in Processed Spectrum: 2048
>>>>>Begin Processed Spectral Data<<<<<
339.09	0.00
339.48	217.40
339.86	217.10
340.24	219.40
340.63	218.90
341.01	224.50
341.39	222.60
341.78	224.50
342.16	226.20
342.54	227.10
342.93	214.82
343.31	225.65
343.69	226.16
344.07	226.68
344.46	227.09
344.84	227.54
345.22	227.82
345.60	228.10
345.99	228.35
346.37	228.44
346.75	228.55
347.13	228.58
347.52	228.58
347.90	228.55
348.28	228.65
348.66	228.78
349.05	228.82
349.43	228.90
349.81	228.90
350.19	228.97
350.57	229.03
350.96	229.05
351.34	229.07
351.72	229.07
352.10	229.14
352.48	229.12
352.87	229.24
353.25	229.22
353.63	229.35
354.01	229.40
354.39	229.42
354.77	229.42
355.15	229.57
355.54	229.68
355.92	229.77
356.30	229.78
356.68	229.98
357.06	229.92
357.44	229.94
357.82	229.99
358.20	229.95
358.58	230.02
358.97	229.97
359.35	230.04
359.73	230.16
360.11	230.31
360.49	230.41
360.87	230.48
361.25	230.45
361.63	230.49
362.01	230.44
362.39	230.40
362.77	230.50
363.15	230.51
363.53	230.47
363.91	230.45
364.29	230.42
364.67	230.22
365.05	230.44
365.43	230.45
365.81	230.45
366.19	230.58
366.57	230.57
366.95	230.62
367.33	230.74
367.71	230.64
368.09	230.57
368.47	230.59
368.85	230.47
369.23	230.55
369.61	230.42
369.99	230.56
370.37	230.70
370.75	230.73
371.13	230.65
371.51	230.60
371.89	230.55
372.27	230.48
372.65	230.44
373.03	230.27
373.41	230.20
373.78	230.16
374.16	230.01
374.54	230.04
374.92	229.94
375.30	229.80
375.68	229.80
376.06	229.77
376.44	229.71
376.82	229.63
377.19	229.49
377.57	229.39
377.95	229.21
378.33	229.00
378.71	228.81
379.09	228.74
379.47	228.80
379.84	228.80
380.22	228.71
380.60	228.53
380.98	228.46
381.36	228.31
381.73	228.19
382.11	228.15
382.49	227.90
382.87	227.90
383.25	227.85
383.62	227.98
384.00	227.88
384.38	227.81
384.76	227.85
385.13	227.92
385.51	227.97
385.89	227.86
386.27	227.88
386.64	227.76
387.02	227.61
387.40	227.45
387.78	227.36
388.15	227.36
388.53	227.40
388.91	227.36
389.29	227.41
389.66	227.48
390.04	227.45
390.42	227.55
390.79	227.54
391.17	227.50
391.55	227.37
391.92	227.43
392.30	227.50
392.68	227.48
393.05	227.49
393.43	227.49
393.81	227.54
394.18	227.53
394.56	227.61
394.94	227.89
395.31	227.91
395.69	227.95
396.06	228.09
396.44	228.13
396.82	228.18
397.19	228.32
397.57	228.33
397.95	228.44
398.32	228.59
398.70	228.69
399.07	228.90
399.45	228.96
399.82	229.00
400.20	228.98
400.58	229.06
400.95	229.13
401.33	229.29
401.70	229.70
402.08	229.99
402.45	230.26
402.83	230.39
403.20	230.79
403.58	231.06
403.95	231.36
404.33	231.72
404.71	232.09
405.08	232.61
405.46	232.95
405.83	233.31
406.21	233.70
406.58	234.20
406.96	234.65
407.33	235.17
407.70	235.64
408.08	236.41
408.45	237.11
408.83	237.73
409.20	238.32
409.58	238.84
409.95	239.45
410.33	240.23
410.70	241.00
411.08	241.81
411.45	242.74
411.82	243.74
412.20	244.74
412.57	245.99
412.95	246.94
413.32	248.14
413.69	249.40
414.07	250.68
414.44	252.09
414.82	253.66
415.19	255.40
415.56	257.11
415.94	258.92
416.31	260.97
416.68	263.22
417.06	265.60
417.43	267.83
417.81	270.57
418.18	273.15
418.55	275.99
418.93	278.99
419.30	282.07
419.67	285.21
420.04	288.69
420.42	292.23
420.79	296.16
421.16	300.35
421.54	304.61
421.91	308.96
422.28	313.33
422.66	318.05
423.03	322.54
423.40	327.57
423.77	332.83
424.15	338.05
424.52	343.31
424.89	349.33
425.26	355.21
425.64	360.73
426.01	366.80
426.38	373.10
426.75	379.41
427.13	386.01
427.50	392.92
427.87	399.90
428.24	406.85
428.61	413.79
428.99	421.15
429.36	429.35
429.73	437.62
430.10	445.75
430.47	453.63
430.85	462.26
431.22	471.10
431.59	480.26
431.96	489.28
432.33	499.24
432.70	508.96
433.08	520.25
433.45	530.77
433.82	541.42
434.19	553.22
434.56	564.53
434.93	575.52
435.30	586.34
435.68	598.55
436.05	610.48
436.42	622.39
436.79	633.28
437.16	645.02
437.53	657.17
437.90	669.20
438.27	681.47
438.64	693.92
439.01	705.50
439.38	716.16
439.75	726.14
440.13	737.64
440.50	748.50
440.87	757.59
441.24	766.95
441.61	777.30
441.98	784.94
442.35	794.06
442.72	803.34
443.09	812.51
443.46	818.33
443.83	822.37
444.20	825.91
444.57	831.10
444.94	833.78
445.31	836.67
445.68	839.78
446.05	841.70
446.42	841.99
446.79	841.63
447.16	841.22
447.53	841.61
447.90	838.70
448.27	835.50
448.64	830.37
449.01	827.35
449.37	820.60
449.74	814.07
450.11	806.05
450.48	797.08
450.85	787.92
451.22	780.34
451.59	773.33
451.96	766.58
452.33	756.81
452.70	748.33
453.07	737.77
453.43	726.79
453.80	716.25
454.17	705.73
454.54	696.46
454.91	685.91
455.28	675.36
455.65	665.31
456.02	655.11
456.38	646.74
456.75	635.98
457.12	627.12
457.49	618.35
457.86	609.92
458.23	602.60
458.59	594.42
458.96	586.03
459.33	578.64
459.70	571.38
460.07	565.64
460.43	558.69
460.80	552.05
461.17	546.29
461.54	540.40
461.91	534.66
462.27	528.55
462.64	523.65
463.01	518.14
463.38	512.96
463.74	507.84
464.11	503.19
464.48	499.15
464.85	494.58
465.21	490.99
465.58	487.27
465.95	482.71
466.32	479.05
466.68	475.34
467.05	471.72
467.42	467.90
467.78	463.84
468.15	460.08
468.52	457.42
468.88	454.00
469.25	450.65
469.62	448.13
469.98	445.35
470.35	442.62
470.72	440.21
471.08	437.66
471.45	435.42
471.82	432.94
472.18	430.40
472.55	428.67
472.92	426.77
473.28	424.81
473.65	423.03
474.02	421.12
474.38	419.56
474.75	418.10
475.11	416.60
475.48	415.41
475.85	414.44
476.21	413.48
476.58	412.50
476.94	411.91
477.31	411.16
477.67	410.40
478.04	409.70
478.41	409.21
478.77	408.64
479.14	408.27
479.50	408.11
479.87	408.04
480.23	407.93
480.60	407.65
480.96	407.60
481.33	407.95
481.69	408.14
482.06	408.20
482.42	408.24
482.79	408.40
483.15	409.06
483.52	409.79
483.88	410.25
484.25	411.02
484.61	411.70
484.98	412.55
485.34	413.56
485.71	414.89
486.07	416.25
486.44	417.68
486.80	419.03
487.17	420.37
487.53	421.93
487.90	423.73
488.26	425.65
488.62	427.63
488.99	429.55
489.35	431.67
489.72	434.05
490.08	436.63
490.44	439.28
490.81	441.69
491.17	444.30
491.54	447.08
491.90	449.79
492.26	452.75
492.63	455.96
492.99	459.23
493.36	462.50
493.72	466.07
494.08	469.57
494.45	473.21
494.81	477.17
495.17	481.03
495.54	484.92
495.90	488.97
496.26	493.02
496.63	497.29
496.99	501.80
497.35	506.26
497.72	510.83
498.08	515.40
498.44	520.24
498.80	525.13
499.17	530.00
499.53	534.99
499.89	540.18
500.26	544.94
500.62	549.99
500.98	555.20
501.34	560.25
501.71	565.48
502.07	570.86
502.43	575.97
502.79	581.20
503.16	586.59
503.52	591.97
503.88	597.27
504.24	602.54
504.60	607.87
504.97	613.38
505.33	618.79
505.69	624.61
506.05	629.95
506.41	635.14
506.78	640.32
507.14	645.73
507.50	651.09
507.86	656.69
508.22	662.31
508.59	667.69
508.95	673.16
509.31	678.55
509.67	683.81
510.03	689.14
510.39	694.45
510.75	699.53
511.12	704.66
511.48	709.84
511.84	714.70
512.20	719.65
512.56	724.59
512.92	729.41
513.28	734.07
513.64	738.66
514.00	743.30
514.37	748.00
514.73	752.42
515.09	756.61
515.45	760.52
515.81	764.67
516.17	768.59
516.53	772.44
516.89	776.34
517.25	780.05
517.61	783.79
517.97	787.26
518.33	790.63
518.69	794.10
519.05	797.77
519.41	801.20
519.77	804.57
520.13	807.81
520.49	811.01
520.85	814.00
521.21	817.17
521.57	820.48
521.93	823.49
522.29	826.62
522.65	829.54
523.01	832.37
523.37	834.71
523.73	837.33
524.09	840.09
524.45	842.68
524.81	845.30
525.17	848.02
525.53	851.20
525.89	853.95
526.25	856.78
526.61	858.90
526.97	861.68
527.33	864.25
527.68	866.90
528.04	869.44
528.40	871.99
528.76	874.41
529.12	876.96
529.48	879.62
529.84	881.78
530.20	884.58
530.56	887.57
530.91	890.49
531.27	893.01
531.63	895.37
531.99	897.89
532.35	900.43
532.71	902.61
533.07	904.86
533.42	907.40
533.78	909.66
534.14	912.04
534.50	914.28
534.86	916.53
535.21	918.40
535.57	921.09
535.93	923.40
536.29	925.90
536.65	928.02
537.00	930.10
537.36	932.84
537.72	935.06
538.08	937.27
538.44	939.41
538.79	941.93
539.15	944.05
539.51	946.40
539.87	949.11
540.22	951.65
540.58	954.26
540.94	956.57
541.29	958.85
541.65	961.42
542.01	964.06
542.37	966.50
542.72	969.24
543.08	971.14
543.44	973.80
543.79	975.93
544.15	978.67
544.51	981.59
544.87	983.93
545.22	986.27
545.58	988.42
545.94	990.34
546.29	992.73
546.65	995.26
547.01	997.46
547.36	999.36
547.72	1001.58
548.07	1003.50
548.43	1005.67
548.79	1008.17
549.14	1010.39
549.50	1012.06
549.86	1014.20
550.21	1016.42
550.57	1018.88
550.92	1020.62
551.28	1022.75
551.64	1024.62
551.99	1026.63
552.35	1028.55
552.70	1030.40
553.06	1032.50
553.41	1035.06
553.77	1037.02
554.13	1039.04
554.48	1041.22
554.84	1043.45
555.19	1045.45
555.55	1047.52
555.90	1049.16
556.26	1050.64
556.61	1052.43
556.97	1054.73
557.32	1056.40
557.68	1058.24
558.03	1059.96
558.39	1061.74
558.74	1064.03
559.10	1065.99
559.45	1067.71
559.81	1069.72
560.16	1071.70
560.52	1073.44
560.87	1075.34
561.23	1076.81
561.58	1078.59
561.94	1080.26
562.29	1081.52
562.64	1082.93
563.00	1084.33
563.35	1086.70
563.71	1088.75
564.06	1090.59
564.42	1091.87
564.77	1093.63
565.12	1095.16
565.48	1096.61
565.83	1097.89
566.19	1099.03
566.54	1099.90
566.89	1101.11
567.25	1102.53
567.60	1104.06
567.96	1105.36
568.31	1106.30
568.66	1107.38
569.02	1108.34
569.37	1109.06
569.72	1110.00
570.08	1110.97
570.43	1111.83
570.78	1112.04
571.14	1112.19
571.49	1112.40
571.84	1113.36
572.20	1113.57
572.55	1113.60
572.90	1113.89
573.26	1114.36
573.61	1114.36
573.96	1114.22
574.31	1113.55
574.67	1112.46
575.02	1111.54
575.37	1111.05
575.72	1110.05
576.08	1109.83
576.43	1109.06
576.78	1108.50
577.13	1108.11
577.49	1107.60
577.84	1106.93
578.19	1106.09
578.54	1105.34
578.90	1104.33
579.25	1102.99
579.60	1101.97
579.95	1101.00
580.30	1099.35
580.66	1097.70
581.01	1096.14
581.36	1094.95
581.71	1093.99
582.06	1093.01
582.42	1091.47
582.77	1089.73
583.12	1088.27
583.47	1086.50
583.82	1085.16
584.17	1083.36
584.53	1081.39
584.88	1079.42
585.23	1077.58
585.58	1075.75
585.93	1073.83
586.28	1072.35
586.63	1070.70
586.98	1069.04
587.34	1067.00
587.69	1065.58
588.04	1063.81
588.39	1061.99
588.74	1059.59
589.09	1057.48
589.44	1054.98
589.79	1053.10
590.14	1051.31
590.49	1049.58
590.84	1047.44
591.19	1045.12
591.54	1042.26
591.89	1039.51
592.25	1037.03
592.60	1034.07
592.95	1031.11
593.30	1028.44
593.65	1025.41
594.00	1022.39
594.35	1019.67
594.70	1016.49
595.05	1013.51
595.40	1010.63
595.75	1007.82
596.10	1005.47
596.45	1002.52
596.80	1000.17
597.15	997.36
597.50	994.45
597.85	991.55
598.19	989.03
598.54	986.53
598.89	984.13
599.24	981.70
599.59	979.30
599.94	976.76
600.29	974.35
600.64	971.33
600.99	968.20
601.34	965.27
601.69	962.03
602.04	959.51
602.39	956.35
602.74	953.78
603.08	951.24
603.43	948.51
603.78	945.78
604.13	942.91
604.48	939.88
604.83	937.05
605.18	934.14
605.53	930.45
605.87	926.62
606.22	923.62
606.57	920.50
606.92	917.13
607.27	914.28
607.62	911.69
607.96	908.83
608.31	906.24
608.66	903.20
609.01	899.96
609.36	896.59
609.70	892.99
610.05	889.34
610.40	885.84
610.75	882.18
611.10	878.39
611.44	874.55
611.79	871.14
612.14	867.46
612.49	863.31
612.83	859.67
613.18	856.07
613.53	852.60
613.88	848.60
614.22	845.02
614.57	841.00
614.92	836.68
615.27	833.08
615.61	829.46
615.96	825.80
616.31	822.28
616.65	819.12
617.00	816.11
617.35	812.61
617.70	808.80
618.04	805.04
618.39	801.60
618.74	798.09
619.08	794.43
619.43	790.88
619.78	787.75
620.12	784.50
620.47	781.15
620.82	777.57
621.16	774.25
621.51	770.78
621.85	767.42
622.20	763.94
622.55	760.49
622.89	756.89
623.24	753.51
623.59	750.23
623.93	746.70
624.28	743.34
624.62	740.26
624.97	737.20
625.32	734.24
625.66	731.32
626.01	728.20
626.35	725.09
626.70	721.89
627.04	719.13
627.39	715.81
627.73	712.76
628.08	709.48
628.43	706.51
628.77	703.36
629.12	700.18
629.46	697.16
629.81	693.83
630.15	690.62
630.50	687.26
630.84	683.87
631.19	680.42
631.53	677.07
631.88	673.33
632.22	669.74
632.57	666.68
632.91	663.21
633.26	659.82
633.60	656.46
633.95	653.10
634.29	649.70
634.64	647.00
634.98	643.91
635.32	641.11
635.67	638.21
636.01	635.29
636.36	632.18
636.70	629.30
637.05	626.65
637.39	623.83
637.73	621.23
638.08	618.80
638.42	616.33
638.77	613.90
639.11	611.11
639.45	608.53
639.80	605.35
640.14	602.70
640.49	600.13
640.83	597.51
641.17	594.99
641.52	592.10
641.86	588.98
642.20	586.36
642.55	583.56
642.89	580.79
643.23	577.98
643.58	575.54
643.92	572.66
644.26	570.03
644.61	567.61
644.95	564.92
645.29	562.00
645.64	559.05
645.98	556.19
646.32	553.89
646.66	551.38
647.01	548.96
647.35	546.59
647.69	544.17
648.04	541.85
648.38	539.03
648.72	536.34
649.06	533.83
649.41	531.18
649.75	528.43
650.09	525.90
650.43	523.36
650.78	520.48
651.12	518.15
651.46	515.43
651.80	512.82
652.14	510.45
652.49	508.05
652.83	505.72
653.17	503.22
653.51	500.73
653.85	498.15
654.20	495.63
654.54	492.82
654.88	490.16
655.22	487.32
655.56	484.92
655.90	482.80
656.25	480.51
656.59	478.10
656.93	476.01
657.27	473.68
657.61	471.26
657.95	469.37
658.29	467.13
658.64	465.09
658.98	462.76
659.32	460.34
659.66	458.00
660.00	455.71
660.34	453.57
660.68	451.45
661.02	449.34
661.36	447.28
661.70	445.45
662.05	443.69
662.39	441.96
662.73	440.41
663.07	438.40
663.41	436.54
663.75	434.76
664.09	432.75
664.43	430.74
664.77	428.95
665.11	426.98
665.45	425.11
665.79	423.20
666.13	421.38
666.47	419.52
666.81	417.83
667.15	416.10
667.49	414.35
667.83	412.70
668.17	410.90
668.51	409.23
668.85	407.40
669.19	405.67
669.53	403.85
669.87	401.86
670.21	400.20
670.55	398.48
670.89	397.02
671.23	395.63
671.57	394.22
671.91	392.73
672.25	391.20
672.58	389.77
672.92	388.20
673.26	386.70
673.60	385.46
673.94	383.93
674.28	382.47
674.62	381.19
674.96	379.76
675.30	378.59
675.64	377.27
675.97	376.00
676.31	374.57
676.65	373.20
676.99	372.01
677.33	370.74
677.67	369.50
678.01	367.96
678.34	366.62
678.68	365.28
679.02	363.94
679.36	362.68
679.70	361.39
680.04	360.22
680.37	358.98
680.71	357.65
681.05	356.68
681.39	355.62
681.73	354.34
682.06	353.08
682.40	351.91
682.74	350.71
683.08	349.67
683.42	348.55
683.75	347.54
684.09	346.13
684.43	345.03
684.77	343.90
685.10	342.77
685.44	341.62
685.78	340.62
686.12	339.63
686.45	338.57
686.79	337.50
687.13	336.45
687.46	335.40
687.80	334.34
688.14	333.13
688.48	332.11
688.81	331.02
689.15	330.00
689.49	328.87
689.82	327.86
690.16	326.67
690.50	325.60
690.83	324.48
691.17	323.52
691.51	322.46
691.84	321.44
692.18	320.62
692.52	319.62
692.85	318.64
693.19	317.77
693.52	316.86
693.86	315.84
694.20	314.79
694.53	313.75
694.87	312.78
695.21	311.80
695.54	310.72
695.88	309.77
696.21	308.83
696.55	308.05
696.88	307.14
697.22	306.35
697.56	305.52
697.89	304.85
698.23	304.14
698.56	303.27
698.90	302.43
699.23	301.43
699.57	300.60
699.90	299.63
700.24	298.58
700.58	297.66
700.91	296.88
701.25	296.30
701.58	295.77
701.92	295.13
702.25	294.39
702.59	293.76
702.92	293.21
703.26	292.63
703.59	291.82
703.93	291.41
704.26	290.70
704.60	290.13
704.93	289.42
705.26	288.80
705.60	288.23
705.93	287.68
706.27	287.20
706.60	286.60
706.94	286.15
707.27	285.59
707.61	285.07
707.94	284.64
708.27	283.89
708.61	283.10
708.94	282.50
709.28	281.94
709.61	281.27
709.94	280.73
710.28	280.14
710.61	279.65
710.95	278.92
711.28	278.42
711.61	277.76
711.95	277.17
712.28	276.69
712.61	276.12
712.95	275.64
713.28	275.19
713.61	274.72
713.95	274.17
714.28	273.69
714.61	273.20
714.95	272.54
715.28	272.20
715.61	271.80
715.95	271.31
716.28	270.87
716.61	270.61
716.95	270.01
717.28	269.55
717.61	269.08
717.94	268.55
718.28	268.05
718.61	267.69
718.94	267.34
719.27	266.81
719.61	266.42
719.94	266.01
720.27	265.50
720.60	265.12
720.94	264.71
721.27	264.41
721.60	264.05
721.93	263.78
722.27	263.42
722.60	263.17
722.93	262.74
723.26	262.42
723.59	261.90
723.93	261.61
724.26	261.30
724.59	260.94
724.92	260.70
725.25	260.56
725.59	260.19
725.92	259.80
726.25	259.56
726.58	259.20
726.91	258.92
727.24	258.69
727.57	258.31
727.91	257.99
728.24	257.55
728.57	257.29
728.90	256.97
729.23	256.55
729.56	256.25
729.89	256.00
730.22	255.72
730.55	255.52
730.89	255.26
731.22	254.93
731.55	254.76
731.88	254.40
732.21	254.02
732.54	253.80
732.87	253.59
733.20	253.31
733.53	253.15
733.86	252.92
734.19	252.73
734.52	252.59
734.85	252.54
735.18	252.40
735.51	252.22
735.84	252.10
736.17	251.95
736.50	251.74
736.83	251.89
737.16	251.66
737.49	251.44
737.82	251.18
738.15	251.00
738.48	250.62
738.81	250.53
739.14	250.21
739.47	249.90
739.80	249.62
740.13	249.40
740.46	249.16
740.79	248.91
741.12	248.67
741.45	248.42
741.78	248.03
742.11	247.85
742.44	247.52
742.77	247.22
743.10	246.97
743.43	246.69
743.75	246.20
744.08	246.22
744.41	246.11
744.74	245.83
745.07	245.59
745.40	245.52
745.73	245.34
746.06	245.13
746.39	244.93
746.71	244.76
747.04	244.61
747.37	244.34
747.70	244.11
748.03	243.83
748.36	243.60
748.68	243.52
749.01	243.35
749.34	243.20
749.67	243.08
750.00	242.98
750.33	242.90
750.65	242.72
750.98	242.41
751.31	242.14
751.64	242.06
751.97	242.16
752.29	242.00
752.62	241.72
752.95	241.57
753.28	241.45
753.60	241.21
753.93	241.04
754.26	240.86
754.59	240.67
754.91	240.51
755.24	240.46
755.57	240.30
755.90	240.11
756.22	240.00
756.55	239.84
756.88	239.80
757.20	239.59
757.53	239.39
757.86	239.27
758.19	239.06
758.51	238.93
758.84	238.62
759.17	238.49
759.49	238.31
759.82	238.30
760.15	238.23
760.47	238.22
760.80	238.05
761.13	238.09
761.45	238.06
761.78	238.00
762.11	237.91
762.43	237.73
762.76	237.65
763.08	237.52
763.41	237.39
763.74	237.19
764.06	237.06
764.39	237.10
764.71	236.98
765.04	237.08
765.37	236.94
765.69	236.90
766.02	236.82
766.34	236.93
766.67	236.92
767.00	236.90
767.32	236.97
767.65	237.03
767.97	236.91
768.30	236.80
768.62	236.70
768.95	236.58
769.27	236.56
769.60	236.48
769.92	236.48
770.25	236.34
770.57	236.20
770.90	236.00
771.22	235.81
771.55	235.71
771.87	235.59
772.20	235.51
772.52	235.57
772.85	235.63
773.17	235.48
773.50	235.29
773.82	235.13
774.15	234.93
774.47	234.72
774.80	234.69
775.12	234.63
775.45	234.59
775.77	234.61
776.09	234.56
776.42	234.64
776.74	234.58
777.07	234.66
777.39	234.58
777.72	234.66
778.04	234.64
778.36	234.59
778.69	234.57
779.01	234.63
779.33	234.41
779.66	234.19
779.98	234.16
780.31	234.16
780.63	234.26
780.95	234.29
781.28	234.34
781.60	234.30
781.92	234.26
782.25	234.20
782.57	234.11
782.89	234.06
783.22	233.91
783.54	233.81
783.86	233.68
784.19	233.75
784.51	233.82
784.83	233.76
785.16	233.74
785.48	233.66
785.80	233.65
786.12	233.55
786.45	233.55
786.77	233.52
787.09	233.47
787.42	233.31
787.74	233.22
788.06	233.18
788.38	233.11
788.71	232.96
789.03	232.92
789.35	232.86
789.67	232.78
789.99	232.73
790.32	232.65
790.64	232.60
790.96	232.64
791.28	232.53
791.61	232.43
791.93	232.30
792.25	232.14
792.57	232.19
792.89	232.16
793.21	232.08
793.54	231.95
793.86	231.78
794.18	231.77
794.50	231.61
794.82	231.50
795.14	231.43
795.47	231.59
795.79	231.51
796.11	231.42
796.43	231.41
796.75	231.41
797.07	231.44
797.39	231.55
797.71	231.35
798.04	231.22
798.36	231.16
798.68	231.16
799.00	231.22
799.32	231.07
799.64	231.06
799.96	230.98
800.28	231.04
800.60	231.13
800.92	231.06
801.24	231.05
801.56	231.08
801.89	231.02
802.21	230.95
802.53	230.95
802.85	231.09
803.17	231.09
803.49	231.00
803.81	230.90
804.13	230.77
804.45	230.78
804.77	230.83
805.09	230.84
805.41	230.81
805.73	230.80
806.05	230.78
806.37	230.74
806.69	230.84
807.01	230.77
807.33	230.75
807.65	230.76
807.97	230.88
808.28	230.83
808.60	230.90
808.92	230.77
809.24	230.81
809.56	230.65
809.88	230.53
810.20	230.53
810.52	230.70
810.84	230.53
811.16	230.51
811.48	230.44
811.80	230.50
812.12	230.57
812.43	230.55
812.75	230.45
813.07	230.46
813.39	230.45
813.71	230.43
814.03	230.41
814.35	230.37
814.67	230.34
814.98	230.36
815.30	230.35
815.62	230.38
815.94	230.34
816.26	230.39
816.58	230.40
816.89	230.40
817.21	230.19
817.53	230.46
817.85	230.46
818.17	230.53
818.48	230.50
818.80	230.64
819.12	230.68
819.44	230.70
819.76	230.73
820.07	230.77
820.39	230.78
820.71	230.83
821.03	230.86
821.34	230.79
821.66	230.74
821.98	230.75
822.30	230.72
822.61	230.83
822.93	230.73
823.25	230.69
823.57	230.59
823.88	230.72
824.20	230.52
824.52	230.53
824.83	230.48
825.15	230.40
825.47	230.15
825.79	230.02
826.10	230.02
826.42	229.85
826.74	229.73
827.05	229.66
827.37	229.67
827.69	229.63
828.00	229.63
828.32	229.69
828.64	229.55
828.95	229.60
829.27	229.47
829.58	229.51
829.90	229.52
830.22	229.60
830.53	229.46
830.85	229.56
831.17	229.49
831.48	229.41
831.80	229.44
832.11	229.44
832.43	229.46
832.75	229.44
833.06	229.66
833.38	229.58
833.69	229.51
834.01	229.42
834.32	229.35
834.64	229.30
834.96	229.21
835.27	229.27
835.59	229.31
835.90	229.15
836.22	229.13
836.53	229.08
836.85	228.96
837.16	229.16
837.48	229.00
837.79	228.96
838.11	228.97
838.42	228.99
838.74	229.09
839.05	229.04
839.37	229.01
839.68	228.81
840.00	228.90
840.31	228.99
840.63	228.96
840.94	228.99
841.26	228.95
841.57	228.90
841.88	228.91
842.20	228.79
842.51	228.89
842.83	228.80
843.14	229.10
843.46	229.18
843.77	229.04
844.08	229.06
844.40	229.08
844.71	229.02
845.03	228.97
845.34	228.91
845.65	228.89
845.97	228.88
846.28	228.95
846.60	228.82
846.91	228.75
847.22	228.70
847.54	228.68
847.85	228.70
848.16	228.80
848.48	228.76
848.79	228.79
849.10	228.82
849.42	228.98
849.73	228.75
850.04	228.71
850.36	228.70
850.67	228.76
850.98	228.75
851.30	228.80
851.61	228.77
851.92	228.82
852.23	228.88
852.55	228.83
852.86	228.71
853.17	228.88
853.49	228.90
853.80	228.94
854.11	228.97
854.42	229.02
854.74	228.83
855.05	228.82
855.36	228.73
855.67	228.75
855.99	228.64
856.30	228.80
856.61	228.84
856.92	228.85
857.23	228.82
857.55	228.81
857.86	228.81
858.17	228.80
858.48	228.75
858.79	228.70
859.11	228.75
859.42	228.85
859.73	228.75
860.04	228.71
860.35	228.71
860.66	228.63
860.98	228.54
861.29	228.68
861.60	228.71
861.91	228.76
862.22	228.63
862.53	228.55
862.84	228.37
863.16	228.41
863.47	228.31
863.78	228.29
864.09	228.32
864.40	228.29
864.71	228.35
865.02	228.38
865.33	228.32
865.64	228.25
865.95	228.22
866.27	228.31
866.58	228.36
866.89	228.27
867.20	228.32
867.51	228.23
867.82	228.16
868.13	228.11
868.44	228.14
868.75	228.24
869.06	228.28
869.37	228.22
869.68	228.21
869.99	228.28
870.30	228.29
870.61	228.24
870.92	228.25
871.23	228.18
871.54	228.21
871.85	228.37
872.16	228.48
872.47	228.56
872.78	228.48
873.09	228.45
873.40	228.51
873.71	228.46
874.02	228.59
874.33	228.59
874.64	228.64
874.95	228.57
875.26	228.53
875.56	228.53
875.87	228.57
876.18	228.44
876.49	228.70
876.80	228.72
877.11	228.69
877.42	228.68
877.73	228.72
878.04	228.70
878.35	228.63
878.66	228.66
878.96	228.64
879.27	228.61
879.58	228.61
879.89	228.63
880.20	228.76
880.51	228.75
880.82	228.88
881.12	228.93
881.43	228.96
881.74	228.95
882.05	228.93
882.36	229.04
882.67	229.15
882.97	228.97
883.28	228.93
883.59	228.92
883.90	229.01
884.21	229.04
884.51	228.93
884.82	228.97
885.13	228.91
885.44	228.85
885.74	228.86
886.05	228.89
886.36	228.87
886.67	228.78
886.98	228.96
887.28	229.00
887.59	228.97
887.90	228.93
888.20	228.97
888.51	229.10
888.82	229.01
889.13	229.03
889.43	229.12
889.74	229.11
890.05	229.14
890.35	229.08
890.66	229.05
890.97	229.16
891.28	229.17
891.58	229.10
891.89	229.06
892.20	229.09
892.50	229.06
892.81	229.07
893.12	229.02
893.42	228.90
893.73	228.86
894.04	228.87
894.34	228.85
894.65	228.77
894.95	228.74
895.26	228.70
895.57	228.76
895.87	228.51
896.18	228.58
896.48	228.59
896.79	228.63
897.10	228.65
897.40	228.58
897.71	228.51
898.01	228.60
898.32	228.70
898.63	228.62
898.93	228.58
899.24	228.64
899.54	228.55
899.85	228.51
900.15	228.47
900.46	228.38
900.76	228.47
901.07	228.51
901.38	228.49
901.68	228.52
901.99	228.41
902.29	228.59
902.60	228.53
902.90	228.40
903.21	228.42
903.51	228.39
903.82	228.47
904.12	228.44
904.43	228.47
904.73	228.45
905.03	228.54
905.34	228.75
905.64	228.67
905.95	228.76
906.25	228.73
906.56	228.79
906.86	228.81
907.17	228.78
907.47	228.77
907.77	228.74
908.08	228.69
908.38	228.66
908.69	228.55
908.99	228.62
909.30	228.65
909.60	228.59
909.90	228.58
910.21	228.53
910.51	228.52
910.81	228.46
911.12	228.38
911.42	228.37
911.73	228.21
912.03	228.26
912.33	228.31
912.64	228.28
912.94	228.12
913.24	228.19
913.55	228.27
913.85	228.28
914.15	228.36
914.46	228.35
914.76	228.36
915.06	228.42
915.37	228.35
915.67	228.51
915.97	228.49
916.27	228.51
916.58	228.51
916.88	228.58
917.18	228.59
917.49	228.77
917.79	228.76
918.09	228.77
918.39	228.80
918.70	228.84
919.00	228.91
919.30	229.11
919.60	229.12
919.91	229.00
920.21	228.98
920.51	228.94
920.81	229.03
921.12	229.08
921.42	229.04
921.72	229.04
922.02	228.93
922.32	229.00
922.63	228.95
922.93	228.99
923.23	229.05
923.53	229.00
923.83	228.92
924.13	228.95
924.44	228.99
924.74	229.05
925.04	229.06
925.34	229.03
925.64	228.93
925.94	228.84
926.24	228.98
926.55	228.99
926.85	228.89
927.15	228.93
927.45	228.96
927.75	228.94
928.05	229.08
928.35	229.04
928.65	228.99
928.95	229.10
929.26	229.00
929.56	228.98
929.86	229.05
930.16	229.04
930.46	228.96
930.76	228.91
931.06	228.84
931.36	228.79
931.66	228.83
931.96	228.86
932.26	228.88
932.56	228.79
932.86	228.80
933.16	228.91
933.46	228.74
933.76	228.66
934.06	228.69
934.36	228.66
934.66	228.72
934.96	228.74
935.26	228.73
935.56	228.74
935.86	228.64
936.16	228.60
936.46	228.54
936.76	228.52
937.06	228.50
937.36	228.41
937.66	228.34
937.96	228.35
938.26	228.27
938.56	228.20
938.86	228.16
939.16	228.15
939.46	228.17
939.76	228.20
940.06	228.15
940.35	228.12
940.65	227.97
940.95	228.06
941.25	227.99
941.55	227.93
941.85	227.85
942.15	227.97
942.45	227.98
942.75	227.95
943.04	227.90
943.34	227.86
943.64	227.87
943.94	227.86
944.24	227.78
944.54	227.73
944.84	227.68
945.13	227.72
945.43	227.76
945.73	227.72
946.03	227.71
946.33	227.67
946.62	227.61
946.92	227.62
947.22	227.61
947.52	227.69
947.82	227.77
948.11	227.85
948.41	227.75
948.71	227.68
949.01	227.79
949.31	227.91
949.60	228.00
949.90	228.06
950.20	228.10
950.50	228.10
950.79	228.14
951.09	228.25
951.39	228.21
951.69	228.22
951.98	228.19
952.28	228.29
952.58	228.33
952.87	228.40
953.17	228.46
953.47	228.38
953.76	228.39
954.06	228.38
954.36	228.23
954.66	228.32
954.95	228.48
955.25	228.43
955.55	228.48
955.84	228.32
956.14	228.35
956.44	228.38
956.73	228.39
957.03	228.41
957.32	228.35
957.62	228.37
957.92	228.43
958.21	228.50
958.51	228.65
958.81	228.68
959.10	228.76
959.40	228.84
959.69	228.83
959.99	228.88
960.29	228.77
960.58	228.84
960.88	228.90
961.17	228.83
961.47	228.84
961.76	228.77
962.06	229.04
962.36	229.07
962.65	229.07
962.95	229.16
963.24	229.13
963.54	229.29
963.83	229.33
964.13	229.29
964.42	229.20
964.72	229.04
965.01	229.13
965.31	229.09
965.60	229.01
965.90	229.19
966.19	229.05
966.49	229.09
966.78	229.21
967.08	229.07
967.37	229.10
967.67	229.00
967.96	229.11
968.26	229.00
968.55	228.96
968.85	228.97
969.14	228.87
969.43	228.95
969.73	228.85
970.02	228.85
970.32	228.80
970.61	228.77
970.91	228.76
971.20	228.61
971.49	228.64
971.79	228.65
972.08	228.43
972.38	228.48
972.67	228.37
972.96	228.35
973.26	228.36
973.55	228.44
973.85	228.45
974.14	228.40
974.43	228.43
974.73	228.39
975.02	228.33
975.31	228.27
975.61	228.21
975.90	228.20
976.19	228.14
976.49	228.20
976.78	228.23
977.07	228.18
977.37	228.24
977.66	228.09
977.95	228.03
978.24	228.11
978.54	228.09
978.83	228.12
979.12	228.07
979.42	228.09
979.71	228.08
980.00	228.13
980.29	228.11
980.59	228.05
980.88	228.11
981.17	228.06
981.46	228.12
981.76	228.10
982.05	228.12
982.34	228.10
982.63	228.03
982.93	228.04
983.22	228.07
983.51	227.99
983.80	228.06
984.09	228.10
984.39	228.11
984.68	228.15
984.97	228.13
985.26	228.08
985.55	228.03
985.85	227.91
986.14	227.92
986.43	227.95
986.72	227.85
987.01	227.73
987.30	227.91
987.59	227.89
987.89	227.88
988.18	227.83
988.47	227.85
988.76	227.88
989.05	227.97
989.34	228.05
989.63	228.21
989.92	228.27
990.22	228.35
990.51	228.28
990.80	228.26
991.09	228.36
991.38	228.43
991.67	228.51
991.96	228.54
992.25	228.53
992.54	228.48
992.83	228.65
993.12	228.69
993.41	228.68
993.70	228.79
993.99	228.82
994.28	228.93
994.58	229.00
994.87	228.98
995.16	228.91
995.45	228.88
995.74	228.84
996.03	228.81
996.32	228.76
996.61	228.88
996.90	228.93
997.19	228.89
997.48	228.95
997.77	228.96
998.06	229.06
998.34	229.10
998.63	229.16
998.92	229.00
999.21	229.06
999.50	228.95
999.79	228.86
1000.08	228.86
1000.37	228.81
1000.66	228.71
1000.95	228.74
1001.24	228.64
1001.53	228.70
1001.82	228.73
1002.11	228.68
1002.40	228.73
1002.68	228.80
1002.97	228.92
1003.26	228.87
1003.55	228.77
1003.84	228.84
1004.13	228.76
1004.42	228.72
1004.71	228.71
1004.99	228.77
1005.28	228.84
1005.57	228.87
1005.86	228.92
1006.15	228.90
1006.44	228.89
1006.72	228.95
1007.01	228.91
1007.30	229.08
1007.59	229.04
1007.88	228.94
1008.17	228.85
1008.45	228.84
1008.74	228.70
1009.03	228.54
1009.32	228.67
1009.60	228.68
1009.89	228.53
1010.18	228.52
1010.47	228.46
1010.76	228.36
1011.04	228.36
1011.33	228.26
1011.62	228.27
1011.91	228.27
1012.19	228.18
1012.48	228.12
1012.77	228.13
1013.05	228.22
1013.34	228.01
1013.63	227.89
1013.92	227.90
1014.20	227.95
1014.49	227.96
1014.78	227.94
1015.06	227.87
1015.35	227.80
1015.64	227.80
1015.92	227.76
1016.21	227.71
1016.50	227.67
1016.78	227.84
1017.07	227.80
1017.36	227.73
1017.64	227.75
1017.93	227.62
1018.22	227.67
1018.50	227.60
1018.79	227.63
1019.08	227.55
1019.36	227.65
1019.65	227.64
1019.93	227.70
1020.22	227.78
1020.51	227.70
1020.79	227.64
1021.08	227.10
1021.36	226.00
1021.65	229.00
1021.94	228.30
1022.22	228.00
1022.51	227.20
1022.79	228.80
1023.08	228.80
1023.36	228.30
1023.65	226.40
>>>>>End Processed Spectral Data<<<<<
