SpectraSuite Data File
++++++++++++++++++++++++++++++++++++
Date: Fri Feb 01 14:40:54 EST 2013
User: group
Dark Spectrum Present: No
Reference Spectrum Present: No
Number of Sampled Component Spectra: 1
Spectrometers: USB2E7196
Integration Time (usec): 70000 (USB2E7196)
Spectra Averaged: 10 (USB2E7196)
Boxcar Smoothing: 10 (USB2E7196)
Correct for Electrical Dark: No (USB2E7196)
Strobe/Lamp Enabled: No (USB2E7196)
Correct for Detector Non-linearity: No (USB2E7196)
Correct for Stray Light: No (USB2E7196)
Number of Pixels in Processed Spectrum: 2048
>>>>>Begin Processed Spectral Data<<<<<
339.09	0.00
339.48	215.50
339.86	216.10
340.24	218.10
340.63	220.70
341.01	224.80
341.39	223.20
341.78	223.30
342.16	225.60
342.54	226.10
342.93	214.51
343.31	225.39
343.69	225.93
344.07	226.45
344.46	226.87
344.84	227.16
345.22	227.29
345.60	227.46
345.99	227.66
346.37	227.77
346.75	227.88
347.13	228.02
347.52	228.08
347.90	228.02
348.28	228.02
348.66	228.09
349.05	228.13
349.43	228.18
349.81	228.19
350.19	228.29
350.57	228.30
350.96	228.29
351.34	228.44
351.72	228.49
352.10	228.60
352.48	228.71
352.87	228.78
353.25	228.87
353.63	228.98
354.01	229.06
354.39	229.18
354.77	229.27
355.15	229.31
355.54	229.34
355.92	229.32
356.30	229.52
356.68	229.68
357.06	229.80
357.44	229.86
357.82	229.95
358.20	230.06
358.58	230.18
358.97	230.47
359.35	230.44
359.73	230.50
360.11	230.67
360.49	230.78
360.87	230.90
361.25	230.97
361.63	231.21
362.01	231.29
362.39	231.32
362.77	231.42
363.15	231.48
363.53	231.60
363.91	231.67
364.29	231.58
364.67	231.41
365.05	231.39
365.43	231.42
365.81	231.51
366.19	231.51
366.57	231.50
366.95	231.40
367.33	231.36
367.71	231.43
368.09	231.30
368.47	231.32
368.85	231.40
369.23	231.43
369.61	231.21
369.99	231.28
370.37	231.14
370.75	231.22
371.13	231.13
371.51	230.97
371.89	231.02
372.27	230.97
372.65	230.96
373.03	230.89
373.41	230.77
373.78	230.58
374.16	230.43
374.54	230.40
374.92	230.27
375.30	230.23
375.68	230.17
376.06	230.04
376.44	229.90
376.82	229.82
377.19	229.69
377.57	229.62
377.95	229.39
378.33	229.30
378.71	229.01
379.09	228.90
379.47	228.90
379.84	228.74
380.22	228.64
380.60	228.53
380.98	228.50
381.36	228.45
381.73	228.46
382.11	228.43
382.49	228.35
382.87	228.20
383.25	228.13
383.62	228.29
384.00	228.26
384.38	228.07
384.76	227.98
385.13	227.95
385.51	227.93
385.89	227.88
386.27	227.98
386.64	227.96
387.02	227.93
387.40	227.82
387.78	227.83
388.15	227.78
388.53	227.77
388.91	227.63
389.29	227.64
389.66	227.60
390.04	227.43
390.42	227.39
390.79	227.44
391.17	227.46
391.55	227.21
391.92	227.23
392.30	227.28
392.68	227.25
393.05	227.29
393.43	227.27
393.81	227.24
394.18	227.20
394.56	227.26
394.94	227.29
395.31	227.36
395.69	227.42
396.06	227.52
396.44	227.61
396.82	227.64
397.19	227.78
397.57	227.80
397.95	227.97
398.32	227.97
398.70	228.09
399.07	228.17
399.45	228.29
399.82	228.30
400.20	228.44
400.58	228.60
400.95	228.62
401.33	228.69
401.70	229.03
402.08	229.16
402.45	229.14
402.83	229.35
403.20	229.50
403.58	229.60
403.95	229.78
404.33	229.86
404.71	230.11
405.08	230.35
405.46	230.50
405.83	230.64
406.21	230.84
406.58	230.94
406.96	231.11
407.33	231.22
407.70	231.52
408.08	231.72
408.45	231.87
408.83	232.13
409.20	232.38
409.58	232.42
409.95	232.72
410.33	233.07
410.70	233.32
411.08	233.75
411.45	234.03
411.82	234.32
412.20	234.74
412.57	235.19
412.95	235.42
413.32	235.89
413.69	236.35
414.07	236.91
414.44	237.43
414.82	237.96
415.19	238.63
415.56	239.20
415.94	239.90
416.31	240.54
416.68	241.20
417.06	242.01
417.43	242.83
417.81	243.62
418.18	244.44
418.55	245.25
418.93	246.11
419.30	246.97
419.67	247.88
420.04	248.89
420.42	249.90
420.79	251.29
421.16	252.47
421.54	253.78
421.91	254.98
422.28	256.40
422.66	257.68
423.03	259.02
423.40	260.44
423.77	261.88
424.15	263.37
424.52	265.00
424.89	266.69
425.26	268.31
425.64	269.86
426.01	271.50
426.38	273.29
426.75	275.01
427.13	276.98
427.50	278.91
427.87	280.83
428.24	282.79
428.61	284.37
428.99	286.47
429.36	288.66
429.73	290.86
430.10	292.90
430.47	295.17
430.85	297.38
431.22	299.74
431.59	302.25
431.96	304.59
432.33	307.07
432.70	309.69
433.08	312.75
433.45	315.47
433.82	318.24
434.19	321.31
434.56	324.34
434.93	327.11
435.30	329.93
435.68	332.94
436.05	335.90
436.42	338.91
436.79	341.64
437.16	344.45
437.53	347.36
437.90	350.31
438.27	353.31
438.64	356.25
439.01	359.07
439.38	361.49
439.75	363.91
440.13	366.65
440.50	368.95
440.87	370.81
441.24	372.80
441.61	375.11
441.98	376.66
442.35	378.41
442.72	380.32
443.09	382.26
443.46	383.35
443.83	383.85
444.20	384.50
444.57	385.32
444.94	385.51
445.31	385.96
445.68	386.60
446.05	386.56
446.42	386.08
446.79	385.58
447.16	384.98
447.53	384.67
447.90	383.45
448.27	382.33
448.64	380.64
449.01	379.56
449.37	377.45
449.74	375.29
450.11	373.08
450.48	370.46
450.85	367.71
451.22	365.33
451.59	363.35
451.96	361.16
452.33	358.41
452.70	355.91
453.07	352.82
453.43	349.42
453.80	346.47
454.17	343.74
454.54	340.94
454.91	338.17
455.28	335.22
455.65	332.49
456.02	329.92
456.38	327.64
456.75	324.66
457.12	322.27
457.49	319.89
457.86	317.46
458.23	315.49
458.59	313.33
458.96	311.20
459.33	309.17
459.70	307.18
460.07	305.47
460.43	303.65
460.80	301.89
461.17	300.42
461.54	298.69
461.91	297.00
462.27	295.36
462.64	293.94
463.01	292.47
463.38	291.07
463.74	289.40
464.11	288.09
464.48	287.03
464.85	285.81
465.21	284.98
465.58	283.98
465.95	282.67
466.32	281.66
466.68	280.72
467.05	279.72
467.42	278.77
467.78	277.80
468.15	276.91
468.52	276.10
468.88	275.06
469.25	274.20
469.62	273.57
469.98	272.89
470.35	272.03
470.72	271.35
471.08	270.53
471.45	269.85
471.82	269.20
472.18	268.50
472.55	267.96
472.92	267.28
473.28	266.66
473.65	266.03
474.02	265.38
474.38	264.69
474.75	264.13
475.11	263.55
475.48	263.14
475.85	262.68
476.21	262.31
476.58	261.94
476.94	261.55
477.31	261.18
477.67	260.70
478.04	260.48
478.41	260.19
478.77	260.14
479.14	259.86
479.50	259.71
479.87	259.49
480.23	259.30
480.60	259.13
480.96	258.86
481.33	259.03
481.69	259.01
482.06	259.00
482.42	258.98
482.79	258.91
483.15	258.79
483.52	258.82
483.88	258.81
484.25	258.90
484.61	259.16
484.98	259.28
485.34	259.63
485.71	259.94
486.07	260.13
486.44	260.21
486.80	260.51
487.17	260.74
487.53	261.20
487.90	261.62
488.26	262.05
488.62	262.64
488.99	262.95
489.35	263.45
489.72	263.94
490.08	264.49
490.44	265.14
490.81	265.84
491.17	266.54
491.54	267.41
491.90	268.17
492.26	269.11
492.63	270.00
492.99	270.88
493.36	271.84
493.72	272.94
494.08	274.20
494.45	275.48
494.81	276.89
495.17	278.21
495.54	279.68
495.90	281.27
496.26	282.95
496.63	284.76
496.99	286.59
497.35	288.60
497.72	290.71
498.08	292.94
498.44	295.19
498.80	297.60
499.17	300.06
499.53	302.66
499.89	305.42
500.26	308.29
500.62	311.31
500.98	314.41
501.34	317.64
501.71	321.05
502.07	324.61
502.43	328.09
502.79	331.91
503.16	335.93
503.52	340.05
503.88	344.20
504.24	348.67
504.60	353.32
504.97	358.17
505.33	363.21
505.69	368.31
506.05	373.61
506.41	379.04
506.78	384.80
507.14	390.58
507.50	396.50
507.86	402.84
508.22	409.37
508.59	415.99
508.95	422.90
509.31	429.87
509.67	437.21
510.03	444.60
510.39	452.18
510.75	460.05
511.12	467.91
511.48	476.12
511.84	484.43
512.20	492.98
512.56	501.93
512.92	510.82
513.28	520.05
513.64	529.54
514.00	539.20
514.37	549.02
514.73	559.18
515.09	569.39
515.45	579.80
515.81	590.17
516.17	601.03
516.53	611.82
516.89	622.90
517.25	633.91
517.61	645.70
517.97	657.11
518.33	668.68
518.69	681.00
519.05	693.30
519.41	705.88
519.77	718.58
520.13	731.30
520.49	744.04
520.85	757.06
521.21	770.31
521.57	783.80
521.93	797.09
522.29	810.83
522.65	824.55
523.01	838.13
523.37	851.69
523.73	865.74
524.09	879.90
524.45	894.34
524.81	908.73
525.17	923.30
525.53	938.37
525.89	953.14
526.25	967.74
526.61	982.23
526.97	997.01
527.33	1012.11
527.68	1027.40
528.04	1042.62
528.40	1058.19
528.76	1073.62
529.12	1088.77
529.48	1104.64
529.84	1119.68
530.20	1135.25
530.56	1151.72
530.91	1168.36
531.27	1184.42
531.63	1200.30
531.99	1215.99
532.35	1231.91
532.71	1247.22
533.07	1262.89
533.42	1278.80
533.78	1294.50
534.14	1310.68
534.50	1325.90
534.86	1341.42
535.21	1356.40
535.57	1372.40
535.93	1387.97
536.29	1403.32
536.65	1418.97
537.00	1433.48
537.36	1449.01
537.72	1464.00
538.08	1478.57
538.44	1492.82
538.79	1507.06
539.15	1521.70
539.51	1536.43
539.87	1551.25
540.22	1565.84
540.58	1580.29
540.94	1594.66
541.29	1608.75
541.65	1622.40
542.01	1637.13
542.37	1650.78
542.72	1664.63
543.08	1677.60
543.44	1690.55
543.79	1702.96
544.15	1715.82
544.51	1729.56
544.87	1742.48
545.22	1755.13
545.58	1766.90
545.94	1778.48
546.29	1790.28
546.65	1801.83
547.01	1813.05
547.36	1824.27
547.72	1835.05
548.07	1845.75
548.43	1856.10
548.79	1866.41
549.14	1876.80
549.50	1885.97
549.86	1895.54
550.21	1904.66
550.57	1914.68
550.92	1923.98
551.28	1933.24
551.64	1941.90
551.99	1950.63
552.35	1958.90
552.70	1967.58
553.06	1976.44
553.41	1985.72
553.77	1994.25
554.13	2002.74
554.48	2011.08
554.84	2018.66
555.19	2026.81
555.55	2034.39
555.90	2041.43
556.26	2048.70
556.61	2055.90
556.97	2062.82
557.32	2069.57
557.68	2076.60
558.03	2083.00
558.39	2089.53
558.74	2096.71
559.10	2103.38
559.45	2109.56
559.81	2116.52
560.16	2121.82
560.52	2127.32
560.87	2132.89
561.23	2137.56
561.58	2142.73
561.94	2147.22
562.29	2151.67
562.64	2155.90
563.00	2160.06
563.35	2165.39
563.71	2170.48
564.06	2175.17
564.42	2179.98
564.77	2184.78
565.12	2189.26
565.48	2193.33
565.83	2196.76
566.19	2200.24
566.54	2203.70
566.89	2206.49
567.25	2208.99
567.60	2213.20
567.96	2216.50
568.31	2219.27
568.66	2222.10
569.02	2224.59
569.37	2226.60
569.72	2229.27
570.08	2231.60
570.43	2233.43
570.78	2234.26
571.14	2234.99
571.49	2235.70
571.84	2237.29
572.20	2237.74
572.55	2237.84
572.90	2237.50
573.26	2237.83
573.61	2237.71
573.96	2237.23
574.31	2236.10
574.67	2234.48
575.02	2231.97
575.37	2230.38
575.72	2227.67
576.08	2226.79
576.43	2224.65
576.78	2223.18
577.13	2221.77
577.49	2219.36
577.84	2217.42
578.19	2215.62
578.54	2213.25
578.90	2210.14
579.25	2206.04
579.60	2202.53
579.95	2199.36
580.30	2195.36
580.66	2191.55
581.01	2187.57
581.36	2183.80
581.71	2180.98
582.06	2178.01
582.42	2174.47
582.77	2170.39
583.12	2166.85
583.47	2162.90
583.82	2159.50
584.17	2155.50
584.53	2150.93
584.88	2147.01
585.23	2142.85
585.58	2138.67
585.93	2134.46
586.28	2130.83
586.63	2127.55
586.98	2123.68
587.34	2119.68
587.69	2116.27
588.04	2112.29
588.39	2107.73
588.74	2102.27
589.09	2096.67
589.44	2091.17
589.79	2086.83
590.14	2082.28
590.49	2077.52
590.84	2071.82
591.19	2066.40
591.54	2060.31
591.89	2053.44
592.25	2047.36
592.60	2041.07
592.95	2034.01
593.30	2027.65
593.65	2021.03
594.00	2013.93
594.35	2008.08
594.70	2000.77
595.05	1994.63
595.40	1987.89
595.75	1981.15
596.10	1975.83
596.45	1970.52
596.80	1965.07
597.15	1958.76
597.50	1952.28
597.85	1946.47
598.19	1940.90
598.54	1934.72
598.89	1929.07
599.24	1924.46
599.59	1918.76
599.94	1913.35
600.29	1907.87
600.64	1901.79
600.99	1894.94
601.34	1889.06
601.69	1882.35
602.04	1876.91
602.39	1870.24
602.74	1864.70
603.08	1859.44
603.43	1853.07
603.78	1846.41
604.13	1839.98
604.48	1834.02
604.83	1827.90
605.18	1821.43
605.53	1813.61
605.87	1806.11
606.22	1799.37
606.57	1791.72
606.92	1784.85
607.27	1777.59
607.62	1771.04
607.96	1763.93
608.31	1757.91
608.66	1750.36
609.01	1742.54
609.36	1734.70
609.70	1726.61
610.05	1718.36
610.40	1710.35
610.75	1702.40
611.10	1694.30
611.44	1685.64
611.79	1677.07
612.14	1668.97
612.49	1659.95
612.83	1652.06
613.18	1643.94
613.53	1635.79
613.88	1626.98
614.22	1618.61
614.57	1610.14
614.92	1601.76
615.27	1593.75
615.61	1585.43
615.96	1577.60
616.31	1570.47
616.65	1563.32
617.00	1556.22
617.35	1548.56
617.70	1540.35
618.04	1532.61
618.39	1525.18
618.74	1518.03
619.08	1510.30
619.43	1502.84
619.78	1495.51
620.12	1488.40
620.47	1480.95
620.82	1473.00
621.16	1466.15
621.51	1458.84
621.85	1451.33
622.20	1443.25
622.55	1435.91
622.89	1428.47
623.24	1421.34
623.59	1414.08
623.93	1406.52
624.28	1399.44
624.62	1391.70
624.97	1384.53
625.32	1377.13
625.66	1369.95
626.01	1362.81
626.35	1355.46
626.70	1347.50
627.04	1340.74
627.39	1332.85
627.73	1325.62
628.08	1318.73
628.43	1311.56
628.77	1304.25
629.12	1297.01
629.46	1290.07
629.81	1282.21
630.15	1274.20
630.50	1266.49
630.84	1258.09
631.19	1249.84
631.53	1241.61
631.88	1233.99
632.22	1226.22
632.57	1219.20
632.91	1210.87
633.26	1202.68
633.60	1194.96
633.95	1187.69
634.29	1180.19
634.64	1173.55
634.98	1166.04
635.32	1158.98
635.67	1151.95
636.01	1144.70
636.36	1137.66
636.70	1130.81
637.05	1124.30
637.39	1118.10
637.73	1111.33
638.08	1105.57
638.42	1099.53
638.77	1093.44
639.11	1087.40
639.45	1080.96
639.80	1073.83
640.14	1067.86
640.49	1061.64
640.83	1055.33
641.17	1049.10
641.52	1042.34
641.86	1035.42
642.20	1029.31
642.55	1022.60
642.89	1016.39
643.23	1010.27
643.58	1004.34
643.92	997.71
644.26	991.46
644.61	985.35
644.95	979.30
645.29	972.29
645.64	965.54
645.98	958.95
646.32	952.48
646.66	946.40
647.01	940.28
647.35	934.19
647.69	927.86
648.04	922.05
648.38	915.78
648.72	909.64
649.06	903.64
649.41	897.64
649.75	891.50
650.09	885.17
650.43	878.86
650.78	872.09
651.12	866.03
651.46	859.87
651.80	853.77
652.14	847.75
652.49	842.05
652.83	836.51
653.17	830.37
653.51	824.40
653.85	818.69
654.20	812.78
654.54	806.71
654.88	800.73
655.22	794.27
655.56	788.24
655.90	782.80
656.25	777.24
656.59	771.46
656.93	766.31
657.27	760.74
657.61	755.10
657.95	750.04
658.29	744.86
658.64	739.46
658.98	734.09
659.32	728.55
659.66	723.34
660.00	717.82
660.34	712.85
660.68	707.75
661.02	702.31
661.36	697.34
661.70	692.69
662.05	688.22
662.39	683.97
662.73	679.44
663.07	674.54
663.41	669.95
663.75	665.42
664.09	660.60
664.43	656.11
664.77	651.80
665.11	647.48
665.45	643.23
665.79	639.14
666.13	634.71
666.47	630.29
666.81	625.82
667.15	621.59
667.49	617.56
667.83	613.60
668.17	609.56
668.51	605.55
668.85	601.16
669.19	597.21
669.53	593.23
669.87	589.09
670.21	585.45
670.55	581.70
670.89	578.30
671.23	574.72
671.57	571.21
671.91	567.49
672.25	563.81
672.58	560.18
672.92	556.60
673.26	553.33
673.60	550.39
673.94	547.16
674.28	544.30
674.62	541.07
674.96	537.99
675.30	534.95
675.64	531.81
675.97	529.05
676.31	526.16
676.65	522.97
676.99	520.41
677.33	517.25
677.67	514.30
678.01	511.05
678.34	508.06
678.68	505.10
679.02	502.28
679.36	499.56
679.70	496.63
680.04	493.73
680.37	490.89
680.71	488.02
681.05	485.56
681.39	482.65
681.73	480.15
682.06	477.45
682.40	475.00
682.74	472.56
683.08	470.02
683.42	467.28
683.75	464.72
684.09	461.90
684.43	459.47
684.77	456.94
685.10	454.53
685.44	452.06
685.78	449.55
686.12	447.09
686.45	444.46
686.79	442.15
687.13	439.80
687.46	437.40
687.80	434.91
688.14	432.30
688.48	430.09
688.81	427.70
689.15	425.38
689.49	423.05
689.82	420.77
690.16	418.47
690.50	416.39
690.83	414.20
691.17	411.99
691.51	409.93
691.84	407.91
692.18	405.69
692.52	403.58
692.85	401.65
693.19	399.71
693.52	397.86
693.86	395.91
694.20	393.96
694.53	392.13
694.87	390.32
695.21	388.40
695.54	386.42
695.88	384.36
696.21	382.40
696.55	380.51
696.88	378.80
697.22	376.98
697.56	375.18
697.89	373.45
698.23	371.82
698.56	369.99
698.90	368.21
699.23	366.41
699.57	364.64
699.90	362.90
700.24	361.08
700.58	359.26
700.91	357.56
701.25	355.98
701.58	354.47
701.92	352.89
702.25	351.47
702.59	349.94
702.92	348.52
703.26	347.07
703.59	345.69
703.93	344.28
704.26	342.82
704.60	341.32
704.93	340.01
705.26	338.61
705.60	337.39
705.93	336.19
706.27	335.04
706.60	333.98
706.94	332.78
707.27	331.67
707.61	330.54
707.94	329.35
708.27	328.08
708.61	326.74
708.94	325.69
709.28	324.60
709.61	323.53
709.94	322.50
710.28	321.37
710.61	320.28
710.95	318.93
711.28	317.87
711.61	316.73
711.95	315.57
712.28	314.43
712.61	313.28
712.95	312.10
713.28	311.13
713.61	309.99
713.95	308.93
714.28	307.90
714.61	306.93
714.95	306.06
715.28	305.17
715.61	304.10
715.95	303.04
716.28	302.15
716.61	301.30
716.95	300.37
717.28	299.56
717.61	298.68
717.94	297.87
718.28	297.01
718.61	296.21
718.94	295.59
719.27	294.89
719.61	294.13
719.94	293.39
720.27	292.50
720.60	291.87
720.94	291.21
721.27	290.65
721.60	290.09
721.93	289.37
722.27	288.69
722.60	288.14
722.93	287.51
723.26	286.80
723.59	286.17
723.93	285.61
724.26	284.99
724.59	284.36
724.92	283.88
725.25	283.35
725.59	282.84
725.92	282.20
726.25	281.70
726.58	281.18
726.91	280.64
727.24	280.31
727.57	279.75
727.91	279.10
728.24	278.50
728.57	277.92
728.90	277.42
729.23	276.91
729.56	276.56
729.89	276.10
730.22	275.48
730.55	274.97
730.89	274.44
731.22	273.98
731.55	273.44
731.88	272.93
732.21	272.32
732.54	271.80
732.87	271.40
733.20	270.90
733.53	270.40
733.86	270.00
734.19	269.42
734.52	268.95
734.85	268.58
735.18	268.02
735.51	267.51
735.84	267.00
736.17	266.57
736.50	265.99
736.83	265.81
737.16	265.34
737.49	264.95
737.82	264.48
738.15	264.09
738.48	263.69
738.81	263.27
739.14	262.91
739.47	262.47
739.80	261.97
740.13	261.53
740.46	261.12
740.79	260.61
741.12	260.28
741.45	259.96
741.78	259.57
742.11	259.34
742.44	258.95
742.77	258.60
743.10	258.18
743.43	257.81
743.75	257.12
744.08	257.13
744.41	256.79
744.74	256.50
745.07	256.14
745.40	255.84
745.73	255.48
746.06	255.06
746.39	254.80
746.71	254.48
747.04	254.06
747.37	253.71
747.70	253.40
748.03	252.94
748.36	252.66
748.68	252.31
749.01	251.92
749.34	251.70
749.67	251.52
750.00	251.22
750.33	251.03
750.65	250.91
750.98	250.34
751.31	249.97
751.64	249.75
751.97	249.63
752.29	249.41
752.62	249.17
752.95	249.06
753.28	248.76
753.60	248.46
753.93	248.29
754.26	248.06
754.59	247.90
754.91	247.77
755.24	247.50
755.57	247.35
755.90	247.07
756.22	246.84
756.55	246.58
756.88	246.38
757.20	246.08
757.53	245.71
757.86	245.54
758.19	245.39
758.51	245.17
758.84	244.85
759.17	244.60
759.49	244.45
759.82	244.33
760.15	244.20
760.47	244.13
760.80	243.87
761.13	243.83
761.45	243.69
761.78	243.54
762.11	243.36
762.43	243.10
762.76	243.01
763.08	242.83
763.41	242.68
763.74	242.54
764.06	242.35
764.39	242.20
764.71	242.00
765.04	241.76
765.37	241.68
765.69	241.53
766.02	241.43
766.34	241.19
766.67	240.97
767.00	240.89
767.32	240.84
767.65	240.93
767.97	240.75
768.30	240.56
768.62	240.46
768.95	240.29
769.27	240.26
769.60	240.19
769.92	240.08
770.25	239.93
770.57	239.79
770.90	239.70
771.22	239.63
771.55	239.60
771.87	239.57
772.20	239.36
772.52	239.40
772.85	239.42
773.17	239.46
773.50	239.39
773.82	239.18
774.15	238.99
774.47	238.71
774.80	238.62
775.12	238.44
775.45	238.27
775.77	238.11
776.09	237.92
776.42	237.85
776.74	237.79
777.07	237.65
777.39	237.57
777.72	237.45
778.04	237.38
778.36	237.35
778.69	237.27
779.01	237.19
779.33	236.93
779.66	236.72
779.98	236.53
780.31	236.30
780.63	236.26
780.95	236.08
781.28	236.07
781.60	235.84
781.92	235.84
782.25	235.75
782.57	235.76
782.89	235.67
783.22	235.51
783.54	235.47
783.86	235.45
784.19	235.27
784.51	235.19
784.83	235.06
785.16	234.92
785.48	234.79
785.80	234.75
786.12	234.57
786.45	234.49
786.77	234.40
787.09	234.40
787.42	234.41
787.74	234.44
788.06	234.40
788.38	234.44
788.71	234.33
789.03	234.40
789.35	234.35
789.67	234.30
789.99	234.26
790.32	234.07
790.64	234.01
790.96	234.10
791.28	234.01
791.61	234.00
791.93	233.94
792.25	233.91
792.57	233.86
792.89	233.93
793.21	233.90
793.54	233.78
793.86	233.73
794.18	233.58
794.50	233.48
794.82	233.30
795.14	233.19
795.47	233.21
795.79	233.09
796.11	233.05
796.43	233.04
796.75	233.08
797.07	233.10
797.39	233.06
797.71	232.91
798.04	232.81
798.36	232.81
798.68	232.78
799.00	232.76
799.32	232.71
799.64	232.61
799.96	232.50
800.28	232.67
800.60	232.64
800.92	232.63
801.24	232.62
801.56	232.66
801.89	232.79
802.21	232.79
802.53	232.62
802.85	232.51
803.17	232.60
803.49	232.40
803.81	232.43
804.13	232.37
804.45	232.41
804.77	232.53
805.09	232.40
805.41	232.31
805.73	232.21
806.05	232.24
806.37	232.30
806.69	232.28
807.01	232.19
807.33	232.12
807.65	232.08
807.97	232.08
808.28	232.13
808.60	231.92
808.92	231.80
809.24	232.03
809.56	231.97
809.88	231.82
810.20	231.81
810.52	231.72
810.84	231.67
811.16	231.59
811.48	231.54
811.80	231.60
812.12	231.64
812.43	231.70
812.75	231.55
813.07	231.50
813.39	231.52
813.71	231.48
814.03	231.48
814.35	231.41
814.67	231.40
814.98	231.33
815.30	231.29
815.62	231.24
815.94	231.04
816.26	231.17
816.58	231.07
816.89	231.06
817.21	230.96
817.53	231.05
817.85	231.01
818.17	230.97
818.48	230.83
818.80	230.85
819.12	230.85
819.44	230.77
819.76	230.70
820.07	230.65
820.39	230.62
820.71	230.66
821.03	230.66
821.34	230.53
821.66	230.45
821.98	230.48
822.30	230.42
822.61	230.50
822.93	230.38
823.25	230.43
823.57	230.41
823.88	230.53
824.20	230.43
824.52	230.42
824.83	230.41
825.15	230.47
825.47	230.44
825.79	230.35
826.10	230.41
826.42	230.42
826.74	230.36
827.05	230.26
827.37	230.24
827.69	230.19
828.00	230.18
828.32	230.22
828.64	230.20
828.95	230.29
829.27	230.27
829.58	230.13
829.90	230.19
830.22	230.22
830.53	230.21
830.85	230.15
831.17	230.09
831.48	230.06
831.80	229.94
832.11	229.86
832.43	229.87
832.75	229.84
833.06	229.90
833.38	229.88
833.69	229.91
834.01	229.90
834.32	229.87
834.64	229.98
834.96	229.96
835.27	229.96
835.59	229.97
835.90	229.85
836.22	230.09
836.53	229.99
836.85	229.88
837.16	230.07
837.48	229.98
837.79	230.02
838.11	230.02
838.42	230.06
838.74	230.10
839.05	230.04
839.37	230.05
839.68	230.02
840.00	230.03
840.31	230.07
840.63	230.06
840.94	229.97
841.26	229.84
841.57	229.73
841.88	229.77
842.20	229.70
842.51	229.78
842.83	229.67
843.14	229.90
843.46	230.01
843.77	229.80
844.08	229.79
844.40	229.77
844.71	229.66
845.03	229.69
845.34	229.54
845.65	229.57
845.97	229.49
846.28	229.47
846.60	229.47
846.91	229.31
847.22	229.29
847.54	229.43
847.85	229.48
848.16	229.59
848.48	229.50
848.79	229.56
849.10	229.54
849.42	229.49
849.73	229.29
850.04	229.16
850.36	229.06
850.67	229.20
850.98	229.24
851.30	229.24
851.61	229.18
851.92	229.25
852.23	229.25
852.55	229.25
852.86	229.14
853.17	229.05
853.49	229.23
853.80	229.23
854.11	229.29
854.42	229.35
854.74	229.32
855.05	229.36
855.36	229.23
855.67	229.24
855.99	229.19
856.30	229.37
856.61	229.40
856.92	229.40
857.23	229.40
857.55	229.31
857.86	229.45
858.17	229.54
858.48	229.51
858.79	229.47
859.11	229.59
859.42	229.63
859.73	229.61
860.04	229.53
860.35	229.53
860.66	229.51
860.98	229.49
861.29	229.48
861.60	229.47
861.91	229.61
862.22	229.62
862.53	229.65
862.84	229.43
863.16	229.49
863.47	229.49
863.78	229.44
864.09	229.50
864.40	229.44
864.71	229.45
865.02	229.56
865.33	229.51
865.64	229.46
865.95	229.43
866.27	229.70
866.58	229.71
866.89	229.75
867.20	229.63
867.51	229.52
867.82	229.52
868.13	229.60
868.44	229.48
868.75	229.46
869.06	229.46
869.37	229.53
869.68	229.43
869.99	229.47
870.30	229.43
870.61	229.37
870.92	229.35
871.23	229.31
871.54	229.21
871.85	229.28
872.16	229.26
872.47	229.24
872.78	229.12
873.09	229.03
873.40	228.89
873.71	228.92
874.02	228.91
874.33	228.89
874.64	228.70
874.95	228.76
875.26	228.69
875.56	228.62
875.87	228.57
876.18	228.53
876.49	228.64
876.80	228.58
877.11	228.46
877.42	228.46
877.73	228.46
878.04	228.43
878.35	228.43
878.66	228.42
878.96	228.40
879.27	228.33
879.58	228.45
879.89	228.51
880.20	228.53
880.51	228.56
880.82	228.48
881.12	228.51
881.43	228.33
881.74	228.32
882.05	228.39
882.36	228.27
882.67	228.36
882.97	228.15
883.28	228.18
883.59	228.26
883.90	228.21
884.21	228.18
884.51	228.19
884.82	228.10
885.13	228.12
885.44	228.17
885.74	228.23
886.05	228.14
886.36	228.05
886.67	228.02
886.98	228.12
887.28	228.27
887.59	228.22
887.90	228.32
888.20	228.36
888.51	228.38
888.82	228.51
889.13	228.58
889.43	228.76
889.74	228.72
890.05	228.67
890.35	228.70
890.66	228.66
890.97	228.63
891.28	228.73
891.58	228.72
891.89	228.75
892.20	228.75
892.50	228.73
892.81	228.81
893.12	228.88
893.42	228.81
893.73	228.68
894.04	228.90
894.34	228.93
894.65	228.85
894.95	228.80
895.26	228.79
895.57	228.73
895.87	228.55
896.18	228.69
896.48	228.80
896.79	228.71
897.10	228.75
897.40	228.82
897.71	228.83
898.01	228.80
898.32	228.76
898.63	228.64
898.93	228.65
899.24	228.59
899.54	228.57
899.85	228.53
900.15	228.63
900.46	228.57
900.76	228.56
901.07	228.66
901.38	228.63
901.68	228.60
901.99	228.59
902.29	228.61
902.60	228.50
902.90	228.50
903.21	228.60
903.51	228.63
903.82	228.67
904.12	228.62
904.43	228.57
904.73	228.58
905.03	228.57
905.34	228.83
905.64	228.87
905.95	228.88
906.25	228.84
906.56	228.72
906.86	228.68
907.17	228.57
907.47	228.53
907.77	228.55
908.08	228.50
908.38	228.51
908.69	228.59
908.99	228.71
909.30	228.57
909.60	228.49
909.90	228.48
910.21	228.36
910.51	228.30
910.81	228.31
911.12	228.28
911.42	228.30
911.73	228.06
912.03	228.00
912.33	227.96
912.64	227.98
912.94	227.96
913.24	227.89
913.55	227.85
913.85	227.79
914.15	227.73
914.46	227.74
914.76	227.66
915.06	227.51
915.37	227.36
915.67	227.50
915.97	227.49
916.27	227.42
916.58	227.46
916.88	227.45
917.18	227.51
917.49	227.62
917.79	227.62
918.09	227.64
918.39	227.72
918.70	227.67
919.00	227.55
919.30	227.71
919.60	227.80
919.91	227.83
920.21	227.93
920.51	227.93
920.81	227.98
921.12	228.13
921.42	228.20
921.72	228.19
922.02	228.12
922.32	228.19
922.63	228.20
922.93	228.33
923.23	228.38
923.53	228.38
923.83	228.31
924.13	228.35
924.44	228.30
924.74	228.30
925.04	228.41
925.34	228.56
925.64	228.50
925.94	228.45
926.24	228.56
926.55	228.48
926.85	228.55
927.15	228.42
927.45	228.37
927.75	228.42
928.05	228.50
928.35	228.62
928.65	228.67
928.95	228.76
929.26	228.67
929.56	228.61
929.86	228.64
930.16	228.63
930.46	228.57
930.76	228.70
931.06	228.75
931.36	228.71
931.66	228.75
931.96	228.75
932.26	228.77
932.56	228.78
932.86	228.86
933.16	228.86
933.46	229.06
933.76	229.05
934.06	229.11
934.36	229.12
934.66	229.05
934.96	228.93
935.26	228.88
935.56	228.95
935.86	228.96
936.16	228.84
936.46	228.91
936.76	229.01
937.06	228.92
937.36	228.90
937.66	228.92
937.96	228.87
938.26	228.86
938.56	228.76
938.86	228.71
939.16	228.64
939.46	228.70
939.76	228.75
940.06	228.70
940.35	228.59
940.65	228.55
940.95	228.56
941.25	228.53
941.55	228.47
941.85	228.35
942.15	228.31
942.45	228.42
942.75	228.30
943.04	228.14
943.34	228.09
943.64	228.05
943.94	228.00
944.24	227.92
944.54	227.83
944.84	227.96
945.13	227.99
945.43	228.07
945.73	227.99
946.03	227.81
946.33	227.77
946.62	227.75
946.92	227.68
947.22	227.60
947.52	227.60
947.82	227.64
948.11	227.68
948.41	227.76
948.71	227.64
949.01	227.70
949.31	227.79
949.60	227.88
949.90	227.82
950.20	227.84
950.50	227.93
950.79	228.05
951.09	227.96
951.39	227.95
951.69	227.89
951.98	227.92
952.28	227.93
952.58	227.96
952.87	227.97
953.17	228.08
953.47	228.19
953.76	228.25
954.06	228.27
954.36	228.23
954.66	228.15
954.95	228.22
955.25	228.23
955.55	228.16
955.84	228.11
956.14	228.10
956.44	228.16
956.73	228.13
957.03	228.00
957.32	228.13
957.62	228.15
957.92	228.13
958.21	228.15
958.51	228.40
958.81	228.45
959.10	228.48
959.40	228.40
959.69	228.39
959.99	228.50
960.29	228.48
960.58	228.53
960.88	228.76
961.17	228.81
961.47	228.80
961.76	228.83
962.06	228.87
962.36	228.88
962.65	228.81
962.95	228.78
963.24	228.90
963.54	228.90
963.83	229.03
964.13	229.13
964.42	229.05
964.72	228.97
965.01	228.99
965.31	229.01
965.60	229.07
965.90	229.17
966.19	228.94
966.49	229.05
966.78	229.10
967.08	229.01
967.37	229.10
967.67	229.16
967.96	229.33
968.26	229.37
968.55	229.44
968.85	229.52
969.14	229.55
969.43	229.54
969.73	229.40
970.02	229.33
970.32	229.30
970.61	229.33
970.91	229.18
971.20	229.18
971.49	229.17
971.79	229.19
972.08	229.09
972.38	229.19
972.67	229.14
972.96	229.10
973.26	229.10
973.55	228.97
973.85	228.81
974.14	228.68
974.43	228.70
974.73	228.59
975.02	228.58
975.31	228.60
975.61	228.59
975.90	228.58
976.19	228.52
976.49	228.60
976.78	228.60
977.07	228.61
977.37	228.50
977.66	228.53
977.95	228.44
978.24	228.35
978.54	228.38
978.83	228.39
979.12	228.35
979.42	228.22
979.71	228.25
980.00	228.29
980.29	228.31
980.59	228.18
980.88	228.23
981.17	228.18
981.46	228.14
981.76	228.15
982.05	228.22
982.34	228.16
982.63	228.04
982.93	228.00
983.22	227.97
983.51	227.90
983.80	227.82
984.09	227.81
984.39	227.82
984.68	227.86
984.97	227.68
985.26	227.69
985.55	227.75
985.85	227.66
986.14	227.63
986.43	227.57
986.72	227.60
987.01	227.61
987.30	227.46
987.59	227.40
987.89	227.34
988.18	227.29
988.47	227.24
988.76	227.21
989.05	227.14
989.34	227.07
989.63	227.17
989.92	227.21
990.22	227.16
990.51	227.18
990.80	227.14
991.09	227.23
991.38	227.17
991.67	227.13
991.96	227.13
992.25	227.16
992.54	227.21
992.83	227.21
993.12	227.22
993.41	227.33
993.70	227.41
993.99	227.52
994.28	227.61
994.58	227.62
994.87	227.56
995.16	227.64
995.45	227.69
995.74	227.70
996.03	227.76
996.32	227.90
996.61	227.93
996.90	227.91
997.19	228.03
997.48	228.11
997.77	228.18
998.06	228.29
998.34	228.34
998.63	228.33
998.92	228.34
999.21	228.40
999.50	228.45
999.79	228.45
1000.08	228.43
1000.37	228.42
1000.66	228.56
1000.95	228.72
1001.24	228.77
1001.53	228.92
1001.82	228.92
1002.11	228.83
1002.40	228.87
1002.68	228.96
1002.97	229.19
1003.26	229.11
1003.55	229.06
1003.84	229.03
1004.13	229.10
1004.42	229.11
1004.71	229.22
1004.99	229.25
1005.28	229.30
1005.57	229.32
1005.86	229.34
1006.15	229.27
1006.44	229.22
1006.72	229.30
1007.01	229.33
1007.30	229.39
1007.59	229.33
1007.88	229.41
1008.17	229.47
1008.45	229.46
1008.74	229.39
1009.03	229.33
1009.32	229.30
1009.60	229.43
1009.89	229.47
1010.18	229.33
1010.47	229.30
1010.76	229.27
1011.04	229.29
1011.33	229.18
1011.62	229.11
1011.91	229.14
1012.19	229.15
1012.48	229.16
1012.77	229.02
1013.05	229.06
1013.34	229.02
1013.63	228.89
1013.92	228.80
1014.20	228.75
1014.49	228.70
1014.78	228.73
1015.06	228.50
1015.35	228.59
1015.64	228.43
1015.92	228.43
1016.21	228.43
1016.50	228.39
1016.78	228.37
1017.07	228.30
1017.36	228.25
1017.64	228.09
1017.93	228.00
1018.22	228.02
1018.50	227.95
1018.79	227.86
1019.08	227.68
1019.36	227.60
1019.65	227.61
1019.93	227.72
1020.22	227.73
1020.51	227.76
1020.79	227.66
1021.08	228.40
1021.36	226.80
1021.65	226.40
1021.94	227.60
1022.22	226.70
1022.51	226.90
1022.79	229.70
1023.08	228.60
1023.36	229.00
1023.65	227.10
>>>>>End Processed Spectral Data<<<<<
