SpectraSuite Data File
++++++++++++++++++++++++++++++++++++
Date: Fri Feb 01 14:34:13 EST 2013
User: group
Dark Spectrum Present: No
Reference Spectrum Present: No
Number of Sampled Component Spectra: 1
Spectrometers: USB2E7196
Integration Time (usec): 70000 (USB2E7196)
Spectra Averaged: 10 (USB2E7196)
Boxcar Smoothing: 10 (USB2E7196)
Correct for Electrical Dark: No (USB2E7196)
Strobe/Lamp Enabled: No (USB2E7196)
Correct for Detector Non-linearity: No (USB2E7196)
Correct for Stray Light: No (USB2E7196)
Number of Pixels in Processed Spectrum: 2048
>>>>>Begin Processed Spectral Data<<<<<
339.09	0.00
339.48	216.10
339.86	218.40
340.24	218.00
340.63	219.00
341.01	225.30
341.39	224.00
341.78	224.10
342.16	225.40
342.54	226.80
342.93	214.74
343.31	225.56
343.69	226.07
344.07	226.54
344.46	227.10
344.84	227.49
345.22	227.57
345.60	227.75
345.99	227.91
346.37	227.96
346.75	227.97
347.13	228.04
347.52	228.06
347.90	228.14
348.28	228.10
348.66	228.09
349.05	228.07
349.43	227.99
349.81	228.04
350.19	228.07
350.57	228.14
350.96	228.13
351.34	228.23
351.72	228.30
352.10	228.28
352.48	228.25
352.87	228.35
353.25	228.40
353.63	228.46
354.01	228.58
354.39	228.73
354.77	228.90
355.15	228.99
355.54	229.13
355.92	229.11
356.30	229.19
356.68	229.48
357.06	229.52
357.44	229.52
357.82	229.57
358.20	229.67
358.58	229.76
358.97	229.89
359.35	229.95
359.73	230.11
360.11	230.33
360.49	230.43
360.87	230.54
361.25	230.74
361.63	230.88
362.01	230.97
362.39	231.03
362.77	231.05
363.15	231.11
363.53	231.15
363.91	231.15
364.29	231.17
364.67	231.04
365.05	230.92
365.43	231.11
365.81	231.30
366.19	231.43
366.57	231.52
366.95	231.49
367.33	231.50
367.71	231.51
368.09	231.47
368.47	231.47
368.85	231.50
369.23	231.50
369.61	231.43
369.99	231.41
370.37	231.37
370.75	231.45
371.13	231.33
371.51	231.29
371.89	231.32
372.27	231.36
372.65	231.29
373.03	231.37
373.41	231.20
373.78	231.07
374.16	230.91
374.54	230.80
374.92	230.71
375.30	230.68
375.68	230.50
376.06	230.38
376.44	230.32
376.82	230.17
377.19	230.02
377.57	229.88
377.95	229.72
378.33	229.68
378.71	229.49
379.09	229.50
379.47	229.43
379.84	229.38
380.22	229.25
380.60	229.06
380.98	228.94
381.36	228.77
381.73	228.67
382.11	228.65
382.49	228.53
382.87	228.40
383.25	228.31
383.62	228.47
384.00	228.40
384.38	228.27
384.76	228.24
385.13	228.29
385.51	228.27
385.89	228.19
386.27	228.15
386.64	228.08
387.02	227.91
387.40	227.88
387.78	227.74
388.15	227.68
388.53	227.67
388.91	227.65
389.29	227.62
389.66	227.65
390.04	227.50
390.42	227.56
390.79	227.66
391.17	227.60
391.55	227.38
391.92	227.39
392.30	227.48
392.68	227.40
393.05	227.42
393.43	227.44
393.81	227.46
394.18	227.44
394.56	227.49
394.94	227.71
395.31	227.73
395.69	227.90
396.06	228.01
396.44	228.12
396.82	228.13
397.19	228.40
397.57	228.35
397.95	228.50
398.32	228.51
398.70	228.65
399.07	228.79
399.45	228.88
399.82	228.95
400.20	229.02
400.58	229.28
400.95	229.35
401.33	229.53
401.70	229.89
402.08	230.09
402.45	230.40
402.83	230.50
403.20	230.78
403.58	230.96
403.95	231.27
404.33	231.65
404.71	232.05
405.08	232.53
405.46	232.90
405.83	233.39
406.21	233.75
406.58	234.23
406.96	234.77
407.33	235.34
407.70	235.93
408.08	236.54
408.45	237.09
408.83	237.69
409.20	238.40
409.58	238.90
409.95	239.73
410.33	240.39
410.70	241.14
411.08	241.92
411.45	242.92
411.82	243.80
412.20	244.85
412.57	246.06
412.95	246.94
413.32	248.22
413.69	249.46
414.07	250.80
414.44	252.21
414.82	253.67
415.19	255.35
415.56	257.04
415.94	258.87
416.31	260.93
416.68	263.12
417.06	265.44
417.43	267.70
417.81	270.18
418.18	272.80
418.55	275.66
418.93	278.65
419.30	281.78
419.67	285.06
420.04	288.37
420.42	291.73
420.79	295.74
421.16	299.81
421.54	303.91
421.91	308.34
422.28	312.79
422.66	317.48
423.03	322.10
423.40	326.93
423.77	331.92
424.15	337.27
424.52	342.50
424.89	348.36
425.26	354.09
425.64	359.33
426.01	365.28
426.38	371.34
426.75	377.65
427.13	383.86
427.50	390.64
427.87	397.68
428.24	404.70
428.61	411.45
428.99	418.73
429.36	426.77
429.73	434.73
430.10	442.60
430.47	450.41
430.85	458.75
431.22	467.42
431.59	476.83
431.96	485.44
432.33	495.33
432.70	504.57
433.08	515.70
433.45	526.28
433.82	536.54
434.19	548.00
434.56	559.35
434.93	570.32
435.30	580.85
435.68	592.53
436.05	604.38
436.42	616.06
436.79	626.64
437.16	638.06
437.53	650.06
437.90	661.97
438.27	673.90
438.64	686.25
439.01	697.70
439.38	707.88
439.75	717.90
440.13	728.95
440.50	739.90
440.87	748.76
441.24	757.85
441.61	768.09
441.98	775.80
442.35	784.47
442.72	793.35
443.09	802.32
443.46	808.13
443.83	811.88
444.20	815.60
444.57	820.93
444.94	823.92
445.31	826.75
445.68	829.70
446.05	831.94
446.42	832.06
446.79	831.90
447.16	831.67
447.53	831.90
447.90	829.07
448.27	826.01
448.64	820.87
449.01	817.96
449.37	811.28
449.74	804.93
450.11	796.91
450.48	788.39
450.85	779.63
451.22	772.19
451.59	765.31
451.96	758.51
452.33	748.74
452.70	739.99
453.07	729.62
453.43	718.76
453.80	708.03
454.17	697.78
454.54	688.23
454.91	677.76
455.28	667.43
455.65	657.87
456.02	647.71
456.38	639.65
456.75	628.96
457.12	620.35
457.49	611.73
457.86	603.52
458.23	596.37
458.59	588.00
458.96	579.68
459.33	572.37
459.70	565.15
460.07	559.33
460.43	552.51
460.80	545.95
461.17	540.51
461.54	534.69
461.91	528.90
462.27	523.10
462.64	518.41
463.01	512.91
463.38	507.60
463.74	502.67
464.11	498.20
464.48	494.25
464.85	489.79
465.21	486.32
465.58	482.68
465.95	478.24
466.32	474.79
466.68	471.20
467.05	467.82
467.42	464.10
467.78	460.18
468.15	456.61
468.52	453.96
468.88	450.42
469.25	447.29
469.62	444.81
469.98	442.17
470.35	439.46
470.72	436.96
471.08	434.38
471.45	432.23
471.82	429.79
472.18	427.28
472.55	425.50
472.92	423.53
473.28	421.75
473.65	419.72
474.02	417.80
474.38	416.17
474.75	414.66
475.11	413.23
475.48	412.24
475.85	411.23
476.21	410.27
476.58	409.30
476.94	408.56
477.31	407.70
477.67	406.82
478.04	406.09
478.41	405.79
478.77	405.36
479.14	404.73
479.50	404.39
479.87	404.40
480.23	404.45
480.60	404.02
480.96	403.84
481.33	404.10
481.69	404.20
482.06	404.35
482.42	404.34
482.79	404.58
483.15	404.89
483.52	405.50
483.88	405.97
484.25	406.50
484.61	407.23
484.98	408.06
485.34	409.24
485.71	410.40
486.07	411.40
486.44	412.54
486.80	413.90
487.17	415.63
487.53	417.27
487.90	418.90
488.26	420.97
488.62	422.83
488.99	424.82
489.35	426.90
489.72	429.22
490.08	431.73
490.44	434.03
490.81	436.69
491.17	439.12
491.54	442.03
491.90	444.94
492.26	447.84
492.63	451.00
492.99	453.90
493.36	457.11
493.72	460.78
494.08	464.47
494.45	468.02
494.81	471.39
495.17	475.14
495.54	478.95
495.90	482.73
496.26	486.86
496.63	490.89
496.99	495.23
497.35	499.64
497.72	504.11
498.08	508.60
498.44	513.22
498.80	518.32
499.17	522.91
499.53	527.53
499.89	532.51
500.26	537.24
500.62	542.12
500.98	547.17
501.34	551.97
501.71	556.86
502.07	561.88
502.43	566.86
502.79	572.06
503.16	577.19
503.52	582.25
503.88	587.18
504.24	592.21
504.60	597.58
504.97	602.92
505.33	608.18
505.69	613.69
506.05	618.62
506.41	623.43
506.78	628.50
507.14	633.97
507.50	639.11
507.86	644.26
508.22	649.47
508.59	654.53
508.95	659.80
509.31	665.00
509.67	670.14
510.03	675.38
510.39	680.33
510.75	685.40
511.12	690.68
511.48	695.87
511.84	700.85
512.20	705.48
512.56	710.14
512.92	714.76
513.28	719.32
513.64	723.77
514.00	728.30
514.37	732.63
514.73	736.74
515.09	740.63
515.45	744.64
515.81	748.87
516.17	752.81
516.53	756.48
516.89	760.19
517.25	763.84
517.61	767.56
517.97	770.84
518.33	773.84
518.69	776.62
519.05	779.63
519.41	782.80
519.77	786.06
520.13	789.32
520.49	792.03
520.85	794.78
521.21	797.63
521.57	800.56
521.93	803.16
522.29	805.85
522.65	808.74
523.01	811.23
523.37	813.31
523.73	815.49
524.09	817.90
524.45	820.42
524.81	823.32
525.17	825.70
525.53	828.47
525.89	831.13
526.25	833.81
526.61	835.88
526.97	838.33
527.33	840.40
527.68	842.76
528.04	845.19
528.40	847.83
528.76	850.53
529.12	852.80
529.48	855.57
529.84	857.82
530.20	860.31
530.56	863.37
530.91	866.45
531.27	869.44
531.63	871.75
531.99	873.92
532.35	875.72
532.71	878.02
533.07	880.36
533.42	882.88
533.78	885.44
534.14	888.15
534.50	890.35
534.86	892.78
535.21	894.70
535.57	897.21
535.93	899.26
536.29	901.53
536.65	903.91
537.00	905.94
537.36	908.71
537.72	910.92
538.08	912.77
538.44	914.74
538.79	916.92
539.15	919.12
539.51	921.78
539.87	924.45
540.22	926.78
540.58	929.43
540.94	931.76
541.29	933.60
541.65	935.80
542.01	938.54
542.37	941.13
542.72	943.43
543.08	945.87
543.44	948.41
543.79	950.60
544.15	953.29
544.51	956.06
544.87	958.17
545.22	960.53
545.58	963.00
545.94	965.08
546.29	967.20
546.65	969.87
547.01	971.96
547.36	974.24
547.72	976.54
548.07	978.49
548.43	980.57
548.79	983.16
549.14	985.53
549.50	987.33
549.86	989.53
550.21	991.82
550.57	994.19
550.92	995.99
551.28	998.02
551.64	1000.22
551.99	1002.29
552.35	1004.30
552.70	1006.39
553.06	1008.47
553.41	1010.90
553.77	1013.13
554.13	1015.15
554.48	1017.43
554.84	1019.42
555.19	1021.45
555.55	1023.46
555.90	1025.07
556.26	1027.00
556.61	1028.85
556.97	1030.88
557.32	1032.71
557.68	1034.73
558.03	1036.37
558.39	1038.62
558.74	1041.03
559.10	1042.73
559.45	1044.64
559.81	1047.10
560.16	1049.22
560.52	1050.84
560.87	1052.87
561.23	1054.63
561.58	1056.81
561.94	1058.32
562.29	1060.01
562.64	1061.30
563.00	1062.82
563.35	1065.42
563.71	1067.39
564.06	1069.32
564.42	1071.41
564.77	1073.23
565.12	1075.23
565.48	1076.77
565.83	1078.14
566.19	1079.73
566.54	1081.15
566.89	1082.79
567.25	1084.09
567.60	1085.53
567.96	1087.37
568.31	1088.68
568.66	1089.82
569.02	1090.70
569.37	1091.74
569.72	1092.88
570.08	1094.22
570.43	1095.30
570.78	1095.68
571.14	1096.25
571.49	1097.03
571.84	1097.45
572.20	1097.98
572.55	1097.90
572.90	1098.12
573.26	1098.64
573.61	1098.48
573.96	1098.60
574.31	1097.95
574.67	1097.17
575.02	1096.40
575.37	1095.78
575.72	1094.86
576.08	1094.50
576.43	1094.04
576.78	1093.73
577.13	1093.25
577.49	1092.81
577.84	1092.08
578.19	1091.55
578.54	1090.81
578.90	1089.69
579.25	1088.55
579.60	1087.30
579.95	1086.40
580.30	1085.38
580.66	1083.84
581.01	1082.59
581.36	1081.19
581.71	1080.15
582.06	1079.17
582.42	1077.70
582.77	1076.40
583.12	1074.99
583.47	1073.51
583.82	1072.00
584.17	1070.12
584.53	1068.72
584.88	1066.90
585.23	1065.37
585.58	1063.28
585.93	1061.52
586.28	1060.04
586.63	1058.52
586.98	1056.83
587.34	1055.25
587.69	1053.53
588.04	1051.93
588.39	1050.49
588.74	1048.25
589.09	1046.05
589.44	1043.95
589.79	1042.09
590.14	1040.27
590.49	1037.97
590.84	1035.66
591.19	1033.74
591.54	1031.56
591.89	1028.40
592.25	1026.36
592.60	1023.48
592.95	1021.17
593.30	1018.53
593.65	1015.82
594.00	1012.88
594.35	1010.45
594.70	1007.30
595.05	1004.80
595.40	1002.07
595.75	998.72
596.10	996.55
596.45	994.25
596.80	991.83
597.15	989.55
597.50	986.59
597.85	984.36
598.19	982.01
598.54	979.32
598.89	976.79
599.24	974.85
599.59	972.00
599.94	969.40
600.29	966.59
600.64	964.08
600.99	961.11
601.34	958.51
601.69	955.47
602.04	952.73
602.39	949.51
602.74	947.16
603.08	944.86
603.43	942.23
603.78	939.47
604.13	936.58
604.48	933.66
604.83	930.94
605.18	928.43
605.53	925.28
605.87	921.73
606.22	918.72
606.57	915.32
606.92	912.33
607.27	909.69
607.62	906.96
607.96	903.88
608.31	901.00
608.66	897.98
609.01	894.92
609.36	891.44
609.70	887.79
610.05	883.65
610.40	880.37
610.75	876.63
611.10	872.75
611.44	868.89
611.79	865.48
612.14	861.85
612.49	857.77
612.83	854.08
613.18	850.90
613.53	847.18
613.88	843.28
614.22	839.31
614.57	835.32
614.92	831.55
615.27	827.91
615.61	824.21
615.96	820.27
616.31	816.88
616.65	814.06
617.00	810.89
617.35	807.72
617.70	803.87
618.04	800.13
618.39	796.84
618.74	793.46
619.08	789.44
619.43	785.96
619.78	782.60
620.12	779.22
620.47	775.36
620.82	771.97
621.16	768.81
621.51	765.60
621.85	762.39
622.20	758.73
622.55	755.35
622.89	752.01
623.24	749.00
623.59	745.66
623.93	742.29
624.28	739.35
624.62	736.24
624.97	733.12
625.32	730.04
625.66	727.06
626.01	723.86
626.35	720.80
626.70	717.57
627.04	714.66
627.39	711.51
627.73	708.53
628.08	705.33
628.43	702.26
628.77	699.19
629.12	696.10
629.46	693.23
629.81	689.88
630.15	686.76
630.50	683.41
630.84	679.95
631.19	676.49
631.53	673.22
631.88	669.85
632.22	666.39
632.57	663.31
632.91	659.78
633.26	656.84
633.60	653.89
633.95	650.90
634.29	647.66
634.64	644.97
634.98	641.86
635.32	639.28
635.67	636.50
636.01	633.50
636.36	630.50
636.70	627.60
637.05	624.98
637.39	622.16
637.73	619.58
638.08	617.20
638.42	614.70
638.77	612.14
639.11	609.36
639.45	606.98
639.80	604.27
640.14	601.70
640.49	598.95
640.83	596.25
641.17	593.74
641.52	590.91
641.86	587.88
642.20	585.25
642.55	582.25
642.89	579.55
643.23	577.01
643.58	574.65
643.92	571.95
644.26	569.41
644.61	566.92
644.95	564.29
645.29	561.19
645.64	558.48
645.98	555.74
646.32	553.25
646.66	550.26
647.01	547.50
647.35	545.03
647.69	542.72
648.04	540.27
648.38	537.40
648.72	534.96
649.06	532.39
649.41	529.89
649.75	527.31
650.09	524.67
650.43	522.20
650.78	519.23
651.12	516.60
651.46	513.94
651.80	511.44
652.14	508.95
652.49	506.55
652.83	504.09
653.17	501.54
653.51	499.17
653.85	497.25
654.20	494.97
654.54	492.52
654.88	489.86
655.22	487.20
655.56	484.72
655.90	482.29
656.25	480.07
656.59	477.75
656.93	475.46
657.27	473.32
657.61	470.91
657.95	468.90
658.29	466.86
658.64	464.51
658.98	462.12
659.32	459.76
659.66	457.65
660.00	455.55
660.34	453.20
660.68	450.97
661.02	448.54
661.36	446.57
661.70	444.53
662.05	442.58
662.39	440.87
662.73	439.03
663.07	437.20
663.41	435.14
663.75	433.27
664.09	431.37
664.43	429.31
664.77	427.46
665.11	425.47
665.45	423.71
665.79	421.97
666.13	420.24
666.47	418.48
666.81	416.54
667.15	414.56
667.49	412.90
667.83	411.29
668.17	409.52
668.51	407.64
668.85	405.80
669.19	404.19
669.53	402.39
669.87	400.71
670.21	398.89
670.55	397.33
670.89	395.76
671.23	394.27
671.57	392.63
671.91	391.06
672.25	389.56
672.58	387.90
672.92	386.20
673.26	384.70
673.60	383.37
673.94	382.09
674.28	380.80
674.62	379.50
674.96	378.02
675.30	376.84
675.64	375.54
675.97	374.18
676.31	372.77
676.65	371.53
676.99	370.44
677.33	369.15
677.67	367.81
678.01	366.41
678.34	365.06
678.68	363.86
679.02	362.47
679.36	361.35
679.70	360.05
680.04	358.95
680.37	357.68
680.71	356.39
681.05	355.31
681.39	354.20
681.73	353.00
682.06	351.82
682.40	350.59
682.74	349.62
683.08	348.69
683.42	347.55
683.75	346.35
684.09	345.10
684.43	344.03
684.77	342.98
685.10	341.95
685.44	341.02
685.78	339.91
686.12	338.95
686.45	337.69
686.79	336.67
687.13	335.70
687.46	334.70
687.80	333.71
688.14	332.54
688.48	331.43
688.81	330.35
689.15	329.51
689.49	328.53
689.82	327.32
690.16	326.17
690.50	325.16
690.83	324.16
691.17	323.00
691.51	321.96
691.84	321.00
692.18	320.01
692.52	318.88
692.85	317.96
693.19	317.10
693.52	316.25
693.86	315.35
694.20	314.55
694.53	313.73
694.87	312.78
695.21	311.88
695.54	311.01
695.88	310.16
696.21	309.19
696.55	308.35
696.88	307.41
697.22	306.45
697.56	305.63
697.89	304.80
698.23	304.10
698.56	303.36
698.90	302.65
699.23	301.76
699.57	300.94
699.90	300.11
700.24	299.13
700.58	298.14
700.91	297.41
701.25	296.55
701.58	295.80
701.92	295.10
702.25	294.44
702.59	293.70
702.92	293.02
703.26	292.18
703.59	291.35
703.93	290.98
704.26	290.49
704.60	289.75
704.93	289.09
705.26	288.42
705.60	287.79
705.93	286.99
706.27	286.36
706.60	285.92
706.94	285.31
707.27	284.86
707.61	284.46
707.94	283.91
708.27	283.31
708.61	282.66
708.94	282.05
709.28	281.63
709.61	281.05
709.94	280.50
710.28	280.10
710.61	279.67
710.95	278.76
711.28	278.32
711.61	277.78
711.95	277.20
712.28	276.69
712.61	276.20
712.95	275.84
713.28	275.50
713.61	274.95
713.95	274.49
714.28	273.94
714.61	273.39
714.95	272.90
715.28	272.34
715.61	271.88
715.95	271.41
716.28	270.77
716.61	270.28
716.95	269.76
717.28	269.38
717.61	268.93
717.94	268.57
718.28	267.91
718.61	267.55
718.94	267.12
719.27	266.67
719.61	266.30
719.94	265.78
720.27	265.27
720.60	264.84
720.94	264.47
721.27	264.18
721.60	263.92
721.93	263.47
722.27	263.26
722.60	262.85
722.93	262.52
723.26	262.23
723.59	261.93
723.93	261.85
724.26	261.46
724.59	261.12
724.92	260.86
725.25	260.64
725.59	260.32
725.92	260.06
726.25	259.68
726.58	259.30
726.91	259.10
727.24	258.84
727.57	258.55
727.91	258.13
728.24	257.89
728.57	257.57
728.90	257.29
729.23	256.83
729.56	256.66
729.89	256.41
730.22	256.14
730.55	255.80
730.89	255.27
731.22	254.98
731.55	254.63
731.88	254.36
732.21	254.09
732.54	253.80
732.87	253.63
733.20	253.41
733.53	253.16
733.86	252.84
734.19	252.57
734.52	252.34
734.85	252.35
735.18	251.98
735.51	251.73
735.84	251.52
736.17	251.41
736.50	251.08
736.83	250.98
737.16	250.68
737.49	250.40
737.82	250.20
738.15	249.91
738.48	249.64
738.81	249.47
739.14	249.17
739.47	248.89
739.80	248.58
740.13	248.49
740.46	248.22
740.79	248.02
741.12	247.76
741.45	247.56
741.78	247.17
742.11	247.00
742.44	246.71
742.77	246.50
743.10	246.33
743.43	246.20
743.75	245.83
744.08	245.93
744.41	245.74
744.74	245.57
745.07	245.40
745.40	245.36
745.73	245.20
746.06	245.02
746.39	244.91
746.71	244.74
747.04	244.47
747.37	244.37
747.70	244.30
748.03	244.17
748.36	243.95
748.68	243.81
749.01	243.64
749.34	243.58
749.67	243.55
750.00	243.40
750.33	243.30
750.65	243.13
750.98	242.71
751.31	242.65
751.64	242.47
751.97	242.47
752.29	242.22
752.62	241.99
752.95	241.96
753.28	241.79
753.60	241.60
753.93	241.46
754.26	241.28
754.59	241.03
754.91	240.92
755.24	240.82
755.57	240.69
755.90	240.58
756.22	240.34
756.55	240.19
756.88	240.02
757.20	239.81
757.53	239.70
757.86	239.58
758.19	239.54
758.51	239.40
758.84	239.07
759.17	239.07
759.49	239.03
759.82	238.91
760.15	238.96
760.47	238.89
760.80	238.84
761.13	238.76
761.45	238.65
761.78	238.54
762.11	238.43
762.43	238.32
762.76	238.29
763.08	238.28
763.41	238.05
763.74	237.93
764.06	237.89
764.39	237.83
764.71	237.73
765.04	237.59
765.37	237.61
765.69	237.61
766.02	237.49
766.34	237.30
766.67	237.13
767.00	236.92
767.32	236.97
767.65	237.00
767.97	236.92
768.30	236.78
768.62	236.77
768.95	236.67
769.27	236.68
769.60	236.63
769.92	236.56
770.25	236.56
770.57	236.39
770.90	236.21
771.22	236.04
771.55	235.93
771.87	235.89
772.20	235.71
772.52	235.76
772.85	235.93
773.17	235.91
773.50	235.87
773.82	235.86
774.15	235.70
774.47	235.46
774.80	235.38
775.12	235.35
775.45	235.15
775.77	235.05
776.09	234.87
776.42	234.72
776.74	234.66
777.07	234.53
777.39	234.50
777.72	234.35
778.04	234.33
778.36	234.31
778.69	234.10
779.01	234.11
779.33	233.85
779.66	233.48
779.98	233.40
780.31	233.30
780.63	233.30
780.95	233.28
781.28	233.15
781.60	233.13
781.92	233.09
782.25	233.09
782.57	233.02
782.89	233.06
783.22	232.95
783.54	232.89
783.86	232.87
784.19	232.86
784.51	232.93
784.83	232.85
785.16	232.73
785.48	232.74
785.80	232.72
786.12	232.71
786.45	232.76
786.77	232.71
787.09	232.67
787.42	232.47
787.74	232.28
788.06	232.40
788.38	232.37
788.71	232.30
789.03	232.24
789.35	232.40
789.67	232.38
789.99	232.38
790.32	232.27
790.64	232.31
790.96	232.35
791.28	232.29
791.61	232.22
791.93	232.36
792.25	232.35
792.57	232.35
792.89	232.29
793.21	232.25
793.54	232.23
793.86	232.28
794.18	232.34
794.50	232.39
794.82	232.29
795.14	232.19
795.47	232.20
795.79	232.21
796.11	232.03
796.43	232.02
796.75	232.09
797.07	232.19
797.39	232.14
797.71	231.99
798.04	232.02
798.36	232.17
798.68	232.01
799.00	231.99
799.32	231.96
799.64	231.95
799.96	231.90
800.28	231.82
800.60	231.79
800.92	231.80
801.24	231.77
801.56	231.72
801.89	231.74
802.21	231.80
802.53	231.88
802.85	231.84
803.17	231.74
803.49	231.78
803.81	231.69
804.13	231.75
804.45	231.75
804.77	231.68
805.09	231.60
805.41	231.60
805.73	231.63
806.05	231.55
806.37	231.58
806.69	231.61
807.01	231.65
807.33	231.51
807.65	231.40
807.97	231.49
808.28	231.56
808.60	231.56
808.92	231.50
809.24	231.60
809.56	231.57
809.88	231.56
810.20	231.38
810.52	231.35
810.84	231.21
811.16	231.14
811.48	231.14
811.80	231.15
812.12	231.18
812.43	231.24
812.75	231.34
813.07	231.39
813.39	231.31
813.71	231.31
814.03	231.32
814.35	231.29
814.67	231.08
814.98	231.00
815.30	230.97
815.62	230.87
815.94	230.52
816.26	230.58
816.58	230.56
816.89	230.57
817.21	230.47
817.53	230.49
817.85	230.53
818.17	230.37
818.48	230.20
818.80	230.17
819.12	230.02
819.44	229.80
819.76	229.67
820.07	229.59
820.39	229.50
820.71	229.51
821.03	229.52
821.34	229.53
821.66	229.39
821.98	229.33
822.30	229.27
822.61	229.40
822.93	229.34
823.25	229.20
823.57	229.10
823.88	229.20
824.20	229.01
824.52	229.01
824.83	229.02
825.15	228.94
825.47	228.89
825.79	228.93
826.10	228.99
826.42	228.97
826.74	229.03
827.05	229.10
827.37	229.17
827.69	229.17
828.00	229.16
828.32	229.20
828.64	229.24
828.95	229.36
829.27	229.29
829.58	229.31
829.90	229.45
830.22	229.49
830.53	229.30
830.85	229.30
831.17	229.32
831.48	229.39
831.80	229.50
832.11	229.54
832.43	229.44
832.75	229.47
833.06	229.64
833.38	229.59
833.69	229.59
834.01	229.57
834.32	229.50
834.64	229.60
834.96	229.74
835.27	229.60
835.59	229.51
835.90	229.50
836.22	229.40
836.53	229.37
836.85	229.38
837.16	229.77
837.48	229.85
837.79	229.83
838.11	229.85
838.42	229.89
838.74	229.86
839.05	229.90
839.37	229.87
839.68	229.71
840.00	229.73
840.31	229.85
840.63	229.84
840.94	229.82
841.26	229.76
841.57	229.67
841.88	229.83
842.20	229.87
842.51	229.86
842.83	229.90
843.14	230.04
843.46	230.12
843.77	229.96
844.08	229.91
844.40	229.91
844.71	229.82
845.03	229.79
845.34	229.76
845.65	229.72
845.97	229.71
846.28	229.68
846.60	229.70
846.91	229.59
847.22	229.52
847.54	229.51
847.85	229.58
848.16	229.47
848.48	229.42
848.79	229.48
849.10	229.61
849.42	229.64
849.73	229.45
850.04	229.31
850.36	229.26
850.67	229.37
850.98	229.22
851.30	229.28
851.61	229.25
851.92	229.23
852.23	229.31
852.55	229.30
852.86	229.30
853.17	229.27
853.49	229.23
853.80	229.30
854.11	229.34
854.42	229.28
854.74	229.29
855.05	229.26
855.36	229.08
855.67	228.96
855.99	228.92
856.30	229.12
856.61	229.12
856.92	229.10
857.23	229.08
857.55	229.06
857.86	229.08
858.17	229.10
858.48	229.05
858.79	228.95
859.11	228.99
859.42	228.82
859.73	228.76
860.04	228.60
860.35	228.34
860.66	228.25
860.98	228.20
861.29	228.14
861.60	228.05
861.91	228.12
862.22	228.11
862.53	228.10
862.84	227.84
863.16	228.00
863.47	227.90
863.78	227.85
864.09	227.91
864.40	227.92
864.71	227.94
865.02	227.97
865.33	228.04
865.64	227.92
865.95	228.00
866.27	228.13
866.58	228.13
866.89	228.31
867.20	228.32
867.51	228.39
867.82	228.42
868.13	228.50
868.44	228.56
868.75	228.57
869.06	228.58
869.37	228.65
869.68	228.45
869.99	228.55
870.30	228.57
870.61	228.64
870.92	228.56
871.23	228.51
871.54	228.60
871.85	228.53
872.16	228.50
872.47	228.56
872.78	228.46
873.09	228.58
873.40	228.55
873.71	228.64
874.02	228.65
874.33	228.68
874.64	228.65
874.95	228.64
875.26	228.63
875.56	228.69
875.87	228.68
876.18	228.65
876.49	228.82
876.80	228.74
877.11	228.67
877.42	228.61
877.73	228.59
878.04	228.63
878.35	228.72
878.66	228.75
878.96	228.71
879.27	228.74
879.58	228.78
879.89	228.76
880.20	228.80
880.51	228.69
880.82	228.69
881.12	228.78
881.43	228.73
881.74	228.68
882.05	228.60
882.36	228.56
882.67	228.70
882.97	228.45
883.28	228.48
883.59	228.49
883.90	228.52
884.21	228.57
884.51	228.42
884.82	228.44
885.13	228.55
885.44	228.67
885.74	228.69
886.05	228.58
886.36	228.58
886.67	228.48
886.98	228.69
887.28	228.75
887.59	228.72
887.90	228.74
888.20	228.80
888.51	228.87
888.82	228.83
889.13	228.80
889.43	229.07
889.74	229.12
890.05	229.12
890.35	229.14
890.66	229.13
890.97	229.10
891.28	228.97
891.58	228.95
891.89	228.92
892.20	228.94
892.50	228.99
892.81	228.96
893.12	228.91
893.42	228.77
893.73	228.74
894.04	228.76
894.34	228.74
894.65	228.66
894.95	228.55
895.26	228.60
895.57	228.68
895.87	228.40
896.18	228.49
896.48	228.55
896.79	228.55
897.10	228.54
897.40	228.65
897.71	228.76
898.01	228.75
898.32	228.68
898.63	228.64
898.93	228.60
899.24	228.71
899.54	228.69
899.85	228.72
900.15	228.80
900.46	228.75
900.76	228.80
901.07	228.84
901.38	228.91
901.68	228.97
901.99	228.94
902.29	228.96
902.60	228.91
902.90	228.91
903.21	228.92
903.51	228.96
903.82	228.92
904.12	228.79
904.43	228.72
904.73	228.74
905.03	228.72
905.34	228.87
905.64	228.82
905.95	228.90
906.25	228.79
906.56	228.66
906.86	228.61
907.17	228.54
907.47	228.57
907.77	228.53
908.08	228.45
908.38	228.46
908.69	228.44
908.99	228.45
909.30	228.44
909.60	228.51
909.90	228.52
910.21	228.44
910.51	228.51
910.81	228.56
911.12	228.54
911.42	228.63
911.73	228.54
912.03	228.59
912.33	228.70
912.64	228.73
912.94	228.84
913.24	228.84
913.55	228.82
913.85	228.69
914.15	228.67
914.46	228.75
914.76	228.71
915.06	228.75
915.37	228.66
915.67	228.61
915.97	228.57
916.27	228.56
916.58	228.60
916.88	228.54
917.18	228.59
917.49	228.72
917.79	228.60
918.09	228.66
918.39	228.64
918.70	228.52
919.00	228.62
919.30	228.60
919.60	228.60
919.91	228.65
920.21	228.79
920.51	228.79
920.81	228.65
921.12	228.64
921.42	228.63
921.72	228.61
922.02	228.67
922.32	228.60
922.63	228.62
922.93	228.73
923.23	228.70
923.53	228.68
923.83	228.55
924.13	228.61
924.44	228.60
924.74	228.64
925.04	228.83
925.34	228.71
925.64	228.70
925.94	228.67
926.24	228.80
926.55	228.75
926.85	228.81
927.15	228.78
927.45	228.82
927.75	228.79
928.05	228.90
928.35	228.80
928.65	228.82
928.95	228.88
929.26	228.80
929.56	228.87
929.86	228.90
930.16	228.90
930.46	228.88
930.76	228.84
931.06	228.80
931.36	228.66
931.66	228.70
931.96	228.77
932.26	228.78
932.56	228.58
932.86	228.64
933.16	228.69
933.46	228.75
933.76	228.74
934.06	228.77
934.36	228.70
934.66	228.67
934.96	228.72
935.26	228.62
935.56	228.71
935.86	228.68
936.16	228.60
936.46	228.55
936.76	228.53
937.06	228.49
937.36	228.42
937.66	228.34
937.96	228.33
938.26	228.19
938.56	228.19
938.86	228.24
939.16	228.30
939.46	228.20
939.76	228.12
940.06	228.00
940.35	227.97
940.65	227.93
940.95	227.96
941.25	227.81
941.55	227.78
941.85	227.66
942.15	227.59
942.45	227.70
942.75	227.73
943.04	227.72
943.34	227.73
943.64	227.73
943.94	227.74
944.24	227.77
944.54	227.74
944.84	227.74
945.13	227.60
945.43	227.46
945.73	227.47
946.03	227.46
946.33	227.49
946.62	227.48
946.92	227.43
947.22	227.45
947.52	227.46
947.82	227.40
948.11	227.40
948.41	227.42
948.71	227.25
949.01	227.28
949.31	227.32
949.60	227.32
949.90	227.38
950.20	227.36
950.50	227.32
950.79	227.32
951.09	227.30
951.39	227.35
951.69	227.30
951.98	227.32
952.28	227.43
952.58	227.44
952.87	227.49
953.17	227.57
953.47	227.51
953.76	227.64
954.06	227.66
954.36	227.66
954.66	227.68
954.95	227.70
955.25	227.58
955.55	227.53
955.84	227.48
956.14	227.58
956.44	227.64
956.73	227.61
957.03	227.70
957.32	227.79
957.62	227.85
957.92	227.90
958.21	227.87
958.51	228.02
958.81	228.06
959.10	228.02
959.40	228.12
959.69	228.12
959.99	228.10
960.29	228.09
960.58	228.09
960.88	228.18
961.17	228.28
961.47	228.34
961.76	228.30
962.06	228.34
962.36	228.18
962.65	228.16
962.95	228.21
963.24	228.20
963.54	228.21
963.83	228.29
964.13	228.36
964.42	228.34
964.72	228.29
965.01	228.34
965.31	228.36
965.60	228.26
965.90	228.55
966.19	228.48
966.49	228.58
966.78	228.62
967.08	228.59
967.37	228.60
967.67	228.64
967.96	228.66
968.26	228.80
968.55	228.92
968.85	228.89
969.14	228.91
969.43	228.96
969.73	228.94
970.02	228.91
970.32	228.93
970.61	228.94
970.91	228.97
971.20	228.86
971.49	228.91
971.79	228.96
972.08	228.82
972.38	228.79
972.67	228.78
972.96	228.76
973.26	228.66
973.55	228.63
973.85	228.59
974.14	228.72
974.43	228.67
974.73	228.58
975.02	228.58
975.31	228.60
975.61	228.57
975.90	228.53
976.19	228.46
976.49	228.50
976.78	228.50
977.07	228.35
977.37	228.38
977.66	228.31
977.95	228.27
978.24	228.23
978.54	228.42
978.83	228.33
979.12	228.30
979.42	228.41
979.71	228.38
980.00	228.45
980.29	228.39
980.59	228.29
980.88	228.32
981.17	228.40
981.46	228.27
981.76	228.22
982.05	228.27
982.34	228.33
982.63	228.22
982.93	228.25
983.22	228.33
983.51	228.38
983.80	228.44
984.09	228.47
984.39	228.49
984.68	228.37
984.97	228.44
985.26	228.39
985.55	228.38
985.85	228.39
986.14	228.42
986.43	228.46
986.72	228.52
987.01	228.40
987.30	228.33
987.59	228.40
987.89	228.38
988.18	228.34
988.47	228.38
988.76	228.35
989.05	228.30
989.34	228.21
989.63	228.19
989.92	228.23
990.22	228.12
990.51	228.07
990.80	228.12
991.09	228.18
991.38	228.23
991.67	228.23
991.96	228.12
992.25	228.00
992.54	227.91
992.83	227.95
993.12	227.98
993.41	227.96
993.70	228.06
993.99	228.04
994.28	228.04
994.58	227.96
994.87	227.93
995.16	227.95
995.45	227.93
995.74	227.87
996.03	227.86
996.32	227.95
996.61	227.90
996.90	227.91
997.19	227.76
997.48	227.80
997.77	227.76
998.06	227.94
998.34	227.97
998.63	228.04
998.92	227.94
999.21	227.99
999.50	228.02
999.79	227.94
1000.08	227.99
1000.37	228.05
1000.66	228.08
1000.95	228.13
1001.24	228.16
1001.53	228.31
1001.82	228.38
1002.11	228.36
1002.40	228.47
1002.68	228.57
1002.97	228.66
1003.26	228.63
1003.55	228.60
1003.84	228.67
1004.13	228.70
1004.42	228.70
1004.71	228.65
1004.99	228.72
1005.28	228.80
1005.57	228.85
1005.86	228.81
1006.15	228.90
1006.44	228.89
1006.72	229.06
1007.01	229.07
1007.30	229.10
1007.59	229.00
1007.88	228.94
1008.17	228.87
1008.45	228.81
1008.74	228.77
1009.03	228.71
1009.32	228.84
1009.60	228.85
1009.89	228.86
1010.18	228.79
1010.47	228.79
1010.76	228.85
1011.04	228.80
1011.33	228.85
1011.62	228.87
1011.91	228.89
1012.19	228.79
1012.48	228.74
1012.77	228.57
1013.05	228.68
1013.34	228.64
1013.63	228.63
1013.92	228.68
1014.20	228.68
1014.49	228.74
1014.78	228.80
1015.06	228.71
1015.35	228.73
1015.64	228.74
1015.92	228.76
1016.21	228.70
1016.50	228.64
1016.78	228.55
1017.07	228.54
1017.36	228.44
1017.64	228.34
1017.93	228.37
1018.22	228.32
1018.50	228.26
1018.79	228.30
1019.08	228.24
1019.36	228.31
1019.65	228.37
1019.93	228.48
1020.22	228.51
1020.51	228.57
1020.79	228.51
1021.08	226.70
1021.36	227.00
1021.65	228.90
1021.94	229.30
1022.22	229.30
1022.51	229.60
1022.79	230.30
1023.08	228.40
1023.36	232.10
1023.65	228.10
>>>>>End Processed Spectral Data<<<<<
