SpectraSuite Data File
++++++++++++++++++++++++++++++++++++
Date: Fri Feb 01 14:35:10 EST 2013
User: group
Dark Spectrum Present: No
Reference Spectrum Present: No
Number of Sampled Component Spectra: 1
Spectrometers: USB2E7196
Integration Time (usec): 70000 (USB2E7196)
Spectra Averaged: 10 (USB2E7196)
Boxcar Smoothing: 10 (USB2E7196)
Correct for Electrical Dark: No (USB2E7196)
Strobe/Lamp Enabled: No (USB2E7196)
Correct for Detector Non-linearity: No (USB2E7196)
Correct for Stray Light: No (USB2E7196)
Number of Pixels in Processed Spectrum: 2048
>>>>>Begin Processed Spectral Data<<<<<
339.09	0.00
339.48	217.40
339.86	218.20
340.24	219.20
340.63	221.10
341.01	223.00
341.39	222.20
341.78	224.70
342.16	225.40
342.54	226.60
342.93	214.93
343.31	225.76
343.69	226.15
344.07	226.73
344.46	227.12
344.84	227.47
345.22	227.71
345.60	228.07
345.99	228.37
346.37	228.51
346.75	228.61
347.13	228.70
347.52	228.76
347.90	228.87
348.28	228.82
348.66	228.83
349.05	228.81
349.43	228.76
349.81	228.85
350.19	228.85
350.57	228.95
350.96	229.10
351.34	229.20
351.72	229.40
352.10	229.37
352.48	229.59
352.87	229.66
353.25	229.73
353.63	229.77
354.01	229.70
354.39	229.78
354.77	229.82
355.15	229.89
355.54	229.92
355.92	230.00
356.30	230.16
356.68	230.34
357.06	230.39
357.44	230.55
357.82	230.50
358.20	230.49
358.58	230.44
358.97	230.46
359.35	230.71
359.73	230.70
360.11	230.73
360.49	230.70
360.87	230.77
361.25	230.77
361.63	230.83
362.01	230.84
362.39	230.88
362.77	230.85
363.15	230.94
363.53	230.93
363.91	230.83
364.29	230.90
364.67	230.77
365.05	230.86
365.43	230.82
365.81	230.90
366.19	231.03
366.57	231.04
366.95	230.96
367.33	230.78
367.71	230.77
368.09	230.73
368.47	230.72
368.85	230.58
369.23	230.55
369.61	230.43
369.99	230.53
370.37	230.51
370.75	230.66
371.13	230.53
371.51	230.43
371.89	230.39
372.27	230.28
372.65	230.12
373.03	230.02
373.41	229.96
373.78	229.82
374.16	229.67
374.54	229.65
374.92	229.59
375.30	229.39
375.68	229.23
376.06	229.21
376.44	229.07
376.82	229.02
377.19	229.01
377.57	228.89
377.95	228.70
378.33	228.53
378.71	228.23
379.09	228.14
379.47	227.99
379.84	227.89
380.22	227.74
380.60	227.69
380.98	227.58
381.36	227.40
381.73	227.25
382.11	227.14
382.49	227.00
382.87	226.91
383.25	226.95
383.62	227.18
384.00	227.00
384.38	226.87
384.76	226.95
385.13	226.89
385.51	226.84
385.89	226.70
386.27	226.75
386.64	226.79
387.02	226.75
387.40	226.70
387.78	226.77
388.15	226.70
388.53	226.66
388.91	226.62
389.29	226.59
389.66	226.66
390.04	226.66
390.42	226.74
390.79	226.79
391.17	226.72
391.55	226.50
391.92	226.56
392.30	226.60
392.68	226.52
393.05	226.53
393.43	226.71
393.81	226.78
394.18	226.72
394.56	226.90
394.94	226.92
395.31	227.03
395.69	227.09
396.06	227.28
396.44	227.41
396.82	227.56
397.19	227.86
397.57	227.90
397.95	227.95
398.32	228.01
398.70	228.14
399.07	228.31
399.45	228.51
399.82	228.66
400.20	228.85
400.58	229.01
400.95	229.15
401.33	229.27
401.70	229.66
402.08	229.87
402.45	229.92
402.83	230.21
403.20	230.50
403.58	230.73
403.95	231.03
404.33	231.20
404.71	231.44
405.08	231.79
405.46	232.10
405.83	232.52
406.21	232.86
406.58	233.24
406.96	233.67
407.33	234.10
407.70	234.54
408.08	235.17
408.45	235.69
408.83	236.34
409.20	236.86
409.58	237.18
409.95	237.83
410.33	238.47
410.70	239.08
411.08	239.82
411.45	240.71
411.82	241.48
412.20	242.54
412.57	243.52
412.95	244.37
413.32	245.45
413.69	246.47
414.07	247.61
414.44	248.80
414.82	249.98
415.19	251.39
415.56	252.85
415.94	254.30
416.31	256.09
416.68	257.69
417.06	259.62
417.43	261.55
417.81	263.65
418.18	265.79
418.55	268.22
418.93	270.64
419.30	273.11
419.67	275.77
420.04	278.25
420.42	281.14
420.79	284.35
421.16	287.68
421.54	290.98
421.91	294.48
422.28	298.03
422.66	302.00
423.03	305.77
423.40	309.74
423.77	313.92
424.15	318.04
424.52	322.31
424.89	326.96
425.26	331.72
425.64	336.14
426.01	341.03
426.38	345.97
426.75	351.10
427.13	356.40
427.50	361.92
427.87	367.94
428.24	373.70
428.61	379.28
428.99	385.35
429.36	392.17
429.73	398.74
430.10	405.18
430.47	411.68
430.85	418.50
431.22	425.53
431.59	433.17
431.96	440.50
432.33	448.91
432.70	456.73
433.08	465.75
433.45	474.35
433.82	483.03
434.19	492.48
434.56	501.77
434.93	510.55
435.30	519.42
435.68	529.36
436.05	539.15
436.42	548.77
436.79	557.40
437.16	566.63
437.53	576.53
437.90	586.56
438.27	596.43
438.64	606.46
439.01	615.75
439.38	624.10
439.75	631.99
440.13	641.10
440.50	649.95
440.87	657.26
441.24	664.85
441.61	673.33
441.98	679.87
442.35	687.22
442.72	694.85
443.09	702.40
443.46	706.92
443.83	710.14
444.20	713.23
444.57	717.69
444.94	720.21
445.31	722.97
445.68	725.36
446.05	727.02
446.42	727.35
446.79	727.62
447.16	727.57
447.53	728.06
447.90	725.82
448.27	723.35
448.64	719.31
449.01	716.97
449.37	711.52
449.74	706.22
450.11	699.68
450.48	692.44
450.85	684.92
451.22	678.85
451.59	673.06
451.96	667.32
452.33	659.38
452.70	652.34
453.07	643.29
453.43	634.52
453.80	625.90
454.17	617.30
454.54	609.40
454.91	600.64
455.28	592.22
455.65	584.09
456.02	576.06
456.38	569.21
456.75	560.51
457.12	552.99
457.49	545.71
457.86	538.89
458.23	533.00
458.59	526.12
458.96	519.22
459.33	513.16
459.70	507.25
460.07	502.24
460.43	496.60
460.80	491.15
461.17	486.34
461.54	481.47
461.91	476.82
462.27	472.01
462.64	467.94
463.01	463.48
463.38	458.90
463.74	454.61
464.11	450.81
464.48	447.46
464.85	443.88
465.21	441.07
465.58	437.85
465.95	434.03
466.32	431.12
466.68	427.95
467.05	424.80
467.42	421.57
467.78	418.38
468.15	415.30
468.52	413.20
468.88	410.26
469.25	407.48
469.62	405.31
469.98	402.84
470.35	400.63
470.72	398.41
471.08	396.29
471.45	394.34
471.82	392.42
472.18	390.15
472.55	388.55
472.92	386.71
473.28	385.08
473.65	383.31
474.02	381.63
474.38	380.32
474.75	379.15
475.11	377.95
475.48	376.91
475.85	375.99
476.21	374.98
476.58	374.15
476.94	373.40
477.31	372.73
477.67	372.11
478.04	371.46
478.41	371.10
478.77	370.80
479.14	370.17
479.50	369.77
479.87	369.60
480.23	369.41
480.60	369.07
480.96	368.87
481.33	369.14
481.69	369.32
482.06	369.44
482.42	369.38
482.79	369.47
483.15	369.98
483.52	370.63
483.88	371.09
484.25	371.56
484.61	372.21
484.98	372.76
485.34	373.54
485.71	374.43
486.07	375.17
486.44	375.88
486.80	377.02
487.17	378.14
487.53	379.29
487.90	380.69
488.26	382.12
488.62	383.67
488.99	384.91
489.35	386.26
489.72	387.91
490.08	389.79
490.44	391.74
490.81	393.42
491.17	395.09
491.54	396.99
491.90	398.94
492.26	400.90
492.63	403.16
492.99	405.26
493.36	407.49
493.72	410.00
494.08	412.53
494.45	415.13
494.81	417.93
495.17	420.67
495.54	423.41
495.90	426.18
496.26	428.86
496.63	431.81
496.99	434.82
497.35	437.96
497.72	441.04
498.08	443.95
498.44	447.08
498.80	450.53
499.17	453.77
499.53	456.93
499.89	460.22
500.26	463.21
500.62	466.38
500.98	469.87
501.34	473.02
501.71	476.50
502.07	479.70
502.43	482.90
502.79	486.04
503.16	489.28
503.52	492.51
503.88	495.71
504.24	499.06
504.60	502.50
504.97	505.43
505.33	508.72
505.69	512.37
506.05	515.65
506.41	518.27
506.78	521.30
507.14	524.48
507.50	527.66
507.86	530.79
508.22	534.01
508.59	536.75
508.95	539.69
509.31	542.33
509.67	545.23
510.03	547.84
510.39	550.69
510.75	553.45
511.12	556.17
511.48	558.73
511.84	561.33
512.20	563.46
512.56	565.97
512.92	568.24
513.28	570.22
513.64	572.26
514.00	574.60
514.37	576.83
514.73	578.98
515.09	580.75
515.45	582.53
515.81	584.33
516.17	586.38
516.53	588.21
516.89	590.03
517.25	591.52
517.61	593.18
517.97	594.62
518.33	595.85
518.69	597.16
519.05	598.70
519.41	600.01
519.77	601.71
520.13	603.00
520.49	604.35
520.85	605.44
521.21	606.85
521.57	608.36
521.93	609.53
522.29	610.83
522.65	612.28
523.01	613.46
523.37	614.30
523.73	615.21
524.09	616.21
524.45	617.37
524.81	618.83
525.17	620.25
525.53	621.84
525.89	623.22
526.25	624.73
526.61	625.99
526.97	627.36
527.33	628.50
527.68	630.08
528.04	631.42
528.40	632.98
528.76	634.37
529.12	635.67
529.48	637.38
529.84	638.65
530.20	640.16
530.56	642.04
530.91	644.10
531.27	646.07
531.63	647.73
531.99	649.55
532.35	651.29
532.71	653.00
533.07	654.86
533.42	657.01
533.78	658.83
534.14	660.90
534.50	662.78
534.86	664.92
535.21	666.78
535.57	669.05
535.93	671.37
536.29	673.67
536.65	675.95
537.00	677.98
537.36	680.59
537.72	682.79
538.08	685.14
538.44	687.46
538.79	689.82
539.15	692.42
539.51	695.30
539.87	697.95
540.22	700.82
540.58	703.31
540.94	705.65
541.29	708.39
541.65	711.10
542.01	714.32
542.37	717.31
542.72	720.25
543.08	723.18
543.44	726.10
543.79	728.70
544.15	731.67
544.51	734.78
544.87	737.75
545.22	741.06
545.58	744.10
545.94	747.00
546.29	750.00
546.65	753.07
547.01	755.60
547.36	758.49
547.72	761.19
548.07	764.24
548.43	767.30
548.79	770.09
549.14	773.02
549.50	775.53
549.86	778.43
550.21	781.31
550.57	784.26
550.92	787.10
551.28	790.22
551.64	793.19
551.99	796.44
552.35	799.09
552.70	802.04
553.06	805.13
553.41	808.20
553.77	811.48
554.13	814.70
554.48	817.98
554.84	821.09
555.19	824.28
555.55	827.30
555.90	830.52
556.26	833.92
556.61	837.00
556.97	840.16
557.32	843.33
557.68	846.33
558.03	849.30
558.39	852.35
558.74	855.73
559.10	858.68
559.45	861.54
559.81	864.85
560.16	867.74
560.52	870.63
560.87	873.83
561.23	876.38
561.58	879.50
561.94	882.42
562.29	885.06
562.64	887.84
563.00	890.48
563.35	893.33
563.71	896.29
564.06	899.22
564.42	902.00
564.77	904.26
565.12	907.27
565.48	910.10
565.83	912.43
566.19	914.85
566.54	917.28
566.89	919.66
567.25	922.25
567.60	924.92
567.96	927.41
568.31	929.44
568.66	931.77
569.02	933.71
569.37	935.86
569.72	938.23
570.08	940.06
570.43	942.00
570.78	943.57
571.14	945.01
571.49	946.70
571.84	948.60
572.20	950.38
572.55	951.60
572.90	952.69
573.26	954.32
573.61	955.56
573.96	956.96
574.31	957.74
574.67	958.32
575.02	958.66
575.37	959.37
575.72	959.82
576.08	960.59
576.43	961.06
576.78	961.45
577.13	961.97
577.49	962.57
577.84	963.04
578.19	963.73
578.54	963.97
578.90	963.94
579.25	963.61
579.60	963.48
579.95	963.43
580.30	963.13
580.66	963.24
581.01	962.72
581.36	962.55
581.71	962.48
582.06	962.23
582.42	962.14
582.77	961.69
583.12	961.60
583.47	961.12
583.82	960.36
584.17	959.66
584.53	958.88
584.88	958.37
585.23	957.64
585.58	956.66
585.93	955.89
586.28	955.35
586.63	954.93
586.98	954.62
587.34	953.94
587.69	953.60
588.04	952.26
588.39	951.60
588.74	950.05
589.09	948.69
589.44	947.57
589.79	946.40
590.14	945.30
590.49	944.07
590.84	942.69
591.19	941.83
591.54	940.33
591.89	938.50
592.25	936.92
592.60	935.21
592.95	933.49
593.30	931.76
593.65	929.98
594.00	927.79
594.35	925.76
594.70	923.79
595.05	921.71
595.40	919.63
595.75	917.52
596.10	915.80
596.45	914.46
596.80	912.93
597.15	911.02
597.50	909.06
597.85	907.18
598.19	905.42
598.54	903.51
598.89	901.83
599.24	900.47
599.59	898.32
599.94	896.41
600.29	894.62
600.64	892.57
600.99	890.41
601.34	888.73
601.69	886.67
602.04	884.57
602.39	882.35
602.74	880.66
603.08	878.69
603.43	877.06
603.78	874.66
604.13	872.27
604.48	870.05
604.83	867.81
605.18	865.68
605.53	863.19
605.87	860.52
606.22	858.29
606.57	855.48
606.92	853.08
607.27	850.92
607.62	848.63
607.96	846.49
608.31	844.12
608.66	841.29
609.01	838.47
609.36	835.47
609.70	832.61
610.05	829.72
610.40	826.95
610.75	823.71
611.10	820.85
611.44	817.75
611.79	814.83
612.14	812.04
612.49	808.66
612.83	805.47
613.18	802.57
613.53	799.52
613.88	796.70
614.22	793.71
614.57	790.49
614.92	787.42
615.27	784.57
615.61	781.27
615.96	778.35
616.31	775.48
616.65	773.31
617.00	770.68
617.35	767.56
617.70	764.55
618.04	761.58
618.39	758.72
618.74	755.95
619.08	752.82
619.43	749.86
619.78	747.21
620.12	744.87
620.47	741.99
620.82	738.78
621.16	735.82
621.51	733.27
621.85	730.41
622.20	727.20
622.55	724.10
622.89	721.40
623.24	718.78
623.59	716.01
623.93	713.09
624.28	710.16
624.62	707.70
624.97	705.07
625.32	702.54
625.66	699.93
626.01	697.15
626.35	694.70
626.70	691.84
627.04	689.03
627.39	685.85
627.73	682.94
628.08	680.49
628.43	677.57
628.77	674.45
629.12	671.53
629.46	669.03
629.81	666.28
630.15	663.22
630.50	660.02
630.84	657.27
631.19	654.19
631.53	651.42
631.88	648.22
632.22	645.12
632.57	642.39
632.91	639.17
633.26	636.20
633.60	633.21
633.95	630.46
634.29	627.74
634.64	625.24
634.98	622.66
635.32	619.95
635.67	617.43
636.01	615.05
636.36	612.49
636.70	609.89
637.05	607.14
637.39	604.86
637.73	602.44
638.08	600.15
638.42	597.60
638.77	594.99
639.11	592.58
639.45	590.14
639.80	587.30
640.14	585.00
640.49	582.66
640.83	580.02
641.17	577.50
641.52	574.96
641.86	572.23
642.20	569.84
642.55	567.26
642.89	564.94
643.23	562.44
643.58	560.32
643.92	557.61
644.26	555.22
644.61	553.02
644.95	550.67
645.29	547.80
645.64	545.24
645.98	542.79
646.32	540.41
646.66	538.09
647.01	535.72
647.35	533.28
647.69	530.74
648.04	528.80
648.38	526.30
648.72	523.80
649.06	521.41
649.41	519.03
649.75	516.54
650.09	514.06
650.43	511.31
650.78	508.45
651.12	506.09
651.46	503.72
651.80	501.12
652.14	498.90
652.49	496.60
652.83	494.38
653.17	492.04
653.51	489.79
653.85	487.49
654.20	485.22
654.54	482.76
654.88	480.44
655.22	477.82
655.56	475.41
655.90	473.16
656.25	471.01
656.59	468.56
656.93	466.38
657.27	464.15
657.61	462.06
657.95	460.14
658.29	458.03
658.64	455.93
658.98	453.80
659.32	451.40
659.66	449.41
660.00	447.31
660.34	445.27
660.68	443.20
661.02	440.99
661.36	439.02
661.70	437.28
662.05	435.57
662.39	433.93
662.73	432.35
663.07	430.60
663.41	428.68
663.75	426.93
664.09	425.13
664.43	423.35
664.77	421.54
665.11	419.83
665.45	418.14
665.79	416.38
666.13	414.61
666.47	413.03
666.81	411.26
667.15	409.54
667.49	407.88
667.83	406.29
668.17	404.75
668.51	403.13
668.85	401.42
669.19	399.81
669.53	398.03
669.87	396.22
670.21	394.71
670.55	393.32
670.89	391.92
671.23	390.62
671.57	389.18
671.91	387.79
672.25	386.38
672.58	384.99
672.92	383.48
673.26	382.19
673.60	380.82
673.94	379.30
674.28	378.14
674.62	376.89
674.96	375.48
675.30	374.23
675.64	372.98
675.97	371.79
676.31	370.44
676.65	369.39
676.99	368.21
677.33	366.88
677.67	365.50
678.01	364.21
678.34	362.81
678.68	361.55
679.02	360.49
679.36	359.19
679.70	358.00
680.04	356.82
680.37	355.59
680.71	354.40
681.05	353.47
681.39	352.17
681.73	350.91
682.06	349.80
682.40	348.72
682.74	347.56
683.08	346.43
683.42	345.35
683.75	344.16
684.09	343.07
684.43	341.97
684.77	340.92
685.10	339.69
685.44	338.54
685.78	337.40
686.12	336.14
686.45	335.04
686.79	333.91
687.13	332.96
687.46	331.90
687.80	330.83
688.14	329.66
688.48	328.72
688.81	327.71
689.15	326.76
689.49	325.65
689.82	324.66
690.16	323.49
690.50	322.57
690.83	321.59
691.17	320.65
691.51	319.81
691.84	318.90
692.18	317.96
692.52	317.13
692.85	316.18
693.19	315.35
693.52	314.41
693.86	313.50
694.20	312.54
694.53	311.71
694.87	310.82
695.21	309.97
695.54	309.05
695.88	308.19
696.21	307.17
696.55	306.35
696.88	305.44
697.22	304.61
697.56	303.76
697.89	302.82
698.23	301.91
698.56	301.01
698.90	300.14
699.23	299.38
699.57	298.46
699.90	297.66
700.24	296.88
700.58	296.12
700.91	295.38
701.25	294.72
701.58	294.07
701.92	293.36
702.25	292.74
702.59	292.04
702.92	291.33
703.26	290.77
703.59	290.14
703.93	289.62
704.26	289.01
704.60	288.31
704.93	287.72
705.26	287.13
705.60	286.54
705.93	285.92
706.27	285.49
706.60	285.12
706.94	284.71
707.27	284.06
707.61	283.39
707.94	282.80
708.27	282.12
708.61	281.45
708.94	280.92
709.28	280.29
709.61	279.82
709.94	279.54
710.28	279.05
710.61	278.40
710.95	277.75
711.28	277.33
711.61	276.80
711.95	276.24
712.28	275.73
712.61	275.21
712.95	274.75
713.28	274.27
713.61	273.64
713.95	272.98
714.28	272.52
714.61	272.24
714.95	271.75
715.28	271.20
715.61	270.74
715.95	270.30
716.28	269.89
716.61	269.42
716.95	268.82
717.28	268.37
717.61	268.11
717.94	267.66
718.28	267.12
718.61	266.74
718.94	266.51
719.27	266.10
719.61	265.77
719.94	265.31
720.27	264.84
720.60	264.45
720.94	264.25
721.27	263.98
721.60	263.57
721.93	263.22
722.27	263.06
722.60	262.76
722.93	262.40
723.26	262.09
723.59	261.68
723.93	261.39
724.26	261.05
724.59	260.60
724.92	260.40
725.25	260.20
725.59	259.88
725.92	259.62
726.25	259.41
726.58	259.12
726.91	258.85
727.24	258.57
727.57	258.33
727.91	257.90
728.24	257.65
728.57	257.35
728.90	257.16
729.23	256.85
729.56	256.56
729.89	256.27
730.22	255.94
730.55	255.64
730.89	255.28
731.22	255.04
731.55	254.84
731.88	254.58
732.21	254.36
732.54	254.01
732.87	253.60
733.20	253.31
733.53	252.96
733.86	252.80
734.19	252.60
734.52	252.43
734.85	252.30
735.18	251.93
735.51	251.73
735.84	251.53
736.17	251.27
736.50	251.09
736.83	251.12
737.16	250.83
737.49	250.66
737.82	250.48
738.15	250.28
738.48	250.06
738.81	249.68
739.14	249.31
739.47	249.19
739.80	249.04
740.13	248.84
740.46	248.68
740.79	248.46
741.12	248.19
741.45	247.89
741.78	247.72
742.11	247.54
742.44	247.30
742.77	247.07
743.10	246.79
743.43	246.47
743.75	245.91
744.08	246.12
744.41	245.84
744.74	245.68
745.07	245.40
745.40	245.13
745.73	245.11
746.06	245.03
746.39	244.85
746.71	244.61
747.04	244.40
747.37	244.25
747.70	244.10
748.03	243.99
748.36	243.95
748.68	243.74
749.01	243.58
749.34	243.40
749.67	243.20
750.00	243.08
750.33	243.14
750.65	243.19
750.98	242.75
751.31	242.74
751.64	242.60
751.97	242.60
752.29	242.61
752.62	242.38
752.95	242.18
753.28	242.04
753.60	241.88
753.93	241.86
754.26	241.67
754.59	241.41
754.91	241.19
755.24	240.90
755.57	240.82
755.90	240.73
756.22	240.64
756.55	240.46
756.88	240.34
757.20	239.97
757.53	239.66
757.86	239.41
758.19	239.24
758.51	239.06
758.84	238.89
759.17	238.67
759.49	238.60
759.82	238.55
760.15	238.40
760.47	238.29
760.80	238.06
761.13	237.96
761.45	237.90
761.78	237.80
762.11	237.74
762.43	237.61
762.76	237.50
763.08	237.40
763.41	237.34
763.74	237.30
764.06	237.21
764.39	237.22
764.71	237.17
765.04	237.03
765.37	236.91
765.69	236.70
766.02	236.68
766.34	236.55
766.67	236.53
767.00	236.53
767.32	236.62
767.65	236.63
767.97	236.56
768.30	236.50
768.62	236.36
768.95	236.25
769.27	236.06
769.60	235.95
769.92	235.86
770.25	235.76
770.57	235.70
770.90	235.65
771.22	235.57
771.55	235.49
771.87	235.40
772.20	235.40
772.52	235.51
772.85	235.57
773.17	235.50
773.50	235.39
773.82	235.23
774.15	234.95
774.47	234.79
774.80	234.62
775.12	234.50
775.45	234.42
775.77	234.30
776.09	234.32
776.42	234.21
776.74	234.11
777.07	234.09
777.39	233.92
777.72	233.89
778.04	233.87
778.36	233.82
778.69	233.78
779.01	233.63
779.33	233.45
779.66	233.21
779.98	233.26
780.31	233.15
780.63	233.16
780.95	233.19
781.28	233.06
781.60	233.09
781.92	233.17
782.25	233.06
782.57	233.02
782.89	232.87
783.22	232.88
783.54	232.84
783.86	232.81
784.19	232.79
784.51	232.70
784.83	232.52
785.16	232.41
785.48	232.45
785.80	232.45
786.12	232.42
786.45	232.38
786.77	232.20
787.09	232.18
787.42	232.14
787.74	232.08
788.06	232.19
788.38	232.12
788.71	231.98
789.03	232.09
789.35	232.12
789.67	232.21
789.99	232.14
790.32	232.05
790.64	231.99
790.96	232.10
791.28	232.10
791.61	232.11
791.93	232.16
792.25	232.05
792.57	232.23
792.89	232.11
793.21	232.10
793.54	232.17
793.86	232.00
794.18	231.96
794.50	231.90
794.82	231.75
795.14	231.79
795.47	231.84
795.79	231.80
796.11	231.79
796.43	231.69
796.75	231.70
797.07	231.73
797.39	231.66
797.71	231.57
798.04	231.55
798.36	231.59
798.68	231.60
799.00	231.62
799.32	231.45
799.64	231.56
799.96	231.47
800.28	231.42
800.60	231.50
800.92	231.40
801.24	231.41
801.56	231.41
801.89	231.38
802.21	231.32
802.53	231.36
802.85	231.32
803.17	231.43
803.49	231.28
803.81	231.30
804.13	231.23
804.45	231.12
804.77	231.12
805.09	231.02
805.41	230.90
805.73	230.94
806.05	230.82
806.37	230.74
806.69	230.74
807.01	230.73
807.33	230.73
807.65	230.71
807.97	230.82
808.28	230.76
808.60	230.67
808.92	230.71
809.24	230.70
809.56	230.66
809.88	230.56
810.20	230.69
810.52	230.72
810.84	230.79
811.16	230.71
811.48	230.59
811.80	230.72
812.12	230.74
812.43	230.68
812.75	230.66
813.07	230.64
813.39	230.71
813.71	230.67
814.03	230.71
814.35	230.74
814.67	230.59
814.98	230.64
815.30	230.65
815.62	230.54
815.94	230.39
816.26	230.50
816.58	230.39
816.89	230.20
817.21	230.09
817.53	230.05
817.85	230.16
818.17	230.29
818.48	230.18
818.80	230.25
819.12	230.21
819.44	230.16
819.76	230.10
820.07	230.10
820.39	230.07
820.71	229.92
821.03	229.88
821.34	229.84
821.66	229.79
821.98	229.76
822.30	229.66
822.61	229.77
822.93	229.52
823.25	229.50
823.57	229.59
823.88	229.69
824.20	229.75
824.52	229.74
824.83	229.50
825.15	229.32
825.47	229.23
825.79	229.20
826.10	229.27
826.42	229.28
826.74	229.22
827.05	229.12
827.37	229.18
827.69	229.18
828.00	229.20
828.32	229.25
828.64	229.22
828.95	229.43
829.27	229.41
829.58	229.50
829.90	229.54
830.22	229.55
830.53	229.27
830.85	229.10
831.17	229.02
831.48	229.16
831.80	229.29
832.11	229.26
832.43	229.26
832.75	229.31
833.06	229.42
833.38	229.38
833.69	229.42
834.01	229.40
834.32	229.44
834.64	229.40
834.96	229.33
835.27	229.30
835.59	229.11
835.90	229.08
836.22	229.04
836.53	229.15
836.85	229.17
837.16	229.45
837.48	229.51
837.79	229.62
838.11	229.63
838.42	229.64
838.74	229.67
839.05	229.57
839.37	229.52
839.68	229.40
840.00	229.30
840.31	229.30
840.63	229.34
840.94	229.25
841.26	229.34
841.57	229.40
841.88	229.43
842.20	229.50
842.51	229.50
842.83	229.43
843.14	229.46
843.46	229.44
843.77	229.47
844.08	229.51
844.40	229.38
844.71	229.37
845.03	229.29
845.34	229.31
845.65	229.35
845.97	229.37
846.28	229.36
846.60	229.43
846.91	229.49
847.22	229.38
847.54	229.48
847.85	229.46
848.16	229.37
848.48	229.34
848.79	229.40
849.10	229.45
849.42	229.43
849.73	229.29
850.04	229.32
850.36	229.23
850.67	229.23
850.98	229.24
851.30	229.20
851.61	229.23
851.92	229.24
852.23	229.28
852.55	229.31
852.86	229.38
853.17	229.38
853.49	229.31
853.80	229.32
854.11	229.30
854.42	229.22
854.74	229.12
855.05	229.13
855.36	229.10
855.67	229.02
855.99	229.04
856.30	229.21
856.61	229.05
856.92	228.99
857.23	228.95
857.55	228.94
857.86	228.85
858.17	228.84
858.48	228.82
858.79	228.80
859.11	228.70
859.42	228.56
859.73	228.50
860.04	228.62
860.35	228.63
860.66	228.41
860.98	228.40
861.29	228.45
861.60	228.47
861.91	228.40
862.22	228.38
862.53	228.34
862.84	228.07
863.16	228.15
863.47	228.05
863.78	228.06
864.09	228.08
864.40	228.20
864.71	228.21
865.02	228.18
865.33	228.10
865.64	228.00
865.95	228.13
866.27	228.25
866.58	228.15
866.89	228.11
867.20	228.26
867.51	228.24
867.82	228.30
868.13	228.30
868.44	228.19
868.75	228.26
869.06	228.26
869.37	228.37
869.68	228.40
869.99	228.54
870.30	228.56
870.61	228.53
870.92	228.52
871.23	228.55
871.54	228.62
871.85	228.70
872.16	228.83
872.47	228.84
872.78	228.72
873.09	228.72
873.40	228.77
873.71	228.78
874.02	228.91
874.33	228.86
874.64	228.83
874.95	229.04
875.26	228.93
875.56	229.03
875.87	229.04
876.18	229.02
876.49	229.21
876.80	229.11
877.11	229.23
877.42	229.19
877.73	229.19
878.04	229.20
878.35	229.16
878.66	229.25
878.96	229.23
879.27	229.35
879.58	229.31
879.89	229.21
880.20	229.34
880.51	229.28
880.82	229.33
881.12	229.29
881.43	229.28
881.74	229.26
882.05	229.26
882.36	229.28
882.67	229.32
882.97	229.12
883.28	229.11
883.59	229.10
883.90	229.07
884.21	229.09
884.51	229.02
884.82	229.06
885.13	229.00
885.44	228.92
885.74	228.90
886.05	228.96
886.36	229.01
886.67	228.78
886.98	228.88
887.28	228.92
887.59	228.99
887.90	228.93
888.20	229.00
888.51	229.03
888.82	229.01
889.13	228.95
889.43	229.09
889.74	229.14
890.05	229.16
890.35	229.20
890.66	229.17
890.97	229.20
891.28	229.13
891.58	229.01
891.89	229.01
892.20	228.92
892.50	228.83
892.81	228.85
893.12	228.91
893.42	228.80
893.73	228.65
894.04	228.73
894.34	228.69
894.65	228.65
894.95	228.56
895.26	228.45
895.57	228.68
895.87	228.44
896.18	228.48
896.48	228.39
896.79	228.42
897.10	228.43
897.40	228.33
897.71	228.46
898.01	228.49
898.32	228.43
898.63	228.42
898.93	228.38
899.24	228.36
899.54	228.36
899.85	228.32
900.15	228.39
900.46	228.23
900.76	228.24
901.07	228.20
901.38	228.16
901.68	228.28
901.99	228.02
902.29	228.02
902.60	228.07
902.90	228.03
903.21	227.90
903.51	227.99
903.82	228.06
904.12	227.94
904.43	228.10
904.73	228.10
905.03	228.12
905.34	228.49
905.64	228.50
905.95	228.51
906.25	228.50
906.56	228.52
906.86	228.55
907.17	228.55
907.47	228.68
907.77	228.67
908.08	228.63
908.38	228.68
908.69	228.66
908.99	228.62
909.30	228.63
909.60	228.81
909.90	228.75
910.21	228.66
910.51	228.73
910.81	228.58
911.12	228.65
911.42	228.70
911.73	228.41
912.03	228.56
912.33	228.70
912.64	228.76
912.94	228.78
913.24	228.80
913.55	228.72
913.85	228.67
914.15	228.84
914.46	228.89
914.76	228.83
915.06	228.91
915.37	228.88
915.67	228.93
915.97	228.81
916.27	228.82
916.58	228.97
916.88	228.91
917.18	228.96
917.49	229.19
917.79	229.20
918.09	229.20
918.39	229.13
918.70	229.06
919.00	229.09
919.30	229.17
919.60	229.14
919.91	229.29
920.21	229.24
920.51	229.20
920.81	229.18
921.12	229.24
921.42	229.23
921.72	229.32
922.02	229.36
922.32	229.44
922.63	229.41
922.93	229.43
923.23	229.43
923.53	229.36
923.83	229.10
924.13	229.09
924.44	229.08
924.74	229.15
925.04	229.15
925.34	229.06
925.64	228.97
925.94	228.92
926.24	228.87
926.55	228.94
926.85	228.86
927.15	228.90
927.45	228.86
927.75	228.87
928.05	228.78
928.35	228.65
928.65	228.60
928.95	228.58
929.26	228.50
929.56	228.58
929.86	228.64
930.16	228.71
930.46	228.78
930.76	228.80
931.06	228.55
931.36	228.49
931.66	228.51
931.96	228.45
932.26	228.49
932.56	228.46
932.86	228.39
933.16	228.47
933.46	228.35
933.76	228.31
934.06	228.39
934.36	228.45
934.66	228.33
934.96	228.38
935.26	228.32
935.56	228.30
935.86	228.13
936.16	228.05
936.46	227.93
936.76	227.80
937.06	227.70
937.36	227.81
937.66	227.83
937.96	227.80
938.26	227.81
938.56	227.69
938.86	227.69
939.16	227.79
939.46	227.70
939.76	227.76
940.06	227.70
940.35	227.56
940.65	227.40
940.95	227.51
941.25	227.40
941.55	227.42
941.85	227.43
942.15	227.51
942.45	227.55
942.75	227.60
943.04	227.57
943.34	227.65
943.64	227.65
943.94	227.63
944.24	227.63
944.54	227.65
944.84	227.80
945.13	227.78
945.43	227.64
945.73	227.69
946.03	227.68
946.33	227.73
946.62	227.77
946.92	227.80
947.22	227.86
947.52	227.93
947.82	227.93
948.11	228.00
948.41	227.98
948.71	227.94
949.01	227.93
949.31	227.95
949.60	227.93
949.90	227.95
950.20	227.82
950.50	227.85
950.79	227.91
951.09	228.01
951.39	227.95
951.69	228.06
951.98	228.13
952.28	228.17
952.58	228.18
952.87	228.18
953.17	228.29
953.47	228.32
953.76	228.28
954.06	228.28
954.36	228.28
954.66	228.30
954.95	228.29
955.25	228.32
955.55	228.40
955.84	228.43
956.14	228.45
956.44	228.64
956.73	228.71
957.03	228.70
957.32	228.62
957.62	228.65
957.92	228.64
958.21	228.62
958.51	228.81
958.81	228.85
959.10	228.85
959.40	228.82
959.69	228.82
959.99	228.90
960.29	228.91
960.58	228.78
960.88	228.82
961.17	228.76
961.47	228.91
961.76	228.85
962.06	228.93
962.36	229.01
962.65	228.90
962.95	228.79
963.24	228.73
963.54	228.73
963.83	228.82
964.13	228.91
964.42	228.80
964.72	228.61
965.01	228.57
965.31	228.65
965.60	228.60
965.90	228.71
966.19	228.65
966.49	228.65
966.78	228.70
967.08	228.68
967.37	228.79
967.67	228.60
967.96	228.72
968.26	228.62
968.55	228.52
968.85	228.55
969.14	228.50
969.43	228.46
969.73	228.40
970.02	228.24
970.32	228.06
970.61	228.04
970.91	227.97
971.20	227.90
971.49	227.76
971.79	227.78
972.08	227.53
972.38	227.52
972.67	227.55
972.96	227.50
973.26	227.46
973.55	227.47
973.85	227.50
974.14	227.29
974.43	227.37
974.73	227.31
975.02	227.31
975.31	227.41
975.61	227.34
975.90	227.31
976.19	227.29
976.49	227.33
976.78	227.36
977.07	227.40
977.37	227.40
977.66	227.47
977.95	227.36
978.24	227.32
978.54	227.33
978.83	227.31
979.12	227.38
979.42	227.41
979.71	227.34
980.00	227.24
980.29	227.50
980.59	227.39
980.88	227.43
981.17	227.39
981.46	227.35
981.76	227.42
982.05	227.48
982.34	227.61
982.63	227.61
982.93	227.65
983.22	227.60
983.51	227.70
983.80	227.73
984.09	227.84
984.39	227.95
984.68	227.94
984.97	227.85
985.26	227.76
985.55	227.76
985.85	227.87
986.14	227.99
986.43	227.91
986.72	227.97
987.01	228.05
987.30	228.07
987.59	228.18
987.89	228.32
988.18	228.35
988.47	228.30
988.76	228.31
989.05	228.22
989.34	228.30
989.63	228.40
989.92	228.45
990.22	228.48
990.51	228.45
990.80	228.60
991.09	228.77
991.38	228.82
991.67	228.78
991.96	228.79
992.25	228.80
992.54	228.72
992.83	228.74
993.12	228.65
993.41	228.68
993.70	228.82
993.99	228.73
994.28	228.82
994.58	228.96
994.87	228.98
995.16	229.02
995.45	229.03
995.74	228.88
996.03	228.84
996.32	228.88
996.61	228.92
996.90	228.82
997.19	228.79
997.48	228.90
997.77	228.95
998.06	228.85
998.34	228.79
998.63	228.85
998.92	228.80
999.21	228.91
999.50	228.89
999.79	228.70
1000.08	228.76
1000.37	228.69
1000.66	228.56
1000.95	228.57
1001.24	228.64
1001.53	228.59
1001.82	228.62
1002.11	228.51
1002.40	228.47
1002.68	228.48
1002.97	228.60
1003.26	228.53
1003.55	228.50
1003.84	228.44
1004.13	228.45
1004.42	228.38
1004.71	228.29
1004.99	228.24
1005.28	228.20
1005.57	228.15
1005.86	228.08
1006.15	227.87
1006.44	227.73
1006.72	227.75
1007.01	227.72
1007.30	227.64
1007.59	227.62
1007.88	227.60
1008.17	227.61
1008.45	227.55
1008.74	227.38
1009.03	227.29
1009.32	227.21
1009.60	227.16
1009.89	227.15
1010.18	227.17
1010.47	227.21
1010.76	227.34
1011.04	227.38
1011.33	227.32
1011.62	227.42
1011.91	227.37
1012.19	227.46
1012.48	227.52
1012.77	227.51
1013.05	227.53
1013.34	227.49
1013.63	227.53
1013.92	227.57
1014.20	227.54
1014.49	227.59
1014.78	227.78
1015.06	227.74
1015.35	227.71
1015.64	227.75
1015.92	227.83
1016.21	227.78
1016.50	227.82
1016.78	227.78
1017.07	227.73
1017.36	227.74
1017.64	227.68
1017.93	227.80
1018.22	227.88
1018.50	227.85
1018.79	227.86
1019.08	227.90
1019.36	227.99
1019.65	227.93
1019.93	227.94
1020.22	228.16
1020.51	228.29
1020.79	228.29
1021.08	229.00
1021.36	226.70
1021.65	228.20
1021.94	229.10
1022.22	228.50
1022.51	227.40
1022.79	228.30
1023.08	231.10
1023.36	231.00
1023.65	228.70
>>>>>End Processed Spectral Data<<<<<
