SpectraSuite Data File
++++++++++++++++++++++++++++++++++++
Date: Fri Feb 01 14:41:56 EST 2013
User: group
Dark Spectrum Present: No
Reference Spectrum Present: No
Number of Sampled Component Spectra: 1
Spectrometers: USB2E7196
Integration Time (usec): 70000 (USB2E7196)
Spectra Averaged: 10 (USB2E7196)
Boxcar Smoothing: 10 (USB2E7196)
Correct for Electrical Dark: No (USB2E7196)
Strobe/Lamp Enabled: No (USB2E7196)
Correct for Detector Non-linearity: No (USB2E7196)
Correct for Stray Light: No (USB2E7196)
Number of Pixels in Processed Spectrum: 2048
>>>>>Begin Processed Spectral Data<<<<<
339.09	0.00
339.48	215.40
339.86	218.00
340.24	218.20
340.63	220.70
341.01	224.80
341.39	223.00
341.78	225.40
342.16	226.00
342.54	226.20
342.93	214.86
343.31	225.70
343.69	226.29
344.07	226.82
344.46	227.38
344.84	227.84
345.22	227.99
345.60	228.40
345.99	228.57
346.37	228.67
346.75	228.81
347.13	228.80
347.52	228.76
347.90	228.99
348.28	228.97
348.66	229.03
349.05	229.07
349.43	229.16
349.81	229.18
350.19	229.17
350.57	229.25
350.96	229.40
351.34	229.51
351.72	229.52
352.10	229.60
352.48	229.69
352.87	229.69
353.25	229.78
353.63	229.71
354.01	229.76
354.39	229.84
354.77	229.88
355.15	230.13
355.54	230.24
355.92	230.15
356.30	230.34
356.68	230.59
357.06	230.65
357.44	230.52
357.82	230.63
358.20	230.72
358.58	230.82
358.97	230.80
359.35	230.86
359.73	231.04
360.11	231.01
360.49	231.03
360.87	231.14
361.25	231.27
361.63	231.42
362.01	231.50
362.39	231.62
362.77	231.65
363.15	231.55
363.53	231.60
363.91	231.76
364.29	231.70
364.67	231.53
365.05	231.55
365.43	231.69
365.81	231.78
366.19	231.93
366.57	231.97
366.95	232.03
367.33	231.89
367.71	231.90
368.09	231.91
368.47	231.85
368.85	231.67
369.23	231.56
369.61	231.47
369.99	231.49
370.37	231.41
370.75	231.56
371.13	231.46
371.51	231.39
371.89	231.31
372.27	231.26
372.65	231.13
373.03	231.11
373.41	231.05
373.78	230.90
374.16	230.73
374.54	230.68
374.92	230.56
375.30	230.55
375.68	230.38
376.06	230.44
376.44	230.41
376.82	230.39
377.19	230.40
377.57	230.20
377.95	230.10
378.33	230.03
378.71	229.83
379.09	229.89
379.47	229.85
379.84	229.67
380.22	229.54
380.60	229.48
380.98	229.37
381.36	229.30
381.73	229.25
382.11	229.13
382.49	229.04
382.87	229.00
383.25	228.95
383.62	229.11
384.00	228.90
384.38	228.88
384.76	228.94
385.13	228.91
385.51	228.93
385.89	228.72
386.27	228.69
386.64	228.65
387.02	228.66
387.40	228.60
387.78	228.63
388.15	228.68
388.53	228.69
388.91	228.69
389.29	228.59
389.66	228.52
390.04	228.47
390.42	228.49
390.79	228.41
391.17	228.41
391.55	228.16
391.92	228.22
392.30	228.12
392.68	228.04
393.05	227.94
393.43	227.99
393.81	228.05
394.18	228.10
394.56	228.09
394.94	228.10
395.31	227.97
395.69	228.00
396.06	228.06
396.44	228.07
396.82	228.03
397.19	228.18
397.57	228.29
397.95	228.32
398.32	228.32
398.70	228.37
399.07	228.57
399.45	228.70
399.82	228.74
400.20	228.91
400.58	229.08
400.95	229.12
401.33	229.29
401.70	229.69
402.08	229.71
402.45	229.92
402.83	230.05
403.20	230.33
403.58	230.50
403.95	230.68
404.33	230.94
404.71	231.14
405.08	231.48
405.46	231.61
405.83	231.95
406.21	232.15
406.58	232.42
406.96	232.57
407.33	232.90
407.70	233.20
408.08	233.60
408.45	233.83
408.83	234.20
409.20	234.37
409.58	234.62
409.95	235.12
410.33	235.50
410.70	235.84
411.08	236.36
411.45	236.78
411.82	237.20
412.20	237.67
412.57	238.29
412.95	238.70
413.32	239.30
413.69	239.85
414.07	240.53
414.44	241.22
414.82	242.01
415.19	242.74
415.56	243.61
415.94	244.34
416.31	245.31
416.68	246.23
417.06	247.40
417.43	248.36
417.81	249.48
418.18	250.62
418.55	251.86
418.93	253.07
419.30	254.49
419.67	255.89
420.04	257.25
420.42	258.83
420.79	260.59
421.16	262.28
421.54	264.11
421.91	265.86
422.28	267.72
422.66	269.73
423.03	271.80
423.40	273.72
423.77	275.90
424.15	278.07
424.52	280.36
424.89	282.79
425.26	285.10
425.64	287.29
426.01	289.52
426.38	292.00
426.75	294.50
427.13	297.00
427.50	299.70
427.87	302.52
428.24	305.15
428.61	307.67
428.99	310.49
429.36	313.59
429.73	316.80
430.10	319.87
430.47	322.85
430.85	325.93
431.22	329.20
431.59	332.63
431.96	336.01
432.33	339.73
432.70	343.20
433.08	347.31
433.45	351.13
433.82	354.87
434.19	359.22
434.56	363.37
434.93	367.36
435.30	371.24
435.68	375.54
436.05	379.77
436.42	384.00
436.79	387.85
437.16	391.77
437.53	395.85
437.90	399.97
438.27	404.04
438.64	408.07
439.01	411.95
439.38	415.14
439.75	418.14
440.13	421.72
440.50	425.18
440.87	427.91
441.24	430.67
441.61	434.00
441.98	436.04
442.35	438.52
442.72	441.06
443.09	443.46
443.46	444.72
443.83	445.47
444.20	446.09
444.57	447.15
444.94	447.44
445.31	447.76
445.68	448.31
446.05	448.20
446.42	447.57
446.79	446.75
447.16	446.15
447.53	445.85
447.90	443.85
448.27	442.01
448.64	439.62
449.01	437.87
449.37	434.85
449.74	432.01
450.11	428.72
450.48	425.10
450.85	421.50
451.22	418.36
451.59	415.38
451.96	412.49
452.33	408.65
452.70	405.19
453.07	401.06
453.43	396.64
453.80	392.65
454.17	388.76
454.54	385.04
454.91	380.95
455.28	376.85
455.65	373.40
456.02	369.77
456.38	366.49
456.75	362.66
457.12	359.47
457.49	356.11
457.86	352.90
458.23	350.08
458.59	346.99
458.96	343.95
459.33	341.28
459.70	338.54
460.07	336.32
460.43	333.79
460.80	331.36
461.17	329.20
461.54	326.94
461.91	324.88
462.27	322.76
462.64	320.88
463.01	318.86
463.38	316.97
463.74	314.90
464.11	313.19
464.48	311.53
464.85	309.94
465.21	308.72
465.58	307.34
465.95	305.78
466.32	304.51
466.68	303.04
467.05	301.69
467.42	300.31
467.78	298.90
468.15	297.64
468.52	296.77
468.88	295.49
469.25	294.38
469.62	293.31
469.98	292.43
470.35	291.49
470.72	290.58
471.08	289.48
471.45	288.70
471.82	287.91
472.18	287.06
472.55	286.27
472.92	285.44
473.28	284.72
473.65	284.03
474.02	283.28
474.38	282.76
474.75	282.26
475.11	281.67
475.48	281.27
475.85	280.83
476.21	280.25
476.58	279.84
476.94	279.58
477.31	279.38
477.67	278.87
478.04	278.60
478.41	278.33
478.77	278.41
479.14	278.19
479.50	278.06
479.87	278.12
480.23	278.10
480.60	278.11
480.96	278.04
481.33	278.15
481.69	278.25
482.06	278.44
482.42	278.51
482.79	278.71
483.15	278.92
483.52	279.19
483.88	279.47
484.25	279.81
484.61	280.10
484.98	280.50
485.34	281.01
485.71	281.62
486.07	282.26
486.44	282.76
486.80	283.49
487.17	284.35
487.53	285.16
487.90	286.01
488.26	287.06
488.62	288.23
488.99	289.34
489.35	290.53
489.72	291.70
490.08	293.10
490.44	294.57
490.81	296.12
491.17	297.79
491.54	299.64
491.90	301.65
492.26	303.74
492.63	305.77
492.99	308.08
493.36	310.40
493.72	312.88
494.08	315.31
494.45	318.14
494.81	321.06
495.17	324.24
495.54	327.58
495.90	330.88
496.26	334.43
496.63	338.22
496.99	342.19
497.35	346.46
497.72	350.87
498.08	355.32
498.44	360.10
498.80	365.12
499.17	370.32
499.53	375.48
499.89	381.11
500.26	386.97
500.62	392.96
500.98	399.43
501.34	406.07
501.71	413.30
502.07	420.36
502.43	427.58
502.79	435.13
503.16	443.10
503.52	451.37
503.88	459.93
504.24	468.64
504.60	477.72
504.97	487.02
505.33	496.86
505.69	507.44
506.05	517.96
506.41	528.65
506.78	539.60
507.14	551.22
507.50	562.91
507.86	575.29
508.22	587.72
508.59	600.17
508.95	613.36
509.31	626.81
509.67	640.83
510.03	654.98
510.39	669.32
510.75	684.30
511.12	699.60
511.48	715.25
511.84	731.07
512.20	747.55
512.56	764.40
512.92	781.18
513.28	797.89
513.64	815.57
514.00	833.55
514.37	851.67
514.73	869.87
515.09	888.56
515.45	907.39
515.81	926.37
516.17	946.05
516.53	965.90
516.89	985.52
517.25	1005.57
517.61	1026.24
517.97	1046.97
518.33	1067.12
518.69	1088.31
519.05	1109.55
519.41	1131.25
519.77	1153.16
520.13	1175.21
520.49	1197.23
520.85	1219.78
521.21	1241.94
521.57	1265.12
521.93	1287.60
522.29	1311.29
522.65	1333.97
523.01	1356.57
523.37	1379.70
523.73	1403.00
524.09	1426.15
524.45	1449.97
524.81	1473.76
525.17	1497.79
525.53	1521.89
525.89	1546.80
526.25	1570.83
526.61	1594.31
526.97	1618.93
527.33	1643.23
527.68	1667.49
528.04	1691.70
528.40	1716.04
528.76	1740.86
529.12	1764.77
529.48	1789.92
529.84	1813.22
530.20	1838.02
530.56	1863.64
530.91	1889.06
531.27	1914.10
531.63	1938.34
531.99	1962.88
532.35	1987.00
532.71	2010.19
533.07	2033.89
533.42	2057.01
533.78	2080.62
534.14	2104.51
534.50	2126.32
534.86	2149.04
535.21	2171.09
535.57	2194.65
535.93	2217.26
536.29	2239.27
536.65	2261.43
537.00	2282.69
537.36	2305.17
537.72	2326.64
538.08	2347.17
538.44	2367.64
538.79	2388.27
539.15	2408.62
539.51	2428.92
539.87	2449.87
540.22	2470.24
540.58	2490.84
540.94	2510.68
541.29	2529.88
541.65	2549.16
542.01	2569.60
542.37	2588.82
542.72	2608.06
543.08	2625.85
543.44	2644.06
543.79	2661.22
544.15	2678.34
544.51	2696.65
544.87	2713.89
545.22	2730.60
545.58	2746.76
545.94	2761.97
546.29	2777.32
546.65	2792.75
547.01	2807.37
547.36	2821.12
547.72	2834.88
548.07	2848.76
548.43	2862.05
548.79	2874.96
549.14	2887.78
549.50	2899.81
549.86	2911.07
550.21	2922.21
550.57	2934.11
550.92	2944.98
551.28	2956.00
551.64	2966.70
551.99	2976.79
552.35	2986.56
552.70	2996.63
553.06	3006.88
553.41	3017.25
553.77	3026.68
554.13	3036.52
554.48	3046.16
554.84	3055.26
555.19	3064.72
555.55	3072.62
555.90	3080.40
556.26	3088.59
556.61	3096.39
556.97	3103.43
557.32	3111.24
557.68	3118.77
558.03	3125.97
558.39	3132.72
558.74	3140.21
559.10	3147.00
559.45	3153.48
559.81	3160.84
560.16	3166.79
560.52	3172.53
560.87	3179.25
561.23	3183.90
561.58	3189.06
561.94	3193.11
562.29	3197.37
562.64	3201.14
563.00	3204.99
563.35	3210.42
563.71	3215.97
564.06	3220.66
564.42	3224.94
564.77	3228.74
565.12	3232.96
565.48	3236.13
565.83	3239.09
566.19	3242.10
566.54	3244.45
566.89	3245.99
567.25	3247.45
567.60	3249.78
567.96	3251.44
568.31	3251.89
568.66	3253.61
569.02	3254.82
569.37	3255.56
569.72	3255.90
570.08	3255.93
570.43	3256.10
570.78	3255.09
571.14	3252.77
571.49	3251.25
571.84	3251.66
572.20	3249.68
572.55	3247.48
572.90	3244.23
573.26	3242.76
573.61	3239.92
573.96	3237.52
574.31	3233.83
574.67	3229.32
575.02	3224.67
575.37	3220.03
575.72	3214.85
576.08	3210.44
576.43	3205.15
576.78	3200.60
577.13	3196.48
577.49	3192.16
577.84	3186.80
578.19	3181.63
578.54	3176.04
578.90	3169.68
579.25	3161.15
579.60	3154.56
579.95	3147.45
580.30	3140.74
580.66	3133.14
581.01	3125.39
581.36	3118.15
581.71	3112.23
582.06	3105.16
582.42	3097.89
582.77	3090.73
583.12	3083.44
583.47	3075.81
583.82	3068.86
584.17	3060.89
584.53	3052.80
584.88	3045.04
585.23	3037.35
585.58	3029.57
585.93	3022.18
586.28	3014.87
586.63	3008.14
586.98	3001.14
587.34	2994.07
587.69	2986.44
588.04	2979.11
588.39	2971.70
588.74	2961.73
589.09	2952.06
589.44	2942.92
589.79	2934.29
590.14	2926.53
590.49	2917.96
590.84	2909.00
591.19	2899.65
591.54	2889.68
591.89	2878.44
592.25	2868.64
592.60	2857.88
592.95	2847.03
593.30	2836.30
593.65	2825.53
594.00	2814.58
594.35	2804.19
594.70	2792.67
595.05	2782.97
595.40	2771.67
595.75	2760.61
596.10	2751.83
596.45	2742.75
596.80	2733.89
597.15	2724.44
597.50	2713.82
597.85	2704.06
598.19	2695.15
598.54	2685.66
598.89	2676.92
599.24	2669.06
599.59	2659.63
599.94	2651.52
600.29	2642.13
600.64	2632.40
600.99	2622.08
601.34	2612.97
601.69	2602.70
602.04	2593.17
602.39	2582.90
602.74	2573.87
603.08	2565.00
603.43	2555.67
603.78	2545.64
604.13	2535.25
604.48	2524.66
604.83	2514.55
605.18	2504.84
605.53	2492.71
605.87	2480.75
606.22	2470.20
606.57	2459.04
606.92	2448.06
607.27	2437.10
607.62	2427.41
607.96	2417.60
608.31	2408.30
608.66	2396.75
609.01	2385.60
609.36	2373.78
609.70	2361.27
610.05	2348.86
610.40	2336.95
610.75	2325.11
611.10	2313.03
611.44	2300.10
611.79	2288.83
612.14	2276.74
612.49	2263.84
612.83	2252.30
613.18	2240.93
613.53	2229.20
613.88	2216.86
614.22	2204.86
614.57	2192.30
614.92	2179.88
615.27	2168.12
615.61	2156.01
615.96	2144.35
616.31	2133.04
616.65	2123.31
617.00	2113.18
617.35	2102.33
617.70	2090.63
618.04	2078.41
618.39	2067.15
618.74	2056.93
619.08	2045.03
619.43	2034.07
619.78	2023.52
620.12	2012.76
620.47	2001.98
620.82	1990.43
621.16	1979.84
621.51	1969.16
621.85	1958.48
622.20	1946.54
622.55	1935.33
622.89	1924.35
623.24	1913.86
623.59	1903.50
623.93	1892.20
624.28	1881.33
624.62	1870.52
624.97	1860.33
625.32	1850.45
625.66	1840.36
626.01	1829.78
626.35	1819.54
626.70	1808.63
627.04	1798.13
627.39	1787.32
627.73	1776.49
628.08	1766.20
628.43	1755.52
628.77	1744.55
629.12	1733.89
629.46	1723.49
629.81	1711.98
630.15	1700.66
630.50	1689.65
630.84	1678.36
631.19	1667.15
631.53	1656.22
631.88	1645.20
632.22	1633.70
632.57	1622.76
632.91	1611.50
633.26	1600.35
633.60	1589.02
633.95	1578.22
634.29	1567.63
634.64	1557.41
634.98	1546.97
635.32	1536.86
635.67	1527.43
636.01	1518.05
636.36	1508.06
636.70	1498.85
637.05	1489.67
637.39	1480.87
637.73	1471.74
638.08	1462.81
638.42	1453.91
638.77	1444.81
639.11	1435.37
639.45	1426.38
639.80	1416.66
640.14	1407.68
640.49	1398.80
640.83	1389.70
641.17	1380.76
641.52	1371.89
641.86	1362.45
642.20	1353.17
642.55	1343.86
642.89	1334.38
643.23	1324.73
643.58	1316.05
643.92	1306.67
644.26	1297.17
644.61	1287.95
644.95	1278.72
645.29	1268.84
645.64	1258.95
645.98	1249.58
646.32	1240.93
646.66	1231.82
647.01	1222.96
647.35	1214.26
647.69	1205.27
648.04	1197.17
648.38	1188.19
648.72	1178.55
649.06	1169.64
649.41	1161.32
649.75	1152.06
650.09	1143.05
650.43	1134.10
650.78	1124.55
651.12	1115.65
651.46	1107.25
651.80	1098.57
652.14	1090.10
652.49	1081.80
652.83	1073.97
653.17	1065.43
653.51	1056.73
653.85	1048.40
654.20	1039.83
654.54	1030.84
654.88	1022.40
655.22	1013.41
655.56	1005.10
655.90	996.98
656.25	989.02
656.59	980.85
656.93	973.30
657.27	965.28
657.61	957.11
657.95	950.13
658.29	942.72
658.64	935.09
658.98	927.42
659.32	919.39
659.66	911.81
660.00	904.32
660.34	896.93
660.68	889.63
661.02	882.10
661.36	875.35
661.70	868.71
662.05	862.13
662.39	855.73
662.73	849.30
663.07	843.15
663.41	836.75
663.75	830.11
664.09	823.43
664.43	817.40
664.77	811.73
665.11	805.31
665.45	799.13
665.79	792.88
666.13	786.61
666.47	780.80
666.81	774.61
667.15	768.32
667.49	762.47
667.83	756.74
668.17	751.14
668.51	745.19
668.85	739.31
669.19	733.73
669.53	728.21
669.87	722.29
670.21	716.75
670.55	711.51
670.89	706.58
671.23	701.49
671.57	696.10
671.91	690.92
672.25	685.63
672.58	680.50
672.92	675.75
673.26	671.07
673.60	666.31
673.94	661.85
674.28	657.51
674.62	653.40
674.96	648.88
675.30	644.52
675.64	640.48
675.97	636.06
676.31	631.50
676.65	627.08
676.99	623.26
677.33	618.80
677.67	614.51
678.01	610.15
678.34	606.10
678.68	602.01
679.02	597.70
679.36	593.60
679.70	589.76
680.04	585.70
680.37	581.46
680.71	577.60
681.05	573.94
681.39	570.16
681.73	565.98
682.06	562.45
682.40	559.02
682.74	555.12
683.08	551.56
683.42	548.12
683.75	544.42
684.09	540.56
684.43	537.05
684.77	533.64
685.10	530.19
685.44	526.61
685.78	523.41
686.12	520.16
686.45	516.94
686.79	513.40
687.13	510.07
687.46	506.82
687.80	503.63
688.14	500.22
688.48	497.04
688.81	493.90
689.15	490.69
689.49	487.46
689.82	484.50
690.16	481.48
690.50	478.33
690.83	475.47
691.17	472.68
691.51	469.92
691.84	467.11
692.18	464.21
692.52	461.40
692.85	458.63
693.19	456.02
693.52	453.40
693.86	450.92
694.20	448.21
694.53	445.73
694.87	442.86
695.21	440.13
695.54	437.46
695.88	434.88
696.21	432.24
696.55	429.66
696.88	427.28
697.22	424.74
697.56	422.56
697.89	420.11
698.23	417.78
698.56	415.52
698.90	413.10
699.23	410.72
699.57	408.54
699.90	406.01
700.24	403.65
700.58	401.29
700.91	398.85
701.25	396.80
701.58	394.69
701.92	392.78
702.25	390.93
702.59	388.85
702.92	386.84
703.26	384.89
703.59	382.96
703.93	381.06
704.26	379.14
704.60	377.09
704.93	375.31
705.26	373.50
705.60	371.59
705.93	369.92
706.27	368.34
706.60	366.53
706.94	364.99
707.27	363.25
707.61	361.56
707.94	360.16
708.27	358.57
708.61	356.69
708.94	355.04
709.28	353.42
709.61	351.96
709.94	350.67
710.28	349.27
710.61	347.84
710.95	346.21
711.28	344.87
711.61	343.51
711.95	342.07
712.28	340.50
712.61	339.02
712.95	337.50
713.28	336.11
713.61	334.83
713.95	333.56
714.28	332.35
714.61	331.12
714.95	329.82
715.28	328.60
715.61	327.55
715.95	326.45
716.28	325.23
716.61	324.05
716.95	322.70
717.28	321.50
717.61	320.29
717.94	319.20
718.28	317.90
718.61	316.79
718.94	315.70
719.27	314.70
719.61	313.81
719.94	312.98
720.27	311.87
720.60	310.90
720.94	309.87
721.27	308.89
721.60	307.99
721.93	307.00
722.27	306.14
722.60	305.26
722.93	304.36
723.26	303.61
723.59	302.77
723.93	301.99
724.26	301.11
724.59	300.28
724.92	299.52
725.25	298.90
725.59	298.14
725.92	297.45
726.25	296.72
726.58	295.91
726.91	295.00
727.24	294.24
727.57	293.47
727.91	292.71
728.24	291.94
728.57	291.11
728.90	290.52
729.23	289.66
729.56	288.94
729.89	288.18
730.22	287.36
730.55	286.60
730.89	285.86
731.22	285.28
731.55	284.71
731.88	284.10
732.21	283.40
732.54	282.71
732.87	282.11
733.20	281.60
733.53	281.03
733.86	280.50
734.19	279.90
734.52	279.26
734.85	278.80
735.18	278.25
735.51	277.77
735.84	277.18
736.17	276.78
736.50	276.22
736.83	275.92
737.16	275.34
737.49	274.91
737.82	274.52
738.15	274.00
738.48	273.54
738.81	272.95
739.14	272.46
739.47	271.94
739.80	271.38
740.13	270.91
740.46	270.52
740.79	270.10
741.12	269.71
741.45	269.27
741.78	268.84
742.11	268.50
742.44	267.98
742.77	267.67
743.10	267.10
743.43	266.69
743.75	266.11
744.08	266.01
744.41	265.62
744.74	265.08
745.07	264.55
745.40	264.19
745.73	263.91
746.06	263.59
746.39	263.19
746.71	262.80
747.04	262.28
747.37	261.80
747.70	261.47
748.03	261.16
748.36	260.90
748.68	260.51
749.01	260.07
749.34	259.80
749.67	259.33
750.00	259.00
750.33	258.77
750.65	258.38
750.98	257.76
751.31	257.30
751.64	257.08
751.97	256.90
752.29	256.45
752.62	256.02
752.95	255.51
753.28	255.26
753.60	254.87
753.93	254.61
754.26	254.28
754.59	253.84
754.91	253.44
755.24	253.13
755.57	252.76
755.90	252.46
756.22	252.15
756.55	251.77
756.88	251.39
757.20	250.98
757.53	250.71
757.86	250.60
758.19	250.37
758.51	250.05
758.84	249.73
759.17	249.43
759.49	249.14
759.82	249.10
760.15	248.79
760.47	248.54
760.80	248.17
761.13	247.91
761.45	247.75
761.78	247.45
762.11	247.05
762.43	246.77
762.76	246.59
763.08	246.28
763.41	246.08
763.74	245.91
764.06	245.73
764.39	245.41
764.71	245.17
765.04	245.04
765.37	244.78
765.69	244.50
766.02	244.34
766.34	244.11
766.67	243.83
767.00	243.72
767.32	243.70
767.65	243.61
767.97	243.40
768.30	243.12
768.62	243.02
768.95	242.97
769.27	242.74
769.60	242.52
769.92	242.36
770.25	242.28
770.57	242.13
770.90	241.93
771.22	241.81
771.55	241.60
771.87	241.47
772.20	241.40
772.52	241.44
772.85	241.45
773.17	241.38
773.50	241.22
773.82	241.01
774.15	240.80
774.47	240.62
774.80	240.52
775.12	240.48
775.45	240.32
775.77	240.12
776.09	240.03
776.42	239.93
776.74	239.93
777.07	239.80
777.39	239.70
777.72	239.59
778.04	239.51
778.36	239.31
778.69	239.09
779.01	238.90
779.33	238.66
779.66	238.40
779.98	238.24
780.31	238.10
780.63	238.09
780.95	238.01
781.28	237.83
781.60	237.80
781.92	237.66
782.25	237.58
782.57	237.57
782.89	237.55
783.22	237.52
783.54	237.41
783.86	237.18
784.19	237.12
784.51	237.04
784.83	236.98
785.16	236.89
785.48	236.84
785.80	236.88
786.12	236.80
786.45	236.71
786.77	236.70
787.09	236.75
787.42	236.64
787.74	236.63
788.06	236.65
788.38	236.56
788.71	236.44
789.03	236.46
789.35	236.46
789.67	236.38
789.99	236.28
790.32	236.12
790.64	236.21
790.96	236.29
791.28	236.09
791.61	236.05
791.93	236.11
792.25	236.07
792.57	236.07
792.89	236.01
793.21	236.05
793.54	235.93
793.86	235.81
794.18	235.70
794.50	235.61
794.82	235.51
795.14	235.44
795.47	235.42
795.79	235.39
796.11	235.19
796.43	235.06
796.75	234.97
797.07	234.94
797.39	234.88
797.71	234.59
798.04	234.59
798.36	234.44
798.68	234.31
799.00	234.23
799.32	234.17
799.64	234.05
799.96	233.95
800.28	233.90
800.60	233.72
800.92	233.72
801.24	233.56
801.56	233.58
801.89	233.41
802.21	233.41
802.53	233.26
802.85	233.22
803.17	233.36
803.49	233.30
803.81	233.27
804.13	233.16
804.45	233.20
804.77	233.37
805.09	233.38
805.41	233.37
805.73	233.30
806.05	233.04
806.37	232.99
806.69	232.85
807.01	232.85
807.33	232.88
807.65	232.79
807.97	232.83
808.28	232.67
808.60	232.68
808.92	232.50
809.24	232.63
809.56	232.65
809.88	232.50
810.20	232.41
810.52	232.33
810.84	232.35
811.16	232.20
811.48	231.99
811.80	231.99
812.12	231.88
812.43	231.94
812.75	231.93
813.07	231.92
813.39	231.97
813.71	231.97
814.03	231.94
814.35	231.82
814.67	231.74
814.98	231.82
815.30	231.80
815.62	231.84
815.94	231.57
816.26	231.59
816.58	231.37
816.89	231.46
817.21	231.36
817.53	231.22
817.85	231.12
818.17	231.07
818.48	230.93
818.80	231.04
819.12	230.88
819.44	230.82
819.76	230.87
820.07	230.87
820.39	230.75
820.71	230.70
821.03	230.63
821.34	230.53
821.66	230.47
821.98	230.50
822.30	230.43
822.61	230.58
822.93	230.34
823.25	230.48
823.57	230.33
823.88	230.37
824.20	230.40
824.52	230.57
824.83	230.60
825.15	230.62
825.47	230.57
825.79	230.56
826.10	230.65
826.42	230.56
826.74	230.50
827.05	230.49
827.37	230.52
827.69	230.64
828.00	230.72
828.32	230.73
828.64	230.58
828.95	230.62
829.27	230.58
829.58	230.69
829.90	230.75
830.22	230.78
830.53	230.71
830.85	230.69
831.17	230.65
831.48	230.57
831.80	230.52
832.11	230.49
832.43	230.60
832.75	230.51
833.06	230.63
833.38	230.63
833.69	230.65
834.01	230.57
834.32	230.51
834.64	230.48
834.96	230.46
835.27	230.57
835.59	230.68
835.90	230.62
836.22	230.70
836.53	230.68
836.85	230.74
837.16	231.08
837.48	231.03
837.79	231.05
838.11	231.16
838.42	231.16
838.74	231.16
839.05	231.03
839.37	231.07
839.68	230.85
840.00	230.84
840.31	230.83
840.63	230.80
840.94	230.83
841.26	230.75
841.57	230.69
841.88	230.65
842.20	230.45
842.51	230.39
842.83	230.37
843.14	230.55
843.46	230.42
843.77	230.16
844.08	230.18
844.40	230.03
844.71	229.95
845.03	229.93
845.34	229.90
845.65	229.87
845.97	229.79
846.28	229.82
846.60	229.78
846.91	229.78
847.22	229.77
847.54	229.81
847.85	229.90
848.16	229.97
848.48	229.92
848.79	230.06
849.10	230.08
849.42	230.10
849.73	229.82
850.04	229.79
850.36	229.77
850.67	229.79
850.98	229.85
851.30	229.87
851.61	229.83
851.92	229.80
852.23	229.86
852.55	229.85
852.86	229.87
853.17	229.85
853.49	229.83
853.80	229.94
854.11	229.91
854.42	229.83
854.74	229.73
855.05	229.64
855.36	229.45
855.67	229.29
855.99	229.14
856.30	229.36
856.61	229.40
856.92	229.40
857.23	229.30
857.55	229.12
857.86	228.96
858.17	228.97
858.48	228.90
858.79	228.85
859.11	228.87
859.42	228.91
859.73	228.71
860.04	228.71
860.35	228.45
860.66	228.36
860.98	228.27
861.29	228.30
861.60	228.29
861.91	228.44
862.22	228.46
862.53	228.43
862.84	228.22
863.16	228.14
863.47	228.07
863.78	228.14
864.09	228.15
864.40	228.22
864.71	228.23
865.02	228.21
865.33	228.14
865.64	228.06
865.95	227.96
866.27	228.26
866.58	228.21
866.89	228.36
867.20	228.29
867.51	228.32
867.82	228.29
868.13	228.42
868.44	228.30
868.75	228.39
869.06	228.41
869.37	228.42
869.68	228.39
869.99	228.46
870.30	228.43
870.61	228.58
870.92	228.62
871.23	228.61
871.54	228.67
871.85	228.84
872.16	228.91
872.47	228.97
872.78	228.82
873.09	228.94
873.40	228.93
873.71	228.97
874.02	229.05
874.33	229.16
874.64	229.16
874.95	229.21
875.26	229.24
875.56	229.30
875.87	229.27
876.18	229.39
876.49	229.50
876.80	229.55
877.11	229.51
877.42	229.47
877.73	229.51
878.04	229.60
878.35	229.42
878.66	229.40
878.96	229.52
879.27	229.62
879.58	229.60
879.89	229.70
880.20	229.86
880.51	229.89
880.82	229.89
881.12	229.80
881.43	229.79
881.74	229.75
882.05	229.76
882.36	229.81
882.67	229.84
882.97	229.71
883.28	229.69
883.59	229.59
883.90	229.70
884.21	229.74
884.51	229.66
884.82	229.75
885.13	229.78
885.44	229.70
885.74	229.60
886.05	229.52
886.36	229.48
886.67	229.30
886.98	229.37
887.28	229.36
887.59	229.41
887.90	229.35
888.20	229.31
888.51	229.30
888.82	229.34
889.13	229.31
889.43	229.41
889.74	229.36
890.05	229.40
890.35	229.27
890.66	229.17
890.97	229.22
891.28	229.17
891.58	229.10
891.89	228.91
892.20	228.79
892.50	228.84
892.81	228.70
893.12	228.77
893.42	228.58
893.73	228.51
894.04	228.50
894.34	228.60
894.65	228.51
894.95	228.37
895.26	228.27
895.57	228.15
895.87	227.93
896.18	227.96
896.48	227.92
896.79	227.95
897.10	227.90
897.40	227.88
897.71	227.84
898.01	227.79
898.32	227.91
898.63	227.97
898.93	227.84
899.24	227.84
899.54	227.68
899.85	227.68
900.15	227.70
900.46	227.60
900.76	227.45
901.07	227.49
901.38	227.47
901.68	227.48
901.99	227.45
902.29	227.40
902.60	227.42
902.90	227.45
903.21	227.56
903.51	227.62
903.82	227.61
904.12	227.64
904.43	227.61
904.73	227.63
905.03	227.65
905.34	227.83
905.64	227.86
905.95	228.07
906.25	228.04
906.56	227.96
906.86	228.01
907.17	228.03
907.47	228.06
907.77	228.13
908.08	228.12
908.38	228.25
908.69	228.32
908.99	228.33
909.30	228.33
909.60	228.27
909.90	228.24
910.21	228.13
910.51	228.07
910.81	228.23
911.12	228.23
911.42	228.35
911.73	228.28
912.03	228.28
912.33	228.26
912.64	228.29
912.94	228.36
913.24	228.43
913.55	228.51
913.85	228.60
914.15	228.68
914.46	228.68
914.76	228.68
915.06	228.68
915.37	228.70
915.67	228.72
915.97	228.66
916.27	228.66
916.58	228.79
916.88	228.86
917.18	228.83
917.49	228.95
917.79	228.82
918.09	228.84
918.39	229.02
918.70	229.05
919.00	229.10
919.30	229.13
919.60	229.08
919.91	229.04
920.21	229.00
920.51	229.01
920.81	229.02
921.12	228.98
921.42	229.05
921.72	229.00
922.02	229.05
922.32	229.07
922.63	229.06
922.93	229.00
923.23	228.94
923.53	228.94
923.83	228.85
924.13	228.92
924.44	228.83
924.74	228.81
925.04	228.71
925.34	228.74
925.64	228.75
925.94	228.67
926.24	228.84
926.55	228.87
926.85	228.81
927.15	228.89
927.45	228.88
927.75	228.80
928.05	228.89
928.35	228.83
928.65	228.85
928.95	228.92
929.26	229.00
929.56	229.16
929.86	229.17
930.16	229.01
930.46	228.93
930.76	229.00
931.06	228.89
931.36	228.89
931.66	228.86
931.96	228.85
932.26	228.85
932.56	228.63
932.86	228.55
933.16	228.51
933.46	228.42
933.76	228.41
934.06	228.47
934.36	228.45
934.66	228.39
934.96	228.42
935.26	228.30
935.56	228.22
935.86	228.06
936.16	227.98
936.46	228.02
936.76	228.00
937.06	227.86
937.36	227.81
937.66	227.84
937.96	227.76
938.26	227.62
938.56	227.72
938.86	227.81
939.16	227.84
939.46	227.86
939.76	227.87
940.06	227.85
940.35	227.82
940.65	227.70
940.95	227.76
941.25	227.65
941.55	227.72
941.85	227.79
942.15	227.82
942.45	227.89
942.75	227.90
943.04	227.99
943.34	228.10
943.64	228.12
943.94	228.09
944.24	228.15
944.54	228.16
944.84	228.14
945.13	228.08
945.43	228.08
945.73	228.20
946.03	228.15
946.33	228.26
946.62	228.25
946.92	228.21
947.22	228.28
947.52	228.30
947.82	228.30
948.11	228.28
948.41	228.25
948.71	228.29
949.01	228.27
949.31	228.12
949.60	228.20
949.90	228.21
950.20	228.25
950.50	228.21
950.79	228.26
951.09	228.26
951.39	228.29
951.69	228.32
951.98	228.34
952.28	228.38
952.58	228.38
952.87	228.39
953.17	228.46
953.47	228.45
953.76	228.47
954.06	228.46
954.36	228.41
954.66	228.39
954.95	228.43
955.25	228.54
955.55	228.64
955.84	228.57
956.14	228.65
956.44	228.63
956.73	228.60
957.03	228.73
957.32	228.79
957.62	228.80
957.92	228.88
958.21	228.75
958.51	228.97
958.81	228.88
959.10	228.91
959.40	229.00
959.69	229.08
959.99	229.23
960.29	229.36
960.58	229.32
960.88	229.45
961.17	229.27
961.47	229.26
961.76	229.23
962.06	229.23
962.36	229.16
962.65	229.18
962.95	229.21
963.24	229.03
963.54	228.99
963.83	228.93
964.13	228.87
964.42	228.82
964.72	228.57
965.01	228.45
965.31	228.39
965.60	228.30
965.90	228.24
966.19	228.08
966.49	228.02
966.78	228.07
967.08	228.19
967.37	228.32
967.67	228.28
967.96	228.30
968.26	228.27
968.55	228.32
968.85	228.22
969.14	228.22
969.43	228.32
969.73	228.37
970.02	228.39
970.32	228.32
970.61	228.41
970.91	228.34
971.20	228.54
971.49	228.54
971.79	228.54
972.08	228.41
972.38	228.41
972.67	228.31
972.96	228.26
973.26	228.03
973.55	228.09
973.85	228.07
974.14	228.16
974.43	228.20
974.73	228.12
975.02	228.18
975.31	228.19
975.61	228.17
975.90	228.09
976.19	228.11
976.49	228.10
976.78	228.12
977.07	228.20
977.37	228.06
977.66	228.09
977.95	228.12
978.24	228.21
978.54	228.23
978.83	228.23
979.12	228.30
979.42	228.45
979.71	228.39
980.00	228.44
980.29	228.30
980.59	228.30
980.88	228.49
981.17	228.57
981.46	228.54
981.76	228.55
982.05	228.57
982.34	228.69
982.63	228.81
982.93	228.86
983.22	228.99
983.51	229.09
983.80	229.13
984.09	229.19
984.39	229.12
984.68	229.13
984.97	229.19
985.26	229.18
985.55	229.13
985.85	229.17
986.14	229.15
986.43	229.31
986.72	229.23
987.01	229.20
987.30	229.22
987.59	229.27
987.89	229.33
988.18	229.38
988.47	229.32
988.76	229.25
989.05	229.21
989.34	229.24
989.63	229.23
989.92	229.22
990.22	229.18
990.51	229.27
990.80	229.32
991.09	229.35
991.38	229.39
991.67	229.31
991.96	229.27
992.25	229.35
992.54	229.35
992.83	229.32
993.12	229.22
993.41	229.15
993.70	229.29
993.99	229.20
994.28	229.16
994.58	229.11
994.87	229.06
995.16	228.96
995.45	228.77
995.74	228.60
996.03	228.69
996.32	228.65
996.61	228.62
996.90	228.56
997.19	228.47
997.48	228.49
997.77	228.49
998.06	228.47
998.34	228.43
998.63	228.31
998.92	228.39
999.21	228.33
999.50	228.35
999.79	228.22
1000.08	228.17
1000.37	228.17
1000.66	228.20
1000.95	228.26
1001.24	228.20
1001.53	228.25
1001.82	228.30
1002.11	228.15
1002.40	228.18
1002.68	228.25
1002.97	228.42
1003.26	228.41
1003.55	228.30
1003.84	228.33
1004.13	228.31
1004.42	228.21
1004.71	228.14
1004.99	227.97
1005.28	228.00
1005.57	227.95
1005.86	227.94
1006.15	228.05
1006.44	228.02
1006.72	227.88
1007.01	227.81
1007.30	227.84
1007.59	227.80
1007.88	227.81
1008.17	227.79
1008.45	227.74
1008.74	227.68
1009.03	227.44
1009.32	227.50
1009.60	227.48
1009.89	227.37
1010.18	227.35
1010.47	227.34
1010.76	227.41
1011.04	227.59
1011.33	227.57
1011.62	227.49
1011.91	227.46
1012.19	227.28
1012.48	227.25
1012.77	227.34
1013.05	227.52
1013.34	227.57
1013.63	227.51
1013.92	227.51
1014.20	227.41
1014.49	227.54
1014.78	227.55
1015.06	227.65
1015.35	227.67
1015.64	227.73
1015.92	227.81
1016.21	227.81
1016.50	227.89
1016.78	227.96
1017.07	227.90
1017.36	227.83
1017.64	227.82
1017.93	227.87
1018.22	228.04
1018.50	228.12
1018.79	228.16
1019.08	228.01
1019.36	227.96
1019.65	228.01
1019.93	228.17
1020.22	228.35
1020.51	228.33
1020.79	228.28
1021.08	229.30
1021.36	228.90
1021.65	229.20
1021.94	227.70
1022.22	226.50
1022.51	227.40
1022.79	230.30
1023.08	228.60
1023.36	230.10
1023.65	227.90
>>>>>End Processed Spectral Data<<<<<
