SpectraSuite Data File
++++++++++++++++++++++++++++++++++++
Date: Fri Feb 01 14:36:40 EST 2013
User: group
Dark Spectrum Present: No
Reference Spectrum Present: No
Number of Sampled Component Spectra: 1
Spectrometers: USB2E7196
Integration Time (usec): 70000 (USB2E7196)
Spectra Averaged: 10 (USB2E7196)
Boxcar Smoothing: 10 (USB2E7196)
Correct for Electrical Dark: No (USB2E7196)
Strobe/Lamp Enabled: No (USB2E7196)
Correct for Detector Non-linearity: No (USB2E7196)
Correct for Stray Light: No (USB2E7196)
Number of Pixels in Processed Spectrum: 2048
>>>>>Begin Processed Spectral Data<<<<<
339.09	0.00
339.48	215.80
339.86	221.30
340.24	219.30
340.63	222.30
341.01	225.10
341.39	222.00
341.78	225.20
342.16	227.30
342.54	225.10
342.93	215.19
343.31	226.03
343.69	226.50
344.07	226.83
344.46	227.18
344.84	227.49
345.22	227.71
345.60	227.92
345.99	228.09
346.37	228.19
346.75	228.33
347.13	228.43
347.52	228.35
347.90	228.46
348.28	228.44
348.66	228.45
349.05	228.34
349.43	228.34
349.81	228.33
350.19	228.36
350.57	228.40
350.96	228.48
351.34	228.58
351.72	228.71
352.10	228.70
352.48	228.81
352.87	228.83
353.25	228.77
353.63	228.90
354.01	228.89
354.39	228.90
354.77	229.01
355.15	229.12
355.54	229.19
355.92	229.14
356.30	229.20
356.68	229.48
357.06	229.59
357.44	229.65
357.82	229.72
358.20	229.83
358.58	229.84
358.97	229.92
359.35	229.98
359.73	230.09
360.11	230.19
360.49	230.27
360.87	230.32
361.25	230.45
361.63	230.54
362.01	230.71
362.39	230.76
362.77	230.80
363.15	230.91
363.53	230.97
363.91	230.97
364.29	231.00
364.67	230.75
365.05	230.77
365.43	230.74
365.81	230.80
366.19	230.87
366.57	230.95
366.95	230.86
367.33	230.85
367.71	230.80
368.09	230.85
368.47	230.78
368.85	230.82
369.23	230.76
369.61	230.75
369.99	230.66
370.37	230.64
370.75	230.68
371.13	230.54
371.51	230.43
371.89	230.37
372.27	230.35
372.65	230.40
373.03	230.30
373.41	230.30
373.78	230.20
374.16	229.99
374.54	229.85
374.92	229.80
375.30	229.72
375.68	229.63
376.06	229.47
376.44	229.40
376.82	229.24
377.19	229.24
377.57	229.06
377.95	229.04
378.33	228.85
378.71	228.67
379.09	228.60
379.47	228.60
379.84	228.44
380.22	228.25
380.60	228.10
380.98	227.98
381.36	227.88
381.73	227.73
382.11	227.82
382.49	227.79
382.87	227.59
383.25	227.44
383.62	227.56
384.00	227.45
384.38	227.41
384.76	227.44
385.13	227.37
385.51	227.30
385.89	227.08
386.27	227.05
386.64	226.98
387.02	226.83
387.40	226.65
387.78	226.72
388.15	226.60
388.53	226.63
388.91	226.65
389.29	226.58
389.66	226.58
390.04	226.38
390.42	226.41
390.79	226.52
391.17	226.58
391.55	226.44
391.92	226.49
392.30	226.45
392.68	226.41
393.05	226.35
393.43	226.37
393.81	226.52
394.18	226.62
394.56	226.64
394.94	226.65
395.31	226.74
395.69	226.77
396.06	226.90
396.44	226.83
396.82	226.79
397.19	226.85
397.57	226.91
397.95	227.08
398.32	227.05
398.70	227.17
399.07	227.18
399.45	227.18
399.82	227.19
400.20	227.31
400.58	227.31
400.95	227.38
401.33	227.55
401.70	227.72
402.08	227.82
402.45	227.90
402.83	228.16
403.20	228.31
403.58	228.35
403.95	228.63
404.33	228.89
404.71	229.05
405.08	229.47
405.46	229.60
405.83	229.82
406.21	230.15
406.58	230.42
406.96	230.71
407.33	231.11
407.70	231.52
408.08	232.06
408.45	232.62
408.83	233.00
409.20	233.32
409.58	233.57
409.95	234.10
410.33	234.64
410.70	235.18
411.08	235.68
411.45	236.35
411.82	236.97
412.20	237.55
412.57	238.49
412.95	238.97
413.32	239.80
413.69	240.61
414.07	241.43
414.44	242.24
414.82	243.24
415.19	244.26
415.56	245.34
415.94	246.29
416.31	247.39
416.68	248.71
417.06	250.16
417.43	251.50
417.81	252.84
418.18	254.37
418.55	255.94
418.93	257.67
419.30	259.34
419.67	261.10
420.04	263.15
420.42	265.10
420.79	267.49
421.16	269.84
421.54	272.15
421.91	274.58
422.28	277.20
422.66	279.90
423.03	282.55
423.40	285.26
423.77	288.05
424.15	291.07
424.52	294.16
424.89	297.53
425.26	300.96
425.64	304.03
426.01	307.39
426.38	310.89
426.75	314.67
427.13	318.42
427.50	322.40
427.87	326.44
428.24	330.27
428.61	334.07
428.99	338.21
429.36	342.84
429.73	347.35
430.10	351.64
430.47	356.18
430.85	360.96
431.22	365.95
431.59	371.46
431.96	376.50
432.33	382.24
432.70	387.63
433.08	393.96
433.45	400.07
433.82	406.14
434.19	412.70
434.56	419.10
434.93	425.40
435.30	431.49
435.68	438.23
436.05	445.02
436.42	451.58
436.79	457.71
437.16	464.32
437.53	471.17
437.90	478.20
438.27	484.76
438.64	491.62
439.01	498.15
439.38	504.01
439.75	509.57
440.13	515.87
440.50	521.90
440.87	526.93
441.24	532.16
441.61	537.86
441.98	542.28
442.35	547.28
442.72	552.31
443.09	557.44
443.46	560.65
443.83	563.05
444.20	565.21
444.57	568.20
444.94	569.59
445.31	571.34
445.68	573.03
446.05	574.30
446.42	574.39
446.79	574.20
447.16	573.92
447.53	574.25
447.90	572.48
448.27	570.74
448.64	567.78
449.01	566.06
449.37	562.27
449.74	558.76
450.11	554.19
450.48	549.28
450.85	544.10
451.22	539.88
451.59	535.72
451.96	531.90
452.33	526.36
452.70	521.64
453.07	515.65
453.43	509.59
453.80	503.60
454.17	497.79
454.54	492.37
454.91	486.31
455.28	480.41
455.65	474.90
456.02	469.47
456.38	464.74
456.75	458.59
457.12	453.55
457.49	448.23
457.86	443.48
458.23	439.28
458.59	434.52
458.96	429.70
459.33	425.48
459.70	421.36
460.07	417.83
460.43	413.91
460.80	410.11
461.17	406.71
461.54	403.40
461.91	400.03
462.27	396.58
462.64	393.66
463.01	390.36
463.38	387.34
463.74	384.10
464.11	381.30
464.48	379.01
464.85	376.31
465.21	374.28
465.58	372.01
465.95	369.39
466.32	367.14
466.68	364.93
467.05	362.83
467.42	360.56
467.78	358.40
468.15	356.13
468.52	354.58
468.88	352.45
469.25	350.53
469.62	348.97
469.98	347.48
470.35	345.96
470.72	344.38
471.08	342.50
471.45	341.21
471.82	339.84
472.18	338.17
472.55	337.04
472.92	335.80
473.28	334.60
473.65	333.41
474.02	332.27
474.38	331.26
474.75	330.27
475.11	329.10
475.48	328.23
475.85	327.46
476.21	326.62
476.58	325.91
476.94	325.26
477.31	324.59
477.67	323.99
478.04	323.34
478.41	322.83
478.77	322.73
479.14	322.08
479.50	321.70
479.87	321.53
480.23	321.40
480.60	321.10
480.96	320.77
481.33	320.74
481.69	320.71
482.06	320.45
482.42	320.38
482.79	320.39
483.15	320.32
483.52	320.51
483.88	320.43
484.25	320.60
484.61	320.66
484.98	320.92
485.34	321.14
485.71	321.56
486.07	322.02
486.44	322.20
486.80	322.60
487.17	323.10
487.53	323.51
487.90	324.01
488.26	324.70
488.62	325.39
488.99	325.85
489.35	326.52
489.72	327.40
490.08	328.20
490.44	328.92
490.81	329.87
491.17	330.65
491.54	331.69
491.90	332.51
492.26	333.56
492.63	334.60
492.99	335.60
493.36	336.58
493.72	337.80
494.08	338.91
494.45	340.29
494.81	341.43
495.17	342.66
495.54	343.81
495.90	344.98
496.26	346.24
496.63	347.61
496.99	348.87
497.35	350.19
497.72	351.53
498.08	352.93
498.44	354.23
498.80	355.82
499.17	357.17
499.53	358.52
499.89	359.84
500.26	360.98
500.62	362.19
500.98	363.65
501.34	364.94
501.71	366.30
502.07	367.46
502.43	368.73
502.79	369.94
503.16	371.18
503.52	372.25
503.88	373.30
504.24	374.48
504.60	375.62
504.97	376.59
505.33	377.60
505.69	378.72
506.05	379.75
506.41	380.32
506.78	381.11
507.14	381.96
507.50	382.92
507.86	383.84
508.22	384.66
508.59	385.23
508.95	385.79
509.31	386.31
509.67	386.85
510.03	387.47
510.39	387.91
510.75	388.49
511.12	389.06
511.48	389.58
511.84	389.82
512.20	390.19
512.56	390.66
512.92	390.95
513.28	391.19
513.64	391.39
514.00	391.84
514.37	392.10
514.73	392.16
515.09	392.11
515.45	392.22
515.81	392.40
516.17	392.59
516.53	392.61
516.89	392.70
517.25	392.91
517.61	392.99
517.97	393.22
518.33	393.42
518.69	393.50
519.05	393.71
519.41	393.99
519.77	394.31
520.13	394.32
520.49	394.50
520.85	394.67
521.21	394.87
521.57	395.10
521.93	395.31
522.29	395.79
522.65	396.14
523.01	396.50
523.37	396.89
523.73	397.18
524.09	397.67
524.45	398.22
524.81	398.61
525.17	399.32
525.53	400.08
525.89	400.73
526.25	401.57
526.61	402.11
526.97	402.93
527.33	403.73
527.68	405.08
528.04	406.17
528.40	407.36
528.76	408.66
529.12	409.94
529.48	411.33
529.84	412.70
530.20	414.33
530.56	415.97
530.91	417.67
531.27	419.68
531.63	421.46
531.99	423.39
532.35	425.35
532.71	427.26
533.07	429.34
533.42	431.67
533.78	433.88
534.14	436.34
534.50	438.65
534.86	441.16
535.21	443.31
535.57	445.86
535.93	448.54
536.29	451.45
536.65	454.30
537.00	457.09
537.36	460.01
537.72	463.14
538.08	466.35
538.44	469.47
538.79	472.46
539.15	475.80
539.51	479.04
539.87	482.45
540.22	485.79
540.58	489.41
540.94	492.60
541.29	495.93
541.65	499.57
542.01	503.48
542.37	507.00
542.72	510.81
543.08	514.70
543.44	518.47
543.79	521.96
544.15	525.79
544.51	530.04
544.87	534.09
545.22	537.97
545.58	541.73
545.94	545.79
546.29	549.93
546.65	553.93
547.01	557.95
547.36	562.19
547.72	566.51
548.07	570.47
548.43	574.45
548.79	578.86
549.14	582.99
549.50	586.96
549.86	591.02
550.21	595.40
550.57	599.63
550.92	603.94
551.28	608.16
551.64	612.35
551.99	616.40
552.35	620.69
552.70	624.96
553.06	629.19
553.41	633.47
553.77	637.80
554.13	642.18
554.48	646.64
554.84	650.78
555.19	654.82
555.55	659.00
555.90	663.31
556.26	667.29
556.61	671.51
556.97	675.50
557.32	679.89
557.68	683.96
558.03	687.97
558.39	692.02
558.74	696.52
559.10	700.66
559.45	705.00
559.81	709.41
560.16	713.39
560.52	717.46
560.87	721.48
561.23	725.32
561.58	729.38
561.94	733.28
562.29	737.15
562.64	741.11
563.00	744.97
563.35	749.12
563.71	753.46
564.06	757.30
564.42	761.35
564.77	765.31
565.12	769.27
565.48	773.10
565.83	776.60
566.19	780.12
566.54	783.70
566.89	786.85
567.25	790.05
567.60	793.72
567.96	797.28
568.31	800.59
568.66	804.10
569.02	807.35
569.37	810.10
569.72	813.20
570.08	816.23
570.43	819.14
570.78	821.74
571.14	824.07
571.49	826.89
571.84	829.79
572.20	832.09
572.55	834.41
572.90	836.59
573.26	839.09
573.61	841.11
573.96	843.19
574.31	845.13
574.67	846.84
575.02	848.30
575.37	850.14
575.72	851.64
576.08	853.11
576.43	854.57
576.78	856.51
577.13	858.34
577.49	859.93
577.84	861.37
578.19	862.66
578.54	864.20
578.90	865.20
579.25	865.86
579.60	866.89
579.95	867.48
580.30	868.35
580.66	869.26
581.01	870.01
581.36	871.07
581.71	872.03
582.06	873.01
582.42	873.83
582.77	874.37
583.12	874.72
583.47	875.38
583.82	875.90
584.17	876.13
584.53	876.17
584.88	876.47
585.23	876.60
585.58	876.94
585.93	876.93
586.28	877.29
586.63	877.97
586.98	877.92
587.34	878.47
587.69	878.68
588.04	878.63
588.39	878.79
588.74	878.11
589.09	877.96
589.44	877.42
589.79	877.22
590.14	877.07
590.49	877.10
590.84	876.74
591.19	876.32
591.54	875.57
591.89	874.80
592.25	874.32
592.60	873.77
592.95	872.86
593.30	872.10
593.65	870.93
594.00	869.65
594.35	869.38
594.70	868.00
595.05	867.03
595.40	865.79
595.75	864.55
596.10	864.00
596.45	863.11
596.80	862.34
597.15	861.09
597.50	859.72
597.85	858.71
598.19	857.70
598.54	856.53
598.89	855.64
599.24	854.66
599.59	853.20
599.94	852.03
600.29	850.89
600.64	849.60
600.99	848.12
601.34	846.57
601.69	844.82
602.04	843.57
602.39	842.14
602.74	841.05
603.08	839.81
603.43	838.51
603.78	836.65
604.13	835.01
604.48	833.76
604.83	832.21
605.18	830.57
605.53	828.37
605.87	826.42
606.22	824.98
606.57	823.10
606.92	821.39
607.27	819.79
607.62	818.35
607.96	816.65
608.31	815.31
608.66	813.40
609.01	811.28
609.36	808.86
609.70	806.46
610.05	804.05
610.40	801.81
610.75	799.36
611.10	797.16
611.44	794.33
611.79	791.90
612.14	789.60
612.49	786.93
612.83	784.55
613.18	782.23
613.53	779.59
613.88	776.91
614.22	774.28
614.57	771.37
614.92	768.51
615.27	766.23
615.61	763.57
615.96	761.22
616.31	758.81
616.65	756.88
617.00	754.71
617.35	752.30
617.70	749.55
618.04	746.79
618.39	744.48
618.74	742.32
619.08	739.55
619.43	737.02
619.78	734.79
620.12	732.39
620.47	729.65
620.82	726.85
621.16	724.38
621.51	721.81
621.85	719.23
622.20	716.22
622.55	713.31
622.89	710.86
623.24	708.21
623.59	705.76
623.93	703.24
624.28	700.82
624.62	698.39
624.97	696.20
625.32	693.84
625.66	691.28
626.01	688.92
626.35	686.53
626.70	684.05
627.04	681.58
627.39	678.96
627.73	676.59
628.08	674.35
628.43	671.91
628.77	669.53
629.12	667.20
629.46	665.04
629.81	662.31
630.15	659.44
630.50	656.96
630.84	654.21
631.19	651.19
631.53	648.36
631.88	645.30
632.22	642.31
632.57	639.73
632.91	636.92
633.26	634.18
633.60	631.39
633.95	628.63
634.29	625.87
634.64	623.48
634.98	620.84
635.32	618.22
635.67	615.97
636.01	613.50
636.36	610.86
636.70	608.68
637.05	606.55
637.39	604.25
637.73	601.76
638.08	599.57
638.42	597.53
638.77	595.07
639.11	593.07
639.45	590.88
639.80	588.37
640.14	586.09
640.49	583.83
640.83	581.44
641.17	579.35
641.52	576.99
641.86	574.50
642.20	572.16
642.55	569.72
642.89	567.40
643.23	564.90
643.58	562.69
643.92	560.16
644.26	557.60
644.61	555.38
644.95	553.17
645.29	550.50
645.64	547.96
645.98	545.71
646.32	543.37
646.66	540.84
647.01	538.57
647.35	536.40
647.69	534.05
648.04	531.88
648.38	529.34
648.72	526.75
649.06	524.40
649.41	522.36
649.75	520.01
650.09	517.49
650.43	515.35
650.78	512.79
651.12	510.42
651.46	508.23
651.80	505.83
652.14	503.64
652.49	501.59
652.83	499.45
653.17	497.05
653.51	494.65
653.85	492.57
654.20	490.27
654.54	487.76
654.88	485.49
655.22	483.16
655.56	480.74
655.90	478.61
656.25	476.49
656.59	474.12
656.93	471.90
657.27	469.93
657.61	467.44
657.95	465.43
658.29	463.25
658.64	461.13
658.98	458.75
659.32	456.45
659.66	454.18
660.00	452.08
660.34	450.13
660.68	448.08
661.02	445.91
661.36	443.69
661.70	441.81
662.05	439.88
662.39	438.00
662.73	436.20
663.07	434.56
663.41	432.62
663.75	430.80
664.09	429.04
664.43	427.12
664.77	425.53
665.11	423.81
665.45	422.06
665.79	420.25
666.13	418.69
666.47	416.86
666.81	415.16
667.15	413.24
667.49	411.56
667.83	409.79
668.17	408.10
668.51	406.53
668.85	404.84
669.19	403.13
669.53	401.46
669.87	399.77
670.21	397.95
670.55	396.40
670.89	394.88
671.23	393.42
671.57	391.72
671.91	390.10
672.25	388.62
672.58	387.21
672.92	385.75
673.26	384.22
673.60	382.90
673.94	381.56
674.28	380.39
674.62	379.19
674.96	377.92
675.30	376.76
675.64	375.52
675.97	374.26
676.31	373.10
676.65	371.83
676.99	370.71
677.33	369.45
677.67	368.11
678.01	366.77
678.34	365.39
678.68	364.28
679.02	362.94
679.36	361.57
679.70	360.32
680.04	359.10
680.37	357.96
680.71	356.75
681.05	355.50
681.39	354.32
681.73	353.03
682.06	352.05
682.40	350.93
682.74	349.94
683.08	348.88
683.42	347.55
683.75	346.55
684.09	345.39
684.43	344.36
684.77	343.33
685.10	342.17
685.44	341.11
685.78	339.96
686.12	338.95
686.45	337.98
686.79	336.93
687.13	335.99
687.46	335.03
687.80	334.13
688.14	333.08
688.48	332.01
688.81	331.02
689.15	329.92
689.49	328.87
689.82	327.76
690.16	326.86
690.50	325.99
690.83	324.97
691.17	323.93
691.51	322.74
691.84	321.81
692.18	320.95
692.52	320.02
692.85	319.17
693.19	318.23
693.52	317.39
693.86	316.41
694.20	315.41
694.53	314.40
694.87	313.21
695.21	312.33
695.54	311.45
695.88	310.37
696.21	309.39
696.55	308.48
696.88	307.60
697.22	306.51
697.56	305.75
697.89	304.87
698.23	304.12
698.56	303.50
698.90	302.64
699.23	301.75
699.57	300.96
699.90	300.06
700.24	299.32
700.58	298.40
700.91	297.62
701.25	296.91
701.58	296.25
701.92	295.70
702.25	294.97
702.59	294.16
702.92	293.60
703.26	293.07
703.59	292.37
703.93	291.90
704.26	291.34
704.60	290.57
704.93	289.86
705.26	289.04
705.60	288.46
705.93	287.81
706.27	287.25
706.60	286.60
706.94	286.02
707.27	285.45
707.61	284.76
707.94	284.20
708.27	283.50
708.61	282.77
708.94	282.13
709.28	281.60
709.61	281.10
709.94	280.53
710.28	279.88
710.61	279.37
710.95	278.59
711.28	278.06
711.61	277.41
711.95	276.91
712.28	276.42
712.61	275.70
712.95	275.16
713.28	274.70
713.61	274.06
713.95	273.52
714.28	272.90
714.61	272.47
714.95	271.92
715.28	271.33
715.61	270.86
715.95	270.44
716.28	269.89
716.61	269.46
716.95	268.91
717.28	268.45
717.61	267.94
717.94	267.47
718.28	266.89
718.61	266.48
718.94	266.03
719.27	265.65
719.61	265.35
719.94	264.97
720.27	264.47
720.60	264.14
720.94	263.70
721.27	263.30
721.60	263.08
721.93	262.68
722.27	262.40
722.60	262.06
722.93	261.64
723.26	261.36
723.59	260.99
723.93	260.67
724.26	260.30
724.59	259.94
724.92	259.66
725.25	259.45
725.59	259.17
725.92	258.86
726.25	258.49
726.58	258.23
726.91	257.95
727.24	257.68
727.57	257.30
727.91	257.19
728.24	256.96
728.57	256.55
728.90	256.35
729.23	256.02
729.56	255.84
729.89	255.64
730.22	255.39
730.55	255.09
730.89	254.79
731.22	254.54
731.55	254.28
731.88	253.99
732.21	253.80
732.54	253.46
732.87	253.30
733.20	253.11
733.53	252.89
733.86	252.71
734.19	252.42
734.52	252.31
734.85	251.97
735.18	251.79
735.51	251.63
735.84	251.44
736.17	251.23
736.50	250.97
736.83	251.00
737.16	250.74
737.49	250.55
737.82	250.28
738.15	250.19
738.48	250.06
738.81	249.98
739.14	249.72
739.47	249.72
739.80	249.48
740.13	249.36
740.46	249.00
740.79	248.75
741.12	248.63
741.45	248.51
741.78	248.33
742.11	248.20
742.44	247.91
742.77	247.61
743.10	247.50
743.43	247.31
743.75	246.79
744.08	246.90
744.41	246.66
744.74	246.59
745.07	246.11
745.40	245.88
745.73	245.62
746.06	245.30
746.39	245.00
746.71	244.80
747.04	244.53
747.37	244.45
747.70	244.20
748.03	244.07
748.36	243.85
748.68	243.66
749.01	243.41
749.34	243.21
749.67	243.09
750.00	242.96
750.33	242.89
750.65	242.86
750.98	242.42
751.31	242.33
751.64	242.08
751.97	242.25
752.29	242.06
752.62	241.87
752.95	241.76
753.28	241.59
753.60	241.39
753.93	241.24
754.26	241.10
754.59	240.99
754.91	240.64
755.24	240.44
755.57	240.32
755.90	240.09
756.22	239.95
756.55	239.81
756.88	239.64
757.20	239.34
757.53	239.12
757.86	238.96
758.19	238.84
758.51	238.72
758.84	238.52
759.17	238.36
759.49	238.30
759.82	238.22
760.15	238.10
760.47	238.01
760.80	237.88
761.13	237.77
761.45	237.60
761.78	237.63
762.11	237.58
762.43	237.42
762.76	237.32
763.08	237.35
763.41	237.31
763.74	237.19
764.06	237.07
764.39	236.92
764.71	236.83
765.04	236.67
765.37	236.62
765.69	236.40
766.02	236.47
766.34	236.36
766.67	236.30
767.00	236.27
767.32	236.29
767.65	236.27
767.97	236.15
768.30	236.09
768.62	235.89
768.95	235.76
769.27	235.60
769.60	235.60
769.92	235.44
770.25	235.31
770.57	235.21
770.90	235.20
771.22	235.07
771.55	234.99
771.87	234.87
772.20	234.83
772.52	235.03
772.85	235.10
773.17	234.98
773.50	234.78
773.82	234.77
774.15	234.63
774.47	234.50
774.80	234.56
775.12	234.42
775.45	234.44
775.77	234.33
776.09	234.42
776.42	234.39
776.74	234.39
777.07	234.32
777.39	234.28
777.72	234.30
778.04	234.38
778.36	234.38
778.69	234.40
779.01	234.40
779.33	234.15
779.66	233.88
779.98	233.92
780.31	233.99
780.63	233.91
780.95	233.94
781.28	233.90
781.60	233.72
781.92	233.79
782.25	233.70
782.57	233.77
782.89	233.71
783.22	233.62
783.54	233.59
783.86	233.53
784.19	233.52
784.51	233.44
784.83	233.43
785.16	233.42
785.48	233.43
785.80	233.35
786.12	233.31
786.45	233.25
786.77	233.23
787.09	233.23
787.42	233.19
787.74	233.02
788.06	233.04
788.38	233.01
788.71	232.96
789.03	232.96
789.35	232.84
789.67	232.77
789.99	232.72
790.32	232.69
790.64	232.63
790.96	232.72
791.28	232.54
791.61	232.47
791.93	232.35
792.25	232.32
792.57	232.40
792.89	232.27
793.21	232.30
793.54	232.18
793.86	231.96
794.18	231.80
794.50	231.82
794.82	231.75
795.14	231.75
795.47	231.75
795.79	231.74
796.11	231.61
796.43	231.52
796.75	231.46
797.07	231.29
797.39	231.29
797.71	231.13
798.04	231.16
798.36	231.11
798.68	231.07
799.00	230.97
799.32	230.82
799.64	230.87
799.96	230.79
800.28	230.73
800.60	230.74
800.92	230.80
801.24	230.75
801.56	230.64
801.89	230.57
802.21	230.50
802.53	230.44
802.85	230.55
803.17	230.60
803.49	230.57
803.81	230.56
804.13	230.53
804.45	230.40
804.77	230.42
805.09	230.31
805.41	230.25
805.73	230.24
806.05	230.13
806.37	230.01
806.69	230.01
807.01	230.03
807.33	230.08
807.65	230.01
807.97	230.00
808.28	229.98
808.60	229.90
808.92	229.89
809.24	229.96
809.56	229.89
809.88	229.80
810.20	229.77
810.52	229.83
810.84	229.78
811.16	229.76
811.48	229.68
811.80	229.77
812.12	229.76
812.43	229.78
812.75	229.78
813.07	229.77
813.39	229.78
813.71	229.68
814.03	229.67
814.35	229.65
814.67	229.61
814.98	229.61
815.30	229.60
815.62	229.52
815.94	229.43
816.26	229.57
816.58	229.58
816.89	229.61
817.21	229.57
817.53	229.58
817.85	229.71
818.17	229.80
818.48	229.70
818.80	229.73
819.12	229.71
819.44	229.73
819.76	229.76
820.07	229.80
820.39	229.83
820.71	229.74
821.03	229.77
821.34	229.72
821.66	229.78
821.98	229.88
822.30	229.94
822.61	230.01
822.93	229.95
823.25	229.93
823.57	229.84
823.88	229.94
824.20	229.92
824.52	229.87
824.83	229.93
825.15	229.91
825.47	229.99
825.79	229.96
826.10	230.04
826.42	230.03
826.74	230.03
827.05	230.10
827.37	230.14
827.69	230.13
828.00	230.22
828.32	230.15
828.64	230.04
828.95	230.07
829.27	229.96
829.58	229.87
829.90	229.89
830.22	229.90
830.53	229.84
830.85	229.76
831.17	229.67
831.48	229.45
831.80	229.51
832.11	229.42
832.43	229.40
832.75	229.30
833.06	229.39
833.38	229.27
833.69	229.13
834.01	229.14
834.32	229.12
834.64	229.13
834.96	229.10
835.27	229.14
835.59	229.13
835.90	229.10
836.22	229.02
836.53	228.85
836.85	228.80
837.16	228.85
837.48	228.88
837.79	228.93
838.11	228.93
838.42	228.88
838.74	228.91
839.05	228.80
839.37	228.74
839.68	228.64
840.00	228.60
840.31	228.61
840.63	228.66
840.94	228.53
841.26	228.38
841.57	228.42
841.88	228.43
842.20	228.30
842.51	228.29
842.83	228.25
843.14	228.43
843.46	228.46
843.77	228.32
844.08	228.35
844.40	228.27
844.71	228.29
845.03	228.20
845.34	228.10
845.65	228.04
845.97	228.06
846.28	228.09
846.60	228.09
846.91	228.00
847.22	227.81
847.54	227.92
847.85	227.90
848.16	227.91
848.48	227.84
848.79	227.92
849.10	228.03
849.42	228.12
849.73	228.08
850.04	228.08
850.36	228.06
850.67	228.04
850.98	228.07
851.30	228.09
851.61	228.19
851.92	228.29
852.23	228.53
852.55	228.50
852.86	228.46
853.17	228.46
853.49	228.51
853.80	228.74
854.11	228.81
854.42	228.89
854.74	228.84
855.05	228.87
855.36	228.85
855.67	228.89
855.99	228.82
856.30	229.02
856.61	229.07
856.92	229.13
857.23	229.21
857.55	229.11
857.86	229.08
858.17	229.11
858.48	229.00
858.79	228.99
859.11	229.06
859.42	229.05
859.73	229.09
860.04	229.23
860.35	229.19
860.66	229.14
860.98	229.20
861.29	229.19
861.60	229.25
861.91	229.40
862.22	229.32
862.53	229.34
862.84	229.23
863.16	229.28
863.47	229.23
863.78	229.17
864.09	229.24
864.40	229.23
864.71	229.15
865.02	229.21
865.33	229.10
865.64	229.13
865.95	229.17
866.27	229.17
866.58	229.09
866.89	229.03
867.20	228.92
867.51	228.80
867.82	228.80
868.13	228.77
868.44	228.58
868.75	228.58
869.06	228.58
869.37	228.44
869.68	228.40
869.99	228.46
870.30	228.47
870.61	228.51
870.92	228.56
871.23	228.61
871.54	228.66
871.85	228.70
872.16	228.68
872.47	228.70
872.78	228.73
873.09	228.71
873.40	228.65
873.71	228.68
874.02	228.75
874.33	228.80
874.64	228.79
874.95	228.75
875.26	228.66
875.56	228.70
875.87	228.69
876.18	228.74
876.49	228.79
876.80	228.77
877.11	228.77
877.42	228.79
877.73	228.78
878.04	228.69
878.35	228.65
878.66	228.63
878.96	228.48
879.27	228.38
879.58	228.34
879.89	228.34
880.20	228.30
880.51	228.14
880.82	227.99
881.12	227.94
881.43	227.93
881.74	227.95
882.05	227.90
882.36	227.86
882.67	227.79
882.97	227.75
883.28	227.72
883.59	227.56
883.90	227.52
884.21	227.52
884.51	227.53
884.82	227.48
885.13	227.42
885.44	227.53
885.74	227.63
886.05	227.64
886.36	227.60
886.67	227.68
886.98	227.84
887.28	227.94
887.59	227.98
887.90	228.13
888.20	228.07
888.51	228.07
888.82	228.07
889.13	228.05
889.43	228.06
889.74	228.06
890.05	228.11
890.35	228.08
890.66	227.98
890.97	227.96
891.28	227.98
891.58	228.09
891.89	228.00
892.20	227.88
892.50	227.90
892.81	227.90
893.12	227.89
893.42	227.79
893.73	227.86
894.04	227.80
894.34	227.70
894.65	227.74
894.95	227.75
895.26	227.86
895.57	227.98
895.87	227.81
896.18	227.85
896.48	227.85
896.79	227.90
897.10	227.95
897.40	227.96
897.71	228.08
898.01	228.05
898.32	228.10
898.63	228.15
898.93	228.13
899.24	228.21
899.54	228.18
899.85	228.33
900.15	228.28
900.46	228.33
900.76	228.32
901.07	228.39
901.38	228.35
901.68	228.30
901.99	228.22
902.29	228.32
902.60	228.29
902.90	228.32
903.21	228.25
903.51	228.30
903.82	228.35
904.12	228.36
904.43	228.26
904.73	228.30
905.03	228.33
905.34	228.56
905.64	228.58
905.95	228.58
906.25	228.47
906.56	228.48
906.86	228.44
907.17	228.44
907.47	228.38
907.77	228.41
908.08	228.44
908.38	228.42
908.69	228.35
908.99	228.39
909.30	228.40
909.60	228.40
909.90	228.36
910.21	228.28
910.51	228.09
910.81	228.12
911.12	228.14
911.42	228.03
911.73	227.85
912.03	227.86
912.33	227.94
912.64	227.92
912.94	227.91
913.24	227.89
913.55	227.83
913.85	227.82
914.15	227.90
914.46	227.84
914.76	227.76
915.06	227.81
915.37	227.76
915.67	227.76
915.97	227.83
916.27	227.77
916.58	227.77
916.88	227.81
917.18	227.87
917.49	227.94
917.79	228.02
918.09	228.00
918.39	227.95
918.70	227.90
919.00	227.89
919.30	227.89
919.60	227.84
919.91	227.91
920.21	227.84
920.51	227.71
920.81	227.74
921.12	227.86
921.42	227.78
921.72	227.72
922.02	227.73
922.32	227.76
922.63	227.83
922.93	227.98
923.23	228.05
923.53	227.98
923.83	227.83
924.13	227.91
924.44	227.92
924.74	227.92
925.04	227.93
925.34	227.88
925.64	227.88
925.94	227.91
926.24	227.97
926.55	228.04
926.85	228.10
927.15	228.08
927.45	228.06
927.75	228.05
928.05	228.11
928.35	227.98
928.65	228.02
928.95	227.99
929.26	227.90
929.56	228.00
929.86	227.99
930.16	228.10
930.46	228.00
930.76	228.00
931.06	228.02
931.36	227.99
931.66	228.09
931.96	228.10
932.26	228.14
932.56	228.07
932.86	228.10
933.16	228.06
933.46	228.10
933.76	228.11
934.06	228.22
934.36	228.22
934.66	228.35
934.96	228.43
935.26	228.44
935.56	228.43
935.86	228.29
936.16	228.30
936.46	228.23
936.76	228.25
937.06	228.31
937.36	228.31
937.66	228.31
937.96	228.34
938.26	228.35
938.56	228.33
938.86	228.38
939.16	228.50
939.46	228.56
939.76	228.57
940.06	228.56
940.35	228.60
940.65	228.58
940.95	228.68
941.25	228.60
941.55	228.65
941.85	228.71
942.15	228.81
942.45	228.90
942.75	228.99
943.04	229.04
943.34	229.05
943.64	229.10
943.94	229.15
944.24	229.10
944.54	229.02
944.84	229.07
945.13	229.01
945.43	228.90
945.73	228.97
946.03	228.92
946.33	228.93
946.62	228.83
946.92	228.86
947.22	228.80
947.52	228.68
947.82	228.69
948.11	228.60
948.41	228.51
948.71	228.47
949.01	228.41
949.31	228.41
949.60	228.35
949.90	228.37
950.20	228.35
950.50	228.38
950.79	228.48
951.09	228.54
951.39	228.55
951.69	228.51
951.98	228.48
952.28	228.46
952.58	228.44
952.87	228.41
953.17	228.37
953.47	228.28
953.76	228.32
954.06	228.29
954.36	228.29
954.66	228.29
954.95	228.28
955.25	228.20
955.55	228.07
955.84	228.00
956.14	227.91
956.44	227.81
956.73	227.71
957.03	227.64
957.32	227.54
957.62	227.55
957.92	227.55
958.21	227.55
958.51	227.77
958.81	227.81
959.10	227.87
959.40	227.97
959.69	227.95
959.99	227.91
960.29	227.91
960.58	227.98
960.88	228.05
961.17	228.02
961.47	228.04
961.76	228.12
962.06	228.14
962.36	228.13
962.65	228.14
962.95	228.28
963.24	228.33
963.54	228.25
963.83	228.21
964.13	228.15
964.42	227.97
964.72	227.80
965.01	227.68
965.31	227.57
965.60	227.54
965.90	227.76
966.19	227.74
966.49	227.76
966.78	227.67
967.08	227.63
967.37	227.68
967.67	227.60
967.96	227.60
968.26	227.72
968.55	227.80
968.85	227.79
969.14	227.71
969.43	227.71
969.73	227.78
970.02	227.79
970.32	227.89
970.61	227.93
970.91	227.87
971.20	227.90
971.49	227.99
971.79	228.02
972.08	227.81
972.38	227.91
972.67	227.80
972.96	227.86
973.26	227.84
973.55	227.86
973.85	227.96
974.14	227.99
974.43	228.00
974.73	227.96
975.02	228.00
975.31	228.04
975.61	228.00
975.90	228.00
976.19	227.97
976.49	228.03
976.78	228.14
977.07	228.12
977.37	228.16
977.66	228.18
977.95	228.05
978.24	228.11
978.54	228.05
978.83	228.16
979.12	228.24
979.42	228.27
979.71	228.21
980.00	228.16
980.29	228.14
980.59	228.09
980.88	228.06
981.17	228.14
981.46	228.13
981.76	228.08
982.05	228.18
982.34	228.23
982.63	228.19
982.93	228.20
983.22	228.36
983.51	228.30
983.80	228.33
984.09	228.45
984.39	228.43
984.68	228.47
984.97	228.42
985.26	228.28
985.55	228.29
985.85	228.29
986.14	228.34
986.43	228.36
986.72	228.31
987.01	228.37
987.30	228.37
987.59	228.26
987.89	228.27
988.18	228.22
988.47	228.13
988.76	228.06
989.05	228.06
989.34	227.97
989.63	228.10
989.92	228.01
990.22	227.99
990.51	228.04
990.80	228.01
991.09	228.04
991.38	228.03
991.67	228.00
991.96	228.04
992.25	228.10
992.54	228.05
992.83	227.93
993.12	227.96
993.41	227.95
993.70	228.15
993.99	228.19
994.28	228.24
994.58	228.28
994.87	228.26
995.16	228.27
995.45	228.21
995.74	228.11
996.03	228.19
996.32	228.18
996.61	228.17
996.90	228.19
997.19	228.18
997.48	228.19
997.77	228.14
998.06	228.12
998.34	228.01
998.63	227.99
998.92	228.10
999.21	228.05
999.50	228.02
999.79	227.96
1000.08	227.97
1000.37	227.89
1000.66	227.83
1000.95	227.93
1001.24	227.88
1001.53	227.97
1001.82	228.03
1002.11	227.96
1002.40	227.96
1002.68	227.90
1002.97	227.97
1003.26	227.92
1003.55	227.98
1003.84	227.99
1004.13	227.98
1004.42	227.96
1004.71	227.98
1004.99	227.97
1005.28	227.99
1005.57	228.06
1005.86	228.00
1006.15	228.02
1006.44	228.02
1006.72	228.12
1007.01	228.17
1007.30	228.12
1007.59	228.13
1007.88	228.10
1008.17	228.12
1008.45	228.06
1008.74	228.10
1009.03	228.10
1009.32	228.12
1009.60	228.17
1009.89	228.22
1010.18	228.26
1010.47	228.29
1010.76	228.30
1011.04	228.29
1011.33	228.44
1011.62	228.40
1011.91	228.51
1012.19	228.51
1012.48	228.43
1012.77	228.49
1013.05	228.55
1013.34	228.62
1013.63	228.65
1013.92	228.70
1014.20	228.74
1014.49	228.80
1014.78	228.81
1015.06	228.72
1015.35	228.79
1015.64	228.73
1015.92	228.75
1016.21	228.76
1016.50	228.77
1016.78	228.84
1017.07	228.91
1017.36	228.81
1017.64	228.81
1017.93	228.71
1018.22	228.64
1018.50	228.75
1018.79	228.73
1019.08	228.58
1019.36	228.55
1019.65	228.57
1019.93	228.59
1020.22	228.60
1020.51	228.70
1020.79	228.69
1021.08	227.10
1021.36	228.40
1021.65	229.30
1021.94	227.60
1022.22	227.90
1022.51	230.00
1022.79	229.30
1023.08	229.30
1023.36	230.30
1023.65	228.10
>>>>>End Processed Spectral Data<<<<<
