SpectraSuite Data File
++++++++++++++++++++++++++++++++++++
Date: Fri Feb 01 14:35:13 EST 2013
User: group
Dark Spectrum Present: No
Reference Spectrum Present: No
Number of Sampled Component Spectra: 1
Spectrometers: USB2E7196
Integration Time (usec): 70000 (USB2E7196)
Spectra Averaged: 10 (USB2E7196)
Boxcar Smoothing: 10 (USB2E7196)
Correct for Electrical Dark: No (USB2E7196)
Strobe/Lamp Enabled: No (USB2E7196)
Correct for Detector Non-linearity: No (USB2E7196)
Correct for Stray Light: No (USB2E7196)
Number of Pixels in Processed Spectrum: 2048
>>>>>Begin Processed Spectral Data<<<<<
339.09	0.00
339.48	218.40
339.86	218.40
340.24	219.60
340.63	220.20
341.01	225.40
341.39	223.80
341.78	225.90
342.16	226.20
342.54	226.60
342.93	215.25
343.31	226.10
343.69	226.60
344.07	227.06
344.46	227.46
344.84	227.84
345.22	227.90
345.60	228.20
345.99	228.25
346.37	228.40
346.75	228.34
347.13	228.35
347.52	228.48
347.90	228.51
348.28	228.49
348.66	228.45
349.05	228.47
349.43	228.49
349.81	228.50
350.19	228.60
350.57	228.58
350.96	228.61
351.34	228.70
351.72	228.66
352.10	228.67
352.48	228.67
352.87	228.72
353.25	228.86
353.63	228.81
354.01	228.97
354.39	228.97
354.77	229.12
355.15	229.21
355.54	229.11
355.92	229.11
356.30	229.23
356.68	229.57
357.06	229.58
357.44	229.61
357.82	229.66
358.20	229.69
358.58	229.75
358.97	229.89
359.35	230.00
359.73	230.07
360.11	230.11
360.49	230.13
360.87	230.16
361.25	230.13
361.63	230.27
362.01	230.33
362.39	230.33
362.77	230.49
363.15	230.55
363.53	230.59
363.91	230.66
364.29	230.70
364.67	230.49
365.05	230.57
365.43	230.66
365.81	230.70
366.19	230.78
366.57	230.88
366.95	230.77
367.33	230.65
367.71	230.66
368.09	230.72
368.47	230.76
368.85	230.66
369.23	230.77
369.61	230.68
369.99	230.66
370.37	230.68
370.75	230.60
371.13	230.49
371.51	230.42
371.89	230.32
372.27	230.20
372.65	230.20
373.03	230.05
373.41	229.91
373.78	229.78
374.16	229.61
374.54	229.47
374.92	229.39
375.30	229.37
375.68	229.26
376.06	229.19
376.44	229.09
376.82	229.05
377.19	228.90
377.57	228.80
377.95	228.61
378.33	228.49
378.71	228.32
379.09	228.23
379.47	228.22
379.84	228.14
380.22	227.98
380.60	227.73
380.98	227.72
381.36	227.67
381.73	227.56
382.11	227.46
382.49	227.41
382.87	227.38
383.25	227.35
383.62	227.46
384.00	227.33
384.38	227.28
384.76	227.28
385.13	227.41
385.51	227.29
385.89	227.28
386.27	227.22
386.64	227.24
387.02	227.21
387.40	227.07
387.78	227.05
388.15	227.07
388.53	227.12
388.91	227.07
389.29	226.99
389.66	227.02
390.04	227.05
390.42	227.04
390.79	227.00
391.17	226.96
391.55	226.81
391.92	226.86
392.30	227.03
392.68	227.01
393.05	226.99
393.43	227.12
393.81	227.07
394.18	227.10
394.56	227.08
394.94	227.22
395.31	227.38
395.69	227.46
396.06	227.61
396.44	227.64
396.82	227.67
397.19	227.85
397.57	227.93
397.95	228.02
398.32	228.03
398.70	228.20
399.07	228.30
399.45	228.46
399.82	228.63
400.20	228.66
400.58	228.86
400.95	228.84
401.33	228.94
401.70	229.27
402.08	229.43
402.45	229.65
402.83	229.77
403.20	229.90
403.58	230.04
403.95	230.29
404.33	230.63
404.71	230.82
405.08	231.29
405.46	231.51
405.83	231.88
406.21	232.17
406.58	232.50
406.96	232.89
407.33	233.24
407.70	233.62
408.08	234.27
408.45	234.72
408.83	235.29
409.20	235.82
409.58	236.30
409.95	237.01
410.33	237.65
410.70	238.40
411.08	239.12
411.45	239.89
411.82	240.56
412.20	241.49
412.57	242.62
412.95	243.48
413.32	244.55
413.69	245.52
414.07	246.75
414.44	248.03
414.82	249.26
415.19	250.74
415.56	252.19
415.94	253.59
416.31	255.35
416.68	257.06
417.06	259.02
417.43	260.85
417.81	262.92
418.18	265.22
418.55	267.46
418.93	269.85
419.30	272.48
419.67	275.15
420.04	277.74
420.42	280.61
420.79	283.73
421.16	287.01
421.54	290.47
421.91	293.91
422.28	297.42
422.66	301.30
423.03	305.03
423.40	309.09
423.77	313.20
424.15	317.24
424.52	321.65
424.89	326.33
425.26	330.99
425.64	335.31
426.01	340.06
426.38	345.10
426.75	350.37
427.13	355.53
427.50	361.19
427.87	367.05
428.24	372.76
428.61	378.20
428.99	384.23
429.36	390.90
429.73	397.53
430.10	404.00
430.47	410.37
430.85	417.08
431.22	424.02
431.59	431.72
431.96	439.04
432.33	447.17
432.70	454.93
433.08	463.94
433.45	472.51
433.82	481.17
434.19	490.49
434.56	499.53
434.93	508.30
435.30	516.99
435.68	526.70
436.05	536.19
436.42	545.88
436.79	554.48
437.16	563.53
437.53	573.13
437.90	582.88
438.27	592.57
438.64	602.73
439.01	612.03
439.38	620.21
439.75	628.28
440.13	637.13
440.50	645.70
440.87	653.04
441.24	660.60
441.61	668.86
441.98	675.18
442.35	682.29
442.72	689.86
443.09	697.19
443.46	701.64
443.83	705.15
444.20	707.99
444.57	712.18
444.94	714.73
445.31	717.31
445.68	719.94
446.05	721.63
446.42	721.77
446.79	721.89
447.16	721.73
447.53	721.87
447.90	719.64
448.27	717.29
448.64	713.29
449.01	710.79
449.37	705.07
449.74	699.88
450.11	693.60
450.48	686.28
450.85	678.68
451.22	672.74
451.59	666.91
451.96	661.60
452.33	653.79
452.70	646.61
453.07	637.97
453.43	628.95
453.80	620.53
454.17	612.28
454.54	604.43
454.91	595.67
455.28	587.42
455.65	579.71
456.02	571.61
456.38	564.91
456.75	556.25
457.12	549.32
457.49	542.23
457.86	535.44
458.23	529.53
458.59	523.02
458.96	516.16
459.33	510.12
459.70	503.93
460.07	499.17
460.43	493.76
460.80	488.36
461.17	483.62
461.54	478.61
461.91	473.74
462.27	468.80
462.64	465.03
463.01	460.55
463.38	456.01
463.74	451.85
464.11	447.99
464.48	444.57
464.85	440.83
465.21	437.86
465.58	434.73
465.95	431.21
466.32	428.22
466.68	425.34
467.05	422.26
467.42	419.25
467.78	416.06
468.15	412.96
468.52	410.73
468.88	407.93
469.25	405.30
469.62	403.17
469.98	400.86
470.35	398.61
470.72	396.50
471.08	394.26
471.45	392.32
471.82	390.29
472.18	388.27
472.55	386.74
472.92	384.88
473.28	383.37
473.65	381.67
474.02	380.12
474.38	378.63
474.75	377.51
475.11	376.27
475.48	375.30
475.85	374.45
476.21	373.66
476.58	372.81
476.94	372.15
477.31	371.39
477.67	370.73
478.04	370.08
478.41	369.59
478.77	369.31
479.14	368.91
479.50	368.60
479.87	368.35
480.23	368.12
480.60	368.09
480.96	367.92
481.33	368.21
481.69	368.38
482.06	368.43
482.42	368.39
482.79	368.49
483.15	368.79
483.52	369.26
483.88	369.52
484.25	369.95
484.61	370.50
484.98	371.00
485.34	371.87
485.71	372.70
486.07	373.64
486.44	374.31
486.80	375.25
487.17	376.23
487.53	377.53
487.90	378.71
488.26	380.00
488.62	381.15
488.99	382.30
489.35	383.58
489.72	385.04
490.08	386.64
490.44	388.21
490.81	389.97
491.17	391.66
491.54	393.77
491.90	395.73
492.26	397.55
492.63	399.73
492.99	401.64
493.36	403.87
493.72	406.16
494.08	408.61
494.45	411.05
494.81	413.79
495.17	416.28
495.54	419.17
495.90	421.94
496.26	424.77
496.63	427.80
496.99	430.77
497.35	433.79
497.72	436.80
498.08	440.00
498.44	442.94
498.80	446.33
499.17	449.21
499.53	452.29
499.89	455.66
500.26	458.68
500.62	461.80
500.98	465.13
501.34	468.35
501.71	471.61
502.07	474.82
502.43	477.74
502.79	480.92
503.16	484.00
503.52	487.08
503.88	490.05
504.24	492.97
504.60	496.08
504.97	499.13
505.33	502.46
505.69	505.72
506.05	508.94
506.41	511.58
506.78	514.69
507.14	517.76
507.50	520.79
507.86	523.98
508.22	527.00
508.59	529.67
508.95	532.51
509.31	535.41
509.67	538.16
510.03	540.86
510.39	543.41
510.75	546.07
511.12	548.74
511.48	551.52
511.84	553.80
512.20	556.00
512.56	558.59
512.92	560.81
513.28	562.85
513.64	564.76
514.00	566.77
514.37	568.79
514.73	570.77
515.09	572.55
515.45	574.15
515.81	575.80
516.17	577.74
516.53	579.32
516.89	580.81
517.25	582.31
517.61	584.00
517.97	585.51
518.33	586.68
518.69	587.76
519.05	589.08
519.41	590.62
519.77	592.21
520.13	593.19
520.49	594.30
520.85	595.40
521.21	596.69
521.57	598.17
521.93	599.18
522.29	600.32
522.65	601.38
523.01	602.44
523.37	603.54
523.73	604.52
524.09	605.44
524.45	606.55
524.81	607.82
525.17	609.22
525.53	610.61
525.89	611.80
526.25	613.19
526.61	614.35
526.97	615.75
527.33	617.01
527.68	618.67
528.04	619.93
528.40	621.33
528.76	623.08
529.12	624.59
529.48	626.05
529.84	627.39
530.20	629.14
530.56	631.04
530.91	632.99
531.27	634.74
531.63	636.52
531.99	638.25
532.35	639.91
532.71	641.41
533.07	643.26
533.42	645.41
533.78	647.47
534.14	649.46
534.50	651.09
534.86	653.38
535.21	655.06
535.57	657.41
535.93	659.60
536.29	661.54
536.65	663.83
537.00	666.22
537.36	668.62
537.72	670.83
538.08	673.32
538.44	675.64
538.79	677.90
539.15	680.28
539.51	683.09
539.87	685.83
540.22	688.44
540.58	691.27
540.94	693.97
541.29	696.60
541.65	699.40
542.01	702.66
542.37	705.34
542.72	708.29
543.08	711.10
543.44	714.28
543.79	717.19
544.15	720.24
544.51	723.47
544.87	726.77
545.22	729.93
545.58	732.65
545.94	735.48
546.29	738.64
546.65	741.95
547.01	744.79
547.36	747.82
547.72	750.91
548.07	753.74
548.43	756.65
548.79	759.67
549.14	762.57
549.50	765.51
549.86	768.40
550.21	771.56
550.57	774.75
550.92	777.52
551.28	780.58
551.64	783.54
551.99	786.41
552.35	789.20
552.70	792.26
553.06	795.60
553.41	799.00
553.77	802.13
554.13	805.17
554.48	808.42
554.84	811.78
555.19	814.96
555.55	818.38
555.90	821.32
556.26	824.40
556.61	827.61
556.97	830.61
557.32	833.81
557.68	836.80
558.03	839.88
558.39	842.90
558.74	846.31
559.10	849.19
559.45	852.41
559.81	855.86
560.16	859.12
560.52	862.07
560.87	865.13
561.23	868.09
561.58	871.34
561.94	874.00
562.29	876.59
562.64	879.41
563.00	881.96
563.35	885.53
563.71	888.74
564.06	891.60
564.42	894.59
564.77	897.41
565.12	900.31
565.48	902.78
565.83	905.48
566.19	907.86
566.54	910.44
566.89	912.65
567.25	915.03
567.60	917.46
567.96	919.88
568.31	922.19
568.66	924.34
569.02	926.09
569.37	928.35
569.72	930.46
570.08	932.42
570.43	934.30
570.78	935.52
571.14	936.68
571.49	938.50
571.84	940.38
572.20	941.85
572.55	943.30
572.90	944.75
573.26	946.53
573.61	947.99
573.96	949.23
574.31	950.27
574.67	951.04
575.02	951.43
575.37	952.17
575.72	952.57
576.08	953.70
576.43	954.52
576.78	955.08
577.13	955.80
577.49	956.20
577.84	956.67
578.19	957.20
578.54	957.93
578.90	958.08
579.25	957.80
579.60	957.66
579.95	957.47
580.30	957.35
580.66	956.93
581.01	956.35
581.36	956.42
581.71	956.33
582.06	956.13
582.42	956.11
582.77	955.63
583.12	955.44
583.47	954.76
583.82	954.37
584.17	953.89
584.53	952.95
584.88	952.68
585.23	952.15
585.58	951.37
585.93	950.32
586.28	949.77
586.63	949.34
586.98	948.90
587.34	948.56
587.69	947.71
588.04	946.91
588.39	946.40
588.74	944.70
589.09	943.70
589.44	942.36
589.79	941.44
590.14	940.67
590.49	939.39
590.84	938.00
591.19	936.94
591.54	935.34
591.89	933.86
592.25	932.40
592.60	930.78
592.95	929.13
593.30	927.59
593.65	925.50
594.00	923.23
594.35	921.87
594.70	919.54
595.05	918.08
595.40	916.16
595.75	913.99
596.10	912.68
596.45	911.00
596.80	909.31
597.15	907.57
597.50	905.46
597.85	904.07
598.19	902.43
598.54	900.72
598.89	899.23
599.24	898.09
599.59	896.03
599.94	894.30
600.29	892.47
600.64	890.51
600.99	888.36
601.34	886.56
601.69	883.96
602.04	882.18
602.39	879.88
602.74	877.86
603.08	876.13
603.43	874.31
603.78	872.11
604.13	870.06
604.48	867.60
604.83	865.46
605.18	862.99
605.53	860.39
605.87	857.55
606.22	855.11
606.57	852.23
606.92	849.98
607.27	847.61
607.62	845.80
607.96	843.54
608.31	841.63
608.66	839.23
609.01	836.63
609.36	833.93
609.70	831.03
610.05	828.22
610.40	825.41
610.75	822.28
611.10	819.25
611.44	816.01
611.79	813.25
612.14	810.19
612.49	807.03
612.83	804.28
613.18	801.54
613.53	798.40
613.88	795.29
614.22	792.13
614.57	788.75
614.92	785.33
615.27	782.47
615.61	779.28
615.96	776.26
616.31	773.50
616.65	771.05
617.00	768.42
617.35	765.54
617.70	762.60
618.04	759.40
618.39	756.47
618.74	753.90
619.08	750.96
619.43	748.32
619.78	745.44
620.12	742.43
620.47	739.51
620.82	736.64
621.16	733.79
621.51	730.94
621.85	728.12
622.20	724.83
622.55	721.84
622.89	719.13
623.24	716.38
623.59	713.50
623.93	710.38
624.28	707.65
624.62	704.88
624.97	702.22
625.32	699.79
625.66	697.31
626.01	694.62
626.35	691.67
626.70	688.74
627.04	686.15
627.39	683.44
627.73	680.59
628.08	677.94
628.43	675.27
628.77	672.57
629.12	669.81
629.46	667.31
629.81	664.36
630.15	661.41
630.50	658.49
630.84	655.46
631.19	652.35
631.53	649.29
631.88	646.32
632.22	642.99
632.57	640.16
632.91	637.22
633.26	634.29
633.60	631.75
633.95	628.98
634.29	626.19
634.64	623.52
634.98	620.70
635.32	618.23
635.67	615.77
636.01	613.18
636.36	610.67
636.70	608.11
637.05	605.80
637.39	603.39
637.73	601.03
638.08	598.95
638.42	596.98
638.77	594.83
639.11	592.47
639.45	590.29
639.80	587.60
640.14	585.20
640.49	582.87
640.83	580.17
641.17	577.78
641.52	575.16
641.86	572.68
642.20	570.42
642.55	567.77
642.89	565.33
643.23	562.89
643.58	560.62
643.92	558.07
644.26	555.50
644.61	553.22
644.95	550.68
645.29	547.84
645.64	544.93
645.98	542.22
646.32	539.96
646.66	537.39
647.01	535.18
647.35	532.83
647.69	530.46
648.04	528.39
648.38	526.09
648.72	523.63
649.06	521.25
649.41	518.80
649.75	516.11
650.09	513.38
650.43	510.98
650.78	508.32
651.12	505.95
651.46	503.59
651.80	501.25
652.14	498.99
652.49	496.80
652.83	494.84
653.17	492.60
653.51	490.10
653.85	487.90
654.20	485.48
654.54	482.91
654.88	480.57
655.22	477.91
655.56	475.37
655.90	473.30
656.25	470.96
656.59	468.79
656.93	466.86
657.27	464.85
657.61	462.40
657.95	460.40
658.29	458.37
658.64	456.18
658.98	453.93
659.32	451.75
659.66	449.75
660.00	447.55
660.34	445.44
660.68	443.40
661.02	441.23
661.36	439.44
661.70	437.63
662.05	435.64
662.39	433.96
662.73	432.18
663.07	430.38
663.41	428.63
663.75	426.64
664.09	424.78
664.43	422.96
664.77	421.43
665.11	419.73
665.45	418.02
665.79	416.25
666.13	414.32
666.47	412.56
666.81	410.66
667.15	408.87
667.49	407.20
667.83	405.66
668.17	403.93
668.51	402.18
668.85	400.72
669.19	399.21
669.53	397.54
669.87	395.81
670.21	394.14
670.55	392.57
670.89	391.22
671.23	389.73
671.57	388.29
671.91	386.71
672.25	385.18
672.58	383.82
672.92	382.50
673.26	381.21
673.60	380.00
673.94	378.76
674.28	377.58
674.62	376.27
674.96	374.92
675.30	373.95
675.64	372.59
675.97	371.16
676.31	369.82
676.65	368.56
676.99	367.49
677.33	366.27
677.67	365.06
678.01	363.69
678.34	362.50
678.68	361.29
679.02	360.15
679.36	358.90
679.70	357.64
680.04	356.45
680.37	355.27
680.71	354.02
681.05	352.86
681.39	351.66
681.73	350.50
682.06	349.43
682.40	348.20
682.74	347.20
683.08	346.13
683.42	345.05
683.75	344.00
684.09	343.01
684.43	342.02
684.77	340.85
685.10	339.92
685.44	338.89
685.78	337.88
686.12	336.72
686.45	335.66
686.79	334.54
687.13	333.51
687.46	332.40
687.80	331.44
688.14	330.51
688.48	329.43
688.81	328.52
689.15	327.48
689.49	326.47
689.82	325.49
690.16	324.41
690.50	323.51
690.83	322.55
691.17	321.40
691.51	320.41
691.84	319.65
692.18	318.56
692.52	317.56
692.85	316.68
693.19	315.93
693.52	315.08
693.86	314.19
694.20	313.30
694.53	312.41
694.87	311.33
695.21	310.28
695.54	309.39
695.88	308.36
696.21	307.32
696.55	306.52
696.88	305.72
697.22	304.91
697.56	304.08
697.89	303.15
698.23	302.44
698.56	301.59
698.90	300.76
699.23	299.90
699.57	299.12
699.90	298.22
700.24	297.33
700.58	296.50
700.91	295.66
701.25	295.01
701.58	294.43
701.92	293.83
702.25	293.16
702.59	292.47
702.92	291.85
703.26	291.38
703.59	290.56
703.93	289.97
704.26	289.35
704.60	288.60
704.93	288.00
705.26	287.34
705.60	286.77
705.93	286.05
706.27	285.55
706.60	284.94
706.94	284.35
707.27	283.82
707.61	283.23
707.94	282.80
708.27	282.20
708.61	281.54
708.94	280.82
709.28	280.23
709.61	279.70
709.94	279.21
710.28	278.58
710.61	278.14
710.95	277.37
711.28	276.87
711.61	276.35
711.95	275.88
712.28	275.31
712.61	274.68
712.95	274.29
713.28	273.73
713.61	273.20
713.95	272.76
714.28	272.17
714.61	271.67
714.95	271.30
715.28	270.74
715.61	270.28
715.95	269.97
716.28	269.59
716.61	269.11
716.95	268.67
717.28	268.31
717.61	267.86
717.94	267.44
718.28	266.90
718.61	266.55
718.94	266.16
719.27	265.77
719.61	265.49
719.94	264.95
720.27	264.64
720.60	264.20
720.94	263.82
721.27	263.55
721.60	263.29
721.93	262.84
722.27	262.55
722.60	262.33
722.93	261.93
723.26	261.55
723.59	261.20
723.93	260.85
724.26	260.49
724.59	260.23
724.92	260.04
725.25	259.90
725.59	259.54
725.92	259.08
726.25	258.85
726.58	258.46
726.91	258.29
727.24	258.11
727.57	257.93
727.91	257.65
728.24	257.41
728.57	257.10
728.90	256.77
729.23	256.41
729.56	256.17
729.89	255.91
730.22	255.64
730.55	255.49
730.89	255.10
731.22	254.81
731.55	254.46
731.88	254.10
732.21	253.76
732.54	253.48
732.87	253.29
733.20	253.02
733.53	252.84
733.86	252.51
734.19	252.19
734.52	251.97
734.85	251.73
735.18	251.40
735.51	251.17
735.84	250.89
736.17	250.70
736.50	250.25
736.83	250.22
737.16	250.02
737.49	249.67
737.82	249.54
738.15	249.27
738.48	249.17
738.81	248.90
739.14	248.64
739.47	248.38
739.80	248.20
740.13	247.94
740.46	247.65
740.79	247.42
741.12	247.14
741.45	246.87
741.78	246.62
742.11	246.49
742.44	246.23
742.77	246.03
743.10	245.74
743.43	245.61
743.75	245.16
744.08	245.26
744.41	245.05
744.74	244.81
745.07	244.58
745.40	244.26
745.73	244.20
746.06	244.00
746.39	243.88
746.71	243.65
747.04	243.47
747.37	243.30
747.70	243.24
748.03	243.18
748.36	243.10
748.68	242.94
749.01	242.72
749.34	242.58
749.67	242.52
750.00	242.41
750.33	242.39
750.65	242.38
750.98	241.93
751.31	241.84
751.64	241.73
751.97	241.71
752.29	241.70
752.62	241.44
752.95	241.33
753.28	241.20
753.60	241.11
753.93	240.87
754.26	240.75
754.59	240.65
754.91	240.44
755.24	240.30
755.57	240.15
755.90	240.08
756.22	239.97
756.55	239.71
756.88	239.62
757.20	239.40
757.53	239.15
757.86	239.08
758.19	239.05
758.51	239.09
758.84	238.91
759.17	238.76
759.49	238.80
759.82	238.78
760.15	238.67
760.47	238.55
760.80	238.55
761.13	238.61
761.45	238.39
761.78	238.47
762.11	238.46
762.43	238.38
762.76	238.29
763.08	238.31
763.41	238.28
763.74	238.19
764.06	238.08
764.39	238.11
764.71	238.02
765.04	237.82
765.37	237.60
765.69	237.58
766.02	237.47
766.34	237.33
766.67	237.20
767.00	237.19
767.32	237.15
767.65	237.28
767.97	237.08
768.30	237.10
768.62	236.92
768.95	236.70
769.27	236.60
769.60	236.59
769.92	236.44
770.25	236.43
770.57	236.37
770.90	236.42
771.22	236.32
771.55	236.28
771.87	236.20
772.20	236.18
772.52	236.18
772.85	236.25
773.17	236.10
773.50	235.99
773.82	235.86
774.15	235.73
774.47	235.47
774.80	235.41
775.12	235.30
775.45	235.11
775.77	235.03
776.09	235.07
776.42	234.73
776.74	234.71
777.07	234.51
777.39	234.36
777.72	234.14
778.04	233.97
778.36	233.83
778.69	233.79
779.01	233.71
779.33	233.56
779.66	233.32
779.98	233.24
780.31	233.14
780.63	233.08
780.95	232.98
781.28	232.87
781.60	232.65
781.92	232.52
782.25	232.47
782.57	232.45
782.89	232.30
783.22	232.38
783.54	232.16
783.86	232.11
784.19	231.98
784.51	231.86
784.83	231.80
785.16	231.70
785.48	231.68
785.80	231.55
786.12	231.50
786.45	231.52
786.77	231.46
787.09	231.40
787.42	231.30
787.74	231.28
788.06	231.23
788.38	231.36
788.71	231.29
789.03	231.39
789.35	231.30
789.67	231.14
789.99	231.16
790.32	231.18
790.64	231.24
790.96	231.36
791.28	231.30
791.61	231.27
791.93	231.30
792.25	231.19
792.57	231.33
792.89	231.20
793.21	231.20
793.54	231.30
793.86	231.34
794.18	231.39
794.50	231.45
794.82	231.48
795.14	231.38
795.47	231.51
795.79	231.41
796.11	231.44
796.43	231.49
796.75	231.38
797.07	231.44
797.39	231.42
797.71	231.31
798.04	231.46
798.36	231.58
798.68	231.67
799.00	231.79
799.32	231.77
799.64	231.83
799.96	231.71
800.28	231.64
800.60	231.61
800.92	231.69
801.24	231.60
801.56	231.58
801.89	231.67
802.21	231.68
802.53	231.65
802.85	231.67
803.17	231.79
803.49	231.91
803.81	231.83
804.13	231.82
804.45	231.90
804.77	231.89
805.09	231.87
805.41	231.77
805.73	231.65
806.05	231.60
806.37	231.53
806.69	231.52
807.01	231.56
807.33	231.61
807.65	231.46
807.97	231.66
808.28	231.67
808.60	231.59
808.92	231.50
809.24	231.60
809.56	231.59
809.88	231.51
810.20	231.41
810.52	231.47
810.84	231.39
811.16	231.36
811.48	231.27
811.80	231.26
812.12	231.23
812.43	231.30
812.75	231.25
813.07	231.32
813.39	231.33
813.71	231.20
814.03	231.04
814.35	231.03
814.67	230.75
814.98	230.71
815.30	230.62
815.62	230.58
815.94	230.38
816.26	230.38
816.58	230.29
816.89	230.26
817.21	230.17
817.53	230.25
817.85	230.18
818.17	230.19
818.48	230.02
818.80	229.89
819.12	229.78
819.44	229.57
819.76	229.43
820.07	229.43
820.39	229.46
820.71	229.45
821.03	229.32
821.34	229.38
821.66	229.38
821.98	229.37
822.30	229.35
822.61	229.43
822.93	229.33
823.25	229.25
823.57	229.12
823.88	229.06
824.20	228.92
824.52	228.80
824.83	228.63
825.15	228.50
825.47	228.53
825.79	228.54
826.10	228.58
826.42	228.42
826.74	228.31
827.05	228.20
827.37	228.21
827.69	228.26
828.00	228.14
828.32	228.02
828.64	228.00
828.95	228.01
829.27	227.95
829.58	227.96
829.90	228.00
830.22	228.11
830.53	228.07
830.85	228.06
831.17	228.10
831.48	228.08
831.80	228.14
832.11	228.32
832.43	228.21
832.75	228.28
833.06	228.59
833.38	228.56
833.69	228.59
834.01	228.56
834.32	228.57
834.64	228.68
834.96	228.67
835.27	228.70
835.59	228.65
835.90	228.74
836.22	228.67
836.53	228.66
836.85	228.60
837.16	228.88
837.48	228.92
837.79	229.04
838.11	229.23
838.42	229.32
838.74	229.24
839.05	229.29
839.37	229.36
839.68	229.20
840.00	229.37
840.31	229.43
840.63	229.58
840.94	229.54
841.26	229.53
841.57	229.64
841.88	229.75
842.20	229.84
842.51	229.75
842.83	229.76
843.14	230.03
843.46	230.11
843.77	230.02
844.08	230.03
844.40	229.99
844.71	229.92
845.03	229.90
845.34	229.92
845.65	230.02
845.97	230.01
846.28	230.10
846.60	230.00
846.91	229.97
847.22	229.91
847.54	230.03
847.85	230.05
848.16	230.04
848.48	230.01
848.79	230.03
849.10	230.00
849.42	230.21
849.73	230.12
850.04	230.10
850.36	229.99
850.67	229.98
850.98	230.00
851.30	229.98
851.61	230.05
851.92	229.96
852.23	230.06
852.55	230.01
852.86	229.95
853.17	229.92
853.49	229.96
853.80	229.99
854.11	229.94
854.42	229.88
854.74	229.87
855.05	229.75
855.36	229.57
855.67	229.65
855.99	229.48
856.30	229.50
856.61	229.46
856.92	229.44
857.23	229.46
857.55	229.43
857.86	229.43
858.17	229.35
858.48	229.31
858.79	229.12
859.11	229.07
859.42	229.04
859.73	229.01
860.04	228.90
860.35	228.75
860.66	228.66
860.98	228.62
861.29	228.64
861.60	228.57
861.91	228.59
862.22	228.49
862.53	228.38
862.84	228.16
863.16	228.16
863.47	228.10
863.78	228.07
864.09	227.91
864.40	227.92
864.71	227.88
865.02	227.86
865.33	227.78
865.64	227.69
865.95	227.66
866.27	227.73
866.58	227.80
866.89	227.88
867.20	227.80
867.51	227.75
867.82	227.68
868.13	227.70
868.44	227.68
868.75	227.75
869.06	227.75
869.37	227.77
869.68	227.70
869.99	227.78
870.30	227.78
870.61	227.94
870.92	227.86
871.23	227.87
871.54	227.96
871.85	228.01
872.16	228.08
872.47	228.14
872.78	228.11
873.09	228.17
873.40	228.10
873.71	228.16
874.02	228.25
874.33	228.22
874.64	228.21
874.95	228.39
875.26	228.46
875.56	228.64
875.87	228.66
876.18	228.68
876.49	228.86
876.80	228.86
877.11	228.68
877.42	228.71
877.73	228.67
878.04	228.58
878.35	228.65
878.66	228.70
878.96	228.70
879.27	228.68
879.58	228.57
879.89	228.72
880.20	228.80
880.51	228.78
880.82	228.78
881.12	229.03
881.43	228.94
881.74	228.85
882.05	228.86
882.36	228.86
882.67	228.86
882.97	228.58
883.28	228.55
883.59	228.68
883.90	228.68
884.21	228.79
884.51	228.87
884.82	228.88
885.13	228.89
885.44	228.91
885.74	228.99
886.05	229.01
886.36	228.95
886.67	228.95
886.98	229.05
887.28	229.14
887.59	228.94
887.90	228.89
888.20	228.81
888.51	228.74
888.82	228.76
889.13	228.87
889.43	229.08
889.74	229.13
890.05	229.10
890.35	229.11
890.66	229.05
890.97	229.00
891.28	229.06
891.58	228.98
891.89	228.96
892.20	228.89
892.50	228.88
892.81	228.79
893.12	228.74
893.42	228.70
893.73	228.67
894.04	228.69
894.34	228.70
894.65	228.80
894.95	228.75
895.26	228.69
895.57	228.78
895.87	228.60
896.18	228.50
896.48	228.48
896.79	228.47
897.10	228.46
897.40	228.50
897.71	228.42
898.01	228.46
898.32	228.42
898.63	228.34
898.93	228.32
899.24	228.47
899.54	228.45
899.85	228.33
900.15	228.28
900.46	228.32
900.76	228.29
901.07	228.25
901.38	228.29
901.68	228.29
901.99	228.10
902.29	228.08
902.60	228.14
902.90	228.03
903.21	228.03
903.51	227.99
903.82	227.92
904.12	227.85
904.43	227.80
904.73	227.79
905.03	227.79
905.34	227.95
905.64	227.78
905.95	227.77
906.25	227.78
906.56	227.81
906.86	227.80
907.17	227.92
907.47	227.83
907.77	227.77
908.08	227.74
908.38	227.78
908.69	227.75
908.99	227.71
909.30	227.85
909.60	227.86
909.90	227.94
910.21	227.84
910.51	227.73
910.81	227.77
911.12	227.78
911.42	227.91
911.73	227.79
912.03	227.87
912.33	227.90
912.64	227.90
912.94	227.84
913.24	227.79
913.55	227.68
913.85	227.80
914.15	227.88
914.46	228.03
914.76	227.97
915.06	228.03
915.37	228.00
915.67	228.00
915.97	228.09
916.27	227.98
916.58	228.15
916.88	228.31
917.18	228.34
917.49	228.52
917.79	228.47
918.09	228.50
918.39	228.59
918.70	228.60
919.00	228.62
919.30	228.73
919.60	228.65
919.91	228.66
920.21	228.60
920.51	228.57
920.81	228.47
921.12	228.53
921.42	228.56
921.72	228.65
922.02	228.68
922.32	228.64
922.63	228.71
922.93	228.79
923.23	228.88
923.53	228.82
923.83	228.67
924.13	228.61
924.44	228.61
924.74	228.52
925.04	228.69
925.34	228.73
925.64	228.70
925.94	228.80
926.24	228.89
926.55	228.86
926.85	228.83
927.15	228.97
927.45	228.95
927.75	229.02
928.05	228.95
928.35	228.93
928.65	228.99
928.95	229.05
929.26	228.99
929.56	228.90
929.86	228.94
930.16	228.92
930.46	228.97
930.76	229.03
931.06	228.96
931.36	228.75
931.66	228.76
931.96	228.79
932.26	228.81
932.56	228.74
932.86	228.70
933.16	228.69
933.46	228.53
933.76	228.46
934.06	228.40
934.36	228.52
934.66	228.47
934.96	228.40
935.26	228.29
935.56	228.32
935.86	228.32
936.16	228.34
936.46	228.33
936.76	228.39
937.06	228.32
937.36	228.38
937.66	228.52
937.96	228.49
938.26	228.41
938.56	228.39
938.86	228.41
939.16	228.51
939.46	228.57
939.76	228.60
940.06	228.65
940.35	228.58
940.65	228.40
940.95	228.43
941.25	228.40
941.55	228.37
941.85	228.38
942.15	228.29
942.45	228.32
942.75	228.38
943.04	228.28
943.34	228.24
943.64	228.16
943.94	228.07
944.24	228.13
944.54	228.13
944.84	228.02
945.13	227.96
945.43	227.89
945.73	227.89
946.03	227.84
946.33	227.82
946.62	227.89
946.92	227.80
947.22	227.81
947.52	227.90
947.82	228.11
948.11	228.03
948.41	228.05
948.71	227.85
949.01	227.83
949.31	227.80
949.60	227.86
949.90	227.97
950.20	227.93
950.50	227.83
950.79	227.80
951.09	227.84
951.39	227.93
951.69	227.92
951.98	227.94
952.28	227.92
952.58	227.88
952.87	227.81
953.17	228.00
953.47	227.94
953.76	227.83
954.06	227.67
954.36	227.55
954.66	227.59
954.95	227.67
955.25	227.62
955.55	227.61
955.84	227.60
956.14	227.64
956.44	227.71
956.73	227.73
957.03	227.70
957.32	227.77
957.62	227.66
957.92	227.77
958.21	227.69
958.51	227.93
958.81	227.97
959.10	227.98
959.40	228.00
959.69	228.10
959.99	228.18
960.29	228.21
960.58	228.25
960.88	228.32
961.17	228.31
961.47	228.39
961.76	228.44
962.06	228.53
962.36	228.47
962.65	228.46
962.95	228.40
963.24	228.47
963.54	228.47
963.83	228.48
964.13	228.38
964.42	228.35
964.72	228.28
965.01	228.26
965.31	228.26
965.60	228.23
965.90	228.35
966.19	228.30
966.49	228.27
966.78	228.32
967.08	228.35
967.37	228.46
967.67	228.44
967.96	228.58
968.26	228.47
968.55	228.53
968.85	228.56
969.14	228.62
969.43	228.75
969.73	228.75
970.02	228.90
970.32	228.92
970.61	229.04
970.91	228.91
971.20	228.96
971.49	228.96
971.79	229.08
972.08	228.89
972.38	228.94
972.67	228.90
972.96	228.97
973.26	228.89
973.55	228.94
973.85	228.90
974.14	228.87
974.43	228.85
974.73	228.81
975.02	228.78
975.31	228.72
975.61	228.64
975.90	228.72
976.19	228.74
976.49	228.76
976.78	228.67
977.07	228.71
977.37	228.65
977.66	228.76
977.95	228.60
978.24	228.71
978.54	228.73
978.83	228.77
979.12	228.71
979.42	228.57
979.71	228.51
980.00	228.51
980.29	228.41
980.59	228.40
980.88	228.39
981.17	228.42
981.46	228.50
981.76	228.46
982.05	228.46
982.34	228.40
982.63	228.46
982.93	228.51
983.22	228.49
983.51	228.58
983.80	228.47
984.09	228.50
984.39	228.42
984.68	228.39
984.97	228.40
985.26	228.40
985.55	228.53
985.85	228.38
986.14	228.39
986.43	228.40
986.72	228.34
987.01	228.29
987.30	228.16
987.59	228.14
987.89	228.13
988.18	228.11
988.47	228.05
988.76	227.94
989.05	227.89
989.34	227.87
989.63	227.82
989.92	227.79
990.22	227.70
990.51	227.60
990.80	227.54
991.09	227.55
991.38	227.55
991.67	227.50
991.96	227.54
992.25	227.48
992.54	227.40
992.83	227.45
993.12	227.41
993.41	227.51
993.70	227.48
993.99	227.45
994.28	227.31
994.58	227.35
994.87	227.30
995.16	227.30
995.45	227.32
995.74	227.26
996.03	227.33
996.32	227.46
996.61	227.61
996.90	227.60
997.19	227.54
997.48	227.57
997.77	227.64
998.06	227.70
998.34	227.80
998.63	227.82
998.92	227.86
999.21	227.96
999.50	227.93
999.79	227.93
1000.08	228.00
1000.37	228.08
1000.66	228.10
1000.95	228.20
1001.24	228.24
1001.53	228.28
1001.82	228.33
1002.11	228.33
1002.40	228.28
1002.68	228.33
1002.97	228.45
1003.26	228.43
1003.55	228.31
1003.84	228.32
1004.13	228.46
1004.42	228.45
1004.71	228.60
1004.99	228.60
1005.28	228.68
1005.57	228.66
1005.86	228.59
1006.15	228.52
1006.44	228.43
1006.72	228.37
1007.01	228.42
1007.30	228.42
1007.59	228.41
1007.88	228.45
1008.17	228.59
1008.45	228.62
1008.74	228.58
1009.03	228.46
1009.32	228.50
1009.60	228.60
1009.89	228.57
1010.18	228.51
1010.47	228.57
1010.76	228.45
1011.04	228.53
1011.33	228.57
1011.62	228.63
1011.91	228.77
1012.19	228.82
1012.48	228.87
1012.77	228.85
1013.05	228.88
1013.34	228.88
1013.63	228.86
1013.92	228.82
1014.20	228.70
1014.49	228.67
1014.78	228.60
1015.06	228.63
1015.35	228.65
1015.64	228.74
1015.92	228.83
1016.21	228.79
1016.50	228.72
1016.78	228.72
1017.07	228.60
1017.36	228.43
1017.64	228.41
1017.93	228.34
1018.22	228.37
1018.50	228.41
1018.79	228.50
1019.08	228.39
1019.36	228.33
1019.65	228.37
1019.93	228.45
1020.22	228.45
1020.51	228.60
1020.79	228.57
1021.08	229.10
1021.36	228.80
1021.65	229.00
1021.94	228.10
1022.22	227.20
1022.51	229.00
1022.79	229.50
1023.08	228.70
1023.36	232.10
1023.65	226.60
>>>>>End Processed Spectral Data<<<<<
