SpectraSuite Data File
++++++++++++++++++++++++++++++++++++
Date: Fri Feb 01 14:41:33 EST 2013
User: group
Dark Spectrum Present: No
Reference Spectrum Present: No
Number of Sampled Component Spectra: 1
Spectrometers: USB2E7196
Integration Time (usec): 70000 (USB2E7196)
Spectra Averaged: 10 (USB2E7196)
Boxcar Smoothing: 10 (USB2E7196)
Correct for Electrical Dark: No (USB2E7196)
Strobe/Lamp Enabled: No (USB2E7196)
Correct for Detector Non-linearity: No (USB2E7196)
Correct for Stray Light: No (USB2E7196)
Number of Pixels in Processed Spectrum: 2048
>>>>>Begin Processed Spectral Data<<<<<
339.09	0.00
339.48	216.60
339.86	215.80
340.24	219.10
340.63	218.90
341.01	223.50
341.39	220.40
341.78	223.70
342.16	225.70
342.54	224.80
342.93	214.02
343.31	224.90
343.69	225.33
344.07	225.84
344.46	226.18
344.84	226.61
345.22	226.87
345.60	227.21
345.99	227.38
346.37	227.49
346.75	227.58
347.13	227.67
347.52	227.68
347.90	227.83
348.28	227.83
348.66	227.95
349.05	227.97
349.43	227.98
349.81	228.07
350.19	228.10
350.57	228.12
350.96	228.11
351.34	228.21
351.72	228.44
352.10	228.56
352.48	228.64
352.87	228.68
353.25	228.70
353.63	228.76
354.01	228.85
354.39	228.90
354.77	229.05
355.15	229.14
355.54	229.24
355.92	229.21
356.30	229.34
356.68	229.50
357.06	229.54
357.44	229.61
357.82	229.66
358.20	229.80
358.58	229.93
358.97	230.14
359.35	230.11
359.73	230.18
360.11	230.16
360.49	230.31
360.87	230.44
361.25	230.48
361.63	230.57
362.01	230.69
362.39	230.85
362.77	230.91
363.15	230.90
363.53	230.91
363.91	230.93
364.29	230.95
364.67	230.81
365.05	230.83
365.43	230.80
365.81	230.78
366.19	230.79
366.57	230.85
366.95	230.73
367.33	230.70
367.71	230.61
368.09	230.68
368.47	230.61
368.85	230.53
369.23	230.56
369.61	230.48
369.99	230.46
370.37	230.31
370.75	230.31
371.13	230.24
371.51	230.09
371.89	230.08
372.27	230.00
372.65	229.97
373.03	229.94
373.41	229.93
373.78	229.97
374.16	229.80
374.54	229.60
374.92	229.58
375.30	229.52
375.68	229.43
376.06	229.50
376.44	229.41
376.82	229.44
377.19	229.35
377.57	229.30
377.95	229.15
378.33	229.07
378.71	229.01
379.09	229.00
379.47	229.09
379.84	228.95
380.22	228.84
380.60	228.77
380.98	228.72
381.36	228.68
381.73	228.63
382.11	228.74
382.49	228.72
382.87	228.74
383.25	228.71
383.62	228.94
384.00	228.79
384.38	228.75
384.76	228.68
385.13	228.62
385.51	228.61
385.89	228.53
386.27	228.60
386.64	228.56
387.02	228.48
387.40	228.36
387.78	228.35
388.15	228.41
388.53	228.41
388.91	228.35
389.29	228.33
389.66	228.26
390.04	228.08
390.42	228.19
390.79	228.17
391.17	228.24
391.55	228.00
391.92	228.00
392.30	228.10
392.68	228.12
393.05	228.21
393.43	228.29
393.81	228.39
394.18	228.35
394.56	228.39
394.94	228.51
395.31	228.53
395.69	228.72
396.06	228.74
396.44	228.82
396.82	228.83
397.19	229.03
397.57	229.09
397.95	229.26
398.32	229.14
398.70	229.13
399.07	229.19
399.45	229.31
399.82	229.30
400.20	229.33
400.58	229.43
400.95	229.45
401.33	229.49
401.70	229.70
402.08	229.90
402.45	229.96
402.83	230.09
403.20	230.30
403.58	230.31
403.95	230.43
404.33	230.65
404.71	230.80
405.08	231.00
405.46	231.19
405.83	231.35
406.21	231.70
406.58	231.92
406.96	232.13
407.33	232.37
407.70	232.69
408.08	233.10
408.45	233.44
408.83	233.76
409.20	234.10
409.58	234.30
409.95	234.60
410.33	234.96
410.70	235.37
411.08	235.72
411.45	236.20
411.82	236.67
412.20	236.93
412.57	237.63
412.95	237.87
413.32	238.47
413.69	238.95
414.07	239.43
414.44	240.08
414.82	240.65
415.19	241.29
415.56	241.89
415.94	242.55
416.31	243.30
416.68	244.10
417.06	245.06
417.43	245.87
417.81	246.84
418.18	247.86
418.55	248.88
418.93	249.91
419.30	251.02
419.67	252.24
420.04	253.59
420.42	254.79
420.79	256.50
421.16	257.98
421.54	259.64
421.91	261.18
422.28	262.81
422.66	264.58
423.03	266.39
423.40	268.33
423.77	270.01
424.15	271.80
424.52	273.80
424.89	275.86
425.26	277.86
425.64	279.74
426.01	281.83
426.38	284.02
426.75	286.28
427.13	288.50
427.50	290.83
427.87	293.28
428.24	295.76
428.61	297.90
428.99	300.40
429.36	303.13
429.73	305.93
430.10	308.61
430.47	311.39
430.85	313.99
431.22	316.76
431.59	320.06
431.96	322.93
432.33	326.03
432.70	329.08
433.08	332.88
433.45	336.30
433.82	339.64
434.19	343.32
434.56	346.88
434.93	350.32
435.30	353.66
435.68	357.51
436.05	361.04
436.42	364.68
436.79	367.95
437.16	371.45
437.53	375.13
437.90	378.68
438.27	382.19
438.64	385.85
439.01	389.29
439.38	392.07
439.75	394.99
440.13	398.21
440.50	401.22
440.87	403.59
441.24	406.11
441.61	408.90
441.98	410.69
442.35	412.99
442.72	415.28
443.09	417.57
443.46	418.80
443.83	419.61
444.20	420.19
444.57	421.04
444.94	421.34
445.31	421.67
445.68	422.03
446.05	422.04
446.42	421.63
446.79	421.08
447.16	420.49
447.53	420.05
447.90	418.68
448.27	417.20
448.64	414.99
449.01	413.37
449.37	410.79
449.74	408.42
450.11	405.73
450.48	402.60
450.85	399.32
451.22	396.33
451.59	393.62
451.96	391.14
452.33	387.81
452.70	384.76
453.07	381.05
453.43	377.40
453.80	373.78
454.17	370.28
454.54	366.88
454.91	363.32
455.28	359.81
455.65	356.36
456.02	353.13
456.38	350.38
456.75	346.91
457.12	343.85
457.49	340.84
457.86	337.78
458.23	335.36
458.59	332.65
458.96	329.94
459.33	327.47
459.70	324.92
460.07	322.98
460.43	320.48
460.80	318.30
461.17	316.16
461.54	314.21
461.91	312.23
462.27	310.23
462.64	308.51
463.01	306.67
463.38	305.01
463.74	303.11
464.11	301.44
464.48	300.00
464.85	298.51
465.21	297.43
465.58	296.17
465.95	294.72
466.32	293.53
466.68	292.30
467.05	291.21
467.42	290.03
467.78	288.77
468.15	287.77
468.52	286.80
468.88	285.85
469.25	284.73
469.62	283.87
469.98	283.02
470.35	282.20
470.72	281.30
471.08	280.31
471.45	279.57
471.82	278.87
472.18	278.10
472.55	277.53
472.92	276.79
473.28	276.18
473.65	275.49
474.02	274.81
474.38	274.36
474.75	273.72
475.11	273.21
475.48	272.87
475.85	272.40
476.21	272.07
476.58	271.69
476.94	271.47
477.31	271.18
477.67	270.90
478.04	270.65
478.41	270.48
478.77	270.46
479.14	270.27
479.50	270.20
479.87	270.21
480.23	270.20
480.60	270.13
480.96	270.13
481.33	270.24
481.69	270.38
482.06	270.45
482.42	270.64
482.79	270.72
483.15	270.95
483.52	271.22
483.88	271.42
484.25	271.60
484.61	271.98
484.98	272.19
485.34	272.65
485.71	273.08
486.07	273.54
486.44	273.99
486.80	274.63
487.17	275.20
487.53	275.85
487.90	276.51
488.26	277.34
488.62	278.15
488.99	278.91
489.35	279.67
489.72	280.71
490.08	281.76
490.44	283.00
490.81	284.21
491.17	285.52
491.54	287.07
491.90	288.54
492.26	290.05
492.63	291.75
492.99	293.41
493.36	295.32
493.72	297.32
494.08	299.38
494.45	301.47
494.81	303.81
495.17	306.22
495.54	308.82
495.90	311.50
496.26	314.40
496.63	317.35
496.99	320.74
497.35	323.98
497.72	327.32
498.08	330.82
498.44	334.54
498.80	338.56
499.17	342.56
499.53	346.88
499.89	351.48
500.26	356.22
500.62	361.09
500.98	366.18
501.34	371.53
501.71	377.17
502.07	383.03
502.43	388.90
502.79	394.92
503.16	401.45
503.52	407.97
503.88	414.77
504.24	422.02
504.60	429.20
504.97	437.00
505.33	444.94
505.69	453.30
506.05	461.87
506.41	470.49
506.78	479.50
507.14	488.84
507.50	498.46
507.86	508.45
508.22	518.68
508.59	529.00
508.95	539.72
509.31	550.82
509.67	562.06
510.03	573.70
510.39	585.84
510.75	597.95
511.12	610.47
511.48	623.16
511.84	636.04
512.20	649.41
512.56	662.89
512.92	676.79
513.28	691.07
513.64	705.66
514.00	720.44
514.37	735.52
514.73	750.72
515.09	766.00
515.45	781.59
515.81	797.31
516.17	813.77
516.53	830.42
516.89	847.22
517.25	864.24
517.61	881.22
517.97	898.30
518.33	915.86
518.69	933.66
519.05	952.00
519.41	970.75
519.77	989.56
520.13	1008.58
520.49	1027.33
520.85	1046.26
521.21	1065.09
521.57	1084.92
521.93	1104.07
522.29	1124.06
522.65	1143.67
523.01	1163.30
523.37	1182.98
523.73	1202.85
524.09	1222.93
524.45	1243.00
524.81	1263.66
525.17	1284.67
525.53	1305.99
525.89	1326.58
526.25	1347.95
526.61	1368.38
526.97	1389.26
527.33	1410.21
527.68	1430.99
528.04	1452.44
528.40	1473.45
528.76	1494.84
529.12	1515.82
529.48	1537.53
529.84	1558.16
530.20	1579.70
530.56	1601.81
530.91	1624.47
531.27	1646.37
531.63	1667.40
531.99	1688.65
532.35	1709.40
532.71	1729.89
533.07	1750.85
533.42	1771.73
533.78	1791.73
534.14	1812.81
534.50	1832.74
534.86	1853.34
535.21	1873.01
535.57	1893.00
535.93	1913.19
536.29	1933.09
536.65	1952.89
537.00	1972.55
537.36	1992.47
537.72	2011.50
538.08	2030.17
538.44	2048.13
538.79	2066.71
539.15	2084.96
539.51	2103.47
539.87	2122.26
540.22	2140.91
540.58	2158.77
540.94	2176.60
541.29	2194.34
541.65	2211.33
542.01	2228.99
542.37	2245.84
542.72	2262.82
543.08	2279.25
543.44	2295.67
543.79	2311.07
544.15	2326.69
544.51	2342.53
544.87	2358.55
545.22	2373.64
545.58	2388.16
545.94	2402.37
546.29	2416.15
546.65	2430.32
547.01	2443.97
547.36	2456.94
547.72	2469.74
548.07	2482.48
548.43	2495.00
548.79	2507.52
549.14	2519.12
549.50	2530.06
549.86	2541.00
550.21	2552.44
550.57	2563.79
550.92	2574.49
551.28	2585.29
551.64	2595.38
551.99	2605.32
552.35	2614.41
552.70	2624.79
553.06	2635.39
553.41	2645.67
553.77	2654.95
554.13	2664.40
554.48	2673.21
554.84	2681.94
555.19	2690.48
555.55	2698.51
555.90	2705.51
556.26	2713.24
556.61	2721.17
556.97	2728.67
557.32	2735.72
557.68	2742.57
558.03	2749.50
558.39	2756.19
558.74	2763.61
559.10	2770.82
559.45	2777.38
559.81	2784.70
560.16	2789.98
560.52	2795.04
560.87	2800.34
561.23	2805.39
561.58	2810.58
561.94	2815.62
562.29	2819.83
562.64	2823.44
563.00	2827.86
563.35	2833.72
563.71	2838.78
564.06	2843.68
564.42	2848.36
564.77	2853.43
565.12	2857.82
565.48	2861.44
565.83	2864.42
566.19	2867.44
566.54	2869.19
566.89	2871.45
567.25	2872.86
567.60	2876.32
567.96	2877.92
568.31	2879.02
568.66	2880.80
569.02	2882.33
569.37	2883.23
569.72	2884.47
570.08	2886.07
570.43	2886.60
570.78	2886.66
571.14	2885.72
571.49	2884.43
571.84	2884.76
572.20	2883.27
572.55	2881.46
572.90	2879.55
573.26	2878.84
573.61	2877.11
573.96	2875.78
574.31	2872.34
574.67	2868.99
575.02	2864.89
575.37	2861.88
575.72	2858.37
576.08	2855.20
576.43	2851.11
576.78	2847.70
577.13	2844.77
577.49	2841.09
577.84	2837.26
578.19	2832.70
578.54	2828.19
578.90	2823.29
579.25	2817.09
579.60	2812.14
579.95	2806.68
580.30	2800.73
580.66	2793.91
581.01	2787.43
581.36	2781.20
581.71	2776.60
582.06	2771.10
582.42	2764.11
582.77	2757.96
583.12	2752.15
583.47	2745.72
583.82	2740.41
584.17	2733.80
584.53	2726.72
584.88	2719.97
585.23	2712.86
585.58	2706.78
585.93	2700.60
586.28	2694.96
586.63	2688.91
586.98	2682.16
587.34	2676.30
587.69	2670.15
588.04	2664.06
588.39	2657.90
588.74	2650.23
589.09	2642.57
589.44	2634.46
589.79	2628.40
590.14	2621.89
590.49	2614.49
590.84	2606.24
591.19	2598.23
591.54	2589.11
591.89	2579.46
592.25	2570.97
592.60	2561.93
592.95	2552.58
593.30	2543.02
593.65	2533.40
594.00	2524.13
594.35	2515.56
594.70	2505.68
595.05	2497.27
595.40	2487.89
595.75	2478.26
596.10	2470.28
596.45	2461.88
596.80	2454.74
597.15	2446.53
597.50	2437.07
597.85	2428.61
598.19	2421.03
598.54	2412.17
598.89	2404.57
599.24	2398.04
599.59	2390.09
599.94	2383.04
600.29	2374.89
600.64	2366.71
600.99	2357.69
601.34	2349.40
601.69	2340.46
602.04	2332.35
602.39	2323.45
602.74	2316.20
603.08	2308.18
603.43	2299.69
603.78	2290.64
604.13	2281.10
604.48	2272.04
604.83	2263.51
605.18	2254.89
605.53	2245.01
605.87	2235.10
606.22	2226.41
606.57	2216.29
606.92	2206.73
607.27	2197.44
607.62	2188.77
607.96	2179.76
608.31	2172.00
608.66	2162.27
609.01	2152.02
609.36	2141.64
609.70	2130.95
610.05	2119.68
610.40	2109.50
610.75	2098.96
611.10	2088.57
611.44	2077.95
611.79	2067.40
612.14	2057.19
612.49	2045.68
612.83	2035.67
613.18	2025.48
613.53	2014.42
613.88	2003.58
614.22	1992.78
614.57	1981.25
614.92	1969.86
615.27	1959.73
615.61	1948.50
615.96	1938.00
616.31	1928.33
616.65	1919.50
617.00	1910.18
617.35	1900.49
617.70	1889.90
618.04	1879.60
618.39	1869.45
618.74	1859.92
619.08	1849.93
619.43	1840.08
619.78	1831.11
620.12	1821.10
620.47	1811.32
620.82	1801.74
621.16	1792.59
621.51	1783.20
621.85	1773.64
622.20	1763.44
622.55	1753.30
622.89	1743.81
623.24	1734.59
623.59	1725.09
623.93	1715.29
624.28	1705.75
624.62	1695.80
624.97	1686.42
625.32	1677.39
625.66	1668.70
626.01	1659.02
626.35	1649.00
626.70	1639.21
627.04	1629.79
627.39	1620.23
627.73	1610.63
628.08	1601.30
628.43	1591.30
628.77	1581.91
629.12	1572.51
629.46	1563.04
629.81	1553.10
630.15	1543.18
630.50	1533.42
630.84	1523.22
631.19	1513.00
631.53	1503.23
631.88	1493.28
632.22	1482.90
632.57	1473.17
632.91	1462.77
633.26	1453.09
633.60	1443.10
633.95	1433.65
634.29	1424.48
634.64	1415.64
634.98	1406.58
635.32	1397.62
635.67	1389.45
636.01	1380.27
636.36	1371.27
636.70	1363.17
637.05	1354.91
637.39	1346.60
637.73	1337.86
638.08	1330.06
638.42	1321.84
638.77	1313.54
639.11	1305.69
639.45	1297.90
639.80	1289.55
640.14	1281.41
640.49	1273.27
640.83	1265.46
641.17	1257.24
641.52	1248.86
641.86	1240.11
642.20	1231.94
642.55	1223.70
642.89	1215.09
643.23	1207.08
643.58	1199.23
643.92	1190.57
644.26	1182.13
644.61	1174.05
644.95	1166.22
645.29	1157.31
645.64	1148.71
645.98	1140.50
646.32	1132.56
646.66	1124.43
647.01	1116.47
647.35	1108.73
647.69	1100.84
648.04	1093.45
648.38	1085.32
648.72	1076.81
649.06	1069.02
649.41	1061.21
649.75	1052.96
650.09	1044.98
650.43	1036.88
650.78	1028.64
651.12	1021.13
651.46	1013.54
651.80	1005.98
652.14	998.58
652.49	991.39
652.83	984.44
653.17	976.64
653.51	968.87
653.85	961.87
654.20	954.20
654.54	946.57
654.88	938.95
655.22	931.15
655.56	923.76
655.90	917.01
656.25	909.91
656.59	902.89
656.93	896.02
657.27	889.49
657.61	882.47
657.95	876.07
658.29	869.38
658.64	862.59
658.98	855.74
659.32	848.54
659.66	842.08
660.00	835.43
660.34	828.73
660.68	822.14
661.02	815.43
661.36	809.26
661.70	803.24
662.05	797.55
662.39	792.05
662.73	786.27
663.07	780.37
663.41	774.62
663.75	768.73
664.09	762.90
664.43	756.85
664.77	751.58
665.11	745.81
665.45	740.47
665.79	735.06
666.13	729.56
666.47	724.24
666.81	718.60
667.15	712.95
667.49	708.04
667.83	703.22
668.17	697.95
668.51	692.94
668.85	687.70
669.19	682.69
669.53	677.47
669.87	672.37
670.21	667.57
670.55	662.68
670.89	658.25
671.23	653.86
671.57	649.39
671.91	644.79
672.25	640.30
672.58	635.71
672.92	631.38
673.26	627.33
673.60	623.10
673.94	619.01
674.28	615.19
674.62	611.63
674.96	607.46
675.30	603.72
675.64	599.81
675.97	596.20
676.31	592.35
676.65	588.38
676.99	584.89
677.33	580.98
677.67	577.47
678.01	573.32
678.34	569.41
678.68	565.89
679.02	562.15
679.36	558.68
679.70	555.21
680.04	551.59
680.37	547.99
680.71	544.57
681.05	541.25
681.39	537.79
681.73	534.13
682.06	531.04
682.40	527.83
682.74	524.68
683.08	521.50
683.42	518.21
683.75	515.14
684.09	511.84
684.43	508.75
684.77	505.47
685.10	502.54
685.44	499.55
685.78	496.45
686.12	493.41
686.45	490.32
686.79	487.24
687.13	484.30
687.46	481.14
687.80	478.25
688.14	475.28
688.48	472.59
688.81	469.61
689.15	466.80
689.49	463.88
689.82	461.17
690.16	458.17
690.50	455.59
690.83	452.98
691.17	450.28
691.51	447.53
691.84	445.07
692.18	442.35
692.52	439.82
692.85	437.20
693.19	434.84
693.52	432.38
693.86	429.93
694.20	427.63
694.53	425.46
694.87	423.10
695.21	420.62
695.54	418.14
695.88	415.74
696.21	413.34
696.55	411.16
696.88	408.82
697.22	406.62
697.56	404.32
697.89	402.13
698.23	399.93
698.56	397.85
698.90	395.60
699.23	393.61
699.57	391.43
699.90	389.40
700.24	387.38
700.58	385.36
700.91	383.51
701.25	381.53
701.58	379.60
701.92	377.79
702.25	376.13
702.59	374.20
702.92	372.49
703.26	370.76
703.59	369.10
703.93	367.69
704.26	366.06
704.60	364.41
704.93	362.86
705.26	361.27
705.60	359.85
705.93	358.52
706.27	356.97
706.60	355.56
706.94	354.21
707.27	352.66
707.61	351.15
707.94	349.53
708.27	347.95
708.61	346.47
708.94	345.01
709.28	343.67
709.61	342.49
709.94	341.22
710.28	339.77
710.61	338.35
710.95	336.73
711.28	335.45
711.61	334.14
711.95	332.70
712.28	331.46
712.61	330.07
712.95	328.71
713.28	327.51
713.61	326.23
713.95	324.88
714.28	323.63
714.61	322.40
714.95	321.40
715.28	320.31
715.61	319.07
715.95	317.90
716.28	316.73
716.61	315.50
716.95	314.33
717.28	313.27
717.61	312.24
717.94	311.21
718.28	310.21
718.61	309.20
718.94	308.40
719.27	307.33
719.61	306.32
719.94	305.37
720.27	304.44
720.60	303.47
720.94	302.62
721.27	301.77
721.60	301.00
721.93	300.05
722.27	299.17
722.60	298.51
722.93	297.68
723.26	296.89
723.59	296.23
723.93	295.42
724.26	294.68
724.59	293.95
724.92	293.16
725.25	292.32
725.59	291.58
725.92	290.82
726.25	290.23
726.58	289.64
726.91	288.90
727.24	288.23
727.57	287.58
727.91	286.81
728.24	286.23
728.57	285.57
728.90	284.96
729.23	284.34
729.56	283.74
729.89	283.07
730.22	282.40
730.55	281.78
730.89	281.36
731.22	280.79
731.55	280.11
731.88	279.48
732.21	278.98
732.54	278.42
732.87	277.87
733.20	277.35
733.53	276.78
733.86	276.28
734.19	275.75
734.52	275.21
734.85	274.81
735.18	274.22
735.51	273.75
735.84	273.32
736.17	272.87
736.50	272.30
736.83	272.09
737.16	271.67
737.49	271.18
737.82	270.50
738.15	270.06
738.48	269.65
738.81	269.34
739.14	268.97
739.47	268.41
739.80	267.93
740.13	267.48
740.46	266.93
740.79	266.50
741.12	266.08
741.45	265.69
741.78	265.18
742.11	264.80
742.44	264.31
742.77	263.80
743.10	263.45
743.43	263.03
743.75	262.42
744.08	262.20
744.41	261.74
744.74	261.50
745.07	261.15
745.40	260.93
745.73	260.55
746.06	260.10
746.39	259.93
746.71	259.49
747.04	259.06
747.37	258.77
747.70	258.32
748.03	258.06
748.36	257.77
748.68	257.47
749.01	257.06
749.34	256.78
749.67	256.52
750.00	256.14
750.33	256.02
750.65	255.73
750.98	255.18
751.31	254.92
751.64	254.58
751.97	254.34
752.29	253.87
752.62	253.56
752.95	253.25
753.28	252.82
753.60	252.60
753.93	252.41
754.26	252.14
754.59	251.94
754.91	251.53
755.24	251.15
755.57	250.85
755.90	250.67
756.22	250.38
756.55	250.13
756.88	249.89
757.20	249.49
757.53	249.15
757.86	249.00
758.19	248.86
758.51	248.73
758.84	248.38
759.17	248.20
759.49	248.08
759.82	248.02
760.15	247.83
760.47	247.60
760.80	247.34
761.13	247.10
761.45	246.87
761.78	246.70
762.11	246.50
762.43	246.40
762.76	246.21
763.08	245.96
763.41	245.68
763.74	245.52
764.06	245.30
764.39	245.23
764.71	244.95
765.04	244.66
765.37	244.40
765.69	244.26
766.02	244.11
766.34	243.72
766.67	243.51
767.00	243.38
767.32	243.37
767.65	243.24
767.97	243.06
768.30	242.99
768.62	242.79
768.95	242.81
769.27	242.48
769.60	242.33
769.92	242.20
770.25	242.06
770.57	241.84
770.90	241.67
771.22	241.51
771.55	241.43
771.87	241.32
772.20	241.14
772.52	241.12
772.85	241.14
773.17	241.10
773.50	240.88
773.82	240.67
774.15	240.34
774.47	240.11
774.80	240.05
775.12	239.89
775.45	239.80
775.77	239.66
776.09	239.65
776.42	239.48
776.74	239.51
777.07	239.44
777.39	239.42
777.72	239.28
778.04	239.14
778.36	238.93
778.69	238.78
779.01	238.71
779.33	238.46
779.66	238.20
779.98	238.00
780.31	237.88
780.63	237.97
780.95	237.98
781.28	237.98
781.60	237.79
781.92	237.69
782.25	237.62
782.57	237.44
782.89	237.39
783.22	237.30
783.54	237.12
783.86	236.99
784.19	236.82
784.51	236.74
784.83	236.64
785.16	236.52
785.48	236.43
785.80	236.31
786.12	236.24
786.45	236.27
786.77	236.30
787.09	236.18
787.42	235.99
787.74	235.79
788.06	235.64
788.38	235.58
788.71	235.48
789.03	235.40
789.35	235.52
789.67	235.38
789.99	235.40
790.32	235.27
790.64	235.16
790.96	235.32
791.28	235.24
791.61	235.10
791.93	235.22
792.25	235.21
792.57	235.25
792.89	235.18
793.21	235.06
793.54	234.84
793.86	234.84
794.18	234.81
794.50	234.82
794.82	234.75
795.14	234.69
795.47	234.63
795.79	234.43
796.11	234.12
796.43	234.12
796.75	233.99
797.07	233.86
797.39	233.86
797.71	233.63
798.04	233.54
798.36	233.45
798.68	233.29
799.00	233.16
799.32	232.96
799.64	232.96
799.96	232.77
800.28	232.82
800.60	232.72
800.92	232.58
801.24	232.44
801.56	232.34
801.89	232.26
802.21	232.13
802.53	232.17
802.85	232.20
803.17	232.21
803.49	232.10
803.81	232.14
804.13	231.96
804.45	231.77
804.77	231.71
805.09	231.70
805.41	231.63
805.73	231.63
806.05	231.70
806.37	231.64
806.69	231.59
807.01	231.60
807.33	231.55
807.65	231.56
807.97	231.74
808.28	231.82
808.60	231.81
808.92	231.91
809.24	232.01
809.56	232.01
809.88	231.92
810.20	231.91
810.52	231.98
810.84	232.03
811.16	231.99
811.48	231.97
811.80	232.08
812.12	232.06
812.43	231.98
812.75	231.99
813.07	231.91
813.39	231.98
813.71	231.90
814.03	232.00
814.35	231.91
814.67	231.72
814.98	231.59
815.30	231.60
815.62	231.47
815.94	231.40
816.26	231.42
816.58	231.38
816.89	231.44
817.21	231.35
817.53	231.42
817.85	231.50
818.17	231.57
818.48	231.51
818.80	231.60
819.12	231.68
819.44	231.54
819.76	231.53
820.07	231.50
820.39	231.45
820.71	231.35
821.03	231.38
821.34	231.41
821.66	231.51
821.98	231.56
822.30	231.70
822.61	231.67
822.93	231.54
823.25	231.52
823.57	231.55
823.88	231.58
824.20	231.51
824.52	231.48
824.83	231.47
825.15	231.32
825.47	231.28
825.79	231.15
826.10	231.23
826.42	231.20
826.74	231.20
827.05	231.25
827.37	231.25
827.69	231.24
828.00	231.23
828.32	231.12
828.64	231.07
828.95	230.99
829.27	230.99
829.58	230.99
829.90	230.90
830.22	230.74
830.53	230.62
830.85	230.55
831.17	230.57
831.48	230.47
831.80	230.57
832.11	230.53
832.43	230.59
832.75	230.42
833.06	230.50
833.38	230.40
833.69	230.29
834.01	230.24
834.32	230.24
834.64	230.14
834.96	230.10
835.27	229.96
835.59	229.97
835.90	229.83
836.22	229.80
836.53	229.76
836.85	229.71
837.16	229.90
837.48	229.86
837.79	229.90
838.11	229.88
838.42	229.85
838.74	229.86
839.05	229.79
839.37	229.80
839.68	229.69
840.00	229.68
840.31	229.70
840.63	229.64
840.94	229.54
841.26	229.53
841.57	229.50
841.88	229.56
842.20	229.45
842.51	229.50
842.83	229.50
843.14	229.69
843.46	229.63
843.77	229.54
844.08	229.59
844.40	229.43
844.71	229.37
845.03	229.34
845.34	229.30
845.65	229.26
845.97	229.20
846.28	229.09
846.60	229.17
846.91	229.04
847.22	229.09
847.54	229.09
847.85	229.08
848.16	229.05
848.48	228.97
848.79	229.09
849.10	229.12
849.42	229.10
849.73	228.95
850.04	229.00
850.36	228.99
850.67	228.94
850.98	228.98
851.30	229.07
851.61	229.10
851.92	229.07
852.23	229.13
852.55	229.15
852.86	229.23
853.17	229.23
853.49	229.39
853.80	229.46
854.11	229.48
854.42	229.53
854.74	229.58
855.05	229.74
855.36	229.52
855.67	229.50
855.99	229.49
856.30	229.77
856.61	229.80
856.92	229.80
857.23	229.82
857.55	229.85
857.86	229.90
858.17	229.90
858.48	229.90
858.79	229.83
859.11	229.92
859.42	229.99
859.73	229.95
860.04	229.99
860.35	229.94
860.66	230.00
860.98	230.06
861.29	230.12
861.60	230.04
861.91	230.21
862.22	230.22
862.53	230.16
862.84	229.83
863.16	229.94
863.47	229.84
863.78	229.86
864.09	229.91
864.40	229.86
864.71	229.90
865.02	229.84
865.33	229.82
865.64	229.82
865.95	229.89
866.27	229.97
866.58	229.87
866.89	229.90
867.20	229.94
867.51	229.89
867.82	229.76
868.13	229.92
868.44	229.76
868.75	229.77
869.06	229.80
869.37	229.76
869.68	229.52
869.99	229.50
870.30	229.42
870.61	229.42
870.92	229.32
871.23	229.30
871.54	229.33
871.85	229.37
872.16	229.38
872.47	229.18
872.78	229.11
873.09	229.17
873.40	229.10
873.71	228.97
874.02	228.84
874.33	228.83
874.64	228.71
874.95	228.83
875.26	228.73
875.56	228.69
875.87	228.72
876.18	228.90
876.49	229.04
876.80	229.02
877.11	228.90
877.42	228.91
877.73	228.82
878.04	228.81
878.35	228.85
878.66	228.82
878.96	228.85
879.27	228.68
879.58	228.60
879.89	228.56
880.20	228.67
880.51	228.65
880.82	228.71
881.12	228.58
881.43	228.45
881.74	228.42
882.05	228.44
882.36	228.40
882.67	228.30
882.97	228.06
883.28	228.05
883.59	228.11
883.90	228.21
884.21	228.11
884.51	228.12
884.82	227.99
885.13	228.04
885.44	227.97
885.74	228.10
886.05	228.07
886.36	228.02
886.67	227.95
886.98	228.11
887.28	228.07
887.59	228.19
887.90	228.28
888.20	228.37
888.51	228.49
888.82	228.58
889.13	228.62
889.43	228.87
889.74	228.95
890.05	228.89
890.35	228.81
890.66	228.95
890.97	229.00
891.28	229.12
891.58	229.01
891.89	229.12
892.20	229.05
892.50	229.12
892.81	229.15
893.12	229.05
893.42	229.00
893.73	229.09
894.04	229.10
894.34	229.08
894.65	229.02
894.95	228.96
895.26	228.96
895.57	229.04
895.87	228.89
896.18	228.95
896.48	228.98
896.79	229.06
897.10	229.11
897.40	229.16
897.71	229.08
898.01	229.12
898.32	229.06
898.63	229.11
898.93	229.14
899.24	229.22
899.54	229.20
899.85	229.21
900.15	229.13
900.46	229.16
900.76	229.13
901.07	229.14
901.38	229.08
901.68	229.15
901.99	228.99
902.29	229.08
902.60	229.06
902.90	229.11
903.21	229.06
903.51	229.08
903.82	229.09
904.12	229.17
904.43	229.21
904.73	229.23
905.03	229.27
905.34	229.34
905.64	229.25
905.95	229.40
906.25	229.31
906.56	229.37
906.86	229.39
907.17	229.41
907.47	229.36
907.77	229.31
908.08	229.16
908.38	229.30
908.69	229.36
908.99	229.32
909.30	229.28
909.60	229.35
909.90	229.23
910.21	229.06
910.51	229.00
910.81	228.93
911.12	228.95
911.42	228.89
911.73	228.69
912.03	228.75
912.33	228.74
912.64	228.70
912.94	228.55
913.24	228.41
913.55	228.37
913.85	228.46
914.15	228.50
914.46	228.53
914.76	228.38
915.06	228.23
915.37	228.26
915.67	228.26
915.97	228.08
916.27	228.05
916.58	228.02
916.88	227.99
917.18	228.00
917.49	228.12
917.79	228.08
918.09	228.17
918.39	228.20
918.70	228.10
919.00	228.20
919.30	228.27
919.60	228.33
919.91	228.42
920.21	228.40
920.51	228.40
920.81	228.48
921.12	228.58
921.42	228.49
921.72	228.50
922.02	228.40
922.32	228.42
922.63	228.47
922.93	228.58
923.23	228.64
923.53	228.60
923.83	228.47
924.13	228.54
924.44	228.50
924.74	228.47
925.04	228.52
925.34	228.46
925.64	228.45
925.94	228.38
926.24	228.40
926.55	228.43
926.85	228.41
927.15	228.35
927.45	228.33
927.75	228.36
928.05	228.32
928.35	228.39
928.65	228.50
928.95	228.46
929.26	228.40
929.56	228.41
929.86	228.40
930.16	228.40
930.46	228.39
930.76	228.30
931.06	228.23
931.36	228.23
931.66	228.28
931.96	228.25
932.26	228.32
932.56	228.21
932.86	228.17
933.16	228.22
933.46	228.25
933.76	228.24
934.06	228.34
934.36	228.47
934.66	228.42
934.96	228.44
935.26	228.48
935.56	228.46
935.86	228.46
936.16	228.44
936.46	228.36
936.76	228.32
937.06	228.41
937.36	228.50
937.66	228.40
937.96	228.41
938.26	228.45
938.56	228.45
938.86	228.52
939.16	228.55
939.46	228.63
939.76	228.54
940.06	228.59
940.35	228.60
940.65	228.44
940.95	228.53
941.25	228.50
941.55	228.53
941.85	228.64
942.15	228.51
942.45	228.59
942.75	228.69
943.04	228.67
943.34	228.70
943.64	228.57
943.94	228.62
944.24	228.58
944.54	228.59
944.84	228.58
945.13	228.49
945.43	228.47
945.73	228.45
946.03	228.59
946.33	228.50
946.62	228.43
946.92	228.46
947.22	228.45
947.52	228.46
947.82	228.50
948.11	228.42
948.41	228.52
948.71	228.53
949.01	228.52
949.31	228.51
949.60	228.54
949.90	228.73
950.20	228.73
950.50	228.80
950.79	228.84
951.09	228.89
951.39	228.89
951.69	228.80
951.98	228.85
952.28	228.75
952.58	228.79
952.87	228.74
953.17	228.76
953.47	228.75
953.76	228.71
954.06	228.59
954.36	228.53
954.66	228.53
954.95	228.51
955.25	228.59
955.55	228.57
955.84	228.44
956.14	228.40
956.44	228.34
956.73	228.25
957.03	228.10
957.32	228.03
957.62	228.00
957.92	228.11
958.21	227.97
958.51	228.21
958.81	228.25
959.10	228.32
959.40	228.31
959.69	228.30
959.99	228.34
960.29	228.35
960.58	228.29
960.88	228.34
961.17	228.27
961.47	228.25
961.76	228.38
962.06	228.48
962.36	228.35
962.65	228.40
962.95	228.50
963.24	228.64
963.54	228.60
963.83	228.75
964.13	228.71
964.42	228.69
964.72	228.47
965.01	228.33
965.31	228.35
965.60	228.26
965.90	228.32
966.19	228.29
966.49	228.25
966.78	228.33
967.08	228.21
967.37	228.28
967.67	228.19
967.96	228.19
968.26	228.10
968.55	228.07
968.85	228.13
969.14	228.08
969.43	227.97
969.73	228.00
970.02	227.87
970.32	227.93
970.61	227.99
970.91	228.00
971.20	228.01
971.49	227.92
971.79	228.01
972.08	227.94
972.38	227.94
972.67	228.03
972.96	228.01
973.26	228.14
973.55	228.18
973.85	228.18
974.14	228.09
974.43	228.12
974.73	228.21
975.02	228.18
975.31	228.16
975.61	228.26
975.90	228.30
976.19	228.31
976.49	228.34
976.78	228.33
977.07	228.29
977.37	228.30
977.66	228.36
977.95	228.30
978.24	228.31
978.54	228.38
978.83	228.43
979.12	228.47
979.42	228.50
979.71	228.46
980.00	228.43
980.29	228.39
980.59	228.29
980.88	228.33
981.17	228.35
981.46	228.33
981.76	228.29
982.05	228.27
982.34	228.27
982.63	228.21
982.93	228.23
983.22	228.30
983.51	228.40
983.80	228.37
984.09	228.49
984.39	228.45
984.68	228.32
984.97	228.24
985.26	228.33
985.55	228.25
985.85	228.26
986.14	228.36
986.43	228.49
986.72	228.48
987.01	228.41
987.30	228.30
987.59	228.35
987.89	228.43
988.18	228.36
988.47	228.29
988.76	228.33
989.05	228.40
989.34	228.34
989.63	228.32
989.92	228.26
990.22	228.20
990.51	228.14
990.80	228.22
991.09	228.29
991.38	228.10
991.67	228.10
991.96	228.00
992.25	227.91
992.54	227.91
992.83	227.91
993.12	227.92
993.41	228.01
993.70	227.98
993.99	227.94
994.28	228.02
994.58	228.12
994.87	228.06
995.16	228.07
995.45	228.09
995.74	227.94
996.03	228.06
996.32	228.00
996.61	228.16
996.90	228.14
997.19	228.08
997.48	228.25
997.77	228.18
998.06	228.28
998.34	228.35
998.63	228.24
998.92	228.36
999.21	228.34
999.50	228.33
999.79	228.33
1000.08	228.26
1000.37	228.23
1000.66	228.17
1000.95	228.12
1001.24	227.96
1001.53	228.06
1001.82	228.14
1002.11	228.11
1002.40	228.17
1002.68	228.20
1002.97	228.33
1003.26	228.27
1003.55	228.13
1003.84	228.17
1004.13	228.23
1004.42	228.20
1004.71	228.20
1004.99	228.14
1005.28	228.25
1005.57	228.26
1005.86	228.31
1006.15	228.43
1006.44	228.43
1006.72	228.43
1007.01	228.50
1007.30	228.58
1007.59	228.44
1007.88	228.40
1008.17	228.34
1008.45	228.31
1008.74	228.18
1009.03	228.10
1009.32	228.06
1009.60	228.18
1009.89	228.26
1010.18	228.13
1010.47	228.14
1010.76	228.22
1011.04	228.31
1011.33	228.30
1011.62	228.31
1011.91	228.37
1012.19	228.30
1012.48	228.33
1012.77	228.40
1013.05	228.47
1013.34	228.46
1013.63	228.50
1013.92	228.52
1014.20	228.52
1014.49	228.48
1014.78	228.52
1015.06	228.47
1015.35	228.54
1015.64	228.48
1015.92	228.50
1016.21	228.53
1016.50	228.49
1016.78	228.55
1017.07	228.52
1017.36	228.48
1017.64	228.56
1017.93	228.57
1018.22	228.55
1018.50	228.49
1018.79	228.54
1019.08	228.46
1019.36	228.46
1019.65	228.44
1019.93	228.54
1020.22	228.62
1020.51	228.76
1020.79	228.71
1021.08	227.90
1021.36	227.50
1021.65	229.60
1021.94	228.90
1022.22	228.40
1022.51	228.00
1022.79	229.10
1023.08	229.10
1023.36	230.50
1023.65	227.60
>>>>>End Processed Spectral Data<<<<<
