SpectraSuite Data File
++++++++++++++++++++++++++++++++++++
Date: Fri Feb 01 14:41:45 EST 2013
User: group
Dark Spectrum Present: No
Reference Spectrum Present: No
Number of Sampled Component Spectra: 1
Spectrometers: USB2E7196
Integration Time (usec): 70000 (USB2E7196)
Spectra Averaged: 10 (USB2E7196)
Boxcar Smoothing: 10 (USB2E7196)
Correct for Electrical Dark: No (USB2E7196)
Strobe/Lamp Enabled: No (USB2E7196)
Correct for Detector Non-linearity: No (USB2E7196)
Correct for Stray Light: No (USB2E7196)
Number of Pixels in Processed Spectrum: 2048
>>>>>Begin Processed Spectral Data<<<<<
339.09	0.00
339.48	216.80
339.86	216.80
340.24	219.80
340.63	221.20
341.01	224.80
341.39	223.90
341.78	225.80
342.16	224.90
342.54	225.60
342.93	215.15
343.31	225.91
343.69	226.41
344.07	226.92
344.46	227.38
344.84	227.69
345.22	227.84
345.60	228.02
345.99	228.22
346.37	228.55
346.75	228.74
347.13	228.73
347.52	228.74
347.90	228.83
348.28	228.81
348.66	228.97
349.05	229.01
349.43	229.01
349.81	229.00
350.19	229.01
350.57	229.15
350.96	229.34
351.34	229.64
351.72	229.77
352.10	229.84
352.48	229.80
352.87	229.95
353.25	229.96
353.63	230.06
354.01	230.01
354.39	229.93
354.77	229.98
355.15	230.12
355.54	230.12
355.92	230.15
356.30	230.26
356.68	230.35
357.06	230.29
357.44	230.31
357.82	230.38
358.20	230.44
358.58	230.35
358.97	230.20
359.35	230.14
359.73	230.19
360.11	230.24
360.49	230.40
360.87	230.41
361.25	230.50
361.63	230.62
362.01	230.74
362.39	230.75
362.77	230.77
363.15	230.73
363.53	230.74
363.91	230.73
364.29	230.70
364.67	230.52
365.05	230.50
365.43	230.52
365.81	230.54
366.19	230.57
366.57	230.59
366.95	230.73
367.33	230.81
367.71	230.73
368.09	230.81
368.47	230.72
368.85	230.70
369.23	230.82
369.61	230.71
369.99	230.76
370.37	230.77
370.75	230.87
371.13	230.81
371.51	230.68
371.89	230.74
372.27	230.71
372.65	230.66
373.03	230.71
373.41	230.54
373.78	230.41
374.16	230.37
374.54	230.30
374.92	230.21
375.30	230.03
375.68	229.98
376.06	229.88
376.44	229.83
376.82	229.80
377.19	229.68
377.57	229.53
377.95	229.28
378.33	229.27
378.71	229.12
379.09	229.08
379.47	229.11
379.84	228.92
380.22	228.83
380.60	228.72
380.98	228.59
381.36	228.61
381.73	228.66
382.11	228.42
382.49	228.35
382.87	228.19
383.25	228.07
383.62	228.25
384.00	228.13
384.38	228.08
384.76	228.04
385.13	228.04
385.51	228.00
385.89	228.00
386.27	227.80
386.64	227.68
387.02	227.64
387.40	227.55
387.78	227.55
388.15	227.62
388.53	227.71
388.91	227.74
389.29	227.76
389.66	227.71
390.04	227.85
390.42	227.82
390.79	227.98
391.17	228.07
391.55	227.79
391.92	227.75
392.30	227.80
392.68	227.65
393.05	227.63
393.43	227.77
393.81	227.80
394.18	227.90
394.56	228.02
394.94	228.02
395.31	228.03
395.69	228.10
396.06	228.09
396.44	228.12
396.82	228.15
397.19	228.29
397.57	228.29
397.95	228.37
398.32	228.38
398.70	228.41
399.07	228.55
399.45	228.69
399.82	228.88
400.20	228.98
400.58	229.16
400.95	229.17
401.33	229.20
401.70	229.39
402.08	229.47
402.45	229.57
402.83	229.84
403.20	230.03
403.58	230.14
403.95	230.34
404.33	230.50
404.71	230.66
405.08	230.99
405.46	231.29
405.83	231.53
406.21	231.82
406.58	231.99
406.96	232.26
407.33	232.57
407.70	232.85
408.08	233.24
408.45	233.54
408.83	233.89
409.20	234.21
409.58	234.35
409.95	234.69
410.33	235.01
410.70	235.29
411.08	235.78
411.45	236.21
411.82	236.61
412.20	237.10
412.57	237.74
412.95	238.00
413.32	238.50
413.69	238.98
414.07	239.57
414.44	240.26
414.82	240.85
415.19	241.48
415.56	242.16
415.94	242.90
416.31	243.79
416.68	244.67
417.06	245.66
417.43	246.79
417.81	247.83
418.18	248.93
418.55	250.03
418.93	251.18
419.30	252.46
419.67	253.81
420.04	255.04
420.42	256.45
420.79	258.11
421.16	259.70
421.54	261.45
421.91	263.02
422.28	264.73
422.66	266.55
423.03	268.50
423.40	270.42
423.77	272.23
424.15	274.35
424.52	276.45
424.89	278.68
425.26	280.76
425.64	282.73
426.01	284.90
426.38	287.34
426.75	289.72
427.13	292.10
427.50	294.70
427.87	297.37
428.24	299.93
428.61	302.34
428.99	305.08
429.36	307.98
429.73	310.92
430.10	313.66
430.47	316.48
430.85	319.42
431.22	322.62
431.59	326.14
431.96	329.15
432.33	332.59
432.70	335.92
433.08	339.76
433.45	343.75
433.82	347.38
434.19	351.24
434.56	355.23
434.93	358.79
435.30	362.43
435.68	366.38
436.05	370.40
436.42	374.27
436.79	377.74
437.16	381.41
437.53	385.44
437.90	389.54
438.27	393.34
438.64	397.21
439.01	400.66
439.38	403.64
439.75	406.56
440.13	410.03
440.50	413.36
440.87	415.94
441.24	418.45
441.61	421.40
441.98	423.41
442.35	425.69
442.72	428.59
443.09	430.90
443.46	432.25
443.83	432.88
444.20	433.55
444.57	434.60
444.94	434.97
445.31	435.37
445.68	435.80
446.05	435.75
446.42	435.14
446.79	434.47
447.16	433.81
447.53	433.44
447.90	431.75
448.27	430.00
448.64	427.91
449.01	426.36
449.37	423.60
449.74	420.92
450.11	417.86
450.48	414.13
450.85	410.77
451.22	407.70
451.59	404.85
451.96	402.11
452.33	398.44
452.70	395.05
453.07	391.06
453.43	386.98
453.80	383.28
454.17	379.59
454.54	376.11
454.91	372.22
455.28	368.44
455.65	364.99
456.02	361.67
456.38	358.64
456.75	354.73
457.12	351.57
457.49	348.54
457.86	345.54
458.23	342.97
458.59	339.89
458.96	337.01
459.33	334.31
459.70	331.68
460.07	329.52
460.43	327.24
460.80	325.02
461.17	322.88
461.54	320.71
461.91	318.70
462.27	316.59
462.64	314.87
463.01	312.92
463.38	311.02
463.74	308.95
464.11	307.19
464.48	305.83
464.85	304.18
465.21	302.92
465.58	301.50
465.95	299.98
466.32	298.74
466.68	297.57
467.05	296.33
467.42	295.04
467.78	293.71
468.15	292.38
468.52	291.31
468.88	290.21
469.25	289.09
469.62	288.18
469.98	287.22
470.35	286.18
470.72	285.24
471.08	284.27
471.45	283.43
471.82	282.58
472.18	281.67
472.55	281.09
472.92	280.24
473.28	279.36
473.65	278.59
474.02	277.99
474.38	277.30
474.75	276.76
475.11	276.33
475.48	276.05
475.85	275.70
476.21	275.30
476.58	274.86
476.94	274.53
477.31	274.16
477.67	273.79
478.04	273.63
478.41	273.39
478.77	273.40
479.14	273.20
479.50	273.15
479.87	273.09
480.23	272.98
480.60	272.98
480.96	273.11
481.33	273.20
481.69	273.30
482.06	273.45
482.42	273.60
482.79	273.66
483.15	273.91
483.52	274.27
483.88	274.62
484.25	274.89
484.61	275.32
484.98	275.73
485.34	276.39
485.71	276.98
486.07	277.74
486.44	278.24
486.80	279.10
487.17	279.88
487.53	280.83
487.90	281.83
488.26	282.91
488.62	284.01
488.99	285.07
489.35	286.10
489.72	287.26
490.08	288.51
490.44	289.87
490.81	291.19
491.17	292.56
491.54	294.12
491.90	295.89
492.26	297.71
492.63	299.70
492.99	301.69
493.36	303.85
493.72	306.05
494.08	308.40
494.45	310.87
494.81	313.56
495.17	316.35
495.54	319.35
495.90	322.51
496.26	325.70
496.63	329.09
496.99	332.82
497.35	336.74
497.72	340.81
498.08	344.92
498.44	349.23
498.80	353.90
499.17	358.59
499.53	363.35
499.89	368.34
500.26	373.60
500.62	379.07
500.98	384.89
501.34	390.80
501.71	397.06
502.07	403.35
502.43	410.16
502.79	416.90
503.16	423.93
503.52	431.22
503.88	438.95
504.24	446.96
504.60	455.20
504.97	463.76
505.33	472.60
505.69	482.12
506.05	491.72
506.41	501.40
506.78	511.45
507.14	521.79
507.50	532.64
507.86	543.75
508.22	555.23
508.59	566.63
508.95	578.64
509.31	591.22
509.67	604.05
510.03	616.83
510.39	630.08
510.75	643.61
511.12	657.24
511.48	671.30
511.84	685.59
512.20	700.26
512.56	715.52
512.92	730.97
513.28	746.53
513.64	762.52
514.00	779.07
514.37	796.05
514.73	812.91
515.09	829.84
515.45	847.12
515.81	864.50
516.17	882.73
516.53	901.20
516.89	919.48
517.25	937.77
517.61	956.64
517.97	975.83
518.33	994.96
518.69	1014.88
519.05	1034.97
519.41	1055.45
519.77	1076.01
520.13	1096.51
520.49	1116.80
520.85	1137.50
521.21	1158.16
521.57	1179.61
521.93	1200.38
522.29	1222.21
522.65	1243.55
523.01	1265.21
523.37	1286.56
523.73	1307.80
524.09	1329.43
524.45	1351.26
524.81	1373.89
525.17	1396.51
525.53	1419.13
525.89	1441.93
526.25	1464.69
526.61	1486.80
526.97	1509.35
527.33	1531.82
527.68	1554.40
528.04	1577.70
528.40	1600.54
528.76	1624.36
529.12	1647.15
529.48	1670.48
529.84	1692.82
530.20	1716.51
530.56	1740.12
530.91	1763.96
531.27	1787.49
531.63	1810.73
531.99	1834.11
532.35	1856.20
532.71	1878.04
533.07	1901.09
533.42	1922.85
533.78	1945.05
534.14	1967.78
534.50	1989.10
534.86	2011.01
535.21	2032.47
535.57	2054.24
535.93	2075.77
536.29	2096.42
536.65	2117.80
537.00	2138.44
537.36	2159.68
537.72	2179.51
538.08	2198.97
538.44	2218.60
538.79	2238.12
539.15	2256.73
539.51	2276.17
539.87	2296.23
540.22	2316.19
540.58	2335.70
540.94	2355.44
541.29	2373.79
541.65	2391.89
542.01	2411.08
542.37	2429.29
542.72	2447.05
543.08	2464.27
543.44	2481.81
543.79	2498.15
544.15	2513.81
544.51	2531.08
544.87	2547.30
545.22	2563.84
545.58	2579.62
545.94	2594.57
546.29	2609.73
546.65	2624.97
547.01	2638.68
547.36	2652.84
547.72	2665.71
548.07	2678.07
548.43	2690.89
548.79	2703.74
549.14	2715.92
549.50	2727.06
549.86	2738.31
550.21	2749.49
550.57	2760.78
550.92	2771.60
551.28	2782.22
551.64	2792.56
551.99	2802.19
552.35	2812.08
552.70	2821.35
553.06	2831.55
553.41	2841.64
553.77	2850.87
554.13	2860.19
554.48	2870.18
554.84	2878.90
555.19	2888.42
555.55	2896.22
555.90	2903.96
556.26	2911.55
556.61	2919.19
556.97	2926.69
557.32	2934.22
557.68	2941.64
558.03	2948.76
558.39	2955.37
558.74	2963.72
559.10	2970.74
559.45	2977.44
559.81	2984.85
560.16	2990.64
560.52	2996.02
560.87	3001.89
561.23	3007.02
561.58	3012.45
561.94	3016.59
562.29	3019.99
562.64	3023.61
563.00	3027.81
563.35	3032.82
563.71	3038.08
564.06	3043.31
564.42	3047.26
564.77	3051.67
565.12	3056.07
565.48	3059.95
565.83	3063.06
566.19	3064.74
566.54	3066.80
566.89	3068.29
567.25	3069.40
567.60	3072.73
567.96	3074.75
568.31	3075.73
568.66	3077.30
569.02	3078.85
569.37	3079.18
569.72	3081.06
570.08	3081.50
570.43	3082.30
570.78	3081.51
571.14	3080.01
571.49	3078.66
571.84	3079.26
572.20	3077.64
572.55	3075.38
572.90	3072.47
573.26	3070.62
573.61	3068.98
573.96	3067.28
574.31	3064.19
574.67	3060.43
575.02	3055.73
575.37	3052.31
575.72	3048.00
576.08	3043.99
576.43	3039.04
576.78	3035.52
577.13	3031.01
577.49	3027.17
577.84	3022.93
578.19	3018.55
578.54	3013.43
578.90	3007.58
579.25	3000.28
579.60	2993.89
579.95	2987.46
580.30	2981.02
580.66	2974.13
581.01	2967.05
581.36	2960.84
581.71	2955.28
582.06	2948.61
582.42	2941.90
582.77	2934.02
583.12	2927.30
583.47	2920.92
583.82	2914.66
584.17	2907.34
584.53	2900.61
584.88	2893.22
585.23	2885.07
585.58	2877.91
585.93	2870.90
586.28	2864.10
586.63	2857.95
586.98	2851.36
587.34	2845.15
587.69	2838.13
588.04	2831.93
588.39	2824.75
588.74	2815.63
589.09	2807.35
589.44	2798.87
589.79	2791.52
590.14	2784.60
590.49	2777.00
590.84	2768.15
591.19	2759.93
591.54	2750.10
591.89	2739.08
592.25	2730.15
592.60	2720.27
592.95	2710.34
593.30	2700.74
593.65	2691.23
594.00	2680.86
594.35	2671.50
594.70	2661.01
595.05	2651.73
595.40	2640.46
595.75	2630.31
596.10	2621.50
596.45	2612.05
596.80	2604.45
597.15	2594.89
597.50	2584.94
597.85	2575.52
598.19	2566.97
598.54	2557.62
598.89	2549.61
599.24	2542.43
599.59	2533.12
599.94	2524.89
600.29	2515.74
600.64	2506.74
600.99	2496.16
601.34	2487.10
601.69	2477.03
602.04	2467.74
602.39	2458.23
602.74	2450.44
603.08	2442.24
603.43	2433.31
603.78	2424.00
604.13	2413.84
604.48	2404.16
604.83	2394.56
605.18	2385.30
605.53	2374.43
605.87	2363.07
606.22	2353.40
606.57	2342.85
606.92	2333.39
607.27	2324.20
607.62	2315.07
607.96	2305.33
608.31	2297.20
608.66	2287.24
609.01	2276.80
609.36	2265.83
609.70	2254.63
610.05	2243.00
610.40	2231.59
610.75	2220.10
611.10	2209.14
611.44	2196.67
611.79	2185.87
612.14	2175.37
612.49	2162.80
612.83	2151.33
613.18	2140.61
613.53	2129.34
613.88	2117.32
614.22	2105.58
614.57	2093.45
614.92	2081.57
615.27	2070.20
615.61	2057.94
615.96	2046.72
616.31	2036.39
616.65	2026.86
617.00	2016.83
617.35	2006.34
617.70	1995.37
618.04	1984.31
618.39	1973.34
618.74	1963.94
619.08	1952.86
619.43	1941.91
619.78	1932.07
620.12	1922.19
620.47	1911.87
620.82	1900.64
621.16	1891.05
621.51	1880.62
621.85	1870.24
622.20	1859.45
622.55	1849.08
622.89	1839.07
623.24	1828.84
623.59	1818.60
623.93	1808.54
624.28	1798.21
624.62	1787.84
624.97	1778.15
625.32	1768.92
625.66	1759.55
626.01	1749.73
626.35	1739.93
626.70	1729.69
627.04	1720.19
627.39	1710.03
627.73	1699.68
628.08	1690.20
628.43	1680.13
628.77	1670.03
629.12	1659.48
629.46	1649.64
629.81	1638.95
630.15	1628.07
630.50	1617.83
630.84	1606.69
631.19	1595.18
631.53	1584.97
631.88	1574.32
632.22	1563.48
632.57	1552.90
632.91	1542.12
633.26	1531.74
633.60	1520.96
633.95	1510.80
634.29	1500.52
634.64	1490.79
634.98	1481.09
635.32	1471.60
635.67	1462.28
636.01	1453.02
636.36	1443.74
636.70	1434.63
637.05	1425.72
637.39	1417.63
637.73	1408.69
638.08	1400.64
638.42	1392.55
638.77	1383.70
639.11	1374.89
639.45	1366.27
639.80	1357.29
640.14	1348.25
640.49	1339.03
640.83	1330.57
641.17	1321.90
641.52	1313.22
641.86	1304.40
642.20	1296.05
642.55	1286.93
642.89	1278.59
643.23	1269.57
643.58	1261.73
643.92	1252.71
644.26	1244.05
644.61	1235.17
644.95	1226.47
645.29	1216.86
645.64	1207.47
645.98	1198.85
646.32	1190.48
646.66	1181.62
647.01	1172.91
647.35	1164.69
647.69	1156.40
648.04	1148.56
648.38	1140.11
648.72	1130.99
649.06	1122.39
649.41	1113.97
649.75	1105.30
650.09	1096.00
650.43	1087.46
650.78	1078.18
651.12	1069.61
651.46	1061.36
651.80	1053.17
652.14	1045.09
652.49	1037.57
652.83	1029.94
653.17	1021.36
653.51	1013.47
653.85	1005.79
654.20	998.00
654.54	989.81
654.88	981.81
655.22	973.14
655.56	965.04
655.90	957.70
656.25	950.06
656.59	942.19
656.93	934.91
657.27	927.51
657.61	919.90
657.95	913.29
658.29	906.26
658.64	898.98
658.98	891.67
659.32	884.25
659.66	877.26
660.00	870.22
660.34	863.63
660.68	856.63
661.02	849.41
661.36	843.00
661.70	836.54
662.05	830.35
662.39	824.72
662.73	818.69
663.07	812.73
663.41	806.73
663.75	800.64
664.09	794.67
664.43	788.77
664.77	783.15
665.11	777.33
665.45	771.90
665.79	766.11
666.13	760.22
666.47	754.60
666.81	748.68
667.15	742.80
667.49	737.02
667.83	731.70
668.17	726.52
668.51	720.82
668.85	715.46
669.19	710.23
669.53	704.73
669.87	699.31
670.21	694.09
670.55	689.04
670.89	684.24
671.23	679.48
671.57	674.88
671.91	670.10
672.25	665.08
672.58	660.14
672.92	655.49
673.26	651.13
673.60	646.79
673.94	642.50
674.28	638.51
674.62	634.54
674.96	630.15
675.30	625.88
675.64	621.73
675.97	617.70
676.31	613.72
676.65	609.70
676.99	605.83
677.33	601.79
677.67	597.72
678.01	593.44
678.34	589.36
678.68	585.19
679.02	581.31
679.36	577.34
679.70	573.64
680.04	569.94
680.37	566.08
680.71	562.10
681.05	558.43
681.39	554.68
681.73	551.11
682.06	547.79
682.40	544.52
682.74	541.26
683.08	538.03
683.42	534.28
683.75	530.67
684.09	527.27
684.43	523.78
684.77	520.42
685.10	517.26
685.44	514.01
685.78	510.84
686.12	507.61
686.45	504.45
686.79	501.32
687.13	498.30
687.46	495.08
687.80	492.02
688.14	488.86
688.48	485.95
688.81	482.76
689.15	479.64
689.49	476.50
689.82	473.44
690.16	470.40
690.50	467.89
690.83	465.12
691.17	462.12
691.51	459.46
691.84	456.81
692.18	454.12
692.52	451.35
692.85	448.60
693.19	445.95
693.52	443.30
693.86	440.46
694.20	437.80
694.53	435.40
694.87	433.01
695.21	430.40
695.54	427.76
695.88	425.26
696.21	422.66
696.55	420.33
696.88	418.04
697.22	415.68
697.56	413.20
697.89	410.85
698.23	408.64
698.56	406.45
698.90	404.26
699.23	402.00
699.57	399.86
699.90	397.62
700.24	395.49
700.58	393.46
700.91	391.54
701.25	389.48
701.58	387.42
701.92	385.39
702.25	383.61
702.59	381.54
702.92	379.76
703.26	378.00
703.59	376.12
703.93	374.46
704.26	372.77
704.60	370.98
704.93	369.24
705.26	367.47
705.60	365.78
705.93	364.05
706.27	362.54
706.60	361.04
706.94	359.67
707.27	357.89
707.61	356.37
707.94	354.77
708.27	353.35
708.61	351.92
708.94	350.44
709.28	348.96
709.61	347.70
709.94	346.28
710.28	344.90
710.61	343.59
710.95	341.94
711.28	340.63
711.61	339.22
711.95	337.90
712.28	336.68
712.61	335.27
712.95	334.09
713.28	332.83
713.61	331.40
713.95	330.06
714.28	328.95
714.61	327.78
714.95	326.65
715.28	325.34
715.61	324.19
715.95	322.99
716.28	321.80
716.61	320.70
716.95	319.56
717.28	318.53
717.61	317.43
717.94	316.42
718.28	315.06
718.61	314.13
718.94	313.21
719.27	312.13
719.61	311.19
719.94	310.18
720.27	309.01
720.60	308.06
720.94	307.20
721.27	306.38
721.60	305.41
721.93	304.54
722.27	303.79
722.60	302.98
722.93	302.25
723.26	301.43
723.59	300.54
723.93	299.64
724.26	298.80
724.59	297.97
724.92	297.26
725.25	296.60
725.59	295.78
725.92	294.96
726.25	294.17
726.58	293.46
726.91	292.74
727.24	292.12
727.57	291.49
727.91	290.67
728.24	289.88
728.57	289.21
728.90	288.39
729.23	287.61
729.56	286.84
729.89	286.19
730.22	285.51
730.55	284.91
730.89	284.29
731.22	283.77
731.55	283.14
731.88	282.37
732.21	281.69
732.54	281.07
732.87	280.47
733.20	279.99
733.53	279.40
733.86	278.74
734.19	278.13
734.52	277.54
734.85	277.15
735.18	276.61
735.51	275.98
735.84	275.48
736.17	274.96
736.50	274.38
736.83	274.00
737.16	273.48
737.49	272.95
737.82	272.39
738.15	271.83
738.48	271.31
738.81	271.02
739.14	270.61
739.47	270.01
739.80	269.52
740.13	269.02
740.46	268.47
740.79	268.08
741.12	267.56
741.45	267.09
741.78	266.53
742.11	266.12
742.44	265.69
742.77	265.13
743.10	264.75
743.43	264.30
743.75	263.65
744.08	263.60
744.41	263.17
744.74	262.88
745.07	262.45
745.40	262.09
745.73	261.60
746.06	261.18
746.39	260.96
746.71	260.69
747.04	260.33
747.37	259.97
747.70	259.62
748.03	259.29
748.36	259.00
748.68	258.66
749.01	258.30
749.34	257.93
749.67	257.68
750.00	257.30
750.33	257.00
750.65	256.66
750.98	256.02
751.31	255.60
751.64	255.28
751.97	255.07
752.29	254.76
752.62	254.31
752.95	254.09
753.28	253.58
753.60	253.21
753.93	252.91
754.26	252.70
754.59	252.30
754.91	252.00
755.24	251.58
755.57	251.24
755.90	250.85
756.22	250.57
756.55	250.25
756.88	249.90
757.20	249.59
757.53	249.26
757.86	248.98
758.19	248.77
758.51	248.45
758.84	248.00
759.17	247.71
759.49	247.59
759.82	247.38
760.15	247.31
760.47	246.94
760.80	246.62
761.13	246.32
761.45	246.12
761.78	246.00
762.11	245.87
762.43	245.74
762.76	245.59
763.08	245.44
763.41	245.23
763.74	245.06
764.06	244.84
764.39	244.64
764.71	244.49
765.04	244.27
765.37	244.12
765.69	243.89
766.02	243.70
766.34	243.48
766.67	243.27
767.00	243.03
767.32	243.19
767.65	243.24
767.97	243.14
768.30	243.03
768.62	242.74
768.95	242.52
769.27	242.28
769.60	242.17
769.92	242.03
770.25	241.93
770.57	241.75
770.90	241.66
771.22	241.56
771.55	241.41
771.87	241.32
772.20	241.15
772.52	241.21
772.85	241.31
773.17	241.15
773.50	240.90
773.82	240.75
774.15	240.47
774.47	240.22
774.80	239.99
775.12	239.80
775.45	239.75
775.77	239.66
776.09	239.51
776.42	239.42
776.74	239.30
777.07	239.15
777.39	239.03
777.72	238.94
778.04	238.85
778.36	238.64
778.69	238.48
779.01	238.50
779.33	238.24
779.66	237.88
779.98	237.79
780.31	237.75
780.63	237.69
780.95	237.61
781.28	237.44
781.60	237.45
781.92	237.39
782.25	237.32
782.57	237.22
782.89	237.14
783.22	236.97
783.54	236.70
783.86	236.63
784.19	236.58
784.51	236.53
784.83	236.44
785.16	236.37
785.48	236.34
785.80	236.13
786.12	236.14
786.45	236.09
786.77	236.02
787.09	235.94
787.42	235.92
787.74	235.77
788.06	235.71
788.38	235.63
788.71	235.51
789.03	235.41
789.35	235.39
789.67	235.37
789.99	235.27
790.32	235.35
790.64	235.33
790.96	235.32
791.28	235.17
791.61	235.11
791.93	235.04
792.25	234.94
792.57	235.08
792.89	234.93
793.21	234.90
793.54	234.90
793.86	234.80
794.18	234.74
794.50	234.68
794.82	234.63
795.14	234.58
795.47	234.53
795.79	234.49
796.11	234.40
796.43	234.30
796.75	234.35
797.07	234.27
797.39	234.12
797.71	234.05
798.04	234.03
798.36	233.94
798.68	234.03
799.00	233.93
799.32	233.73
799.64	233.83
799.96	233.70
800.28	233.56
800.60	233.57
800.92	233.45
801.24	233.37
801.56	233.42
801.89	233.31
802.21	233.20
802.53	233.05
802.85	233.09
803.17	233.16
803.49	232.85
803.81	232.72
804.13	232.63
804.45	232.48
804.77	232.48
805.09	232.41
805.41	232.32
805.73	232.25
806.05	232.18
806.37	231.97
806.69	232.00
807.01	231.94
807.33	231.83
807.65	231.81
807.97	231.85
808.28	231.69
808.60	231.62
808.92	231.56
809.24	231.69
809.56	231.57
809.88	231.51
810.20	231.63
810.52	231.70
810.84	231.69
811.16	231.63
811.48	231.51
811.80	231.57
812.12	231.47
812.43	231.54
812.75	231.50
813.07	231.53
813.39	231.46
813.71	231.41
814.03	231.37
814.35	231.22
814.67	231.08
814.98	231.13
815.30	231.06
815.62	231.01
815.94	230.91
816.26	230.97
816.58	230.85
816.89	230.83
817.21	230.75
817.53	230.73
817.85	230.80
818.17	230.78
818.48	230.70
818.80	230.70
819.12	230.76
819.44	230.78
819.76	230.75
820.07	230.69
820.39	230.75
820.71	230.78
821.03	230.89
821.34	230.95
821.66	230.92
821.98	231.06
822.30	231.13
822.61	231.24
822.93	231.10
823.25	231.15
823.57	231.15
823.88	231.25
824.20	231.37
824.52	231.36
824.83	231.41
825.15	231.42
825.47	231.51
825.79	231.40
826.10	231.31
826.42	231.34
826.74	231.44
827.05	231.35
827.37	231.42
827.69	231.40
828.00	231.37
828.32	231.35
828.64	231.29
828.95	231.39
829.27	231.27
829.58	231.31
829.90	231.39
830.22	231.36
830.53	231.23
830.85	231.16
831.17	231.05
831.48	230.99
831.80	231.04
832.11	230.98
832.43	230.92
832.75	230.90
833.06	230.92
833.38	230.84
833.69	230.89
834.01	230.81
834.32	230.82
834.64	230.77
834.96	230.79
835.27	230.74
835.59	230.68
835.90	230.74
836.22	230.73
836.53	230.61
836.85	230.60
837.16	230.77
837.48	230.77
837.79	230.85
838.11	230.89
838.42	230.83
838.74	230.84
839.05	230.87
839.37	230.92
839.68	230.75
840.00	230.70
840.31	230.74
840.63	230.59
840.94	230.47
841.26	230.45
841.57	230.33
841.88	230.23
842.20	230.17
842.51	230.10
842.83	230.05
843.14	230.23
843.46	230.17
843.77	230.00
844.08	229.93
844.40	229.88
844.71	229.72
845.03	229.68
845.34	229.62
845.65	229.44
845.97	229.30
846.28	229.35
846.60	229.36
846.91	229.20
847.22	229.23
847.54	229.30
847.85	229.20
848.16	229.11
848.48	229.19
848.79	229.23
849.10	229.13
849.42	229.10
849.73	228.80
850.04	228.75
850.36	228.65
850.67	228.69
850.98	228.69
851.30	228.80
851.61	228.66
851.92	228.60
852.23	228.80
852.55	228.86
852.86	228.88
853.17	228.83
853.49	228.92
853.80	228.98
854.11	228.88
854.42	228.97
854.74	229.11
855.05	229.09
855.36	228.93
855.67	228.99
855.99	228.97
856.30	229.16
856.61	229.15
856.92	229.17
857.23	229.10
857.55	229.00
857.86	228.96
858.17	229.12
858.48	229.07
858.79	228.97
859.11	229.02
859.42	229.07
859.73	229.01
860.04	229.03
860.35	229.08
860.66	229.18
860.98	229.21
861.29	229.03
861.60	229.00
861.91	229.11
862.22	229.10
862.53	229.08
862.84	228.95
863.16	229.12
863.47	229.16
863.78	229.20
864.09	229.19
864.40	229.24
864.71	229.24
865.02	229.21
865.33	229.15
865.64	229.12
865.95	228.99
866.27	229.24
866.58	229.21
866.89	229.20
867.20	229.13
867.51	229.03
867.82	229.16
868.13	229.30
868.44	229.26
868.75	229.30
869.06	229.28
869.37	229.31
869.68	229.21
869.99	229.34
870.30	229.39
870.61	229.46
870.92	229.39
871.23	229.33
871.54	229.41
871.85	229.54
872.16	229.47
872.47	229.57
872.78	229.43
873.09	229.45
873.40	229.37
873.71	229.34
874.02	229.43
874.33	229.37
874.64	229.18
874.95	229.19
875.26	229.16
875.56	229.13
875.87	229.10
876.18	229.14
876.49	229.28
876.80	229.18
877.11	229.22
877.42	229.22
877.73	229.15
878.04	229.13
878.35	229.16
878.66	229.19
878.96	229.04
879.27	229.00
879.58	228.93
879.89	229.00
880.20	229.09
880.51	229.02
880.82	229.04
881.12	229.04
881.43	228.99
881.74	228.83
882.05	228.89
882.36	228.89
882.67	228.81
882.97	228.54
883.28	228.57
883.59	228.46
883.90	228.47
884.21	228.50
884.51	228.49
884.82	228.47
885.13	228.49
885.44	228.60
885.74	228.58
886.05	228.58
886.36	228.45
886.67	228.39
886.98	228.48
887.28	228.54
887.59	228.62
887.90	228.70
888.20	228.70
888.51	228.70
888.82	228.69
889.13	228.71
889.43	228.79
889.74	228.74
890.05	228.73
890.35	228.65
890.66	228.60
890.97	228.49
891.28	228.52
891.58	228.56
891.89	228.52
892.20	228.60
892.50	228.63
892.81	228.66
893.12	228.59
893.42	228.51
893.73	228.45
894.04	228.48
894.34	228.37
894.65	228.46
894.95	228.46
895.26	228.40
895.57	228.52
895.87	228.40
896.18	228.47
896.48	228.55
896.79	228.60
897.10	228.74
897.40	228.94
897.71	228.87
898.01	228.80
898.32	228.76
898.63	228.72
898.93	228.76
899.24	228.88
899.54	228.93
899.85	228.96
900.15	229.02
900.46	228.97
900.76	229.06
901.07	229.05
901.38	229.05
901.68	229.16
901.99	229.09
902.29	229.14
902.60	229.12
902.90	229.08
903.21	229.10
903.51	229.05
903.82	228.98
904.12	228.99
904.43	229.13
904.73	229.10
905.03	229.07
905.34	229.25
905.64	229.20
905.95	229.18
906.25	229.17
906.56	229.16
906.86	229.21
907.17	229.29
907.47	229.29
907.77	229.29
908.08	229.22
908.38	229.30
908.69	229.31
908.99	229.33
909.30	229.35
909.60	229.39
909.90	229.35
910.21	229.28
910.51	229.23
910.81	229.08
911.12	229.10
911.42	229.08
911.73	228.83
912.03	228.76
912.33	228.78
912.64	228.83
912.94	228.85
913.24	228.73
913.55	228.65
913.85	228.60
914.15	228.59
914.46	228.62
914.76	228.46
915.06	228.43
915.37	228.33
915.67	228.30
915.97	228.27
916.27	228.20
916.58	228.19
916.88	228.10
917.18	228.08
917.49	228.27
917.79	228.27
918.09	228.30
918.39	228.30
918.70	228.25
919.00	228.20
919.30	228.20
919.60	228.18
919.91	228.05
920.21	228.01
920.51	227.94
920.81	227.90
921.12	227.97
921.42	227.97
921.72	227.92
922.02	227.88
922.32	227.80
922.63	227.85
922.93	227.90
923.23	227.93
923.53	227.91
923.83	227.70
924.13	227.65
924.44	227.64
924.74	227.77
925.04	227.85
925.34	227.75
925.64	227.65
925.94	227.64
926.24	227.72
926.55	227.74
926.85	227.79
927.15	227.81
927.45	227.84
927.75	227.87
928.05	227.98
928.35	228.02
928.65	228.08
928.95	228.04
929.26	227.95
929.56	228.00
929.86	228.10
930.16	228.15
930.46	228.17
930.76	228.15
931.06	227.96
931.36	227.90
931.66	227.94
931.96	228.00
932.26	228.10
932.56	228.09
932.86	228.15
933.16	228.23
933.46	228.19
933.76	228.10
934.06	228.10
934.36	228.23
934.66	228.24
934.96	228.26
935.26	228.22
935.56	228.36
935.86	228.39
936.16	228.38
936.46	228.38
936.76	228.48
937.06	228.49
937.36	228.58
937.66	228.62
937.96	228.66
938.26	228.60
938.56	228.62
938.86	228.62
939.16	228.67
939.46	228.63
939.76	228.62
940.06	228.76
940.35	228.79
940.65	228.65
940.95	228.72
941.25	228.77
941.55	228.97
941.85	228.99
942.15	229.04
942.45	229.10
942.75	229.16
943.04	229.06
943.34	229.16
943.64	229.17
943.94	229.14
944.24	229.16
944.54	229.18
944.84	229.17
945.13	229.25
945.43	229.06
945.73	229.19
946.03	229.21
946.33	229.08
946.62	229.07
946.92	229.05
947.22	228.94
947.52	229.01
947.82	228.92
948.11	228.82
948.41	228.70
948.71	228.73
949.01	228.71
949.31	228.69
949.60	228.63
949.90	228.69
950.20	228.68
950.50	228.69
950.79	228.66
951.09	228.72
951.39	228.65
951.69	228.81
951.98	228.64
952.28	228.58
952.58	228.45
952.87	228.42
953.17	228.40
953.47	228.53
953.76	228.42
954.06	228.36
954.36	228.32
954.66	228.39
954.95	228.27
955.25	228.24
955.55	228.31
955.84	228.20
956.14	228.19
956.44	228.11
956.73	228.00
957.03	228.04
957.32	227.92
957.62	227.93
957.92	227.92
958.21	228.00
958.51	228.20
958.81	228.28
959.10	228.20
959.40	228.18
959.69	228.09
959.99	228.08
960.29	228.15
960.58	228.11
960.88	228.20
961.17	228.10
961.47	228.13
961.76	228.11
962.06	228.15
962.36	228.08
962.65	228.12
962.95	228.17
963.24	228.11
963.54	228.19
963.83	228.15
964.13	228.18
964.42	228.12
964.72	228.03
965.01	228.02
965.31	228.09
965.60	228.05
965.90	228.09
966.19	228.02
966.49	227.96
966.78	228.03
967.08	227.97
967.37	228.13
967.67	228.07
967.96	228.07
968.26	228.02
968.55	228.07
968.85	228.14
969.14	228.13
969.43	228.20
969.73	228.15
970.02	228.17
970.32	228.14
970.61	228.13
970.91	228.08
971.20	228.12
971.49	228.12
971.79	228.20
972.08	228.17
972.38	228.15
972.67	228.20
972.96	228.20
973.26	228.19
973.55	228.20
973.85	228.17
974.14	228.27
974.43	228.41
974.73	228.32
975.02	228.39
975.31	228.47
975.61	228.42
975.90	228.45
976.19	228.43
976.49	228.45
976.78	228.46
977.07	228.60
977.37	228.70
977.66	228.76
977.95	228.80
978.24	228.87
978.54	228.94
978.83	228.88
979.12	228.95
979.42	228.90
979.71	228.91
980.00	229.02
980.29	228.92
980.59	228.82
980.88	228.99
981.17	229.00
981.46	229.00
981.76	229.01
982.05	228.97
982.34	229.00
982.63	228.93
982.93	228.90
983.22	228.82
983.51	228.80
983.80	228.78
984.09	228.82
984.39	228.76
984.68	228.77
984.97	228.92
985.26	228.85
985.55	228.93
985.85	228.86
986.14	228.88
986.43	228.98
986.72	229.00
987.01	228.85
987.30	228.80
987.59	228.75
987.89	228.75
988.18	228.79
988.47	228.77
988.76	228.87
989.05	228.80
989.34	228.84
989.63	228.91
989.92	228.86
990.22	228.77
990.51	228.74
990.80	228.70
991.09	228.62
991.38	228.64
991.67	228.56
991.96	228.52
992.25	228.46
992.54	228.27
992.83	228.30
993.12	228.34
993.41	228.31
993.70	228.37
993.99	228.42
994.28	228.49
994.58	228.52
994.87	228.43
995.16	228.58
995.45	228.45
995.74	228.26
996.03	228.28
996.32	228.28
996.61	228.27
996.90	228.20
997.19	228.13
997.48	228.14
997.77	228.17
998.06	228.17
998.34	228.26
998.63	228.30
998.92	228.19
999.21	228.29
999.50	228.24
999.79	228.09
1000.08	227.95
1000.37	227.82
1000.66	227.82
1000.95	227.84
1001.24	227.77
1001.53	227.82
1001.82	227.86
1002.11	227.79
1002.40	227.70
1002.68	227.80
1002.97	228.00
1003.26	227.93
1003.55	227.93
1003.84	227.89
1004.13	227.90
1004.42	227.77
1004.71	227.77
1004.99	227.85
1005.28	227.74
1005.57	227.71
1005.86	227.78
1006.15	227.92
1006.44	227.86
1006.72	227.81
1007.01	227.79
1007.30	227.75
1007.59	227.79
1007.88	227.77
1008.17	227.80
1008.45	227.90
1008.74	227.76
1009.03	227.64
1009.32	227.76
1009.60	227.69
1009.89	227.70
1010.18	227.68
1010.47	227.70
1010.76	227.73
1011.04	227.64
1011.33	227.76
1011.62	227.88
1011.91	227.94
1012.19	227.86
1012.48	227.96
1012.77	227.94
1013.05	227.94
1013.34	228.03
1013.63	227.93
1013.92	227.98
1014.20	227.93
1014.49	227.92
1014.78	227.97
1015.06	227.92
1015.35	227.92
1015.64	228.09
1015.92	228.06
1016.21	228.06
1016.50	228.09
1016.78	228.13
1017.07	228.29
1017.36	228.25
1017.64	228.19
1017.93	228.23
1018.22	228.33
1018.50	228.26
1018.79	228.34
1019.08	228.40
1019.36	228.41
1019.65	228.48
1019.93	228.58
1020.22	228.65
1020.51	228.75
1020.79	228.68
1021.08	229.20
1021.36	226.80
1021.65	228.60
1021.94	229.30
1022.22	228.60
1022.51	228.80
1022.79	230.10
1023.08	228.20
1023.36	230.60
1023.65	226.50
>>>>>End Processed Spectral Data<<<<<
