SpectraSuite Data File
++++++++++++++++++++++++++++++++++++
Date: Fri Feb 01 14:34:14 EST 2013
User: group
Dark Spectrum Present: No
Reference Spectrum Present: No
Number of Sampled Component Spectra: 1
Spectrometers: USB2E7196
Integration Time (usec): 70000 (USB2E7196)
Spectra Averaged: 10 (USB2E7196)
Boxcar Smoothing: 10 (USB2E7196)
Correct for Electrical Dark: No (USB2E7196)
Strobe/Lamp Enabled: No (USB2E7196)
Correct for Detector Non-linearity: No (USB2E7196)
Correct for Stray Light: No (USB2E7196)
Number of Pixels in Processed Spectrum: 2048
>>>>>Begin Processed Spectral Data<<<<<
339.09	0.00
339.48	215.70
339.86	217.30
340.24	218.30
340.63	221.10
341.01	226.30
341.39	224.20
341.78	226.70
342.16	225.00
342.54	226.50
342.93	215.10
343.31	226.01
343.69	226.57
344.07	227.03
344.46	227.54
344.84	227.92
345.22	228.02
345.60	228.21
345.99	228.24
346.37	228.43
346.75	228.50
347.13	228.54
347.52	228.61
347.90	228.78
348.28	228.87
348.66	228.97
349.05	228.99
349.43	228.93
349.81	229.02
350.19	229.06
350.57	229.09
350.96	229.16
351.34	229.13
351.72	229.18
352.10	229.29
352.48	229.35
352.87	229.40
353.25	229.50
353.63	229.58
354.01	229.66
354.39	229.74
354.77	229.84
355.15	229.93
355.54	230.00
355.92	229.99
356.30	230.01
356.68	230.12
357.06	230.00
357.44	230.06
357.82	230.08
358.20	230.13
358.58	230.27
358.97	230.30
359.35	230.50
359.73	230.70
360.11	230.80
360.49	230.80
360.87	230.70
361.25	230.71
361.63	230.80
362.01	230.93
362.39	230.93
362.77	231.00
363.15	231.00
363.53	231.00
363.91	230.99
364.29	231.05
364.67	230.84
365.05	231.01
365.43	230.98
365.81	230.97
366.19	231.09
366.57	231.06
366.95	231.10
367.33	230.99
367.71	230.96
368.09	230.92
368.47	230.93
368.85	231.07
369.23	231.07
369.61	231.03
369.99	231.06
370.37	231.07
370.75	231.10
371.13	231.04
371.51	231.01
371.89	230.96
372.27	230.88
372.65	230.97
373.03	230.88
373.41	230.85
373.78	230.85
374.16	230.64
374.54	230.49
374.92	230.37
375.30	230.29
375.68	230.13
376.06	230.02
376.44	229.93
376.82	229.80
377.19	229.77
377.57	229.61
377.95	229.45
378.33	229.31
378.71	229.12
379.09	229.04
379.47	228.94
379.84	228.76
380.22	228.65
380.60	228.32
380.98	228.17
381.36	228.06
381.73	227.90
382.11	227.84
382.49	227.79
382.87	227.73
383.25	227.60
383.62	227.84
384.00	227.78
384.38	227.70
384.76	227.65
385.13	227.57
385.51	227.65
385.89	227.60
386.27	227.61
386.64	227.64
387.02	227.48
387.40	227.39
387.78	227.42
388.15	227.43
388.53	227.58
388.91	227.63
389.29	227.59
389.66	227.63
390.04	227.63
390.42	227.62
390.79	227.61
391.17	227.62
391.55	227.35
391.92	227.30
392.30	227.35
392.68	227.34
393.05	227.42
393.43	227.38
393.81	227.42
394.18	227.36
394.56	227.45
394.94	227.65
395.31	227.67
395.69	227.84
396.06	227.90
396.44	228.01
396.82	228.10
397.19	228.22
397.57	228.28
397.95	228.46
398.32	228.52
398.70	228.69
399.07	228.91
399.45	229.05
399.82	229.21
400.20	229.28
400.58	229.46
400.95	229.50
401.33	229.68
401.70	229.98
402.08	230.22
402.45	230.45
402.83	230.70
403.20	230.96
403.58	231.21
403.95	231.45
404.33	231.60
404.71	231.89
405.08	232.28
405.46	232.63
405.83	232.97
406.21	233.37
406.58	233.78
406.96	234.31
407.33	234.75
407.70	235.25
408.08	235.96
408.45	236.50
408.83	237.13
409.20	237.64
409.58	238.17
409.95	238.85
410.33	239.51
410.70	240.22
411.08	241.12
411.45	241.98
411.82	242.88
412.20	244.04
412.57	245.23
412.95	246.34
413.32	247.49
413.69	248.79
414.07	250.25
414.44	251.68
414.82	253.10
415.19	254.76
415.56	256.54
415.94	258.39
416.31	260.50
416.68	262.55
417.06	264.97
417.43	267.21
417.81	269.79
418.18	272.46
418.55	275.26
418.93	278.18
419.30	281.21
419.67	284.46
420.04	287.83
420.42	291.37
420.79	295.28
421.16	299.44
421.54	303.48
421.91	307.66
422.28	311.99
422.66	316.70
423.03	321.48
423.40	326.26
423.77	331.22
424.15	336.32
424.52	341.65
424.89	347.42
425.26	353.05
425.64	358.53
426.01	364.30
426.38	370.52
426.75	376.81
427.13	383.32
427.50	390.19
427.87	397.10
428.24	403.92
428.61	410.63
428.99	418.01
429.36	426.15
429.73	434.10
430.10	441.83
430.47	449.72
430.85	457.88
431.22	466.57
431.59	476.03
431.96	485.06
432.33	494.95
432.70	504.50
433.08	515.51
433.45	525.76
433.82	536.28
434.19	547.77
434.56	558.79
434.93	569.63
435.30	580.31
435.68	592.25
436.05	604.18
436.42	615.87
436.79	626.22
437.16	637.47
437.53	649.39
437.90	661.60
438.27	673.43
438.64	685.68
439.01	696.95
439.38	707.04
439.75	717.02
440.13	727.93
440.50	738.43
440.87	747.46
441.24	756.78
441.61	766.78
441.98	774.42
442.35	783.53
442.72	792.39
443.09	801.19
443.46	806.97
443.83	810.72
444.20	814.30
444.57	819.53
444.94	822.59
445.31	825.69
445.68	828.56
446.05	830.56
446.42	830.75
446.79	830.71
447.16	830.55
447.53	830.75
447.90	828.00
448.27	825.11
448.64	819.90
449.01	816.78
449.37	810.31
449.74	803.94
450.11	796.02
450.48	787.36
450.85	778.44
451.22	770.90
451.59	764.06
451.96	757.34
452.33	747.73
452.70	739.09
453.07	728.45
453.43	717.66
453.80	707.30
454.17	696.98
454.54	687.47
454.91	676.93
455.28	666.49
455.65	656.86
456.02	646.86
456.38	638.78
456.75	628.34
457.12	619.57
457.49	610.77
457.86	602.47
458.23	595.16
458.59	586.97
458.96	578.53
459.33	571.11
459.70	563.81
460.07	558.01
460.43	551.16
460.80	544.68
461.17	539.13
461.54	533.12
461.91	527.58
462.27	521.80
462.64	516.96
463.01	511.63
463.38	506.56
463.74	501.40
464.11	496.76
464.48	492.67
464.85	488.21
465.21	484.83
465.58	481.12
465.95	476.94
466.32	473.50
466.68	470.04
467.05	466.37
467.42	462.86
467.78	459.04
468.15	455.46
468.52	452.82
468.88	449.29
469.25	446.27
469.62	443.60
469.98	441.02
470.35	438.27
470.72	435.63
471.08	432.87
471.45	430.83
471.82	428.51
472.18	426.01
472.55	424.26
472.92	422.10
473.28	420.20
473.65	418.30
474.02	416.33
474.38	414.75
474.75	413.60
475.11	412.20
475.48	411.10
475.85	410.23
476.21	409.28
476.58	408.40
476.94	407.61
477.31	406.93
477.67	406.03
478.04	405.50
478.41	405.19
478.77	404.90
479.14	404.19
479.50	404.05
479.87	404.04
480.23	404.12
480.60	404.17
480.96	404.10
481.33	404.32
481.69	404.54
482.06	404.86
482.42	404.90
482.79	405.03
483.15	405.42
483.52	406.18
483.88	406.71
484.25	407.34
484.61	408.07
484.98	408.91
485.34	410.04
485.71	411.23
486.07	412.57
486.44	413.63
486.80	415.21
487.17	416.64
487.53	418.36
487.90	419.92
488.26	421.64
488.62	423.63
488.99	425.58
489.35	427.66
489.72	429.69
490.08	432.09
490.44	434.65
490.81	437.30
491.17	439.73
491.54	442.63
491.90	445.38
492.26	448.28
492.63	451.30
492.99	454.41
493.36	457.63
493.72	460.96
494.08	464.48
494.45	468.11
494.81	471.90
495.17	475.39
495.54	479.21
495.90	482.94
496.26	486.87
496.63	490.96
496.99	495.26
497.35	499.80
497.72	504.18
498.08	508.59
498.44	513.00
498.80	517.81
499.17	522.50
499.53	527.32
499.89	532.11
500.26	536.93
500.62	541.70
500.98	546.95
501.34	552.00
501.71	557.01
502.07	561.88
502.43	566.95
502.79	572.15
503.16	577.24
503.52	582.60
503.88	587.46
504.24	592.68
504.60	597.82
504.97	603.04
505.33	608.31
505.69	613.83
506.05	619.02
506.41	623.94
506.78	628.81
507.14	633.95
507.50	639.21
507.86	644.56
508.22	649.59
508.59	654.21
508.95	659.16
509.31	664.35
509.67	669.51
510.03	674.34
510.39	679.30
510.75	684.38
511.12	689.22
511.48	694.30
511.84	699.03
512.20	703.53
512.56	708.10
512.92	712.57
513.28	716.82
513.64	721.06
514.00	725.42
514.37	729.66
514.73	733.65
515.09	737.54
515.45	741.10
515.81	744.97
516.17	748.93
516.53	752.86
516.89	756.37
517.25	759.69
517.61	763.38
517.97	766.69
518.33	769.73
518.69	772.78
519.05	775.93
519.41	779.15
519.77	782.73
520.13	785.87
520.49	788.71
520.85	791.33
521.21	794.42
521.57	797.60
521.93	800.27
522.29	803.33
522.65	806.21
523.01	808.85
523.37	811.08
523.73	813.46
524.09	815.62
524.45	818.21
524.81	820.93
525.17	823.40
525.53	826.01
525.89	828.52
526.25	831.09
526.61	833.40
526.97	835.71
527.33	837.84
527.68	840.10
528.04	842.54
528.40	844.96
528.76	847.39
529.12	849.76
529.48	852.57
529.84	854.58
530.20	857.17
530.56	860.10
530.91	863.33
531.27	866.04
531.63	868.57
531.99	871.02
532.35	873.43
532.71	875.53
533.07	877.97
533.42	880.78
533.78	883.15
534.14	885.74
534.50	887.93
534.86	890.00
535.21	891.88
535.57	894.60
535.93	897.12
536.29	899.46
536.65	901.58
537.00	903.47
537.36	906.36
537.72	908.44
538.08	910.60
538.44	912.87
538.79	915.05
539.15	917.13
539.51	919.63
539.87	922.11
540.22	924.70
540.58	927.42
540.94	929.32
541.29	931.85
541.65	934.21
542.01	937.07
542.37	940.00
542.72	942.60
543.08	944.68
543.44	947.08
543.79	949.11
544.15	951.52
544.51	954.55
544.87	957.00
545.22	959.60
545.58	961.62
545.94	963.49
546.29	966.14
546.65	968.51
547.01	970.40
547.36	972.51
547.72	974.48
548.07	976.50
548.43	979.04
548.79	981.25
549.14	983.18
549.50	984.86
549.86	986.53
550.21	988.70
550.57	990.88
550.92	993.27
551.28	995.58
551.64	997.66
551.99	999.54
552.35	1001.31
552.70	1003.15
553.06	1005.45
553.41	1008.02
553.77	1009.84
554.13	1011.94
554.48	1014.18
554.84	1016.47
555.19	1018.44
555.55	1020.36
555.90	1022.19
556.26	1024.08
556.61	1026.36
556.97	1028.33
557.32	1030.41
557.68	1032.71
558.03	1034.82
558.39	1036.54
558.74	1038.69
559.10	1040.66
559.45	1042.59
559.81	1044.91
560.16	1046.79
560.52	1048.87
560.87	1050.66
561.23	1052.44
561.58	1054.58
561.94	1056.65
562.29	1058.31
562.64	1060.14
563.00	1061.88
563.35	1063.76
563.71	1065.99
564.06	1067.72
564.42	1069.34
564.77	1071.39
565.12	1073.11
565.48	1074.68
565.83	1076.13
566.19	1077.59
566.54	1078.85
566.89	1080.18
567.25	1081.30
567.60	1083.24
567.96	1084.90
568.31	1086.12
568.66	1087.42
569.02	1088.28
569.37	1089.06
569.72	1089.97
570.08	1091.17
570.43	1091.96
570.78	1092.50
571.14	1092.68
571.49	1093.40
571.84	1094.78
572.20	1094.80
572.55	1094.93
572.90	1095.06
573.26	1095.65
573.61	1095.81
573.96	1096.19
574.31	1096.00
574.67	1095.30
575.02	1094.48
575.37	1093.59
575.72	1092.97
576.08	1092.44
576.43	1092.20
576.78	1091.75
577.13	1091.50
577.49	1090.89
577.84	1090.74
578.19	1090.42
578.54	1089.75
578.90	1088.63
579.25	1086.98
579.60	1085.93
579.95	1084.99
580.30	1083.69
580.66	1082.07
581.01	1080.65
581.36	1079.20
581.71	1078.05
582.06	1076.91
582.42	1075.66
582.77	1074.47
583.12	1073.04
583.47	1071.63
583.82	1069.96
584.17	1068.28
584.53	1066.46
584.88	1065.12
585.23	1063.06
585.58	1061.05
585.93	1059.32
586.28	1058.10
586.63	1056.75
586.98	1055.39
587.34	1053.58
587.69	1052.11
588.04	1050.68
588.39	1049.32
588.74	1047.34
589.09	1045.23
589.44	1043.29
589.79	1041.36
590.14	1039.41
590.49	1037.33
590.84	1035.31
591.19	1033.41
591.54	1031.12
591.89	1028.41
592.25	1025.96
592.60	1023.43
592.95	1021.06
593.30	1018.51
593.65	1015.52
594.00	1012.74
594.35	1010.34
594.70	1007.10
595.05	1004.50
595.40	1001.54
595.75	998.47
596.10	996.06
596.45	993.62
596.80	991.56
597.15	988.86
597.50	985.71
597.85	983.40
598.19	980.73
598.54	977.91
598.89	975.32
599.24	973.21
599.59	970.28
599.94	967.89
600.29	964.96
600.64	962.19
600.99	959.53
601.34	957.02
601.69	953.53
602.04	951.09
602.39	947.99
602.74	945.38
603.08	942.85
603.43	940.20
603.78	937.42
604.13	934.23
604.48	931.50
604.83	928.93
605.18	925.92
605.53	922.81
605.87	919.59
606.22	916.76
606.57	913.54
606.92	910.78
607.27	907.57
607.62	904.98
607.96	902.12
608.31	899.31
608.66	895.88
609.01	893.14
609.36	889.80
609.70	886.60
610.05	883.14
610.40	880.15
610.75	876.44
611.10	873.03
611.44	869.39
611.79	866.00
612.14	862.50
612.49	858.54
612.83	854.89
613.18	851.40
613.53	847.73
613.88	843.91
614.22	840.08
614.57	836.44
614.92	832.65
615.27	829.38
615.61	825.36
615.96	821.85
616.31	818.43
616.65	815.45
617.00	811.94
617.35	808.46
617.70	804.43
618.04	800.73
618.39	797.33
618.74	794.06
619.08	790.19
619.43	786.79
619.78	783.62
620.12	780.50
620.47	777.11
620.82	773.72
621.16	770.57
621.51	767.44
621.85	764.01
622.20	760.60
622.55	757.10
622.89	753.86
623.24	750.76
623.59	747.38
623.93	744.14
624.28	741.18
624.62	737.99
624.97	735.04
625.32	732.06
625.66	728.83
626.01	725.64
626.35	722.82
626.70	719.83
627.04	716.82
627.39	713.79
627.73	710.84
628.08	707.65
628.43	704.55
628.77	701.20
629.12	697.90
629.46	694.85
629.81	691.43
630.15	688.18
630.50	684.84
630.84	681.60
631.19	677.95
631.53	674.72
631.88	671.33
632.22	667.77
632.57	664.55
632.91	661.17
633.26	658.03
633.60	654.45
633.95	651.09
634.29	647.85
634.64	644.55
634.98	641.17
635.32	638.39
635.67	635.37
636.01	632.76
636.36	629.84
636.70	627.00
637.05	624.31
637.39	621.40
637.73	618.75
638.08	616.20
638.42	614.14
638.77	611.23
639.11	608.47
639.45	605.63
639.80	602.88
640.14	600.26
640.49	597.45
640.83	594.91
641.17	592.19
641.52	589.51
641.86	586.94
642.20	584.58
642.55	581.85
642.89	579.28
643.23	576.46
643.58	574.18
643.92	571.25
644.26	568.49
644.61	566.23
644.95	563.52
645.29	560.56
645.64	557.53
645.98	555.09
646.32	552.78
646.66	550.44
647.01	547.89
647.35	545.45
647.69	542.97
648.04	540.56
648.38	537.94
648.72	535.20
649.06	532.42
649.41	529.70
649.75	526.96
650.09	524.31
650.43	521.63
650.78	518.83
651.12	516.47
651.46	513.88
651.80	511.26
652.14	508.83
652.49	506.56
652.83	504.29
653.17	501.76
653.51	499.14
653.85	496.55
654.20	494.15
654.54	491.46
654.88	488.88
655.22	486.25
655.56	483.84
655.90	481.67
656.25	479.30
656.59	476.98
656.93	474.79
657.27	472.53
657.61	470.06
657.95	467.90
658.29	465.62
658.64	463.60
658.98	461.29
659.32	458.91
659.66	456.60
660.00	454.08
660.34	451.82
660.68	449.65
661.02	447.46
661.36	445.33
661.70	443.28
662.05	441.25
662.39	439.32
662.73	437.39
663.07	435.60
663.41	433.79
663.75	431.92
664.09	429.92
664.43	427.91
664.77	426.11
665.11	424.21
665.45	422.25
665.79	420.29
666.13	418.45
666.47	416.62
666.81	414.67
667.15	412.82
667.49	411.04
667.83	409.43
668.17	407.76
668.51	405.99
668.85	404.41
669.19	402.96
669.53	401.32
669.87	399.58
670.21	397.82
670.55	396.14
670.89	394.69
671.23	393.15
671.57	391.67
671.91	390.38
672.25	388.88
672.58	387.55
672.92	386.10
673.26	384.72
673.60	383.38
673.94	382.21
674.28	381.08
674.62	379.79
674.96	378.40
675.30	377.19
675.64	375.99
675.97	374.55
676.31	373.26
676.65	372.00
676.99	370.87
677.33	369.59
677.67	368.36
678.01	366.92
678.34	365.62
678.68	364.38
679.02	362.91
679.36	361.76
679.70	360.40
680.04	359.20
680.37	357.98
680.71	356.81
681.05	355.59
681.39	354.33
681.73	353.23
682.06	352.12
682.40	350.93
682.74	349.70
683.08	348.82
683.42	347.53
683.75	346.27
684.09	345.16
684.43	343.96
684.77	342.87
685.10	341.74
685.44	340.60
685.78	339.54
686.12	338.54
686.45	337.50
686.79	336.49
687.13	335.41
687.46	334.40
687.80	333.40
688.14	332.39
688.48	331.46
688.81	330.40
689.15	329.28
689.49	328.18
689.82	327.26
690.16	326.23
690.50	325.26
690.83	324.36
691.17	323.29
691.51	322.49
691.84	321.46
692.18	320.60
692.52	319.65
692.85	318.68
693.19	317.84
693.52	316.81
693.86	315.76
694.20	314.71
694.53	313.72
694.87	312.71
695.21	311.75
695.54	310.75
695.88	309.73
696.21	308.75
696.55	307.92
696.88	307.04
697.22	306.11
697.56	305.15
697.89	304.34
698.23	303.50
698.56	302.53
698.90	301.85
699.23	300.94
699.57	300.11
699.90	299.20
700.24	298.29
700.58	297.52
700.91	297.00
701.25	296.43
701.58	295.78
701.92	295.06
702.25	294.30
702.59	293.61
702.92	292.96
703.26	292.31
703.59	291.74
703.93	291.21
704.26	290.43
704.60	289.87
704.93	289.26
705.26	288.69
705.60	288.16
705.93	287.45
706.27	286.99
706.60	286.41
706.94	286.00
707.27	285.35
707.61	284.85
707.94	284.14
708.27	283.54
708.61	282.82
708.94	282.18
709.28	281.61
709.61	280.98
709.94	280.50
710.28	279.88
710.61	279.29
710.95	278.47
711.28	278.06
711.61	277.57
711.95	276.92
712.28	276.30
712.61	275.73
712.95	275.20
713.28	274.63
713.61	274.07
713.95	273.48
714.28	272.97
714.61	272.29
714.95	271.80
715.28	271.29
715.61	270.77
715.95	270.32
716.28	269.80
716.61	269.41
716.95	269.01
717.28	268.62
717.61	268.16
717.94	267.80
718.28	267.24
718.61	266.88
718.94	266.51
719.27	266.15
719.61	265.70
719.94	265.35
720.27	264.85
720.60	264.51
720.94	264.11
721.27	263.82
721.60	263.67
721.93	263.39
722.27	262.97
722.60	262.78
722.93	262.46
723.26	262.28
723.59	261.81
723.93	261.35
724.26	261.11
724.59	260.81
724.92	260.56
725.25	260.35
725.59	259.98
725.92	259.73
726.25	259.35
726.58	259.08
726.91	258.81
727.24	258.63
727.57	258.40
727.91	258.11
728.24	257.91
728.57	257.47
728.90	257.13
729.23	256.92
729.56	256.60
729.89	256.31
730.22	255.99
730.55	255.77
730.89	255.61
731.22	255.33
731.55	255.01
731.88	254.72
732.21	254.37
732.54	254.05
732.87	253.76
733.20	253.60
733.53	253.45
733.86	253.31
734.19	253.05
734.52	252.86
734.85	252.73
735.18	252.34
735.51	252.27
735.84	252.00
736.17	251.74
736.50	251.42
736.83	251.46
737.16	251.14
737.49	251.04
737.82	250.75
738.15	250.58
738.48	250.46
738.81	250.13
739.14	249.98
739.47	249.78
739.80	249.61
740.13	249.45
740.46	249.12
740.79	248.79
741.12	248.60
741.45	248.35
741.78	248.10
742.11	247.94
742.44	247.66
742.77	247.42
743.10	247.12
743.43	247.01
743.75	246.48
744.08	246.60
744.41	246.40
744.74	246.20
745.07	246.00
745.40	245.80
745.73	245.87
746.06	245.67
746.39	245.53
746.71	245.36
747.04	245.11
747.37	244.92
747.70	244.75
748.03	244.56
748.36	244.32
748.68	244.10
749.01	243.89
749.34	243.68
749.67	243.61
750.00	243.54
750.33	243.52
750.65	243.40
750.98	243.03
751.31	242.83
751.64	242.63
751.97	242.44
752.29	242.24
752.62	241.92
752.95	241.76
753.28	241.62
753.60	241.43
753.93	241.37
754.26	241.27
754.59	240.97
754.91	240.72
755.24	240.61
755.57	240.43
755.90	240.40
756.22	240.25
756.55	240.16
756.88	239.98
757.20	239.70
757.53	239.60
757.86	239.54
758.19	239.47
758.51	239.41
758.84	239.25
759.17	239.18
759.49	239.11
759.82	238.94
760.15	238.86
760.47	238.71
760.80	238.57
761.13	238.48
761.45	238.50
761.78	238.51
762.11	238.46
762.43	238.37
762.76	238.29
763.08	238.24
763.41	238.02
763.74	237.98
764.06	237.90
764.39	237.76
764.71	237.67
765.04	237.46
765.37	237.45
765.69	237.33
766.02	237.17
766.34	236.98
766.67	236.97
767.00	236.83
767.32	236.89
767.65	236.82
767.97	236.68
768.30	236.49
768.62	236.45
768.95	236.31
769.27	236.26
769.60	236.07
769.92	235.86
770.25	235.87
770.57	235.66
770.90	235.50
771.22	235.43
771.55	235.26
771.87	235.20
772.20	235.02
772.52	235.13
772.85	235.31
773.17	235.25
773.50	235.14
773.82	235.10
774.15	234.82
774.47	234.63
774.80	234.65
775.12	234.74
775.45	234.58
775.77	234.53
776.09	234.37
776.42	234.31
776.74	234.37
777.07	234.24
777.39	234.31
777.72	234.35
778.04	234.34
778.36	234.26
778.69	234.27
779.01	234.24
779.33	233.95
779.66	233.66
779.98	233.58
780.31	233.52
780.63	233.50
780.95	233.50
781.28	233.41
781.60	233.26
781.92	233.13
782.25	233.10
782.57	233.03
782.89	233.05
783.22	233.06
783.54	233.00
783.86	232.90
784.19	232.88
784.51	232.83
784.83	232.76
785.16	232.73
785.48	232.65
785.80	232.59
786.12	232.64
786.45	232.65
786.77	232.70
787.09	232.69
787.42	232.52
787.74	232.51
788.06	232.56
788.38	232.58
788.71	232.55
789.03	232.57
789.35	232.53
789.67	232.50
789.99	232.51
790.32	232.44
790.64	232.52
790.96	232.59
791.28	232.46
791.61	232.42
791.93	232.45
792.25	232.36
792.57	232.47
792.89	232.28
793.21	232.30
793.54	232.18
793.86	232.10
794.18	232.17
794.50	232.14
794.82	232.19
795.14	232.15
795.47	232.18
795.79	232.17
796.11	232.14
796.43	232.13
796.75	232.05
797.07	232.14
797.39	232.04
797.71	231.88
798.04	231.92
798.36	231.89
798.68	231.86
799.00	231.94
799.32	231.87
799.64	231.99
799.96	231.89
800.28	231.96
800.60	232.04
800.92	231.91
801.24	231.92
801.56	231.91
801.89	231.87
802.21	231.87
802.53	231.79
802.85	231.82
803.17	231.86
803.49	231.75
803.81	231.70
804.13	231.69
804.45	231.62
804.77	231.64
805.09	231.68
805.41	231.60
805.73	231.47
806.05	231.36
806.37	231.35
806.69	231.28
807.01	231.20
807.33	231.08
807.65	231.08
807.97	231.10
808.28	230.88
808.60	230.84
808.92	230.66
809.24	230.78
809.56	230.70
809.88	230.64
810.20	230.69
810.52	230.61
810.84	230.59
811.16	230.49
811.48	230.34
811.80	230.29
812.12	230.21
812.43	230.30
812.75	230.29
813.07	230.29
813.39	230.35
813.71	230.23
814.03	230.10
814.35	230.13
814.67	230.05
814.98	230.06
815.30	230.05
815.62	230.02
815.94	229.81
816.26	229.99
816.58	229.85
816.89	229.84
817.21	229.80
817.53	229.87
817.85	229.86
818.17	229.87
818.48	229.83
818.80	229.81
819.12	229.75
819.44	229.72
819.76	229.62
820.07	229.61
820.39	229.69
820.71	229.77
821.03	229.69
821.34	229.55
821.66	229.56
821.98	229.55
822.30	229.55
822.61	229.54
822.93	229.33
823.25	229.37
823.57	229.28
823.88	229.34
824.20	229.18
824.52	229.25
824.83	229.21
825.15	229.13
825.47	229.13
825.79	229.10
826.10	228.98
826.42	229.07
826.74	229.03
827.05	229.02
827.37	229.13
827.69	229.10
828.00	229.18
828.32	229.21
828.64	229.20
828.95	229.33
829.27	229.33
829.58	229.28
829.90	229.29
830.22	229.36
830.53	229.29
830.85	229.34
831.17	229.23
831.48	229.28
831.80	229.37
832.11	229.36
832.43	229.35
832.75	229.40
833.06	229.40
833.38	229.32
833.69	229.24
834.01	229.21
834.32	229.32
834.64	229.33
834.96	229.35
835.27	229.36
835.59	229.36
835.90	229.40
836.22	229.41
836.53	229.44
836.85	229.43
837.16	229.60
837.48	229.74
837.79	229.88
838.11	229.90
838.42	229.82
838.74	229.95
839.05	229.92
839.37	230.00
839.68	229.88
840.00	229.94
840.31	230.08
840.63	229.99
840.94	229.99
841.26	229.90
841.57	229.85
841.88	229.85
842.20	229.81
842.51	229.73
842.83	229.79
843.14	230.00
843.46	230.02
843.77	229.93
844.08	229.70
844.40	229.56
844.71	229.52
845.03	229.51
845.34	229.42
845.65	229.37
845.97	229.27
846.28	229.30
846.60	229.27
846.91	229.20
847.22	229.21
847.54	229.20
847.85	229.30
848.16	229.31
848.48	229.28
848.79	229.24
849.10	229.25
849.42	229.17
849.73	228.85
850.04	228.84
850.36	228.74
850.67	228.86
850.98	228.96
851.30	228.99
851.61	229.04
851.92	229.01
852.23	229.12
852.55	229.17
852.86	229.14
853.17	229.13
853.49	229.06
853.80	228.96
854.11	228.89
854.42	228.98
854.74	228.89
855.05	228.75
855.36	228.67
855.67	228.69
855.99	228.73
856.30	229.04
856.61	228.96
856.92	228.87
857.23	228.79
857.55	228.70
857.86	228.62
858.17	228.58
858.48	228.52
858.79	228.45
859.11	228.45
859.42	228.30
859.73	228.30
860.04	228.21
860.35	228.20
860.66	228.18
860.98	227.97
861.29	227.97
861.60	228.01
861.91	227.96
862.22	227.90
862.53	227.83
862.84	227.46
863.16	227.54
863.47	227.52
863.78	227.47
864.09	227.45
864.40	227.45
864.71	227.45
865.02	227.53
865.33	227.49
865.64	227.51
865.95	227.61
866.27	227.64
866.58	227.75
866.89	227.80
867.20	227.83
867.51	227.80
867.82	227.87
868.13	227.99
868.44	228.18
868.75	228.25
869.06	228.23
869.37	228.30
869.68	228.23
869.99	228.29
870.30	228.37
870.61	228.52
870.92	228.49
871.23	228.54
871.54	228.51
871.85	228.60
872.16	228.58
872.47	228.60
872.78	228.58
873.09	228.63
873.40	228.66
873.71	228.62
874.02	228.72
874.33	228.64
874.64	228.52
874.95	228.48
875.26	228.39
875.56	228.46
875.87	228.49
876.18	228.55
876.49	228.79
876.80	228.82
877.11	228.69
877.42	228.68
877.73	228.62
878.04	228.56
878.35	228.65
878.66	228.67
878.96	228.80
879.27	228.78
879.58	228.86
879.89	228.86
880.20	228.90
880.51	228.88
880.82	228.92
881.12	229.02
881.43	228.97
881.74	229.00
882.05	228.97
882.36	228.99
882.67	228.91
882.97	228.64
883.28	228.63
883.59	228.64
883.90	228.75
884.21	228.80
884.51	228.75
884.82	228.64
885.13	228.56
885.44	228.48
885.74	228.50
886.05	228.40
886.36	228.35
886.67	228.31
886.98	228.46
887.28	228.36
887.59	228.43
887.90	228.36
888.20	228.23
888.51	228.28
888.82	228.27
889.13	228.34
889.43	228.49
889.74	228.44
890.05	228.42
890.35	228.37
890.66	228.17
890.97	228.23
891.28	228.19
891.58	228.23
891.89	228.11
892.20	228.01
892.50	228.00
892.81	228.04
893.12	228.02
893.42	227.92
893.73	227.98
894.04	227.88
894.34	227.86
894.65	227.97
894.95	227.96
895.26	227.90
895.57	227.97
895.87	227.83
896.18	227.82
896.48	227.80
896.79	227.83
897.10	227.95
897.40	227.90
897.71	227.88
898.01	227.86
898.32	227.94
898.63	227.91
898.93	227.92
899.24	227.89
899.54	227.82
899.85	227.80
900.15	227.71
900.46	227.66
900.76	227.64
901.07	227.60
901.38	227.56
901.68	227.62
901.99	227.45
902.29	227.44
902.60	227.42
902.90	227.45
903.21	227.41
903.51	227.47
903.82	227.55
904.12	227.62
904.43	227.67
904.73	227.67
905.03	227.69
905.34	227.90
905.64	227.92
905.95	228.01
906.25	227.92
906.56	228.08
906.86	228.10
907.17	228.20
907.47	228.28
907.77	228.32
908.08	228.26
908.38	228.31
908.69	228.30
908.99	228.43
909.30	228.45
909.60	228.45
909.90	228.43
910.21	228.50
910.51	228.52
910.81	228.62
911.12	228.69
911.42	228.79
911.73	228.61
912.03	228.68
912.33	228.79
912.64	228.94
912.94	228.90
913.24	229.00
913.55	229.00
913.85	228.88
914.15	228.85
914.46	228.92
914.76	228.87
915.06	228.99
915.37	228.92
915.67	229.00
915.97	229.02
916.27	229.01
916.58	228.94
916.88	228.88
917.18	228.81
917.49	228.92
917.79	228.97
918.09	229.00
918.39	229.07
918.70	229.08
919.00	229.15
919.30	229.30
919.60	229.19
919.91	229.18
920.21	229.30
920.51	229.32
920.81	229.40
921.12	229.53
921.42	229.48
921.72	229.58
922.02	229.60
922.32	229.65
922.63	229.70
922.93	229.90
923.23	229.93
923.53	229.90
923.83	229.80
924.13	229.86
924.44	229.86
924.74	229.76
925.04	229.79
925.34	229.78
925.64	229.65
925.94	229.72
926.24	229.88
926.55	229.80
926.85	229.85
927.15	229.82
927.45	229.83
927.75	229.87
928.05	229.85
928.35	229.75
928.65	229.72
928.95	229.76
929.26	229.63
929.56	229.63
929.86	229.66
930.16	229.56
930.46	229.46
930.76	229.42
931.06	229.45
931.36	229.40
931.66	229.27
931.96	229.26
932.26	229.22
932.56	229.20
932.86	229.24
933.16	229.21
933.46	229.16
933.76	229.03
934.06	229.03
934.36	229.03
934.66	229.08
934.96	229.07
935.26	229.00
935.56	228.90
935.86	228.86
936.16	228.78
936.46	228.83
936.76	228.90
937.06	228.83
937.36	228.77
937.66	228.61
937.96	228.62
938.26	228.69
938.56	228.65
938.86	228.49
939.16	228.54
939.46	228.51
939.76	228.52
940.06	228.58
940.35	228.52
940.65	228.35
940.95	228.31
941.25	228.23
941.55	228.17
941.85	228.18
942.15	228.17
942.45	228.18
942.75	228.01
943.04	227.89
943.34	227.94
943.64	227.99
943.94	228.01
944.24	227.96
944.54	227.86
944.84	227.86
945.13	227.89
945.43	227.81
945.73	227.82
946.03	227.79
946.33	227.75
946.62	227.75
946.92	227.80
947.22	227.85
947.52	227.94
947.82	228.01
948.11	228.03
948.41	227.98
948.71	227.95
949.01	228.15
949.31	228.11
949.60	228.15
949.90	228.22
950.20	228.22
950.50	228.30
950.79	228.37
951.09	228.50
951.39	228.56
951.69	228.53
951.98	228.67
952.28	228.73
952.58	228.71
952.87	228.68
953.17	228.76
953.47	228.70
953.76	228.75
954.06	228.75
954.36	228.73
954.66	228.76
954.95	228.82
955.25	228.83
955.55	228.98
955.84	228.87
956.14	228.85
956.44	228.92
956.73	228.93
957.03	229.00
957.32	228.99
957.62	228.90
957.92	228.95
958.21	228.75
958.51	228.90
958.81	229.03
959.10	229.13
959.40	229.09
959.69	229.06
959.99	229.01
960.29	229.06
960.58	229.07
960.88	229.28
961.17	229.30
961.47	229.25
961.76	229.21
962.06	229.31
962.36	229.26
962.65	229.26
962.95	229.25
963.24	229.14
963.54	229.10
963.83	229.16
964.13	229.19
964.42	229.18
964.72	229.02
965.01	228.94
965.31	228.92
965.60	228.84
965.90	228.96
966.19	228.99
966.49	228.96
966.78	229.03
967.08	228.82
967.37	228.88
967.67	228.91
967.96	228.92
968.26	228.88
968.55	228.95
968.85	229.02
969.14	229.06
969.43	229.09
969.73	229.00
970.02	228.98
970.32	228.92
970.61	229.00
970.91	229.01
971.20	229.00
971.49	229.03
971.79	229.13
972.08	229.08
972.38	229.01
972.67	228.95
972.96	228.99
973.26	229.06
973.55	229.05
973.85	229.03
974.14	229.10
974.43	229.10
974.73	228.98
975.02	228.90
975.31	228.95
975.61	229.00
975.90	229.04
976.19	229.04
976.49	229.04
976.78	229.06
977.07	228.97
977.37	229.00
977.66	228.94
977.95	228.92
978.24	228.87
978.54	228.96
978.83	228.93
979.12	228.77
979.42	228.74
979.71	228.72
980.00	228.68
980.29	228.58
980.59	228.51
980.88	228.60
981.17	228.50
981.46	228.34
981.76	228.27
982.05	228.29
982.34	228.30
982.63	228.33
982.93	228.30
983.22	228.35
983.51	228.29
983.80	228.27
984.09	228.38
984.39	228.38
984.68	228.37
984.97	228.36
985.26	228.46
985.55	228.45
985.85	228.42
986.14	228.53
986.43	228.57
986.72	228.54
987.01	228.44
987.30	228.58
987.59	228.61
987.89	228.61
988.18	228.60
988.47	228.62
988.76	228.62
989.05	228.55
989.34	228.63
989.63	228.75
989.92	228.80
990.22	228.60
990.51	228.65
990.80	228.57
991.09	228.70
991.38	228.69
991.67	228.65
991.96	228.60
992.25	228.52
992.54	228.44
992.83	228.50
993.12	228.64
993.41	228.53
993.70	228.57
993.99	228.59
994.28	228.67
994.58	228.69
994.87	228.62
995.16	228.76
995.45	228.78
995.74	228.69
996.03	228.76
996.32	228.90
996.61	228.91
996.90	228.96
997.19	228.86
997.48	228.84
997.77	228.87
998.06	228.94
998.34	229.05
998.63	229.07
998.92	229.14
999.21	229.07
999.50	229.09
999.79	229.09
1000.08	229.10
1000.37	229.02
1000.66	228.99
1000.95	229.18
1001.24	229.08
1001.53	229.00
1001.82	228.98
1002.11	228.92
1002.40	228.98
1002.68	229.01
1002.97	229.21
1003.26	229.19
1003.55	229.21
1003.84	229.18
1004.13	229.19
1004.42	229.05
1004.71	229.06
1004.99	229.01
1005.28	229.02
1005.57	229.06
1005.86	229.03
1006.15	228.97
1006.44	228.91
1006.72	228.87
1007.01	228.77
1007.30	228.83
1007.59	228.82
1007.88	228.85
1008.17	228.81
1008.45	228.73
1008.74	228.63
1009.03	228.50
1009.32	228.61
1009.60	228.55
1009.89	228.60
1010.18	228.55
1010.47	228.51
1010.76	228.46
1011.04	228.38
1011.33	228.38
1011.62	228.43
1011.91	228.49
1012.19	228.56
1012.48	228.60
1012.77	228.63
1013.05	228.65
1013.34	228.60
1013.63	228.50
1013.92	228.54
1014.20	228.45
1014.49	228.41
1014.78	228.42
1015.06	228.37
1015.35	228.30
1015.64	228.37
1015.92	228.36
1016.21	228.33
1016.50	228.37
1016.78	228.45
1017.07	228.53
1017.36	228.53
1017.64	228.44
1017.93	228.40
1018.22	228.36
1018.50	228.36
1018.79	228.33
1019.08	228.18
1019.36	228.23
1019.65	228.18
1019.93	228.15
1020.22	228.20
1020.51	228.36
1020.79	228.34
1021.08	229.00
1021.36	227.80
1021.65	227.80
1021.94	226.60
1022.22	229.20
1022.51	225.50
1022.79	228.70
1023.08	228.10
1023.36	231.90
1023.65	227.80
>>>>>End Processed Spectral Data<<<<<
