SpectraSuite Data File
++++++++++++++++++++++++++++++++++++
Date: Fri Feb 01 14:34:19 EST 2013
User: group
Dark Spectrum Present: No
Reference Spectrum Present: No
Number of Sampled Component Spectra: 1
Spectrometers: USB2E7196
Integration Time (usec): 70000 (USB2E7196)
Spectra Averaged: 10 (USB2E7196)
Boxcar Smoothing: 10 (USB2E7196)
Correct for Electrical Dark: No (USB2E7196)
Strobe/Lamp Enabled: No (USB2E7196)
Correct for Detector Non-linearity: No (USB2E7196)
Correct for Stray Light: No (USB2E7196)
Number of Pixels in Processed Spectrum: 2048
>>>>>Begin Processed Spectral Data<<<<<
339.09	0.00
339.48	216.10
339.86	218.30
340.24	218.60
340.63	219.10
341.01	224.10
341.39	224.00
341.78	226.10
342.16	224.70
342.54	225.40
342.93	214.60
343.31	225.50
343.69	226.04
344.07	226.50
344.46	226.96
344.84	227.52
345.22	227.73
345.60	227.99
345.99	228.09
346.37	228.19
346.75	228.39
347.13	228.54
347.52	228.46
347.90	228.62
348.28	228.67
348.66	228.81
349.05	228.87
349.43	228.92
349.81	228.94
350.19	229.02
350.57	229.04
350.96	229.07
351.34	229.12
351.72	229.31
352.10	229.37
352.48	229.44
352.87	229.36
353.25	229.50
353.63	229.51
354.01	229.55
354.39	229.67
354.77	229.60
355.15	229.72
355.54	229.81
355.92	229.84
356.30	229.90
356.68	230.10
357.06	230.14
357.44	230.17
357.82	230.25
358.20	230.29
358.58	230.41
358.97	230.47
359.35	230.56
359.73	230.49
360.11	230.62
360.49	230.64
360.87	230.71
361.25	230.69
361.63	230.91
362.01	231.01
362.39	231.05
362.77	231.27
363.15	231.29
363.53	231.26
363.91	231.32
364.29	231.36
364.67	231.14
365.05	231.20
365.43	231.28
365.81	231.34
366.19	231.47
366.57	231.51
366.95	231.58
367.33	231.47
367.71	231.52
368.09	231.50
368.47	231.55
368.85	231.53
369.23	231.58
369.61	231.34
369.99	231.40
370.37	231.36
370.75	231.34
371.13	231.26
371.51	231.23
371.89	231.13
372.27	231.09
372.65	231.07
373.03	230.94
373.41	230.84
373.78	230.70
374.16	230.55
374.54	230.40
374.92	230.28
375.30	230.28
375.68	230.20
376.06	230.07
376.44	229.91
376.82	229.80
377.19	229.70
377.57	229.71
377.95	229.54
378.33	229.48
378.71	229.23
379.09	229.19
379.47	229.13
379.84	229.06
380.22	228.96
380.60	228.71
380.98	228.65
381.36	228.54
381.73	228.43
382.11	228.31
382.49	228.23
382.87	228.19
383.25	228.07
383.62	228.15
384.00	228.08
384.38	227.99
384.76	227.93
385.13	227.89
385.51	227.80
385.89	227.64
386.27	227.55
386.64	227.54
387.02	227.46
387.40	227.36
387.78	227.32
388.15	227.29
388.53	227.46
388.91	227.40
389.29	227.32
389.66	227.44
390.04	227.41
390.42	227.47
390.79	227.37
391.17	227.45
391.55	227.34
391.92	227.33
392.30	227.40
392.68	227.51
393.05	227.48
393.43	227.46
393.81	227.48
394.18	227.50
394.56	227.61
394.94	227.64
395.31	227.70
395.69	227.84
396.06	227.92
396.44	227.87
396.82	227.99
397.19	228.24
397.57	228.26
397.95	228.32
398.32	228.40
398.70	228.66
399.07	228.70
399.45	228.76
399.82	229.00
400.20	229.22
400.58	229.24
400.95	229.43
401.33	229.64
401.70	230.06
402.08	230.34
402.45	230.55
402.83	230.89
403.20	231.19
403.58	231.36
403.95	231.68
404.33	232.04
404.71	232.34
405.08	232.62
405.46	232.87
405.83	233.31
406.21	233.71
406.58	234.07
406.96	234.60
407.33	235.10
407.70	235.50
408.08	236.10
408.45	236.75
408.83	237.30
409.20	237.85
409.58	238.42
409.95	239.16
410.33	239.95
410.70	240.61
411.08	241.39
411.45	242.20
411.82	243.07
412.20	244.03
412.57	245.11
412.95	246.14
413.32	247.44
413.69	248.66
414.07	249.95
414.44	251.49
414.82	252.85
415.19	254.52
415.56	256.31
415.94	258.15
416.31	260.19
416.68	262.37
417.06	264.78
417.43	266.99
417.81	269.48
418.18	271.97
418.55	274.74
418.93	277.67
419.30	280.75
419.67	283.96
420.04	287.21
420.42	290.60
420.79	294.60
421.16	298.64
421.54	302.68
421.91	306.79
422.28	311.08
422.66	315.76
423.03	320.20
423.40	324.92
423.77	329.79
424.15	335.01
424.52	340.21
424.89	345.74
425.26	351.29
425.64	356.62
426.01	362.39
426.38	368.57
426.75	374.79
427.13	381.20
427.50	387.85
427.87	394.89
428.24	401.80
428.61	408.54
428.99	415.60
429.36	423.58
429.73	431.42
430.10	439.18
430.47	446.97
430.85	455.14
431.22	463.74
431.59	472.80
431.96	481.31
432.33	490.75
432.70	500.21
433.08	511.24
433.45	521.32
433.82	531.41
434.19	542.48
434.56	553.41
434.93	564.02
435.30	574.63
435.68	586.25
436.05	597.94
436.42	609.05
436.79	619.57
437.16	630.90
437.53	642.58
437.90	654.27
438.27	665.85
438.64	677.91
439.01	688.80
439.38	698.52
439.75	708.13
440.13	719.17
440.50	729.44
440.87	738.01
441.24	746.89
441.61	756.84
441.98	764.57
442.35	773.41
442.72	782.17
443.09	790.92
443.46	796.52
443.83	800.19
444.20	804.09
444.57	809.00
444.94	811.64
445.31	814.86
445.68	817.78
446.05	819.85
446.42	820.24
446.79	820.15
447.16	820.35
447.53	820.71
447.90	817.81
448.27	815.03
448.64	810.19
449.01	807.64
449.37	801.24
449.74	795.00
450.11	787.17
450.48	778.66
450.85	769.85
451.22	762.45
451.59	755.70
451.96	748.91
452.33	739.50
452.70	731.18
453.07	720.90
453.43	710.34
453.80	700.19
454.17	690.06
454.54	680.68
454.91	670.37
455.28	660.27
455.65	650.94
456.02	641.12
456.38	633.07
456.75	622.56
457.12	614.14
457.49	605.48
457.86	597.45
458.23	590.41
458.59	582.45
458.96	574.40
459.33	567.17
459.70	560.05
460.07	554.15
460.43	547.42
460.80	541.00
461.17	535.37
461.54	529.40
461.91	523.70
462.27	518.01
462.64	513.06
463.01	507.66
463.38	502.44
463.74	497.58
464.11	493.00
464.48	489.12
464.85	484.85
465.21	481.52
465.58	477.65
465.95	473.22
466.32	469.57
466.68	465.84
467.05	462.40
467.42	458.70
467.78	455.07
468.15	451.39
468.52	448.57
468.88	445.31
469.25	442.21
469.62	439.80
469.98	437.34
470.35	434.87
470.72	432.56
471.08	430.04
471.45	427.89
471.82	425.54
472.18	422.88
472.55	420.85
472.92	418.75
473.28	416.92
473.65	415.03
474.02	413.18
474.38	411.70
474.75	410.32
475.11	408.98
475.48	407.88
475.85	406.99
476.21	406.20
476.58	405.10
476.94	404.39
477.31	403.30
477.67	402.44
478.04	401.68
478.41	401.18
478.77	400.89
479.14	400.20
479.50	399.97
479.87	399.99
480.23	399.93
480.60	399.71
480.96	399.64
481.33	399.92
481.69	400.20
482.06	400.34
482.42	400.25
482.79	400.44
483.15	401.01
483.52	401.64
483.88	401.94
484.25	402.53
484.61	403.14
484.98	404.04
485.34	405.11
485.71	406.41
486.07	407.72
486.44	408.86
486.80	410.23
487.17	411.62
487.53	413.29
487.90	415.08
488.26	416.96
488.62	419.02
488.99	420.82
489.35	422.73
489.72	425.08
490.08	427.54
490.44	430.02
490.81	432.40
491.17	434.89
491.54	437.69
491.90	440.49
492.26	443.47
492.63	446.50
492.99	449.55
493.36	452.67
493.72	455.79
494.08	458.99
494.45	462.54
494.81	466.25
495.17	469.71
495.54	473.24
495.90	477.22
496.26	481.06
496.63	485.28
496.99	489.46
497.35	493.58
497.72	497.90
498.08	502.11
498.44	506.51
498.80	511.28
499.17	515.78
499.53	520.28
499.89	524.89
500.26	529.65
500.62	534.16
500.98	538.90
501.34	543.87
501.71	548.76
502.07	553.60
502.43	558.49
502.79	563.70
503.16	568.69
503.52	573.36
503.88	578.29
504.24	583.18
504.60	588.00
504.97	593.06
505.33	598.00
505.69	603.31
506.05	608.63
506.41	613.41
506.78	618.29
507.14	623.33
507.50	628.29
507.86	633.36
508.22	638.56
508.59	643.33
508.95	647.99
509.31	652.81
509.67	657.61
510.03	662.30
510.39	666.90
510.75	671.37
511.12	675.86
511.48	680.29
511.84	684.82
512.20	689.30
512.56	693.87
512.92	698.14
513.28	702.25
513.64	706.11
514.00	710.04
514.37	714.29
514.73	718.29
515.09	722.36
515.45	725.87
515.81	729.38
516.17	733.26
516.53	736.83
516.89	740.51
517.25	743.83
517.61	747.30
517.97	750.14
518.33	753.29
518.69	756.49
519.05	759.64
519.41	762.75
519.77	766.12
520.13	768.87
520.49	771.80
520.85	774.51
521.21	777.02
521.57	779.78
521.93	781.84
522.29	784.39
522.65	786.72
523.01	789.09
523.37	791.33
523.73	793.45
524.09	795.82
524.45	797.93
524.81	800.10
525.17	802.71
525.53	805.33
525.89	807.73
526.25	810.21
526.61	812.27
526.97	814.49
527.33	816.31
527.68	818.59
528.04	820.55
528.40	822.77
528.76	825.31
529.12	827.77
529.48	830.48
529.84	832.35
530.20	834.69
530.56	837.35
530.91	840.28
531.27	842.94
531.63	845.25
531.99	847.67
532.35	850.16
532.71	852.10
533.07	854.68
533.42	857.10
533.78	859.38
534.14	861.82
534.50	863.62
534.86	865.92
535.21	868.21
535.57	870.87
535.93	873.32
536.29	875.58
536.65	877.81
537.00	880.17
537.36	882.91
537.72	885.15
538.08	887.37
538.44	889.52
538.79	891.62
539.15	893.65
539.51	896.03
539.87	898.70
540.22	901.12
540.58	903.75
540.94	906.31
541.29	908.62
541.65	911.14
542.01	914.54
542.37	917.27
542.72	919.87
543.08	922.09
543.44	924.65
543.79	926.91
544.15	929.56
544.51	932.25
544.87	934.94
545.22	937.53
545.58	940.01
545.94	942.20
546.29	944.59
546.65	947.31
547.01	949.65
547.36	951.94
547.72	954.22
548.07	956.40
548.43	958.58
548.79	960.77
549.14	962.81
549.50	964.42
549.86	966.40
550.21	968.35
550.57	971.05
550.92	973.30
551.28	975.51
551.64	977.65
551.99	979.81
552.35	981.82
552.70	983.93
553.06	986.18
553.41	988.51
553.77	990.86
554.13	993.35
554.48	996.00
554.84	998.13
555.19	1000.39
555.55	1002.40
555.90	1004.48
556.26	1006.72
556.61	1009.01
556.97	1011.44
557.32	1013.79
557.68	1015.98
558.03	1018.15
558.39	1020.21
558.74	1022.71
559.10	1024.70
559.45	1026.54
559.81	1028.96
560.16	1031.16
560.52	1033.14
560.87	1035.50
561.23	1037.48
561.58	1039.43
561.94	1041.00
562.29	1042.86
562.64	1044.62
563.00	1046.26
563.35	1048.49
563.71	1050.80
564.06	1052.81
564.42	1054.21
564.77	1056.24
565.12	1058.06
565.48	1059.98
565.83	1061.33
566.19	1063.06
566.54	1064.54
566.89	1066.16
567.25	1067.35
567.60	1069.10
567.96	1070.90
568.31	1071.99
568.66	1073.20
569.02	1074.26
569.37	1075.40
569.72	1076.70
570.08	1077.72
570.43	1079.01
570.78	1079.56
571.14	1079.87
571.49	1080.40
571.84	1081.48
572.20	1081.73
572.55	1082.33
572.90	1082.11
573.26	1082.78
573.61	1082.73
573.96	1083.29
574.31	1082.80
574.67	1082.35
575.02	1081.92
575.37	1081.33
575.72	1080.41
576.08	1080.05
576.43	1079.63
576.78	1079.34
577.13	1078.83
577.49	1078.46
577.84	1077.53
578.19	1077.00
578.54	1076.49
578.90	1075.72
579.25	1074.49
579.60	1073.23
579.95	1072.12
580.30	1071.01
580.66	1069.63
581.01	1068.45
581.36	1066.82
581.71	1066.20
582.06	1065.22
582.42	1063.79
582.77	1062.56
583.12	1061.90
583.47	1060.46
583.82	1059.20
584.17	1057.45
584.53	1055.99
584.88	1054.56
585.23	1053.28
585.58	1051.72
585.93	1049.79
586.28	1048.49
586.63	1047.17
586.98	1046.06
587.34	1044.41
587.69	1042.82
588.04	1041.52
588.39	1040.24
588.74	1038.40
589.09	1036.45
589.44	1034.30
589.79	1032.38
590.14	1030.50
590.49	1028.53
590.84	1026.60
591.19	1024.57
591.54	1022.49
591.89	1019.69
592.25	1017.44
592.60	1014.74
592.95	1012.12
593.30	1009.82
593.65	1007.19
594.00	1004.54
594.35	1002.41
594.70	999.39
595.05	996.90
595.40	993.94
595.75	990.80
596.10	988.30
596.45	986.04
596.80	983.93
597.15	981.55
597.50	978.81
597.85	976.24
598.19	974.19
598.54	971.53
598.89	968.92
599.24	967.01
599.59	964.27
599.94	961.75
600.29	959.27
600.64	956.55
600.99	953.41
601.34	950.70
601.69	947.31
602.04	945.01
602.39	942.25
602.74	939.83
603.08	937.42
603.43	934.83
603.78	931.73
604.13	928.86
604.48	925.75
604.83	922.98
605.18	920.20
605.53	916.75
605.87	913.62
606.22	910.70
606.57	907.32
606.92	904.37
607.27	901.70
607.62	899.08
607.96	896.40
608.31	894.00
608.66	890.83
609.01	887.57
609.36	884.32
609.70	880.75
610.05	876.96
610.40	873.71
610.75	870.19
611.10	866.58
611.44	862.77
611.79	859.33
612.14	855.84
612.49	851.82
612.83	848.34
613.18	844.69
613.53	841.14
613.88	837.57
614.22	833.99
614.57	830.01
614.92	825.95
615.27	822.27
615.61	818.58
615.96	815.23
616.31	811.92
616.65	808.73
617.00	805.57
617.35	802.35
617.70	798.61
618.04	795.06
618.39	791.71
618.74	788.62
619.08	785.11
619.43	781.50
619.78	778.44
620.12	775.00
620.47	771.61
620.82	767.97
621.16	765.05
621.51	761.66
621.85	758.40
622.20	755.12
622.55	751.88
622.89	748.65
623.24	745.52
623.59	742.44
623.93	739.07
624.28	735.81
624.62	732.79
624.97	729.83
625.32	727.06
625.66	724.30
626.01	721.30
626.35	718.47
626.70	715.56
627.04	712.50
627.39	709.25
627.73	706.21
628.08	703.53
628.43	700.00
628.77	697.14
629.12	694.11
629.46	691.06
629.81	687.85
630.15	684.45
630.50	681.00
630.84	677.66
631.19	674.38
631.53	671.33
631.88	667.88
632.22	664.56
632.57	661.42
632.91	658.21
633.26	655.01
633.60	651.78
633.95	648.56
634.29	645.51
634.64	642.86
634.98	639.79
635.32	636.78
635.67	634.14
636.01	631.10
636.36	628.25
636.70	625.62
637.05	622.95
637.39	620.49
637.73	617.99
638.08	615.62
638.42	613.18
638.77	610.48
639.11	607.77
639.45	605.00
639.80	602.12
640.14	599.26
640.49	596.60
640.83	593.97
641.17	591.26
641.52	588.53
641.86	585.71
642.20	583.33
642.55	580.60
642.89	577.90
643.23	575.38
643.58	573.02
643.92	570.28
644.26	567.59
644.61	564.90
644.95	562.26
645.29	559.31
645.64	556.45
645.98	553.91
646.32	551.63
646.66	548.88
647.01	546.33
647.35	544.05
647.69	541.52
648.04	539.24
648.38	536.80
648.72	534.10
649.06	531.44
649.41	528.87
649.75	526.32
650.09	523.85
650.43	521.10
650.78	518.35
651.12	515.63
651.46	513.19
651.80	510.66
652.14	508.06
652.49	505.69
652.83	503.36
653.17	501.00
653.51	498.29
653.85	496.00
654.20	493.54
654.54	490.81
654.88	488.11
655.22	485.49
655.56	482.95
655.90	480.58
656.25	478.34
656.59	475.85
656.93	473.66
657.27	471.46
657.61	469.02
657.95	466.74
658.29	464.86
658.64	462.59
658.98	460.20
659.32	458.02
659.66	455.77
660.00	453.29
660.34	450.86
660.68	448.81
661.02	446.63
661.36	444.67
661.70	442.65
662.05	440.99
662.39	439.10
662.73	437.27
663.07	435.48
663.41	433.70
663.75	431.84
664.09	429.91
664.43	427.81
664.77	426.11
665.11	424.24
665.45	422.42
665.79	420.60
666.13	418.84
666.47	416.98
666.81	415.12
667.15	413.32
667.49	411.64
667.83	409.84
668.17	408.21
668.51	406.26
668.85	404.65
669.19	402.90
669.53	401.05
669.87	399.41
670.21	397.71
670.55	395.96
670.89	394.64
671.23	393.16
671.57	391.72
671.91	390.31
672.25	388.84
672.58	387.21
672.92	385.82
673.26	384.54
673.60	383.13
673.94	381.75
674.28	380.68
674.62	379.42
674.96	378.30
675.30	377.02
675.64	375.85
675.97	374.60
676.31	373.42
676.65	372.30
676.99	371.20
677.33	369.84
677.67	368.70
678.01	367.01
678.34	365.66
678.68	364.35
679.02	363.07
679.36	361.97
679.70	360.71
680.04	359.45
680.37	358.20
680.71	357.09
681.05	356.17
681.39	354.95
681.73	353.86
682.06	352.70
682.40	351.54
682.74	350.41
683.08	349.28
683.42	348.08
683.75	346.94
684.09	345.59
684.43	344.63
684.77	343.40
685.10	342.55
685.44	341.43
685.78	340.40
686.12	339.46
686.45	338.20
686.79	337.22
687.13	336.14
687.46	335.03
687.80	333.99
688.14	332.69
688.48	331.70
688.81	330.58
689.15	329.47
689.49	328.51
689.82	327.51
690.16	326.41
690.50	325.40
690.83	324.33
691.17	323.32
691.51	322.25
691.84	321.40
692.18	320.46
692.52	319.45
692.85	318.33
693.19	317.30
693.52	316.43
693.86	315.40
694.20	314.50
694.53	313.62
694.87	312.64
695.21	311.71
695.54	310.71
695.88	309.75
696.21	308.85
696.55	307.78
696.88	306.87
697.22	305.97
697.56	305.13
697.89	304.18
698.23	303.40
698.56	302.59
698.90	301.61
699.23	300.60
699.57	299.73
699.90	299.01
700.24	298.05
700.58	297.24
700.91	296.56
701.25	295.78
701.58	295.06
701.92	294.35
702.25	293.65
702.59	292.83
702.92	292.07
703.26	291.36
703.59	290.73
703.93	290.26
704.26	289.62
704.60	288.77
704.93	288.20
705.26	287.55
705.60	286.96
705.93	286.34
706.27	285.93
706.60	285.49
706.94	284.85
707.27	284.34
707.61	283.83
707.94	283.28
708.27	282.67
708.61	282.09
708.94	281.56
709.28	281.06
709.61	280.54
709.94	280.13
710.28	279.48
710.61	279.04
710.95	278.27
711.28	277.84
711.61	277.39
711.95	276.89
712.28	276.46
712.61	276.01
712.95	275.65
713.28	275.17
713.61	274.67
713.95	274.32
714.28	273.84
714.61	273.33
714.95	272.84
715.28	272.35
715.61	271.82
715.95	271.42
716.28	271.03
716.61	270.80
716.95	270.31
717.28	270.04
717.61	269.69
717.94	269.25
718.28	268.76
718.61	268.50
718.94	268.07
719.27	267.64
719.61	267.21
719.94	266.73
720.27	266.29
720.60	265.93
720.94	265.49
721.27	265.01
721.60	264.62
721.93	264.29
722.27	264.05
722.60	263.76
722.93	263.32
723.26	262.97
723.59	262.47
723.93	262.22
724.26	261.90
724.59	261.49
724.92	261.25
725.25	260.99
725.59	260.66
725.92	260.47
726.25	260.11
726.58	259.97
726.91	259.64
727.24	259.30
727.57	258.91
727.91	258.60
728.24	258.40
728.57	258.12
728.90	257.82
729.23	257.52
729.56	257.33
729.89	257.00
730.22	256.68
730.55	256.40
730.89	256.04
731.22	255.81
731.55	255.55
731.88	255.29
732.21	254.93
732.54	254.55
732.87	254.14
733.20	253.80
733.53	253.40
733.86	253.22
734.19	252.98
734.52	252.73
734.85	252.52
735.18	252.28
735.51	252.04
735.84	251.73
736.17	251.35
736.50	250.90
736.83	250.81
737.16	250.58
737.49	250.35
737.82	250.05
738.15	249.70
738.48	249.36
738.81	249.05
739.14	248.75
739.47	248.48
739.80	248.29
740.13	248.10
740.46	247.83
740.79	247.60
741.12	247.36
741.45	247.14
741.78	246.86
742.11	246.67
742.44	246.45
742.77	246.31
743.10	246.07
743.43	245.85
743.75	245.56
744.08	245.56
744.41	245.33
744.74	245.16
745.07	245.00
745.40	244.94
745.73	244.88
746.06	244.72
746.39	244.52
746.71	244.33
747.04	244.14
747.37	243.92
747.70	243.74
748.03	243.58
748.36	243.40
748.68	243.30
749.01	243.05
749.34	242.88
749.67	242.68
750.00	242.56
750.33	242.56
750.65	242.46
750.98	242.02
751.31	241.90
751.64	241.65
751.97	241.62
752.29	241.48
752.62	241.32
752.95	241.23
753.28	241.17
753.60	241.01
753.93	241.01
754.26	240.98
754.59	240.84
754.91	240.72
755.24	240.66
755.57	240.50
755.90	240.35
756.22	240.32
756.55	240.20
756.88	240.17
757.20	240.01
757.53	239.78
757.86	239.79
758.19	239.67
758.51	239.71
758.84	239.36
759.17	239.08
759.49	239.00
759.82	238.94
760.15	238.83
760.47	238.78
760.80	238.64
761.13	238.58
761.45	238.52
761.78	238.59
762.11	238.47
762.43	238.42
762.76	238.31
763.08	238.15
763.41	238.06
763.74	237.98
764.06	237.88
764.39	237.85
764.71	237.74
765.04	237.68
765.37	237.57
765.69	237.61
766.02	237.65
766.34	237.55
766.67	237.47
767.00	237.51
767.32	237.54
767.65	237.60
767.97	237.45
768.30	237.38
768.62	237.24
768.95	237.09
769.27	236.90
769.60	236.92
769.92	236.85
770.25	236.78
770.57	236.66
770.90	236.50
771.22	236.31
771.55	236.28
771.87	236.20
772.20	236.13
772.52	236.12
772.85	236.22
773.17	236.03
773.50	235.82
773.82	235.62
774.15	235.40
774.47	235.14
774.80	234.98
775.12	234.82
775.45	234.62
775.77	234.60
776.09	234.55
776.42	234.42
776.74	234.42
777.07	234.34
777.39	234.20
777.72	234.17
778.04	234.13
778.36	233.98
778.69	233.90
779.01	233.78
779.33	233.57
779.66	233.36
779.98	233.25
780.31	233.22
780.63	233.18
780.95	233.17
781.28	232.99
781.60	232.92
781.92	232.84
782.25	232.75
782.57	232.60
782.89	232.49
783.22	232.39
783.54	232.17
783.86	232.06
784.19	232.04
784.51	232.06
784.83	232.08
785.16	231.95
785.48	231.87
785.80	231.78
786.12	231.67
786.45	231.61
786.77	231.65
787.09	231.68
787.42	231.56
787.74	231.53
788.06	231.54
788.38	231.48
788.71	231.39
789.03	231.41
789.35	231.42
789.67	231.40
789.99	231.41
790.32	231.36
790.64	231.44
790.96	231.53
791.28	231.45
791.61	231.39
791.93	231.43
792.25	231.35
792.57	231.50
792.89	231.63
793.21	231.58
793.54	231.51
793.86	231.45
794.18	231.48
794.50	231.43
794.82	231.51
795.14	231.50
795.47	231.56
795.79	231.62
796.11	231.62
796.43	231.60
796.75	231.64
797.07	231.71
797.39	231.66
797.71	231.54
798.04	231.47
798.36	231.51
798.68	231.57
799.00	231.68
799.32	231.56
799.64	231.56
799.96	231.59
800.28	231.62
800.60	231.62
800.92	231.65
801.24	231.61
801.56	231.59
801.89	231.58
802.21	231.61
802.53	231.58
802.85	231.68
803.17	231.82
803.49	231.83
803.81	231.80
804.13	231.71
804.45	231.74
804.77	231.74
805.09	231.72
805.41	231.65
805.73	231.60
806.05	231.57
806.37	231.42
806.69	231.42
807.01	231.51
807.33	231.50
807.65	231.40
807.97	231.50
808.28	231.43
808.60	231.58
808.92	231.46
809.24	231.47
809.56	231.42
809.88	231.35
810.20	231.31
810.52	231.39
810.84	231.37
811.16	231.37
811.48	231.48
811.80	231.48
812.12	231.42
812.43	231.41
812.75	231.40
813.07	231.41
813.39	231.34
813.71	231.18
814.03	231.11
814.35	231.07
814.67	230.88
814.98	230.88
815.30	230.68
815.62	230.73
815.94	230.63
816.26	230.63
816.58	230.51
816.89	230.49
817.21	230.39
817.53	230.31
817.85	230.17
818.17	230.07
818.48	229.93
818.80	230.00
819.12	229.85
819.44	229.76
819.76	229.74
820.07	229.81
820.39	229.76
820.71	229.77
821.03	229.79
821.34	229.80
821.66	229.83
821.98	229.81
822.30	229.65
822.61	229.68
822.93	229.60
823.25	229.59
823.57	229.47
823.88	229.39
824.20	229.41
824.52	229.37
824.83	229.33
825.15	229.35
825.47	229.23
825.79	229.34
826.10	229.39
826.42	229.36
826.74	229.28
827.05	229.34
827.37	229.31
827.69	229.25
828.00	229.26
828.32	229.18
828.64	229.23
828.95	229.33
829.27	229.27
829.58	229.21
829.90	229.20
830.22	229.26
830.53	229.28
830.85	229.20
831.17	229.19
831.48	229.15
831.80	229.10
832.11	229.15
832.43	229.15
832.75	229.13
833.06	229.26
833.38	229.21
833.69	229.11
834.01	229.14
834.32	229.19
834.64	229.22
834.96	229.34
835.27	229.32
835.59	229.28
835.90	229.23
836.22	229.24
836.53	229.23
836.85	229.15
837.16	229.42
837.48	229.50
837.79	229.69
838.11	229.79
838.42	229.92
838.74	230.04
839.05	229.93
839.37	230.00
839.68	230.03
840.00	230.07
840.31	230.24
840.63	230.26
840.94	230.30
841.26	230.32
841.57	230.29
841.88	230.35
842.20	230.39
842.51	230.49
842.83	230.57
843.14	230.83
843.46	230.94
843.77	230.86
844.08	230.88
844.40	230.77
844.71	230.73
845.03	230.63
845.34	230.58
845.65	230.75
845.97	230.73
846.28	230.68
846.60	230.67
846.91	230.60
847.22	230.53
847.54	230.66
847.85	230.59
848.16	230.61
848.48	230.56
848.79	230.67
849.10	230.65
849.42	230.66
849.73	230.43
850.04	230.30
850.36	230.18
850.67	230.22
850.98	230.10
851.30	230.10
851.61	230.11
851.92	230.08
852.23	229.93
852.55	229.87
852.86	229.77
853.17	229.69
853.49	229.65
853.80	229.74
854.11	229.59
854.42	229.60
854.74	229.40
855.05	229.38
855.36	229.17
855.67	229.07
855.99	228.90
856.30	229.04
856.61	229.07
856.92	229.01
857.23	228.92
857.55	228.93
857.86	228.84
858.17	228.81
858.48	228.56
858.79	228.60
859.11	228.53
859.42	228.43
859.73	228.49
860.04	228.43
860.35	228.24
860.66	228.11
860.98	228.06
861.29	228.04
861.60	227.96
861.91	228.00
862.22	227.91
862.53	227.90
862.84	227.60
863.16	227.58
863.47	227.49
863.78	227.48
864.09	227.43
864.40	227.46
864.71	227.40
865.02	227.48
865.33	227.34
865.64	227.25
865.95	227.32
866.27	227.32
866.58	227.29
866.89	227.33
867.20	227.31
867.51	227.17
867.82	227.14
868.13	227.21
868.44	227.15
868.75	227.33
869.06	227.33
869.37	227.38
869.68	227.29
869.99	227.35
870.30	227.33
870.61	227.45
870.92	227.40
871.23	227.43
871.54	227.51
871.85	227.60
872.16	227.68
872.47	227.62
872.78	227.57
873.09	227.62
873.40	227.64
873.71	227.74
874.02	227.88
874.33	227.87
874.64	227.84
874.95	227.97
875.26	227.90
875.56	227.90
875.87	227.91
876.18	228.02
876.49	228.31
876.80	228.32
877.11	228.29
877.42	228.40
877.73	228.37
878.04	228.37
878.35	228.40
878.66	228.47
878.96	228.56
879.27	228.50
879.58	228.51
879.89	228.54
880.20	228.61
880.51	228.67
880.82	228.79
881.12	228.93
881.43	228.85
881.74	228.80
882.05	228.78
882.36	228.79
882.67	228.81
882.97	228.60
883.28	228.64
883.59	228.67
883.90	228.68
884.21	228.76
884.51	228.77
884.82	228.70
885.13	228.65
885.44	228.64
885.74	228.80
886.05	228.74
886.36	228.73
886.67	228.68
886.98	228.69
887.28	228.79
887.59	228.71
887.90	228.79
888.20	228.82
888.51	228.99
888.82	228.99
889.13	229.02
889.43	229.27
889.74	229.24
890.05	229.22
890.35	229.17
890.66	229.21
890.97	229.27
891.28	229.36
891.58	229.36
891.89	229.47
892.20	229.43
892.50	229.49
892.81	229.44
893.12	229.40
893.42	229.37
893.73	229.30
894.04	229.23
894.34	229.16
894.65	229.18
894.95	229.14
895.26	229.19
895.57	229.26
895.87	228.84
896.18	228.88
896.48	228.79
896.79	228.67
897.10	228.56
897.40	228.50
897.71	228.48
898.01	228.55
898.32	228.43
898.63	228.24
898.93	228.22
899.24	228.28
899.54	228.30
899.85	228.18
900.15	228.05
900.46	228.11
900.76	228.02
901.07	228.01
901.38	227.80
901.68	227.84
901.99	227.68
902.29	227.68
902.60	227.63
902.90	227.74
903.21	227.74
903.51	227.80
903.82	227.84
904.12	227.82
904.43	227.83
904.73	227.76
905.03	227.84
905.34	228.00
905.64	227.94
905.95	227.87
906.25	227.90
906.56	227.96
906.86	227.89
907.17	227.91
907.47	227.95
907.77	228.06
908.08	228.02
908.38	228.08
908.69	228.22
908.99	228.17
909.30	228.13
909.60	228.14
909.90	228.09
910.21	227.94
910.51	227.93
910.81	227.78
911.12	227.86
911.42	227.96
911.73	227.80
912.03	227.86
912.33	227.91
912.64	227.93
912.94	227.97
913.24	228.02
913.55	228.03
913.85	227.98
914.15	228.06
914.46	228.08
914.76	228.11
915.06	228.07
915.37	228.17
915.67	228.15
915.97	228.21
916.27	228.30
916.58	228.37
916.88	228.47
917.18	228.59
917.49	228.73
917.79	228.67
918.09	228.81
918.39	228.90
918.70	228.95
919.00	228.97
919.30	229.18
919.60	229.07
919.91	229.15
920.21	229.19
920.51	229.19
920.81	229.21
921.12	229.20
921.42	229.33
921.72	229.38
922.02	229.55
922.32	229.66
922.63	229.67
922.93	229.81
923.23	229.86
923.53	229.86
923.83	229.70
924.13	229.77
924.44	229.77
924.74	229.75
925.04	229.88
925.34	229.96
925.64	229.76
925.94	229.83
926.24	230.00
926.55	229.99
926.85	229.97
927.15	229.91
927.45	229.88
927.75	229.81
928.05	229.76
928.35	229.60
928.65	229.64
928.95	229.65
929.26	229.57
929.56	229.48
929.86	229.57
930.16	229.58
930.46	229.60
930.76	229.54
931.06	229.42
931.36	229.30
931.66	229.27
931.96	229.32
932.26	229.37
932.56	229.28
932.86	229.29
933.16	229.25
933.46	229.33
933.76	229.38
934.06	229.40
934.36	229.47
934.66	229.52
934.96	229.34
935.26	229.31
935.56	229.29
935.86	229.22
936.16	229.04
936.46	229.02
936.76	228.95
937.06	228.85
937.36	228.86
937.66	228.74
937.96	228.69
938.26	228.64
938.56	228.53
938.86	228.40
939.16	228.43
939.46	228.39
939.76	228.33
940.06	228.22
940.35	228.07
940.65	227.98
940.95	227.97
941.25	227.95
941.55	227.97
941.85	227.91
942.15	227.91
942.45	227.95
942.75	227.98
943.04	227.85
943.34	227.83
943.64	227.71
943.94	227.75
944.24	227.77
944.54	227.76
944.84	227.81
945.13	227.80
945.43	227.82
945.73	227.81
946.03	227.74
946.33	227.80
946.62	227.73
946.92	227.63
947.22	227.64
947.52	227.77
947.82	227.72
948.11	227.78
948.41	227.79
948.71	227.76
949.01	227.79
949.31	227.77
949.60	227.85
949.90	227.91
950.20	227.96
950.50	227.90
950.79	227.91
951.09	227.90
951.39	227.97
951.69	227.93
951.98	228.00
952.28	228.00
952.58	227.92
952.87	228.11
953.17	228.12
953.47	228.09
953.76	228.04
954.06	228.04
954.36	228.02
954.66	228.07
954.95	228.23
955.25	228.16
955.55	228.40
955.84	228.37
956.14	228.52
956.44	228.46
956.73	228.50
957.03	228.51
957.32	228.61
957.62	228.58
957.92	228.67
958.21	228.73
958.51	228.99
958.81	229.08
959.10	229.09
959.40	229.38
959.69	229.45
959.99	229.46
960.29	229.48
960.58	229.51
960.88	229.58
961.17	229.54
961.47	229.62
961.76	229.57
962.06	229.56
962.36	229.58
962.65	229.66
962.95	229.72
963.24	229.70
963.54	229.69
963.83	229.73
964.13	229.61
964.42	229.55
964.72	229.39
965.01	229.36
965.31	229.33
965.60	229.15
965.90	229.23
966.19	229.29
966.49	229.25
966.78	229.19
967.08	229.05
967.37	229.04
967.67	228.91
967.96	228.88
968.26	228.95
968.55	228.80
968.85	228.80
969.14	228.86
969.43	228.73
969.73	228.70
970.02	228.65
970.32	228.71
970.61	228.56
970.91	228.50
971.20	228.48
971.49	228.32
971.79	228.31
972.08	228.12
972.38	228.02
972.67	228.02
972.96	228.05
973.26	228.02
973.55	228.01
973.85	228.07
974.14	227.93
974.43	227.90
974.73	228.03
975.02	227.94
975.31	227.80
975.61	227.80
975.90	227.75
976.19	227.65
976.49	227.54
976.78	227.61
977.07	227.55
977.37	227.52
977.66	227.54
977.95	227.42
978.24	227.46
978.54	227.42
978.83	227.36
979.12	227.25
979.42	227.31
979.71	227.21
980.00	227.25
980.29	227.26
980.59	227.18
980.88	227.10
981.17	226.96
981.46	226.92
981.76	226.85
982.05	226.87
982.34	226.89
982.63	226.90
982.93	226.99
983.22	226.93
983.51	227.03
983.80	227.15
984.09	227.26
984.39	227.21
984.68	227.30
984.97	227.43
985.26	227.45
985.55	227.34
985.85	227.43
986.14	227.41
986.43	227.53
986.72	227.53
987.01	227.51
987.30	227.63
987.59	227.65
987.89	227.80
988.18	227.78
988.47	227.82
988.76	227.82
989.05	227.77
989.34	227.92
989.63	227.85
989.92	227.79
990.22	227.81
990.51	227.81
990.80	227.77
991.09	227.71
991.38	227.89
991.67	227.94
991.96	227.98
992.25	228.03
992.54	227.93
992.83	228.09
993.12	228.19
993.41	228.33
993.70	228.45
993.99	228.53
994.28	228.64
994.58	228.76
994.87	228.81
995.16	228.84
995.45	228.80
995.74	228.74
996.03	228.91
996.32	228.90
996.61	229.02
996.90	229.02
997.19	229.09
997.48	229.01
997.77	229.17
998.06	229.14
998.34	229.11
998.63	229.21
998.92	229.21
999.21	229.19
999.50	229.15
999.79	229.15
1000.08	229.13
1000.37	229.05
1000.66	229.00
1000.95	229.01
1001.24	229.09
1001.53	229.13
1001.82	229.26
1002.11	229.18
1002.40	229.29
1002.68	229.25
1002.97	229.46
1003.26	229.40
1003.55	229.43
1003.84	229.41
1004.13	229.39
1004.42	229.39
1004.71	229.37
1004.99	229.27
1005.28	229.37
1005.57	229.27
1005.86	229.27
1006.15	229.33
1006.44	229.30
1006.72	229.41
1007.01	229.32
1007.30	229.23
1007.59	229.20
1007.88	229.12
1008.17	229.07
1008.45	229.03
1008.74	229.01
1009.03	228.83
1009.32	228.83
1009.60	228.64
1009.89	228.60
1010.18	228.55
1010.47	228.53
1010.76	228.47
1011.04	228.38
1011.33	228.29
1011.62	228.27
1011.91	228.19
1012.19	228.16
1012.48	228.14
1012.77	227.88
1013.05	228.11
1013.34	228.09
1013.63	228.00
1013.92	228.02
1014.20	227.97
1014.49	227.78
1014.78	227.76
1015.06	227.59
1015.35	227.58
1015.64	227.67
1015.92	227.60
1016.21	227.54
1016.50	227.55
1016.78	227.66
1017.07	227.76
1017.36	227.73
1017.64	227.78
1017.93	227.82
1018.22	227.72
1018.50	227.85
1018.79	227.95
1019.08	227.73
1019.36	227.75
1019.65	227.79
1019.93	227.84
1020.22	227.92
1020.51	228.00
1020.79	227.91
1021.08	227.20
1021.36	229.70
1021.65	228.00
1021.94	227.50
1022.22	227.60
1022.51	227.30
1022.79	229.20
1023.08	228.40
1023.36	227.70
1023.65	226.60
>>>>>End Processed Spectral Data<<<<<
