SpectraSuite Data File
++++++++++++++++++++++++++++++++++++
Date: Fri Feb 01 14:34:53 EST 2013
User: group
Dark Spectrum Present: No
Reference Spectrum Present: No
Number of Sampled Component Spectra: 1
Spectrometers: USB2E7196
Integration Time (usec): 70000 (USB2E7196)
Spectra Averaged: 10 (USB2E7196)
Boxcar Smoothing: 10 (USB2E7196)
Correct for Electrical Dark: No (USB2E7196)
Strobe/Lamp Enabled: No (USB2E7196)
Correct for Detector Non-linearity: No (USB2E7196)
Correct for Stray Light: No (USB2E7196)
Number of Pixels in Processed Spectrum: 2048
>>>>>Begin Processed Spectral Data<<<<<
339.09	0.00
339.48	217.50
339.86	218.70
340.24	218.70
340.63	220.30
341.01	224.50
341.39	222.50
341.78	225.30
342.16	226.70
342.54	225.40
342.93	214.80
343.31	225.56
343.69	226.07
344.07	226.49
344.46	226.96
344.84	227.33
345.22	227.50
345.60	227.74
345.99	227.87
346.37	228.02
346.75	228.22
347.13	228.36
347.52	228.40
347.90	228.49
348.28	228.52
348.66	228.53
349.05	228.49
349.43	228.65
349.81	228.64
350.19	228.66
350.57	228.58
350.96	228.68
351.34	228.84
351.72	228.88
352.10	228.92
352.48	228.94
352.87	229.07
353.25	229.15
353.63	229.20
354.01	229.30
354.39	229.24
354.77	229.30
355.15	229.44
355.54	229.53
355.92	229.52
356.30	229.59
356.68	229.75
357.06	229.84
357.44	229.80
357.82	229.87
358.20	229.90
358.58	230.06
358.97	230.10
359.35	230.22
359.73	230.28
360.11	230.39
360.49	230.38
360.87	230.33
361.25	230.41
361.63	230.54
362.01	230.53
362.39	230.59
362.77	230.54
363.15	230.59
363.53	230.54
363.91	230.53
364.29	230.53
364.67	230.37
365.05	230.34
365.43	230.40
365.81	230.44
366.19	230.53
366.57	230.60
366.95	230.58
367.33	230.46
367.71	230.49
368.09	230.41
368.47	230.47
368.85	230.44
369.23	230.41
369.61	230.22
369.99	230.40
370.37	230.47
370.75	230.54
371.13	230.40
371.51	230.33
371.89	230.39
372.27	230.46
372.65	230.42
373.03	230.39
373.41	230.25
373.78	230.16
374.16	230.00
374.54	229.90
374.92	229.78
375.30	229.83
375.68	229.77
376.06	229.82
376.44	229.72
376.82	229.69
377.19	229.57
377.57	229.68
377.95	229.38
378.33	229.33
378.71	229.09
379.09	229.11
379.47	228.97
379.84	228.84
380.22	228.70
380.60	228.53
380.98	228.49
381.36	228.45
381.73	228.35
382.11	228.28
382.49	228.11
382.87	228.04
383.25	227.93
383.62	227.98
384.00	227.77
384.38	227.75
384.76	227.72
385.13	227.83
385.51	227.67
385.89	227.53
386.27	227.37
386.64	227.34
387.02	227.28
387.40	227.29
387.78	227.17
388.15	227.06
388.53	227.10
388.91	227.02
389.29	226.89
389.66	226.87
390.04	226.88
390.42	226.93
390.79	226.92
391.17	226.77
391.55	226.67
391.92	226.77
392.30	226.77
392.68	226.68
393.05	226.60
393.43	226.58
393.81	226.72
394.18	226.68
394.56	226.82
394.94	226.87
395.31	226.96
395.69	227.14
396.06	227.22
396.44	227.24
396.82	227.34
397.19	227.60
397.57	227.64
397.95	227.73
398.32	227.79
398.70	227.81
399.07	228.09
399.45	228.10
399.82	228.11
400.20	228.20
400.58	228.45
400.95	228.44
401.33	228.72
401.70	228.98
402.08	229.32
402.45	229.52
402.83	229.71
403.20	229.85
403.58	230.00
403.95	230.34
404.33	230.61
404.71	230.90
405.08	231.27
405.46	231.70
405.83	231.92
406.21	232.16
406.58	232.60
406.96	232.90
407.33	233.36
407.70	233.93
408.08	234.59
408.45	235.07
408.83	235.75
409.20	236.28
409.58	236.82
409.95	237.39
410.33	237.98
410.70	238.60
411.08	239.45
411.45	240.36
411.82	241.25
412.20	242.33
412.57	243.31
412.95	244.13
413.32	245.13
413.69	246.28
414.07	247.55
414.44	248.93
414.82	250.30
415.19	251.82
415.56	253.39
415.94	254.93
416.31	256.76
416.68	258.52
417.06	260.60
417.43	262.50
417.81	264.71
418.18	267.07
418.55	269.57
418.93	272.13
419.30	274.66
419.67	277.45
420.04	280.20
420.42	283.34
420.79	286.94
421.16	290.68
421.54	294.30
421.91	298.10
422.28	302.02
422.66	306.24
423.03	310.35
423.40	314.50
423.77	319.07
424.15	323.64
424.52	328.50
424.89	333.48
425.26	338.68
425.64	343.39
426.01	348.45
426.38	353.86
426.75	359.28
427.13	365.17
427.50	371.12
427.87	377.45
428.24	383.65
428.61	389.53
428.99	395.90
429.36	403.14
429.73	410.03
430.10	416.92
430.47	423.90
430.85	431.09
431.22	438.81
431.59	446.67
431.96	454.36
432.33	462.89
432.70	471.29
433.08	480.89
433.45	490.04
433.82	499.27
434.19	509.42
434.56	519.29
434.93	528.56
435.30	537.80
435.68	548.11
436.05	558.46
436.42	568.61
436.79	577.90
437.16	587.88
437.53	598.36
437.90	608.94
438.27	619.18
438.64	630.20
439.01	640.43
439.38	649.49
439.75	658.03
440.13	667.65
440.50	676.81
440.87	684.60
441.24	692.74
441.61	701.65
441.98	708.15
442.35	716.10
442.72	724.04
443.09	731.94
443.46	737.07
443.83	740.37
444.20	743.60
444.57	748.12
444.94	750.62
445.31	753.65
445.68	756.08
446.05	758.14
446.42	757.93
446.79	757.54
447.16	757.33
447.53	757.73
447.90	755.24
448.27	752.57
448.64	748.00
449.01	745.30
449.37	739.50
449.74	733.94
450.11	726.66
450.48	719.11
450.85	711.17
451.22	704.42
451.59	698.30
451.96	692.42
452.33	683.81
452.70	676.32
453.07	666.70
453.43	657.30
453.80	647.89
454.17	639.06
454.54	630.87
454.91	621.79
455.28	612.70
455.65	604.31
456.02	595.80
456.38	588.77
456.75	579.59
457.12	572.12
457.49	564.64
457.86	557.39
458.23	551.15
458.59	544.24
458.96	536.99
459.33	530.62
459.70	524.18
460.07	519.06
460.43	512.99
460.80	507.39
461.17	502.41
461.54	497.05
461.91	492.19
462.27	486.95
462.64	482.62
463.01	477.83
463.38	473.30
463.74	468.70
464.11	464.48
464.48	460.95
464.85	456.77
465.21	453.70
465.58	450.68
465.95	446.56
466.32	443.21
466.68	440.09
467.05	436.92
467.42	433.71
467.78	430.36
468.15	427.09
468.52	424.87
468.88	421.67
469.25	419.00
469.62	416.60
469.98	414.09
470.35	411.76
470.72	409.75
471.08	407.20
471.45	405.28
471.82	403.18
472.18	400.88
472.55	399.33
472.92	397.51
473.28	395.74
473.65	394.05
474.02	392.42
474.38	391.01
474.75	389.69
475.11	388.36
475.48	387.41
475.85	386.54
476.21	385.54
476.58	384.85
476.94	384.28
477.31	383.64
477.67	383.04
478.04	382.44
478.41	381.98
478.77	381.83
479.14	381.40
479.50	381.08
479.87	380.99
480.23	380.94
480.60	380.64
480.96	380.30
481.33	380.57
481.69	380.70
482.06	380.84
482.42	380.76
482.79	380.91
483.15	381.27
483.52	381.87
483.88	382.17
484.25	382.55
484.61	383.05
484.98	383.41
485.34	384.15
485.71	385.10
486.07	385.81
486.44	386.58
486.80	387.79
487.17	389.13
487.53	390.23
487.90	391.41
488.26	392.96
488.62	394.56
488.99	396.15
489.35	397.75
489.72	399.60
490.08	401.64
490.44	403.59
490.81	405.56
491.17	407.57
491.54	409.90
491.90	412.17
492.26	414.56
492.63	417.02
492.99	419.36
493.36	421.85
493.72	424.61
494.08	427.48
494.45	429.93
494.81	433.01
495.17	435.99
495.54	439.17
495.90	442.10
496.26	445.26
496.63	448.41
496.99	451.75
497.35	455.00
497.72	458.51
498.08	461.98
498.44	465.41
498.80	469.09
499.17	472.46
499.53	476.20
499.89	479.85
500.26	483.69
500.62	487.55
500.98	491.28
501.34	495.12
501.71	498.80
502.07	502.89
502.43	506.50
502.79	510.28
503.16	513.89
503.52	517.91
503.88	521.64
504.24	525.37
504.60	529.20
504.97	533.01
505.33	536.62
505.69	540.58
506.05	544.30
506.41	547.82
506.78	551.64
507.14	555.18
507.50	558.60
507.86	562.10
508.22	565.67
508.59	569.10
508.95	572.54
509.31	576.16
509.67	579.63
510.03	582.93
510.39	586.46
510.75	589.85
511.12	592.90
511.48	596.17
511.84	599.34
512.20	602.50
512.56	605.47
512.92	608.62
513.28	611.50
513.64	614.38
514.00	616.93
514.37	619.48
514.73	622.18
515.09	624.80
515.45	627.29
515.81	629.71
516.17	632.31
516.53	634.62
516.89	636.67
517.25	638.71
517.61	640.92
517.97	642.76
518.33	644.55
518.69	646.72
519.05	648.77
519.41	650.73
519.77	652.64
520.13	654.63
520.49	656.31
520.85	657.89
521.21	659.53
521.57	661.80
521.93	663.55
522.29	665.21
522.65	666.83
523.01	668.20
523.37	669.59
523.73	670.93
524.09	672.40
524.45	673.94
524.81	675.53
525.17	677.05
525.53	678.92
525.89	680.53
526.25	682.04
526.61	683.24
526.97	684.78
527.33	686.37
527.68	687.93
528.04	689.48
528.40	691.11
528.76	692.89
529.12	694.44
529.48	696.32
529.84	698.08
530.20	699.88
530.56	702.29
530.91	704.39
531.27	706.58
531.63	708.42
531.99	710.49
532.35	712.50
532.71	714.58
533.07	716.71
533.42	718.99
533.78	721.00
534.14	723.44
534.50	725.50
534.86	727.49
535.21	729.26
535.57	731.51
535.93	733.73
536.29	736.06
536.65	738.07
537.00	740.04
537.36	742.39
537.72	744.75
538.08	746.99
538.44	749.25
538.79	751.36
539.15	753.82
539.51	756.50
539.87	759.04
540.22	761.62
540.58	764.40
540.94	766.92
541.29	769.33
541.65	771.90
542.01	774.86
542.37	777.72
542.72	780.70
543.08	783.42
543.44	786.20
543.79	788.50
544.15	791.60
544.51	794.84
544.87	797.95
545.22	800.96
545.58	803.70
545.94	806.51
546.29	809.28
546.65	812.02
547.01	814.59
547.36	817.29
547.72	819.89
548.07	822.24
548.43	825.04
548.79	827.91
549.14	830.64
549.50	833.01
549.86	835.41
550.21	838.11
550.57	841.15
550.92	843.86
551.28	846.77
551.64	849.40
551.99	852.05
552.35	854.68
552.70	857.35
553.06	860.45
553.41	863.44
553.77	866.56
554.13	869.84
554.48	872.79
554.84	875.54
555.19	878.34
555.55	881.32
555.90	883.97
556.26	887.02
556.61	889.40
556.97	892.17
557.32	894.91
557.68	897.52
558.03	900.09
558.39	902.88
558.74	905.92
559.10	908.84
559.45	911.60
559.81	914.51
560.16	917.08
560.52	919.36
560.87	922.32
561.23	924.61
561.58	926.93
561.94	929.50
562.29	931.91
562.64	934.45
563.00	936.94
563.35	939.74
563.71	942.16
564.06	945.14
564.42	947.69
564.77	950.48
565.12	953.29
565.48	955.90
565.83	957.93
566.19	960.26
566.54	962.18
566.89	964.22
567.25	966.22
567.60	968.59
567.96	970.84
568.31	972.63
568.66	974.86
569.02	976.82
569.37	978.35
569.72	980.55
570.08	982.43
570.43	984.09
570.78	985.14
571.14	986.40
571.49	987.80
571.84	989.43
572.20	990.36
572.55	991.39
572.90	992.34
573.26	993.57
573.61	994.55
573.96	995.57
574.31	996.05
574.67	996.19
575.02	996.30
575.37	996.54
575.72	996.60
576.08	996.91
576.43	996.90
576.78	997.46
577.13	997.50
577.49	997.60
577.84	997.46
578.19	997.66
578.54	997.39
578.90	997.27
579.25	996.55
579.60	996.16
579.95	995.76
580.30	994.99
580.66	994.71
581.01	993.88
581.36	993.33
581.71	993.35
582.06	992.86
582.42	992.22
582.77	991.64
583.12	990.87
583.47	990.04
583.82	989.89
584.17	988.77
584.53	987.81
584.88	986.73
585.23	986.04
585.58	985.47
585.93	984.98
586.28	984.00
586.63	983.16
586.98	982.31
587.34	981.29
587.69	980.63
588.04	979.57
588.39	978.61
588.74	977.02
589.09	975.43
589.44	973.85
589.79	973.16
590.14	971.81
590.49	970.10
590.84	968.61
591.19	966.73
591.54	964.81
591.89	962.91
592.25	961.40
592.60	959.24
592.95	956.96
593.30	954.73
593.65	952.41
594.00	950.34
594.35	948.98
594.70	946.53
595.05	944.20
595.40	941.81
595.75	939.69
596.10	937.58
596.45	935.46
596.80	933.96
597.15	931.43
597.50	929.02
597.85	927.37
598.19	925.43
598.54	923.61
598.89	921.89
599.24	920.06
599.59	917.66
599.94	915.63
600.29	913.57
600.64	911.52
600.99	909.34
601.34	907.30
601.69	904.39
602.04	902.38
602.39	900.16
602.74	898.15
603.08	896.16
603.43	894.40
603.78	892.16
604.13	889.61
604.48	887.26
604.83	885.09
605.18	882.63
605.53	879.81
605.87	876.67
606.22	874.17
606.57	871.55
606.92	869.01
607.27	866.75
607.62	864.43
607.96	861.97
608.31	859.63
608.66	856.83
609.01	853.85
609.36	851.01
609.70	847.69
610.05	844.58
610.40	841.24
610.75	838.06
611.10	835.08
611.44	831.88
611.79	828.93
612.14	825.61
612.49	822.05
612.83	818.93
613.18	815.81
613.53	812.60
613.88	809.08
614.22	806.09
614.57	802.27
614.92	798.59
615.27	795.37
615.61	791.94
615.96	788.88
616.31	786.10
616.65	783.11
617.00	780.61
617.35	777.62
617.70	774.64
618.04	771.38
618.39	768.08
618.74	764.89
619.08	761.48
619.43	758.50
619.78	755.76
620.12	752.60
620.47	749.46
620.82	746.40
621.16	743.68
621.51	740.50
621.85	737.74
622.20	734.94
622.55	731.68
622.89	728.83
623.24	725.81
623.59	722.89
623.93	719.97
624.28	716.91
624.62	714.14
624.97	711.30
625.32	708.60
625.66	705.91
626.01	703.10
626.35	700.46
626.70	697.82
627.04	695.17
627.39	692.30
627.73	689.60
628.08	686.83
628.43	684.00
628.77	681.23
629.12	678.43
629.46	675.67
629.81	672.66
630.15	669.57
630.50	666.74
630.84	663.73
631.19	660.74
631.53	657.58
631.88	654.28
632.22	651.09
632.57	648.24
632.91	644.98
633.26	641.96
633.60	638.86
633.95	635.96
634.29	633.12
634.64	630.58
634.98	627.70
635.32	625.12
635.67	622.39
636.01	619.66
636.36	617.06
636.70	614.61
637.05	612.14
637.39	609.70
637.73	607.23
638.08	604.85
638.42	602.42
638.77	600.10
639.11	597.70
639.45	595.08
639.80	592.26
640.14	589.85
640.49	587.52
640.83	585.03
641.17	582.38
641.52	579.72
641.86	577.14
642.20	574.78
642.55	572.00
642.89	569.63
643.23	567.21
643.58	564.89
643.92	562.08
644.26	559.66
644.61	557.30
644.95	554.60
645.29	551.83
645.64	549.22
645.98	546.77
646.32	544.37
646.66	542.01
647.01	539.60
647.35	537.17
647.69	534.81
648.04	532.44
648.38	530.00
648.72	527.33
649.06	524.63
649.41	522.22
649.75	519.71
650.09	517.06
650.43	514.55
650.78	511.65
651.12	509.28
651.46	506.98
651.80	504.43
652.14	502.08
652.49	499.87
652.83	497.53
653.17	495.09
653.51	492.67
653.85	490.37
654.20	488.08
654.54	485.55
654.88	483.05
655.22	480.58
655.56	478.08
655.90	475.90
656.25	473.89
656.59	471.57
656.93	469.41
657.27	467.33
657.61	465.05
657.95	463.18
658.29	461.05
658.64	458.81
658.98	456.72
659.32	454.50
659.66	452.28
660.00	450.24
660.34	448.06
660.68	445.97
661.02	443.87
661.36	441.84
661.70	440.09
662.05	438.34
662.39	436.90
662.73	435.16
663.07	433.42
663.41	431.56
663.75	429.59
664.09	427.80
664.43	425.75
664.77	423.99
665.11	422.13
665.45	420.22
665.79	418.40
666.13	416.54
666.47	414.81
666.81	412.99
667.15	411.10
667.49	409.36
667.83	407.70
668.17	406.03
668.51	404.43
668.85	402.75
669.19	401.20
669.53	399.19
669.87	397.58
670.21	395.90
670.55	394.37
670.89	393.03
671.23	391.43
671.57	390.10
671.91	388.52
672.25	386.95
672.58	385.53
672.92	384.14
673.26	382.83
673.60	381.57
673.94	380.11
674.28	378.92
674.62	377.74
674.96	376.30
675.30	375.00
675.64	373.56
675.97	372.29
676.31	370.90
676.65	369.66
676.99	368.43
677.33	367.15
677.67	365.80
678.01	364.51
678.34	363.33
678.68	361.92
679.02	360.68
679.36	359.44
679.70	358.21
680.04	357.04
680.37	355.70
680.71	354.42
681.05	353.48
681.39	352.34
681.73	351.08
682.06	350.07
682.40	349.02
682.74	347.98
683.08	346.98
683.42	345.73
683.75	344.66
684.09	343.52
684.43	342.37
684.77	341.28
685.10	340.09
685.44	338.90
685.78	337.87
686.12	336.81
686.45	335.81
686.79	334.70
687.13	333.52
687.46	332.51
687.80	331.46
688.14	330.18
688.48	329.05
688.81	328.01
689.15	326.89
689.49	325.78
689.82	324.84
690.16	323.66
690.50	322.82
690.83	321.92
691.17	320.77
691.51	319.79
691.84	318.84
692.18	317.92
692.52	316.89
692.85	315.90
693.19	315.05
693.52	314.06
693.86	313.25
694.20	312.31
694.53	311.50
694.87	310.56
695.21	309.68
695.54	308.80
695.88	307.79
696.21	306.92
696.55	306.05
696.88	305.04
697.22	304.18
697.56	303.20
697.89	302.30
698.23	301.66
698.56	300.89
698.90	300.01
699.23	299.06
699.57	298.40
699.90	297.74
700.24	296.92
700.58	296.20
700.91	295.40
701.25	294.85
701.58	294.21
701.92	293.53
702.25	292.90
702.59	292.14
702.92	291.60
703.26	290.92
703.59	290.26
703.93	289.79
704.26	289.24
704.60	288.60
704.93	287.98
705.26	287.34
705.60	286.84
705.93	286.31
706.27	285.82
706.60	285.35
706.94	284.69
707.27	284.08
707.61	283.45
707.94	282.91
708.27	282.18
708.61	281.42
708.94	280.91
709.28	280.43
709.61	279.88
709.94	279.28
710.28	278.82
710.61	278.24
710.95	277.50
711.28	277.03
711.61	276.52
711.95	276.01
712.28	275.48
712.61	274.90
712.95	274.45
713.28	274.02
713.61	273.48
713.95	273.01
714.28	272.46
714.61	271.99
714.95	271.51
715.28	270.97
715.61	270.56
715.95	270.00
716.28	269.50
716.61	268.99
716.95	268.71
717.28	268.15
717.61	267.82
717.94	267.47
718.28	266.88
718.61	266.59
718.94	266.14
719.27	265.74
719.61	265.43
719.94	265.08
720.27	264.72
720.60	264.20
720.94	263.88
721.27	263.67
721.60	263.37
721.93	263.13
722.27	263.02
722.60	262.75
722.93	262.52
723.26	262.25
723.59	262.00
723.93	261.58
724.26	261.40
724.59	261.05
724.92	260.82
725.25	260.70
725.59	260.33
725.92	260.06
726.25	259.71
726.58	259.30
726.91	258.83
727.24	258.49
727.57	258.28
727.91	257.88
728.24	257.58
728.57	257.25
728.90	256.96
729.23	256.52
729.56	256.31
729.89	255.99
730.22	255.65
730.55	255.43
730.89	255.13
731.22	254.79
731.55	254.50
731.88	254.21
732.21	253.77
732.54	253.40
732.87	253.08
733.20	252.86
733.53	252.54
733.86	252.35
734.19	252.10
734.52	251.82
734.85	251.69
735.18	251.29
735.51	251.09
735.84	250.88
736.17	250.71
736.50	250.27
736.83	250.25
737.16	250.07
737.49	249.84
737.82	249.65
738.15	249.46
738.48	249.20
738.81	248.91
739.14	248.74
739.47	248.55
739.80	248.41
740.13	248.18
740.46	248.01
740.79	247.83
741.12	247.57
741.45	247.35
741.78	247.11
742.11	247.01
742.44	246.75
742.77	246.44
743.10	246.15
743.43	246.00
743.75	245.62
744.08	245.66
744.41	245.46
744.74	245.29
745.07	245.18
745.40	245.07
745.73	245.06
746.06	244.87
746.39	244.68
746.71	244.57
747.04	244.39
747.37	244.26
747.70	244.11
748.03	244.09
748.36	244.00
748.68	243.86
749.01	243.59
749.34	243.50
749.67	243.40
750.00	243.34
750.33	243.38
750.65	243.12
750.98	242.73
751.31	242.57
751.64	242.33
751.97	242.14
752.29	241.90
752.62	241.54
752.95	241.34
753.28	241.14
753.60	240.85
753.93	240.78
754.26	240.64
754.59	240.48
754.91	240.13
755.24	239.96
755.57	239.76
755.90	239.77
756.22	239.66
756.55	239.39
756.88	239.20
757.20	238.87
757.53	238.75
757.86	238.62
758.19	238.59
758.51	238.49
758.84	238.30
759.17	238.15
759.49	238.16
759.82	238.21
760.15	238.34
760.47	238.32
760.80	238.14
761.13	238.07
761.45	238.01
761.78	237.97
762.11	237.96
762.43	237.92
762.76	237.88
763.08	237.74
763.41	237.80
763.74	237.70
764.06	237.61
764.39	237.58
764.71	237.50
765.04	237.32
765.37	237.22
765.69	237.12
766.02	237.17
766.34	237.00
766.67	236.88
767.00	236.76
767.32	236.77
767.65	236.83
767.97	236.75
768.30	236.67
768.62	236.77
768.95	236.66
769.27	236.64
769.60	236.52
769.92	236.44
770.25	236.29
770.57	236.26
770.90	236.29
771.22	236.20
771.55	236.10
771.87	236.06
772.20	236.00
772.52	236.09
772.85	236.17
773.17	236.13
773.50	235.93
773.82	235.86
774.15	235.60
774.47	235.42
774.80	235.30
775.12	235.24
775.45	235.02
775.77	235.00
776.09	234.87
776.42	234.78
776.74	234.76
777.07	234.70
777.39	234.60
777.72	234.44
778.04	234.34
778.36	234.26
778.69	234.20
779.01	234.20
779.33	234.00
779.66	233.80
779.98	233.73
780.31	233.70
780.63	233.59
780.95	233.61
781.28	233.42
781.60	233.32
781.92	233.20
782.25	233.14
782.57	232.92
782.89	232.79
783.22	232.70
783.54	232.53
783.86	232.49
784.19	232.47
784.51	232.51
784.83	232.47
785.16	232.51
785.48	232.53
785.80	232.40
786.12	232.28
786.45	232.09
786.77	232.10
787.09	232.10
787.42	231.99
787.74	232.00
788.06	231.99
788.38	231.90
788.71	231.87
789.03	231.81
789.35	231.88
789.67	231.81
789.99	231.80
790.32	231.75
790.64	231.65
790.96	231.78
791.28	231.69
791.61	231.66
791.93	231.54
792.25	231.44
792.57	231.65
792.89	231.57
793.21	231.52
793.54	231.45
793.86	231.47
794.18	231.54
794.50	231.49
794.82	231.56
795.14	231.56
795.47	231.54
795.79	231.51
796.11	231.42
796.43	231.44
796.75	231.43
797.07	231.50
797.39	231.52
797.71	231.38
798.04	231.37
798.36	231.35
798.68	231.40
799.00	231.39
799.32	231.14
799.64	231.18
799.96	231.28
800.28	231.20
800.60	231.17
800.92	231.18
801.24	231.10
801.56	231.16
801.89	231.22
802.21	231.18
802.53	231.19
802.85	231.26
803.17	231.48
803.49	231.37
803.81	231.30
804.13	231.21
804.45	231.07
804.77	231.05
805.09	231.10
805.41	231.08
805.73	230.91
806.05	230.90
806.37	230.99
806.69	230.98
807.01	230.97
807.33	230.93
807.65	230.70
807.97	230.82
808.28	230.79
808.60	230.73
808.92	230.81
809.24	230.96
809.56	230.92
809.88	230.71
810.20	230.80
810.52	230.82
810.84	230.87
811.16	230.85
811.48	230.82
811.80	230.77
812.12	230.61
812.43	230.74
812.75	230.71
813.07	230.68
813.39	230.73
813.71	230.73
814.03	230.77
814.35	230.90
814.67	230.69
814.98	230.71
815.30	230.70
815.62	230.52
815.94	230.40
816.26	230.52
816.58	230.48
816.89	230.39
817.21	230.37
817.53	230.26
817.85	230.41
818.17	230.46
818.48	230.41
818.80	230.47
819.12	230.36
819.44	230.36
819.76	230.27
820.07	230.18
820.39	230.17
820.71	230.20
821.03	230.16
821.34	230.17
821.66	230.12
821.98	230.21
822.30	230.23
822.61	230.34
822.93	230.17
823.25	230.20
823.57	230.25
823.88	230.34
824.20	230.45
824.52	230.28
824.83	230.11
825.15	230.10
825.47	230.13
825.79	230.20
826.10	230.11
826.42	230.07
826.74	230.12
827.05	230.16
827.37	229.98
827.69	230.08
828.00	230.04
828.32	229.95
828.64	229.76
828.95	229.89
829.27	229.71
829.58	229.67
829.90	229.70
830.22	229.67
830.53	229.47
830.85	229.30
831.17	229.23
831.48	229.19
831.80	229.17
832.11	229.19
832.43	229.18
832.75	229.30
833.06	229.43
833.38	229.33
833.69	229.24
834.01	229.25
834.32	229.00
834.64	228.98
834.96	228.93
835.27	229.00
835.59	228.87
835.90	228.76
836.22	228.76
836.53	228.58
836.85	228.46
837.16	228.67
837.48	228.65
837.79	228.74
838.11	228.75
838.42	228.74
838.74	228.72
839.05	228.69
839.37	228.59
839.68	228.48
840.00	228.49
840.31	228.51
840.63	228.49
840.94	228.50
841.26	228.49
841.57	228.60
841.88	228.61
842.20	228.58
842.51	228.59
842.83	228.60
843.14	228.76
843.46	228.85
843.77	228.68
844.08	228.65
844.40	228.55
844.71	228.51
845.03	228.44
845.34	228.33
845.65	228.32
845.97	228.31
846.28	228.30
846.60	228.28
846.91	228.18
847.22	228.20
847.54	228.20
847.85	228.13
848.16	228.05
848.48	228.00
848.79	227.98
849.10	228.11
849.42	228.01
849.73	227.84
850.04	227.81
850.36	227.85
850.67	227.98
850.98	228.06
851.30	228.17
851.61	228.18
851.92	228.23
852.23	228.22
852.55	228.11
852.86	228.05
853.17	228.01
853.49	228.16
853.80	228.12
854.11	228.15
854.42	228.31
854.74	228.20
855.05	228.21
855.36	228.16
855.67	228.07
855.99	228.14
856.30	228.44
856.61	228.35
856.92	228.35
857.23	228.32
857.55	228.20
857.86	228.05
858.17	228.09
858.48	228.00
858.79	227.95
859.11	228.02
859.42	228.07
859.73	228.03
860.04	227.92
860.35	227.93
860.66	227.95
860.98	227.95
861.29	228.07
861.60	228.02
861.91	228.26
862.22	228.24
862.53	228.13
862.84	227.96
863.16	228.01
863.47	227.94
863.78	227.92
864.09	228.09
864.40	228.17
864.71	228.19
865.02	228.28
865.33	228.26
865.64	228.33
865.95	228.41
866.27	228.49
866.58	228.45
866.89	228.49
867.20	228.41
867.51	228.35
867.82	228.37
868.13	228.43
868.44	228.29
868.75	228.41
869.06	228.47
869.37	228.39
869.68	228.39
869.99	228.42
870.30	228.47
870.61	228.40
870.92	228.36
871.23	228.35
871.54	228.34
871.85	228.49
872.16	228.43
872.47	228.16
872.78	228.07
873.09	228.09
873.40	228.05
873.71	228.11
874.02	228.15
874.33	228.09
874.64	228.05
874.95	228.00
875.26	227.81
875.56	227.85
875.87	227.87
876.18	227.84
876.49	228.07
876.80	227.96
877.11	227.97
877.42	227.97
877.73	228.02
878.04	228.03
878.35	227.96
878.66	227.92
878.96	228.20
879.27	228.17
879.58	228.21
879.89	228.21
880.20	228.30
880.51	228.27
880.82	228.29
881.12	228.23
881.43	228.21
881.74	228.20
882.05	228.17
882.36	228.09
882.67	228.11
882.97	227.88
883.28	227.90
883.59	227.89
883.90	227.96
884.21	227.90
884.51	227.79
884.82	227.69
885.13	227.83
885.44	227.69
885.74	227.70
886.05	227.68
886.36	227.70
886.67	227.54
886.98	227.66
887.28	227.75
887.59	227.83
887.90	227.92
888.20	227.96
888.51	228.00
888.82	228.04
889.13	228.07
889.43	228.18
889.74	228.21
890.05	228.24
890.35	228.21
890.66	228.15
890.97	228.23
891.28	228.31
891.58	228.16
891.89	228.23
892.20	228.26
892.50	228.28
892.81	228.23
893.12	228.28
893.42	228.19
893.73	228.07
894.04	228.08
894.34	228.03
894.65	228.08
894.95	227.93
895.26	227.92
895.57	228.06
895.87	227.83
896.18	227.91
896.48	227.88
896.79	227.91
897.10	227.99
897.40	227.98
897.71	227.87
898.01	227.93
898.32	228.02
898.63	228.07
898.93	228.09
899.24	228.18
899.54	228.13
899.85	228.17
900.15	228.23
900.46	228.21
900.76	228.26
901.07	228.37
901.38	228.50
901.68	228.57
901.99	228.41
902.29	228.51
902.60	228.48
902.90	228.49
903.21	228.45
903.51	228.47
903.82	228.48
904.12	228.62
904.43	228.68
904.73	228.59
905.03	228.56
905.34	228.78
905.64	228.72
905.95	228.90
906.25	228.89
906.56	228.91
906.86	229.08
907.17	229.02
907.47	228.96
907.77	229.01
908.08	228.99
908.38	229.08
908.69	229.03
908.99	229.00
909.30	229.05
909.60	229.04
909.90	229.13
910.21	229.18
910.51	229.05
910.81	229.01
911.12	228.97
911.42	228.96
911.73	228.73
912.03	228.75
912.33	228.61
912.64	228.60
912.94	228.58
913.24	228.44
913.55	228.42
913.85	228.40
914.15	228.31
914.46	228.39
914.76	228.34
915.06	228.43
915.37	228.42
915.67	228.38
915.97	228.34
916.27	228.16
916.58	228.05
916.88	228.16
917.18	228.16
917.49	228.40
917.79	228.43
918.09	228.47
918.39	228.54
918.70	228.57
919.00	228.48
919.30	228.54
919.60	228.45
919.91	228.45
920.21	228.53
920.51	228.55
920.81	228.49
921.12	228.47
921.42	228.36
921.72	228.42
922.02	228.44
922.32	228.60
922.63	228.74
922.93	228.96
923.23	228.90
923.53	228.83
923.83	228.72
924.13	228.74
924.44	228.80
924.74	228.78
925.04	228.84
925.34	228.91
925.64	228.73
925.94	228.72
926.24	228.82
926.55	228.63
926.85	228.60
927.15	228.59
927.45	228.60
927.75	228.65
928.05	228.63
928.35	228.61
928.65	228.55
928.95	228.50
929.26	228.38
929.56	228.47
929.86	228.61
930.16	228.58
930.46	228.55
930.76	228.50
931.06	228.42
931.36	228.38
931.66	228.40
931.96	228.53
932.26	228.51
932.56	228.42
932.86	228.52
933.16	228.62
933.46	228.65
933.76	228.61
934.06	228.58
934.36	228.66
934.66	228.68
934.96	228.67
935.26	228.67
935.56	228.64
935.86	228.55
936.16	228.40
936.46	228.33
936.76	228.39
937.06	228.35
937.36	228.31
937.66	228.27
937.96	228.24
938.26	228.20
938.56	228.19
938.86	228.23
939.16	228.20
939.46	228.16
939.76	228.10
940.06	228.17
940.35	228.28
940.65	228.03
940.95	227.93
941.25	227.90
941.55	227.85
941.85	227.78
942.15	227.93
942.45	228.03
942.75	228.09
943.04	228.12
943.34	228.13
943.64	228.10
943.94	228.04
944.24	228.10
944.54	228.02
944.84	228.09
945.13	228.03
945.43	227.98
945.73	227.96
946.03	227.94
946.33	227.80
946.62	227.80
946.92	227.91
947.22	228.02
947.52	228.03
947.82	227.99
948.11	228.07
948.41	227.93
948.71	227.84
949.01	227.80
949.31	227.67
949.60	227.63
949.90	227.65
950.20	227.70
950.50	227.73
950.79	227.83
951.09	227.95
951.39	227.92
951.69	228.02
951.98	228.14
952.28	228.21
952.58	228.24
952.87	228.27
953.17	228.36
953.47	228.29
953.76	228.36
954.06	228.38
954.36	228.33
954.66	228.41
954.95	228.52
955.25	228.60
955.55	228.65
955.84	228.65
956.14	228.74
956.44	228.77
956.73	228.64
957.03	228.72
957.32	228.68
957.62	228.64
957.92	228.65
958.21	228.62
958.51	228.81
958.81	228.71
959.10	228.66
959.40	228.70
959.69	228.82
959.99	228.74
960.29	228.89
960.58	228.88
960.88	228.92
961.17	228.92
961.47	228.82
961.76	228.83
962.06	228.94
962.36	228.94
962.65	228.97
962.95	229.05
963.24	228.97
963.54	228.81
963.83	228.95
964.13	228.96
964.42	228.95
964.72	228.79
965.01	228.97
965.31	229.01
965.60	228.90
965.90	228.87
966.19	228.87
966.49	228.78
966.78	228.93
967.08	228.92
967.37	228.89
967.67	228.92
967.96	228.97
968.26	228.89
968.55	228.85
968.85	228.91
969.14	228.81
969.43	228.86
969.73	228.96
970.02	228.89
970.32	228.86
970.61	228.81
970.91	228.83
971.20	228.75
971.49	228.83
971.79	228.83
972.08	228.70
972.38	228.72
972.67	228.68
972.96	228.55
973.26	228.56
973.55	228.61
973.85	228.59
974.14	228.47
974.43	228.50
974.73	228.58
975.02	228.47
975.31	228.48
975.61	228.40
975.90	228.32
976.19	228.35
976.49	228.41
976.78	228.36
977.07	228.30
977.37	228.31
977.66	228.18
977.95	228.12
978.24	228.19
978.54	228.22
978.83	228.20
979.12	228.15
979.42	228.02
979.71	228.01
980.00	228.00
980.29	228.04
980.59	228.01
980.88	227.91
981.17	227.93
981.46	227.97
981.76	227.89
982.05	228.01
982.34	227.99
982.63	227.85
982.93	227.93
983.22	228.00
983.51	228.03
983.80	228.06
984.09	228.02
984.39	228.01
984.68	227.97
984.97	227.98
985.26	228.01
985.55	228.08
985.85	227.95
986.14	227.97
986.43	227.97
986.72	227.97
987.01	227.90
987.30	227.92
987.59	227.90
987.89	228.06
988.18	228.04
988.47	228.06
988.76	228.05
989.05	227.91
989.34	227.84
989.63	227.81
989.92	227.75
990.22	227.87
990.51	227.85
990.80	227.89
991.09	227.94
991.38	227.93
991.67	227.90
991.96	227.95
992.25	228.03
992.54	228.05
992.83	228.03
993.12	228.04
993.41	228.00
993.70	228.11
993.99	228.01
994.28	228.01
994.58	228.05
994.87	228.10
995.16	228.17
995.45	228.14
995.74	228.14
996.03	228.23
996.32	228.24
996.61	228.37
996.90	228.33
997.19	228.30
997.48	228.34
997.77	228.27
998.06	228.25
998.34	228.16
998.63	228.10
998.92	228.12
999.21	228.25
999.50	228.25
999.79	228.26
1000.08	228.29
1000.37	228.38
1000.66	228.30
1000.95	228.34
1001.24	228.36
1001.53	228.40
1001.82	228.38
1002.11	228.37
1002.40	228.40
1002.68	228.39
1002.97	228.56
1003.26	228.54
1003.55	228.59
1003.84	228.67
1004.13	228.73
1004.42	228.78
1004.71	228.79
1004.99	228.86
1005.28	228.81
1005.57	229.02
1005.86	228.90
1006.15	228.95
1006.44	228.81
1006.72	228.82
1007.01	228.81
1007.30	228.84
1007.59	228.81
1007.88	228.85
1008.17	228.83
1008.45	228.77
1008.74	228.72
1009.03	228.63
1009.32	228.59
1009.60	228.63
1009.89	228.60
1010.18	228.58
1010.47	228.68
1010.76	228.65
1011.04	228.59
1011.33	228.67
1011.62	228.58
1011.91	228.55
1012.19	228.58
1012.48	228.61
1012.77	228.68
1013.05	228.72
1013.34	228.71
1013.63	228.68
1013.92	228.61
1014.20	228.49
1014.49	228.46
1014.78	228.40
1015.06	228.37
1015.35	228.45
1015.64	228.34
1015.92	228.43
1016.21	228.41
1016.50	228.33
1016.78	228.40
1017.07	228.38
1017.36	228.35
1017.64	228.28
1017.93	228.39
1018.22	228.39
1018.50	228.37
1018.79	228.29
1019.08	228.19
1019.36	228.19
1019.65	228.20
1019.93	228.28
1020.22	228.37
1020.51	228.56
1020.79	228.50
1021.08	229.60
1021.36	227.70
1021.65	227.20
1021.94	227.90
1022.22	228.30
1022.51	227.70
1022.79	228.20
1023.08	228.20
1023.36	231.90
1023.65	226.20
>>>>>End Processed Spectral Data<<<<<
