SpectraSuite Data File
++++++++++++++++++++++++++++++++++++
Date: Fri Feb 01 14:35:57 EST 2013
User: group
Dark Spectrum Present: No
Reference Spectrum Present: No
Number of Sampled Component Spectra: 1
Spectrometers: USB2E7196
Integration Time (usec): 70000 (USB2E7196)
Spectra Averaged: 10 (USB2E7196)
Boxcar Smoothing: 10 (USB2E7196)
Correct for Electrical Dark: No (USB2E7196)
Strobe/Lamp Enabled: No (USB2E7196)
Correct for Detector Non-linearity: No (USB2E7196)
Correct for Stray Light: No (USB2E7196)
Number of Pixels in Processed Spectrum: 2048
>>>>>Begin Processed Spectral Data<<<<<
339.09	0.00
339.48	215.70
339.86	218.80
340.24	218.80
340.63	220.00
341.01	225.00
341.39	221.50
341.78	224.20
342.16	226.00
342.54	225.80
342.93	214.55
343.31	225.42
343.69	225.98
344.07	226.34
344.46	226.78
344.84	227.20
345.22	227.28
345.60	227.72
345.99	227.94
346.37	228.09
346.75	228.19
347.13	228.26
347.52	228.39
347.90	228.49
348.28	228.58
348.66	228.68
349.05	228.51
349.43	228.55
349.81	228.58
350.19	228.64
350.57	228.71
350.96	228.74
351.34	228.76
351.72	228.86
352.10	229.05
352.48	229.15
352.87	229.10
353.25	229.26
353.63	229.18
354.01	229.06
354.39	229.12
354.77	229.30
355.15	229.38
355.54	229.35
355.92	229.33
356.30	229.20
356.68	229.43
357.06	229.60
357.44	229.57
357.82	229.55
358.20	229.62
358.58	229.61
358.97	229.76
359.35	229.82
359.73	229.87
360.11	229.81
360.49	229.83
360.87	229.90
361.25	229.83
361.63	229.87
362.01	230.06
362.39	229.97
362.77	229.85
363.15	229.87
363.53	229.94
363.91	229.91
364.29	230.01
364.67	229.81
365.05	229.78
365.43	229.84
365.81	229.76
366.19	229.79
366.57	229.85
366.95	229.79
367.33	229.73
367.71	229.76
368.09	229.75
368.47	229.64
368.85	229.55
369.23	229.59
369.61	229.47
369.99	229.41
370.37	229.37
370.75	229.41
371.13	229.27
371.51	229.15
371.89	229.18
372.27	229.01
372.65	228.94
373.03	228.87
373.41	228.78
373.78	228.73
374.16	228.61
374.54	228.40
374.92	228.40
375.30	228.33
375.68	228.10
376.06	228.03
376.44	227.94
376.82	227.93
377.19	227.89
377.57	227.83
377.95	227.78
378.33	227.76
378.71	227.61
379.09	227.50
379.47	227.38
379.84	227.31
380.22	227.14
380.60	227.03
380.98	226.95
381.36	226.80
381.73	226.77
382.11	226.67
382.49	226.53
382.87	226.35
383.25	226.34
383.62	226.60
384.00	226.58
384.38	226.58
384.76	226.48
385.13	226.48
385.51	226.50
385.89	226.40
386.27	226.42
386.64	226.29
387.02	226.43
387.40	226.46
387.78	226.36
388.15	226.49
388.53	226.50
388.91	226.46
389.29	226.40
389.66	226.40
390.04	226.45
390.42	226.65
390.79	226.64
391.17	226.58
391.55	226.33
391.92	226.32
392.30	226.30
392.68	226.29
393.05	226.30
393.43	226.25
393.81	226.28
394.18	226.28
394.56	226.38
394.94	226.41
395.31	226.47
395.69	226.62
396.06	226.73
396.44	226.82
396.82	226.82
397.19	227.10
397.57	227.27
397.95	227.33
398.32	227.35
398.70	227.59
399.07	227.73
399.45	227.90
399.82	228.05
400.20	228.17
400.58	228.41
400.95	228.56
401.33	228.72
401.70	228.99
402.08	229.19
402.45	229.47
402.83	229.76
403.20	229.89
403.58	230.07
403.95	230.29
404.33	230.47
404.71	230.76
405.08	231.08
405.46	231.29
405.83	231.56
406.21	231.76
406.58	231.97
406.96	232.37
407.33	232.66
407.70	232.87
408.08	233.43
408.45	233.83
408.83	234.25
409.20	234.73
409.58	235.04
409.95	235.51
410.33	235.99
410.70	236.41
411.08	237.09
411.45	237.73
411.82	238.38
412.20	239.28
412.57	240.19
412.95	240.88
413.32	241.74
413.69	242.64
414.07	243.66
414.44	244.73
414.82	245.67
415.19	246.87
415.56	248.32
415.94	249.52
416.31	250.95
416.68	252.32
417.06	253.99
417.43	255.60
417.81	257.33
418.18	259.12
418.55	261.05
418.93	263.15
419.30	265.29
419.67	267.51
420.04	269.59
420.42	272.06
420.79	274.80
421.16	277.57
421.54	280.35
421.91	283.24
422.28	286.25
422.66	289.50
423.03	292.72
423.40	295.91
423.77	299.47
424.15	303.09
424.52	306.86
424.89	310.79
425.26	314.69
425.64	318.36
426.01	322.45
426.38	326.66
426.75	330.79
427.13	335.02
427.50	339.61
427.87	344.60
428.24	349.30
428.61	353.77
428.99	358.79
429.36	364.36
429.73	370.05
430.10	375.30
430.47	380.86
430.85	386.54
431.22	392.50
431.59	398.85
431.96	404.93
432.33	411.43
432.70	418.02
433.08	425.64
433.45	432.72
433.82	439.85
434.19	447.80
434.56	455.61
434.93	463.21
435.30	470.67
435.68	478.54
436.05	486.59
436.42	494.66
436.79	501.78
437.16	509.51
437.53	517.52
437.90	525.90
438.27	533.70
438.64	542.00
439.01	549.72
439.38	556.49
439.75	562.95
440.13	570.66
440.50	577.65
440.87	583.68
441.24	590.05
441.61	596.81
441.98	601.94
442.35	607.87
442.72	613.76
443.09	619.71
443.46	623.70
443.83	626.37
444.20	628.74
444.57	632.39
444.94	634.37
445.31	636.45
445.68	638.40
446.05	640.10
446.42	640.12
446.79	640.18
447.16	640.02
447.53	640.20
447.90	638.16
448.27	636.33
448.64	632.95
449.01	630.84
449.37	626.32
449.74	621.90
450.11	616.56
450.48	610.72
450.85	604.65
451.22	599.42
451.59	594.70
451.96	590.10
452.33	583.43
452.70	577.63
453.07	570.23
453.43	562.88
453.80	555.57
454.17	548.69
454.54	541.91
454.91	534.83
455.28	527.85
455.65	521.40
456.02	514.58
456.38	508.78
456.75	501.50
457.12	495.69
457.49	489.76
457.86	484.00
458.23	479.05
458.59	473.36
458.96	467.78
459.33	462.59
459.70	457.57
460.07	453.48
460.43	448.68
460.80	444.30
461.17	440.31
461.54	436.38
461.91	432.39
462.27	428.31
462.64	425.01
463.01	421.22
463.38	417.60
463.74	414.04
464.11	410.95
464.48	408.11
464.85	404.85
465.21	402.50
465.58	399.82
465.95	396.70
466.32	394.19
466.68	391.58
467.05	389.04
467.42	386.60
467.78	383.86
468.15	381.39
468.52	379.43
468.88	376.93
469.25	374.40
469.62	372.54
469.98	370.71
470.35	368.80
470.72	367.05
471.08	365.00
471.45	363.28
471.82	361.56
472.18	359.88
472.55	358.72
472.92	357.08
473.28	355.79
473.65	354.45
474.02	353.19
474.38	352.03
474.75	351.05
475.11	349.72
475.48	348.90
475.85	348.08
476.21	347.27
476.58	346.65
476.94	346.21
477.31	345.51
477.67	344.93
478.04	344.37
478.41	344.04
478.77	343.82
479.14	343.38
479.50	343.21
479.87	343.04
480.23	342.82
480.60	342.50
480.96	342.19
481.33	342.34
481.69	342.18
482.06	342.25
482.42	342.26
482.79	342.31
483.15	342.66
483.52	343.07
483.88	343.31
484.25	343.41
484.61	343.63
484.98	343.91
485.34	344.49
485.71	344.97
486.07	345.50
486.44	345.93
486.80	346.69
487.17	347.28
487.53	347.98
487.90	348.64
488.26	349.76
488.62	350.90
488.99	351.71
489.35	352.78
489.72	353.95
490.08	355.15
490.44	356.46
490.81	357.63
491.17	358.67
491.54	359.93
491.90	361.36
492.26	362.91
492.63	364.54
492.99	365.92
493.36	367.44
493.72	369.09
494.08	370.69
494.45	372.38
494.81	374.25
495.17	375.95
495.54	377.85
495.90	379.64
496.26	381.48
496.63	383.51
496.99	385.52
497.35	387.28
497.72	389.15
498.08	391.16
498.44	393.06
498.80	395.32
499.17	397.56
499.53	399.78
499.89	401.90
500.26	403.81
500.62	405.80
500.98	407.91
501.34	410.24
501.71	412.56
502.07	414.52
502.43	416.40
502.79	418.51
503.16	420.63
503.52	422.61
503.88	424.39
504.24	426.23
504.60	427.91
504.97	429.82
505.33	431.65
505.69	433.72
506.05	435.57
506.41	437.13
506.78	438.72
507.14	440.07
507.50	441.53
507.86	443.25
508.22	444.93
508.59	446.38
508.95	447.65
509.31	448.92
509.67	450.48
510.03	451.82
510.39	453.15
510.75	454.21
511.12	455.25
511.48	456.39
511.84	457.32
512.20	458.46
512.56	459.55
512.92	460.71
513.28	461.52
513.64	462.47
514.00	463.19
514.37	464.13
514.73	464.98
515.09	465.69
515.45	466.20
515.81	466.83
516.17	467.50
516.53	468.03
516.89	468.66
517.25	469.05
517.61	469.74
517.97	469.99
518.33	470.43
518.69	470.98
519.05	471.55
519.41	472.20
519.77	472.83
520.13	473.27
520.49	473.64
520.85	473.89
521.21	474.25
521.57	474.80
521.93	475.15
522.29	475.85
522.65	476.38
523.01	477.16
523.37	477.56
523.73	478.00
524.09	478.53
524.45	479.00
524.81	479.68
525.17	480.33
525.53	481.37
525.89	482.12
526.25	482.86
526.61	483.64
526.97	484.62
527.33	485.40
527.68	486.58
528.04	487.46
528.40	488.54
528.76	489.87
529.12	491.22
529.48	492.61
529.84	493.86
530.20	495.25
530.56	496.60
530.91	498.27
531.27	499.93
531.63	501.57
531.99	503.37
532.35	505.11
532.71	506.61
533.07	508.33
533.42	510.59
533.78	512.61
534.14	514.81
534.50	516.74
534.86	518.85
535.21	520.68
535.57	523.07
535.93	525.40
536.29	527.75
536.65	530.27
537.00	532.71
537.36	535.27
537.72	537.71
538.08	540.40
538.44	542.98
538.79	545.68
539.15	548.38
539.51	551.21
539.87	554.02
540.22	557.11
540.58	560.30
540.94	563.07
541.29	566.28
541.65	569.15
542.01	572.39
542.37	575.87
542.72	579.26
543.08	582.42
543.44	585.80
543.79	588.78
544.15	592.03
544.51	595.50
544.87	598.93
545.22	602.54
545.58	605.93
545.94	609.37
546.29	613.06
546.65	616.52
547.01	619.90
547.36	623.48
547.72	627.07
548.07	630.62
548.43	634.12
548.79	637.78
549.14	641.28
549.50	644.68
549.86	648.13
550.21	651.63
550.57	655.56
550.92	659.07
551.28	662.71
551.64	666.42
551.99	670.09
552.35	673.77
552.70	677.37
553.06	681.11
553.41	685.05
553.77	688.78
554.13	692.51
554.48	696.47
554.84	700.21
555.19	703.84
555.55	707.58
555.90	711.38
556.26	714.71
556.61	718.58
556.97	722.15
557.32	725.89
557.68	729.63
558.03	733.25
558.39	737.06
558.74	740.91
559.10	744.54
559.45	748.20
559.81	752.09
560.16	755.74
560.52	759.26
560.87	762.62
561.23	766.00
561.58	769.72
561.94	773.12
562.29	776.45
562.64	779.90
563.00	783.03
563.35	786.75
563.71	790.40
564.06	793.93
564.42	797.73
564.77	801.20
565.12	804.74
565.48	808.03
565.83	811.25
566.19	814.43
566.54	817.69
566.89	820.65
567.25	823.31
567.60	826.50
567.96	829.64
568.31	832.97
568.66	836.02
569.02	838.94
569.37	841.57
569.72	844.54
570.08	847.27
570.43	850.21
570.78	852.36
571.14	854.60
571.49	856.87
571.84	859.25
572.20	861.28
572.55	863.40
572.90	865.40
573.26	867.53
573.61	869.42
573.96	871.10
574.31	872.77
574.67	874.41
575.02	875.79
575.37	877.06
575.72	877.93
576.08	879.28
576.43	880.33
576.78	881.75
577.13	882.98
577.49	884.25
577.84	885.12
578.19	886.48
578.54	887.74
578.90	888.83
579.25	889.15
579.60	889.84
579.95	890.17
580.30	890.81
580.66	891.38
581.01	891.89
581.36	892.33
581.71	893.00
582.06	893.31
582.42	893.71
582.77	894.09
583.12	894.46
583.47	894.64
583.82	895.15
584.17	895.08
584.53	895.22
584.88	895.33
585.23	895.49
585.58	895.43
585.93	895.05
586.28	894.83
586.63	894.98
586.98	895.23
587.34	895.34
587.69	895.18
588.04	894.90
588.39	895.01
588.74	894.57
589.09	893.91
589.44	893.29
589.79	892.65
590.14	892.17
590.49	891.42
590.84	890.63
591.19	889.70
591.54	888.58
591.89	887.14
592.25	886.20
592.60	884.92
592.95	883.57
593.30	882.49
593.65	881.34
594.00	879.95
594.35	879.01
594.70	877.47
595.05	875.73
595.40	874.32
595.75	872.72
596.10	871.43
596.45	870.38
596.80	869.50
597.15	868.34
597.50	867.07
597.85	865.82
598.19	864.73
598.54	863.45
598.89	862.63
599.24	861.63
599.59	860.20
599.94	859.07
600.29	857.50
600.64	855.85
600.99	853.83
601.34	852.44
601.69	849.98
602.04	848.50
602.39	847.10
602.74	845.79
603.08	844.31
603.43	842.78
603.78	840.96
604.13	839.10
604.48	837.38
604.83	835.62
605.18	834.08
605.53	831.76
605.87	829.35
606.22	827.06
606.57	824.98
606.92	823.00
607.27	820.88
607.62	819.14
607.96	817.48
608.31	815.90
608.66	813.57
609.01	811.56
609.36	809.19
609.70	806.64
610.05	803.91
610.40	801.54
610.75	798.90
611.10	796.39
611.44	793.67
611.79	791.00
612.14	788.34
612.49	785.47
612.83	782.99
613.18	780.67
613.53	778.23
613.88	775.48
614.22	772.38
614.57	769.50
614.92	766.71
615.27	764.12
615.61	761.28
615.96	758.65
616.31	756.23
616.65	754.05
617.00	751.61
617.35	749.07
617.70	746.12
618.04	743.40
618.39	740.65
618.74	738.11
619.08	735.40
619.43	732.98
619.78	730.52
620.12	727.88
620.47	725.24
620.82	722.63
621.16	720.10
621.51	717.78
621.85	715.17
622.20	712.35
622.55	709.45
622.89	706.95
623.24	704.62
623.59	702.09
623.93	699.40
624.28	696.93
624.62	694.57
624.97	692.14
625.32	690.01
625.66	687.52
626.01	684.90
626.35	682.47
626.70	679.40
627.04	676.94
627.39	674.20
627.73	671.62
628.08	669.07
628.43	666.55
628.77	663.99
629.12	661.56
629.46	659.11
629.81	656.42
630.15	653.56
630.50	650.73
630.84	647.69
631.19	644.81
631.53	641.97
631.88	638.67
632.22	635.70
632.57	632.95
632.91	630.26
633.26	627.79
633.60	624.82
633.95	622.42
634.29	619.66
634.64	617.25
634.98	614.46
635.32	612.15
635.67	609.84
636.01	607.62
636.36	605.05
636.70	602.69
637.05	600.39
637.39	598.19
637.73	596.09
638.08	593.94
638.42	591.56
638.77	589.53
639.11	587.42
639.45	585.40
639.80	582.88
640.14	580.49
640.49	578.19
640.83	576.22
641.17	574.10
641.52	571.86
641.86	569.59
642.20	567.46
642.55	564.95
642.89	562.32
643.23	559.70
643.58	557.49
643.92	555.00
644.26	552.65
644.61	550.48
644.95	548.02
645.29	545.58
645.64	543.20
645.98	540.82
646.32	538.60
646.66	536.00
647.01	533.84
647.35	531.57
647.69	529.27
648.04	526.95
648.38	524.36
648.72	521.99
649.06	519.46
649.41	517.10
649.75	514.53
650.09	512.15
650.43	509.79
650.78	507.32
651.12	505.04
651.46	502.89
651.80	500.40
652.14	498.04
652.49	495.93
652.83	493.86
653.17	491.44
653.51	488.96
653.85	486.86
654.20	484.45
654.54	482.23
654.88	479.94
655.22	477.36
655.56	475.17
655.90	472.82
656.25	470.84
656.59	468.70
656.93	466.70
657.27	464.73
657.61	462.53
657.95	460.59
658.29	458.59
658.64	456.28
658.98	454.14
659.32	452.06
659.66	449.74
660.00	447.63
660.34	445.45
660.68	443.55
661.02	441.45
661.36	439.46
661.70	437.38
662.05	435.42
662.39	433.87
662.73	432.07
663.07	430.45
663.41	428.60
663.75	426.88
664.09	425.06
664.43	423.33
664.77	421.48
665.11	419.58
665.45	417.74
665.79	416.06
666.13	414.43
666.47	412.59
666.81	410.98
667.15	409.00
667.49	407.40
667.83	405.86
668.17	404.15
668.51	402.57
668.85	401.02
669.19	399.57
669.53	397.82
669.87	395.97
670.21	394.23
670.55	392.72
670.89	391.26
671.23	389.71
671.57	388.11
671.91	386.73
672.25	385.36
672.58	384.18
672.92	382.69
673.26	381.32
673.60	380.02
673.94	378.60
674.28	377.70
674.62	376.66
674.96	375.23
675.30	374.00
675.64	372.76
675.97	371.58
676.31	370.21
676.65	369.00
676.99	368.04
677.33	366.87
677.67	365.60
678.01	364.24
678.34	363.02
678.68	361.90
679.02	360.78
679.36	359.60
679.70	358.18
680.04	357.11
680.37	355.90
680.71	354.70
681.05	353.76
681.39	352.52
681.73	351.20
682.06	350.20
682.40	349.18
682.74	348.06
683.08	346.94
683.42	345.70
683.75	344.60
684.09	343.39
684.43	342.20
684.77	341.07
685.10	340.04
685.44	338.96
685.78	337.91
686.12	336.84
686.45	335.65
686.79	334.68
687.13	333.59
687.46	332.53
687.80	331.54
688.14	330.30
688.48	329.30
688.81	328.29
689.15	327.22
689.49	326.12
689.82	325.05
690.16	323.97
690.50	323.12
690.83	322.19
691.17	321.23
691.51	320.38
691.84	319.52
692.18	318.47
692.52	317.53
692.85	316.46
693.19	315.41
693.52	314.57
693.86	313.57
694.20	312.62
694.53	311.80
694.87	310.89
695.21	310.10
695.54	309.18
695.88	308.31
696.21	307.39
696.55	306.65
696.88	305.71
697.22	304.85
697.56	304.06
697.89	303.23
698.23	302.47
698.56	301.65
698.90	300.83
699.23	300.00
699.57	299.23
699.90	298.47
700.24	297.51
700.58	296.66
700.91	295.92
701.25	295.28
701.58	294.54
701.92	293.91
702.25	293.19
702.59	292.48
702.92	291.82
703.26	291.18
703.59	290.56
703.93	290.16
704.26	289.64
704.60	288.88
704.93	288.25
705.26	287.51
705.60	286.84
705.93	286.24
706.27	285.72
706.60	285.17
706.94	284.60
707.27	284.27
707.61	283.69
707.94	283.17
708.27	282.48
708.61	281.81
708.94	281.23
709.28	280.66
709.61	280.16
709.94	279.60
710.28	279.14
710.61	278.61
710.95	277.87
711.28	277.40
711.61	276.96
711.95	276.56
712.28	276.12
712.61	275.60
712.95	275.17
713.28	274.77
713.61	274.36
713.95	273.83
714.28	273.35
714.61	272.88
714.95	272.28
715.28	271.91
715.61	271.35
715.95	270.85
716.28	270.35
716.61	269.84
716.95	269.38
717.28	268.92
717.61	268.36
717.94	268.02
718.28	267.53
718.61	267.07
718.94	266.55
719.27	266.21
719.61	265.83
719.94	265.43
720.27	264.90
720.60	264.26
720.94	263.89
721.27	263.49
721.60	263.21
721.93	262.98
722.27	262.68
722.60	262.43
722.93	262.08
723.26	261.89
723.59	261.61
723.93	261.24
724.26	260.87
724.59	260.61
724.92	260.26
725.25	259.96
725.59	259.61
725.92	259.26
726.25	258.89
726.58	258.48
726.91	258.10
727.24	257.97
727.57	257.90
727.91	257.60
728.24	257.35
728.57	257.10
728.90	256.77
729.23	256.43
729.56	256.21
729.89	256.02
730.22	255.64
730.55	255.35
730.89	255.07
731.22	254.78
731.55	254.44
731.88	254.27
732.21	253.97
732.54	253.68
732.87	253.49
733.20	253.15
733.53	253.02
733.86	252.86
734.19	252.55
734.52	252.27
734.85	252.13
735.18	251.86
735.51	251.67
735.84	251.59
736.17	251.31
736.50	251.03
736.83	251.02
737.16	250.76
737.49	250.43
737.82	250.16
738.15	250.05
738.48	249.91
738.81	249.51
739.14	249.20
739.47	249.01
739.80	248.85
740.13	248.68
740.46	248.38
740.79	248.11
741.12	247.91
741.45	247.66
741.78	247.42
742.11	247.20
742.44	246.85
742.77	246.61
743.10	246.38
743.43	246.18
743.75	245.59
744.08	245.61
744.41	245.49
744.74	245.32
745.07	245.04
745.40	244.83
745.73	244.83
746.06	244.72
746.39	244.54
746.71	244.25
747.04	244.04
747.37	243.80
747.70	243.57
748.03	243.30
748.36	243.19
748.68	242.92
749.01	242.78
749.34	242.63
749.67	242.40
750.00	242.30
750.33	242.18
750.65	242.14
750.98	241.75
751.31	241.58
751.64	241.46
751.97	241.44
752.29	241.28
752.62	241.07
752.95	240.82
753.28	240.73
753.60	240.60
753.93	240.50
754.26	240.42
754.59	240.23
754.91	240.06
755.24	239.87
755.57	239.76
755.90	239.65
756.22	239.60
756.55	239.46
756.88	239.35
757.20	239.11
757.53	238.97
757.86	238.90
758.19	238.80
758.51	238.69
758.84	238.44
759.17	238.39
759.49	238.25
759.82	238.28
760.15	238.20
760.47	238.10
760.80	238.04
761.13	238.02
761.45	237.93
761.78	237.97
762.11	237.94
762.43	237.80
762.76	237.65
763.08	237.57
763.41	237.54
763.74	237.42
764.06	237.36
764.39	237.37
764.71	237.35
765.04	237.27
765.37	237.23
765.69	237.19
766.02	237.03
766.34	236.98
766.67	236.83
767.00	236.83
767.32	236.86
767.65	236.83
767.97	236.75
768.30	236.68
768.62	236.62
768.95	236.52
769.27	236.49
769.60	236.46
769.92	236.41
770.25	236.19
770.57	236.16
770.90	236.06
771.22	235.84
771.55	235.76
771.87	235.64
772.20	235.58
772.52	235.63
772.85	235.83
773.17	235.74
773.50	235.77
773.82	235.65
774.15	235.40
774.47	235.21
774.80	235.16
775.12	235.12
775.45	234.94
775.77	234.80
776.09	234.76
776.42	234.73
776.74	234.63
777.07	234.55
777.39	234.49
777.72	234.47
778.04	234.45
778.36	234.35
778.69	234.29
779.01	234.14
779.33	233.91
779.66	233.64
779.98	233.56
780.31	233.47
780.63	233.42
780.95	233.45
781.28	233.39
781.60	233.24
781.92	233.19
782.25	233.26
782.57	233.24
782.89	233.19
783.22	233.10
783.54	233.02
783.86	233.00
784.19	232.85
784.51	232.88
784.83	232.80
785.16	232.67
785.48	232.63
785.80	232.70
786.12	232.62
786.45	232.56
786.77	232.50
787.09	232.42
787.42	232.30
787.74	232.23
788.06	232.28
788.38	232.24
788.71	232.18
789.03	232.05
789.35	232.01
789.67	231.98
789.99	231.95
790.32	231.84
790.64	231.79
790.96	231.94
791.28	231.78
791.61	231.69
791.93	231.64
792.25	231.62
792.57	231.71
792.89	231.72
793.21	231.68
793.54	231.66
793.86	231.65
794.18	231.54
794.50	231.48
794.82	231.45
795.14	231.41
795.47	231.42
795.79	231.36
796.11	231.26
796.43	231.26
796.75	231.11
797.07	231.04
797.39	231.09
797.71	230.90
798.04	230.93
798.36	230.95
798.68	230.88
799.00	230.86
799.32	230.65
799.64	230.58
799.96	230.53
800.28	230.49
800.60	230.42
800.92	230.48
801.24	230.41
801.56	230.36
801.89	230.35
802.21	230.35
802.53	230.29
802.85	230.31
803.17	230.31
803.49	230.37
803.81	230.40
804.13	230.36
804.45	230.34
804.77	230.28
805.09	230.27
805.41	230.32
805.73	230.30
806.05	230.22
806.37	230.18
806.69	230.10
807.01	230.07
807.33	230.05
807.65	230.10
807.97	230.38
808.28	230.40
808.60	230.52
808.92	230.49
809.24	230.80
809.56	230.73
809.88	230.65
810.20	230.60
810.52	230.61
810.84	230.57
811.16	230.53
811.48	230.55
811.80	230.56
812.12	230.55
812.43	230.55
812.75	230.64
813.07	230.68
813.39	230.74
813.71	230.71
814.03	230.73
814.35	230.70
814.67	230.48
814.98	230.45
815.30	230.34
815.62	230.36
815.94	230.06
816.26	230.20
816.58	230.26
816.89	230.25
817.21	230.15
817.53	230.19
817.85	230.17
818.17	230.15
818.48	230.18
818.80	230.30
819.12	230.27
819.44	230.25
819.76	230.18
820.07	230.27
820.39	230.28
820.71	230.28
821.03	230.17
821.34	230.18
821.66	230.14
821.98	230.16
822.30	230.14
822.61	230.19
822.93	230.04
823.25	229.96
823.57	229.98
823.88	230.03
824.20	229.90
824.52	229.87
824.83	229.85
825.15	229.69
825.47	229.54
825.79	229.49
826.10	229.41
826.42	229.46
826.74	229.38
827.05	229.30
827.37	229.18
827.69	229.14
828.00	229.00
828.32	228.96
828.64	228.87
828.95	228.85
829.27	228.87
829.58	228.90
829.90	228.87
830.22	228.85
830.53	228.79
830.85	228.84
831.17	228.79
831.48	228.80
831.80	228.79
832.11	228.78
832.43	228.76
832.75	228.76
833.06	228.77
833.38	228.59
833.69	228.60
834.01	228.68
834.32	228.71
834.64	228.75
834.96	228.67
835.27	228.73
835.59	228.66
835.90	228.59
836.22	228.57
836.53	228.56
836.85	228.52
837.16	228.80
837.48	228.75
837.79	228.88
838.11	228.89
838.42	228.91
838.74	228.94
839.05	228.97
839.37	228.91
839.68	228.84
840.00	228.94
840.31	228.88
840.63	228.85
840.94	228.86
841.26	228.80
841.57	228.84
841.88	228.83
842.20	228.78
842.51	228.67
842.83	228.73
843.14	228.91
843.46	228.98
843.77	228.72
844.08	228.80
844.40	228.76
844.71	228.79
845.03	228.81
845.34	228.86
845.65	228.83
845.97	228.88
846.28	228.98
846.60	228.96
846.91	229.04
847.22	229.01
847.54	229.07
847.85	229.15
848.16	229.11
848.48	229.04
848.79	229.18
849.10	229.45
849.42	229.38
849.73	229.26
850.04	229.30
850.36	229.32
850.67	229.36
850.98	229.36
851.30	229.29
851.61	229.30
851.92	229.28
852.23	229.37
852.55	229.30
852.86	229.25
853.17	229.39
853.49	229.35
853.80	229.46
854.11	229.52
854.42	229.52
854.74	229.60
855.05	229.69
855.36	229.56
855.67	229.40
855.99	229.45
856.30	229.57
856.61	229.53
856.92	229.54
857.23	229.53
857.55	229.55
857.86	229.68
858.17	229.74
858.48	229.67
858.79	229.73
859.11	229.86
859.42	229.87
859.73	229.73
860.04	229.76
860.35	229.69
860.66	229.52
860.98	229.56
861.29	229.57
861.60	229.52
861.91	229.60
862.22	229.57
862.53	229.55
862.84	229.37
863.16	229.38
863.47	229.36
863.78	229.35
864.09	229.34
864.40	229.20
864.71	229.25
865.02	229.28
865.33	229.09
865.64	229.02
865.95	228.92
866.27	229.09
866.58	229.10
866.89	229.14
867.20	229.12
867.51	229.10
867.82	228.98
868.13	228.87
868.44	228.70
868.75	228.74
869.06	228.74
869.37	228.67
869.68	228.59
869.99	228.48
870.30	228.48
870.61	228.49
870.92	228.44
871.23	228.35
871.54	228.39
871.85	228.49
872.16	228.46
872.47	228.47
872.78	228.29
873.09	228.31
873.40	228.18
873.71	228.30
874.02	228.25
874.33	228.26
874.64	228.33
874.95	228.41
875.26	228.38
875.56	228.34
875.87	228.40
876.18	228.45
876.49	228.68
876.80	228.63
877.11	228.54
877.42	228.57
877.73	228.57
878.04	228.46
878.35	228.43
878.66	228.44
878.96	228.49
879.27	228.50
879.58	228.44
879.89	228.52
880.20	228.52
880.51	228.52
880.82	228.58
881.12	228.66
881.43	228.74
881.74	228.60
882.05	228.59
882.36	228.63
882.67	228.59
882.97	228.39
883.28	228.35
883.59	228.44
883.90	228.53
884.21	228.59
884.51	228.61
884.82	228.59
885.13	228.67
885.44	228.54
885.74	228.60
886.05	228.60
886.36	228.57
886.67	228.42
886.98	228.51
887.28	228.56
887.59	228.50
887.90	228.46
888.20	228.42
888.51	228.42
888.82	228.33
889.13	228.34
889.43	228.52
889.74	228.51
890.05	228.52
890.35	228.42
890.66	228.38
890.97	228.39
891.28	228.38
891.58	228.37
891.89	228.48
892.20	228.38
892.50	228.37
892.81	228.42
893.12	228.57
893.42	228.58
893.73	228.52
894.04	228.54
894.34	228.66
894.65	228.83
894.95	228.92
895.26	228.98
895.57	229.08
895.87	228.85
896.18	228.89
896.48	228.91
896.79	228.89
897.10	228.86
897.40	228.90
897.71	228.90
898.01	228.86
898.32	228.85
898.63	228.86
898.93	228.83
899.24	228.74
899.54	228.65
899.85	228.56
900.15	228.59
900.46	228.60
900.76	228.56
901.07	228.50
901.38	228.44
901.68	228.47
901.99	228.32
902.29	228.39
902.60	228.32
902.90	228.29
903.21	228.32
903.51	228.25
903.82	228.20
904.12	228.28
904.43	228.23
904.73	228.20
905.03	228.20
905.34	228.49
905.64	228.45
905.95	228.49
906.25	228.50
906.56	228.46
906.86	228.40
907.17	228.35
907.47	228.31
907.77	228.29
908.08	228.15
908.38	228.16
908.69	228.10
908.99	228.20
909.30	228.09
909.60	228.01
909.90	228.01
910.21	228.01
910.51	227.93
910.81	227.89
911.12	227.96
911.42	227.99
911.73	227.70
912.03	227.78
912.33	227.80
912.64	227.86
912.94	227.84
913.24	227.79
913.55	227.74
913.85	227.79
914.15	227.83
914.46	227.94
914.76	227.86
915.06	227.89
915.37	227.78
915.67	227.77
915.97	227.88
916.27	227.89
916.58	227.93
916.88	227.87
917.18	227.89
917.49	228.00
917.79	227.93
918.09	227.87
918.39	227.95
918.70	227.89
919.00	227.86
919.30	228.04
919.60	228.07
919.91	228.05
920.21	228.03
920.51	228.07
920.81	228.00
921.12	228.28
921.42	228.27
921.72	228.37
922.02	228.40
922.32	228.37
922.63	228.28
922.93	228.33
923.23	228.38
923.53	228.38
923.83	228.22
924.13	228.29
924.44	228.42
924.74	228.49
925.04	228.59
925.34	228.57
925.64	228.42
925.94	228.42
926.24	228.51
926.55	228.52
926.85	228.47
927.15	228.46
927.45	228.31
927.75	228.36
928.05	228.38
928.35	228.47
928.65	228.53
928.95	228.66
929.26	228.60
929.56	228.65
929.86	228.65
930.16	228.67
930.46	228.69
930.76	228.66
931.06	228.48
931.36	228.45
931.66	228.46
931.96	228.48
932.26	228.54
932.56	228.54
932.86	228.55
933.16	228.57
933.46	228.58
933.76	228.67
934.06	228.69
934.36	228.74
934.66	228.78
934.96	228.73
935.26	228.73
935.56	228.76
935.86	228.71
936.16	228.68
936.46	228.62
936.76	228.58
937.06	228.59
937.36	228.56
937.66	228.48
937.96	228.48
938.26	228.48
938.56	228.50
938.86	228.49
939.16	228.42
939.46	228.50
939.76	228.55
940.06	228.46
940.35	228.47
940.65	228.38
940.95	228.34
941.25	228.28
941.55	228.28
941.85	228.28
942.15	228.38
942.45	228.49
942.75	228.50
943.04	228.51
943.34	228.50
943.64	228.48
943.94	228.44
944.24	228.30
944.54	228.21
944.84	228.11
945.13	228.08
945.43	228.12
945.73	228.08
946.03	227.99
946.33	228.00
946.62	227.98
946.92	227.97
947.22	228.00
947.52	228.14
947.82	228.14
948.11	228.09
948.41	228.05
948.71	227.92
949.01	227.99
949.31	227.95
949.60	227.96
949.90	227.96
950.20	228.04
950.50	228.17
950.79	228.20
951.09	228.28
951.39	228.39
951.69	228.29
951.98	228.26
952.28	228.32
952.58	228.30
952.87	228.24
953.17	228.26
953.47	228.20
953.76	228.12
954.06	228.16
954.36	228.20
954.66	228.17
954.95	228.27
955.25	228.32
955.55	228.43
955.84	228.37
956.14	228.50
956.44	228.54
956.73	228.51
957.03	228.53
957.32	228.48
957.62	228.40
957.92	228.60
958.21	228.57
958.51	228.77
958.81	228.73
959.10	228.83
959.40	228.76
959.69	228.84
959.99	228.89
960.29	228.76
960.58	228.76
960.88	228.78
961.17	228.76
961.47	228.71
961.76	228.69
962.06	228.75
962.36	228.62
962.65	228.60
962.95	228.60
963.24	228.63
963.54	228.71
963.83	228.70
964.13	228.59
964.42	228.62
964.72	228.40
965.01	228.41
965.31	228.25
965.60	228.27
965.90	228.24
966.19	228.13
966.49	228.25
966.78	228.20
967.08	228.26
967.37	228.27
967.67	228.26
967.96	228.19
968.26	228.22
968.55	228.32
968.85	228.31
969.14	228.36
969.43	228.24
969.73	228.15
970.02	228.08
970.32	228.13
970.61	228.07
970.91	228.04
971.20	228.06
971.49	228.16
971.79	228.26
972.08	228.10
972.38	228.20
972.67	228.12
972.96	228.17
973.26	228.16
973.55	228.16
973.85	228.12
974.14	228.20
974.43	228.24
974.73	228.13
975.02	228.14
975.31	228.05
975.61	228.12
975.90	228.19
976.19	228.22
976.49	228.28
976.78	228.42
977.07	228.42
977.37	228.43
977.66	228.42
977.95	228.32
978.24	228.41
978.54	228.33
978.83	228.29
979.12	228.33
979.42	228.33
979.71	228.30
980.00	228.31
980.29	228.27
980.59	228.27
980.88	228.39
981.17	228.37
981.46	228.42
981.76	228.41
982.05	228.44
982.34	228.41
982.63	228.49
982.93	228.43
983.22	228.49
983.51	228.49
983.80	228.63
984.09	228.70
984.39	228.74
984.68	228.82
984.97	228.91
985.26	228.91
985.55	228.85
985.85	228.84
986.14	228.86
986.43	228.91
986.72	228.82
987.01	228.72
987.30	228.68
987.59	228.67
987.89	228.70
988.18	228.60
988.47	228.64
988.76	228.52
989.05	228.44
989.34	228.47
989.63	228.57
989.92	228.39
990.22	228.34
990.51	228.34
990.80	228.30
991.09	228.34
991.38	228.24
991.67	228.16
991.96	228.14
992.25	228.15
992.54	228.04
992.83	228.09
993.12	228.12
993.41	228.23
993.70	228.21
993.99	228.25
994.28	228.22
994.58	228.19
994.87	228.06
995.16	228.11
995.45	228.07
995.74	227.92
996.03	228.10
996.32	228.12
996.61	228.11
996.90	228.15
997.19	228.03
997.48	228.04
997.77	228.07
998.06	228.10
998.34	227.98
998.63	227.97
998.92	227.91
999.21	227.86
999.50	227.73
999.79	227.70
1000.08	227.65
1000.37	227.67
1000.66	227.70
1000.95	227.75
1001.24	227.73
1001.53	227.76
1001.82	227.74
1002.11	227.60
1002.40	227.66
1002.68	227.68
1002.97	227.76
1003.26	227.77
1003.55	227.80
1003.84	227.76
1004.13	227.88
1004.42	227.95
1004.71	227.98
1004.99	227.90
1005.28	227.97
1005.57	228.02
1005.86	228.12
1006.15	228.12
1006.44	228.16
1006.72	228.10
1007.01	228.09
1007.30	228.10
1007.59	228.04
1007.88	228.07
1008.17	228.07
1008.45	227.88
1008.74	227.76
1009.03	227.71
1009.32	227.71
1009.60	227.66
1009.89	227.73
1010.18	227.60
1010.47	227.65
1010.76	227.70
1011.04	227.75
1011.33	227.84
1011.62	227.90
1011.91	227.86
1012.19	227.85
1012.48	227.91
1012.77	227.98
1013.05	228.12
1013.34	228.07
1013.63	228.00
1013.92	228.05
1014.20	228.00
1014.49	228.13
1014.78	228.17
1015.06	228.10
1015.35	228.17
1015.64	228.20
1015.92	228.30
1016.21	228.27
1016.50	228.36
1016.78	228.28
1017.07	228.29
1017.36	228.29
1017.64	228.30
1017.93	228.31
1018.22	228.33
1018.50	228.28
1018.79	228.26
1019.08	228.17
1019.36	228.30
1019.65	228.39
1019.93	228.40
1020.22	228.42
1020.51	228.38
1020.79	228.48
1021.08	228.10
1021.36	228.20
1021.65	227.60
1021.94	228.10
1022.22	229.60
1022.51	228.60
1022.79	228.60
1023.08	227.50
1023.36	227.90
1023.65	229.50
>>>>>End Processed Spectral Data<<<<<
