SpectraSuite Data File
++++++++++++++++++++++++++++++++++++
Date: Fri Feb 01 14:34:15 EST 2013
User: group
Dark Spectrum Present: No
Reference Spectrum Present: No
Number of Sampled Component Spectra: 1
Spectrometers: USB2E7196
Integration Time (usec): 70000 (USB2E7196)
Spectra Averaged: 10 (USB2E7196)
Boxcar Smoothing: 10 (USB2E7196)
Correct for Electrical Dark: No (USB2E7196)
Strobe/Lamp Enabled: No (USB2E7196)
Correct for Detector Non-linearity: No (USB2E7196)
Correct for Stray Light: No (USB2E7196)
Number of Pixels in Processed Spectrum: 2048
>>>>>Begin Processed Spectral Data<<<<<
339.09	0.00
339.48	214.30
339.86	216.40
340.24	217.20
340.63	221.10
341.01	223.60
341.39	222.90
341.78	225.00
342.16	225.40
342.54	226.40
342.93	214.18
343.31	225.05
343.69	225.73
344.07	226.25
344.46	226.80
344.84	227.15
345.22	227.46
345.60	227.70
345.99	227.90
346.37	228.05
346.75	228.07
347.13	228.21
347.52	228.24
347.90	228.44
348.28	228.52
348.66	228.70
349.05	228.68
349.43	228.70
349.81	228.73
350.19	228.68
350.57	228.79
350.96	228.82
351.34	228.90
351.72	228.96
352.10	228.99
352.48	229.02
352.87	229.07
353.25	229.06
353.63	229.17
354.01	229.17
354.39	229.29
354.77	229.46
355.15	229.55
355.54	229.69
355.92	229.77
356.30	229.85
356.68	230.16
357.06	230.22
357.44	230.35
357.82	230.42
358.20	230.64
358.58	230.63
358.97	230.78
359.35	230.84
359.73	230.85
360.11	230.98
360.49	231.04
360.87	231.06
361.25	231.09
361.63	231.15
362.01	231.19
362.39	231.10
362.77	231.15
363.15	231.20
363.53	231.13
363.91	231.07
364.29	231.10
364.67	230.83
365.05	230.82
365.43	230.89
365.81	230.99
366.19	230.98
366.57	231.03
366.95	230.97
367.33	230.93
367.71	230.96
368.09	231.07
368.47	231.03
368.85	230.93
369.23	231.00
369.61	230.93
369.99	230.97
370.37	230.99
370.75	230.94
371.13	230.86
371.51	230.77
371.89	230.60
372.27	230.58
372.65	230.45
373.03	230.35
373.41	230.21
373.78	230.08
374.16	229.99
374.54	229.84
374.92	229.79
375.30	229.68
375.68	229.56
376.06	229.44
376.44	229.37
376.82	229.41
377.19	229.34
377.57	229.25
377.95	229.10
378.33	229.06
378.71	228.93
379.09	228.85
379.47	228.84
379.84	228.80
380.22	228.59
380.60	228.57
380.98	228.47
381.36	228.27
381.73	228.12
382.11	228.09
382.49	228.00
382.87	227.81
383.25	227.72
383.62	227.86
384.00	227.67
384.38	227.60
384.76	227.58
385.13	227.48
385.51	227.40
385.89	227.43
386.27	227.33
386.64	227.31
387.02	227.22
387.40	227.11
387.78	227.20
388.15	227.13
388.53	227.07
388.91	227.07
389.29	227.12
389.66	227.15
390.04	227.09
390.42	227.19
390.79	227.21
391.17	227.25
391.55	227.09
391.92	227.12
392.30	227.09
392.68	227.13
393.05	227.14
393.43	227.17
393.81	227.06
394.18	227.13
394.56	227.17
394.94	227.25
395.31	227.34
395.69	227.32
396.06	227.50
396.44	227.57
396.82	227.63
397.19	227.81
397.57	227.90
397.95	228.05
398.32	228.15
398.70	228.30
399.07	228.50
399.45	228.57
399.82	228.73
400.20	229.00
400.58	229.06
400.95	229.14
401.33	229.29
401.70	229.65
402.08	229.80
402.45	230.11
402.83	230.44
403.20	230.64
403.58	230.93
403.95	231.27
404.33	231.56
404.71	231.85
405.08	232.40
405.46	232.63
405.83	233.00
406.21	233.32
406.58	233.75
406.96	234.05
407.33	234.59
407.70	235.02
408.08	235.68
408.45	236.24
408.83	236.98
409.20	237.67
409.58	238.24
409.95	238.90
410.33	239.63
410.70	240.34
411.08	241.26
411.45	242.19
411.82	243.12
412.20	244.19
412.57	245.37
412.95	246.25
413.32	247.60
413.69	248.80
414.07	250.16
414.44	251.65
414.82	253.24
415.19	254.96
415.56	256.77
415.94	258.50
416.31	260.66
416.68	262.71
417.06	265.09
417.43	267.31
417.81	269.90
418.18	272.47
418.55	275.24
418.93	278.14
419.30	281.20
419.67	284.23
420.04	287.60
420.42	291.11
420.79	294.98
421.16	298.99
421.54	303.11
421.91	307.39
422.28	311.86
422.66	316.58
423.03	321.16
423.40	325.90
423.77	331.04
424.15	336.16
424.52	341.37
424.89	347.16
425.26	352.86
425.64	358.31
426.01	364.10
426.38	370.15
426.75	376.25
427.13	382.69
427.50	389.63
427.87	396.65
428.24	403.72
428.61	410.38
428.99	417.63
429.36	425.67
429.73	433.53
430.10	441.30
430.47	449.29
430.85	457.55
431.22	466.28
431.59	475.37
431.96	484.12
432.33	494.07
432.70	503.35
433.08	514.49
433.45	524.86
433.82	535.39
434.19	546.69
434.56	557.97
434.93	568.61
435.30	579.27
435.68	591.05
436.05	602.71
436.42	614.47
436.79	625.21
437.16	636.60
437.53	648.66
437.90	660.44
438.27	672.12
438.64	684.36
439.01	695.59
439.38	705.87
439.75	715.78
440.13	726.87
440.50	737.53
440.87	746.24
441.24	755.59
441.61	765.59
441.98	773.33
442.35	782.22
442.72	791.30
443.09	800.29
443.46	805.98
443.83	809.89
444.20	813.75
444.57	818.82
444.94	821.71
445.31	824.73
445.68	827.74
446.05	829.88
446.42	829.93
446.79	830.04
447.16	829.98
447.53	830.22
447.90	827.37
448.27	824.41
448.64	819.46
449.01	816.24
449.37	809.59
449.74	803.30
450.11	795.19
450.48	786.45
450.85	777.37
451.22	769.92
451.59	762.75
451.96	755.83
452.33	746.11
452.70	737.50
453.07	726.83
453.43	716.11
453.80	705.60
454.17	695.42
454.54	685.79
454.91	674.99
455.28	664.84
455.65	655.12
456.02	645.33
456.38	637.14
456.75	626.67
457.12	618.10
457.49	609.45
457.86	601.46
458.23	594.31
458.59	586.13
458.96	577.88
459.33	570.82
459.70	563.38
460.07	557.61
460.43	550.95
460.80	544.73
461.17	539.03
461.54	533.16
461.91	527.54
462.27	521.67
462.64	517.02
463.01	511.61
463.38	506.43
463.74	501.20
464.11	496.62
464.48	492.38
464.85	487.95
465.21	484.64
465.58	481.13
465.95	476.78
466.32	473.32
466.68	469.67
467.05	466.03
467.42	462.41
467.78	458.60
468.15	454.89
468.52	452.14
468.88	448.86
469.25	445.80
469.62	443.35
469.98	440.71
470.35	438.00
470.72	435.40
471.08	432.73
471.45	430.60
471.82	428.28
472.18	426.02
472.55	424.09
472.92	421.95
473.28	419.81
473.65	417.84
474.02	415.89
474.38	414.32
474.75	412.80
475.11	411.53
475.48	410.42
475.85	409.36
476.21	408.30
476.58	407.30
476.94	406.40
477.31	405.61
477.67	404.82
478.04	404.12
478.41	403.63
478.77	403.37
479.14	402.87
479.50	402.67
479.87	402.55
480.23	402.52
480.60	402.33
480.96	402.33
481.33	402.51
481.69	402.77
482.06	402.90
482.42	403.02
482.79	403.21
483.15	403.77
483.52	404.59
483.88	405.25
484.25	405.95
484.61	406.72
484.98	407.45
485.34	408.49
485.71	409.66
486.07	411.00
486.44	412.16
486.80	413.55
487.17	414.98
487.53	416.83
487.90	418.62
488.26	420.66
488.62	422.40
488.99	424.50
489.35	426.53
489.72	428.98
490.08	431.58
490.44	434.03
490.81	436.57
491.17	439.09
491.54	441.73
491.90	444.44
492.26	447.57
492.63	450.63
492.99	453.56
493.36	456.74
493.72	460.06
494.08	463.53
494.45	467.22
494.81	471.00
495.17	474.44
495.54	478.08
495.90	481.99
496.26	486.17
496.63	490.37
496.99	494.61
497.35	498.77
497.72	503.04
498.08	507.47
498.44	512.00
498.80	516.86
499.17	521.51
499.53	526.37
499.89	531.09
500.26	535.85
500.62	540.75
500.98	545.77
501.34	550.80
501.71	555.79
502.07	560.70
502.43	565.55
502.79	570.49
503.16	575.68
503.52	580.69
503.88	585.80
504.24	590.76
504.60	595.70
504.97	600.80
505.33	606.16
505.69	611.74
506.05	617.01
506.41	621.71
506.78	626.88
507.14	631.83
507.50	636.80
507.86	642.04
508.22	647.32
508.59	652.31
508.95	657.13
509.31	662.19
509.67	667.30
510.03	672.33
510.39	677.40
510.75	682.44
511.12	686.98
511.48	691.54
511.84	696.26
512.20	701.04
512.56	705.61
512.92	709.87
513.28	714.14
513.64	718.35
514.00	722.69
514.37	726.95
514.73	731.29
515.09	735.18
515.45	738.99
515.81	742.80
516.17	746.61
516.53	750.70
516.89	754.14
517.25	757.60
517.61	760.97
517.97	764.11
518.33	767.01
518.69	770.28
519.05	773.70
519.41	776.97
519.77	780.20
520.13	783.14
520.49	786.29
520.85	788.95
521.21	791.70
521.57	794.71
521.93	797.30
522.29	800.11
522.65	802.77
523.01	805.22
523.37	807.38
523.73	809.77
524.09	811.93
524.45	814.43
524.81	816.67
525.17	819.35
525.53	822.15
525.89	824.77
526.25	827.44
526.61	829.49
526.97	831.92
527.33	834.05
527.68	836.45
528.04	838.72
528.40	841.02
528.76	843.51
529.12	845.95
529.48	848.32
529.84	850.15
530.20	852.84
530.56	855.78
530.91	858.75
531.27	861.59
531.63	863.94
531.99	866.43
532.35	869.03
532.71	871.08
533.07	873.63
533.42	876.09
533.78	878.50
534.14	881.32
534.50	883.28
534.86	885.73
535.21	888.03
535.57	890.29
535.93	892.58
536.29	894.93
536.65	897.14
537.00	899.32
537.36	902.03
537.72	904.37
538.08	906.33
538.44	908.65
538.79	910.62
539.15	912.91
539.51	915.37
539.87	917.81
540.22	920.28
540.58	922.44
540.94	924.77
541.29	927.13
541.65	929.24
542.01	932.41
542.37	934.93
542.72	937.34
543.08	940.01
543.44	942.57
543.79	944.77
544.15	947.43
544.51	950.36
544.87	952.92
545.22	955.00
545.58	957.53
545.94	959.48
546.29	962.05
546.65	964.60
547.01	966.87
547.36	968.97
547.72	971.10
548.07	973.50
548.43	975.54
548.79	977.64
549.14	979.87
549.50	981.28
549.86	983.32
550.21	985.58
550.57	987.71
550.92	989.83
551.28	991.90
551.64	993.97
551.99	995.85
552.35	997.87
552.70	1000.41
553.06	1002.42
553.41	1004.88
553.77	1007.13
554.13	1008.82
554.48	1011.16
554.84	1013.26
555.19	1015.53
555.55	1017.60
555.90	1019.92
556.26	1022.03
556.61	1023.93
556.97	1026.23
557.32	1028.53
557.68	1030.62
558.03	1032.73
558.39	1034.71
558.74	1037.09
559.10	1038.75
559.45	1040.94
559.81	1043.25
560.16	1045.12
560.52	1047.17
560.87	1049.09
561.23	1050.70
561.58	1052.96
561.94	1054.39
562.29	1056.03
562.64	1057.52
563.00	1059.09
563.35	1061.03
563.71	1063.08
564.06	1065.18
564.42	1066.88
564.77	1068.58
565.12	1070.42
565.48	1072.17
565.83	1073.67
566.19	1075.19
566.54	1076.78
566.89	1078.02
567.25	1079.38
567.60	1080.85
567.96	1082.31
568.31	1083.76
568.66	1084.89
569.02	1086.04
569.37	1086.90
569.72	1088.15
570.08	1089.20
570.43	1090.24
570.78	1090.94
571.14	1091.24
571.49	1091.90
571.84	1092.97
572.20	1093.16
572.55	1093.22
572.90	1093.19
573.26	1093.95
573.61	1094.25
573.96	1094.21
574.31	1093.90
574.67	1093.18
575.02	1092.41
575.37	1091.88
575.72	1091.10
576.08	1090.90
576.43	1090.25
576.78	1090.12
577.13	1089.85
577.49	1089.68
577.84	1088.81
578.19	1088.03
578.54	1087.37
578.90	1086.34
579.25	1084.87
579.60	1083.74
579.95	1082.81
580.30	1081.63
580.66	1080.07
581.01	1078.02
581.36	1076.81
581.71	1075.81
582.06	1075.01
582.42	1073.92
582.77	1072.40
583.12	1070.80
583.47	1068.91
583.82	1067.92
584.17	1066.07
584.53	1064.12
584.88	1062.37
585.23	1060.66
585.58	1059.10
585.93	1057.35
586.28	1055.39
586.63	1053.90
586.98	1052.51
587.34	1051.00
587.69	1049.52
588.04	1047.83
588.39	1046.75
588.74	1044.82
589.09	1042.70
589.44	1040.30
589.79	1038.23
590.14	1036.68
590.49	1034.71
590.84	1032.81
591.19	1030.53
591.54	1028.19
591.89	1025.62
592.25	1023.32
592.60	1021.06
592.95	1018.22
593.30	1015.55
593.65	1013.12
594.00	1010.17
594.35	1007.81
594.70	1004.80
595.05	1001.90
595.40	998.85
595.75	995.83
596.10	993.14
596.45	990.71
596.80	988.34
597.15	985.74
597.50	982.74
597.85	980.32
598.19	977.94
598.54	975.08
598.89	972.79
599.24	970.40
599.59	967.75
599.94	965.14
600.29	962.59
600.64	959.84
600.99	957.04
601.34	954.47
601.69	951.17
602.04	948.28
602.39	945.36
602.74	943.30
603.08	940.69
603.43	938.27
603.78	935.37
604.13	932.41
604.48	929.56
604.83	926.60
605.18	923.56
605.53	920.37
605.87	917.40
606.22	914.20
606.57	911.44
606.92	908.46
607.27	905.66
607.62	902.92
607.96	900.13
608.31	897.30
608.66	894.11
609.01	891.17
609.36	887.80
609.70	884.37
610.05	880.40
610.40	877.05
610.75	873.44
611.10	869.90
611.44	866.23
611.79	862.72
612.14	859.35
612.49	855.70
612.83	852.11
613.18	848.39
613.53	845.11
613.88	841.30
614.22	837.41
614.57	833.31
614.92	829.54
615.27	826.12
615.61	822.35
615.96	818.95
616.31	815.49
616.65	812.68
617.00	809.66
617.35	806.33
617.70	802.75
618.04	799.14
618.39	795.78
618.74	792.74
619.08	789.40
619.43	785.91
619.78	782.75
620.12	779.52
620.47	776.16
620.82	772.54
621.16	769.13
621.51	766.05
621.85	762.88
622.20	759.41
622.55	756.01
622.89	752.73
623.24	749.38
623.59	746.07
623.93	742.90
624.28	739.60
624.62	736.64
624.97	733.79
625.32	730.77
625.66	727.66
626.01	724.25
626.35	721.16
626.70	718.22
627.04	715.24
627.39	711.78
627.73	708.66
628.08	705.50
628.43	702.38
628.77	699.38
629.12	696.13
629.46	693.25
629.81	690.04
630.15	686.96
630.50	683.67
630.84	680.15
631.19	676.48
631.53	673.26
631.88	669.69
632.22	666.12
632.57	663.09
632.91	659.87
633.26	656.76
633.60	653.48
633.95	650.21
634.29	647.26
634.64	644.40
634.98	641.06
635.32	638.25
635.67	635.56
636.01	632.48
636.36	629.77
636.70	626.69
637.05	623.90
637.39	621.21
637.73	618.49
638.08	616.25
638.42	613.69
638.77	610.97
639.11	608.17
639.45	605.43
639.80	602.72
640.14	600.03
640.49	597.30
640.83	594.50
641.17	591.77
641.52	588.73
641.86	585.97
642.20	583.65
642.55	580.83
642.89	577.98
643.23	575.09
643.58	572.50
643.92	569.69
644.26	567.18
644.61	564.80
644.95	562.15
645.29	559.09
645.64	556.41
645.98	553.61
646.32	551.43
646.66	548.92
647.01	546.28
647.35	543.63
647.69	541.16
648.04	538.83
648.38	536.32
648.72	533.72
649.06	531.20
649.41	528.77
649.75	526.23
650.09	523.62
650.43	521.22
650.78	518.56
651.12	516.21
651.46	513.60
651.80	510.97
652.14	508.69
652.49	506.55
652.83	504.24
653.17	501.87
653.51	499.26
653.85	496.90
654.20	494.36
654.54	491.87
654.88	489.37
655.22	486.77
655.56	484.32
655.90	482.18
656.25	480.00
656.59	477.47
656.93	475.35
657.27	473.29
657.61	470.93
657.95	468.92
658.29	466.74
658.64	464.63
658.98	462.23
659.32	459.89
659.66	457.54
660.00	455.11
660.34	453.05
660.68	450.79
661.02	448.50
661.36	446.48
661.70	444.53
662.05	442.53
662.39	440.72
662.73	438.81
663.07	436.70
663.41	434.78
663.75	432.82
664.09	430.92
664.43	428.91
664.77	427.19
665.11	425.36
665.45	423.50
665.79	421.64
666.13	419.80
666.47	417.98
666.81	416.20
667.15	414.47
667.49	412.79
667.83	411.22
668.17	409.50
668.51	407.73
668.85	406.08
669.19	404.49
669.53	402.83
669.87	401.21
670.21	399.63
670.55	397.93
670.89	396.65
671.23	395.18
671.57	393.58
671.91	392.12
672.25	390.50
672.58	389.07
672.92	387.33
673.26	385.94
673.60	384.48
673.94	383.02
674.28	381.65
674.62	380.32
674.96	378.94
675.30	377.61
675.64	376.27
675.97	375.08
676.31	373.73
676.65	372.36
676.99	371.02
677.33	369.89
677.67	368.59
678.01	367.06
678.34	365.61
678.68	364.47
679.02	363.13
679.36	361.71
679.70	360.36
680.04	359.30
680.37	358.09
680.71	356.82
681.05	355.74
681.39	354.70
681.73	353.56
682.06	352.31
682.40	351.15
682.74	350.10
683.08	348.92
683.42	347.70
683.75	346.61
684.09	345.52
684.43	344.10
684.77	343.00
685.10	341.99
685.44	340.83
685.78	339.67
686.12	338.65
686.45	337.57
686.79	336.62
687.13	335.49
687.46	334.34
687.80	333.44
688.14	332.35
688.48	331.13
688.81	329.83
689.15	329.04
689.49	328.04
689.82	327.00
690.16	325.96
690.50	324.89
690.83	323.92
691.17	322.90
691.51	321.94
691.84	321.00
692.18	319.99
692.52	319.09
692.85	318.14
693.19	317.23
693.52	316.51
693.86	315.49
694.20	314.66
694.53	313.82
694.87	312.82
695.21	311.91
695.54	311.13
695.88	310.27
696.21	309.17
696.55	308.21
696.88	307.21
697.22	306.24
697.56	305.58
697.89	304.71
698.23	303.85
698.56	303.20
698.90	302.50
699.23	301.69
699.57	300.88
699.90	300.07
700.24	299.10
700.58	298.14
700.91	297.40
701.25	296.76
701.58	296.05
701.92	295.41
702.25	294.65
702.59	293.84
702.92	293.20
703.26	292.59
703.59	292.02
703.93	291.60
704.26	291.00
704.60	290.36
704.93	289.65
705.26	288.96
705.60	288.27
705.93	287.58
706.27	287.00
706.60	286.43
706.94	285.86
707.27	285.23
707.61	284.69
707.94	284.10
708.27	283.43
708.61	282.67
708.94	282.09
709.28	281.59
709.61	281.14
709.94	280.61
710.28	279.91
710.61	279.30
710.95	278.49
711.28	278.09
711.61	277.48
711.95	277.00
712.28	276.44
712.61	275.92
712.95	275.30
713.28	274.86
713.61	274.36
713.95	273.75
714.28	273.26
714.61	272.84
714.95	272.31
715.28	271.70
715.61	271.28
715.95	270.85
716.28	270.48
716.61	270.10
716.95	269.62
717.28	269.32
717.61	268.97
717.94	268.59
718.28	268.06
718.61	267.59
718.94	267.18
719.27	266.90
719.61	266.52
719.94	266.22
720.27	265.75
720.60	265.30
720.94	265.07
721.27	264.82
721.60	264.49
721.93	264.21
722.27	264.01
722.60	263.71
722.93	263.36
723.26	262.89
723.59	262.44
723.93	262.09
724.26	261.70
724.59	261.36
724.92	261.14
725.25	260.80
725.59	260.58
725.92	260.31
726.25	259.91
726.58	259.60
726.91	259.34
727.24	259.10
727.57	258.78
727.91	258.55
728.24	258.27
728.57	257.86
728.90	257.67
729.23	257.35
729.56	257.18
729.89	256.80
730.22	256.56
730.55	256.25
730.89	256.00
731.22	255.81
731.55	255.55
731.88	255.24
732.21	254.95
732.54	254.65
732.87	254.36
733.20	254.18
733.53	253.93
733.86	253.69
734.19	253.38
734.52	253.29
734.85	252.99
735.18	252.66
735.51	252.60
735.84	252.27
736.17	252.05
736.50	251.73
736.83	251.74
737.16	251.45
737.49	251.12
737.82	250.90
738.15	250.65
738.48	250.42
738.81	250.16
739.14	249.82
739.47	249.55
739.80	249.30
740.13	249.06
740.46	248.69
740.79	248.38
741.12	248.15
741.45	247.76
741.78	247.56
742.11	247.39
742.44	246.98
742.77	246.73
743.10	246.41
743.43	246.15
743.75	245.72
744.08	245.87
744.41	245.71
744.74	245.35
745.07	245.15
745.40	244.99
745.73	244.91
746.06	244.85
746.39	244.64
746.71	244.41
747.04	244.20
747.37	244.04
747.70	243.93
748.03	243.81
748.36	243.68
748.68	243.42
749.01	243.17
749.34	243.08
749.67	242.90
750.00	242.76
750.33	242.72
750.65	242.57
750.98	242.10
751.31	242.02
751.64	241.94
751.97	241.79
752.29	241.52
752.62	241.30
752.95	241.12
753.28	240.98
753.60	240.88
753.93	240.76
754.26	240.74
754.59	240.45
754.91	240.26
755.24	240.09
755.57	239.96
755.90	239.86
756.22	239.72
756.55	239.67
756.88	239.54
757.20	239.43
757.53	239.26
757.86	239.11
758.19	238.96
758.51	238.91
758.84	238.88
759.17	238.75
759.49	238.59
759.82	238.51
760.15	238.38
760.47	238.27
760.80	238.18
761.13	238.08
761.45	238.01
761.78	237.88
762.11	237.85
762.43	237.77
762.76	237.65
763.08	237.59
763.41	237.46
763.74	237.38
764.06	237.16
764.39	237.16
764.71	237.10
765.04	237.16
765.37	236.95
765.69	236.79
766.02	236.80
766.34	236.77
766.67	236.65
767.00	236.65
767.32	236.66
767.65	236.67
767.97	236.62
768.30	236.63
768.62	236.57
768.95	236.58
769.27	236.50
769.60	236.47
769.92	236.33
770.25	236.10
770.57	235.99
770.90	235.82
771.22	235.62
771.55	235.52
771.87	235.33
772.20	235.26
772.52	235.37
772.85	235.50
773.17	235.51
773.50	235.45
773.82	235.34
774.15	235.23
774.47	235.02
774.80	234.92
775.12	234.83
775.45	234.80
775.77	234.67
776.09	234.65
776.42	234.50
776.74	234.49
777.07	234.47
777.39	234.42
777.72	234.44
778.04	234.51
778.36	234.40
778.69	234.25
779.01	234.18
779.33	233.95
779.66	233.68
779.98	233.53
780.31	233.44
780.63	233.50
780.95	233.48
781.28	233.46
781.60	233.37
781.92	233.25
782.25	233.20
782.57	233.06
782.89	232.89
783.22	232.86
783.54	232.74
783.86	232.75
784.19	232.67
784.51	232.64
784.83	232.46
785.16	232.45
785.48	232.50
785.80	232.53
786.12	232.40
786.45	232.26
786.77	232.19
787.09	232.15
787.42	231.94
787.74	231.91
788.06	231.83
788.38	231.75
788.71	231.66
789.03	231.61
789.35	231.56
789.67	231.48
789.99	231.50
790.32	231.51
790.64	231.46
790.96	231.60
791.28	231.53
791.61	231.48
791.93	231.42
792.25	231.44
792.57	231.58
792.89	231.55
793.21	231.61
793.54	231.53
793.86	231.50
794.18	231.52
794.50	231.39
794.82	231.47
795.14	231.46
795.47	231.60
795.79	231.63
796.11	231.64
796.43	231.69
796.75	231.68
797.07	231.62
797.39	231.72
797.71	231.57
798.04	231.52
798.36	231.60
798.68	231.66
799.00	231.66
799.32	231.55
799.64	231.64
799.96	231.58
800.28	231.68
800.60	231.68
800.92	231.74
801.24	231.79
801.56	231.78
801.89	231.88
802.21	231.85
802.53	231.82
802.85	231.87
803.17	232.00
803.49	231.91
803.81	231.94
804.13	231.82
804.45	231.80
804.77	231.95
805.09	231.89
805.41	231.77
805.73	231.74
806.05	231.70
806.37	231.64
806.69	231.69
807.01	231.64
807.33	231.67
807.65	231.60
807.97	231.65
808.28	231.54
808.60	231.47
808.92	231.42
809.24	231.48
809.56	231.43
809.88	231.30
810.20	231.29
810.52	231.32
810.84	231.30
811.16	231.32
811.48	231.25
811.80	231.32
812.12	231.45
812.43	231.44
812.75	231.40
813.07	231.22
813.39	231.23
813.71	231.30
814.03	231.19
814.35	231.16
814.67	231.09
814.98	231.09
815.30	231.04
815.62	231.03
815.94	230.84
816.26	230.96
816.58	230.86
816.89	230.77
817.21	230.71
817.53	230.66
817.85	230.57
818.17	230.48
818.48	230.40
818.80	230.24
819.12	230.19
819.44	230.07
819.76	230.14
820.07	230.04
820.39	229.91
820.71	229.93
821.03	229.82
821.34	229.69
821.66	229.60
821.98	229.61
822.30	229.56
822.61	229.69
822.93	229.47
823.25	229.40
823.57	229.33
823.88	229.28
824.20	229.30
824.52	229.30
824.83	229.24
825.15	229.08
825.47	229.14
825.79	229.12
826.10	229.22
826.42	229.15
826.74	229.13
827.05	229.11
827.37	229.07
827.69	229.02
828.00	229.06
828.32	229.10
828.64	229.10
828.95	229.06
829.27	228.98
829.58	229.00
829.90	229.08
830.22	229.15
830.53	229.09
830.85	229.07
831.17	229.04
831.48	229.04
831.80	229.18
832.11	229.12
832.43	229.01
832.75	228.81
833.06	228.99
833.38	228.98
833.69	228.97
834.01	229.01
834.32	229.15
834.64	229.09
834.96	229.02
835.27	228.92
835.59	228.84
835.90	228.80
836.22	228.75
836.53	228.73
836.85	228.71
837.16	228.90
837.48	228.88
837.79	228.93
838.11	228.99
838.42	228.89
838.74	228.97
839.05	228.97
839.37	229.10
839.68	229.00
840.00	228.99
840.31	229.02
840.63	228.95
840.94	228.89
841.26	228.90
841.57	229.00
841.88	229.05
842.20	229.12
842.51	229.09
842.83	229.09
843.14	229.22
843.46	229.36
843.77	229.31
844.08	229.29
844.40	229.14
844.71	229.11
845.03	229.13
845.34	229.09
845.65	229.10
845.97	229.19
846.28	229.11
846.60	229.11
846.91	229.02
847.22	229.04
847.54	229.05
847.85	229.08
848.16	229.14
848.48	229.18
848.79	229.25
849.10	229.29
849.42	229.37
849.73	229.27
850.04	229.16
850.36	229.02
850.67	229.05
850.98	229.19
851.30	229.25
851.61	229.19
851.92	229.10
852.23	229.25
852.55	229.15
852.86	229.14
853.17	229.20
853.49	229.28
853.80	229.34
854.11	229.38
854.42	229.40
854.74	229.18
855.05	229.12
855.36	229.05
855.67	228.99
855.99	228.96
856.30	229.05
856.61	229.05
856.92	229.03
857.23	229.03
857.55	228.97
857.86	228.90
858.17	229.02
858.48	229.00
858.79	228.88
859.11	228.94
859.42	229.01
859.73	228.86
860.04	228.80
860.35	228.79
860.66	228.72
860.98	228.71
861.29	228.83
861.60	228.79
861.91	228.77
862.22	228.78
862.53	228.65
862.84	228.50
863.16	228.54
863.47	228.56
863.78	228.53
864.09	228.54
864.40	228.54
864.71	228.43
865.02	228.45
865.33	228.45
865.64	228.47
865.95	228.40
866.27	228.58
866.58	228.59
866.89	228.52
867.20	228.44
867.51	228.29
867.82	228.25
868.13	228.31
868.44	228.27
868.75	228.31
869.06	228.40
869.37	228.40
869.68	228.40
869.99	228.41
870.30	228.39
870.61	228.40
870.92	228.38
871.23	228.46
871.54	228.49
871.85	228.60
872.16	228.52
872.47	228.49
872.78	228.41
873.09	228.50
873.40	228.46
873.71	228.60
874.02	228.70
874.33	228.70
874.64	228.63
874.95	228.71
875.26	228.76
875.56	228.77
875.87	228.94
876.18	228.88
876.49	228.98
876.80	229.11
877.11	229.16
877.42	229.26
877.73	229.24
878.04	229.20
878.35	229.08
878.66	229.12
878.96	229.20
879.27	229.17
879.58	229.10
879.89	229.16
880.20	229.20
880.51	229.23
880.82	229.28
881.12	229.33
881.43	229.39
881.74	229.36
882.05	229.42
882.36	229.36
882.67	229.48
882.97	229.39
883.28	229.32
883.59	229.23
883.90	229.29
884.21	229.24
884.51	229.33
884.82	229.30
885.13	229.19
885.44	229.20
885.74	229.26
886.05	229.22
886.36	229.21
886.67	229.15
886.98	229.33
887.28	229.31
887.59	229.21
887.90	229.17
888.20	229.15
888.51	228.99
888.82	228.87
889.13	228.82
889.43	228.94
889.74	228.80
890.05	228.88
890.35	228.76
890.66	228.77
890.97	228.70
891.28	228.75
891.58	228.82
891.89	228.71
892.20	228.73
892.50	228.72
892.81	228.61
893.12	228.55
893.42	228.31
893.73	228.31
894.04	228.40
894.34	228.20
894.65	228.17
894.95	228.17
895.26	228.20
895.57	228.16
895.87	227.89
896.18	227.98
896.48	227.97
896.79	227.96
897.10	227.95
897.40	227.86
897.71	227.81
898.01	227.75
898.32	227.83
898.63	227.63
898.93	227.52
899.24	227.55
899.54	227.56
899.85	227.55
900.15	227.44
900.46	227.46
900.76	227.57
901.07	227.56
901.38	227.50
901.68	227.47
901.99	227.44
902.29	227.56
902.60	227.59
902.90	227.51
903.21	227.51
903.51	227.51
903.82	227.60
904.12	227.67
904.43	227.63
904.73	227.61
905.03	227.62
905.34	227.86
905.64	227.90
905.95	228.03
906.25	228.04
906.56	228.10
906.86	228.10
907.17	228.03
907.47	228.05
907.77	228.18
908.08	228.20
908.38	228.27
908.69	228.23
908.99	228.40
909.30	228.37
909.60	228.38
909.90	228.36
910.21	228.42
910.51	228.37
910.81	228.50
911.12	228.58
911.42	228.70
911.73	228.54
912.03	228.52
912.33	228.44
912.64	228.47
912.94	228.55
913.24	228.48
913.55	228.54
913.85	228.53
914.15	228.62
914.46	228.68
914.76	228.66
915.06	228.72
915.37	228.59
915.67	228.60
915.97	228.63
916.27	228.82
916.58	228.83
916.88	228.88
917.18	228.82
917.49	228.93
917.79	228.91
918.09	228.96
918.39	229.05
918.70	229.03
919.00	229.12
919.30	229.09
919.60	229.07
919.91	229.16
920.21	229.23
920.51	229.11
920.81	229.12
921.12	229.06
921.42	229.13
921.72	229.11
922.02	229.23
922.32	229.28
922.63	229.15
922.93	229.26
923.23	229.21
923.53	229.29
923.83	229.16
924.13	229.19
924.44	229.14
924.74	229.16
925.04	229.25
925.34	229.14
925.64	229.08
925.94	229.09
926.24	229.11
926.55	229.02
926.85	229.05
927.15	228.98
927.45	229.04
927.75	228.97
928.05	228.91
928.35	228.79
928.65	228.73
928.95	228.70
929.26	228.36
929.56	228.45
929.86	228.42
930.16	228.34
930.46	228.34
930.76	228.38
931.06	228.28
931.36	228.19
931.66	228.17
931.96	228.15
932.26	228.11
932.56	227.93
932.86	227.94
933.16	227.92
933.46	227.93
933.76	227.85
934.06	227.80
934.36	227.83
934.66	227.82
934.96	227.80
935.26	227.84
935.56	228.08
935.86	227.93
936.16	227.87
936.46	227.84
936.76	227.81
937.06	227.68
937.36	227.69
937.66	227.63
937.96	227.70
938.26	227.62
938.56	227.64
938.86	227.64
939.16	227.67
939.46	227.63
939.76	227.58
940.06	227.47
940.35	227.63
940.65	227.43
940.95	227.47
941.25	227.38
941.55	227.41
941.85	227.26
942.15	227.29
942.45	227.33
942.75	227.35
943.04	227.32
943.34	227.54
943.64	227.50
943.94	227.49
944.24	227.46
944.54	227.58
944.84	227.61
945.13	227.68
945.43	227.60
945.73	227.63
946.03	227.70
946.33	227.77
946.62	227.54
946.92	227.69
947.22	227.69
947.52	227.72
947.82	227.79
948.11	227.85
948.41	227.83
948.71	227.79
949.01	227.85
949.31	227.90
949.60	227.92
949.90	227.96
950.20	228.07
950.50	228.12
950.79	228.07
951.09	228.14
951.39	228.11
951.69	228.20
951.98	228.29
952.28	228.31
952.58	228.48
952.87	228.62
953.17	228.66
953.47	228.65
953.76	228.72
954.06	228.59
954.36	228.61
954.66	228.55
954.95	228.70
955.25	228.72
955.55	228.80
955.84	228.69
956.14	228.80
956.44	228.79
956.73	228.73
957.03	228.82
957.32	228.80
957.62	228.97
957.92	229.10
958.21	229.09
958.51	229.24
958.81	229.23
959.10	229.25
959.40	229.30
959.69	229.38
959.99	229.28
960.29	229.37
960.58	229.39
960.88	229.50
961.17	229.39
961.47	229.40
961.76	229.30
962.06	229.40
962.36	229.35
962.65	229.39
962.95	229.45
963.24	229.37
963.54	229.40
963.83	229.35
964.13	229.19
964.42	229.12
964.72	229.10
965.01	228.99
965.31	228.91
965.60	228.81
965.90	228.88
966.19	228.99
966.49	229.02
966.78	228.95
967.08	228.96
967.37	228.90
967.67	228.87
967.96	228.80
968.26	228.70
968.55	228.68
968.85	228.64
969.14	228.57
969.43	228.62
969.73	228.42
970.02	228.35
970.32	228.33
970.61	228.32
970.91	228.18
971.20	228.13
971.49	228.03
971.79	228.00
972.08	227.83
972.38	227.78
972.67	227.67
972.96	227.70
973.26	227.64
973.55	227.74
973.85	227.69
974.14	227.81
974.43	227.88
974.73	227.80
975.02	227.73
975.31	227.74
975.61	227.70
975.90	227.76
976.19	227.72
976.49	227.74
976.78	227.69
977.07	227.55
977.37	227.63
977.66	227.78
977.95	227.79
978.24	227.74
978.54	227.78
978.83	227.73
979.12	227.70
979.42	227.78
979.71	227.71
980.00	227.68
980.29	227.67
980.59	227.67
980.88	227.73
981.17	227.77
981.46	227.67
981.76	227.67
982.05	227.80
982.34	227.83
982.63	227.93
982.93	227.95
983.22	228.22
983.51	228.29
983.80	228.20
984.09	228.28
984.39	228.27
984.68	228.21
984.97	228.22
985.26	228.21
985.55	228.17
985.85	228.13
986.14	228.27
986.43	228.28
986.72	228.26
987.01	228.20
987.30	228.18
987.59	228.27
987.89	228.33
988.18	228.20
988.47	228.12
988.76	227.98
989.05	228.00
989.34	227.90
989.63	227.80
989.92	227.87
990.22	227.84
990.51	228.07
990.80	228.08
991.09	228.10
991.38	228.12
991.67	228.10
991.96	228.12
992.25	228.08
992.54	228.02
992.83	227.98
993.12	227.99
993.41	228.09
993.70	228.19
993.99	228.18
994.28	228.29
994.58	228.45
994.87	228.58
995.16	228.63
995.45	228.57
995.74	228.63
996.03	228.60
996.32	228.63
996.61	228.57
996.90	228.62
997.19	228.72
997.48	228.69
997.77	228.66
998.06	228.65
998.34	228.70
998.63	228.70
998.92	228.78
999.21	228.81
999.50	228.73
999.79	228.67
1000.08	228.69
1000.37	228.60
1000.66	228.59
1000.95	228.57
1001.24	228.56
1001.53	228.67
1001.82	228.63
1002.11	228.69
1002.40	228.72
1002.68	228.69
1002.97	228.76
1003.26	228.64
1003.55	228.62
1003.84	228.72
1004.13	228.88
1004.42	228.74
1004.71	228.74
1004.99	228.69
1005.28	228.75
1005.57	228.85
1005.86	228.79
1006.15	228.79
1006.44	228.77
1006.72	228.66
1007.01	228.64
1007.30	228.63
1007.59	228.59
1007.88	228.59
1008.17	228.59
1008.45	228.47
1008.74	228.45
1009.03	228.38
1009.32	228.51
1009.60	228.65
1009.89	228.60
1010.18	228.44
1010.47	228.43
1010.76	228.44
1011.04	228.54
1011.33	228.53
1011.62	228.45
1011.91	228.47
1012.19	228.46
1012.48	228.49
1012.77	228.53
1013.05	228.55
1013.34	228.53
1013.63	228.51
1013.92	228.58
1014.20	228.54
1014.49	228.60
1014.78	228.59
1015.06	228.53
1015.35	228.35
1015.64	228.31
1015.92	228.29
1016.21	228.38
1016.50	228.46
1016.78	228.48
1017.07	228.54
1017.36	228.46
1017.64	228.46
1017.93	228.47
1018.22	228.46
1018.50	228.39
1018.79	228.50
1019.08	228.46
1019.36	228.46
1019.65	228.39
1019.93	228.43
1020.22	228.34
1020.51	228.40
1020.79	228.41
1021.08	228.90
1021.36	226.00
1021.65	230.10
1021.94	228.40
1022.22	228.40
1022.51	227.60
1022.79	230.00
1023.08	226.60
1023.36	229.70
1023.65	228.10
>>>>>End Processed Spectral Data<<<<<
