SpectraSuite Data File
++++++++++++++++++++++++++++++++++++
Date: Fri Feb 01 14:37:17 EST 2013
User: group
Dark Spectrum Present: No
Reference Spectrum Present: No
Number of Sampled Component Spectra: 1
Spectrometers: USB2E7196
Integration Time (usec): 70000 (USB2E7196)
Spectra Averaged: 10 (USB2E7196)
Boxcar Smoothing: 10 (USB2E7196)
Correct for Electrical Dark: No (USB2E7196)
Strobe/Lamp Enabled: No (USB2E7196)
Correct for Detector Non-linearity: No (USB2E7196)
Correct for Stray Light: No (USB2E7196)
Number of Pixels in Processed Spectrum: 2048
>>>>>Begin Processed Spectral Data<<<<<
339.09	0.00
339.48	218.80
339.86	217.40
340.24	218.90
340.63	219.40
341.01	225.40
341.39	221.20
341.78	224.90
342.16	226.00
342.54	226.90
342.93	214.53
343.31	225.41
343.69	225.86
344.07	226.33
344.46	226.67
344.84	227.07
345.22	227.25
345.60	227.54
345.99	227.70
346.37	227.85
346.75	227.92
347.13	228.03
347.52	227.93
347.90	228.05
348.28	228.10
348.66	228.23
349.05	228.10
349.43	228.20
349.81	228.22
350.19	228.19
350.57	228.20
350.96	228.32
351.34	228.39
351.72	228.52
352.10	228.60
352.48	228.76
352.87	228.83
353.25	228.90
353.63	229.01
354.01	229.06
354.39	229.09
354.77	229.20
355.15	229.47
355.54	229.65
355.92	229.62
356.30	229.66
356.68	229.97
357.06	230.14
357.44	230.07
357.82	230.20
358.20	230.31
358.58	230.47
358.97	230.64
359.35	230.68
359.73	230.61
360.11	230.60
360.49	230.63
360.87	230.61
361.25	230.72
361.63	230.75
362.01	230.78
362.39	230.77
362.77	230.76
363.15	230.63
363.53	230.61
363.91	230.69
364.29	230.65
364.67	230.25
365.05	230.36
365.43	230.41
365.81	230.36
366.19	230.44
366.57	230.41
366.95	230.25
367.33	230.16
367.71	230.14
368.09	230.22
368.47	230.12
368.85	230.20
369.23	230.04
369.61	229.98
369.99	230.01
370.37	230.03
370.75	230.03
371.13	229.89
371.51	229.81
371.89	229.70
372.27	229.68
372.65	229.77
373.03	229.61
373.41	229.43
373.78	229.44
374.16	229.14
374.54	228.89
374.92	228.86
375.30	228.81
375.68	228.71
376.06	228.61
376.44	228.59
376.82	228.46
377.19	228.47
377.57	228.35
377.95	228.22
378.33	228.10
378.71	227.90
379.09	227.86
379.47	227.73
379.84	227.59
380.22	227.48
380.60	227.34
380.98	227.23
381.36	227.12
381.73	226.91
382.11	226.99
382.49	226.99
382.87	226.92
383.25	226.83
383.62	226.98
384.00	226.80
384.38	226.68
384.76	226.78
385.13	226.68
385.51	226.72
385.89	226.64
386.27	226.54
386.64	226.50
387.02	226.44
387.40	226.46
387.78	226.46
388.15	226.44
388.53	226.41
388.91	226.38
389.29	226.40
389.66	226.47
390.04	226.37
390.42	226.45
390.79	226.43
391.17	226.38
391.55	226.27
391.92	226.33
392.30	226.39
392.68	226.26
393.05	226.31
393.43	226.20
393.81	226.21
394.18	226.24
394.56	226.34
394.94	226.40
395.31	226.45
395.69	226.61
396.06	226.68
396.44	226.82
396.82	226.93
397.19	227.18
397.57	227.28
397.95	227.47
398.32	227.50
398.70	227.66
399.07	227.89
399.45	227.89
399.82	227.90
400.20	228.01
400.58	228.13
400.95	228.24
401.33	228.55
401.70	228.83
402.08	229.05
402.45	229.25
402.83	229.47
403.20	229.58
403.58	229.66
403.95	229.92
404.33	230.05
404.71	230.24
405.08	230.54
405.46	230.73
405.83	230.98
406.21	231.15
406.58	231.42
406.96	231.58
407.33	231.83
407.70	232.35
408.08	232.81
408.45	233.19
408.83	233.47
409.20	233.71
409.58	234.02
409.95	234.42
410.33	234.78
410.70	235.11
411.08	235.61
411.45	236.14
411.82	236.57
412.20	237.16
412.57	237.90
412.95	238.29
413.32	238.84
413.69	239.50
414.07	240.24
414.44	240.94
414.82	241.79
415.19	242.74
415.56	243.58
415.94	244.41
416.31	245.40
416.68	246.46
417.06	247.71
417.43	248.82
417.81	250.16
418.18	251.44
418.55	252.87
418.93	254.47
419.30	255.96
419.67	257.60
420.04	259.17
420.42	260.94
420.79	262.96
421.16	265.05
421.54	267.10
421.91	269.32
422.28	271.59
422.66	274.01
423.03	276.33
423.40	278.77
423.77	281.31
424.15	283.82
424.52	286.50
424.89	289.38
425.26	292.22
425.64	294.83
426.01	297.73
426.38	300.82
426.75	303.80
427.13	307.01
427.50	310.46
427.87	314.06
428.24	317.46
428.61	320.77
428.99	324.50
429.36	328.52
429.73	332.44
430.10	336.31
430.47	340.23
430.85	344.33
431.22	348.59
431.59	353.41
431.96	357.87
432.33	362.72
432.70	367.31
433.08	372.77
433.45	378.02
433.82	383.30
434.19	389.11
434.56	394.74
434.93	400.10
435.30	405.32
435.68	411.16
436.05	416.92
436.42	422.74
436.79	427.88
437.16	433.40
437.53	439.16
437.90	444.99
438.27	450.78
438.64	456.89
439.01	462.56
439.38	467.33
439.75	472.10
440.13	477.38
440.50	482.68
440.87	486.90
441.24	491.26
441.61	496.11
441.98	499.61
442.35	503.88
442.72	508.30
443.09	512.55
443.46	515.31
443.83	517.20
444.20	518.87
444.57	521.25
444.94	522.61
445.31	524.09
445.68	525.46
446.05	526.24
446.42	526.07
446.79	525.88
447.16	525.63
447.53	525.76
447.90	524.34
448.27	522.61
448.64	520.23
449.01	518.62
449.37	515.42
449.74	512.42
450.11	508.50
450.48	504.13
450.85	499.65
451.22	495.86
451.59	492.21
451.96	488.95
452.33	484.21
452.70	479.94
453.07	474.62
453.43	469.20
453.80	464.01
454.17	458.97
454.54	454.18
454.91	448.97
455.28	443.82
455.65	439.20
456.02	434.59
456.38	430.42
456.75	425.21
457.12	420.82
457.49	416.22
457.86	411.86
458.23	408.20
458.59	404.11
458.96	400.04
459.33	396.38
459.70	392.44
460.07	389.49
460.43	386.02
460.80	382.96
461.17	380.08
461.54	377.00
461.91	374.03
462.27	371.00
462.64	368.55
463.01	365.79
463.38	362.98
463.74	360.21
464.11	357.84
464.48	355.86
464.85	353.46
465.21	351.72
465.58	349.96
465.95	347.69
466.32	345.79
466.68	343.72
467.05	341.82
467.42	340.14
467.78	338.05
468.15	336.22
468.52	334.74
468.88	333.05
469.25	331.46
469.62	330.26
469.98	328.93
470.35	327.55
470.72	326.25
471.08	324.82
471.45	323.61
471.82	322.41
472.18	320.92
472.55	319.89
472.92	318.76
473.28	317.74
473.65	316.60
474.02	315.58
474.38	314.69
474.75	313.96
475.11	313.03
475.48	312.50
475.85	311.82
476.21	311.16
476.58	310.43
476.94	309.93
477.31	309.15
477.67	308.57
478.04	308.04
478.41	307.59
478.77	307.44
479.14	306.97
479.50	306.61
479.87	306.43
480.23	306.18
480.60	305.84
480.96	305.56
481.33	305.61
481.69	305.55
482.06	305.46
482.42	305.34
482.79	305.24
483.15	305.10
483.52	305.28
483.88	305.21
484.25	305.35
484.61	305.42
484.98	305.64
485.34	305.85
485.71	306.07
486.07	306.35
486.44	306.41
486.80	306.71
487.17	306.96
487.53	307.41
487.90	307.74
488.26	308.24
488.62	308.73
488.99	309.07
489.35	309.44
489.72	309.95
490.08	310.44
490.44	310.99
490.81	311.73
491.17	312.22
491.54	312.90
491.90	313.50
492.26	314.27
492.63	314.93
492.99	315.59
493.36	316.29
493.72	317.00
494.08	317.64
494.45	318.46
494.81	319.35
495.17	320.05
495.54	321.02
495.90	321.77
496.26	322.64
496.63	323.55
496.99	324.59
497.35	325.42
497.72	326.32
498.08	327.20
498.44	327.98
498.80	328.91
499.17	329.75
499.53	330.58
499.89	331.33
500.26	332.13
500.62	332.83
500.98	333.67
501.34	334.44
501.71	335.37
502.07	335.97
502.43	336.61
502.79	337.32
503.16	338.02
503.52	338.64
503.88	339.02
504.24	339.43
504.60	339.94
504.97	340.56
505.33	341.04
505.69	341.66
506.05	342.14
506.41	342.60
506.78	342.91
507.14	343.33
507.50	343.77
507.86	344.23
508.22	344.67
508.59	344.91
508.95	345.13
509.31	345.30
509.67	345.59
510.03	345.75
510.39	345.96
510.75	346.12
511.12	346.41
511.48	346.66
511.84	346.87
512.20	347.03
512.56	347.04
512.92	347.18
513.28	347.16
513.64	347.02
514.00	346.92
514.37	347.15
514.73	347.19
515.09	347.12
515.45	347.12
515.81	347.08
516.17	347.19
516.53	347.31
516.89	347.32
517.25	347.39
517.61	347.69
517.97	347.83
518.33	347.84
518.69	348.10
519.05	348.40
519.41	348.69
519.77	348.93
520.13	349.29
520.49	349.68
520.85	350.05
521.21	350.73
521.57	351.20
521.93	351.53
522.29	352.10
522.65	352.75
523.01	353.18
523.37	353.84
523.73	354.60
524.09	355.43
524.45	356.36
524.81	357.21
525.17	358.00
525.53	359.10
525.89	360.36
526.25	361.41
526.61	362.50
526.97	363.87
527.33	365.22
527.68	366.82
528.04	368.35
528.40	369.95
528.76	371.69
529.12	373.54
529.48	375.56
529.84	377.23
530.20	379.23
530.56	381.51
530.91	383.83
531.27	385.90
531.63	388.26
531.99	390.63
532.35	393.09
532.71	395.64
533.07	398.29
533.42	401.10
533.78	403.82
534.14	406.73
534.50	409.45
534.86	412.50
535.21	415.46
535.57	418.52
535.93	421.56
536.29	424.69
536.65	427.92
537.00	431.19
537.36	434.91
537.72	438.40
538.08	442.02
538.44	445.50
538.79	449.14
539.15	452.79
539.51	456.48
539.87	460.38
540.22	464.25
540.58	468.14
540.94	471.98
541.29	476.18
541.65	480.13
542.01	484.52
542.37	488.76
542.72	493.11
543.08	497.24
543.44	501.71
543.79	505.88
544.15	510.16
544.51	514.71
544.87	519.20
545.22	523.76
545.58	528.01
545.94	532.58
546.29	537.22
546.65	541.83
547.01	546.44
547.36	551.10
547.72	555.75
548.07	560.44
548.43	564.91
548.79	569.21
549.14	573.70
549.50	578.02
549.86	582.29
550.21	586.52
550.57	591.21
550.92	595.91
551.28	600.34
551.64	604.99
551.99	609.43
552.35	614.05
552.70	618.51
553.06	623.39
553.41	627.97
553.77	632.69
554.13	637.21
554.48	642.00
554.84	646.46
555.19	651.05
555.55	655.46
555.90	660.03
556.26	664.60
556.61	669.43
556.97	673.81
557.32	678.38
557.68	682.86
558.03	687.53
558.39	691.86
558.74	696.61
559.10	701.10
559.45	705.64
559.81	710.12
560.16	714.44
560.52	718.59
560.87	723.12
561.23	727.27
561.58	731.54
561.94	735.54
562.29	739.53
562.64	743.41
563.00	747.63
563.35	752.06
563.71	756.44
564.06	760.48
564.42	764.57
564.77	768.61
565.12	772.72
565.48	776.78
565.83	780.70
566.19	784.70
566.54	788.51
566.89	792.10
567.25	795.87
567.60	799.98
567.96	803.73
568.31	807.24
568.66	811.06
569.02	814.65
569.37	818.04
569.72	821.61
570.08	824.96
570.43	828.11
570.78	831.00
571.14	833.87
571.49	836.72
571.84	839.90
572.20	842.79
572.55	845.47
572.90	847.93
573.26	850.58
573.61	853.07
573.96	855.60
574.31	857.60
574.67	859.43
575.02	860.94
575.37	862.81
575.72	864.48
576.08	866.10
576.43	867.64
576.78	869.48
577.13	871.14
577.49	873.10
577.84	874.79
578.19	876.29
578.54	877.58
578.90	878.72
579.25	879.82
579.60	881.05
579.95	882.12
580.30	883.03
580.66	883.88
581.01	884.46
581.36	885.38
581.71	886.64
582.06	887.45
582.42	888.28
582.77	889.03
583.12	889.70
583.47	890.48
583.82	891.32
584.17	891.60
584.53	892.10
584.88	892.07
585.23	892.27
585.58	892.66
585.93	893.00
586.28	893.65
586.63	893.99
586.98	894.20
587.34	894.55
587.69	894.61
588.04	894.64
588.39	894.98
588.74	894.40
589.09	894.16
589.44	893.72
589.79	893.56
590.14	893.53
590.49	893.41
590.84	892.60
591.19	892.23
591.54	891.75
591.89	890.67
592.25	890.38
592.60	889.49
592.95	888.32
593.30	887.35
593.65	886.10
594.00	885.01
594.35	884.44
594.70	883.09
595.05	882.13
595.40	881.07
595.75	879.80
596.10	879.08
596.45	878.27
596.80	877.90
597.15	876.92
597.50	875.60
597.85	874.58
598.19	873.86
598.54	872.82
598.89	871.72
599.24	871.22
599.59	870.09
599.94	869.05
600.29	868.03
600.64	866.80
600.99	865.64
601.34	864.61
601.69	862.68
602.04	861.50
602.39	860.16
602.74	859.01
603.08	857.70
603.43	856.36
603.78	854.71
604.13	852.80
604.48	851.19
604.83	849.85
605.18	848.07
605.53	846.18
605.87	843.82
606.22	842.00
606.57	839.83
606.92	838.14
607.27	836.47
607.62	834.94
607.96	833.34
608.31	831.70
608.66	829.71
609.01	827.66
609.36	825.56
609.70	823.03
610.05	820.67
610.40	818.43
610.75	815.92
611.10	813.40
611.44	810.98
611.79	808.87
612.14	806.29
612.49	803.53
612.83	800.96
613.18	798.77
613.53	796.69
613.88	794.21
614.22	791.44
614.57	788.89
614.92	786.14
615.27	783.78
615.61	780.89
615.96	778.25
616.31	776.01
616.65	773.98
617.00	771.81
617.35	769.66
617.70	767.26
618.04	764.71
618.39	762.37
618.74	759.89
619.08	757.24
619.43	754.79
619.78	752.51
620.12	750.03
620.47	747.39
620.82	744.61
621.16	742.08
621.51	739.66
621.85	736.96
622.20	734.07
622.55	731.34
622.89	729.04
623.24	726.61
623.59	724.23
623.93	721.60
624.28	719.18
624.62	716.40
624.97	713.93
625.32	711.48
625.66	709.19
626.01	706.74
626.35	703.95
626.70	701.35
627.04	698.93
627.39	696.36
627.73	694.02
628.08	691.43
628.43	689.14
628.77	686.56
629.12	683.67
629.46	681.18
629.81	678.06
630.15	675.16
630.50	672.16
630.84	668.99
631.19	665.98
631.53	663.16
631.88	660.08
632.22	656.89
632.57	654.40
632.91	651.56
633.26	648.57
633.60	646.11
633.95	643.29
634.29	640.48
634.64	638.12
634.98	635.29
635.32	632.70
635.67	630.11
636.01	627.54
636.36	625.32
636.70	623.05
637.05	620.91
637.39	618.48
637.73	616.25
638.08	614.06
638.42	611.70
638.77	609.29
639.11	606.88
639.45	604.48
639.80	601.71
640.14	599.13
640.49	597.00
640.83	594.52
641.17	592.27
641.52	589.81
641.86	587.16
642.20	584.82
642.55	582.22
642.89	579.58
643.23	576.81
643.58	574.44
643.92	571.79
644.26	569.43
644.61	567.30
644.95	564.81
645.29	562.05
645.64	559.40
645.98	557.02
646.32	554.64
646.66	552.26
647.01	549.99
647.35	547.74
647.69	545.22
648.04	542.80
648.38	540.23
648.72	537.61
649.06	535.11
649.41	532.56
649.75	530.17
650.09	527.88
650.43	525.65
650.78	523.08
651.12	520.57
651.46	517.96
651.80	515.41
652.14	513.02
652.49	510.94
652.83	508.62
653.17	506.08
653.51	503.81
653.85	501.60
654.20	499.21
654.54	496.66
654.88	494.15
655.22	491.71
655.56	489.30
655.90	487.14
656.25	484.86
656.59	482.69
656.93	480.53
657.27	478.22
657.61	475.91
657.95	473.74
658.29	471.58
658.64	469.52
658.98	467.15
659.32	464.90
659.66	462.70
660.00	460.69
660.34	458.46
660.68	456.24
661.02	454.04
661.36	451.99
661.70	449.79
662.05	448.02
662.39	446.27
662.73	444.38
663.07	442.60
663.41	440.77
663.75	438.88
664.09	436.88
664.43	434.89
664.77	433.01
665.11	431.15
665.45	429.53
665.79	427.66
666.13	425.87
666.47	424.09
666.81	422.31
667.15	420.28
667.49	418.72
667.83	417.17
668.17	415.50
668.51	413.82
668.85	412.06
669.19	410.49
669.53	408.66
669.87	407.07
670.21	405.45
670.55	403.83
670.89	402.27
671.23	400.77
671.57	399.22
671.91	397.68
672.25	396.15
672.58	394.58
672.92	393.10
673.26	391.68
673.60	390.28
673.94	388.72
674.28	387.51
674.62	386.10
674.96	384.63
675.30	383.28
675.64	381.81
675.97	380.68
676.31	379.18
676.65	377.85
676.99	376.44
677.33	374.86
677.67	373.31
678.01	371.87
678.34	370.65
678.68	369.40
679.02	368.14
679.36	366.98
679.70	365.63
680.04	364.41
680.37	363.21
680.71	361.93
681.05	360.69
681.39	359.48
681.73	358.26
682.06	356.98
682.40	355.80
682.74	354.56
683.08	353.42
683.42	352.17
683.75	351.05
684.09	349.79
684.43	348.73
684.77	347.72
685.10	346.55
685.44	345.15
685.78	343.95
686.12	342.79
686.45	341.34
686.79	340.07
687.13	338.86
687.46	337.64
687.80	336.53
688.14	335.51
688.48	334.39
688.81	333.20
689.15	332.29
689.49	331.10
689.82	330.08
690.16	328.84
690.50	327.73
690.83	326.57
691.17	325.57
691.51	324.57
691.84	323.66
692.18	322.74
692.52	321.77
692.85	320.81
693.19	319.91
693.52	318.98
693.86	318.20
694.20	317.20
694.53	316.21
694.87	315.14
695.21	314.09
695.54	313.05
695.88	311.97
696.21	310.80
696.55	309.94
696.88	309.05
697.22	308.18
697.56	307.20
697.89	306.33
698.23	305.44
698.56	304.44
698.90	303.57
699.23	302.57
699.57	301.75
699.90	300.94
700.24	300.02
700.58	299.32
700.91	298.44
701.25	297.80
701.58	297.15
701.92	296.49
702.25	295.73
702.59	295.06
702.92	294.52
703.26	293.98
703.59	293.37
703.93	292.82
704.26	292.11
704.60	291.71
704.93	291.09
705.26	290.46
705.60	289.98
705.93	289.18
706.27	288.75
706.60	288.34
706.94	287.71
707.27	287.05
707.61	286.45
707.94	285.90
708.27	285.19
708.61	284.41
708.94	283.90
709.28	283.43
709.61	282.91
709.94	282.30
710.28	281.61
710.61	280.93
710.95	280.19
711.28	279.73
711.61	279.09
711.95	278.68
712.28	278.05
712.61	277.30
712.95	277.01
713.28	276.45
713.61	275.78
713.95	275.20
714.28	274.79
714.61	274.20
714.95	273.68
715.28	273.19
715.61	272.75
715.95	272.23
716.28	271.72
716.61	271.19
716.95	270.72
717.28	270.38
717.61	269.98
717.94	269.53
718.28	269.03
718.61	268.63
718.94	268.02
719.27	267.61
719.61	267.31
719.94	266.68
720.27	266.24
720.60	265.92
720.94	265.58
721.27	265.18
721.60	264.94
721.93	264.60
722.27	264.26
722.60	263.92
722.93	263.58
723.26	263.15
723.59	262.81
723.93	262.46
724.26	262.01
724.59	261.65
724.92	261.27
725.25	261.00
725.59	260.61
725.92	260.36
726.25	260.11
726.58	259.71
726.91	259.51
727.24	259.16
727.57	258.82
727.91	258.52
728.24	258.25
728.57	257.86
728.90	257.54
729.23	257.30
729.56	257.13
729.89	256.91
730.22	256.64
730.55	256.30
730.89	255.97
731.22	255.66
731.55	255.32
731.88	255.05
732.21	254.74
732.54	254.31
732.87	253.94
733.20	253.68
733.53	253.50
733.86	253.26
734.19	253.04
734.52	252.77
734.85	252.47
735.18	252.14
735.51	251.97
735.84	251.69
736.17	251.39
736.50	250.94
736.83	250.77
737.16	250.62
737.49	250.46
737.82	250.27
738.15	250.01
738.48	249.81
738.81	249.55
739.14	249.19
739.47	249.06
739.80	248.81
740.13	248.50
740.46	248.17
740.79	247.95
741.12	247.69
741.45	247.41
741.78	247.16
742.11	246.98
742.44	246.66
742.77	246.50
743.10	246.18
743.43	246.01
743.75	245.64
744.08	245.56
744.41	245.27
744.74	245.06
745.07	245.02
745.40	244.86
745.73	244.82
746.06	244.83
746.39	244.60
746.71	244.47
747.04	244.30
747.37	244.21
747.70	243.93
748.03	243.71
748.36	243.66
748.68	243.50
749.01	243.30
749.34	243.20
749.67	243.08
750.00	242.97
750.33	242.86
750.65	242.63
750.98	242.28
751.31	242.18
751.64	242.03
751.97	241.92
752.29	241.78
752.62	241.53
752.95	241.30
753.28	241.25
753.60	241.01
753.93	240.94
754.26	240.80
754.59	240.79
754.91	240.64
755.24	240.45
755.57	240.37
755.90	240.26
756.22	240.14
756.55	240.00
756.88	239.89
757.20	239.81
757.53	239.74
757.86	239.66
758.19	239.61
758.51	239.57
758.84	239.44
759.17	239.48
759.49	239.42
759.82	239.57
760.15	239.48
760.47	239.58
760.80	239.50
761.13	239.49
761.45	239.25
761.78	239.23
762.11	239.11
762.43	238.98
762.76	238.95
763.08	238.86
763.41	238.81
763.74	238.80
764.06	238.66
764.39	238.57
764.71	238.45
765.04	238.33
765.37	238.13
765.69	238.02
766.02	237.81
766.34	237.73
766.67	237.49
767.00	237.45
767.32	237.38
767.65	237.40
767.97	237.29
768.30	237.31
768.62	237.29
768.95	237.32
769.27	237.28
769.60	237.24
769.92	237.03
770.25	236.91
770.57	236.66
770.90	236.62
771.22	236.52
771.55	236.42
771.87	236.33
772.20	236.23
772.52	236.27
772.85	236.41
773.17	236.31
773.50	236.18
773.82	236.00
774.15	235.80
774.47	235.49
774.80	235.38
775.12	235.26
775.45	235.06
775.77	234.86
776.09	234.79
776.42	234.55
776.74	234.63
777.07	234.39
777.39	234.40
777.72	234.23
778.04	234.08
778.36	233.93
778.69	233.85
779.01	233.81
779.33	233.58
779.66	233.21
779.98	233.00
780.31	232.94
780.63	232.96
780.95	232.93
781.28	232.89
781.60	232.78
781.92	232.66
782.25	232.67
782.57	232.69
782.89	232.63
783.22	232.60
783.54	232.51
783.86	232.68
784.19	232.61
784.51	232.67
784.83	232.69
785.16	232.62
785.48	232.50
785.80	232.41
786.12	232.40
786.45	232.34
786.77	232.37
787.09	232.36
787.42	232.25
787.74	232.19
788.06	232.08
788.38	232.14
788.71	232.10
789.03	232.10
789.35	232.02
789.67	231.98
789.99	231.98
790.32	231.88
790.64	231.81
790.96	232.04
791.28	231.94
791.61	231.86
791.93	231.97
792.25	232.00
792.57	232.23
792.89	232.11
793.21	232.13
793.54	232.09
793.86	232.06
794.18	232.07
794.50	231.98
794.82	232.01
795.14	231.94
795.47	231.95
795.79	231.87
796.11	231.88
796.43	231.80
796.75	231.76
797.07	231.82
797.39	231.73
797.71	231.48
798.04	231.51
798.36	231.64
798.68	231.60
799.00	231.68
799.32	231.47
799.64	231.53
799.96	231.59
800.28	231.67
800.60	231.67
800.92	231.70
801.24	231.70
801.56	231.81
801.89	231.81
802.21	231.89
802.53	231.93
802.85	231.86
803.17	231.95
803.49	231.92
803.81	231.81
804.13	231.75
804.45	231.72
804.77	231.67
805.09	231.56
805.41	231.56
805.73	231.46
806.05	231.48
806.37	231.50
806.69	231.37
807.01	231.15
807.33	231.02
807.65	230.87
807.97	231.00
808.28	230.94
808.60	230.74
808.92	230.64
809.24	230.71
809.56	230.71
809.88	230.58
810.20	230.45
810.52	230.60
810.84	230.57
811.16	230.61
811.48	230.55
811.80	230.59
812.12	230.51
812.43	230.50
812.75	230.40
813.07	230.37
813.39	230.29
813.71	230.38
814.03	230.41
814.35	230.40
814.67	230.29
814.98	230.16
815.30	230.24
815.62	230.14
815.94	229.91
816.26	230.01
816.58	229.94
816.89	229.97
817.21	229.77
817.53	229.80
817.85	229.62
818.17	229.52
818.48	229.42
818.80	229.46
819.12	229.40
819.44	229.36
819.76	229.26
820.07	229.25
820.39	229.23
820.71	229.27
821.03	229.25
821.34	229.23
821.66	229.22
821.98	229.20
822.30	229.21
822.61	229.25
822.93	229.10
823.25	229.15
823.57	229.13
823.88	229.19
824.20	229.21
824.52	229.23
824.83	229.38
825.15	229.35
825.47	229.31
825.79	229.30
826.10	229.27
826.42	229.25
826.74	229.29
827.05	229.27
827.37	229.20
827.69	229.25
828.00	229.29
828.32	229.27
828.64	229.28
828.95	229.44
829.27	229.40
829.58	229.36
829.90	229.37
830.22	229.45
830.53	229.30
830.85	229.23
831.17	229.30
831.48	229.18
831.80	229.19
832.11	229.24
832.43	229.30
832.75	229.22
833.06	229.33
833.38	229.30
833.69	229.35
834.01	229.32
834.32	229.27
834.64	229.15
834.96	229.23
835.27	229.24
835.59	229.12
835.90	229.18
836.22	229.19
836.53	229.12
836.85	229.13
837.16	229.46
837.48	229.39
837.79	229.45
838.11	229.48
838.42	229.45
838.74	229.41
839.05	229.30
839.37	229.38
839.68	229.24
840.00	229.22
840.31	229.20
840.63	229.23
840.94	229.15
841.26	229.20
841.57	229.09
841.88	229.10
842.20	229.17
842.51	229.13
842.83	229.13
843.14	229.29
843.46	229.20
843.77	229.16
844.08	229.23
844.40	229.25
844.71	229.18
845.03	229.22
845.34	229.24
845.65	229.21
845.97	229.24
846.28	229.32
846.60	229.45
846.91	229.43
847.22	229.36
847.54	229.44
847.85	229.43
848.16	229.38
848.48	229.31
848.79	229.28
849.10	229.21
849.42	229.23
849.73	229.12
850.04	229.01
850.36	228.73
850.67	228.72
850.98	228.67
851.30	228.78
851.61	228.70
851.92	228.64
852.23	228.81
852.55	228.73
852.86	228.71
853.17	228.60
853.49	228.55
853.80	228.51
854.11	228.48
854.42	228.44
854.74	228.42
855.05	228.42
855.36	228.42
855.67	228.40
855.99	228.40
856.30	228.61
856.61	228.63
856.92	228.66
857.23	228.60
857.55	228.42
857.86	228.33
858.17	228.39
858.48	228.32
858.79	228.11
859.11	228.11
859.42	228.05
859.73	228.07
860.04	228.07
860.35	228.10
860.66	228.14
860.98	228.08
861.29	228.15
861.60	228.15
861.91	228.06
862.22	228.00
862.53	227.89
862.84	227.61
863.16	227.81
863.47	227.91
863.78	227.89
864.09	227.92
864.40	227.98
864.71	227.93
865.02	228.02
865.33	228.13
865.64	228.16
865.95	228.15
866.27	228.24
866.58	228.35
866.89	228.41
867.20	228.37
867.51	228.47
867.82	228.57
868.13	228.63
868.44	228.66
868.75	228.75
869.06	228.80
869.37	228.82
869.68	228.71
869.99	228.62
870.30	228.74
870.61	228.83
870.92	228.81
871.23	228.80
871.54	228.80
871.85	228.76
872.16	228.82
872.47	228.82
872.78	228.81
873.09	228.86
873.40	228.87
873.71	228.98
874.02	228.95
874.33	228.86
874.64	228.88
874.95	228.95
875.26	228.99
875.56	229.04
875.87	229.19
876.18	229.17
876.49	229.34
876.80	229.24
877.11	229.15
877.42	229.20
877.73	229.25
878.04	229.26
878.35	229.19
878.66	229.19
878.96	229.16
879.27	229.05
879.58	229.01
879.89	228.96
880.20	228.88
880.51	228.91
880.82	228.93
881.12	228.90
881.43	228.74
881.74	228.73
882.05	228.73
882.36	228.61
882.67	228.57
882.97	228.43
883.28	228.46
883.59	228.44
883.90	228.39
884.21	228.32
884.51	228.23
884.82	228.27
885.13	228.25
885.44	228.26
885.74	228.28
886.05	228.19
886.36	228.23
886.67	228.18
886.98	228.22
887.28	228.18
887.59	228.12
887.90	228.17
888.20	228.19
888.51	228.16
888.82	228.16
889.13	228.20
889.43	228.31
889.74	228.32
890.05	228.44
890.35	228.35
890.66	228.24
890.97	228.22
891.28	228.20
891.58	228.17
891.89	228.21
892.20	228.20
892.50	228.13
892.81	228.09
893.12	228.07
893.42	227.91
893.73	227.89
894.04	227.88
894.34	227.92
894.65	227.87
894.95	227.87
895.26	227.91
895.57	228.12
895.87	227.90
896.18	227.95
896.48	227.97
896.79	228.04
897.10	228.13
897.40	228.21
897.71	228.36
898.01	228.34
898.32	228.29
898.63	228.18
898.93	228.21
899.24	228.27
899.54	228.34
899.85	228.38
900.15	228.36
900.46	228.44
900.76	228.44
901.07	228.42
901.38	228.40
901.68	228.39
901.99	228.24
902.29	228.37
902.60	228.26
902.90	228.15
903.21	228.18
903.51	228.13
903.82	228.14
904.12	228.18
904.43	228.22
904.73	228.29
905.03	228.45
905.34	228.73
905.64	228.73
905.95	228.80
906.25	228.86
906.56	229.02
906.86	229.05
907.17	229.01
907.47	229.05
907.77	229.06
908.08	229.16
908.38	229.21
908.69	229.15
908.99	229.23
909.30	229.38
909.60	229.40
909.90	229.52
910.21	229.56
910.51	229.43
910.81	229.41
911.12	229.50
911.42	229.40
911.73	229.17
912.03	229.16
912.33	229.08
912.64	229.07
912.94	228.95
913.24	228.94
913.55	228.97
913.85	228.90
914.15	228.96
914.46	228.81
914.76	228.80
915.06	228.90
915.37	228.92
915.67	228.77
915.97	228.73
916.27	228.74
916.58	228.75
916.88	228.81
917.18	228.86
917.49	228.99
917.79	229.02
918.09	229.05
918.39	229.12
918.70	229.20
919.00	229.26
919.30	229.46
919.60	229.37
919.91	229.39
920.21	229.49
920.51	229.45
920.81	229.52
921.12	229.44
921.42	229.24
921.72	229.20
922.02	229.30
922.32	229.37
922.63	229.39
922.93	229.42
923.23	229.36
923.53	229.24
923.83	229.06
924.13	229.06
924.44	228.95
924.74	228.93
925.04	228.88
925.34	228.80
925.64	228.54
925.94	228.59
926.24	228.58
926.55	228.56
926.85	228.56
927.15	228.44
927.45	228.44
927.75	228.44
928.05	228.37
928.35	228.31
928.65	228.21
928.95	228.12
929.26	227.96
929.56	228.04
929.86	228.02
930.16	227.90
930.46	227.99
930.76	228.08
931.06	227.84
931.36	227.80
931.66	227.87
931.96	227.96
932.26	227.83
932.56	227.75
932.86	227.66
933.16	227.67
933.46	227.59
933.76	227.50
934.06	227.57
934.36	227.62
934.66	227.62
934.96	227.65
935.26	227.60
935.56	227.58
935.86	227.43
936.16	227.44
936.46	227.50
936.76	227.41
937.06	227.30
937.36	227.35
937.66	227.35
937.96	227.25
938.26	227.17
938.56	227.16
938.86	227.22
939.16	227.26
939.46	227.20
939.76	227.30
940.06	227.38
940.35	227.39
940.65	227.35
940.95	227.30
941.25	227.28
941.55	227.30
941.85	227.38
942.15	227.40
942.45	227.61
942.75	227.62
943.04	227.66
943.34	227.74
943.64	227.75
943.94	227.76
944.24	227.77
944.54	227.83
944.84	227.94
945.13	227.91
945.43	227.99
945.73	228.04
946.03	228.06
946.33	228.12
946.62	228.22
946.92	228.26
947.22	228.38
947.52	228.45
947.82	228.62
948.11	228.67
948.41	228.67
948.71	228.61
949.01	228.57
949.31	228.59
949.60	228.71
949.90	228.90
950.20	228.90
950.50	228.98
950.79	229.06
951.09	229.12
951.39	229.21
951.69	229.27
951.98	229.36
952.28	229.38
952.58	229.34
952.87	229.33
953.17	229.43
953.47	229.45
953.76	229.56
954.06	229.45
954.36	229.52
954.66	229.58
954.95	229.66
955.25	229.82
955.55	229.82
955.84	229.71
956.14	229.63
956.44	229.74
956.73	229.68
957.03	229.59
957.32	229.52
957.62	229.51
957.92	229.55
958.21	229.55
958.51	229.82
958.81	229.84
959.10	229.80
959.40	229.83
959.69	229.81
959.99	229.64
960.29	229.67
960.58	229.60
960.88	229.73
961.17	229.69
961.47	229.64
961.76	229.66
962.06	229.77
962.36	229.70
962.65	229.64
962.95	229.61
963.24	229.52
963.54	229.63
963.83	229.52
964.13	229.37
964.42	229.21
964.72	228.97
965.01	228.93
965.31	228.86
965.60	228.69
965.90	228.69
966.19	228.72
966.49	228.67
966.78	228.57
967.08	228.51
967.37	228.37
967.67	228.21
967.96	228.17
968.26	228.13
968.55	228.19
968.85	228.14
969.14	228.18
969.43	228.22
969.73	228.13
970.02	228.08
970.32	228.01
970.61	228.01
970.91	227.88
971.20	227.84
971.49	227.77
971.79	227.76
972.08	227.62
972.38	227.51
972.67	227.44
972.96	227.47
973.26	227.34
973.55	227.35
973.85	227.34
974.14	227.25
974.43	227.21
974.73	227.19
975.02	227.13
975.31	227.10
975.61	227.07
975.90	226.97
976.19	226.94
976.49	226.96
976.78	226.97
977.07	227.00
977.37	227.04
977.66	227.15
977.95	227.22
978.24	227.30
978.54	227.34
978.83	227.40
979.12	227.38
979.42	227.44
979.71	227.45
980.00	227.44
980.29	227.51
980.59	227.47
980.88	227.40
981.17	227.47
981.46	227.49
981.76	227.58
982.05	227.69
982.34	227.81
982.63	227.86
982.93	227.90
983.22	227.97
983.51	228.00
983.80	228.03
984.09	228.12
984.39	228.20
984.68	228.24
984.97	228.27
985.26	228.37
985.55	228.37
985.85	228.41
986.14	228.51
986.43	228.61
986.72	228.69
987.01	228.78
987.30	228.73
987.59	228.76
987.89	228.80
988.18	228.76
988.47	228.71
988.76	228.79
989.05	228.85
989.34	228.93
989.63	229.02
989.92	229.05
990.22	229.01
990.51	228.99
990.80	228.99
991.09	228.92
991.38	228.94
991.67	228.93
991.96	228.96
992.25	228.99
992.54	228.90
992.83	228.84
993.12	228.80
993.41	228.91
993.70	229.01
993.99	229.01
994.28	229.09
994.58	229.10
994.87	229.09
995.16	229.09
995.45	228.95
995.74	228.81
996.03	228.84
996.32	228.81
996.61	228.82
996.90	228.82
997.19	228.83
997.48	228.81
997.77	228.80
998.06	228.80
998.34	228.85
998.63	228.81
998.92	228.86
999.21	228.87
999.50	228.80
999.79	228.72
1000.08	228.71
1000.37	228.64
1000.66	228.58
1000.95	228.50
1001.24	228.40
1001.53	228.53
1001.82	228.55
1002.11	228.40
1002.40	228.39
1002.68	228.36
1002.97	228.43
1003.26	228.50
1003.55	228.37
1003.84	228.39
1004.13	228.40
1004.42	228.27
1004.71	228.23
1004.99	228.23
1005.28	228.25
1005.57	228.16
1005.86	228.10
1006.15	228.00
1006.44	227.98
1006.72	228.04
1007.01	227.96
1007.30	227.91
1007.59	227.84
1007.88	227.77
1008.17	227.83
1008.45	227.86
1008.74	227.72
1009.03	227.70
1009.32	227.70
1009.60	227.79
1009.89	227.67
1010.18	227.50
1010.47	227.47
1010.76	227.36
1011.04	227.21
1011.33	227.20
1011.62	227.30
1011.91	227.41
1012.19	227.43
1012.48	227.43
1012.77	227.43
1013.05	227.59
1013.34	227.70
1013.63	227.62
1013.92	227.68
1014.20	227.67
1014.49	227.67
1014.78	227.70
1015.06	227.60
1015.35	227.50
1015.64	227.45
1015.92	227.59
1016.21	227.66
1016.50	227.73
1016.78	227.89
1017.07	227.92
1017.36	227.89
1017.64	227.80
1017.93	227.78
1018.22	227.90
1018.50	227.87
1018.79	227.96
1019.08	227.85
1019.36	227.81
1019.65	227.86
1019.93	227.96
1020.22	227.97
1020.51	228.07
1020.79	228.20
1021.08	229.30
1021.36	227.30
1021.65	229.50
1021.94	227.40
1022.22	227.80
1022.51	228.00
1022.79	229.80
1023.08	228.00
1023.36	231.20
1023.65	229.40
>>>>>End Processed Spectral Data<<<<<
