SpectraSuite Data File
++++++++++++++++++++++++++++++++++++
Date: Fri Feb 01 14:34:11 EST 2013
User: group
Dark Spectrum Present: No
Reference Spectrum Present: No
Number of Sampled Component Spectra: 1
Spectrometers: USB2E7196
Integration Time (usec): 70000 (USB2E7196)
Spectra Averaged: 10 (USB2E7196)
Boxcar Smoothing: 10 (USB2E7196)
Correct for Electrical Dark: No (USB2E7196)
Strobe/Lamp Enabled: No (USB2E7196)
Correct for Detector Non-linearity: No (USB2E7196)
Correct for Stray Light: No (USB2E7196)
Number of Pixels in Processed Spectrum: 2048
>>>>>Begin Processed Spectral Data<<<<<
339.09	0.00
339.48	215.50
339.86	219.50
340.24	220.30
340.63	222.00
341.01	226.40
341.39	224.20
341.78	225.00
342.16	226.20
342.54	226.40
342.93	214.83
343.31	225.66
343.69	226.19
344.07	226.50
344.46	226.84
344.84	227.15
345.22	227.26
345.60	227.50
345.99	227.65
346.37	227.69
346.75	227.79
347.13	227.87
347.52	227.93
347.90	228.06
348.28	228.03
348.66	228.13
349.05	228.11
349.43	228.30
349.81	228.44
350.19	228.43
350.57	228.47
350.96	228.52
351.34	228.62
351.72	228.69
352.10	228.83
352.48	228.95
352.87	228.99
353.25	229.08
353.63	229.14
354.01	229.19
354.39	229.30
354.77	229.38
355.15	229.46
355.54	229.40
355.92	229.31
356.30	229.40
356.68	229.55
357.06	229.65
357.44	229.59
357.82	229.69
358.20	229.90
358.58	229.93
358.97	229.97
359.35	230.08
359.73	230.24
360.11	230.30
360.49	230.29
360.87	230.31
361.25	230.34
361.63	230.44
362.01	230.53
362.39	230.64
362.77	230.66
363.15	230.68
363.53	230.68
363.91	230.76
364.29	230.78
364.67	230.70
365.05	230.69
365.43	230.72
365.81	230.71
366.19	230.78
366.57	230.79
366.95	230.82
367.33	230.79
367.71	230.87
368.09	230.95
368.47	230.95
368.85	230.86
369.23	230.80
369.61	230.65
369.99	230.62
370.37	230.49
370.75	230.52
371.13	230.57
371.51	230.58
371.89	230.46
372.27	230.42
372.65	230.36
373.03	230.37
373.41	230.30
373.78	230.18
374.16	230.00
374.54	229.96
374.92	229.85
375.30	229.75
375.68	229.55
376.06	229.44
376.44	229.32
376.82	229.36
377.19	229.31
377.57	229.24
377.95	229.07
378.33	229.06
378.71	228.87
379.09	228.73
379.47	228.70
379.84	228.63
380.22	228.53
380.60	228.43
380.98	228.30
381.36	228.17
381.73	228.06
382.11	228.06
382.49	228.06
382.87	228.07
383.25	228.03
383.62	228.18
384.00	228.11
384.38	228.17
384.76	228.08
385.13	228.12
385.51	228.00
385.89	228.00
386.27	228.04
386.64	227.98
387.02	227.87
387.40	227.87
387.78	227.77
388.15	227.78
388.53	227.68
388.91	227.71
389.29	227.71
389.66	227.82
390.04	227.73
390.42	227.71
390.79	227.56
391.17	227.51
391.55	227.30
391.92	227.22
392.30	227.19
392.68	227.29
393.05	227.28
393.43	227.33
393.81	227.37
394.18	227.31
394.56	227.45
394.94	227.57
395.31	227.50
395.69	227.67
396.06	227.74
396.44	227.88
396.82	227.87
397.19	228.07
397.57	228.05
397.95	228.20
398.32	228.19
398.70	228.39
399.07	228.57
399.45	228.65
399.82	228.73
400.20	228.81
400.58	229.00
400.95	229.17
401.33	229.34
401.70	229.69
402.08	229.88
402.45	230.00
402.83	230.21
403.20	230.45
403.58	230.72
403.95	230.97
404.33	231.24
404.71	231.50
405.08	231.89
405.46	232.23
405.83	232.56
406.21	232.96
406.58	233.34
406.96	233.69
407.33	234.20
407.70	234.80
408.08	235.58
408.45	236.03
408.83	236.66
409.20	237.30
409.58	237.86
409.95	238.67
410.33	239.56
410.70	240.36
411.08	241.26
411.45	242.11
411.82	243.01
412.20	244.11
412.57	245.39
412.95	246.45
413.32	247.83
413.69	249.31
414.07	250.75
414.44	252.27
414.82	253.84
415.19	255.68
415.56	257.43
415.94	259.25
416.31	261.36
416.68	263.45
417.06	265.93
417.43	268.16
417.81	270.73
418.18	273.31
418.55	276.13
418.93	279.18
419.30	282.40
419.67	285.69
420.04	289.04
420.42	292.54
420.79	296.54
421.16	300.64
421.54	304.76
421.91	309.10
422.28	313.66
422.66	318.42
423.03	322.98
423.40	327.86
423.77	333.05
424.15	338.32
424.52	343.76
424.89	349.70
425.26	355.41
425.64	360.76
426.01	366.72
426.38	373.03
426.75	379.20
427.13	385.66
427.50	392.60
427.87	399.82
428.24	407.03
428.61	413.71
428.99	421.10
429.36	429.26
429.73	437.12
430.10	445.12
430.47	453.20
430.85	461.28
431.22	470.25
431.59	479.32
431.96	488.32
432.33	498.21
432.70	507.43
433.08	518.56
433.45	529.12
433.82	539.68
434.19	551.19
434.56	562.61
434.93	573.41
435.30	584.10
435.68	596.02
436.05	607.77
436.42	619.64
436.79	629.94
437.16	641.37
437.53	653.47
437.90	665.44
438.27	677.15
438.64	689.56
439.01	700.57
439.38	710.97
439.75	720.58
440.13	731.79
440.50	742.67
440.87	751.72
441.24	761.13
441.61	771.35
441.98	779.10
442.35	787.99
442.72	797.14
443.09	806.23
443.46	811.72
443.83	815.74
444.20	819.40
444.57	824.77
444.94	827.70
445.31	830.77
445.68	833.70
446.05	835.99
446.42	836.36
446.79	836.37
447.16	836.20
447.53	836.66
447.90	833.68
448.27	830.69
448.64	825.58
449.01	822.36
449.37	815.60
449.74	809.15
450.11	801.10
450.48	792.24
450.85	783.01
451.22	775.60
451.59	768.48
451.96	761.72
452.33	752.10
452.70	743.54
453.07	732.99
453.43	722.31
453.80	711.88
454.17	701.58
454.54	692.18
454.91	681.46
455.28	671.25
455.65	661.70
456.02	651.58
456.38	643.24
456.75	632.62
457.12	623.78
457.49	615.07
457.86	606.66
458.23	599.51
458.59	591.49
458.96	583.19
459.33	575.70
459.70	568.30
460.07	562.54
460.43	555.46
460.80	548.78
461.17	542.94
461.54	536.86
461.91	531.23
462.27	525.53
462.64	520.97
463.01	515.40
463.38	510.00
463.74	505.07
464.11	500.67
464.48	496.76
464.85	492.43
465.21	489.01
465.58	485.44
465.95	481.05
466.32	477.60
466.68	474.10
467.05	470.72
467.42	467.02
467.78	463.07
468.15	459.47
468.52	456.90
468.88	453.31
469.25	449.98
469.62	447.47
469.98	444.49
470.35	441.72
470.72	439.20
471.08	436.45
471.45	434.21
471.82	431.77
472.18	428.97
472.55	427.15
472.92	424.98
473.28	423.02
473.65	421.14
474.02	419.06
474.38	417.42
474.75	415.98
475.11	414.48
475.48	413.45
475.85	412.67
476.21	411.77
476.58	410.95
476.94	410.30
477.31	409.33
477.67	408.50
478.04	407.82
478.41	407.51
478.77	407.29
479.14	406.60
479.50	406.26
479.87	406.30
480.23	405.99
480.60	405.76
480.96	405.65
481.33	405.71
481.69	405.81
482.06	405.80
482.42	405.89
482.79	406.07
483.15	406.39
483.52	406.99
483.88	407.43
484.25	408.04
484.61	408.74
484.98	409.59
485.34	410.82
485.71	412.04
486.07	413.05
486.44	414.11
486.80	415.67
487.17	417.16
487.53	418.80
487.90	420.68
488.26	422.69
488.62	424.65
488.99	426.70
489.35	428.76
489.72	430.97
490.08	433.41
490.44	436.05
490.81	438.77
491.17	441.18
491.54	444.11
491.90	446.94
492.26	449.99
492.63	452.98
492.99	456.01
493.36	459.09
493.72	462.65
494.08	466.24
494.45	469.84
494.81	473.55
495.17	477.40
495.54	481.31
495.90	485.00
496.26	489.18
496.63	493.38
496.99	497.87
497.35	502.62
497.72	507.15
498.08	511.57
498.44	516.02
498.80	521.10
499.17	525.84
499.53	530.60
499.89	535.46
500.26	540.70
500.62	545.55
500.98	550.83
501.34	556.06
501.71	561.40
502.07	566.50
502.43	571.91
502.79	577.23
503.16	582.50
503.52	588.14
503.88	593.20
504.24	598.44
504.60	603.82
504.97	608.99
505.33	614.30
505.69	620.15
506.05	625.75
506.41	630.81
506.78	636.10
507.14	641.35
507.50	646.86
507.86	652.07
508.22	657.48
508.59	662.55
508.95	667.64
509.31	672.67
509.67	678.11
510.03	683.11
510.39	688.18
510.75	693.30
511.12	698.04
511.48	703.08
511.84	708.16
512.20	712.75
512.56	717.50
512.92	722.13
513.28	726.22
513.64	730.42
514.00	734.90
514.37	739.13
514.73	743.53
515.09	747.44
515.45	751.35
515.81	755.20
516.17	759.07
516.53	762.84
516.89	766.57
517.25	769.83
517.61	773.39
517.97	776.89
518.33	780.10
518.69	783.27
519.05	786.55
519.41	789.73
519.77	793.24
520.13	796.65
520.49	799.99
520.85	803.11
521.21	805.96
521.57	809.14
521.93	811.71
522.29	814.56
522.65	817.40
523.01	819.87
523.37	822.46
523.73	825.16
524.09	827.43
524.45	829.98
524.81	832.57
525.17	835.37
525.53	838.04
525.89	840.65
526.25	843.57
526.61	845.73
526.97	848.09
527.33	850.48
527.68	852.76
528.04	854.74
528.40	857.02
528.76	859.88
529.12	862.20
529.48	865.09
529.84	867.42
530.20	869.73
530.56	872.63
530.91	875.59
531.27	878.12
531.63	880.83
531.99	883.33
532.35	885.85
532.71	887.85
533.07	890.16
533.42	892.63
533.78	894.89
534.14	897.67
534.50	899.77
534.86	902.05
535.21	904.16
535.57	906.66
535.93	909.23
536.29	911.23
536.65	913.43
537.00	915.29
537.36	917.60
537.72	919.96
538.08	922.37
538.44	924.50
538.79	926.75
539.15	928.85
539.51	931.32
539.87	933.92
540.22	936.67
540.58	939.38
540.94	941.54
541.29	943.76
541.65	946.28
542.01	949.17
542.37	951.69
542.72	954.03
543.08	956.43
543.44	959.24
543.79	961.35
544.15	963.97
544.51	967.16
544.87	970.20
545.22	973.01
545.58	975.39
545.94	977.81
546.29	980.18
546.65	982.78
547.01	984.91
547.36	986.99
547.72	989.01
548.07	990.85
548.43	993.26
548.79	995.58
549.14	997.40
549.50	999.33
549.86	1001.10
550.21	1003.36
550.57	1005.78
550.92	1007.67
551.28	1010.07
551.64	1011.83
551.99	1013.63
552.35	1015.30
552.70	1017.24
553.06	1019.18
553.41	1021.32
553.77	1023.78
554.13	1026.00
554.48	1028.10
554.84	1030.25
555.19	1032.27
555.55	1034.52
555.90	1036.17
556.26	1037.97
556.61	1040.14
556.97	1042.24
557.32	1044.23
557.68	1046.29
558.03	1048.12
558.39	1049.70
558.74	1051.97
559.10	1054.03
559.45	1055.78
559.81	1058.03
560.16	1059.79
560.52	1062.01
560.87	1063.79
561.23	1065.02
561.58	1066.78
561.94	1068.44
562.29	1069.86
562.64	1071.57
563.00	1072.80
563.35	1074.96
563.71	1077.26
564.06	1079.21
564.42	1080.70
564.77	1082.72
565.12	1084.40
565.48	1086.09
565.83	1087.59
566.19	1089.30
566.54	1090.56
566.89	1092.20
567.25	1093.24
567.60	1094.71
567.96	1095.51
568.31	1096.32
568.66	1097.55
569.02	1098.66
569.37	1099.44
569.72	1100.45
570.08	1101.06
570.43	1102.20
570.78	1102.63
571.14	1102.91
571.49	1103.02
571.84	1103.90
572.20	1103.99
572.55	1104.09
572.90	1103.78
573.26	1103.96
573.61	1103.64
573.96	1103.85
574.31	1103.25
574.67	1102.51
575.02	1101.79
575.37	1101.43
575.72	1100.70
576.08	1100.41
576.43	1099.45
576.78	1099.12
577.13	1098.66
577.49	1098.00
577.84	1096.87
578.19	1096.20
578.54	1095.08
578.90	1094.26
579.25	1092.44
579.60	1091.04
579.95	1089.77
580.30	1088.63
580.66	1087.23
581.01	1085.74
581.36	1084.16
581.71	1083.14
582.06	1082.04
582.42	1080.83
582.77	1079.15
583.12	1078.10
583.47	1076.50
583.82	1075.25
584.17	1073.45
584.53	1071.88
584.88	1070.64
585.23	1069.31
585.58	1067.56
585.93	1065.89
586.28	1064.57
586.63	1063.30
586.98	1062.18
587.34	1060.52
587.69	1059.01
588.04	1057.45
588.39	1055.82
588.74	1054.00
589.09	1051.86
589.44	1049.68
589.79	1047.54
590.14	1045.64
590.49	1043.50
590.84	1040.89
591.19	1038.75
591.54	1036.11
591.89	1033.39
592.25	1030.93
592.60	1028.26
592.95	1025.36
593.30	1022.76
593.65	1019.73
594.00	1016.79
594.35	1014.28
594.70	1011.30
595.05	1008.40
595.40	1005.48
595.75	1002.58
596.10	999.68
596.45	997.21
596.80	994.95
597.15	992.33
597.50	989.48
597.85	987.07
598.19	984.88
598.54	982.14
598.89	979.83
599.24	977.54
599.59	974.66
599.94	972.00
600.29	969.53
600.64	966.62
600.99	963.49
601.34	961.12
601.69	957.85
602.04	955.21
602.39	952.29
602.74	949.78
603.08	946.99
603.43	944.64
603.78	941.50
604.13	938.39
604.48	935.15
604.83	932.43
605.18	929.31
605.53	926.37
605.87	922.93
606.22	920.01
606.57	916.77
606.92	913.96
607.27	910.90
607.62	908.24
607.96	905.71
608.31	903.24
608.66	899.74
609.01	896.53
609.36	893.20
609.70	889.74
610.05	885.98
610.40	882.69
610.75	878.94
611.10	875.35
611.44	871.37
611.79	868.19
612.14	864.60
612.49	860.59
612.83	856.45
613.18	852.90
613.53	849.18
613.88	845.24
614.22	841.46
614.57	837.88
614.92	833.85
615.27	829.95
615.61	825.99
615.96	822.32
616.31	818.70
616.65	815.46
617.00	812.17
617.35	808.84
617.70	805.25
618.04	801.40
618.39	798.23
618.74	795.12
619.08	791.72
619.43	788.25
619.78	785.16
620.12	781.84
620.47	778.29
620.82	774.91
621.16	771.73
621.51	768.11
621.85	764.63
622.20	761.25
622.55	757.97
622.89	754.53
623.24	751.46
623.59	748.19
623.93	744.83
624.28	741.68
624.62	738.53
624.97	735.19
625.32	732.38
625.66	728.94
626.01	725.76
626.35	722.48
626.70	719.29
627.04	716.12
627.39	712.98
627.73	710.05
628.08	706.76
628.43	703.47
628.77	700.40
629.12	697.20
629.46	694.08
629.81	690.60
630.15	687.40
630.50	684.12
630.84	680.73
631.19	677.31
631.53	673.97
631.88	670.41
632.22	667.05
632.57	663.89
632.91	660.60
633.26	657.25
633.60	653.94
633.95	650.84
634.29	647.79
634.64	644.80
634.98	641.77
635.32	638.89
635.67	636.30
636.01	633.59
636.36	630.66
636.70	627.81
637.05	625.25
637.39	622.62
637.73	619.88
638.08	617.53
638.42	615.07
638.77	612.37
639.11	609.78
639.45	607.15
639.80	604.19
640.14	601.52
640.49	598.99
640.83	596.41
641.17	593.80
641.52	591.10
641.86	588.49
642.20	585.89
642.55	583.22
642.89	580.46
643.23	577.68
643.58	575.37
643.92	572.54
644.26	569.84
644.61	567.38
644.95	564.81
645.29	561.88
645.64	558.99
645.98	556.33
646.32	554.09
646.66	551.60
647.01	549.11
647.35	546.81
647.69	544.30
648.04	541.92
648.38	539.24
648.72	536.56
649.06	533.83
649.41	531.12
649.75	528.56
650.09	526.14
650.43	523.48
650.78	520.58
651.12	518.10
651.46	515.60
651.80	513.07
652.14	510.66
652.49	508.27
652.83	506.10
653.17	503.59
653.51	500.77
653.85	498.33
654.20	495.96
654.54	493.35
654.88	490.78
655.22	487.84
655.56	485.41
655.90	483.04
656.25	480.73
656.59	478.49
656.93	476.17
657.27	473.67
657.61	471.19
657.95	469.00
658.29	466.83
658.64	464.50
658.98	462.00
659.32	459.53
659.66	457.32
660.00	454.89
660.34	452.58
660.68	450.38
661.02	448.05
661.36	445.83
661.70	443.84
662.05	441.82
662.39	440.26
662.73	438.19
663.07	436.26
663.41	434.35
663.75	432.40
664.09	430.35
664.43	428.35
664.77	426.67
665.11	424.82
665.45	422.90
665.79	420.98
666.13	419.28
666.47	417.53
666.81	415.71
667.15	413.93
667.49	412.37
667.83	410.83
668.17	409.20
668.51	407.42
668.85	405.60
669.19	404.11
669.53	402.29
669.87	400.70
670.21	398.93
670.55	397.28
670.89	395.88
671.23	394.43
671.57	393.00
671.91	391.51
672.25	389.93
672.58	388.39
672.92	386.95
673.26	385.49
673.60	384.23
673.94	382.82
674.28	381.51
674.62	380.30
674.96	378.88
675.30	377.70
675.64	376.37
675.97	375.11
676.31	373.65
676.65	372.31
676.99	371.08
677.33	369.86
677.67	368.66
678.01	367.24
678.34	365.97
678.68	364.74
679.02	363.48
679.36	362.26
679.70	361.21
680.04	360.11
680.37	358.81
680.71	357.41
681.05	356.28
681.39	355.16
681.73	353.87
682.06	352.83
682.40	351.64
682.74	350.58
683.08	349.50
683.42	348.37
683.75	347.18
684.09	346.11
684.43	345.01
684.77	343.83
685.10	342.78
685.44	341.74
685.78	340.59
686.12	339.50
686.45	338.40
686.79	337.19
687.13	336.10
687.46	335.02
687.80	334.01
688.14	332.94
688.48	331.82
688.81	330.70
689.15	329.64
689.49	328.46
689.82	327.46
690.16	326.36
690.50	325.45
690.83	324.58
691.17	323.45
691.51	322.51
691.84	321.64
692.18	320.70
692.52	319.59
692.85	318.63
693.19	317.79
693.52	316.91
693.86	315.95
694.20	315.01
694.53	314.00
694.87	313.03
695.21	312.08
695.54	311.08
695.88	310.09
696.21	309.01
696.55	308.22
696.88	307.26
697.22	306.31
697.56	305.49
697.89	304.62
698.23	303.78
698.56	302.86
698.90	301.90
699.23	300.89
699.57	300.10
699.90	299.24
700.24	298.36
700.58	297.42
700.91	296.76
701.25	295.99
701.58	295.47
701.92	294.78
702.25	294.00
702.59	293.32
702.92	292.65
703.26	292.00
703.59	291.26
703.93	290.71
704.26	290.10
704.60	289.29
704.93	288.55
705.26	287.81
705.60	287.37
705.93	286.80
706.27	286.25
706.60	285.66
706.94	285.08
707.27	284.33
707.61	283.80
707.94	283.15
708.27	282.60
708.61	281.93
708.94	281.30
709.28	280.69
709.61	280.18
709.94	279.71
710.28	279.14
710.61	278.68
710.95	278.01
711.28	277.66
711.61	277.18
711.95	276.70
712.28	276.17
712.61	275.39
712.95	274.85
713.28	274.42
713.61	273.89
713.95	273.34
714.28	273.01
714.61	272.53
714.95	272.05
715.28	271.46
715.61	270.92
715.95	270.60
716.28	270.20
716.61	269.64
716.95	269.19
717.28	268.82
717.61	268.39
717.94	267.99
718.28	267.34
718.61	266.90
718.94	266.46
719.27	266.27
719.61	266.10
719.94	265.81
720.27	265.38
720.60	265.03
720.94	264.65
721.27	264.25
721.60	263.99
721.93	263.66
722.27	263.48
722.60	263.20
722.93	262.83
723.26	262.59
723.59	262.30
723.93	262.01
724.26	261.63
724.59	261.17
724.92	260.91
725.25	260.64
725.59	260.40
725.92	260.14
726.25	259.83
726.58	259.46
726.91	259.19
727.24	258.87
727.57	258.63
727.91	258.45
728.24	258.18
728.57	257.77
728.90	257.50
729.23	257.00
729.56	256.78
729.89	256.44
730.22	256.07
730.55	255.87
730.89	255.50
731.22	255.26
731.55	255.11
731.88	254.78
732.21	254.49
732.54	254.17
732.87	253.99
733.20	253.69
733.53	253.39
733.86	253.14
734.19	252.82
734.52	252.51
734.85	252.33
735.18	251.99
735.51	251.79
735.84	251.51
736.17	251.52
736.50	251.18
736.83	251.14
737.16	250.88
737.49	250.50
737.82	250.23
738.15	249.97
738.48	249.70
738.81	249.32
739.14	249.16
739.47	248.98
739.80	248.63
740.13	248.39
740.46	248.20
740.79	247.87
741.12	247.69
741.45	247.47
741.78	247.23
742.11	247.26
742.44	247.19
742.77	246.95
743.10	246.56
743.43	246.37
743.75	246.01
744.08	246.09
744.41	246.02
744.74	245.88
745.07	245.63
745.40	245.47
745.73	245.45
746.06	245.21
746.39	245.07
746.71	244.87
747.04	244.56
747.37	244.30
747.70	244.09
748.03	243.92
748.36	243.78
748.68	243.54
749.01	243.25
749.34	242.95
749.67	242.80
750.00	242.83
750.33	242.72
750.65	242.48
750.98	242.14
751.31	242.00
751.64	241.88
751.97	241.90
752.29	241.68
752.62	241.48
752.95	241.38
753.28	241.13
753.60	241.12
753.93	241.13
754.26	241.07
754.59	241.00
754.91	240.83
755.24	240.73
755.57	240.56
755.90	240.40
756.22	240.33
756.55	240.30
756.88	240.04
757.20	239.97
757.53	239.86
757.86	239.81
758.19	239.70
758.51	239.55
758.84	239.38
759.17	239.25
759.49	239.20
759.82	239.16
760.15	239.13
760.47	238.88
760.80	238.80
761.13	238.68
761.45	238.53
761.78	238.55
762.11	238.47
762.43	238.44
762.76	238.33
763.08	238.26
763.41	238.15
763.74	238.16
764.06	238.00
764.39	237.98
764.71	237.80
765.04	237.69
765.37	237.74
765.69	237.72
766.02	237.73
766.34	237.65
766.67	237.50
767.00	237.34
767.32	237.44
767.65	237.49
767.97	237.48
768.30	237.44
768.62	237.35
768.95	237.24
769.27	237.13
769.60	237.07
769.92	236.90
770.25	236.64
770.57	236.50
770.90	236.43
771.22	236.31
771.55	236.24
771.87	236.23
772.20	236.05
772.52	236.01
772.85	236.08
773.17	236.07
773.50	235.97
773.82	235.93
774.15	235.77
774.47	235.45
774.80	235.26
775.12	235.18
775.45	235.05
775.77	235.00
776.09	234.95
776.42	234.86
776.74	234.94
777.07	234.91
777.39	234.73
777.72	234.65
778.04	234.56
778.36	234.50
778.69	234.35
779.01	234.36
779.33	234.11
779.66	233.93
779.98	233.79
780.31	233.79
780.63	233.70
780.95	233.66
781.28	233.65
781.60	233.59
781.92	233.51
782.25	233.39
782.57	233.29
782.89	233.21
783.22	233.19
783.54	232.95
783.86	233.04
784.19	233.03
784.51	232.96
784.83	232.90
785.16	232.82
785.48	232.72
785.80	232.60
786.12	232.69
786.45	232.58
786.77	232.51
787.09	232.48
787.42	232.53
787.74	232.50
788.06	232.50
788.38	232.53
788.71	232.52
789.03	232.54
789.35	232.58
789.67	232.39
789.99	232.26
790.32	232.33
790.64	232.28
790.96	232.38
791.28	232.33
791.61	232.28
791.93	232.18
792.25	232.13
792.57	232.26
792.89	232.13
793.21	232.26
793.54	232.27
793.86	232.17
794.18	232.09
794.50	232.03
794.82	232.05
795.14	232.03
795.47	231.96
795.79	231.93
796.11	231.81
796.43	231.97
796.75	232.07
797.07	231.96
797.39	231.90
797.71	231.77
798.04	231.79
798.36	231.84
798.68	231.97
799.00	232.02
799.32	231.89
799.64	231.91
799.96	231.66
800.28	231.55
800.60	231.50
800.92	231.50
801.24	231.52
801.56	231.45
801.89	231.37
802.21	231.44
802.53	231.43
802.85	231.45
803.17	231.41
803.49	231.36
803.81	231.41
804.13	231.40
804.45	231.36
804.77	231.30
805.09	231.25
805.41	231.08
805.73	230.92
806.05	230.87
806.37	230.84
806.69	230.87
807.01	230.85
807.33	230.82
807.65	230.73
807.97	230.67
808.28	230.50
808.60	230.56
808.92	230.46
809.24	230.60
809.56	230.53
809.88	230.45
810.20	230.38
810.52	230.33
810.84	230.17
811.16	230.13
811.48	230.04
811.80	230.04
812.12	230.03
812.43	230.12
812.75	230.22
813.07	230.15
813.39	230.21
813.71	230.20
814.03	230.24
814.35	230.24
814.67	230.16
814.98	230.19
815.30	230.18
815.62	230.03
815.94	229.84
816.26	229.91
816.58	229.90
816.89	229.92
817.21	229.82
817.53	229.81
817.85	229.82
818.17	229.81
818.48	229.72
818.80	229.78
819.12	229.76
819.44	229.47
819.76	229.39
820.07	229.25
820.39	229.14
820.71	229.11
821.03	229.16
821.34	229.18
821.66	229.24
821.98	229.12
822.30	229.20
822.61	229.25
822.93	229.08
823.25	229.05
823.57	228.89
823.88	228.96
824.20	229.00
824.52	228.91
824.83	228.91
825.15	228.94
825.47	228.86
825.79	228.90
826.10	229.00
826.42	228.99
826.74	229.07
827.05	229.14
827.37	229.10
827.69	229.03
828.00	229.04
828.32	228.97
828.64	228.92
828.95	229.08
829.27	229.01
829.58	229.04
829.90	229.12
830.22	229.28
830.53	229.13
830.85	229.17
831.17	229.22
831.48	229.23
831.80	229.17
832.11	229.29
832.43	229.10
832.75	229.12
833.06	229.25
833.38	229.21
833.69	229.18
834.01	229.30
834.32	229.32
834.64	229.16
834.96	229.15
835.27	229.23
835.59	229.20
835.90	229.27
836.22	229.40
836.53	229.27
836.85	229.18
837.16	229.49
837.48	229.43
837.79	229.46
838.11	229.51
838.42	229.66
838.74	229.67
839.05	229.83
839.37	229.84
839.68	229.81
840.00	229.80
840.31	229.93
840.63	229.86
840.94	229.81
841.26	229.90
841.57	230.00
841.88	230.15
842.20	230.13
842.51	230.10
842.83	230.07
843.14	230.37
843.46	230.44
843.77	230.40
844.08	230.50
844.40	230.50
844.71	230.44
845.03	230.30
845.34	230.28
845.65	230.26
845.97	230.32
846.28	230.28
846.60	230.35
846.91	230.27
847.22	230.21
847.54	230.31
847.85	230.38
848.16	230.22
848.48	230.09
848.79	230.06
849.10	230.07
849.42	230.00
849.73	229.77
850.04	229.72
850.36	229.58
850.67	229.61
850.98	229.58
851.30	229.65
851.61	229.60
851.92	229.51
852.23	229.53
852.55	229.45
852.86	229.39
853.17	229.28
853.49	229.22
853.80	229.26
854.11	229.17
854.42	229.18
854.74	229.20
855.05	229.12
855.36	228.97
855.67	228.96
855.99	229.00
856.30	229.21
856.61	229.16
856.92	229.03
857.23	228.96
857.55	228.96
857.86	228.91
858.17	229.04
858.48	229.06
858.79	228.99
859.11	229.00
859.42	228.98
859.73	228.93
860.04	228.99
860.35	228.86
860.66	228.86
860.98	228.81
861.29	228.86
861.60	228.90
861.91	228.93
862.22	228.90
862.53	228.78
862.84	228.45
863.16	228.54
863.47	228.57
863.78	228.52
864.09	228.50
864.40	228.53
864.71	228.49
865.02	228.50
865.33	228.50
865.64	228.42
865.95	228.41
866.27	228.61
866.58	228.59
866.89	228.75
867.20	228.70
867.51	228.64
867.82	228.58
868.13	228.53
868.44	228.51
868.75	228.57
869.06	228.56
869.37	228.70
869.68	228.54
869.99	228.63
870.30	228.61
870.61	228.65
870.92	228.62
871.23	228.69
871.54	228.66
871.85	228.68
872.16	228.79
872.47	228.91
872.78	228.80
873.09	228.79
873.40	228.70
873.71	228.65
874.02	228.71
874.33	228.75
874.64	228.73
874.95	228.78
875.26	228.79
875.56	228.75
875.87	228.69
876.18	228.72
876.49	228.90
876.80	228.99
877.11	229.02
877.42	229.03
877.73	228.86
878.04	228.95
878.35	228.91
878.66	228.85
878.96	228.76
879.27	228.80
879.58	228.77
879.89	228.83
880.20	229.03
880.51	229.06
880.82	229.01
881.12	229.11
881.43	229.13
881.74	229.03
882.05	229.09
882.36	229.17
882.67	229.14
882.97	228.84
883.28	228.79
883.59	228.73
883.90	228.77
884.21	228.86
884.51	228.75
884.82	228.76
885.13	228.74
885.44	228.72
885.74	228.67
886.05	228.72
886.36	228.72
886.67	228.51
886.98	228.54
887.28	228.66
887.59	228.74
887.90	228.67
888.20	228.65
888.51	228.73
888.82	228.62
889.13	228.63
889.43	228.95
889.74	228.97
890.05	228.99
890.35	228.95
890.66	228.82
890.97	228.90
891.28	228.86
891.58	228.88
891.89	228.94
892.20	228.88
892.50	228.80
892.81	228.75
893.12	228.83
893.42	228.80
893.73	228.68
894.04	228.58
894.34	228.61
894.65	228.69
894.95	228.59
895.26	228.61
895.57	228.81
895.87	228.57
896.18	228.59
896.48	228.50
896.79	228.46
897.10	228.50
897.40	228.37
897.71	228.33
898.01	228.26
898.32	228.18
898.63	228.21
898.93	228.27
899.24	228.25
899.54	228.12
899.85	228.03
900.15	228.13
900.46	228.07
900.76	228.05
901.07	228.02
901.38	228.00
901.68	228.00
901.99	227.86
902.29	227.87
902.60	227.85
902.90	227.87
903.21	227.80
903.51	227.84
903.82	227.92
904.12	228.05
904.43	228.00
904.73	228.07
905.03	228.01
905.34	228.15
905.64	228.20
905.95	228.26
906.25	228.27
906.56	228.19
906.86	228.24
907.17	228.21
907.47	228.14
907.77	228.11
908.08	228.18
908.38	228.20
908.69	228.15
908.99	228.17
909.30	228.20
909.60	228.30
909.90	228.23
910.21	228.19
910.51	228.06
910.81	228.17
911.12	228.19
911.42	228.16
911.73	228.06
912.03	227.94
912.33	228.00
912.64	227.95
912.94	227.93
913.24	228.00
913.55	228.06
913.85	228.10
914.15	228.19
914.46	228.20
914.76	228.14
915.06	228.22
915.37	228.19
915.67	228.21
915.97	228.26
916.27	228.23
916.58	228.36
916.88	228.38
917.18	228.42
917.49	228.53
917.79	228.66
918.09	228.68
918.39	228.79
918.70	228.80
919.00	228.88
919.30	228.97
919.60	228.87
919.91	228.88
920.21	228.84
920.51	228.82
920.81	228.83
921.12	228.91
921.42	228.87
921.72	228.85
922.02	228.80
922.32	228.75
922.63	228.87
922.93	228.89
923.23	228.91
923.53	228.86
923.83	228.67
924.13	228.68
924.44	228.71
924.74	228.82
925.04	228.87
925.34	228.92
925.64	228.83
925.94	228.89
926.24	228.93
926.55	228.90
926.85	228.85
927.15	228.76
927.45	228.77
927.75	228.87
928.05	228.90
928.35	228.99
928.65	229.06
928.95	229.03
929.26	228.92
929.56	228.95
929.86	228.94
930.16	228.93
930.46	228.88
930.76	228.75
931.06	228.63
931.36	228.45
931.66	228.40
931.96	228.43
932.26	228.35
932.56	228.23
932.86	228.29
933.16	228.30
933.46	228.32
933.76	228.17
934.06	228.13
934.36	228.20
934.66	228.00
934.96	227.83
935.26	227.74
935.56	227.83
935.86	227.72
936.16	227.65
936.46	227.69
936.76	227.67
937.06	227.69
937.36	227.69
937.66	227.81
937.96	227.80
938.26	227.82
938.56	227.75
938.86	227.82
939.16	227.78
939.46	227.74
939.76	227.72
940.06	227.78
940.35	227.69
940.65	227.59
940.95	227.70
941.25	227.69
941.55	227.74
941.85	227.67
942.15	227.68
942.45	227.76
942.75	227.73
943.04	227.81
943.34	227.80
943.64	227.71
943.94	227.62
944.24	227.67
944.54	227.68
944.84	227.74
945.13	227.78
945.43	227.85
945.73	228.00
946.03	228.03
946.33	228.07
946.62	228.14
946.92	228.15
947.22	228.10
947.52	228.17
947.82	228.16
948.11	228.13
948.41	228.18
948.71	228.14
949.01	228.24
949.31	228.10
949.60	228.15
949.90	228.23
950.20	228.32
950.50	228.29
950.79	228.26
951.09	228.26
951.39	228.14
951.69	228.13
951.98	228.14
952.28	228.17
952.58	228.05
952.87	228.01
953.17	228.09
953.47	228.13
953.76	228.20
954.06	228.23
954.36	228.27
954.66	228.32
954.95	228.43
955.25	228.44
955.55	228.52
955.84	228.39
956.14	228.45
956.44	228.46
956.73	228.46
957.03	228.48
957.32	228.53
957.62	228.62
957.92	228.69
958.21	228.58
958.51	228.75
958.81	228.91
959.10	229.01
959.40	228.95
959.69	228.95
959.99	228.88
960.29	228.83
960.58	228.77
960.88	228.88
961.17	228.87
961.47	228.81
961.76	228.83
962.06	228.91
962.36	228.82
962.65	228.82
962.95	228.81
963.24	228.80
963.54	228.76
963.83	228.75
964.13	228.67
964.42	228.71
964.72	228.54
965.01	228.53
965.31	228.51
965.60	228.48
965.90	228.65
966.19	228.66
966.49	228.83
966.78	228.88
967.08	228.81
967.37	228.75
967.67	228.66
967.96	228.68
968.26	228.78
968.55	228.84
968.85	228.84
969.14	228.82
969.43	228.86
969.73	228.86
970.02	228.90
970.32	228.96
970.61	228.81
970.91	228.75
971.20	228.70
971.49	228.59
971.79	228.60
972.08	228.37
972.38	228.39
972.67	228.21
972.96	228.22
973.26	228.17
973.55	228.28
973.85	228.30
974.14	228.27
974.43	228.22
974.73	228.16
975.02	228.17
975.31	228.24
975.61	228.14
975.90	228.14
976.19	228.11
976.49	228.12
976.78	228.19
977.07	228.16
977.37	228.14
977.66	228.17
977.95	228.24
978.24	228.30
978.54	228.31
978.83	228.32
979.12	228.22
979.42	228.21
979.71	228.19
980.00	228.23
980.29	228.24
980.59	228.18
980.88	228.31
981.17	228.32
981.46	228.24
981.76	228.24
982.05	228.27
982.34	228.26
982.63	228.14
982.93	228.14
983.22	228.31
983.51	228.39
983.80	228.40
984.09	228.40
984.39	228.43
984.68	228.40
984.97	228.50
985.26	228.56
985.55	228.59
985.85	228.45
986.14	228.46
986.43	228.50
986.72	228.57
987.01	228.49
987.30	228.48
987.59	228.58
987.89	228.69
988.18	228.65
988.47	228.61
988.76	228.62
989.05	228.66
989.34	228.62
989.63	228.68
989.92	228.71
990.22	228.63
990.51	228.61
990.80	228.63
991.09	228.61
991.38	228.66
991.67	228.72
991.96	228.79
992.25	228.82
992.54	228.78
992.83	228.70
993.12	228.68
993.41	228.69
993.70	228.73
993.99	228.64
994.28	228.68
994.58	228.71
994.87	228.74
995.16	228.85
995.45	228.76
995.74	228.57
996.03	228.57
996.32	228.61
996.61	228.67
996.90	228.68
997.19	228.66
997.48	228.68
997.77	228.61
998.06	228.51
998.34	228.47
998.63	228.46
998.92	228.37
999.21	228.31
999.50	228.22
999.79	228.11
1000.08	228.16
1000.37	228.12
1000.66	228.11
1000.95	228.13
1001.24	228.02
1001.53	228.07
1001.82	228.14
1002.11	228.09
1002.40	228.07
1002.68	228.07
1002.97	228.10
1003.26	228.00
1003.55	227.97
1003.84	227.87
1004.13	227.96
1004.42	227.91
1004.71	227.90
1004.99	227.94
1005.28	228.05
1005.57	228.10
1005.86	228.10
1006.15	228.15
1006.44	228.18
1006.72	228.15
1007.01	228.05
1007.30	228.08
1007.59	228.05
1007.88	228.04
1008.17	228.03
1008.45	227.97
1008.74	227.89
1009.03	227.82
1009.32	227.80
1009.60	227.75
1009.89	227.73
1010.18	227.64
1010.47	227.69
1010.76	227.66
1011.04	227.66
1011.33	227.59
1011.62	227.49
1011.91	227.42
1012.19	227.32
1012.48	227.23
1012.77	227.30
1013.05	227.40
1013.34	227.33
1013.63	227.22
1013.92	227.15
1014.20	227.16
1014.49	227.19
1014.78	227.25
1015.06	227.24
1015.35	227.26
1015.64	227.37
1015.92	227.37
1016.21	227.50
1016.50	227.46
1016.78	227.50
1017.07	227.63
1017.36	227.62
1017.64	227.66
1017.93	227.68
1018.22	227.69
1018.50	227.75
1018.79	227.65
1019.08	227.60
1019.36	227.60
1019.65	227.64
1019.93	227.68
1020.22	227.68
1020.51	227.80
1020.79	227.69
1021.08	227.70
1021.36	227.80
1021.65	226.70
1021.94	227.80
1022.22	226.80
1022.51	227.10
1022.79	227.40
1023.08	227.30
1023.36	231.00
1023.65	226.40
>>>>>End Processed Spectral Data<<<<<
