SpectraSuite Data File
++++++++++++++++++++++++++++++++++++
Date: Fri Feb 01 14:36:10 EST 2013
User: group
Dark Spectrum Present: No
Reference Spectrum Present: No
Number of Sampled Component Spectra: 1
Spectrometers: USB2E7196
Integration Time (usec): 70000 (USB2E7196)
Spectra Averaged: 10 (USB2E7196)
Boxcar Smoothing: 10 (USB2E7196)
Correct for Electrical Dark: No (USB2E7196)
Strobe/Lamp Enabled: No (USB2E7196)
Correct for Detector Non-linearity: No (USB2E7196)
Correct for Stray Light: No (USB2E7196)
Number of Pixels in Processed Spectrum: 2048
>>>>>Begin Processed Spectral Data<<<<<
339.09	0.00
339.48	216.70
339.86	218.40
340.24	216.70
340.63	221.60
341.01	225.10
341.39	224.90
341.78	227.00
342.16	226.60
342.54	226.00
342.93	215.30
343.31	226.15
343.69	226.65
344.07	227.13
344.46	227.73
344.84	228.06
345.22	228.18
345.60	228.33
345.99	228.38
346.37	228.50
346.75	228.63
347.13	228.52
347.52	228.54
347.90	228.48
348.28	228.55
348.66	228.55
349.05	228.53
349.43	228.40
349.81	228.44
350.19	228.35
350.57	228.33
350.96	228.26
351.34	228.29
351.72	228.29
352.10	228.30
352.48	228.33
352.87	228.36
353.25	228.39
353.63	228.46
354.01	228.47
354.39	228.48
354.77	228.43
355.15	228.63
355.54	228.64
355.92	228.67
356.30	228.63
356.68	228.70
357.06	228.71
357.44	228.78
357.82	228.85
358.20	228.93
358.58	229.05
358.97	229.10
359.35	229.30
359.73	229.52
360.11	229.50
360.49	229.50
360.87	229.53
361.25	229.66
361.63	229.74
362.01	229.87
362.39	229.91
362.77	230.03
363.15	230.01
363.53	230.13
363.91	230.21
364.29	230.30
364.67	230.26
365.05	230.33
365.43	230.40
365.81	230.35
366.19	230.52
366.57	230.57
366.95	230.63
367.33	230.46
367.71	230.41
368.09	230.48
368.47	230.35
368.85	230.26
369.23	230.20
369.61	230.18
369.99	230.16
370.37	230.15
370.75	230.23
371.13	230.17
371.51	230.14
371.89	230.00
372.27	229.86
372.65	229.89
373.03	229.85
373.41	229.81
373.78	229.77
374.16	229.52
374.54	229.42
374.92	229.30
375.30	229.31
375.68	229.12
376.06	229.06
376.44	229.07
376.82	229.06
377.19	229.04
377.57	228.85
377.95	228.76
378.33	228.73
378.71	228.50
379.09	228.51
379.47	228.36
379.84	228.30
380.22	228.29
380.60	228.18
380.98	228.09
381.36	227.99
381.73	227.81
382.11	227.77
382.49	227.74
382.87	227.66
383.25	227.43
383.62	227.67
384.00	227.57
384.38	227.50
384.76	227.49
385.13	227.45
385.51	227.38
385.89	227.30
386.27	227.15
386.64	227.20
387.02	227.15
387.40	227.14
387.78	227.11
388.15	227.02
388.53	226.98
388.91	226.90
389.29	226.87
389.66	226.92
390.04	226.85
390.42	226.90
390.79	226.84
391.17	226.97
391.55	226.76
391.92	226.77
392.30	226.86
392.68	226.76
393.05	226.76
393.43	226.78
393.81	226.80
394.18	226.79
394.56	226.73
394.94	226.75
395.31	226.75
395.69	226.80
396.06	226.89
396.44	226.89
396.82	226.97
397.19	227.13
397.57	227.21
397.95	227.35
398.32	227.20
398.70	227.27
399.07	227.30
399.45	227.38
399.82	227.47
400.20	227.45
400.58	227.57
400.95	227.59
401.33	227.81
401.70	228.01
402.08	228.12
402.45	228.28
402.83	228.35
403.20	228.58
403.58	228.75
403.95	228.93
404.33	229.19
404.71	229.35
405.08	229.64
405.46	229.94
405.83	230.26
406.21	230.63
406.58	231.05
406.96	231.37
407.33	231.61
407.70	231.97
408.08	232.64
408.45	233.07
408.83	233.52
409.20	233.95
409.58	234.37
409.95	235.00
410.33	235.59
410.70	236.27
411.08	236.74
411.45	237.42
411.82	238.10
412.20	238.79
412.57	239.60
412.95	240.32
413.32	241.16
413.69	242.05
414.07	242.90
414.44	243.81
414.82	244.89
415.19	246.16
415.56	247.30
415.94	248.37
416.31	249.75
416.68	251.14
417.06	252.69
417.43	254.07
417.81	255.82
418.18	257.45
418.55	259.22
418.93	261.20
419.30	263.20
419.67	265.19
420.04	267.37
420.42	269.70
420.79	272.32
421.16	274.83
421.54	277.43
421.91	280.34
422.28	283.22
422.66	286.27
423.03	289.34
423.40	292.46
423.77	295.75
424.15	299.23
424.52	302.75
424.89	306.60
425.26	310.45
425.64	313.90
426.01	317.87
426.38	321.93
426.75	326.05
427.13	330.26
427.50	334.74
427.87	339.38
428.24	343.88
428.61	348.06
428.99	352.97
429.36	358.22
429.73	363.30
430.10	368.35
430.47	373.64
430.85	378.86
431.22	384.65
431.59	390.83
431.96	396.53
432.33	403.02
432.70	409.10
433.08	416.18
433.45	422.94
433.82	429.52
434.19	436.88
434.56	444.24
434.93	451.24
435.30	458.21
435.68	465.93
436.05	473.63
436.42	481.23
436.79	487.94
437.16	495.38
437.53	503.20
437.90	510.93
438.27	518.45
438.64	526.44
439.01	533.64
439.38	539.92
439.75	546.11
440.13	553.04
440.50	559.63
440.87	565.15
441.24	571.06
441.61	577.70
441.98	582.41
442.35	587.90
442.72	593.59
443.09	599.25
443.46	602.70
443.83	605.12
444.20	607.57
444.57	610.99
444.94	612.70
445.31	614.59
445.68	616.35
446.05	617.43
446.42	617.39
446.79	617.27
447.16	617.28
447.53	617.60
447.90	615.73
448.27	613.89
448.64	610.61
449.01	608.50
449.37	604.24
449.74	600.16
450.11	595.11
450.48	589.47
450.85	583.76
451.22	579.00
451.59	574.43
451.96	569.91
452.33	563.56
452.70	558.07
453.07	551.14
453.43	544.55
453.80	537.84
454.17	531.39
454.54	525.08
454.91	518.10
455.28	511.36
455.65	505.16
456.02	498.92
456.38	493.71
456.75	486.86
457.12	481.11
457.49	475.45
457.86	469.97
458.23	465.34
458.59	460.00
458.96	454.64
459.33	450.14
459.70	445.39
460.07	441.49
460.43	436.99
460.80	432.74
461.17	428.92
461.54	425.25
461.91	421.51
462.27	417.87
462.64	414.70
463.01	411.22
463.38	407.76
463.74	404.20
464.11	401.21
464.48	398.54
464.85	395.67
465.21	393.66
465.58	391.29
465.95	388.29
466.32	385.88
466.68	383.47
467.05	381.08
467.42	378.63
467.78	376.30
468.15	373.95
468.52	372.11
468.88	369.81
469.25	367.69
469.62	365.97
469.98	364.18
470.35	362.50
470.72	360.71
471.08	358.97
471.45	357.64
471.82	356.18
472.18	354.60
472.55	353.34
472.92	351.92
473.28	350.69
473.65	349.46
474.02	348.15
474.38	347.10
474.75	345.90
475.11	344.92
475.48	343.97
475.85	343.26
476.21	342.58
476.58	341.85
476.94	341.15
477.31	340.29
477.67	339.65
478.04	339.03
478.41	338.75
478.77	338.56
479.14	337.93
479.50	337.49
479.87	337.26
480.23	336.98
480.60	336.41
480.96	336.05
481.33	335.98
481.69	335.90
482.06	335.70
482.42	335.50
482.79	335.40
483.15	335.61
483.52	335.77
483.88	335.79
484.25	335.90
484.61	336.13
484.98	336.44
485.34	336.81
485.71	337.40
486.07	337.71
486.44	337.99
486.80	338.61
487.17	339.18
487.53	339.79
487.90	340.57
488.26	341.50
488.62	342.55
488.99	343.37
489.35	344.12
489.72	345.03
490.08	346.04
490.44	347.03
490.81	347.95
491.17	348.90
491.54	350.33
491.90	351.42
492.26	352.68
492.63	354.11
492.99	355.42
493.36	356.70
493.72	358.07
494.08	359.47
494.45	361.00
494.81	362.60
495.17	364.17
495.54	365.71
495.90	367.19
496.26	368.59
496.63	370.25
496.99	372.09
497.35	373.80
497.72	375.66
498.08	377.36
498.44	379.11
498.80	381.10
499.17	382.69
499.53	384.58
499.89	386.33
500.26	387.88
500.62	389.59
500.98	391.28
501.34	393.17
501.71	394.90
502.07	396.71
502.43	398.42
502.79	400.13
503.16	401.85
503.52	403.63
503.88	405.30
504.24	406.88
504.60	408.54
504.97	410.04
505.33	411.56
505.69	413.31
506.05	414.95
506.41	416.18
506.78	417.44
507.14	418.68
507.50	420.00
507.86	421.57
508.22	422.78
508.59	424.05
508.95	425.15
509.31	426.44
509.67	427.33
510.03	428.44
510.39	429.44
510.75	430.47
511.12	431.44
511.48	432.46
511.84	433.33
512.20	434.27
512.56	435.17
512.92	435.98
513.28	436.57
513.64	437.24
514.00	438.17
514.37	439.07
514.73	439.78
515.09	440.45
515.45	440.80
515.81	441.35
516.17	441.79
516.53	442.33
516.89	442.64
517.25	443.16
517.61	443.51
517.97	443.95
518.33	444.10
518.69	444.49
519.05	444.84
519.41	445.27
519.77	445.65
520.13	445.88
520.49	446.36
520.85	446.79
521.21	447.12
521.57	447.47
521.93	447.64
522.29	448.14
522.65	448.46
523.01	448.94
523.37	449.31
523.73	449.89
524.09	450.33
524.45	450.95
524.81	451.60
525.17	452.29
525.53	453.06
525.89	453.74
526.25	454.46
526.61	455.16
526.97	455.93
527.33	456.63
527.68	457.88
528.04	458.61
528.40	459.63
528.76	460.87
529.12	461.99
529.48	463.58
529.84	464.59
530.20	466.13
530.56	467.67
530.91	469.30
531.27	470.80
531.63	472.24
531.99	474.15
532.35	475.68
532.71	477.45
533.07	479.27
533.42	481.56
533.78	483.49
534.14	485.49
534.50	487.60
534.86	489.82
535.21	491.89
535.57	494.28
535.93	496.47
536.29	498.74
536.65	501.26
537.00	503.53
537.36	506.36
537.72	508.97
538.08	511.55
538.44	514.28
538.79	517.19
539.15	520.05
539.51	522.79
539.87	525.90
540.22	528.80
540.58	531.88
540.94	534.94
541.29	538.13
541.65	541.35
542.01	544.75
542.37	548.15
542.72	551.47
543.08	554.74
543.44	558.25
543.79	561.60
544.15	564.96
544.51	568.63
544.87	572.16
545.22	575.60
545.58	579.06
545.94	582.68
546.29	586.39
546.65	590.22
547.01	593.75
547.36	597.50
547.72	601.37
548.07	605.01
548.43	608.57
548.79	612.36
549.14	616.20
549.50	619.69
549.86	623.30
550.21	627.17
550.57	631.36
550.92	635.32
551.28	639.26
551.64	643.08
551.99	646.83
552.35	650.73
552.70	654.81
553.06	659.14
553.41	663.06
553.77	666.92
554.13	670.76
554.48	674.93
554.84	678.88
555.19	682.74
555.55	686.90
555.90	690.85
556.26	694.76
556.61	698.50
556.97	702.69
557.32	706.78
557.68	710.53
558.03	714.39
558.39	718.27
558.74	722.46
559.10	726.45
559.45	730.40
559.81	734.37
560.16	737.91
560.52	741.46
560.87	745.44
561.23	749.26
561.58	753.31
561.94	756.83
562.29	760.28
562.64	763.76
563.00	767.14
563.35	770.98
563.71	774.76
564.06	778.49
564.42	782.00
564.77	785.30
565.12	789.06
565.48	792.66
565.83	795.94
566.19	799.29
566.54	802.74
566.89	806.15
567.25	809.31
567.60	812.93
567.96	816.14
568.31	818.80
568.66	821.80
569.02	824.54
569.37	827.40
569.72	830.42
570.08	833.28
570.43	835.90
570.78	838.45
571.14	840.66
571.49	843.24
571.84	845.82
572.20	848.37
572.55	850.44
572.90	852.32
573.26	854.68
573.61	856.48
573.96	858.10
574.31	859.57
574.67	861.09
575.02	862.27
575.37	864.02
575.72	865.52
576.08	866.76
576.43	868.15
576.78	869.69
577.13	870.96
577.49	872.42
577.84	873.85
578.19	874.89
578.54	876.12
578.90	877.14
579.25	877.76
579.60	878.35
579.95	878.94
580.30	879.75
580.66	880.13
581.01	880.56
581.36	881.15
581.71	881.78
582.06	882.19
582.42	882.84
582.77	882.91
583.12	883.38
583.47	884.00
583.82	884.33
584.17	884.19
584.53	884.17
584.88	884.13
585.23	884.29
585.58	884.55
585.93	884.50
586.28	884.43
586.63	884.58
586.98	884.60
587.34	884.72
587.69	884.55
588.04	884.42
588.39	884.44
588.74	883.93
589.09	883.32
589.44	882.98
589.79	882.70
590.14	882.40
590.49	881.93
590.84	881.24
591.19	880.77
591.54	880.11
591.89	879.11
592.25	878.43
592.60	877.01
592.95	875.50
593.30	874.36
593.65	873.24
594.00	871.90
594.35	871.26
594.70	869.68
595.05	868.61
595.40	867.16
595.75	865.52
596.10	864.80
596.45	863.82
596.80	862.78
597.15	861.49
597.50	860.19
597.85	859.01
598.19	857.70
598.54	856.59
598.89	855.27
599.24	854.59
599.59	853.31
599.94	852.43
600.29	851.18
600.64	850.06
600.99	848.59
601.34	847.27
601.69	845.20
602.04	844.11
602.39	842.36
602.74	841.30
603.08	840.28
603.43	838.65
603.78	837.19
604.13	835.55
604.48	833.82
604.83	832.27
605.18	830.69
605.53	828.70
605.87	826.36
606.22	824.71
606.57	822.51
606.92	820.69
607.27	819.00
607.62	817.61
607.96	815.64
608.31	813.81
608.66	811.85
609.01	809.99
609.36	807.48
609.70	805.10
610.05	802.62
610.40	800.20
610.75	797.69
611.10	795.34
611.44	792.74
611.79	790.26
612.14	787.78
612.49	784.95
612.83	782.58
613.18	780.11
613.53	777.62
613.88	775.19
614.22	772.34
614.57	769.30
614.92	766.44
615.27	763.98
615.61	761.09
615.96	758.50
616.31	755.95
616.65	753.86
617.00	751.41
617.35	748.84
617.70	745.97
618.04	743.10
618.39	740.48
618.74	738.00
619.08	735.12
619.43	732.52
619.78	730.02
620.12	727.31
620.47	724.70
620.82	721.66
621.16	718.80
621.51	716.25
621.85	713.77
622.20	710.99
622.55	708.24
622.89	705.80
623.24	703.15
623.59	700.46
623.93	697.95
624.28	695.44
624.62	693.03
624.97	690.76
625.32	688.68
625.66	686.14
626.01	683.56
626.35	681.23
626.70	678.52
627.04	676.21
627.39	673.58
627.73	671.16
628.08	668.96
628.43	666.60
628.77	663.91
629.12	661.14
629.46	658.44
629.81	655.57
630.15	652.83
630.50	650.20
630.84	647.57
631.19	644.56
631.53	641.89
631.88	638.99
632.22	636.02
632.57	633.36
632.91	630.53
633.26	627.79
633.60	625.06
633.95	622.58
634.29	619.78
634.64	617.40
634.98	614.63
635.32	611.93
635.67	609.61
636.01	607.43
636.36	605.22
636.70	602.82
637.05	600.50
637.39	598.23
637.73	595.90
638.08	593.74
638.42	591.63
638.77	589.55
639.11	587.16
639.45	584.91
639.80	582.24
640.14	579.94
640.49	577.64
640.83	575.32
641.17	573.02
641.52	570.69
641.86	568.27
642.20	566.29
642.55	564.09
642.89	561.78
643.23	559.17
643.58	556.78
643.92	554.69
644.26	552.38
644.61	550.20
644.95	548.10
645.29	545.34
645.64	542.88
645.98	540.21
646.32	538.01
646.66	535.78
647.01	533.69
647.35	531.58
647.69	529.50
648.04	527.56
648.38	525.07
648.72	522.73
649.06	520.45
649.41	518.07
649.75	515.61
650.09	513.11
650.43	510.91
650.78	508.40
651.12	506.01
651.46	503.85
651.80	501.44
652.14	498.98
652.49	496.90
652.83	494.65
653.17	492.68
653.51	490.38
653.85	488.14
654.20	486.05
654.54	483.60
654.88	481.16
655.22	478.63
655.56	476.30
655.90	474.10
656.25	471.99
656.59	469.66
656.93	467.73
657.27	465.67
657.61	463.47
657.95	461.63
658.29	459.55
658.64	457.45
658.98	455.26
659.32	452.98
659.66	450.90
660.00	448.74
660.34	446.42
660.68	444.57
661.02	442.53
661.36	440.45
661.70	438.56
662.05	436.69
662.39	434.99
662.73	433.15
663.07	431.31
663.41	429.60
663.75	427.85
664.09	425.97
664.43	424.17
664.77	422.50
665.11	420.66
665.45	418.89
665.79	417.03
666.13	415.15
666.47	413.47
666.81	411.68
667.15	409.96
667.49	408.24
667.83	406.37
668.17	404.67
668.51	402.88
668.85	401.14
669.19	399.68
669.53	397.98
669.87	396.45
670.21	395.04
670.55	393.32
670.89	391.82
671.23	390.30
671.57	388.63
671.91	387.03
672.25	385.62
672.58	384.25
672.92	382.84
673.26	381.66
673.60	380.35
673.94	379.03
674.28	377.82
674.62	376.76
674.96	375.57
675.30	374.40
675.64	373.22
675.97	372.06
676.31	370.68
676.65	369.31
676.99	368.24
677.33	366.80
677.67	365.56
678.01	364.31
678.34	363.09
678.68	361.97
679.02	360.77
679.36	359.51
679.70	358.22
680.04	356.93
680.37	355.71
680.71	354.55
681.05	353.65
681.39	352.60
681.73	351.40
682.06	350.33
682.40	349.20
682.74	348.03
683.08	347.11
683.42	346.03
683.75	345.11
684.09	343.85
684.43	342.78
684.77	341.69
685.10	340.60
685.44	339.47
685.78	338.50
686.12	337.60
686.45	336.42
686.79	335.26
687.13	334.39
687.46	333.40
687.80	332.51
688.14	331.21
688.48	330.20
688.81	329.14
689.15	328.10
689.49	327.06
689.82	326.00
690.16	324.87
690.50	323.82
690.83	322.64
691.17	321.73
691.51	320.89
691.84	320.00
692.18	319.14
692.52	318.28
692.85	317.35
693.19	316.22
693.52	315.40
693.86	314.54
694.20	313.62
694.53	312.74
694.87	311.78
695.21	310.90
695.54	309.87
695.88	309.01
696.21	308.06
696.55	307.24
696.88	306.56
697.22	305.68
697.56	304.91
697.89	304.25
698.23	303.51
698.56	302.72
698.90	301.87
699.23	300.91
699.57	300.03
699.90	299.13
700.24	298.37
700.58	297.63
700.91	296.86
701.25	296.28
701.58	295.55
701.92	294.90
702.25	294.23
702.59	293.48
702.92	292.68
703.26	292.04
703.59	291.23
703.93	290.55
704.26	289.93
704.60	289.30
704.93	288.55
705.26	287.75
705.60	287.04
705.93	286.39
706.27	285.89
706.60	285.40
706.94	285.02
707.27	284.43
707.61	283.82
707.94	283.33
708.27	282.58
708.61	281.94
708.94	281.30
709.28	280.68
709.61	280.13
709.94	279.67
710.28	279.09
710.61	278.62
710.95	278.00
711.28	277.50
711.61	276.98
711.95	276.48
712.28	275.84
712.61	275.32
712.95	274.80
713.28	274.29
713.61	273.74
713.95	272.99
714.28	272.59
714.61	272.10
714.95	271.57
715.28	271.08
715.61	270.53
715.95	270.05
716.28	269.54
716.61	269.21
716.95	268.70
717.28	268.31
717.61	267.89
717.94	267.50
718.28	266.95
718.61	266.44
718.94	265.91
719.27	265.60
719.61	265.23
719.94	264.93
720.27	264.54
720.60	264.13
720.94	263.94
721.27	263.59
721.60	263.27
721.93	263.00
722.27	262.76
722.60	262.54
722.93	262.20
723.26	262.03
723.59	261.64
723.93	261.40
724.26	261.04
724.59	260.75
724.92	260.30
725.25	260.00
725.59	259.68
725.92	259.44
726.25	259.11
726.58	258.78
726.91	258.49
727.24	258.27
727.57	257.97
727.91	257.55
728.24	257.25
728.57	256.94
728.90	256.56
729.23	256.10
729.56	255.89
729.89	255.55
730.22	255.17
730.55	254.94
730.89	254.65
731.22	254.38
731.55	254.02
731.88	253.85
732.21	253.70
732.54	253.52
732.87	253.30
733.20	253.18
733.53	252.95
733.86	252.73
734.19	252.39
734.52	252.12
734.85	252.07
735.18	251.86
735.51	251.70
735.84	251.63
736.17	251.37
736.50	251.02
736.83	250.99
737.16	250.73
737.49	250.47
737.82	250.21
738.15	250.10
738.48	250.00
738.81	249.81
739.14	249.50
739.47	249.20
739.80	248.98
740.13	248.79
740.46	248.62
740.79	248.30
741.12	248.13
741.45	248.07
741.78	247.74
742.11	247.53
742.44	247.20
742.77	246.90
743.10	246.83
743.43	246.65
743.75	246.31
744.08	246.47
744.41	246.28
744.74	246.13
745.07	245.81
745.40	245.67
745.73	245.55
746.06	245.40
746.39	245.35
746.71	245.15
747.04	244.90
747.37	244.67
747.70	244.57
748.03	244.33
748.36	244.15
748.68	243.88
749.01	243.65
749.34	243.58
749.67	243.43
750.00	243.23
750.33	243.23
750.65	243.07
750.98	242.67
751.31	242.51
751.64	242.34
751.97	242.32
752.29	242.07
752.62	241.85
752.95	241.61
753.28	241.44
753.60	241.28
753.93	241.16
754.26	240.96
754.59	240.72
754.91	240.64
755.24	240.43
755.57	240.27
755.90	240.07
756.22	239.88
756.55	239.66
756.88	239.48
757.20	239.17
757.53	239.11
757.86	238.94
758.19	238.90
758.51	238.79
758.84	238.60
759.17	238.37
759.49	238.21
759.82	238.23
760.15	238.08
760.47	238.05
760.80	237.85
761.13	237.87
761.45	237.79
761.78	237.68
762.11	237.64
762.43	237.60
762.76	237.61
763.08	237.50
763.41	237.57
763.74	237.45
764.06	237.40
764.39	237.16
764.71	237.10
765.04	236.90
765.37	236.75
765.69	236.64
766.02	236.59
766.34	236.46
766.67	236.34
767.00	236.39
767.32	236.30
767.65	236.41
767.97	236.31
768.30	236.30
768.62	236.23
768.95	236.09
769.27	236.05
769.60	236.01
769.92	235.91
770.25	235.73
770.57	235.64
770.90	235.66
771.22	235.64
771.55	235.51
771.87	235.55
772.20	235.46
772.52	235.60
772.85	235.87
773.17	235.86
773.50	235.76
773.82	235.67
774.15	235.63
774.47	235.42
774.80	235.35
775.12	235.21
775.45	235.15
775.77	235.13
776.09	235.09
776.42	235.01
776.74	235.11
777.07	235.00
777.39	234.98
777.72	234.75
778.04	234.80
778.36	234.79
778.69	234.80
779.01	234.74
779.33	234.55
779.66	234.19
779.98	234.14
780.31	234.17
780.63	234.02
780.95	233.98
781.28	233.90
781.60	233.85
781.92	233.78
782.25	233.68
782.57	233.50
782.89	233.37
783.22	233.23
783.54	233.03
783.86	233.04
784.19	232.92
784.51	232.97
784.83	232.87
785.16	232.79
785.48	232.68
785.80	232.60
786.12	232.51
786.45	232.44
786.77	232.40
787.09	232.29
787.42	232.23
787.74	232.13
788.06	232.10
788.38	232.10
788.71	232.07
789.03	232.09
789.35	232.09
789.67	232.00
789.99	231.97
790.32	231.94
790.64	231.90
790.96	232.13
791.28	232.04
791.61	231.92
791.93	231.89
792.25	231.72
792.57	231.91
792.89	231.79
793.21	231.83
793.54	231.78
793.86	231.78
794.18	231.81
794.50	231.72
794.82	231.64
795.14	231.49
795.47	231.53
795.79	231.38
796.11	231.37
796.43	231.35
796.75	231.36
797.07	231.29
797.39	231.21
797.71	231.07
798.04	231.02
798.36	231.01
798.68	230.97
799.00	231.08
799.32	230.92
799.64	230.96
799.96	230.83
800.28	230.85
800.60	230.70
800.92	230.66
801.24	230.66
801.56	230.78
801.89	230.89
802.21	230.82
802.53	230.83
802.85	230.81
803.17	230.91
803.49	230.82
803.81	230.80
804.13	230.86
804.45	230.78
804.77	230.85
805.09	230.87
805.41	230.87
805.73	230.77
806.05	230.67
806.37	230.70
806.69	230.78
807.01	230.60
807.33	230.70
807.65	230.61
807.97	230.69
808.28	230.55
808.60	230.51
808.92	230.48
809.24	230.58
809.56	230.48
809.88	230.36
810.20	230.36
810.52	230.48
810.84	230.49
811.16	230.46
811.48	230.34
811.80	230.39
812.12	230.33
812.43	230.28
812.75	230.33
813.07	230.27
813.39	230.23
813.71	230.30
814.03	230.09
814.35	230.09
814.67	230.03
814.98	230.03
815.30	229.98
815.62	229.93
815.94	229.85
816.26	230.02
816.58	230.08
816.89	230.15
817.21	230.07
817.53	229.90
817.85	229.87
818.17	229.90
818.48	229.78
818.80	229.81
819.12	229.77
819.44	229.72
819.76	229.66
820.07	229.65
820.39	229.71
820.71	229.76
821.03	229.77
821.34	229.71
821.66	229.75
821.98	229.69
822.30	229.72
822.61	229.81
822.93	229.63
823.25	229.54
823.57	229.54
823.88	229.53
824.20	229.63
824.52	229.67
824.83	229.59
825.15	229.61
825.47	229.67
825.79	229.70
826.10	229.71
826.42	229.69
826.74	229.68
827.05	229.59
827.37	229.60
827.69	229.60
828.00	229.65
828.32	229.66
828.64	229.66
828.95	229.64
829.27	229.49
829.58	229.42
829.90	229.58
830.22	229.50
830.53	229.48
830.85	229.41
831.17	229.31
831.48	229.37
831.80	229.39
832.11	229.26
832.43	229.29
832.75	229.27
833.06	229.37
833.38	229.32
833.69	229.32
834.01	229.29
834.32	229.22
834.64	229.14
834.96	229.04
835.27	228.93
835.59	228.91
835.90	228.91
836.22	229.03
836.53	228.85
836.85	228.82
837.16	228.98
837.48	228.99
837.79	229.01
838.11	228.97
838.42	228.92
838.74	228.97
839.05	228.95
839.37	228.94
839.68	228.77
840.00	228.79
840.31	228.71
840.63	228.79
840.94	228.83
841.26	228.78
841.57	228.87
841.88	228.94
842.20	228.90
842.51	228.85
842.83	228.74
843.14	228.89
843.46	228.83
843.77	228.78
844.08	228.76
844.40	228.71
844.71	228.65
845.03	228.59
845.34	228.58
845.65	228.55
845.97	228.47
846.28	228.51
846.60	228.43
846.91	228.49
847.22	228.41
847.54	228.54
847.85	228.60
848.16	228.50
848.48	228.50
848.79	228.57
849.10	228.59
849.42	228.66
849.73	228.48
850.04	228.57
850.36	228.47
850.67	228.51
850.98	228.57
851.30	228.66
851.61	228.68
851.92	228.64
852.23	228.74
852.55	228.87
852.86	228.98
853.17	229.14
853.49	229.27
853.80	229.33
854.11	229.12
854.42	229.13
854.74	229.10
855.05	229.18
855.36	229.10
855.67	229.20
855.99	229.22
856.30	229.43
856.61	229.36
856.92	229.30
857.23	229.28
857.55	229.30
857.86	229.33
858.17	229.31
858.48	229.24
858.79	229.16
859.11	229.20
859.42	229.15
859.73	229.11
860.04	229.02
860.35	229.07
860.66	229.07
860.98	229.10
861.29	229.10
861.60	228.98
861.91	229.14
862.22	229.13
862.53	229.09
862.84	228.92
863.16	229.00
863.47	229.02
863.78	229.07
864.09	229.02
864.40	228.92
864.71	228.96
865.02	229.11
865.33	229.12
865.64	228.97
865.95	229.01
866.27	229.08
866.58	229.03
866.89	228.89
867.20	228.94
867.51	228.90
867.82	228.89
868.13	229.01
868.44	228.81
868.75	228.81
869.06	228.85
869.37	228.84
869.68	228.79
869.99	228.80
870.30	228.70
870.61	228.69
870.92	228.63
871.23	228.58
871.54	228.50
871.85	228.47
872.16	228.52
872.47	228.37
872.78	228.20
873.09	228.27
873.40	228.30
873.71	228.26
874.02	228.21
874.33	228.20
874.64	228.11
874.95	228.14
875.26	228.09
875.56	228.00
875.87	228.01
876.18	227.97
876.49	228.08
876.80	228.16
877.11	228.20
877.42	228.30
877.73	228.36
878.04	228.30
878.35	228.31
878.66	228.25
878.96	228.25
879.27	228.17
879.58	228.16
879.89	228.16
880.20	228.24
880.51	228.23
880.82	228.28
881.12	228.33
881.43	228.31
881.74	228.23
882.05	228.23
882.36	228.19
882.67	228.30
882.97	228.10
883.28	228.00
883.59	227.93
883.90	227.95
884.21	227.96
884.51	227.99
884.82	227.88
885.13	227.94
885.44	227.94
885.74	228.05
886.05	227.98
886.36	228.00
886.67	227.90
886.98	228.04
887.28	228.02
887.59	228.00
887.90	227.95
888.20	228.00
888.51	228.00
888.82	228.10
889.13	228.02
889.43	228.27
889.74	228.30
890.05	228.36
890.35	228.32
890.66	228.26
890.97	228.27
891.28	228.36
891.58	228.25
891.89	228.34
892.20	228.24
892.50	228.29
892.81	228.31
893.12	228.32
893.42	228.20
893.73	228.18
894.04	228.12
894.34	228.19
894.65	228.15
894.95	228.12
895.26	228.02
895.57	228.14
895.87	227.90
896.18	227.93
896.48	227.92
896.79	227.95
897.10	228.06
897.40	228.00
897.71	228.05
898.01	228.21
898.32	228.18
898.63	228.29
898.93	228.28
899.24	228.22
899.54	228.20
899.85	228.33
900.15	228.39
900.46	228.49
900.76	228.43
901.07	228.46
901.38	228.59
901.68	228.65
901.99	228.44
902.29	228.50
902.60	228.45
902.90	228.36
903.21	228.34
903.51	228.30
903.82	228.36
904.12	228.33
904.43	228.35
904.73	228.43
905.03	228.44
905.34	228.58
905.64	228.59
905.95	228.60
906.25	228.50
906.56	228.50
906.86	228.42
907.17	228.51
907.47	228.50
907.77	228.46
908.08	228.40
908.38	228.39
908.69	228.41
908.99	228.46
909.30	228.51
909.60	228.52
909.90	228.41
910.21	228.43
910.51	228.28
910.81	228.22
911.12	228.17
911.42	228.10
911.73	227.95
912.03	228.00
912.33	228.07
912.64	228.11
912.94	228.10
913.24	228.14
913.55	228.11
913.85	228.07
914.15	228.10
914.46	228.05
914.76	228.17
915.06	228.06
915.37	228.04
915.67	228.04
915.97	228.07
916.27	228.10
916.58	228.05
916.88	228.12
917.18	228.08
917.49	228.20
917.79	228.19
918.09	228.20
918.39	228.20
918.70	228.16
919.00	228.15
919.30	228.22
919.60	228.11
919.91	228.10
920.21	228.20
920.51	228.19
920.81	228.30
921.12	228.31
921.42	228.45
921.72	228.49
922.02	228.44
922.32	228.38
922.63	228.36
922.93	228.50
923.23	228.60
923.53	228.63
923.83	228.39
924.13	228.33
924.44	228.37
924.74	228.43
925.04	228.41
925.34	228.46
925.64	228.39
925.94	228.40
926.24	228.51
926.55	228.51
926.85	228.48
927.15	228.43
927.45	228.47
927.75	228.36
928.05	228.32
928.35	228.35
928.65	228.42
928.95	228.51
929.26	228.39
929.56	228.43
929.86	228.40
930.16	228.49
930.46	228.63
930.76	228.63
931.06	228.46
931.36	228.46
931.66	228.40
931.96	228.37
932.26	228.40
932.56	228.39
932.86	228.21
933.16	228.20
933.46	228.13
933.76	228.11
934.06	228.25
934.36	228.38
934.66	228.38
934.96	228.33
935.26	228.30
935.56	228.39
935.86	228.30
936.16	228.30
936.46	228.24
936.76	228.15
937.06	228.13
937.36	228.22
937.66	228.26
937.96	228.30
938.26	228.28
938.56	228.36
938.86	228.21
939.16	228.37
939.46	228.42
939.76	228.54
940.06	228.51
940.35	228.40
940.65	228.15
940.95	228.13
941.25	228.13
941.55	228.25
941.85	228.20
942.15	228.20
942.45	228.26
942.75	228.33
943.04	228.40
943.34	228.34
943.64	228.21
943.94	228.15
944.24	228.17
944.54	228.19
944.84	228.10
945.13	228.11
945.43	228.11
945.73	228.06
946.03	227.88
946.33	227.87
946.62	227.91
946.92	227.93
947.22	227.87
947.52	227.84
947.82	227.74
948.11	227.81
948.41	227.76
948.71	227.73
949.01	227.68
949.31	227.68
949.60	227.67
949.90	227.80
950.20	227.74
950.50	227.74
950.79	227.82
951.09	227.93
951.39	227.90
951.69	227.94
951.98	227.96
952.28	228.11
952.58	227.98
952.87	227.94
953.17	228.08
953.47	228.13
953.76	228.14
954.06	228.15
954.36	228.11
954.66	228.14
954.95	228.22
955.25	228.20
955.55	228.24
955.84	228.26
956.14	228.29
956.44	228.37
956.73	228.43
957.03	228.36
957.32	228.32
957.62	228.32
957.92	228.38
958.21	228.37
958.51	228.56
958.81	228.67
959.10	228.70
959.40	228.81
959.69	228.88
959.99	228.90
960.29	228.81
960.58	228.75
960.88	228.80
961.17	228.72
961.47	228.82
961.76	228.70
962.06	228.70
962.36	228.73
962.65	228.81
962.95	228.67
963.24	228.75
963.54	228.81
963.83	228.88
964.13	228.78
964.42	228.73
964.72	228.62
965.01	228.54
965.31	228.61
965.60	228.55
965.90	228.66
966.19	228.55
966.49	228.66
966.78	228.78
967.08	228.83
967.37	228.95
967.67	228.89
967.96	229.04
968.26	229.14
968.55	229.06
968.85	228.99
969.14	229.04
969.43	229.03
969.73	228.92
970.02	228.92
970.32	228.90
970.61	228.99
970.91	228.92
971.20	229.00
971.49	229.04
971.79	228.98
972.08	228.89
972.38	228.99
972.67	228.93
972.96	228.83
973.26	228.71
973.55	228.64
973.85	228.60
974.14	228.49
974.43	228.51
974.73	228.50
975.02	228.50
975.31	228.52
975.61	228.49
975.90	228.47
976.19	228.48
976.49	228.50
976.78	228.50
977.07	228.47
977.37	228.51
977.66	228.41
977.95	228.40
978.24	228.50
978.54	228.49
978.83	228.51
979.12	228.51
979.42	228.54
979.71	228.50
980.00	228.53
980.29	228.60
980.59	228.47
980.88	228.50
981.17	228.58
981.46	228.50
981.76	228.45
982.05	228.59
982.34	228.59
982.63	228.60
982.93	228.45
983.22	228.45
983.51	228.41
983.80	228.41
984.09	228.36
984.39	228.28
984.68	228.42
984.97	228.49
985.26	228.45
985.55	228.49
985.85	228.43
986.14	228.48
986.43	228.45
986.72	228.55
987.01	228.45
987.30	228.33
987.59	228.32
987.89	228.30
988.18	228.22
988.47	228.20
988.76	228.22
989.05	228.27
989.34	228.34
989.63	228.33
989.92	228.31
990.22	228.39
990.51	228.35
990.80	228.21
991.09	228.21
991.38	228.31
991.67	228.20
991.96	228.19
992.25	228.21
992.54	228.19
992.83	228.17
993.12	228.24
993.41	228.29
993.70	228.38
993.99	228.41
994.28	228.39
994.58	228.36
994.87	228.35
995.16	228.49
995.45	228.38
995.74	228.45
996.03	228.36
996.32	228.38
996.61	228.42
996.90	228.43
997.19	228.41
997.48	228.34
997.77	228.38
998.06	228.40
998.34	228.40
998.63	228.37
998.92	228.32
999.21	228.34
999.50	228.29
999.79	228.17
1000.08	228.14
1000.37	228.10
1000.66	228.08
1000.95	228.09
1001.24	228.01
1001.53	228.12
1001.82	228.04
1002.11	228.11
1002.40	228.03
1002.68	227.98
1002.97	228.05
1003.26	227.98
1003.55	227.99
1003.84	227.98
1004.13	228.04
1004.42	227.98
1004.71	228.04
1004.99	228.00
1005.28	228.00
1005.57	228.05
1005.86	228.09
1006.15	228.16
1006.44	228.22
1006.72	228.26
1007.01	228.21
1007.30	228.22
1007.59	228.10
1007.88	228.08
1008.17	227.96
1008.45	228.05
1008.74	227.96
1009.03	227.88
1009.32	227.86
1009.60	227.85
1009.89	227.78
1010.18	227.73
1010.47	227.70
1010.76	227.76
1011.04	227.75
1011.33	227.75
1011.62	227.72
1011.91	227.75
1012.19	227.72
1012.48	227.70
1012.77	227.74
1013.05	227.83
1013.34	227.76
1013.63	227.80
1013.92	227.81
1014.20	227.93
1014.49	227.89
1014.78	228.08
1015.06	228.12
1015.35	228.14
1015.64	228.21
1015.92	228.27
1016.21	228.39
1016.50	228.42
1016.78	228.40
1017.07	228.50
1017.36	228.53
1017.64	228.59
1017.93	228.68
1018.22	228.73
1018.50	228.74
1018.79	228.80
1019.08	228.73
1019.36	228.75
1019.65	228.78
1019.93	228.87
1020.22	228.93
1020.51	229.10
1020.79	228.96
1021.08	228.90
1021.36	228.30
1021.65	230.20
1021.94	228.60
1022.22	227.40
1022.51	228.00
1022.79	229.90
1023.08	229.10
1023.36	232.10
1023.65	227.50
>>>>>End Processed Spectral Data<<<<<
