SpectraSuite Data File
++++++++++++++++++++++++++++++++++++
Date: Fri Feb 01 14:36:25 EST 2013
User: group
Dark Spectrum Present: No
Reference Spectrum Present: No
Number of Sampled Component Spectra: 1
Spectrometers: USB2E7196
Integration Time (usec): 70000 (USB2E7196)
Spectra Averaged: 10 (USB2E7196)
Boxcar Smoothing: 10 (USB2E7196)
Correct for Electrical Dark: No (USB2E7196)
Strobe/Lamp Enabled: No (USB2E7196)
Correct for Detector Non-linearity: No (USB2E7196)
Correct for Stray Light: No (USB2E7196)
Number of Pixels in Processed Spectrum: 2048
>>>>>Begin Processed Spectral Data<<<<<
339.09	0.00
339.48	216.90
339.86	218.40
340.24	218.80
340.63	221.40
341.01	223.30
341.39	223.50
341.78	224.90
342.16	226.50
342.54	227.50
342.93	215.09
343.31	225.92
343.69	226.53
344.07	227.00
344.46	227.48
344.84	227.85
345.22	228.10
345.60	228.30
345.99	228.46
346.37	228.59
346.75	228.60
347.13	228.70
347.52	228.81
347.90	228.96
348.28	228.93
348.66	228.90
349.05	228.81
349.43	228.91
349.81	228.78
350.19	228.85
350.57	228.89
350.96	228.91
351.34	228.96
351.72	228.97
352.10	228.94
352.48	228.94
352.87	229.01
353.25	229.06
353.63	229.15
354.01	229.19
354.39	229.20
354.77	229.28
355.15	229.33
355.54	229.38
355.92	229.31
356.30	229.34
356.68	229.51
357.06	229.57
357.44	229.54
357.82	229.61
358.20	229.68
358.58	229.65
358.97	229.72
359.35	229.82
359.73	229.93
360.11	230.04
360.49	230.09
360.87	230.06
361.25	230.07
361.63	230.17
362.01	230.10
362.39	229.98
362.77	229.90
363.15	229.93
363.53	229.80
363.91	229.83
364.29	229.87
364.67	229.70
365.05	229.73
365.43	229.71
365.81	229.68
366.19	229.64
366.57	229.70
366.95	229.61
367.33	229.52
367.71	229.30
368.09	229.35
368.47	229.24
368.85	229.19
369.23	229.21
369.61	229.12
369.99	229.27
370.37	229.39
370.75	229.43
371.13	229.28
371.51	229.20
371.89	229.30
372.27	229.23
372.65	229.14
373.03	229.09
373.41	229.03
373.78	229.04
374.16	228.81
374.54	228.62
374.92	228.58
375.30	228.58
375.68	228.60
376.06	228.44
376.44	228.54
376.82	228.50
377.19	228.30
377.57	228.26
377.95	228.13
378.33	228.11
378.71	227.98
379.09	227.99
379.47	227.96
379.84	227.79
380.22	227.63
380.60	227.58
380.98	227.44
381.36	227.49
381.73	227.32
382.11	227.43
382.49	227.34
382.87	227.33
383.25	227.18
383.62	227.40
384.00	227.38
384.38	227.25
384.76	227.22
385.13	227.30
385.51	227.12
385.89	227.09
386.27	227.00
386.64	226.94
387.02	226.86
387.40	226.83
387.78	226.80
388.15	226.89
388.53	226.95
388.91	226.88
389.29	226.74
389.66	226.87
390.04	226.78
390.42	226.90
390.79	226.82
391.17	226.84
391.55	226.54
391.92	226.50
392.30	226.52
392.68	226.42
393.05	226.44
393.43	226.50
393.81	226.46
394.18	226.48
394.56	226.62
394.94	226.79
395.31	226.89
395.69	226.93
396.06	227.00
396.44	227.05
396.82	227.12
397.19	227.32
397.57	227.29
397.95	227.35
398.32	227.36
398.70	227.59
399.07	227.70
399.45	227.81
399.82	227.94
400.20	228.00
400.58	228.13
400.95	228.17
401.33	228.30
401.70	228.59
402.08	228.60
402.45	228.65
402.83	228.74
403.20	228.94
403.58	228.99
403.95	229.17
404.33	229.35
404.71	229.69
405.08	229.89
405.46	230.10
405.83	230.36
406.21	230.65
406.58	230.91
406.96	231.18
407.33	231.40
407.70	231.73
408.08	232.21
408.45	232.64
408.83	233.04
409.20	233.50
409.58	233.71
409.95	234.25
410.33	234.71
410.70	235.11
411.08	235.59
411.45	236.20
411.82	236.66
412.20	237.30
412.57	237.92
412.95	238.57
413.32	239.32
413.69	240.07
414.07	240.81
414.44	241.64
414.82	242.58
415.19	243.77
415.56	244.79
415.94	245.78
416.31	246.98
416.68	248.27
417.06	249.60
417.43	251.07
417.81	252.68
418.18	254.33
418.55	256.13
418.93	257.93
419.30	259.89
419.67	261.98
420.04	263.98
420.42	266.06
420.79	268.50
421.16	271.05
421.54	273.61
421.91	276.33
422.28	279.02
422.66	281.95
423.03	284.65
423.40	287.62
423.77	290.84
424.15	294.04
424.52	297.29
424.89	300.84
425.26	304.26
425.64	307.54
426.01	311.31
426.38	315.10
426.75	318.86
427.13	322.69
427.50	326.80
427.87	331.10
428.24	335.41
428.61	339.62
428.99	343.98
429.36	348.99
429.73	353.77
430.10	358.57
430.47	363.32
430.85	368.35
431.22	373.64
431.59	379.28
431.96	384.56
432.33	390.67
432.70	396.51
433.08	403.28
433.45	409.74
433.82	416.07
434.19	422.99
434.56	429.92
434.93	436.75
435.30	443.34
435.68	450.73
436.05	458.11
436.42	465.08
436.79	471.63
437.16	478.60
437.53	486.09
437.90	493.49
438.27	500.91
438.64	508.42
439.01	515.36
439.38	521.43
439.75	527.52
440.13	534.19
440.50	540.64
440.87	546.08
441.24	551.44
441.61	557.58
441.98	562.29
442.35	567.50
442.72	572.80
443.09	578.13
443.46	581.54
443.83	583.73
444.20	585.89
444.57	589.15
444.94	590.84
445.31	592.60
445.68	594.38
446.05	595.39
446.42	595.46
446.79	595.48
447.16	595.22
447.53	595.46
447.90	593.66
448.27	591.78
448.64	588.84
449.01	587.20
449.37	583.15
449.74	579.20
450.11	574.36
450.48	569.00
450.85	563.48
451.22	558.94
451.59	554.70
451.96	550.52
452.33	544.41
452.70	539.05
453.07	532.49
453.43	525.81
453.80	519.32
454.17	512.98
454.54	507.08
454.91	500.94
455.28	494.60
455.65	488.62
456.02	482.78
456.38	477.59
456.75	471.14
457.12	465.63
457.49	460.32
457.86	455.20
458.23	450.86
458.59	445.87
458.96	440.71
459.33	436.16
459.70	431.82
460.07	428.34
460.43	424.19
460.80	420.15
461.17	416.60
461.54	413.08
461.91	409.77
462.27	406.14
462.64	402.97
463.01	399.66
463.38	396.64
463.74	393.17
464.11	390.25
464.48	387.71
464.85	384.98
465.21	382.73
465.58	380.51
465.95	377.64
466.32	375.54
466.68	373.26
467.05	371.01
467.42	368.67
467.78	366.26
468.15	363.95
468.52	362.34
468.88	360.08
469.25	358.04
469.62	356.42
469.98	354.76
470.35	353.17
470.72	351.57
471.08	349.77
471.45	348.33
471.82	346.93
472.18	345.22
472.55	343.99
472.92	342.57
473.28	341.42
473.65	340.28
474.02	338.83
474.38	337.78
474.75	336.76
475.11	335.78
475.48	334.86
475.85	334.15
476.21	333.44
476.58	332.86
476.94	332.36
477.31	331.61
477.67	330.89
478.04	330.28
478.41	329.78
478.77	329.52
479.14	329.16
479.50	328.79
479.87	328.60
480.23	328.50
480.60	328.42
480.96	328.13
481.33	328.06
481.69	328.03
482.06	327.95
482.42	327.78
482.79	327.83
483.15	328.00
483.52	328.23
483.88	328.33
484.25	328.45
484.61	328.60
484.98	328.80
485.34	329.20
485.71	329.72
486.07	330.14
486.44	330.30
486.80	330.80
487.17	331.36
487.53	332.05
487.90	332.67
488.26	333.38
488.62	334.04
488.99	334.68
489.35	335.39
489.72	336.09
490.08	337.00
490.44	337.81
490.81	338.74
491.17	339.55
491.54	340.56
491.90	341.65
492.26	342.78
492.63	343.89
492.99	345.02
493.36	346.23
493.72	347.49
494.08	348.91
494.45	350.30
494.81	351.66
495.17	352.96
495.54	354.38
495.90	355.68
496.26	357.30
496.63	358.80
496.99	360.36
497.35	361.90
497.72	363.52
498.08	365.08
498.44	366.69
498.80	368.54
499.17	370.13
499.53	371.82
499.89	373.36
500.26	374.85
500.62	376.27
500.98	377.74
501.34	379.17
501.71	380.68
502.07	382.04
502.43	383.42
502.79	384.77
503.16	386.12
503.52	387.54
503.88	388.61
504.24	389.98
504.60	391.32
504.97	392.58
505.33	393.65
505.69	394.84
506.05	396.02
506.41	397.09
506.78	398.17
507.14	399.03
507.50	400.01
507.86	401.01
508.22	402.02
508.59	402.86
508.95	403.79
509.31	404.52
509.67	405.37
510.03	406.09
510.39	406.89
510.75	407.60
511.12	408.07
511.48	408.71
511.84	409.24
512.20	409.70
512.56	410.15
512.92	410.77
513.28	411.28
513.64	411.51
514.00	411.70
514.37	411.96
514.73	412.36
515.09	412.77
515.45	413.14
515.81	413.32
516.17	413.51
516.53	413.70
516.89	414.01
517.25	414.14
517.61	414.37
517.97	414.41
518.33	414.46
518.69	414.82
519.05	415.15
519.41	415.34
519.77	415.72
520.13	416.11
520.49	416.24
520.85	416.49
521.21	416.95
521.57	417.26
521.93	417.47
522.29	417.97
522.65	418.27
523.01	418.73
523.37	419.02
523.73	419.61
524.09	420.03
524.45	420.44
524.81	420.99
525.17	421.70
525.53	422.53
525.89	423.40
526.25	424.16
526.61	424.80
526.97	425.70
527.33	426.67
527.68	427.88
528.04	429.06
528.40	430.11
528.76	431.23
529.12	432.53
529.48	433.92
529.84	435.15
530.20	436.60
530.56	438.20
530.91	440.12
531.27	441.71
531.63	443.56
531.99	445.37
532.35	447.33
532.71	449.17
533.07	451.10
533.42	453.25
533.78	455.48
534.14	457.95
534.50	460.22
534.86	462.43
535.21	464.50
535.57	466.92
535.93	469.35
536.29	472.08
536.65	474.71
537.00	477.39
537.36	480.19
537.72	482.97
538.08	485.79
538.44	488.55
538.79	491.44
539.15	494.32
539.51	497.51
539.87	500.76
540.22	504.11
540.58	507.58
540.94	510.68
541.29	513.82
541.65	517.01
542.01	520.49
542.37	524.10
542.72	527.71
543.08	531.26
543.44	535.04
543.79	538.32
544.15	541.94
544.51	545.94
544.87	549.61
545.22	553.49
545.58	557.36
545.94	561.21
546.29	565.30
546.65	569.29
547.01	573.05
547.36	576.80
547.72	580.46
548.07	584.31
548.43	588.30
548.79	592.40
549.14	596.35
549.50	600.36
549.86	604.11
550.21	607.96
550.57	611.93
550.92	615.83
551.28	619.93
551.64	624.07
551.99	628.03
552.35	632.05
552.70	635.88
553.06	639.91
553.41	644.02
553.77	648.09
554.13	652.01
554.48	656.20
554.84	660.28
555.19	664.39
555.55	668.31
555.90	672.35
556.26	676.37
556.61	680.67
556.97	684.29
557.32	688.27
557.68	692.42
558.03	696.51
558.39	700.62
558.74	704.75
559.10	708.65
559.45	712.53
559.81	716.68
560.16	720.41
560.52	724.27
560.87	728.14
561.23	731.72
561.58	735.98
561.94	739.68
562.29	743.37
562.64	746.94
563.00	750.73
563.35	754.59
563.71	758.52
564.06	762.19
564.42	766.25
564.77	770.20
565.12	773.82
565.48	777.67
565.83	781.08
566.19	784.57
566.54	787.90
566.89	791.30
567.25	794.62
567.60	798.36
567.96	801.90
568.31	805.29
568.66	808.58
569.02	811.53
569.37	814.77
569.72	817.79
570.08	821.05
570.43	823.85
570.78	826.59
571.14	829.02
571.49	831.40
571.84	834.38
572.20	836.80
572.55	839.11
572.90	841.13
573.26	843.41
573.61	845.69
573.96	848.12
574.31	849.76
574.67	851.41
575.02	853.09
575.37	854.60
575.72	855.87
576.08	857.72
576.43	859.21
576.78	860.67
577.13	862.40
577.49	863.71
577.84	865.29
578.19	866.51
578.54	867.90
578.90	868.91
579.25	869.41
579.60	870.43
579.95	871.37
580.30	872.30
580.66	873.10
581.01	873.72
581.36	874.24
581.71	875.23
582.06	875.73
582.42	876.31
582.77	876.70
583.12	877.39
583.47	877.73
583.82	878.40
584.17	878.59
584.53	878.96
584.88	879.20
585.23	879.09
585.58	879.10
585.93	879.17
586.28	879.66
586.63	880.05
586.98	880.13
587.34	880.47
587.69	880.34
588.04	880.27
588.39	880.21
588.74	879.70
589.09	879.34
589.44	879.06
589.79	878.91
590.14	878.90
590.49	878.30
590.84	877.62
591.19	876.90
591.54	876.24
591.89	874.97
592.25	874.39
592.60	873.58
592.95	872.54
593.30	871.17
593.65	870.27
594.00	869.17
594.35	868.53
594.70	866.99
595.05	866.03
595.40	864.89
595.75	863.58
596.10	862.70
596.45	861.74
596.80	860.98
597.15	859.89
597.50	858.43
597.85	857.55
598.19	856.61
598.54	855.42
598.89	854.20
599.24	853.21
599.59	851.66
599.94	850.69
600.29	849.98
600.64	848.92
600.99	847.13
601.34	845.83
601.69	843.80
602.04	842.28
602.39	840.40
602.74	839.12
603.08	837.88
603.43	836.54
603.78	834.83
604.13	833.25
604.48	831.43
604.83	829.93
605.18	828.02
605.53	825.83
605.87	823.62
606.22	821.85
606.57	819.89
606.92	818.21
607.27	816.32
607.62	814.32
607.96	812.70
608.31	811.12
608.66	808.85
609.01	806.80
609.36	804.86
609.70	802.59
610.05	800.19
610.40	798.01
610.75	795.64
611.10	793.31
611.44	790.70
611.79	788.41
612.14	785.92
612.49	783.29
612.83	781.03
613.18	778.90
613.53	776.60
613.88	774.21
614.22	771.65
614.57	768.81
614.92	766.12
615.27	763.64
615.61	760.99
615.96	758.55
616.31	756.10
616.65	753.94
617.00	752.06
617.35	749.77
617.70	746.77
618.04	744.13
618.39	741.80
618.74	739.31
619.08	736.65
619.43	734.02
619.78	731.88
620.12	729.44
620.47	726.87
620.82	724.10
621.16	721.59
621.51	719.28
621.85	716.78
622.20	714.27
622.55	711.61
622.89	709.42
623.24	706.84
623.59	704.44
623.93	702.04
624.28	699.34
624.62	697.09
624.97	695.06
625.32	692.84
625.66	690.40
626.01	687.87
626.35	685.30
626.70	682.84
627.04	680.38
627.39	677.76
627.73	675.28
628.08	672.92
628.43	670.36
628.77	667.86
629.12	665.34
629.46	662.81
629.81	660.02
630.15	656.92
630.50	654.45
630.84	651.71
631.19	648.75
631.53	646.25
631.88	643.05
632.22	640.10
632.57	637.45
632.91	634.53
633.26	631.82
633.60	629.05
633.95	626.40
634.29	623.65
634.64	621.34
634.98	618.85
635.32	616.31
635.67	613.86
636.01	611.48
636.36	608.97
636.70	606.60
637.05	604.22
637.39	602.24
637.73	599.80
638.08	597.53
638.42	595.32
638.77	592.88
639.11	590.64
639.45	588.27
639.80	585.78
640.14	583.62
640.49	581.30
640.83	579.14
641.17	576.82
641.52	574.27
641.86	571.57
642.20	569.22
642.55	566.79
642.89	564.53
643.23	561.89
643.58	559.82
643.92	557.40
644.26	555.04
644.61	552.46
644.95	550.06
645.29	547.50
645.64	544.97
645.98	542.58
646.32	540.33
646.66	537.88
647.01	535.53
647.35	533.29
647.69	531.20
648.04	529.05
648.38	526.67
648.72	524.48
649.06	522.11
649.41	519.71
649.75	517.23
650.09	514.93
650.43	512.41
650.78	509.80
651.12	507.29
651.46	504.97
651.80	502.73
652.14	500.45
652.49	498.18
652.83	495.91
653.17	493.42
653.51	490.94
653.85	488.88
654.20	486.64
654.54	484.09
654.88	481.63
655.22	479.25
655.56	477.00
655.90	474.87
656.25	472.91
656.59	470.55
656.93	468.40
657.27	466.27
657.61	464.11
657.95	462.10
658.29	460.11
658.64	457.94
658.98	455.67
659.32	453.33
659.66	451.36
660.00	449.38
660.34	447.41
660.68	445.52
661.02	443.35
661.36	441.34
661.70	439.57
662.05	437.88
662.39	435.96
662.73	434.31
663.07	432.55
663.41	430.71
663.75	429.12
664.09	427.57
664.43	425.66
664.77	424.04
665.11	422.33
665.45	420.57
665.79	419.07
666.13	417.27
666.47	415.78
666.81	413.97
667.15	412.10
667.49	410.53
667.83	408.92
668.17	407.18
668.51	405.33
668.85	403.76
669.19	402.11
669.53	400.60
669.87	398.73
670.21	397.18
670.55	395.59
670.89	394.21
671.23	392.66
671.57	391.19
671.91	389.88
672.25	388.49
672.58	387.12
672.92	385.47
673.26	384.24
673.60	382.97
673.94	381.67
674.28	380.47
674.62	379.31
674.96	377.86
675.30	376.80
675.64	375.63
675.97	374.33
676.31	372.90
676.65	371.64
676.99	370.45
677.33	369.09
677.67	367.77
678.01	366.36
678.34	365.16
678.68	363.80
679.02	362.28
679.36	360.96
679.70	359.70
680.04	358.57
680.37	357.23
680.71	355.90
681.05	354.78
681.39	353.52
681.73	352.18
682.06	351.17
682.40	349.92
682.74	348.97
683.08	347.80
683.42	346.68
683.75	345.56
684.09	344.27
684.43	343.00
684.77	341.73
685.10	340.65
685.44	339.40
685.78	338.47
686.12	337.41
686.45	336.22
686.79	335.07
687.13	333.91
687.46	332.89
687.80	331.75
688.14	330.60
688.48	329.55
688.81	328.48
689.15	327.54
689.49	326.62
689.82	325.43
690.16	324.32
690.50	323.29
690.83	322.17
691.17	321.30
691.51	320.54
691.84	319.77
692.18	318.74
692.52	317.74
692.85	316.71
693.19	315.84
693.52	314.86
693.86	313.91
694.20	312.96
694.53	312.02
694.87	311.24
695.21	310.18
695.54	309.32
695.88	308.33
696.21	307.26
696.55	306.33
696.88	305.54
697.22	304.83
697.56	304.05
697.89	303.24
698.23	302.42
698.56	301.39
698.90	300.62
699.23	299.64
699.57	298.86
699.90	298.00
700.24	297.21
700.58	296.58
700.91	295.80
701.25	295.21
701.58	294.59
701.92	293.89
702.25	293.31
702.59	292.66
702.92	292.15
703.26	291.51
703.59	290.85
703.93	290.35
704.26	289.50
704.60	288.92
704.93	288.24
705.26	287.66
705.60	287.20
705.93	286.61
706.27	286.21
706.60	285.79
706.94	285.45
707.27	284.85
707.61	284.22
707.94	283.71
708.27	282.99
708.61	282.37
708.94	281.73
709.28	281.29
709.61	280.73
709.94	280.21
710.28	279.63
710.61	279.12
710.95	278.40
711.28	278.09
711.61	277.47
711.95	277.10
712.28	276.58
712.61	275.98
712.95	275.51
713.28	275.06
713.61	274.49
713.95	273.83
714.28	273.44
714.61	272.97
714.95	272.62
715.28	272.27
715.61	271.84
715.95	271.47
716.28	270.98
716.61	270.48
716.95	269.98
717.28	269.58
717.61	269.12
717.94	268.70
718.28	268.14
718.61	267.72
718.94	267.25
719.27	266.89
719.61	266.65
719.94	266.22
720.27	265.63
720.60	265.14
720.94	264.82
721.27	264.40
721.60	264.09
721.93	263.60
722.27	263.31
722.60	262.96
722.93	262.60
723.26	262.28
723.59	261.96
723.93	261.64
724.26	261.29
724.59	260.98
724.92	260.64
725.25	260.44
725.59	260.06
725.92	259.76
726.25	259.41
726.58	259.05
726.91	258.71
727.24	258.50
727.57	258.33
727.91	257.88
728.24	257.63
728.57	257.32
728.90	257.05
729.23	256.59
729.56	256.21
729.89	255.82
730.22	255.43
730.55	255.10
730.89	254.90
731.22	254.67
731.55	254.30
731.88	254.06
732.21	253.58
732.54	253.40
732.87	253.04
733.20	252.85
733.53	252.56
733.86	252.23
734.19	251.84
734.52	251.52
734.85	251.46
735.18	251.08
735.51	250.84
735.84	250.59
736.17	250.50
736.50	250.38
736.83	250.38
737.16	250.15
737.49	249.82
737.82	249.42
738.15	249.20
738.48	248.92
738.81	248.54
739.14	248.48
739.47	248.26
739.80	248.14
740.13	247.90
740.46	247.77
740.79	247.61
741.12	247.47
741.45	247.26
741.78	246.95
742.11	246.76
742.44	246.40
742.77	246.16
743.10	245.84
743.43	245.62
743.75	245.20
744.08	245.29
744.41	245.13
744.74	245.00
745.07	244.78
745.40	244.67
745.73	244.74
746.06	244.53
746.39	244.26
746.71	244.09
747.04	243.78
747.37	243.48
747.70	243.21
748.03	243.17
748.36	243.05
748.68	242.92
749.01	242.80
749.34	242.76
749.67	242.64
750.00	242.52
750.33	242.40
750.65	242.35
750.98	241.98
751.31	241.85
751.64	241.75
751.97	241.71
752.29	241.63
752.62	241.34
752.95	241.08
753.28	240.97
753.60	240.73
753.93	240.68
754.26	240.62
754.59	240.48
754.91	240.28
755.24	240.11
755.57	239.91
755.90	239.82
756.22	239.67
756.55	239.67
756.88	239.63
757.20	239.53
757.53	239.33
757.86	239.20
758.19	239.24
758.51	239.09
758.84	238.89
759.17	238.80
759.49	238.73
759.82	238.76
760.15	238.75
760.47	238.74
760.80	238.64
761.13	238.56
761.45	238.59
761.78	238.56
762.11	238.47
762.43	238.37
762.76	238.36
763.08	238.33
763.41	238.14
763.74	237.90
764.06	237.79
764.39	237.71
764.71	237.56
765.04	237.36
765.37	237.32
765.69	237.26
766.02	237.20
766.34	237.04
766.67	236.97
767.00	236.92
767.32	236.85
767.65	236.73
767.97	236.55
768.30	236.44
768.62	236.34
768.95	236.23
769.27	236.23
769.60	236.03
769.92	235.94
770.25	235.80
770.57	235.81
770.90	235.65
771.22	235.58
771.55	235.51
771.87	235.41
772.20	235.32
772.52	235.38
772.85	235.44
773.17	235.46
773.50	235.36
773.82	235.23
774.15	235.10
774.47	234.98
774.80	234.91
775.12	234.86
775.45	234.71
775.77	234.73
776.09	234.61
776.42	234.55
776.74	234.49
777.07	234.40
777.39	234.36
777.72	234.29
778.04	234.22
778.36	234.20
778.69	234.20
779.01	234.08
779.33	233.77
779.66	233.47
779.98	233.38
780.31	233.29
780.63	233.33
780.95	233.27
781.28	233.25
781.60	233.15
781.92	233.02
782.25	233.06
782.57	232.99
782.89	232.85
783.22	232.73
783.54	232.56
783.86	232.52
784.19	232.40
784.51	232.43
784.83	232.33
785.16	232.22
785.48	232.18
785.80	232.08
786.12	232.06
786.45	232.02
786.77	231.97
787.09	231.90
787.42	231.74
787.74	231.66
788.06	231.63
788.38	231.55
788.71	231.51
789.03	231.43
789.35	231.36
789.67	231.34
789.99	231.33
790.32	231.30
790.64	231.25
790.96	231.34
791.28	231.18
791.61	231.13
791.93	231.08
792.25	230.97
792.57	231.08
792.89	231.13
793.21	231.15
793.54	231.03
793.86	230.96
794.18	230.89
794.50	230.90
794.82	230.86
795.14	230.95
795.47	230.95
795.79	230.85
796.11	230.83
796.43	230.82
796.75	230.80
797.07	230.84
797.39	230.85
797.71	230.74
798.04	230.75
798.36	230.84
798.68	230.85
799.00	230.90
799.32	230.82
799.64	230.70
799.96	230.68
800.28	230.78
800.60	230.81
800.92	230.86
801.24	230.90
801.56	230.91
801.89	230.83
802.21	230.80
802.53	230.74
802.85	230.76
803.17	230.89
803.49	230.87
803.81	230.79
804.13	230.82
804.45	230.71
804.77	230.60
805.09	230.55
805.41	230.60
805.73	230.59
806.05	230.49
806.37	230.50
806.69	230.49
807.01	230.40
807.33	230.47
807.65	230.35
807.97	230.28
808.28	230.32
808.60	230.27
808.92	230.28
809.24	230.52
809.56	230.40
809.88	230.25
810.20	230.40
810.52	230.47
810.84	230.41
811.16	230.44
811.48	230.57
811.80	230.66
812.12	230.58
812.43	230.63
812.75	230.74
813.07	230.75
813.39	230.68
813.71	230.77
814.03	230.69
814.35	230.71
814.67	230.74
814.98	230.58
815.30	230.62
815.62	230.54
815.94	230.35
816.26	230.46
816.58	230.46
816.89	230.37
817.21	230.28
817.53	230.23
817.85	230.25
818.17	230.24
818.48	230.18
818.80	230.09
819.12	229.98
819.44	229.87
819.76	229.77
820.07	229.73
820.39	229.65
820.71	229.62
821.03	229.67
821.34	229.66
821.66	229.70
821.98	229.73
822.30	229.76
822.61	229.80
822.93	229.72
823.25	229.71
823.57	229.53
823.88	229.70
824.20	229.67
824.52	229.66
824.83	229.63
825.15	229.57
825.47	229.70
825.79	229.75
826.10	229.77
826.42	229.76
826.74	229.70
827.05	229.66
827.37	229.61
827.69	229.63
828.00	229.51
828.32	229.43
828.64	229.36
828.95	229.31
829.27	229.23
829.58	229.17
829.90	229.15
830.22	229.20
830.53	228.95
830.85	228.95
831.17	228.87
831.48	228.80
831.80	228.76
832.11	228.66
832.43	228.55
832.75	228.43
833.06	228.57
833.38	228.65
833.69	228.70
834.01	228.77
834.32	228.65
834.64	228.74
834.96	228.80
835.27	228.84
835.59	228.87
835.90	228.90
836.22	228.89
836.53	228.85
836.85	228.85
837.16	229.08
837.48	229.03
837.79	229.13
838.11	229.20
838.42	229.13
838.74	229.20
839.05	229.21
839.37	229.37
839.68	229.34
840.00	229.28
840.31	229.27
840.63	229.24
840.94	229.21
841.26	229.16
841.57	229.26
841.88	229.31
842.20	229.32
842.51	229.34
842.83	229.38
843.14	229.67
843.46	229.71
843.77	229.61
844.08	229.70
844.40	229.66
844.71	229.62
845.03	229.64
845.34	229.73
845.65	229.74
845.97	229.60
846.28	229.56
846.60	229.50
846.91	229.44
847.22	229.45
847.54	229.46
847.85	229.49
848.16	229.36
848.48	229.33
848.79	229.33
849.10	229.33
849.42	229.37
849.73	229.08
850.04	228.94
850.36	228.90
850.67	228.97
850.98	228.92
851.30	228.86
851.61	228.87
851.92	228.69
852.23	228.78
852.55	228.73
852.86	228.71
853.17	228.69
853.49	228.70
853.80	228.75
854.11	228.77
854.42	228.63
854.74	228.61
855.05	228.50
855.36	228.38
855.67	228.31
855.99	228.28
856.30	228.46
856.61	228.46
856.92	228.39
857.23	228.27
857.55	228.30
857.86	228.27
858.17	228.33
858.48	228.25
858.79	228.16
859.11	228.29
859.42	228.29
859.73	228.30
860.04	228.26
860.35	228.16
860.66	228.06
860.98	228.10
861.29	228.08
861.60	228.04
861.91	228.02
862.22	227.97
862.53	227.93
862.84	227.74
863.16	227.95
863.47	227.90
863.78	227.91
864.09	227.79
864.40	227.72
864.71	227.59
865.02	227.69
865.33	227.66
865.64	227.55
865.95	227.39
866.27	227.67
866.58	227.64
866.89	227.59
867.20	227.55
867.51	227.51
867.82	227.53
868.13	227.60
868.44	227.57
868.75	227.59
869.06	227.53
869.37	227.55
869.68	227.36
869.99	227.43
870.30	227.50
870.61	227.48
870.92	227.52
871.23	227.53
871.54	227.53
871.85	227.60
872.16	227.69
872.47	227.80
872.78	227.65
873.09	227.75
873.40	227.80
873.71	227.93
874.02	228.07
874.33	228.08
874.64	228.05
874.95	228.20
875.26	228.21
875.56	228.28
875.87	228.39
876.18	228.51
876.49	228.72
876.80	228.65
877.11	228.87
877.42	228.97
877.73	229.10
878.04	229.22
878.35	229.24
878.66	229.21
878.96	229.28
879.27	229.17
879.58	229.15
879.89	229.20
880.20	229.27
880.51	229.17
880.82	229.20
881.12	229.26
881.43	229.20
881.74	229.26
882.05	229.23
882.36	229.22
882.67	229.19
882.97	229.02
883.28	229.08
883.59	228.94
883.90	228.90
884.21	228.80
884.51	228.73
884.82	228.77
885.13	228.81
885.44	228.78
885.74	228.88
886.05	228.91
886.36	228.94
886.67	228.94
886.98	229.06
887.28	229.13
887.59	229.12
887.90	229.14
888.20	229.05
888.51	229.06
888.82	228.98
889.13	229.00
889.43	229.09
889.74	229.00
890.05	229.00
890.35	229.03
890.66	229.09
890.97	228.99
891.28	228.91
891.58	228.90
891.89	228.88
892.20	228.82
892.50	228.79
892.81	228.66
893.12	228.51
893.42	228.36
893.73	228.30
894.04	228.31
894.34	228.35
894.65	228.36
894.95	228.37
895.26	228.32
895.57	228.38
895.87	228.20
896.18	228.32
896.48	228.38
896.79	228.44
897.10	228.37
897.40	228.42
897.71	228.42
898.01	228.40
898.32	228.37
898.63	228.34
898.93	228.32
899.24	228.33
899.54	228.44
899.85	228.44
900.15	228.38
900.46	228.37
900.76	228.43
901.07	228.45
901.38	228.41
901.68	228.51
901.99	228.41
902.29	228.44
902.60	228.30
902.90	228.30
903.21	228.09
903.51	228.11
903.82	228.17
904.12	228.14
904.43	228.14
904.73	228.18
905.03	228.16
905.34	228.35
905.64	228.38
905.95	228.30
906.25	228.32
906.56	228.32
906.86	228.34
907.17	228.30
907.47	228.32
907.77	228.31
908.08	228.25
908.38	228.23
908.69	228.23
908.99	228.28
909.30	228.32
909.60	228.51
909.90	228.62
910.21	228.61
910.51	228.62
910.81	228.60
911.12	228.61
911.42	228.70
911.73	228.45
912.03	228.42
912.33	228.51
912.64	228.56
912.94	228.64
913.24	228.54
913.55	228.47
913.85	228.53
914.15	228.64
914.46	228.64
914.76	228.80
915.06	228.84
915.37	228.85
915.67	228.84
915.97	228.76
916.27	228.60
916.58	228.65
916.88	228.67
917.18	228.78
917.49	228.92
917.79	228.90
918.09	228.99
918.39	229.13
918.70	229.10
919.00	229.02
919.30	229.15
919.60	229.20
919.91	229.21
920.21	229.15
920.51	229.07
920.81	229.12
921.12	229.06
921.42	229.10
921.72	229.08
922.02	229.00
922.32	229.00
922.63	229.12
922.93	229.16
923.23	229.08
923.53	228.98
923.83	228.78
924.13	228.78
924.44	228.76
924.74	228.70
925.04	228.65
925.34	228.69
925.64	228.49
925.94	228.50
926.24	228.54
926.55	228.53
926.85	228.52
927.15	228.55
927.45	228.42
927.75	228.38
928.05	228.36
928.35	228.33
928.65	228.43
928.95	228.38
929.26	228.25
929.56	228.27
929.86	228.26
930.16	228.28
930.46	228.27
930.76	228.27
931.06	228.26
931.36	228.27
931.66	228.37
931.96	228.44
932.26	228.41
932.56	228.39
932.86	228.37
933.16	228.40
933.46	228.15
933.76	228.19
934.06	228.18
934.36	228.22
934.66	228.19
934.96	228.09
935.26	228.06
935.56	228.07
935.86	228.00
936.16	228.00
936.46	227.94
936.76	227.90
937.06	227.95
937.36	227.88
937.66	227.88
937.96	227.73
938.26	227.57
938.56	227.58
938.86	227.64
939.16	227.62
939.46	227.61
939.76	227.75
940.06	227.77
940.35	227.68
940.65	227.76
940.95	227.79
941.25	227.78
941.55	227.76
941.85	227.79
942.15	227.88
942.45	227.92
942.75	227.99
943.04	228.01
943.34	228.03
943.64	228.00
943.94	228.02
944.24	228.09
944.54	228.11
944.84	228.03
945.13	227.90
945.43	227.88
945.73	227.87
946.03	227.72
946.33	227.65
946.62	227.69
946.92	227.52
947.22	227.58
947.52	227.54
947.82	227.50
948.11	227.37
948.41	227.33
948.71	227.26
949.01	227.11
949.31	227.13
949.60	227.00
949.90	227.10
950.20	227.16
950.50	227.20
950.79	227.15
951.09	227.25
951.39	227.35
951.69	227.34
951.98	227.37
952.28	227.54
952.58	227.66
952.87	227.73
953.17	227.88
953.47	227.80
953.76	227.78
954.06	227.86
954.36	227.97
954.66	228.02
954.95	228.11
955.25	228.20
955.55	228.24
955.84	228.23
956.14	228.24
956.44	228.22
956.73	228.19
957.03	228.30
957.32	228.34
957.62	228.25
957.92	228.44
958.21	228.41
958.51	228.66
958.81	228.60
959.10	228.54
959.40	228.46
959.69	228.52
959.99	228.61
960.29	228.61
960.58	228.64
960.88	228.65
961.17	228.58
961.47	228.69
961.76	228.66
962.06	228.79
962.36	228.75
962.65	228.67
962.95	228.74
963.24	228.76
963.54	228.72
963.83	228.80
964.13	228.70
964.42	228.63
964.72	228.50
965.01	228.60
965.31	228.62
965.60	228.58
965.90	228.66
966.19	228.69
966.49	228.70
966.78	228.48
967.08	228.55
967.37	228.68
967.67	228.63
967.96	228.63
968.26	228.58
968.55	228.65
968.85	228.63
969.14	228.50
969.43	228.56
969.73	228.55
970.02	228.53
970.32	228.51
970.61	228.57
970.91	228.52
971.20	228.33
971.49	228.34
971.79	228.36
972.08	228.25
972.38	228.18
972.67	228.13
972.96	228.32
973.26	228.23
973.55	228.15
973.85	228.12
974.14	228.06
974.43	228.08
974.73	227.96
975.02	228.11
975.31	228.17
975.61	228.00
975.90	227.94
976.19	227.80
976.49	227.80
976.78	227.73
977.07	227.63
977.37	227.74
977.66	227.72
977.95	227.70
978.24	227.74
978.54	227.74
978.83	227.74
979.12	227.68
979.42	227.64
979.71	227.58
980.00	227.51
980.29	227.55
980.59	227.50
980.88	227.60
981.17	227.46
981.46	227.50
981.76	227.60
982.05	227.63
982.34	227.74
982.63	227.70
982.93	227.66
983.22	227.74
983.51	227.73
983.80	227.71
984.09	227.78
984.39	227.70
984.68	227.77
984.97	227.75
985.26	227.79
985.55	227.83
985.85	227.83
986.14	227.88
986.43	227.91
986.72	227.89
987.01	227.77
987.30	227.80
987.59	227.74
987.89	227.74
988.18	227.78
988.47	227.85
988.76	227.87
989.05	227.87
989.34	227.91
989.63	227.91
989.92	227.99
990.22	227.90
990.51	227.97
990.80	227.93
991.09	228.00
991.38	228.10
991.67	228.16
991.96	228.16
992.25	228.26
992.54	228.25
992.83	228.27
993.12	228.35
993.41	228.39
993.70	228.53
993.99	228.56
994.28	228.61
994.58	228.60
994.87	228.47
995.16	228.56
995.45	228.57
995.74	228.62
996.03	228.67
996.32	228.73
996.61	228.84
996.90	228.84
997.19	228.80
997.48	228.85
997.77	228.90
998.06	228.99
998.34	229.00
998.63	229.10
998.92	229.15
999.21	229.13
999.50	229.18
999.79	229.10
1000.08	229.15
1000.37	229.07
1000.66	228.99
1000.95	229.18
1001.24	229.18
1001.53	229.11
1001.82	229.04
1002.11	229.02
1002.40	229.11
1002.68	229.11
1002.97	229.30
1003.26	229.27
1003.55	229.18
1003.84	229.13
1004.13	229.17
1004.42	229.18
1004.71	229.03
1004.99	229.02
1005.28	229.07
1005.57	229.00
1005.86	228.88
1006.15	228.84
1006.44	228.88
1006.72	228.93
1007.01	228.88
1007.30	228.88
1007.59	228.92
1007.88	228.98
1008.17	228.96
1008.45	228.86
1008.74	228.78
1009.03	228.57
1009.32	228.58
1009.60	228.53
1009.89	228.50
1010.18	228.36
1010.47	228.29
1010.76	228.42
1011.04	228.35
1011.33	228.37
1011.62	228.42
1011.91	228.49
1012.19	228.40
1012.48	228.43
1012.77	228.39
1013.05	228.42
1013.34	228.35
1013.63	228.24
1013.92	228.17
1014.20	227.99
1014.49	228.04
1014.78	228.00
1015.06	227.98
1015.35	227.92
1015.64	227.92
1015.92	227.87
1016.21	227.81
1016.50	227.75
1016.78	227.58
1017.07	227.59
1017.36	227.46
1017.64	227.35
1017.93	227.41
1018.22	227.39
1018.50	227.28
1018.79	227.28
1019.08	227.21
1019.36	227.23
1019.65	227.22
1019.93	227.28
1020.22	227.44
1020.51	227.48
1020.79	227.53
1021.08	226.70
1021.36	226.70
1021.65	227.50
1021.94	227.70
1022.22	226.70
1022.51	227.10
1022.79	228.70
1023.08	228.80
1023.36	229.90
1023.65	228.70
>>>>>End Processed Spectral Data<<<<<
