SpectraSuite Data File
++++++++++++++++++++++++++++++++++++
Date: Fri Feb 01 14:37:12 EST 2013
User: group
Dark Spectrum Present: No
Reference Spectrum Present: No
Number of Sampled Component Spectra: 1
Spectrometers: USB2E7196
Integration Time (usec): 70000 (USB2E7196)
Spectra Averaged: 10 (USB2E7196)
Boxcar Smoothing: 10 (USB2E7196)
Correct for Electrical Dark: No (USB2E7196)
Strobe/Lamp Enabled: No (USB2E7196)
Correct for Detector Non-linearity: No (USB2E7196)
Correct for Stray Light: No (USB2E7196)
Number of Pixels in Processed Spectrum: 2048
>>>>>Begin Processed Spectral Data<<<<<
339.09	0.00
339.48	216.20
339.86	217.20
340.24	218.80
340.63	220.60
341.01	223.90
341.39	223.90
341.78	224.30
342.16	226.40
342.54	226.20
342.93	214.50
343.31	225.38
343.69	225.90
344.07	226.41
344.46	226.93
344.84	227.32
345.22	227.50
345.60	227.56
345.99	227.76
346.37	227.84
346.75	227.83
347.13	227.82
347.52	227.89
347.90	228.02
348.28	227.95
348.66	227.98
349.05	228.01
349.43	228.09
349.81	228.19
350.19	228.28
350.57	228.36
350.96	228.45
351.34	228.49
351.72	228.56
352.10	228.55
352.48	228.46
352.87	228.41
353.25	228.50
353.63	228.70
354.01	228.78
354.39	228.86
354.77	229.00
355.15	229.09
355.54	229.07
355.92	229.07
356.30	229.13
356.68	229.30
357.06	229.36
357.44	229.26
357.82	229.29
358.20	229.33
358.58	229.47
358.97	229.54
359.35	229.61
359.73	229.70
360.11	229.81
360.49	230.00
360.87	230.10
361.25	230.26
361.63	230.34
362.01	230.31
362.39	230.27
362.77	230.24
363.15	230.37
363.53	230.43
363.91	230.41
364.29	230.43
364.67	230.26
365.05	230.22
365.43	230.34
365.81	230.27
366.19	230.35
366.57	230.36
366.95	230.24
367.33	230.21
367.71	230.17
368.09	230.16
368.47	230.01
368.85	230.02
369.23	229.87
369.61	229.82
369.99	229.81
370.37	229.78
370.75	229.90
371.13	229.74
371.51	229.70
371.89	229.69
372.27	229.49
372.65	229.34
373.03	229.36
373.41	229.23
373.78	229.20
374.16	228.99
374.54	228.84
374.92	228.84
375.30	228.75
375.68	228.66
376.06	228.65
376.44	228.57
376.82	228.36
377.19	228.21
377.57	228.08
377.95	227.93
378.33	227.92
378.71	227.61
379.09	227.46
379.47	227.38
379.84	227.22
380.22	227.30
380.60	227.17
380.98	227.00
381.36	226.95
381.73	226.82
382.11	226.87
382.49	226.83
382.87	226.70
383.25	226.63
383.62	226.71
384.00	226.49
384.38	226.53
384.76	226.57
385.13	226.63
385.51	226.51
385.89	226.55
386.27	226.53
386.64	226.61
387.02	226.63
387.40	226.56
387.78	226.56
388.15	226.54
388.53	226.56
388.91	226.49
389.29	226.50
389.66	226.57
390.04	226.54
390.42	226.55
390.79	226.64
391.17	226.55
391.55	226.41
391.92	226.46
392.30	226.42
392.68	226.40
393.05	226.49
393.43	226.52
393.81	226.61
394.18	226.67
394.56	226.67
394.94	226.80
395.31	226.86
395.69	226.99
396.06	227.01
396.44	227.22
396.82	227.30
397.19	227.45
397.57	227.55
397.95	227.63
398.32	227.71
398.70	227.74
399.07	228.02
399.45	228.11
399.82	228.30
400.20	228.40
400.58	228.51
400.95	228.56
401.33	228.82
401.70	229.01
402.08	229.11
402.45	229.31
402.83	229.58
403.20	229.79
403.58	229.98
403.95	230.24
404.33	230.32
404.71	230.65
405.08	230.96
405.46	231.18
405.83	231.38
406.21	231.55
406.58	231.72
406.96	231.92
407.33	232.25
407.70	232.54
408.08	232.96
408.45	233.30
408.83	233.69
409.20	233.97
409.58	234.13
409.95	234.52
410.33	234.96
410.70	235.24
411.08	235.68
411.45	236.18
411.82	236.63
412.20	237.27
412.57	237.93
412.95	238.37
413.32	238.95
413.69	239.60
414.07	240.23
414.44	241.05
414.82	241.73
415.19	242.49
415.56	243.32
415.94	244.22
416.31	245.28
416.68	246.29
417.06	247.50
417.43	248.57
417.81	249.77
418.18	251.06
418.55	252.54
418.93	254.08
419.30	255.54
419.67	257.28
420.04	258.90
420.42	260.46
420.79	262.57
421.16	264.60
421.54	266.78
421.91	269.00
422.28	271.27
422.66	273.77
423.03	276.08
423.40	278.53
423.77	281.12
424.15	283.78
424.52	286.57
424.89	289.49
425.26	292.59
425.64	295.47
426.01	298.56
426.38	301.63
426.75	304.77
427.13	308.05
427.50	311.39
427.87	315.00
428.24	318.77
428.61	322.11
428.99	325.99
429.36	330.08
429.73	334.16
430.10	338.15
430.47	342.08
430.85	346.33
431.22	350.85
431.59	355.53
431.96	359.94
432.33	364.86
432.70	369.80
433.08	375.32
433.45	380.46
433.82	385.71
434.19	391.60
434.56	397.35
434.93	402.88
435.30	408.26
435.68	414.32
436.05	420.10
436.42	426.08
436.79	431.48
437.16	437.21
437.53	443.25
437.90	449.30
438.27	455.39
438.64	461.57
439.01	467.20
439.38	472.22
439.75	477.36
440.13	482.93
440.50	488.15
440.87	492.60
441.24	497.25
441.61	502.35
441.98	505.95
442.35	510.38
442.72	514.95
443.09	519.30
443.46	522.08
443.83	524.04
444.20	525.88
444.57	528.15
444.94	529.61
445.31	531.12
445.68	532.56
446.05	533.41
446.42	533.48
446.79	533.41
447.16	533.36
447.53	533.37
447.90	531.92
448.27	530.41
448.64	527.75
449.01	526.21
449.37	522.75
449.74	519.62
450.11	515.63
450.48	511.11
450.85	506.61
451.22	502.85
451.59	499.21
451.96	495.65
452.33	490.84
452.70	486.50
453.07	481.06
453.43	475.73
453.80	470.45
454.17	465.24
454.54	460.40
454.91	455.09
455.28	449.79
455.65	444.76
456.02	439.84
456.38	435.79
456.75	430.42
457.12	425.92
457.49	421.55
457.86	417.19
458.23	413.52
458.59	409.48
458.96	405.14
459.33	401.33
459.70	397.57
460.07	394.68
460.43	391.09
460.80	387.65
461.17	384.71
461.54	381.62
461.91	378.71
462.27	375.69
462.64	373.13
463.01	370.40
463.38	367.73
463.74	364.83
464.11	362.51
464.48	360.33
464.85	357.95
465.21	356.10
465.58	354.20
465.95	351.80
466.32	349.83
466.68	347.98
467.05	346.18
467.42	344.20
467.78	342.03
468.15	339.91
468.52	338.65
468.88	336.71
469.25	335.00
469.62	333.61
469.98	332.11
470.35	330.65
470.72	329.15
471.08	327.65
471.45	326.39
471.82	324.97
472.18	323.59
472.55	322.62
472.92	321.35
473.28	320.14
473.65	319.04
474.02	317.89
474.38	316.97
474.75	316.07
475.11	315.15
475.48	314.35
475.85	313.85
476.21	313.15
476.58	312.48
476.94	311.94
477.31	311.38
477.67	310.85
478.04	310.30
478.41	309.94
478.77	309.75
479.14	309.28
479.50	308.95
479.87	308.78
480.23	308.47
480.60	308.17
480.96	307.85
481.33	307.91
481.69	307.74
482.06	307.44
482.42	307.24
482.79	307.13
483.15	307.12
483.52	307.17
483.88	307.23
484.25	307.16
484.61	307.24
484.98	307.23
485.34	307.39
485.71	307.62
486.07	307.86
486.44	307.82
486.80	308.28
487.17	308.64
487.53	309.08
487.90	309.54
488.26	310.05
488.62	310.64
488.99	311.04
489.35	311.60
489.72	312.24
490.08	312.91
490.44	313.49
490.81	314.20
491.17	314.76
491.54	315.40
491.90	316.21
492.26	316.96
492.63	317.68
492.99	318.37
493.36	319.24
493.72	320.09
494.08	321.08
494.45	321.88
494.81	322.77
495.17	323.60
495.54	324.64
495.90	325.54
496.26	326.42
496.63	327.27
496.99	328.32
497.35	329.45
497.72	330.40
498.08	331.46
498.44	332.49
498.80	333.57
499.17	334.57
499.53	335.50
499.89	336.38
500.26	337.40
500.62	338.30
500.98	339.19
501.34	340.17
501.71	341.02
502.07	341.85
502.43	342.59
502.79	343.39
503.16	344.01
503.52	344.77
503.88	345.51
504.24	346.22
504.60	346.74
504.97	347.20
505.33	347.75
505.69	348.44
506.05	348.90
506.41	349.38
506.78	349.63
507.14	350.11
507.50	350.63
507.86	351.02
508.22	351.37
508.59	351.59
508.95	351.86
509.31	352.20
509.67	352.53
510.03	352.88
510.39	353.07
510.75	353.19
511.12	353.39
511.48	353.52
511.84	353.68
512.20	353.74
512.56	353.84
512.92	354.03
513.28	353.85
513.64	353.82
514.00	353.84
514.37	354.00
514.73	354.03
515.09	354.00
515.45	354.01
515.81	354.07
516.17	354.04
516.53	353.95
516.89	353.90
517.25	353.89
517.61	354.06
517.97	353.97
518.33	354.12
518.69	354.08
519.05	354.25
519.41	354.47
519.77	354.92
520.13	355.17
520.49	355.39
520.85	355.83
521.21	356.33
521.57	356.66
521.93	357.03
522.29	357.53
522.65	357.99
523.01	358.47
523.37	359.14
523.73	359.91
524.09	360.72
524.45	361.48
524.81	362.27
525.17	363.03
525.53	364.17
525.89	365.17
526.25	366.48
526.61	367.44
526.97	368.44
527.33	369.61
527.68	371.09
528.04	372.49
528.40	373.88
528.76	375.40
529.12	377.16
529.48	378.79
529.84	380.41
530.20	382.30
530.56	384.35
530.91	386.26
531.27	388.38
531.63	390.50
531.99	392.81
532.35	395.14
532.71	397.35
533.07	399.89
533.42	402.65
533.78	405.04
534.14	407.90
534.50	410.79
534.86	413.71
535.21	416.37
535.57	419.34
535.93	422.40
536.29	425.51
536.65	428.72
537.00	432.00
537.36	435.48
537.72	438.95
538.08	442.38
538.44	445.94
538.79	449.46
539.15	453.02
539.51	456.64
539.87	460.49
540.22	464.52
540.58	468.50
540.94	472.18
541.29	476.20
541.65	480.18
542.01	484.30
542.37	488.32
542.72	492.70
543.08	496.85
543.44	501.20
543.79	505.25
544.15	509.61
544.51	514.23
544.87	518.68
545.22	523.10
545.58	527.49
545.94	531.75
546.29	536.23
546.65	540.81
547.01	545.30
547.36	549.80
547.72	554.18
548.07	558.73
548.43	563.22
548.79	567.81
549.14	572.40
549.50	576.81
549.86	581.50
550.21	586.01
550.57	590.80
550.92	595.57
551.28	600.16
551.64	604.72
551.99	609.12
552.35	613.67
552.70	618.39
553.06	623.06
553.41	628.00
553.77	632.93
554.13	637.27
554.48	642.03
554.84	646.72
555.19	651.27
555.55	655.80
555.90	660.42
556.26	664.83
556.61	669.27
556.97	673.82
557.32	677.89
557.68	682.40
558.03	686.89
558.39	690.95
558.74	695.58
559.10	699.83
559.45	704.33
559.81	708.83
560.16	713.17
560.52	717.57
560.87	721.74
561.23	725.67
561.58	730.27
561.94	734.33
562.29	738.06
562.64	742.38
563.00	746.26
563.35	750.46
563.71	754.80
564.06	759.01
564.42	762.88
564.77	767.22
565.12	771.18
565.48	775.08
565.83	779.04
566.19	782.89
566.54	786.70
566.89	790.18
567.25	793.92
567.60	797.45
567.96	800.82
568.31	804.55
568.66	807.97
569.02	811.23
569.37	814.67
569.72	818.18
570.08	821.08
570.43	824.47
570.78	827.42
571.14	830.16
571.49	832.98
571.84	836.40
572.20	839.07
572.55	841.75
572.90	844.47
573.26	846.96
573.61	849.24
573.96	851.45
574.31	853.60
574.67	855.44
575.02	857.27
575.37	859.26
575.72	860.62
576.08	862.59
576.43	864.18
576.78	865.81
577.13	867.54
577.49	869.40
577.84	870.60
578.19	872.09
578.54	873.71
578.90	875.01
579.25	875.80
579.60	876.81
579.95	877.78
580.30	878.49
580.66	879.46
581.01	880.22
581.36	881.16
581.71	882.18
582.06	883.06
582.42	883.81
582.77	884.35
583.12	884.93
583.47	885.41
583.82	886.27
584.17	886.67
584.53	887.06
584.88	887.26
585.23	887.76
585.58	888.00
585.93	888.14
586.28	888.53
586.63	888.81
586.98	889.15
587.34	889.41
587.69	889.75
588.04	889.82
588.39	890.32
588.74	890.17
589.09	889.95
589.44	889.63
589.79	889.52
590.14	889.72
590.49	889.72
590.84	889.43
591.19	888.94
591.54	888.26
591.89	887.42
592.25	887.02
592.60	886.14
592.95	885.17
593.30	884.40
593.65	883.27
594.00	882.30
594.35	881.53
594.70	880.33
595.05	879.29
595.40	878.18
595.75	876.86
596.10	875.82
596.45	875.10
596.80	874.15
597.15	873.17
597.50	871.90
597.85	870.95
598.19	869.79
598.54	868.95
598.89	868.12
599.24	867.28
599.59	866.19
599.94	865.13
600.29	864.00
600.64	862.80
600.99	861.50
601.34	860.31
601.69	858.72
602.04	857.32
602.39	855.82
602.74	854.46
603.08	853.17
603.43	852.05
603.78	850.30
604.13	848.77
604.48	847.33
604.83	845.65
605.18	843.83
605.53	841.91
605.87	839.67
606.22	837.95
606.57	835.95
606.92	833.92
607.27	832.40
607.62	830.99
607.96	828.98
608.31	827.30
608.66	825.34
609.01	823.37
609.36	821.32
609.70	818.98
610.05	816.68
610.40	814.32
610.75	811.90
611.10	809.61
611.44	806.82
611.79	804.25
612.14	801.88
612.49	799.25
612.83	796.85
613.18	794.46
613.53	792.12
613.88	789.62
614.22	787.06
614.57	784.15
614.92	781.31
615.27	778.93
615.61	776.17
615.96	773.39
616.31	771.02
616.65	769.03
617.00	766.69
617.35	764.40
617.70	762.06
618.04	759.33
618.39	756.73
618.74	754.67
619.08	752.01
619.43	749.52
619.78	747.30
620.12	744.97
620.47	742.54
620.82	739.58
621.16	737.22
621.51	735.05
621.85	732.61
622.20	730.02
622.55	727.31
622.89	724.78
623.24	722.62
623.59	719.86
623.93	717.06
624.28	714.55
624.62	712.21
624.97	709.90
625.32	707.69
625.66	705.40
626.01	702.86
626.35	700.49
626.70	698.07
627.04	695.63
627.39	693.17
627.73	690.70
628.08	688.46
628.43	685.89
628.77	683.15
629.12	680.54
629.46	677.91
629.81	675.35
630.15	672.80
630.50	669.96
630.84	667.21
631.19	664.36
631.53	661.57
631.88	658.43
632.22	655.09
632.57	652.33
632.91	649.48
633.26	646.59
633.60	643.68
633.95	640.96
634.29	638.15
634.64	635.56
634.98	632.68
635.32	630.13
635.67	627.64
636.01	625.06
636.36	622.51
636.70	620.13
637.05	617.68
637.39	615.16
637.73	612.89
638.08	611.07
638.42	608.82
638.77	606.68
639.11	604.39
639.45	602.09
639.80	599.56
640.14	597.12
640.49	594.75
640.83	592.49
641.17	589.91
641.52	587.58
641.86	585.04
642.20	582.86
642.55	580.36
642.89	577.76
643.23	575.27
643.58	572.84
643.92	570.32
644.26	567.83
644.61	565.71
644.95	563.21
645.29	560.16
645.64	557.59
645.98	555.02
646.32	552.70
646.66	550.42
647.01	548.05
647.35	545.91
647.69	543.54
648.04	541.22
648.38	538.94
648.72	536.19
649.06	533.64
649.41	531.22
649.75	528.39
650.09	525.99
650.43	523.62
650.78	521.10
651.12	518.79
651.46	516.38
651.80	513.91
652.14	511.40
652.49	509.12
652.83	506.88
653.17	504.45
653.51	501.97
653.85	499.53
654.20	497.09
654.54	494.50
654.88	492.16
655.22	489.67
655.56	487.36
655.90	485.28
656.25	483.18
656.59	480.77
656.93	478.78
657.27	476.70
657.61	474.27
657.95	472.30
658.29	469.98
658.64	468.01
658.98	465.60
659.32	463.28
659.66	461.17
660.00	458.93
660.34	456.80
660.68	454.68
661.02	452.62
661.36	450.79
661.70	448.76
662.05	446.80
662.39	445.14
662.73	443.20
663.07	441.28
663.41	439.39
663.75	437.56
664.09	435.69
664.43	433.79
664.77	432.10
665.11	430.36
665.45	428.71
665.79	426.77
666.13	425.12
666.47	423.48
666.81	421.78
667.15	420.00
667.49	418.17
667.83	416.72
668.17	414.86
668.51	412.96
668.85	411.30
669.19	409.71
669.53	407.87
669.87	406.20
670.21	404.67
670.55	403.01
670.89	401.45
671.23	399.94
671.57	398.28
671.91	396.65
672.25	394.91
672.58	393.28
672.92	391.58
673.26	390.09
673.60	388.77
673.94	387.27
674.28	385.94
674.62	384.79
674.96	383.29
675.30	382.09
675.64	380.92
675.97	379.51
676.31	378.12
676.65	376.70
676.99	375.52
677.33	374.23
677.67	372.78
678.01	371.37
678.34	370.08
678.68	368.87
679.02	367.71
679.36	366.56
679.70	365.36
680.04	364.29
680.37	362.85
680.71	361.43
681.05	360.23
681.39	359.01
681.73	357.71
682.06	356.43
682.40	355.36
682.74	354.15
683.08	353.15
683.42	351.90
683.75	350.78
684.09	349.34
684.43	348.11
684.77	347.02
685.10	345.85
685.44	344.57
685.78	343.41
686.12	342.07
686.45	340.82
686.79	339.65
687.13	338.39
687.46	337.40
687.80	336.27
688.14	335.08
688.48	333.90
688.81	332.84
689.15	331.84
689.49	330.54
689.82	329.35
690.16	328.10
690.50	327.14
690.83	326.04
691.17	325.09
691.51	324.03
691.84	322.98
692.18	321.98
692.52	321.10
692.85	319.98
693.19	319.04
693.52	317.97
693.86	316.94
694.20	315.97
694.53	315.04
694.87	314.10
695.21	313.19
695.54	312.21
695.88	311.15
696.21	310.09
696.55	309.30
696.88	308.40
697.22	307.59
697.56	306.68
697.89	305.83
698.23	304.80
698.56	303.94
698.90	303.20
699.23	302.30
699.57	301.37
699.90	300.71
700.24	299.91
700.58	299.20
700.91	298.39
701.25	297.80
701.58	297.07
701.92	296.45
702.25	295.70
702.59	295.00
702.92	294.29
703.26	293.68
703.59	292.93
703.93	292.48
704.26	291.81
704.60	291.34
704.93	290.61
705.26	290.16
705.60	289.60
705.93	288.93
706.27	288.42
706.60	287.97
706.94	287.23
707.27	286.61
707.61	286.00
707.94	285.52
708.27	284.72
708.61	284.09
708.94	283.49
709.28	283.03
709.61	282.46
709.94	281.89
710.28	281.32
710.61	280.86
710.95	280.06
711.28	279.66
711.61	278.88
711.95	278.52
712.28	277.93
712.61	277.37
712.95	276.96
713.28	276.51
713.61	275.85
713.95	275.42
714.28	274.93
714.61	274.58
714.95	274.04
715.28	273.60
715.61	273.07
715.95	272.68
716.28	272.10
716.61	271.63
716.95	271.26
717.28	270.74
717.61	270.28
717.94	269.93
718.28	269.30
718.61	268.90
718.94	268.52
719.27	268.08
719.61	267.78
719.94	267.23
720.27	266.70
720.60	266.41
720.94	266.06
721.27	265.71
721.60	265.32
721.93	265.03
722.27	264.90
722.60	264.60
722.93	264.17
723.26	263.87
723.59	263.49
723.93	263.10
724.26	262.85
724.59	262.49
724.92	262.17
725.25	261.90
725.59	261.62
725.92	261.14
726.25	260.84
726.58	260.33
726.91	260.07
727.24	259.88
727.57	259.54
727.91	259.19
728.24	258.86
728.57	258.42
728.90	258.13
729.23	257.69
729.56	257.33
729.89	256.93
730.22	256.60
730.55	256.36
730.89	256.03
731.22	255.60
731.55	255.22
731.88	254.83
732.21	254.53
732.54	254.12
732.87	253.83
733.20	253.49
733.53	253.30
733.86	253.03
734.19	252.70
734.52	252.33
734.85	252.07
735.18	251.84
735.51	251.61
735.84	251.28
736.17	251.03
736.50	250.66
736.83	250.68
737.16	250.44
737.49	250.05
737.82	249.84
738.15	249.70
738.48	249.47
738.81	249.24
739.14	249.05
739.47	248.91
739.80	248.78
740.13	248.66
740.46	248.30
740.79	247.98
741.12	247.64
741.45	247.38
741.78	247.10
742.11	246.87
742.44	246.61
742.77	246.37
743.10	246.25
743.43	246.18
743.75	245.70
744.08	245.72
744.41	245.64
744.74	245.50
745.07	245.35
745.40	245.32
745.73	245.18
746.06	244.98
746.39	244.74
746.71	244.48
747.04	244.16
747.37	244.06
747.70	244.03
748.03	243.95
748.36	243.90
748.68	243.74
749.01	243.60
749.34	243.47
749.67	243.40
750.00	243.05
750.33	242.98
750.65	242.88
750.98	242.50
751.31	242.37
751.64	242.25
751.97	242.20
752.29	242.02
752.62	241.82
752.95	241.72
753.28	241.57
753.60	241.46
753.93	241.48
754.26	241.41
754.59	241.18
754.91	241.09
755.24	240.91
755.57	240.77
755.90	240.72
756.22	240.63
756.55	240.37
756.88	240.38
757.20	240.16
757.53	240.05
757.86	239.92
758.19	239.77
758.51	239.60
758.84	239.35
759.17	239.25
759.49	239.19
759.82	239.20
760.15	239.03
760.47	239.00
760.80	238.81
761.13	238.66
761.45	238.53
761.78	238.41
762.11	238.34
762.43	238.28
762.76	238.14
763.08	238.06
763.41	238.03
763.74	237.86
764.06	237.75
764.39	237.68
764.71	237.64
765.04	237.61
765.37	237.54
765.69	237.49
766.02	237.36
766.34	237.20
766.67	236.91
767.00	236.99
767.32	236.95
767.65	236.92
767.97	236.93
768.30	236.91
768.62	236.80
768.95	236.72
769.27	236.65
769.60	236.51
769.92	236.36
770.25	236.23
770.57	236.10
770.90	236.11
771.22	235.96
771.55	235.95
771.87	235.82
772.20	235.64
772.52	235.66
772.85	235.73
773.17	235.64
773.50	235.57
773.82	235.42
774.15	235.16
774.47	235.02
774.80	234.87
775.12	234.73
775.45	234.68
775.77	234.66
776.09	234.58
776.42	234.43
776.74	234.33
777.07	234.20
777.39	234.20
777.72	234.14
778.04	234.10
778.36	233.81
778.69	233.80
779.01	233.85
779.33	233.61
779.66	233.37
779.98	233.30
780.31	233.19
780.63	233.19
780.95	233.22
781.28	233.16
781.60	232.99
781.92	232.97
782.25	232.90
782.57	232.77
782.89	232.79
783.22	232.80
783.54	232.82
783.86	232.92
784.19	232.87
784.51	232.75
784.83	232.63
785.16	232.67
785.48	232.64
785.80	232.59
786.12	232.58
786.45	232.56
786.77	232.54
787.09	232.54
787.42	232.50
787.74	232.49
788.06	232.50
788.38	232.61
788.71	232.61
789.03	232.61
789.35	232.65
789.67	232.50
789.99	232.48
790.32	232.36
790.64	232.40
790.96	232.59
791.28	232.56
791.61	232.62
791.93	232.66
792.25	232.61
792.57	232.73
792.89	232.68
793.21	232.63
793.54	232.54
793.86	232.52
794.18	232.46
794.50	232.46
794.82	232.50
795.14	232.33
795.47	232.29
795.79	232.25
796.11	232.19
796.43	232.17
796.75	232.16
797.07	232.29
797.39	232.18
797.71	231.99
798.04	231.96
798.36	231.90
798.68	231.90
799.00	232.00
799.32	231.83
799.64	231.85
799.96	231.76
800.28	231.90
800.60	231.85
800.92	231.90
801.24	231.79
801.56	231.64
801.89	231.72
802.21	231.64
802.53	231.61
802.85	231.60
803.17	231.66
803.49	231.65
803.81	231.57
804.13	231.51
804.45	231.41
804.77	231.43
805.09	231.42
805.41	231.41
805.73	231.22
806.05	231.24
806.37	231.20
806.69	231.15
807.01	231.15
807.33	231.17
807.65	231.03
807.97	231.17
808.28	231.18
808.60	231.15
808.92	231.14
809.24	231.18
809.56	231.19
809.88	231.08
810.20	231.04
810.52	230.97
810.84	230.94
811.16	230.89
811.48	230.80
811.80	230.85
812.12	230.68
812.43	230.80
812.75	230.69
813.07	230.62
813.39	230.72
813.71	230.52
814.03	230.43
814.35	230.46
814.67	230.34
814.98	230.30
815.30	230.31
815.62	230.28
815.94	230.11
816.26	230.19
816.58	230.24
816.89	230.28
817.21	230.27
817.53	230.22
817.85	230.24
818.17	230.10
818.48	229.99
818.80	230.10
819.12	229.94
819.44	229.90
819.76	229.85
820.07	229.77
820.39	229.77
820.71	229.75
821.03	229.66
821.34	229.60
821.66	229.58
821.98	229.49
822.30	229.35
822.61	229.49
822.93	229.35
823.25	229.22
823.57	229.09
823.88	229.07
824.20	229.15
824.52	229.16
824.83	229.31
825.15	229.30
825.47	229.30
825.79	229.33
826.10	229.28
826.42	229.22
826.74	229.25
827.05	229.37
827.37	229.34
827.69	229.38
828.00	229.27
828.32	229.35
828.64	229.32
828.95	229.43
829.27	229.24
829.58	229.20
829.90	229.26
830.22	229.20
830.53	229.11
830.85	228.97
831.17	228.90
831.48	228.83
831.80	228.76
832.11	228.60
832.43	228.57
832.75	228.56
833.06	228.74
833.38	228.73
833.69	228.65
834.01	228.68
834.32	228.62
834.64	228.72
834.96	228.65
835.27	228.64
835.59	228.54
835.90	228.60
836.22	228.58
836.53	228.51
836.85	228.51
837.16	228.64
837.48	228.88
837.79	229.02
838.11	228.98
838.42	229.05
838.74	229.14
839.05	229.11
839.37	229.11
839.68	229.05
840.00	229.08
840.31	229.19
840.63	229.17
840.94	229.27
841.26	229.17
841.57	229.14
841.88	229.21
842.20	229.31
842.51	229.47
842.83	229.51
843.14	229.74
843.46	229.87
843.77	229.90
844.08	229.77
844.40	229.71
844.71	229.77
845.03	229.79
845.34	229.75
845.65	229.77
845.97	229.76
846.28	229.74
846.60	229.80
846.91	229.65
847.22	229.70
847.54	229.74
847.85	229.91
848.16	229.86
848.48	229.79
848.79	229.91
849.10	229.74
849.42	229.78
849.73	229.63
850.04	229.63
850.36	229.56
850.67	229.53
850.98	229.50
851.30	229.61
851.61	229.57
851.92	229.57
852.23	229.65
852.55	229.75
852.86	229.77
853.17	229.69
853.49	229.75
853.80	229.77
854.11	229.60
854.42	229.50
854.74	229.58
855.05	229.65
855.36	229.53
855.67	229.51
855.99	229.43
856.30	229.59
856.61	229.49
856.92	229.41
857.23	229.41
857.55	229.27
857.86	229.09
858.17	229.13
858.48	229.08
858.79	229.06
859.11	228.95
859.42	228.86
859.73	228.84
860.04	228.86
860.35	228.69
860.66	228.60
860.98	228.60
861.29	228.60
861.60	228.57
861.91	228.49
862.22	228.52
862.53	228.49
862.84	228.27
863.16	228.32
863.47	228.23
863.78	228.20
864.09	228.34
864.40	228.35
864.71	228.35
865.02	228.39
865.33	228.31
865.64	228.30
865.95	228.30
866.27	228.40
866.58	228.29
866.89	228.39
867.20	228.43
867.51	228.33
867.82	228.21
868.13	228.24
868.44	228.20
868.75	228.16
869.06	228.16
869.37	228.12
869.68	228.08
869.99	228.14
870.30	228.20
870.61	228.17
870.92	228.17
871.23	228.19
871.54	228.20
871.85	228.30
872.16	228.40
872.47	228.39
872.78	228.30
873.09	228.41
873.40	228.42
873.71	228.45
874.02	228.56
874.33	228.67
874.64	228.67
874.95	228.72
875.26	228.81
875.56	228.85
875.87	228.91
876.18	228.89
876.49	229.15
876.80	229.08
877.11	229.06
877.42	229.07
877.73	229.01
878.04	229.02
878.35	228.96
878.66	228.87
878.96	228.93
879.27	228.88
879.58	228.88
879.89	228.87
880.20	229.00
880.51	229.03
880.82	228.98
881.12	228.98
881.43	228.99
881.74	228.87
882.05	228.83
882.36	228.86
882.67	228.97
882.97	228.68
883.28	228.73
883.59	228.69
883.90	228.72
884.21	228.81
884.51	228.81
884.82	228.80
885.13	228.92
885.44	228.83
885.74	228.86
886.05	228.80
886.36	228.81
886.67	228.70
886.98	228.81
887.28	228.85
887.59	228.81
887.90	228.89
888.20	228.89
888.51	229.00
888.82	228.91
889.13	228.89
889.43	229.09
889.74	229.08
890.05	229.08
890.35	229.06
890.66	228.96
890.97	228.95
891.28	228.91
891.58	228.83
891.89	228.90
892.20	228.75
892.50	228.76
892.81	228.71
893.12	228.78
893.42	228.57
893.73	228.55
894.04	228.59
894.34	228.50
894.65	228.53
894.95	228.56
895.26	228.59
895.57	228.61
895.87	228.48
896.18	228.47
896.48	228.58
896.79	228.56
897.10	228.52
897.40	228.52
897.71	228.50
898.01	228.51
898.32	228.48
898.63	228.66
898.93	228.60
899.24	228.60
899.54	228.52
899.85	228.51
900.15	228.41
900.46	228.41
900.76	228.38
901.07	228.32
901.38	228.10
901.68	228.02
901.99	227.95
902.29	227.89
902.60	227.83
902.90	227.70
903.21	227.68
903.51	227.74
903.82	227.75
904.12	227.77
904.43	227.74
904.73	227.74
905.03	227.65
905.34	227.82
905.64	227.80
905.95	227.85
906.25	227.93
906.56	228.01
906.86	227.96
907.17	228.06
907.47	228.09
907.77	228.07
908.08	228.19
908.38	228.24
908.69	228.22
908.99	228.32
909.30	228.41
909.60	228.45
909.90	228.47
910.21	228.35
910.51	228.36
910.81	228.45
911.12	228.48
911.42	228.53
911.73	228.41
912.03	228.38
912.33	228.37
912.64	228.42
912.94	228.41
913.24	228.41
913.55	228.35
913.85	228.38
914.15	228.50
914.46	228.54
914.76	228.55
915.06	228.64
915.37	228.59
915.67	228.55
915.97	228.59
916.27	228.55
916.58	228.72
916.88	228.80
917.18	228.69
917.49	228.77
917.79	228.80
918.09	228.85
918.39	228.91
918.70	228.91
919.00	228.85
919.30	229.00
919.60	229.07
919.91	229.09
920.21	229.20
920.51	229.18
920.81	229.10
921.12	229.07
921.42	228.98
921.72	229.03
922.02	229.06
922.32	229.00
922.63	229.06
922.93	229.10
923.23	229.05
923.53	229.09
923.83	229.02
924.13	229.09
924.44	229.08
924.74	229.19
925.04	229.27
925.34	229.28
925.64	229.10
925.94	228.97
926.24	229.10
926.55	228.90
926.85	228.89
927.15	228.84
927.45	228.83
927.75	228.83
928.05	228.74
928.35	228.66
928.65	228.80
928.95	228.68
929.26	228.51
929.56	228.55
929.86	228.59
930.16	228.63
930.46	228.48
930.76	228.46
931.06	228.35
931.36	228.31
931.66	228.30
931.96	228.41
932.26	228.37
932.56	228.22
932.86	228.34
933.16	228.39
933.46	228.48
933.76	228.48
934.06	228.50
934.36	228.53
934.66	228.45
934.96	228.33
935.26	228.36
935.56	228.41
935.86	228.23
936.16	228.16
936.46	228.07
936.76	228.00
937.06	227.85
937.36	227.92
937.66	227.80
937.96	227.81
938.26	227.65
938.56	227.70
938.86	227.65
939.16	227.54
939.46	227.46
939.76	227.34
940.06	227.31
940.35	227.27
940.65	227.22
940.95	227.29
941.25	227.28
941.55	227.21
941.85	227.27
942.15	227.41
942.45	227.45
942.75	227.40
943.04	227.43
943.34	227.60
943.64	227.47
943.94	227.50
944.24	227.46
944.54	227.55
944.84	227.46
945.13	227.51
945.43	227.54
945.73	227.51
946.03	227.45
946.33	227.51
946.62	227.51
946.92	227.50
947.22	227.50
947.52	227.47
947.82	227.52
948.11	227.37
948.41	227.39
948.71	227.31
949.01	227.36
949.31	227.40
949.60	227.31
949.90	227.42
950.20	227.36
950.50	227.40
950.79	227.25
951.09	227.32
951.39	227.36
951.69	227.35
951.98	227.42
952.28	227.48
952.58	227.39
952.87	227.42
953.17	227.51
953.47	227.55
953.76	227.65
954.06	227.70
954.36	227.84
954.66	227.80
954.95	227.98
955.25	227.99
955.55	227.92
955.84	227.95
956.14	227.98
956.44	228.09
956.73	228.10
957.03	228.30
957.32	228.40
957.62	228.31
957.92	228.50
958.21	228.58
958.51	228.90
958.81	228.90
959.10	228.88
959.40	228.89
959.69	228.90
959.99	228.95
960.29	228.86
960.58	228.88
960.88	228.90
961.17	228.86
961.47	228.89
961.76	228.92
962.06	229.02
962.36	229.04
962.65	228.89
962.95	228.90
963.24	228.87
963.54	228.88
963.83	228.88
964.13	228.74
964.42	228.60
964.72	228.37
965.01	228.44
965.31	228.55
965.60	228.54
965.90	228.71
966.19	228.48
966.49	228.51
966.78	228.38
967.08	228.41
967.37	228.36
967.67	228.35
967.96	228.47
968.26	228.39
968.55	228.27
968.85	228.42
969.14	228.33
969.43	228.18
969.73	228.17
970.02	228.14
970.32	228.17
970.61	228.23
970.91	228.23
971.20	228.24
971.49	228.09
971.79	228.07
972.08	227.93
972.38	227.96
972.67	227.99
972.96	228.05
973.26	227.90
973.55	227.94
973.85	227.88
974.14	227.80
974.43	227.80
974.73	227.82
975.02	227.79
975.31	227.71
975.61	227.72
975.90	227.68
976.19	227.63
976.49	227.62
976.78	227.44
977.07	227.40
977.37	227.39
977.66	227.46
977.95	227.49
978.24	227.37
978.54	227.53
978.83	227.43
979.12	227.42
979.42	227.44
979.71	227.46
980.00	227.50
980.29	227.47
980.59	227.38
980.88	227.41
981.17	227.38
981.46	227.41
981.76	227.52
982.05	227.59
982.34	227.61
982.63	227.63
982.93	227.82
983.22	227.80
983.51	227.72
983.80	227.67
984.09	227.64
984.39	227.69
984.68	227.65
984.97	227.60
985.26	227.55
985.55	227.68
985.85	227.54
986.14	227.57
986.43	227.64
986.72	227.73
987.01	227.77
987.30	227.75
987.59	227.79
987.89	227.80
988.18	227.78
988.47	227.80
988.76	227.79
989.05	227.75
989.34	227.85
989.63	227.96
989.92	227.98
990.22	227.97
990.51	227.96
990.80	227.90
991.09	228.08
991.38	228.09
991.67	228.02
991.96	228.13
992.25	228.18
992.54	228.17
992.83	228.06
993.12	228.02
993.41	228.11
993.70	228.16
993.99	228.20
994.28	228.23
994.58	228.31
994.87	228.36
995.16	228.45
995.45	228.51
995.74	228.42
996.03	228.58
996.32	228.58
996.61	228.58
996.90	228.67
997.19	228.62
997.48	228.72
997.77	228.72
998.06	228.75
998.34	228.62
998.63	228.66
998.92	228.80
999.21	228.82
999.50	228.83
999.79	228.80
1000.08	228.83
1000.37	228.77
1000.66	228.70
1000.95	228.80
1001.24	228.77
1001.53	228.79
1001.82	228.77
1002.11	228.67
1002.40	228.71
1002.68	228.81
1002.97	228.95
1003.26	229.03
1003.55	228.91
1003.84	228.93
1004.13	228.91
1004.42	228.88
1004.71	228.80
1004.99	228.69
1005.28	228.66
1005.57	228.64
1005.86	228.56
1006.15	228.47
1006.44	228.43
1006.72	228.46
1007.01	228.30
1007.30	228.32
1007.59	228.12
1007.88	228.06
1008.17	228.01
1008.45	228.03
1008.74	227.98
1009.03	227.74
1009.32	227.73
1009.60	227.71
1009.89	227.63
1010.18	227.46
1010.47	227.48
1010.76	227.50
1011.04	227.50
1011.33	227.64
1011.62	227.59
1011.91	227.56
1012.19	227.54
1012.48	227.52
1012.77	227.49
1013.05	227.52
1013.34	227.44
1013.63	227.47
1013.92	227.48
1014.20	227.40
1014.49	227.28
1014.78	227.38
1015.06	227.42
1015.35	227.35
1015.64	227.45
1015.92	227.47
1016.21	227.50
1016.50	227.58
1016.78	227.50
1017.07	227.51
1017.36	227.36
1017.64	227.29
1017.93	227.38
1018.22	227.37
1018.50	227.41
1018.79	227.45
1019.08	227.41
1019.36	227.39
1019.65	227.44
1019.93	227.56
1020.22	227.70
1020.51	227.93
1020.79	227.85
1021.08	227.10
1021.36	227.60
1021.65	228.20
1021.94	227.90
1022.22	227.00
1022.51	228.80
1022.79	228.80
1023.08	228.60
1023.36	231.80
1023.65	228.40
>>>>>End Processed Spectral Data<<<<<
