SpectraSuite Data File
++++++++++++++++++++++++++++++++++++
Date: Fri Feb 01 14:39:41 EST 2013
User: group
Dark Spectrum Present: No
Reference Spectrum Present: No
Number of Sampled Component Spectra: 1
Spectrometers: USB2E7196
Integration Time (usec): 70000 (USB2E7196)
Spectra Averaged: 10 (USB2E7196)
Boxcar Smoothing: 10 (USB2E7196)
Correct for Electrical Dark: No (USB2E7196)
Strobe/Lamp Enabled: No (USB2E7196)
Correct for Detector Non-linearity: No (USB2E7196)
Correct for Stray Light: No (USB2E7196)
Number of Pixels in Processed Spectrum: 2048
>>>>>Begin Processed Spectral Data<<<<<
339.09	0.00
339.48	214.20
339.86	216.60
340.24	217.80
340.63	219.60
341.01	221.40
341.39	221.20
341.78	223.70
342.16	224.00
342.54	225.40
342.93	214.00
343.31	224.81
343.69	225.50
344.07	226.05
344.46	226.55
344.84	226.97
345.22	227.20
345.60	227.58
345.99	227.80
346.37	228.05
346.75	228.14
347.13	228.29
347.52	228.32
347.90	228.36
348.28	228.51
348.66	228.49
349.05	228.42
349.43	228.51
349.81	228.51
350.19	228.43
350.57	228.39
350.96	228.39
351.34	228.39
351.72	228.37
352.10	228.42
352.48	228.50
352.87	228.55
353.25	228.69
353.63	228.79
354.01	228.88
354.39	228.94
354.77	229.02
355.15	229.05
355.54	229.13
355.92	229.16
356.30	229.21
356.68	229.47
357.06	229.59
357.44	229.68
357.82	229.80
358.20	230.03
358.58	230.04
358.97	230.19
359.35	230.43
359.73	230.56
360.11	230.70
360.49	230.71
360.87	230.79
361.25	230.96
361.63	231.02
362.01	231.08
362.39	231.07
362.77	231.12
363.15	231.09
363.53	231.07
363.91	231.19
364.29	231.14
364.67	231.05
365.05	231.12
365.43	230.97
365.81	230.95
366.19	230.92
366.57	231.04
366.95	230.96
367.33	230.93
367.71	230.91
368.09	230.88
368.47	230.98
368.85	230.90
369.23	230.84
369.61	230.72
369.99	230.70
370.37	230.73
370.75	230.80
371.13	230.77
371.51	230.71
371.89	230.66
372.27	230.66
372.65	230.56
373.03	230.52
373.41	230.56
373.78	230.45
374.16	230.35
374.54	230.20
374.92	230.19
375.30	230.04
375.68	229.93
376.06	229.88
376.44	229.74
376.82	229.68
377.19	229.60
377.57	229.43
377.95	229.35
378.33	229.16
378.71	228.99
379.09	228.98
379.47	228.88
379.84	228.80
380.22	228.63
380.60	228.59
380.98	228.46
381.36	228.49
381.73	228.35
382.11	228.24
382.49	228.10
382.87	228.02
383.25	227.98
383.62	228.03
384.00	227.94
384.38	227.82
384.76	227.75
385.13	227.68
385.51	227.63
385.89	227.48
386.27	227.44
386.64	227.40
387.02	227.27
387.40	227.28
387.78	227.18
388.15	227.22
388.53	227.07
388.91	226.94
389.29	226.84
389.66	226.87
390.04	226.81
390.42	226.86
390.79	226.80
391.17	226.67
391.55	226.50
391.92	226.42
392.30	226.41
392.68	226.46
393.05	226.44
393.43	226.46
393.81	226.52
394.18	226.48
394.56	226.39
394.94	226.50
395.31	226.37
395.69	226.38
396.06	226.40
396.44	226.48
396.82	226.58
397.19	226.60
397.57	226.62
397.95	226.77
398.32	226.70
398.70	226.69
399.07	226.80
399.45	226.80
399.82	226.79
400.20	226.72
400.58	226.74
400.95	226.75
401.33	226.77
401.70	226.96
402.08	227.04
402.45	227.25
402.83	227.34
403.20	227.53
403.58	227.72
403.95	227.90
404.33	228.03
404.71	228.11
405.08	228.41
405.46	228.54
405.83	228.57
406.21	228.80
406.58	229.05
406.96	229.25
407.33	229.48
407.70	229.71
408.08	230.19
408.45	230.42
408.83	230.72
409.20	230.91
409.58	231.09
409.95	231.40
410.33	231.72
410.70	231.96
411.08	232.30
411.45	232.56
411.82	232.91
412.20	233.21
412.57	233.67
412.95	233.86
413.32	234.27
413.69	234.80
414.07	235.26
414.44	235.70
414.82	236.19
415.19	236.78
415.56	237.37
415.94	237.73
416.31	238.39
416.68	238.99
417.06	239.85
417.43	240.46
417.81	241.28
418.18	242.00
418.55	242.91
418.93	243.72
419.30	244.61
419.67	245.49
420.04	246.51
420.42	247.44
420.79	248.70
421.16	249.88
421.54	251.10
421.91	252.22
422.28	253.60
422.66	254.92
423.03	256.33
423.40	257.70
423.77	259.20
424.15	260.69
424.52	262.08
424.89	263.69
425.26	265.28
425.64	266.79
426.01	268.30
426.38	269.94
426.75	271.79
427.13	273.63
427.50	275.55
427.87	277.57
428.24	279.64
428.61	281.36
428.99	283.45
429.36	285.53
429.73	287.73
430.10	289.83
430.47	292.08
430.85	294.25
431.22	296.56
431.59	299.25
431.96	301.60
432.33	304.29
432.70	306.79
433.08	309.88
433.45	312.73
433.82	315.62
434.19	318.66
434.56	321.62
434.93	324.46
435.30	327.35
435.68	330.40
436.05	333.34
436.42	336.43
436.79	339.11
437.16	342.13
437.53	345.14
437.90	348.11
438.27	351.02
438.64	354.09
439.01	356.92
439.38	359.25
439.75	361.60
440.13	364.35
440.50	366.85
440.87	368.80
441.24	370.80
441.61	373.25
441.98	375.03
442.35	377.07
442.72	379.19
443.09	381.10
443.46	382.32
443.83	383.15
444.20	383.85
444.57	384.95
444.94	385.32
445.31	385.85
445.68	386.46
446.05	386.76
446.42	386.43
446.79	386.20
447.16	385.80
447.53	385.75
447.90	384.72
448.27	383.73
448.64	382.24
449.01	381.18
449.37	379.24
449.74	377.42
450.11	375.18
450.48	372.60
450.85	369.95
451.22	367.62
451.59	365.50
451.96	363.50
452.33	360.78
452.70	358.46
453.07	355.67
453.43	352.72
453.80	349.83
454.17	346.96
454.54	344.16
454.91	341.42
455.28	338.43
455.65	335.74
456.02	333.36
456.38	331.18
456.75	328.44
457.12	325.91
457.49	323.40
457.86	321.13
458.23	319.21
458.59	317.01
458.96	314.88
459.33	312.92
459.70	310.80
460.07	309.11
460.43	307.15
460.80	305.26
461.17	303.60
461.54	301.92
461.91	300.47
462.27	299.03
462.64	297.57
463.01	296.19
463.38	294.89
463.74	293.11
464.11	291.68
464.48	290.50
464.85	289.29
465.21	288.45
465.58	287.38
465.95	286.14
466.32	285.20
466.68	284.13
467.05	283.15
467.42	282.20
467.78	281.18
468.15	280.20
468.52	279.61
468.88	278.51
469.25	277.54
469.62	276.78
469.98	275.89
470.35	275.13
470.72	274.34
471.08	273.50
471.45	272.94
471.82	272.35
472.18	271.71
472.55	271.06
472.92	270.37
473.28	269.67
473.65	268.99
474.02	268.38
474.38	267.88
474.75	267.39
475.11	266.86
475.48	266.32
475.85	265.90
476.21	265.38
476.58	265.00
476.94	264.73
477.31	264.31
477.67	263.94
478.04	263.59
478.41	263.20
478.77	263.06
479.14	262.60
479.50	262.28
479.87	261.91
480.23	261.67
480.60	261.33
480.96	261.04
481.33	260.91
481.69	260.67
482.06	260.50
482.42	260.25
482.79	260.15
483.15	260.02
483.52	259.92
483.88	259.72
484.25	259.66
484.61	259.56
484.98	259.47
485.34	259.48
485.71	259.40
486.07	259.40
486.44	259.21
486.80	259.23
487.17	259.31
487.53	259.38
487.90	259.51
488.26	259.61
488.62	259.81
488.99	259.84
489.35	260.00
489.72	260.13
490.08	260.20
490.44	260.28
490.81	260.48
491.17	260.61
491.54	260.83
491.90	261.01
492.26	261.19
492.63	261.40
492.99	261.65
493.36	262.09
493.72	262.34
494.08	262.67
494.45	262.98
494.81	263.25
495.17	263.60
495.54	264.05
495.90	264.56
496.26	265.00
496.63	265.54
496.99	266.00
497.35	266.49
497.72	267.08
498.08	267.69
498.44	268.38
498.80	269.01
499.17	269.60
499.53	270.37
499.89	271.07
500.26	271.95
500.62	272.83
500.98	273.61
501.34	274.65
501.71	275.69
502.07	276.72
502.43	277.81
502.79	278.94
503.16	279.97
503.52	281.08
503.88	282.20
504.24	283.35
504.60	284.75
504.97	286.12
505.33	287.54
505.69	289.05
506.05	290.69
506.41	292.35
506.78	294.14
507.14	295.96
507.50	297.94
507.86	299.88
508.22	301.91
508.59	304.00
508.95	306.11
509.31	308.34
509.67	310.77
510.03	313.21
510.39	315.63
510.75	318.23
511.12	320.91
511.48	323.70
511.84	326.54
512.20	329.31
512.56	332.40
512.92	335.50
513.28	338.68
513.64	341.87
514.00	345.15
514.37	348.65
514.73	352.21
515.09	355.73
515.45	359.41
515.81	363.13
516.17	367.10
516.53	371.05
516.89	375.04
517.25	379.15
517.61	383.49
517.97	387.89
518.33	392.45
518.69	397.22
519.05	401.95
519.41	406.86
519.77	412.00
520.13	417.10
520.49	422.25
520.85	427.55
521.21	432.90
521.57	438.51
521.93	443.86
522.29	449.47
522.65	455.28
523.01	461.25
523.37	466.82
523.73	472.71
524.09	478.89
524.45	485.27
524.81	491.65
525.17	498.22
525.53	505.04
525.89	511.72
526.25	518.41
526.61	524.98
526.97	531.76
527.33	538.86
527.68	546.16
528.04	553.42
528.40	560.66
528.76	568.19
529.12	575.49
529.48	583.37
529.84	590.83
530.20	598.48
530.56	606.25
530.91	614.74
531.27	622.71
531.63	630.80
531.99	638.84
532.35	646.98
532.71	654.76
533.07	662.80
533.42	671.18
533.78	679.31
534.14	688.00
534.50	696.15
534.86	704.52
535.21	712.51
535.57	721.27
535.93	729.94
536.29	738.56
536.65	747.45
537.00	755.58
537.36	764.25
537.72	773.08
538.08	781.59
538.44	789.97
538.79	798.60
539.15	807.25
539.51	816.05
539.87	824.97
540.22	833.90
540.58	842.77
540.94	851.34
541.29	859.98
541.65	868.34
542.01	877.80
542.37	886.38
542.72	895.16
543.08	903.46
543.44	912.12
543.79	920.12
544.15	928.56
544.51	937.61
544.87	946.22
545.22	954.75
545.58	962.77
545.94	970.77
546.29	979.07
546.65	986.90
547.01	994.78
547.36	1002.42
547.72	1010.32
548.07	1017.83
548.43	1025.53
548.79	1033.08
549.14	1040.84
549.50	1047.94
549.86	1054.97
550.21	1062.20
550.57	1069.44
550.92	1076.56
551.28	1083.94
551.64	1090.88
551.99	1097.81
552.35	1104.95
552.70	1111.63
553.06	1118.95
553.41	1126.03
553.77	1132.99
554.13	1139.97
554.48	1146.44
554.84	1153.15
555.19	1159.51
555.55	1166.33
555.90	1172.67
556.26	1179.32
556.61	1185.17
556.97	1191.08
557.32	1197.31
557.68	1203.28
558.03	1209.25
558.39	1214.96
558.74	1221.19
559.10	1226.80
559.45	1232.41
559.81	1238.16
560.16	1243.76
560.52	1249.08
560.87	1254.68
561.23	1259.55
561.58	1264.62
561.94	1269.73
562.29	1274.45
562.64	1279.06
563.00	1283.35
563.35	1288.28
563.71	1293.22
564.06	1298.64
564.42	1303.30
564.77	1307.84
565.12	1312.60
565.48	1317.16
565.83	1321.24
566.19	1325.14
566.54	1329.15
566.89	1333.18
567.25	1336.65
567.60	1340.73
567.96	1344.71
568.31	1347.94
568.66	1351.38
569.02	1354.75
569.37	1358.04
569.72	1361.14
570.08	1364.32
570.43	1367.19
570.78	1369.63
571.14	1371.66
571.49	1373.59
571.84	1376.66
572.20	1378.90
572.55	1380.82
572.90	1382.26
573.26	1384.48
573.61	1386.22
573.96	1387.47
574.31	1388.10
574.67	1388.97
575.02	1389.32
575.37	1390.02
575.72	1390.40
576.08	1391.63
576.43	1391.75
576.78	1392.31
577.13	1393.34
577.49	1393.94
577.84	1394.50
578.19	1394.86
578.54	1395.04
578.90	1394.74
579.25	1393.47
579.60	1392.98
579.95	1392.15
580.30	1391.45
580.66	1390.17
581.01	1389.12
581.36	1389.03
581.71	1388.96
582.06	1388.04
582.42	1387.04
582.77	1385.72
583.12	1384.65
583.47	1383.34
583.82	1382.92
584.17	1381.56
584.53	1379.94
584.88	1378.67
585.23	1377.41
585.58	1375.78
585.93	1374.21
586.28	1373.10
586.63	1372.29
586.98	1371.10
587.34	1370.21
587.69	1369.15
588.04	1367.80
588.39	1366.17
588.74	1363.57
589.09	1361.46
589.44	1359.36
589.79	1358.10
590.14	1356.44
590.49	1354.86
590.84	1352.31
591.19	1349.90
591.54	1347.25
591.89	1344.04
592.25	1341.26
592.60	1338.28
592.95	1335.77
593.30	1333.28
593.65	1330.40
594.00	1327.28
594.35	1324.84
594.70	1321.02
595.05	1318.26
595.40	1315.26
595.75	1312.18
596.10	1309.86
596.45	1306.83
596.80	1304.65
597.15	1301.77
597.50	1298.63
597.85	1295.76
598.19	1293.49
598.54	1290.55
598.89	1288.14
599.24	1285.90
599.59	1283.27
599.94	1280.66
600.29	1277.61
600.64	1274.30
600.99	1271.10
601.34	1268.26
601.69	1264.89
602.04	1262.37
602.39	1258.92
602.74	1256.15
603.08	1253.44
603.43	1250.27
603.78	1247.01
604.13	1243.30
604.48	1239.47
604.83	1236.16
605.18	1232.87
605.53	1228.70
605.87	1224.62
606.22	1220.88
606.57	1217.03
606.92	1213.13
607.27	1209.63
607.62	1206.00
607.96	1202.55
608.31	1199.07
608.66	1194.60
609.01	1190.22
609.36	1185.80
609.70	1181.02
610.05	1176.26
610.40	1171.68
610.75	1167.02
611.10	1162.67
611.44	1157.96
611.79	1153.68
612.14	1148.84
612.49	1143.57
612.83	1138.81
613.18	1134.55
613.53	1130.03
613.88	1125.19
614.22	1120.40
614.57	1114.94
614.92	1110.01
615.27	1105.21
615.61	1100.44
615.96	1095.92
616.31	1091.46
616.65	1087.48
617.00	1083.57
617.35	1079.50
617.70	1074.59
618.04	1069.91
618.39	1065.36
618.74	1061.12
619.08	1056.24
619.43	1052.04
619.78	1048.02
620.12	1043.81
620.47	1039.29
620.82	1034.45
621.16	1030.28
621.51	1025.98
621.85	1021.91
622.20	1017.40
622.55	1012.92
622.89	1008.47
623.24	1004.08
623.59	999.57
623.93	995.15
624.28	990.52
624.62	985.76
624.97	981.89
625.32	977.69
625.66	973.25
626.01	968.85
626.35	964.41
626.70	959.81
627.04	955.44
627.39	950.81
627.73	946.34
628.08	942.31
628.43	937.77
628.77	933.50
629.12	928.80
629.46	924.35
629.81	919.63
630.15	914.94
630.50	910.25
630.84	905.60
631.19	900.62
631.53	895.90
631.88	891.06
632.22	885.91
632.57	881.63
632.91	877.08
633.26	872.48
633.60	867.85
633.95	863.48
634.29	858.99
634.64	854.74
634.98	850.19
635.32	845.78
635.67	841.73
636.01	837.23
636.36	833.00
636.70	828.92
637.05	824.70
637.39	820.58
637.73	816.65
638.08	813.06
638.42	809.29
638.77	805.64
639.11	801.70
639.45	797.85
639.80	793.58
640.14	789.65
640.49	785.60
640.83	781.76
641.17	777.65
641.52	773.63
641.86	769.63
642.20	765.81
642.55	761.65
642.89	757.51
643.23	753.48
643.58	749.89
643.92	745.90
644.26	741.90
644.61	738.15
644.95	734.30
645.29	729.78
645.64	725.47
645.98	721.38
646.32	717.64
646.66	713.64
647.01	709.62
647.35	705.70
647.69	701.74
648.04	697.88
648.38	693.89
648.72	689.59
649.06	685.54
649.41	681.54
649.75	677.47
650.09	673.37
650.43	669.40
650.78	664.83
651.12	660.72
651.46	656.98
651.80	653.06
652.14	649.39
652.49	645.67
652.83	641.91
653.17	638.15
653.51	634.36
653.85	630.64
654.20	626.80
654.54	622.62
654.88	618.82
655.22	614.88
655.56	611.19
655.90	607.71
656.25	604.04
656.59	600.53
656.93	596.84
657.27	593.40
657.61	589.72
657.95	586.54
658.29	583.14
658.64	579.72
658.98	576.20
659.32	572.47
659.66	569.01
660.00	565.69
660.34	562.35
660.68	558.94
661.02	555.75
661.36	552.55
661.70	549.80
662.05	546.85
662.39	544.00
662.73	541.06
663.07	538.02
663.41	535.10
663.75	532.02
664.09	529.30
664.43	526.36
664.77	523.50
665.11	520.55
665.45	517.78
665.79	514.83
666.13	512.01
666.47	509.30
666.81	506.40
667.15	503.62
667.49	500.75
667.83	498.26
668.17	495.25
668.51	492.55
668.85	489.69
669.19	487.15
669.53	484.56
669.87	481.78
670.21	479.40
670.55	476.88
670.89	474.54
671.23	472.22
671.57	469.84
671.91	467.53
672.25	465.21
672.58	462.86
672.92	460.61
673.26	458.34
673.60	456.06
673.94	454.06
674.28	451.93
674.62	449.85
674.96	447.53
675.30	445.69
675.64	443.52
675.97	441.63
676.31	439.57
676.65	437.60
676.99	435.95
677.33	433.69
677.67	431.75
678.01	429.77
678.34	427.63
678.68	425.75
679.02	423.77
679.36	421.90
679.70	420.06
680.04	418.09
680.37	415.97
680.71	414.04
681.05	412.14
681.39	410.21
681.73	408.50
682.06	406.91
682.40	405.24
682.74	403.71
683.08	401.94
683.42	400.11
683.75	398.20
684.09	396.37
684.43	394.65
684.77	392.90
685.10	391.17
685.44	389.57
685.78	387.91
686.12	386.33
686.45	384.72
686.79	382.91
687.13	381.47
687.46	380.00
687.80	378.51
688.14	376.91
688.48	375.44
688.81	373.82
689.15	372.12
689.49	370.56
689.82	368.85
690.16	367.22
690.50	365.73
690.83	364.15
691.17	362.52
691.51	361.20
691.84	359.90
692.18	358.58
692.52	357.12
692.85	355.69
693.19	354.38
693.52	352.95
693.86	351.60
694.20	350.23
694.53	348.90
694.87	347.63
695.21	346.20
695.54	344.81
695.88	343.40
696.21	341.99
696.55	340.70
696.88	339.61
697.22	338.37
697.56	337.18
697.89	336.01
698.23	334.92
698.56	333.59
698.90	332.28
699.23	330.87
699.57	329.53
699.90	328.26
700.24	326.86
700.58	325.63
700.91	324.56
701.25	323.48
701.58	322.43
701.92	321.17
702.25	320.14
702.59	319.03
702.92	318.03
703.26	317.03
703.59	316.06
703.93	315.14
704.26	314.21
704.60	313.13
704.93	312.14
705.26	311.10
705.60	310.24
705.93	309.30
706.27	308.44
706.60	307.64
706.94	306.76
707.27	305.94
707.61	305.10
707.94	304.23
708.27	303.09
708.61	302.18
708.94	301.44
709.28	300.73
709.61	300.11
709.94	299.32
710.28	298.56
710.61	297.76
710.95	296.70
711.28	295.92
711.61	295.16
711.95	294.46
712.28	293.61
712.61	292.89
712.95	292.23
713.28	291.56
713.61	290.81
713.95	290.05
714.28	289.30
714.61	288.55
714.95	287.79
715.28	287.23
715.61	286.60
715.95	285.91
716.28	285.20
716.61	284.44
716.95	283.80
717.28	283.14
717.61	282.36
717.94	281.84
718.28	281.17
718.61	280.61
718.94	279.96
719.27	279.48
719.61	278.87
719.94	278.28
720.27	277.69
720.60	277.19
720.94	276.70
721.27	276.25
721.60	275.85
721.93	275.42
722.27	274.98
722.60	274.47
722.93	274.01
723.26	273.59
723.59	273.16
723.93	272.72
724.26	272.23
724.59	271.93
724.92	271.40
725.25	271.06
725.59	270.65
725.92	270.38
726.25	269.90
726.58	269.57
726.91	269.06
727.24	268.59
727.57	268.22
727.91	267.76
728.24	267.38
728.57	266.97
728.90	266.59
729.23	266.04
729.56	265.70
729.89	265.21
730.22	264.75
730.55	264.31
730.89	263.96
731.22	263.66
731.55	263.17
731.88	262.87
732.21	262.49
732.54	262.05
732.87	261.57
733.20	261.31
733.53	260.88
733.86	260.65
734.19	260.36
734.52	260.00
734.85	259.73
735.18	259.37
735.51	259.05
735.84	258.71
736.17	258.51
736.50	258.03
736.83	257.87
737.16	257.50
737.49	257.13
737.82	256.86
738.15	256.55
738.48	256.38
738.81	256.06
739.14	255.72
739.47	255.42
739.80	255.14
740.13	254.80
740.46	254.54
740.79	254.27
741.12	253.88
741.45	253.51
741.78	253.13
742.11	252.77
742.44	252.47
742.77	252.27
743.10	251.90
743.43	251.63
743.75	251.23
744.08	251.21
744.41	250.92
744.74	250.53
745.07	250.27
745.40	249.98
745.73	249.82
746.06	249.63
746.39	249.41
746.71	249.17
747.04	248.75
747.37	248.49
747.70	248.16
748.03	248.02
748.36	247.84
748.68	247.65
749.01	247.50
749.34	247.31
749.67	247.02
750.00	246.85
750.33	246.80
750.65	246.65
750.98	246.14
751.31	246.04
751.64	245.87
751.97	245.77
752.29	245.42
752.62	245.20
752.95	244.86
753.28	244.61
753.60	244.29
753.93	244.20
754.26	244.04
754.59	243.81
754.91	243.52
755.24	243.35
755.57	243.13
755.90	242.96
756.22	242.63
756.55	242.49
756.88	242.40
757.20	242.14
757.53	241.93
757.86	241.96
758.19	241.80
758.51	241.60
758.84	241.42
759.17	241.40
759.49	241.20
759.82	241.16
760.15	241.09
760.47	241.06
760.80	240.99
761.13	240.73
761.45	240.61
761.78	240.59
762.11	240.45
762.43	240.39
762.76	240.20
763.08	240.13
763.41	240.06
763.74	239.85
764.06	239.73
764.39	239.71
764.71	239.45
765.04	239.33
765.37	239.11
765.69	238.94
766.02	238.79
766.34	238.63
766.67	238.57
767.00	238.46
767.32	238.47
767.65	238.46
767.97	238.48
768.30	238.44
768.62	238.32
768.95	238.11
769.27	238.04
769.60	237.94
769.92	237.81
770.25	237.50
770.57	237.37
770.90	237.25
771.22	236.96
771.55	236.82
771.87	236.66
772.20	236.64
772.52	236.64
772.85	236.77
773.17	236.67
773.50	236.51
773.82	236.43
774.15	236.29
774.47	236.09
774.80	235.87
775.12	235.71
775.45	235.64
775.77	235.65
776.09	235.55
776.42	235.55
776.74	235.55
777.07	235.52
777.39	235.45
777.72	235.38
778.04	235.40
778.36	235.37
778.69	235.33
779.01	235.27
779.33	235.08
779.66	234.81
779.98	234.73
780.31	234.62
780.63	234.60
780.95	234.52
781.28	234.46
781.60	234.40
781.92	234.35
782.25	234.24
782.57	234.16
782.89	234.03
783.22	233.95
783.54	233.92
783.86	233.92
784.19	233.85
784.51	233.73
784.83	233.65
785.16	233.70
785.48	233.65
785.80	233.54
786.12	233.37
786.45	233.33
786.77	233.32
787.09	233.23
787.42	233.14
787.74	233.05
788.06	232.99
788.38	232.97
788.71	232.87
789.03	232.89
789.35	232.82
789.67	232.82
789.99	232.71
790.32	232.60
790.64	232.46
790.96	232.63
791.28	232.60
791.61	232.53
791.93	232.45
792.25	232.43
792.57	232.66
792.89	232.65
793.21	232.59
793.54	232.47
793.86	232.42
794.18	232.40
794.50	232.30
794.82	232.28
795.14	232.29
795.47	232.34
795.79	232.17
796.11	232.08
796.43	232.03
796.75	232.05
797.07	232.02
797.39	232.00
797.71	231.82
798.04	231.79
798.36	231.81
798.68	231.75
799.00	231.71
799.32	231.60
799.64	231.75
799.96	231.70
800.28	231.75
800.60	231.78
800.92	231.66
801.24	231.64
801.56	231.53
801.89	231.44
802.21	231.40
802.53	231.35
802.85	231.50
803.17	231.57
803.49	231.48
803.81	231.46
804.13	231.50
804.45	231.47
804.77	231.55
805.09	231.51
805.41	231.52
805.73	231.47
806.05	231.42
806.37	231.29
806.69	231.26
807.01	231.21
807.33	231.26
807.65	231.28
807.97	231.39
808.28	231.41
808.60	231.43
808.92	231.40
809.24	231.58
809.56	231.44
809.88	231.32
810.20	231.33
810.52	231.36
810.84	231.26
811.16	231.20
811.48	231.05
811.80	231.11
812.12	231.07
812.43	231.15
812.75	231.02
813.07	230.99
813.39	231.01
813.71	231.06
814.03	230.92
814.35	230.81
814.67	230.71
814.98	230.69
815.30	230.61
815.62	230.61
815.94	230.40
816.26	230.52
816.58	230.50
816.89	230.50
817.21	230.32
817.53	230.33
817.85	230.35
818.17	230.36
818.48	230.22
818.80	230.17
819.12	229.96
819.44	229.93
819.76	229.84
820.07	229.77
820.39	229.66
820.71	229.65
821.03	229.79
821.34	229.70
821.66	229.70
821.98	229.67
822.30	229.51
822.61	229.68
822.93	229.52
823.25	229.39
823.57	229.45
823.88	229.45
824.20	229.49
824.52	229.36
824.83	229.38
825.15	229.33
825.47	229.31
825.79	229.39
826.10	229.46
826.42	229.42
826.74	229.50
827.05	229.38
827.37	229.34
827.69	229.22
828.00	229.30
828.32	229.30
828.64	229.32
828.95	229.50
829.27	229.43
829.58	229.42
829.90	229.48
830.22	229.45
830.53	229.44
830.85	229.39
831.17	229.37
831.48	229.40
831.80	229.43
832.11	229.40
832.43	229.38
832.75	229.30
833.06	229.47
833.38	229.46
833.69	229.50
834.01	229.56
834.32	229.60
834.64	229.58
834.96	229.47
835.27	229.49
835.59	229.36
835.90	229.35
836.22	229.35
836.53	229.26
836.85	229.07
837.16	229.39
837.48	229.38
837.79	229.48
838.11	229.43
838.42	229.51
838.74	229.59
839.05	229.62
839.37	229.65
839.68	229.63
840.00	229.42
840.31	229.51
840.63	229.49
840.94	229.38
841.26	229.28
841.57	229.37
841.88	229.32
842.20	229.36
842.51	229.25
842.83	229.28
843.14	229.53
843.46	229.68
843.77	229.41
844.08	229.33
844.40	229.28
844.71	229.27
845.03	229.12
845.34	229.05
845.65	229.03
845.97	228.94
846.28	228.84
846.60	228.98
846.91	228.97
847.22	228.99
847.54	229.05
847.85	229.15
848.16	229.13
848.48	229.15
848.79	229.26
849.10	229.34
849.42	229.26
849.73	229.10
850.04	229.08
850.36	229.07
850.67	229.12
850.98	229.14
851.30	229.24
851.61	229.28
851.92	229.32
852.23	229.40
852.55	229.50
852.86	229.48
853.17	229.44
853.49	229.46
853.80	229.43
854.11	229.47
854.42	229.43
854.74	229.35
855.05	229.31
855.36	229.19
855.67	229.12
855.99	229.13
856.30	229.34
856.61	229.23
856.92	229.19
857.23	229.20
857.55	229.19
857.86	229.10
858.17	229.09
858.48	229.11
858.79	229.05
859.11	229.00
859.42	229.05
859.73	229.02
860.04	228.97
860.35	228.90
860.66	228.84
860.98	228.90
861.29	228.91
861.60	228.90
861.91	228.91
862.22	228.95
862.53	228.94
862.84	228.71
863.16	228.80
863.47	228.80
863.78	228.78
864.09	228.75
864.40	228.70
864.71	228.68
865.02	228.69
865.33	228.58
865.64	228.50
865.95	228.46
866.27	228.64
866.58	228.56
866.89	228.59
867.20	228.55
867.51	228.39
867.82	228.32
868.13	228.37
868.44	228.30
868.75	228.31
869.06	228.28
869.37	228.37
869.68	228.30
869.99	228.37
870.30	228.40
870.61	228.37
870.92	228.41
871.23	228.45
871.54	228.41
871.85	228.48
872.16	228.50
872.47	228.54
872.78	228.44
873.09	228.58
873.40	228.55
873.71	228.60
874.02	228.73
874.33	228.74
874.64	228.76
874.95	228.76
875.26	228.78
875.56	228.82
875.87	228.78
876.18	228.83
876.49	228.94
876.80	228.84
877.11	228.83
877.42	228.88
877.73	228.83
878.04	228.84
878.35	228.83
878.66	228.94
878.96	228.90
879.27	228.85
879.58	228.78
879.89	228.75
880.20	228.78
880.51	228.73
880.82	228.77
881.12	228.83
881.43	228.91
881.74	228.83
882.05	228.75
882.36	228.91
882.67	228.96
882.97	228.67
883.28	228.67
883.59	228.74
883.90	228.69
884.21	228.81
884.51	228.72
884.82	228.79
885.13	228.74
885.44	228.76
885.74	228.80
886.05	228.82
886.36	228.91
886.67	228.95
886.98	229.02
887.28	229.07
887.59	229.05
887.90	228.99
888.20	229.13
888.51	229.30
888.82	229.20
889.13	229.20
889.43	229.54
889.74	229.70
890.05	229.69
890.35	229.71
890.66	229.63
890.97	229.72
891.28	229.64
891.58	229.60
891.89	229.62
892.20	229.60
892.50	229.63
892.81	229.58
893.12	229.56
893.42	229.45
893.73	229.46
894.04	229.50
894.34	229.58
894.65	229.45
894.95	229.31
895.26	229.24
895.57	229.35
895.87	229.07
896.18	229.05
896.48	229.03
896.79	229.03
897.10	228.99
897.40	228.89
897.71	228.94
898.01	228.97
898.32	229.00
898.63	229.07
898.93	229.01
899.24	228.97
899.54	228.87
899.85	228.96
900.15	228.94
900.46	228.90
900.76	228.78
901.07	228.78
901.38	228.83
901.68	228.88
901.99	228.74
902.29	228.81
902.60	228.76
902.90	228.74
903.21	228.66
903.51	228.73
903.82	228.82
904.12	228.82
904.43	228.80
904.73	228.78
905.03	228.70
905.34	228.89
905.64	228.90
905.95	228.91
906.25	228.79
906.56	228.76
906.86	228.64
907.17	228.60
907.47	228.56
907.77	228.55
908.08	228.42
908.38	228.41
908.69	228.30
908.99	228.26
909.30	228.24
909.60	228.25
909.90	228.23
910.21	228.19
910.51	228.09
910.81	228.14
911.12	228.00
911.42	227.94
911.73	227.67
912.03	227.77
912.33	227.83
912.64	227.99
912.94	227.94
913.24	227.92
913.55	227.92
913.85	227.93
914.15	227.87
914.46	227.94
914.76	227.91
915.06	227.91
915.37	227.97
915.67	227.89
915.97	228.01
916.27	228.06
916.58	228.05
916.88	228.07
917.18	227.96
917.49	228.22
917.79	228.24
918.09	228.38
918.39	228.34
918.70	228.35
919.00	228.26
919.30	228.36
919.60	228.44
919.91	228.47
920.21	228.58
920.51	228.58
920.81	228.67
921.12	228.69
921.42	228.82
921.72	228.88
922.02	229.03
922.32	228.98
922.63	228.99
922.93	229.06
923.23	229.16
923.53	229.23
923.83	229.12
924.13	229.11
924.44	229.17
924.74	229.25
925.04	229.32
925.34	229.37
925.64	229.31
925.94	229.31
926.24	229.42
926.55	229.31
926.85	229.34
927.15	229.25
927.45	229.30
927.75	229.26
928.05	229.17
928.35	229.16
928.65	229.20
928.95	229.10
929.26	228.96
929.56	228.92
929.86	228.96
930.16	228.89
930.46	228.91
930.76	228.86
931.06	228.72
931.36	228.56
931.66	228.62
931.96	228.62
932.26	228.61
932.56	228.57
932.86	228.61
933.16	228.66
933.46	228.67
933.76	228.59
934.06	228.62
934.36	228.71
934.66	228.69
934.96	228.61
935.26	228.72
935.56	228.80
935.86	228.79
936.16	228.65
936.46	228.65
936.76	228.61
937.06	228.54
937.36	228.51
937.66	228.47
937.96	228.41
938.26	228.40
938.56	228.42
938.86	228.41
939.16	228.43
939.46	228.38
939.76	228.22
940.06	228.24
940.35	228.18
940.65	228.12
940.95	228.06
941.25	227.98
941.55	227.93
941.85	227.90
942.15	227.84
942.45	227.95
942.75	227.86
943.04	227.87
943.34	227.92
943.64	227.99
943.94	228.01
944.24	227.89
944.54	227.87
944.84	227.82
945.13	227.78
945.43	227.66
945.73	227.62
946.03	227.75
946.33	227.79
946.62	227.74
946.92	227.67
947.22	227.74
947.52	227.80
947.82	227.68
948.11	227.62
948.41	227.56
948.71	227.46
949.01	227.58
949.31	227.52
949.60	227.45
949.90	227.44
950.20	227.47
950.50	227.47
950.79	227.49
951.09	227.50
951.39	227.45
951.69	227.49
951.98	227.61
952.28	227.55
952.58	227.47
952.87	227.46
953.17	227.53
953.47	227.49
953.76	227.49
954.06	227.51
954.36	227.57
954.66	227.60
954.95	227.69
955.25	227.60
955.55	227.78
955.84	227.81
956.14	227.81
956.44	227.87
956.73	227.89
957.03	227.94
957.32	227.96
957.62	228.00
957.92	228.10
958.21	228.02
958.51	228.28
958.81	228.22
959.10	228.35
959.40	228.32
959.69	228.44
959.99	228.53
960.29	228.64
960.58	228.71
960.88	228.91
961.17	228.97
961.47	229.13
961.76	229.08
962.06	229.10
962.36	229.15
962.65	229.14
962.95	229.23
963.24	229.17
963.54	229.21
963.83	229.32
964.13	229.30
964.42	229.32
964.72	229.20
965.01	229.28
965.31	229.24
965.60	229.27
965.90	229.37
966.19	229.37
966.49	229.38
966.78	229.28
967.08	229.23
967.37	229.15
967.67	229.06
967.96	229.21
968.26	229.30
968.55	229.27
968.85	229.36
969.14	229.30
969.43	229.28
969.73	229.25
970.02	229.23
970.32	229.31
970.61	229.34
970.91	229.25
971.20	229.23
971.49	229.27
971.79	229.36
972.08	229.10
972.38	229.03
972.67	229.02
972.96	229.07
973.26	229.06
973.55	229.12
973.85	229.08
974.14	228.97
974.43	228.84
974.73	228.88
975.02	228.81
975.31	228.82
975.61	228.92
975.90	228.97
976.19	228.89
976.49	228.78
976.78	228.70
977.07	228.69
977.37	228.77
977.66	228.70
977.95	228.60
978.24	228.69
978.54	228.75
978.83	228.73
979.12	228.77
979.42	228.71
979.71	228.70
980.00	228.75
980.29	228.57
980.59	228.56
980.88	228.57
981.17	228.50
981.46	228.44
981.76	228.42
982.05	228.39
982.34	228.36
982.63	228.25
982.93	228.27
983.22	228.25
983.51	228.11
983.80	228.07
984.09	228.03
984.39	227.99
984.68	227.92
984.97	227.85
985.26	227.79
985.55	227.74
985.85	227.65
986.14	227.52
986.43	227.64
986.72	227.53
987.01	227.33
987.30	227.28
987.59	227.24
987.89	227.20
988.18	227.19
988.47	227.20
988.76	227.24
989.05	227.14
989.34	227.16
989.63	227.25
989.92	227.23
990.22	227.19
990.51	227.07
990.80	227.02
991.09	227.00
991.38	226.97
991.67	226.95
991.96	226.91
992.25	226.99
992.54	226.88
992.83	226.94
993.12	227.12
993.41	227.12
993.70	227.26
993.99	227.27
994.28	227.20
994.58	227.27
994.87	227.35
995.16	227.44
995.45	227.39
995.74	227.35
996.03	227.46
996.32	227.49
996.61	227.71
996.90	227.69
997.19	227.68
997.48	227.75
997.77	227.76
998.06	227.79
998.34	227.88
998.63	228.00
998.92	228.13
999.21	228.16
999.50	228.20
999.79	228.22
1000.08	228.30
1000.37	228.35
1000.66	228.30
1000.95	228.30
1001.24	228.29
1001.53	228.41
1001.82	228.47
1002.11	228.34
1002.40	228.42
1002.68	228.33
1002.97	228.52
1003.26	228.54
1003.55	228.48
1003.84	228.47
1004.13	228.65
1004.42	228.63
1004.71	228.62
1004.99	228.51
1005.28	228.55
1005.57	228.49
1005.86	228.42
1006.15	228.36
1006.44	228.36
1006.72	228.42
1007.01	228.38
1007.30	228.39
1007.59	228.50
1007.88	228.47
1008.17	228.60
1008.45	228.54
1008.74	228.57
1009.03	228.53
1009.32	228.51
1009.60	228.62
1009.89	228.74
1010.18	228.72
1010.47	228.68
1010.76	228.70
1011.04	228.71
1011.33	228.67
1011.62	228.83
1011.91	228.85
1012.19	228.80
1012.48	228.79
1012.77	228.82
1013.05	229.00
1013.34	228.97
1013.63	228.86
1013.92	228.86
1014.20	228.78
1014.49	228.75
1014.78	228.76
1015.06	228.61
1015.35	228.58
1015.64	228.42
1015.92	228.31
1016.21	228.24
1016.50	228.25
1016.78	228.20
1017.07	228.21
1017.36	228.23
1017.64	228.12
1017.93	228.11
1018.22	228.14
1018.50	228.08
1018.79	227.96
1019.08	227.79
1019.36	227.77
1019.65	227.63
1019.93	227.65
1020.22	227.63
1020.51	227.74
1020.79	227.65
1021.08	227.80
1021.36	227.20
1021.65	226.90
1021.94	227.90
1022.22	227.10
1022.51	225.80
1022.79	228.50
1023.08	227.00
1023.36	229.70
1023.65	227.30
>>>>>End Processed Spectral Data<<<<<
