SpectraSuite Data File
++++++++++++++++++++++++++++++++++++
Date: Fri Feb 01 14:40:47 EST 2013
User: group
Dark Spectrum Present: No
Reference Spectrum Present: No
Number of Sampled Component Spectra: 1
Spectrometers: USB2E7196
Integration Time (usec): 70000 (USB2E7196)
Spectra Averaged: 10 (USB2E7196)
Boxcar Smoothing: 10 (USB2E7196)
Correct for Electrical Dark: No (USB2E7196)
Strobe/Lamp Enabled: No (USB2E7196)
Correct for Detector Non-linearity: No (USB2E7196)
Correct for Stray Light: No (USB2E7196)
Number of Pixels in Processed Spectrum: 2048
>>>>>Begin Processed Spectral Data<<<<<
339.09	0.00
339.48	216.40
339.86	215.80
340.24	217.60
340.63	218.60
341.01	223.40
341.39	223.80
341.78	223.90
342.16	225.70
342.54	224.40
342.93	213.87
343.31	224.65
343.69	225.01
344.07	225.55
344.46	226.07
344.84	226.47
345.22	226.67
345.60	226.85
345.99	227.03
346.37	227.08
346.75	227.18
347.13	227.27
347.52	227.37
347.90	227.54
348.28	227.61
348.66	227.68
349.05	227.59
349.43	227.57
349.81	227.59
350.19	227.57
350.57	227.65
350.96	227.82
351.34	228.00
351.72	228.11
352.10	228.21
352.48	228.30
352.87	228.34
353.25	228.38
353.63	228.45
354.01	228.54
354.39	228.74
354.77	228.85
355.15	229.05
355.54	229.07
355.92	229.08
356.30	229.09
356.68	229.38
357.06	229.55
357.44	229.65
357.82	229.73
358.20	229.88
358.58	229.94
358.97	229.94
359.35	230.05
359.73	230.24
360.11	230.32
360.49	230.39
360.87	230.51
361.25	230.62
361.63	230.74
362.01	230.80
362.39	230.79
362.77	230.84
363.15	230.90
363.53	230.96
363.91	230.91
364.29	230.91
364.67	230.66
365.05	230.66
365.43	230.69
365.81	230.76
366.19	230.81
366.57	230.84
366.95	230.88
367.33	230.81
367.71	230.80
368.09	230.79
368.47	230.73
368.85	230.73
369.23	230.70
369.61	230.52
369.99	230.55
370.37	230.57
370.75	230.71
371.13	230.54
371.51	230.47
371.89	230.50
372.27	230.49
372.65	230.54
373.03	230.46
373.41	230.41
373.78	230.39
374.16	230.24
374.54	230.24
374.92	230.20
375.30	230.16
375.68	230.04
376.06	230.02
376.44	230.00
376.82	229.91
377.19	229.94
377.57	229.91
377.95	229.70
378.33	229.57
378.71	229.24
379.09	229.12
379.47	228.98
379.84	228.85
380.22	228.81
380.60	228.68
380.98	228.63
381.36	228.54
381.73	228.31
382.11	228.23
382.49	228.05
382.87	227.92
383.25	227.87
383.62	228.11
384.00	227.83
384.38	227.64
384.76	227.60
385.13	227.48
385.51	227.46
385.89	227.39
386.27	227.36
386.64	227.43
387.02	227.42
387.40	227.38
387.78	227.38
388.15	227.36
388.53	227.30
388.91	227.27
389.29	227.19
389.66	227.21
390.04	227.28
390.42	227.27
390.79	227.22
391.17	227.15
391.55	226.77
391.92	226.90
392.30	227.00
392.68	226.96
393.05	226.98
393.43	227.07
393.81	227.10
394.18	226.94
394.56	226.92
394.94	227.06
395.31	227.08
395.69	227.18
396.06	227.21
396.44	227.27
396.82	227.29
397.19	227.47
397.57	227.55
397.95	227.55
398.32	227.56
398.70	227.71
399.07	227.77
399.45	227.90
399.82	227.98
400.20	228.02
400.58	228.12
400.95	228.14
401.33	228.22
401.70	228.47
402.08	228.70
402.45	228.84
402.83	228.97
403.20	229.13
403.58	229.23
403.95	229.30
404.33	229.47
404.71	229.65
405.08	229.82
405.46	229.99
405.83	230.17
406.21	230.31
406.58	230.51
406.96	230.66
407.33	230.89
407.70	231.06
408.08	231.39
408.45	231.74
408.83	231.96
409.20	232.17
409.58	232.33
409.95	232.61
410.33	232.90
410.70	233.11
411.08	233.47
411.45	233.81
411.82	234.14
412.20	234.48
412.57	235.02
412.95	235.35
413.32	235.82
413.69	236.25
414.07	236.71
414.44	237.12
414.82	237.64
415.19	238.30
415.56	238.96
415.94	239.50
416.31	240.10
416.68	240.80
417.06	241.53
417.43	242.24
417.81	243.02
418.18	243.90
418.55	244.63
418.93	245.50
419.30	246.40
419.67	247.43
420.04	248.48
420.42	249.48
420.79	250.66
421.16	251.76
421.54	253.02
421.91	254.41
422.28	255.63
422.66	257.02
423.03	258.40
423.40	259.70
423.77	261.19
424.15	262.55
424.52	264.19
424.89	265.76
425.26	267.36
425.64	268.84
426.01	270.46
426.38	272.27
426.75	274.03
427.13	275.90
427.50	277.76
427.87	279.66
428.24	281.58
428.61	283.38
428.99	285.49
429.36	287.52
429.73	289.56
430.10	291.66
430.47	293.79
430.85	295.84
431.22	298.12
431.59	300.70
431.96	303.01
432.33	305.48
432.70	308.12
433.08	311.02
433.45	313.72
433.82	316.32
434.19	319.35
434.56	322.27
434.93	324.95
435.30	327.64
435.68	330.59
436.05	333.48
436.42	336.43
436.79	338.93
437.16	341.80
437.53	344.81
437.90	347.87
438.27	350.66
438.64	353.69
439.01	356.43
439.38	358.73
439.75	361.02
440.13	363.70
440.50	366.17
440.87	368.21
441.24	370.41
441.61	372.78
441.98	374.31
442.35	376.15
442.72	378.08
443.09	379.92
443.46	380.89
443.83	381.40
444.20	381.92
444.57	382.69
444.94	382.98
445.31	383.13
445.68	383.63
446.05	383.81
446.42	383.42
446.79	382.83
447.16	382.23
447.53	382.00
447.90	380.55
448.27	379.13
448.64	377.30
449.01	376.00
449.37	373.99
449.74	372.15
450.11	369.83
450.48	367.15
450.85	364.55
451.22	362.43
451.59	360.39
451.96	358.26
452.33	355.70
452.70	353.33
453.07	350.42
453.43	347.30
453.80	344.34
454.17	341.52
454.54	338.98
454.91	336.02
455.28	333.14
455.65	330.71
456.02	328.38
456.38	326.17
456.75	323.44
457.12	320.88
457.49	318.40
457.86	316.07
458.23	314.22
458.59	311.98
458.96	309.82
459.33	307.86
459.70	305.96
460.07	304.29
460.43	302.44
460.80	300.74
461.17	299.14
461.54	297.65
461.91	296.18
462.27	294.68
462.64	293.44
463.01	291.98
463.38	290.60
463.74	288.90
464.11	287.71
464.48	286.61
464.85	285.56
465.21	284.69
465.58	283.75
465.95	282.66
466.32	281.73
466.68	280.79
467.05	279.67
467.42	278.62
467.78	277.62
468.15	276.60
468.52	275.85
468.88	274.84
469.25	273.88
469.62	273.04
469.98	272.29
470.35	271.58
470.72	270.78
471.08	269.95
471.45	269.40
471.82	268.71
472.18	267.96
472.55	267.30
472.92	266.54
473.28	265.88
473.65	265.06
474.02	264.42
474.38	263.84
474.75	263.45
475.11	262.94
475.48	262.51
475.85	262.08
476.21	261.76
476.58	261.42
476.94	261.13
477.31	260.83
477.67	260.40
478.04	260.00
478.41	259.77
478.77	259.70
479.14	259.39
479.50	259.23
479.87	259.00
480.23	258.82
480.60	258.64
480.96	258.46
481.33	258.49
481.69	258.36
482.06	258.22
482.42	258.16
482.79	258.14
483.15	258.01
483.52	258.10
483.88	257.99
484.25	258.00
484.61	258.03
484.98	258.03
485.34	258.20
485.71	258.44
486.07	258.70
486.44	258.71
486.80	258.80
487.17	259.00
487.53	259.25
487.90	259.59
488.26	260.05
488.62	260.44
488.99	260.83
489.35	261.31
489.72	261.84
490.08	262.36
490.44	262.92
490.81	263.66
491.17	264.21
491.54	265.07
491.90	265.79
492.26	266.58
492.63	267.51
492.99	268.33
493.36	269.21
493.72	270.20
494.08	271.26
494.45	272.54
494.81	273.66
495.17	275.01
495.54	276.40
495.90	277.80
496.26	279.40
496.63	280.92
496.99	282.75
497.35	284.51
497.72	286.45
498.08	288.31
498.44	290.36
498.80	292.61
499.17	294.79
499.53	297.10
499.89	299.65
500.26	302.05
500.62	304.74
500.98	307.70
501.34	310.60
501.71	313.72
502.07	316.82
502.43	320.09
502.79	323.44
503.16	327.01
503.52	330.77
503.88	334.51
504.24	338.52
504.60	342.53
504.97	346.93
505.33	351.46
505.69	356.33
506.05	361.11
506.41	365.96
506.78	371.14
507.14	376.49
507.50	381.87
507.86	387.67
508.22	393.73
508.59	399.60
508.95	405.84
509.31	412.25
509.67	418.97
510.03	425.97
510.39	433.06
510.75	440.31
511.12	447.55
511.48	455.23
511.84	462.90
512.20	470.92
512.56	479.02
512.92	487.26
513.28	495.83
513.64	504.42
514.00	513.45
514.37	522.48
514.73	531.86
515.09	541.24
515.45	550.67
515.81	560.18
516.17	570.18
516.53	580.59
516.89	590.91
517.25	601.20
517.61	611.66
517.97	622.25
518.33	632.84
518.69	643.80
519.05	655.03
519.41	666.76
519.77	678.58
520.13	690.36
520.49	702.09
520.85	713.87
521.21	726.24
521.57	738.66
521.93	750.85
522.29	763.40
522.65	775.91
523.01	788.59
523.37	801.31
523.73	814.24
524.09	827.02
524.45	840.17
524.81	853.78
525.17	867.45
525.53	881.07
525.89	895.10
526.25	909.09
526.61	922.56
526.97	936.30
527.33	950.14
527.68	964.33
528.04	978.47
528.40	992.61
528.76	1007.08
529.12	1021.71
529.48	1036.49
529.84	1050.48
530.20	1065.79
530.56	1081.27
530.91	1096.82
531.27	1111.83
531.63	1126.67
531.99	1141.69
532.35	1156.43
532.71	1170.62
533.07	1185.88
533.42	1200.81
533.78	1215.81
534.14	1231.00
534.50	1245.60
534.86	1260.28
535.21	1274.61
535.57	1289.67
535.93	1304.59
536.29	1319.41
536.65	1333.90
537.00	1348.05
537.36	1363.26
537.72	1376.94
538.08	1390.93
538.44	1404.83
538.79	1418.95
539.15	1432.79
539.51	1446.82
539.87	1461.28
540.22	1475.60
540.58	1489.46
540.94	1503.05
541.29	1516.51
541.65	1529.56
542.01	1543.21
542.37	1556.70
542.72	1570.04
543.08	1582.94
543.44	1595.68
543.79	1607.22
544.15	1619.30
544.51	1632.33
544.87	1644.06
545.22	1656.22
545.58	1667.86
545.94	1678.86
546.29	1690.08
546.65	1701.00
547.01	1711.90
547.36	1722.40
547.72	1732.69
548.07	1742.80
548.43	1752.78
548.79	1762.93
549.14	1772.93
549.50	1782.29
549.86	1791.53
550.21	1800.72
550.57	1810.07
550.92	1819.20
551.28	1828.29
551.64	1837.63
551.99	1846.29
552.35	1855.05
552.70	1863.59
553.06	1872.34
553.41	1880.99
553.77	1889.27
554.13	1898.00
554.48	1905.95
554.84	1913.89
555.19	1921.56
555.55	1929.01
555.90	1936.22
556.26	1943.16
556.61	1950.58
556.97	1957.17
557.32	1964.02
557.68	1970.62
558.03	1977.36
558.39	1983.60
558.74	1990.82
559.10	1996.86
559.45	2002.78
559.81	2009.84
560.16	2015.55
560.52	2021.03
560.87	2026.94
561.23	2031.85
561.58	2037.03
561.94	2042.10
562.29	2046.28
562.64	2050.79
563.00	2055.38
563.35	2060.75
563.71	2066.04
564.06	2071.01
564.42	2075.98
564.77	2080.52
565.12	2085.44
565.48	2089.49
565.83	2093.27
566.19	2097.30
566.54	2100.51
566.89	2103.67
567.25	2105.74
567.60	2109.28
567.96	2112.05
568.31	2114.51
568.66	2117.55
569.02	2120.01
569.37	2122.10
569.72	2124.49
570.08	2126.31
570.43	2128.16
570.78	2129.41
571.14	2129.76
571.49	2130.34
571.84	2132.08
572.20	2132.67
572.55	2132.79
572.90	2132.60
573.26	2133.53
573.61	2133.04
573.96	2132.86
574.31	2132.12
574.67	2131.17
575.02	2129.35
575.37	2128.22
575.72	2126.28
576.08	2125.54
576.43	2123.95
576.78	2122.18
577.13	2121.13
577.49	2119.97
577.84	2118.03
578.19	2116.05
578.54	2114.07
578.90	2111.43
579.25	2108.10
579.60	2105.30
579.95	2102.43
580.30	2099.38
580.66	2095.56
581.01	2091.84
581.36	2088.66
581.71	2085.98
582.06	2083.15
582.42	2079.89
582.77	2076.68
583.12	2073.48
583.47	2069.44
583.82	2066.14
584.17	2062.57
584.53	2058.28
584.88	2054.83
585.23	2051.08
585.58	2047.19
585.93	2043.47
586.28	2040.31
586.63	2036.45
586.98	2032.44
587.34	2028.28
587.69	2024.31
588.04	2020.57
588.39	2016.86
588.74	2011.79
589.09	2006.85
589.44	2001.55
589.79	1997.51
590.14	1993.20
590.49	1988.71
590.84	1984.02
591.19	1979.10
591.54	1973.50
591.89	1967.82
592.25	1962.22
592.60	1955.97
592.95	1949.90
593.30	1943.59
593.65	1937.41
594.00	1931.09
594.35	1925.58
594.70	1919.38
595.05	1913.73
595.40	1907.53
595.75	1901.23
596.10	1896.11
596.45	1890.89
596.80	1886.11
597.15	1880.64
597.50	1874.20
597.85	1868.52
598.19	1862.86
598.54	1857.27
598.89	1852.13
599.24	1847.24
599.59	1841.57
599.94	1836.67
600.29	1830.80
600.64	1825.59
600.99	1818.93
601.34	1813.52
601.69	1807.21
602.04	1801.70
602.39	1795.72
602.74	1790.03
603.08	1784.96
603.43	1779.18
603.78	1773.09
604.13	1766.20
604.48	1759.70
604.83	1753.80
605.18	1747.86
605.53	1740.68
605.87	1733.35
606.22	1726.82
606.57	1719.71
606.92	1712.86
607.27	1706.73
607.62	1701.08
607.96	1694.78
608.31	1689.26
608.66	1682.39
609.01	1675.60
609.36	1667.99
609.70	1660.52
610.05	1652.80
610.40	1645.25
610.75	1637.50
611.10	1629.80
611.44	1622.19
611.79	1614.88
612.14	1607.16
612.49	1598.86
612.83	1591.12
613.18	1583.64
613.53	1576.42
613.88	1568.55
614.22	1561.45
614.57	1553.06
614.92	1545.17
615.27	1537.45
615.61	1529.09
615.96	1521.41
616.31	1513.94
616.65	1507.34
617.00	1500.47
617.35	1493.47
617.70	1485.90
618.04	1478.34
618.39	1470.96
618.74	1464.14
619.08	1456.40
619.43	1449.58
619.78	1442.70
620.12	1436.09
620.47	1428.80
620.82	1421.07
621.16	1414.00
621.51	1406.59
621.85	1399.67
622.20	1392.02
622.55	1384.67
622.89	1377.75
623.24	1371.10
623.59	1364.21
623.93	1357.37
624.28	1349.87
624.62	1342.66
624.97	1335.52
625.32	1329.18
625.66	1322.58
626.01	1315.53
626.35	1308.60
626.70	1301.23
627.04	1294.40
627.39	1286.97
627.73	1279.81
628.08	1272.95
628.43	1266.33
628.77	1259.37
629.12	1252.20
629.46	1245.18
629.81	1237.41
630.15	1229.96
630.50	1222.58
630.84	1214.84
631.19	1206.73
631.53	1199.78
631.88	1192.47
632.22	1184.99
632.57	1177.74
632.91	1170.26
633.26	1162.94
633.60	1155.75
633.95	1148.63
634.29	1141.49
634.64	1135.00
634.98	1128.45
635.32	1121.71
635.67	1115.23
636.01	1108.63
636.36	1102.00
636.70	1095.53
637.05	1089.73
637.39	1083.74
637.73	1077.47
638.08	1072.13
638.42	1066.60
638.77	1060.50
639.11	1054.28
639.45	1048.31
639.80	1041.92
640.14	1035.80
640.49	1029.63
640.83	1023.20
641.17	1017.19
641.52	1010.92
641.86	1004.40
642.20	998.38
642.55	992.20
642.89	985.86
643.23	979.47
643.58	973.47
643.92	967.10
644.26	960.94
644.61	955.06
644.95	948.85
645.29	941.88
645.64	935.12
645.98	928.89
646.32	923.24
646.66	917.20
647.01	911.09
647.35	905.10
647.69	899.12
648.04	893.99
648.38	887.92
648.72	881.75
649.06	875.67
649.41	869.81
649.75	863.80
650.09	857.52
650.43	851.82
650.78	845.59
651.12	839.96
651.46	834.27
651.80	828.50
652.14	823.02
652.49	817.56
652.83	812.41
653.17	806.62
653.51	800.78
653.85	795.18
654.20	789.61
654.54	783.99
654.88	778.53
655.22	772.33
655.56	766.62
655.90	761.69
656.25	756.76
656.59	751.40
656.93	746.19
657.27	741.17
657.61	735.60
657.95	730.95
658.29	725.99
658.64	720.64
658.98	715.26
659.32	709.87
659.66	704.88
660.00	699.58
660.34	694.69
660.68	689.85
661.02	684.99
661.36	680.27
661.70	675.49
662.05	671.00
662.39	666.99
662.73	662.59
663.07	658.02
663.41	653.58
663.75	649.26
664.09	645.00
664.43	640.71
664.77	636.59
665.11	632.18
665.45	628.00
665.79	623.88
666.13	619.63
666.47	615.71
666.81	611.58
667.15	607.43
667.49	603.53
667.83	599.60
668.17	595.71
668.51	591.75
668.85	587.98
669.19	584.36
669.53	580.30
669.87	576.61
670.21	572.90
670.55	569.20
670.89	565.95
671.23	562.54
671.57	559.05
671.91	555.80
672.25	552.21
672.58	548.76
672.92	545.57
673.26	542.60
673.60	539.29
673.94	536.15
674.28	533.38
674.62	530.36
674.96	527.20
675.30	524.22
675.64	521.17
675.97	518.40
676.31	515.41
676.65	512.50
676.99	509.73
677.33	506.74
677.67	503.88
678.01	500.63
678.34	497.77
678.68	494.96
679.02	492.15
679.36	489.58
679.70	486.99
680.04	484.12
680.37	481.42
680.71	478.83
681.05	476.40
681.39	473.78
681.73	471.10
682.06	468.67
682.40	466.25
682.74	463.89
683.08	461.29
683.42	458.55
683.75	456.27
684.09	453.79
684.43	451.44
684.77	449.09
685.10	446.90
685.44	444.54
685.78	442.30
686.12	439.73
686.45	437.32
686.79	434.81
687.13	432.63
687.46	430.10
687.80	427.93
688.14	425.42
688.48	423.34
688.81	421.18
689.15	419.26
689.49	416.99
689.82	414.74
690.16	412.51
690.50	410.59
690.83	408.50
691.17	406.18
691.51	404.24
691.84	402.27
692.18	400.05
692.52	397.89
692.85	395.77
693.19	394.09
693.52	392.29
693.86	390.23
694.20	388.32
694.53	386.71
694.87	384.72
695.21	383.04
695.54	381.04
695.88	379.14
696.21	377.13
696.55	375.42
696.88	373.76
697.22	372.08
697.56	370.46
697.89	368.62
698.23	367.12
698.56	365.31
698.90	363.74
699.23	362.12
699.57	360.50
699.90	358.83
700.24	357.17
700.58	355.56
700.91	354.17
701.25	352.74
701.58	351.14
701.92	349.70
702.25	348.28
702.59	346.81
702.92	345.36
703.26	343.96
703.59	342.50
703.93	341.34
704.26	340.00
704.60	338.44
704.93	337.14
705.26	335.90
705.60	334.79
705.93	333.51
706.27	332.37
706.60	331.24
706.94	330.13
707.27	328.70
707.61	327.44
707.94	326.24
708.27	324.99
708.61	323.81
708.94	322.63
709.28	321.44
709.61	320.51
709.94	319.46
710.28	318.26
710.61	317.31
710.95	315.95
711.28	315.09
711.61	314.16
711.95	313.18
712.28	311.94
712.61	310.88
712.95	309.70
713.28	308.79
713.61	307.92
713.95	306.93
714.28	306.07
714.61	305.19
714.95	304.28
715.28	303.30
715.61	302.39
715.95	301.57
716.28	300.77
716.61	299.86
716.95	299.08
717.28	298.32
717.61	297.49
717.94	296.81
718.28	295.85
718.61	295.07
718.94	294.21
719.27	293.61
719.61	292.83
719.94	292.17
720.27	291.29
720.60	290.53
720.94	289.97
721.27	289.34
721.60	288.70
721.93	288.12
722.27	287.60
722.60	287.01
722.93	286.36
723.26	285.67
723.59	284.99
723.93	284.40
724.26	283.74
724.59	283.15
724.92	282.44
725.25	281.84
725.59	281.26
725.92	280.69
726.25	280.12
726.58	279.67
726.91	279.14
727.24	278.67
727.57	278.04
727.91	277.46
728.24	277.03
728.57	276.52
728.90	275.83
729.23	275.36
729.56	274.85
729.89	274.32
730.22	273.76
730.55	273.11
730.89	272.60
731.22	272.10
731.55	271.56
731.88	271.21
732.21	270.78
732.54	270.35
732.87	269.83
733.20	269.38
733.53	268.85
733.86	268.47
734.19	267.89
734.52	267.49
734.85	267.01
735.18	266.45
735.51	266.10
735.84	265.78
736.17	265.23
736.50	264.82
736.83	264.64
737.16	264.30
737.49	263.95
737.82	263.52
738.15	263.12
738.48	262.66
738.81	262.25
739.14	261.69
739.47	261.18
739.80	260.83
740.13	260.48
740.46	260.01
740.79	259.66
741.12	259.30
741.45	258.93
741.78	258.59
742.11	258.36
742.44	257.86
742.77	257.55
743.10	257.26
743.43	256.78
743.75	256.11
744.08	256.04
744.41	255.80
744.74	255.51
745.07	255.20
745.40	255.00
745.73	254.73
746.06	254.52
746.39	254.23
746.71	253.99
747.04	253.65
747.37	253.41
747.70	253.07
748.03	252.76
748.36	252.46
748.68	252.17
749.01	251.83
749.34	251.60
749.67	251.33
750.00	251.09
750.33	251.18
750.65	251.07
750.98	250.51
751.31	250.30
751.64	250.02
751.97	249.94
752.29	249.58
752.62	249.17
752.95	248.88
753.28	248.55
753.60	248.36
753.93	248.13
754.26	247.97
754.59	247.66
754.91	247.50
755.24	247.24
755.57	247.04
755.90	246.81
756.22	246.67
756.55	246.53
756.88	246.28
757.20	245.84
757.53	245.60
757.86	245.52
758.19	245.30
758.51	245.13
758.84	244.97
759.17	244.86
759.49	244.72
759.82	244.70
760.15	244.73
760.47	244.56
760.80	244.40
761.13	244.18
761.45	244.03
761.78	243.90
762.11	243.71
762.43	243.52
762.76	243.29
763.08	243.03
763.41	242.86
763.74	242.76
764.06	242.68
764.39	242.53
764.71	242.38
765.04	242.22
765.37	242.02
765.69	241.75
766.02	241.54
766.34	241.41
766.67	241.22
767.00	241.09
767.32	241.11
767.65	241.06
767.97	241.01
768.30	240.90
768.62	240.80
768.95	240.71
769.27	240.60
769.60	240.59
769.92	240.46
770.25	240.26
770.57	240.14
770.90	239.90
771.22	239.76
771.55	239.62
771.87	239.50
772.20	239.44
772.52	239.52
772.85	239.71
773.17	239.69
773.50	239.57
773.82	239.40
774.15	239.11
774.47	238.86
774.80	238.70
775.12	238.57
775.45	238.42
775.77	238.31
776.09	238.15
776.42	238.15
776.74	238.13
777.07	237.93
777.39	237.71
777.72	237.60
778.04	237.40
778.36	237.26
778.69	237.14
779.01	236.95
779.33	236.65
779.66	236.29
779.98	236.03
780.31	235.83
780.63	235.82
780.95	235.80
781.28	235.72
781.60	235.55
781.92	235.47
782.25	235.36
782.57	235.29
782.89	235.26
783.22	235.09
783.54	234.97
783.86	234.96
784.19	234.92
784.51	234.92
784.83	234.90
785.16	234.75
785.48	234.62
785.80	234.57
786.12	234.52
786.45	234.37
786.77	234.37
787.09	234.30
787.42	234.19
787.74	234.09
788.06	234.05
788.38	233.95
788.71	233.86
789.03	233.90
789.35	233.88
789.67	233.81
789.99	233.62
790.32	233.53
790.64	233.53
790.96	233.58
791.28	233.46
791.61	233.36
791.93	233.30
792.25	233.34
792.57	233.43
792.89	233.40
793.21	233.44
793.54	233.51
793.86	233.55
794.18	233.49
794.50	233.50
794.82	233.43
795.14	233.47
795.47	233.42
795.79	233.34
796.11	233.25
796.43	233.11
796.75	233.17
797.07	233.20
797.39	233.13
797.71	233.00
798.04	233.07
798.36	233.15
798.68	233.17
799.00	233.21
799.32	233.10
799.64	232.99
799.96	232.93
800.28	232.76
800.60	232.63
800.92	232.62
801.24	232.58
801.56	232.60
801.89	232.63
802.21	232.68
802.53	232.63
802.85	232.71
803.17	232.92
803.49	232.85
803.81	232.75
804.13	232.70
804.45	232.65
804.77	232.57
805.09	232.53
805.41	232.51
805.73	232.31
806.05	232.32
806.37	232.40
806.69	232.41
807.01	232.45
807.33	232.50
807.65	232.51
807.97	232.50
808.28	232.53
808.60	232.44
808.92	232.37
809.24	232.45
809.56	232.40
809.88	232.19
810.20	232.15
810.52	232.21
810.84	232.23
811.16	232.20
811.48	232.15
811.80	232.21
812.12	232.21
812.43	232.30
812.75	232.27
813.07	232.25
813.39	232.17
813.71	232.09
814.03	232.05
814.35	231.91
814.67	231.81
814.98	231.72
815.30	231.63
815.62	231.58
815.94	231.39
816.26	231.34
816.58	231.30
816.89	231.38
817.21	231.18
817.53	231.05
817.85	231.04
818.17	230.99
818.48	230.84
818.80	230.79
819.12	230.77
819.44	230.73
819.76	230.61
820.07	230.55
820.39	230.53
820.71	230.46
821.03	230.38
821.34	230.33
821.66	230.26
821.98	230.31
822.30	230.29
822.61	230.36
822.93	230.29
823.25	230.26
823.57	230.12
823.88	230.28
824.20	230.35
824.52	230.36
824.83	230.32
825.15	230.28
825.47	230.30
825.79	230.24
826.10	230.13
826.42	230.00
826.74	230.07
827.05	229.94
827.37	229.96
827.69	230.00
828.00	230.06
828.32	229.99
828.64	229.95
828.95	230.05
829.27	229.89
829.58	229.89
829.90	229.92
830.22	229.92
830.53	229.81
830.85	229.70
831.17	229.68
831.48	229.71
831.80	229.70
832.11	229.67
832.43	229.51
832.75	229.54
833.06	229.74
833.38	229.67
833.69	229.77
834.01	229.72
834.32	229.60
834.64	229.41
834.96	229.45
835.27	229.50
835.59	229.46
835.90	229.46
836.22	229.41
836.53	229.34
836.85	229.29
837.16	229.43
837.48	229.34
837.79	229.35
838.11	229.35
838.42	229.43
838.74	229.32
839.05	229.45
839.37	229.47
839.68	229.36
840.00	229.37
840.31	229.35
840.63	229.35
840.94	229.46
841.26	229.49
841.57	229.57
841.88	229.57
842.20	229.44
842.51	229.50
842.83	229.50
843.14	229.68
843.46	229.74
843.77	229.60
844.08	229.64
844.40	229.62
844.71	229.60
845.03	229.56
845.34	229.58
845.65	229.50
845.97	229.43
846.28	229.43
846.60	229.47
846.91	229.51
847.22	229.43
847.54	229.41
847.85	229.52
848.16	229.44
848.48	229.44
848.79	229.52
849.10	229.55
849.42	229.47
849.73	229.35
850.04	229.22
850.36	229.26
850.67	229.44
850.98	229.42
851.30	229.35
851.61	229.30
851.92	229.36
852.23	229.52
852.55	229.53
852.86	229.54
853.17	229.53
853.49	229.46
853.80	229.54
854.11	229.63
854.42	229.62
854.74	229.62
855.05	229.55
855.36	229.47
855.67	229.41
855.99	229.46
856.30	229.63
856.61	229.74
856.92	229.63
857.23	229.50
857.55	229.45
857.86	229.51
858.17	229.45
858.48	229.40
858.79	229.35
859.11	229.37
859.42	229.30
859.73	229.26
860.04	229.24
860.35	229.26
860.66	229.06
860.98	229.01
861.29	229.00
861.60	228.84
861.91	228.98
862.22	228.94
862.53	228.95
862.84	228.66
863.16	228.60
863.47	228.60
863.78	228.56
864.09	228.54
864.40	228.45
864.71	228.54
865.02	228.53
865.33	228.38
865.64	228.34
865.95	228.35
866.27	228.45
866.58	228.48
866.89	228.38
867.20	228.43
867.51	228.32
867.82	228.35
868.13	228.51
868.44	228.31
868.75	228.36
869.06	228.40
869.37	228.43
869.68	228.41
869.99	228.40
870.30	228.50
870.61	228.55
870.92	228.56
871.23	228.53
871.54	228.60
871.85	228.74
872.16	228.80
872.47	228.78
872.78	228.70
873.09	228.71
873.40	228.90
873.71	228.94
874.02	229.02
874.33	228.98
874.64	229.02
874.95	229.10
875.26	229.02
875.56	228.95
875.87	228.97
876.18	228.96
876.49	229.20
876.80	229.12
877.11	229.10
877.42	229.16
877.73	229.20
878.04	229.12
878.35	229.05
878.66	229.12
878.96	229.13
879.27	229.08
879.58	229.09
879.89	228.92
880.20	228.97
880.51	229.05
880.82	229.00
881.12	229.02
881.43	229.13
881.74	229.12
882.05	229.13
882.36	229.18
882.67	229.29
882.97	229.08
883.28	229.04
883.59	229.09
883.90	229.09
884.21	229.09
884.51	229.06
884.82	229.07
885.13	228.99
885.44	228.96
885.74	229.10
886.05	229.10
886.36	229.13
886.67	229.12
886.98	229.23
887.28	229.29
887.59	229.22
887.90	229.07
888.20	229.08
888.51	229.10
888.82	229.00
889.13	228.99
889.43	229.10
889.74	229.10
890.05	229.03
890.35	229.05
890.66	228.97
890.97	228.97
891.28	228.93
891.58	228.94
891.89	228.97
892.20	228.74
892.50	228.74
892.81	228.78
893.12	228.59
893.42	228.32
893.73	228.33
894.04	228.27
894.34	228.33
894.65	228.30
894.95	228.23
895.26	228.21
895.57	228.28
895.87	228.08
896.18	228.19
896.48	228.08
896.79	227.87
897.10	227.73
897.40	227.72
897.71	227.67
898.01	227.52
898.32	227.46
898.63	227.43
898.93	227.31
899.24	227.30
899.54	227.33
899.85	227.35
900.15	227.31
900.46	227.31
900.76	227.27
901.07	227.25
901.38	227.21
901.68	227.22
901.99	227.00
902.29	227.04
902.60	226.90
902.90	227.00
903.21	227.15
903.51	227.28
903.82	227.43
904.12	227.54
904.43	227.59
904.73	227.60
905.03	227.70
905.34	227.84
905.64	227.66
905.95	227.65
906.25	227.63
906.56	227.71
906.86	227.70
907.17	227.75
907.47	227.82
907.77	227.76
908.08	227.81
908.38	227.92
908.69	227.90
908.99	227.98
909.30	228.04
909.60	227.95
909.90	227.94
910.21	227.86
910.51	227.79
910.81	227.86
911.12	227.85
911.42	227.85
911.73	227.74
912.03	227.87
912.33	228.04
912.64	228.11
912.94	228.02
913.24	228.10
913.55	227.98
913.85	228.03
914.15	228.24
914.46	228.28
914.76	228.19
915.06	228.29
915.37	228.32
915.67	228.25
915.97	228.34
916.27	228.39
916.58	228.46
916.88	228.48
917.18	228.53
917.49	228.83
917.79	228.92
918.09	229.10
918.39	229.28
918.70	229.24
919.00	229.24
919.30	229.41
919.60	229.40
919.91	229.54
920.21	229.54
920.51	229.46
920.81	229.47
921.12	229.65
921.42	229.70
921.72	229.74
922.02	229.81
922.32	229.90
922.63	229.95
922.93	230.01
923.23	230.09
923.53	229.96
923.83	229.78
924.13	229.73
924.44	229.60
924.74	229.56
925.04	229.70
925.34	229.64
925.64	229.54
925.94	229.51
926.24	229.62
926.55	229.63
926.85	229.60
927.15	229.62
927.45	229.62
927.75	229.59
928.05	229.53
928.35	229.52
928.65	229.47
928.95	229.53
929.26	229.44
929.56	229.47
929.86	229.63
930.16	229.55
930.46	229.60
930.76	229.62
931.06	229.56
931.36	229.38
931.66	229.49
931.96	229.44
932.26	229.43
932.56	229.27
932.86	229.32
933.16	229.35
933.46	229.29
933.76	229.19
934.06	229.17
934.36	229.28
934.66	229.23
934.96	229.30
935.26	229.24
935.56	229.16
935.86	229.13
936.16	228.99
936.46	229.00
936.76	228.86
937.06	228.81
937.36	228.70
937.66	228.74
937.96	228.72
938.26	228.75
938.56	228.66
938.86	228.62
939.16	228.51
939.46	228.52
939.76	228.49
940.06	228.50
940.35	228.40
940.65	228.33
940.95	228.32
941.25	228.13
941.55	227.96
941.85	228.02
942.15	227.95
942.45	227.94
942.75	227.90
943.04	227.90
943.34	227.90
943.64	227.93
943.94	227.86
944.24	227.84
944.54	227.71
944.84	227.74
945.13	227.70
945.43	227.68
945.73	227.71
946.03	227.66
946.33	227.53
946.62	227.52
946.92	227.43
947.22	227.40
947.52	227.48
947.82	227.54
948.11	227.46
948.41	227.39
948.71	227.33
949.01	227.27
949.31	227.27
949.60	227.31
949.90	227.32
950.20	227.44
950.50	227.43
950.79	227.55
951.09	227.60
951.39	227.66
951.69	227.70
951.98	227.69
952.28	227.88
952.58	227.90
952.87	228.03
953.17	228.03
953.47	227.93
953.76	227.91
954.06	227.92
954.36	227.98
954.66	228.04
954.95	228.18
955.25	228.30
955.55	228.41
955.84	228.40
956.14	228.58
956.44	228.56
956.73	228.50
957.03	228.56
957.32	228.59
957.62	228.69
957.92	228.66
958.21	228.67
958.51	228.77
958.81	228.88
959.10	228.91
959.40	229.03
959.69	229.24
959.99	229.28
960.29	229.37
960.58	229.40
960.88	229.53
961.17	229.60
961.47	229.62
961.76	229.61
962.06	229.65
962.36	229.60
962.65	229.56
962.95	229.61
963.24	229.56
963.54	229.60
963.83	229.51
964.13	229.64
964.42	229.60
964.72	229.46
965.01	229.43
965.31	229.35
965.60	229.34
965.90	229.40
966.19	229.45
966.49	229.51
966.78	229.40
967.08	229.36
967.37	229.27
967.67	229.23
967.96	229.26
968.26	229.20
968.55	229.14
968.85	229.13
969.14	229.16
969.43	229.11
969.73	229.06
970.02	229.10
970.32	228.99
970.61	228.97
970.91	228.93
971.20	228.92
971.49	228.96
971.79	228.83
972.08	228.62
972.38	228.62
972.67	228.52
972.96	228.60
973.26	228.59
973.55	228.57
973.85	228.63
974.14	228.48
974.43	228.50
974.73	228.34
975.02	228.29
975.31	228.18
975.61	228.22
975.90	228.25
976.19	228.10
976.49	228.04
976.78	228.10
977.07	228.01
977.37	228.00
977.66	227.90
977.95	227.88
978.24	227.90
978.54	227.83
978.83	227.80
979.12	227.80
979.42	227.75
979.71	227.73
980.00	227.63
980.29	227.66
980.59	227.56
980.88	227.69
981.17	227.72
981.46	227.73
981.76	227.72
982.05	227.63
982.34	227.65
982.63	227.72
982.93	227.61
983.22	227.65
983.51	227.65
983.80	227.67
984.09	227.76
984.39	227.88
984.68	227.80
984.97	227.79
985.26	227.78
985.55	227.76
985.85	227.76
986.14	227.75
986.43	227.81
986.72	227.81
987.01	227.73
987.30	227.74
987.59	227.88
987.89	227.81
988.18	227.82
988.47	227.83
988.76	227.86
989.05	228.00
989.34	227.99
989.63	228.07
989.92	228.16
990.22	228.20
990.51	228.11
990.80	228.19
991.09	228.29
991.38	228.25
991.67	228.30
991.96	228.36
992.25	228.38
992.54	228.38
992.83	228.44
993.12	228.49
993.41	228.53
993.70	228.44
993.99	228.56
994.28	228.61
994.58	228.74
994.87	228.72
995.16	228.66
995.45	228.74
995.74	228.73
996.03	228.70
996.32	228.73
996.61	228.85
996.90	228.99
997.19	228.98
997.48	229.02
997.77	228.99
998.06	228.97
998.34	229.04
998.63	229.02
998.92	229.05
999.21	229.25
999.50	229.21
999.79	229.25
1000.08	229.29
1000.37	229.38
1000.66	229.35
1000.95	229.41
1001.24	229.41
1001.53	229.40
1001.82	229.35
1002.11	229.30
1002.40	229.30
1002.68	229.25
1002.97	229.35
1003.26	229.27
1003.55	229.29
1003.84	229.22
1004.13	229.24
1004.42	229.23
1004.71	229.16
1004.99	229.18
1005.28	229.05
1005.57	229.02
1005.86	229.05
1006.15	228.93
1006.44	228.80
1006.72	228.77
1007.01	228.70
1007.30	228.74
1007.59	228.70
1007.88	228.65
1008.17	228.66
1008.45	228.58
1008.74	228.54
1009.03	228.30
1009.32	228.33
1009.60	228.36
1009.89	228.32
1010.18	228.21
1010.47	228.08
1010.76	228.24
1011.04	228.13
1011.33	228.12
1011.62	228.13
1011.91	228.00
1012.19	228.05
1012.48	228.07
1012.77	228.10
1013.05	228.20
1013.34	228.05
1013.63	228.05
1013.92	228.12
1014.20	228.11
1014.49	228.10
1014.78	228.10
1015.06	228.13
1015.35	227.99
1015.64	227.90
1015.92	228.00
1016.21	228.03
1016.50	228.17
1016.78	228.05
1017.07	228.13
1017.36	228.09
1017.64	228.03
1017.93	228.16
1018.22	228.17
1018.50	228.11
1018.79	228.05
1019.08	227.88
1019.36	227.92
1019.65	227.85
1019.93	227.82
1020.22	227.87
1020.51	227.99
1020.79	227.92
1021.08	229.10
1021.36	226.90
1021.65	227.70
1021.94	227.10
1022.22	226.90
1022.51	227.20
1022.79	228.30
1023.08	228.90
1023.36	230.40
1023.65	226.80
>>>>>End Processed Spectral Data<<<<<
