SpectraSuite Data File
++++++++++++++++++++++++++++++++++++
Date: Fri Feb 01 14:37:00 EST 2013
User: group
Dark Spectrum Present: No
Reference Spectrum Present: No
Number of Sampled Component Spectra: 1
Spectrometers: USB2E7196
Integration Time (usec): 70000 (USB2E7196)
Spectra Averaged: 10 (USB2E7196)
Boxcar Smoothing: 10 (USB2E7196)
Correct for Electrical Dark: No (USB2E7196)
Strobe/Lamp Enabled: No (USB2E7196)
Correct for Detector Non-linearity: No (USB2E7196)
Correct for Stray Light: No (USB2E7196)
Number of Pixels in Processed Spectrum: 2048
>>>>>Begin Processed Spectral Data<<<<<
339.09	0.00
339.48	217.30
339.86	218.20
340.24	217.80
340.63	221.30
341.01	225.30
341.39	222.30
341.78	226.70
342.16	225.60
342.54	225.20
342.93	214.90
343.31	225.71
343.69	226.07
344.07	226.50
344.46	227.02
344.84	227.31
345.22	227.39
345.60	227.68
345.99	227.78
346.37	227.96
346.75	228.07
347.13	228.18
347.52	228.19
347.90	228.39
348.28	228.38
348.66	228.34
349.05	228.24
349.43	228.29
349.81	228.24
350.19	228.34
350.57	228.37
350.96	228.50
351.34	228.61
351.72	228.85
352.10	228.89
352.48	228.83
352.87	228.86
353.25	228.99
353.63	228.98
354.01	229.03
354.39	229.09
354.77	229.23
355.15	229.40
355.54	229.41
355.92	229.21
356.30	229.33
356.68	229.46
357.06	229.58
357.44	229.58
357.82	229.74
358.20	229.67
358.58	229.68
358.97	229.69
359.35	229.82
359.73	229.83
360.11	229.99
360.49	230.09
360.87	230.18
361.25	230.22
361.63	230.34
362.01	230.44
362.39	230.42
362.77	230.47
363.15	230.40
363.53	230.44
363.91	230.60
364.29	230.59
364.67	230.40
365.05	230.36
365.43	230.50
365.81	230.48
366.19	230.55
366.57	230.62
366.95	230.53
367.33	230.33
367.71	230.33
368.09	230.20
368.47	230.21
368.85	230.20
369.23	230.21
369.61	230.09
369.99	230.00
370.37	229.92
370.75	229.93
371.13	229.80
371.51	229.67
371.89	229.58
372.27	229.51
372.65	229.50
373.03	229.40
373.41	229.25
373.78	229.15
374.16	229.13
374.54	229.01
374.92	229.05
375.30	229.03
375.68	229.04
376.06	229.05
376.44	228.93
376.82	228.85
377.19	228.74
377.57	228.70
377.95	228.58
378.33	228.47
378.71	228.30
379.09	228.30
379.47	228.38
379.84	228.34
380.22	228.29
380.60	228.14
380.98	228.03
381.36	227.95
381.73	227.90
382.11	227.72
382.49	227.74
382.87	227.51
383.25	227.52
383.62	227.51
384.00	227.37
384.38	227.24
384.76	227.17
385.13	227.15
385.51	227.09
385.89	227.06
386.27	227.03
386.64	226.97
387.02	226.93
387.40	226.87
387.78	226.76
388.15	226.74
388.53	226.79
388.91	226.85
389.29	226.93
389.66	226.85
390.04	226.86
390.42	226.70
390.79	226.72
391.17	226.70
391.55	226.55
391.92	226.49
392.30	226.64
392.68	226.69
393.05	226.67
393.43	226.79
393.81	226.73
394.18	226.75
394.56	226.79
394.94	226.87
395.31	226.81
395.69	226.99
396.06	227.07
396.44	227.11
396.82	227.08
397.19	227.10
397.57	227.17
397.95	227.20
398.32	227.31
398.70	227.50
399.07	227.63
399.45	227.80
399.82	227.96
400.20	228.01
400.58	228.02
400.95	228.12
401.33	228.19
401.70	228.47
402.08	228.60
402.45	228.66
402.83	228.77
403.20	228.90
403.58	229.00
403.95	229.14
404.33	229.37
404.71	229.66
405.08	230.04
405.46	230.26
405.83	230.43
406.21	230.72
406.58	230.99
406.96	231.18
407.33	231.35
407.70	231.57
408.08	231.97
408.45	232.37
408.83	232.80
409.20	233.05
409.58	233.29
409.95	233.74
410.33	234.32
410.70	234.69
411.08	235.24
411.45	235.67
411.82	236.19
412.20	236.79
412.57	237.40
412.95	237.87
413.32	238.57
413.69	239.39
414.07	240.11
414.44	240.92
414.82	241.75
415.19	242.75
415.56	243.84
415.94	244.91
416.31	245.94
416.68	247.07
417.06	248.41
417.43	249.67
417.81	251.09
418.18	252.31
418.55	253.84
418.93	255.50
419.30	257.24
419.67	259.05
420.04	260.66
420.42	262.44
420.79	264.70
421.16	266.97
421.54	269.23
421.91	271.51
422.28	273.90
422.66	276.57
423.03	279.07
423.40	281.58
423.77	284.23
424.15	287.06
424.52	289.85
424.89	293.04
425.26	296.24
425.64	299.19
426.01	302.53
426.38	305.98
426.75	309.12
427.13	312.60
427.50	316.15
427.87	320.03
428.24	323.86
428.61	327.43
428.99	331.31
429.36	335.58
429.73	339.84
430.10	343.93
430.47	348.09
430.85	352.62
431.22	357.39
431.59	362.32
431.96	367.10
432.33	372.45
432.70	377.40
433.08	383.32
433.45	388.90
433.82	394.38
434.19	400.57
434.56	406.78
434.93	412.56
435.30	418.29
435.68	424.76
436.05	431.03
436.42	437.27
436.79	443.01
437.16	448.92
437.53	455.33
437.90	461.66
438.27	467.99
438.64	474.45
439.01	480.33
439.38	485.73
439.75	490.80
440.13	496.79
440.50	502.63
440.87	507.12
441.24	511.90
441.61	517.16
441.98	521.06
442.35	525.52
442.72	530.20
443.09	534.95
443.46	537.78
443.83	539.90
444.20	541.81
444.57	544.32
444.94	546.03
445.31	547.45
445.68	549.12
446.05	550.08
446.42	550.05
446.79	549.95
447.16	549.85
447.53	549.99
447.90	548.25
448.27	546.51
448.64	543.84
449.01	542.13
449.37	538.82
449.74	535.42
450.11	531.27
450.48	526.60
450.85	521.70
451.22	517.59
451.59	513.68
451.96	509.80
452.33	504.73
452.70	499.92
453.07	494.39
453.43	488.54
453.80	482.78
454.17	477.25
454.54	472.10
454.91	466.29
455.28	460.87
455.65	455.59
456.02	450.35
456.38	445.82
456.75	440.31
457.12	435.46
457.49	430.75
457.86	426.24
458.23	422.15
458.59	417.79
458.96	413.30
459.33	409.18
459.70	405.45
460.07	402.20
460.43	398.61
460.80	394.87
461.17	391.73
461.54	388.59
461.91	385.28
462.27	382.14
462.64	379.49
463.01	376.43
463.38	373.50
463.74	370.39
464.11	367.98
464.48	365.64
464.85	363.24
465.21	361.33
465.58	359.30
465.95	357.00
466.32	354.95
466.68	353.00
467.05	351.29
467.42	349.03
467.78	346.98
468.15	345.00
468.52	343.76
468.88	341.92
469.25	340.28
469.62	339.02
469.98	337.54
470.35	336.13
470.72	334.82
471.08	333.30
471.45	331.98
471.82	330.72
472.18	329.25
472.55	328.17
472.92	326.84
473.28	325.72
473.65	324.60
474.02	323.40
474.38	322.58
474.75	321.55
475.11	320.71
475.48	319.92
475.85	319.26
476.21	318.45
476.58	317.84
476.94	317.19
477.31	316.69
477.67	316.15
478.04	315.69
478.41	315.20
478.77	314.97
479.14	314.76
479.50	314.40
479.87	314.20
480.23	313.97
480.60	313.69
480.96	313.52
481.33	313.57
481.69	313.54
482.06	313.30
482.42	313.26
482.79	313.16
483.15	313.20
483.52	313.26
483.88	313.32
484.25	313.33
484.61	313.44
484.98	313.46
485.34	313.75
485.71	314.05
486.07	314.40
486.44	314.64
486.80	314.97
487.17	315.37
487.53	315.87
487.90	316.46
488.26	317.15
488.62	317.57
488.99	318.02
489.35	318.62
489.72	319.27
490.08	319.84
490.44	320.41
490.81	321.07
491.17	321.80
491.54	322.49
491.90	323.30
492.26	324.24
492.63	325.17
492.99	325.92
493.36	326.72
493.72	327.62
494.08	328.41
494.45	329.33
494.81	330.26
495.17	331.13
495.54	332.07
495.90	332.97
496.26	333.91
496.63	334.97
496.99	335.92
497.35	336.89
497.72	338.03
498.08	339.18
498.44	340.25
498.80	341.32
499.17	342.41
499.53	343.41
499.89	344.40
500.26	345.34
500.62	346.20
500.98	347.27
501.34	348.24
501.71	349.37
502.07	350.26
502.43	351.09
502.79	351.90
503.16	352.54
503.52	353.39
503.88	354.38
504.24	355.13
504.60	356.07
504.97	356.96
505.33	357.63
505.69	358.36
506.05	358.90
506.41	359.50
506.78	360.11
507.14	360.62
507.50	361.13
507.86	361.60
508.22	362.16
508.59	362.52
508.95	363.07
509.31	363.60
509.67	363.90
510.03	364.22
510.39	364.64
510.75	365.11
511.12	365.39
511.48	365.59
511.84	365.78
512.20	365.95
512.56	366.09
512.92	366.39
513.28	366.57
513.64	366.74
514.00	366.92
514.37	367.00
514.73	367.15
515.09	367.06
515.45	367.25
515.81	367.47
516.17	367.60
516.53	367.60
516.89	367.60
517.25	367.78
517.61	368.00
517.97	368.12
518.33	368.18
518.69	368.29
519.05	368.42
519.41	368.62
519.77	368.99
520.13	369.18
520.49	369.27
520.85	369.52
521.21	369.93
521.57	370.20
521.93	370.75
522.29	371.15
522.65	371.84
523.01	372.33
523.37	372.78
523.73	373.37
524.09	373.97
524.45	374.69
524.81	375.46
525.17	376.28
525.53	377.21
525.89	378.13
526.25	379.14
526.61	380.08
526.97	381.01
527.33	382.02
527.68	383.48
528.04	384.68
528.40	385.98
528.76	387.46
529.12	389.02
529.48	390.55
529.84	392.13
530.20	393.85
530.56	395.62
530.91	397.52
531.27	399.50
531.63	401.52
531.99	403.56
532.35	405.70
532.71	407.85
533.07	410.10
533.42	412.67
533.78	415.00
534.14	417.54
534.50	420.21
534.86	422.93
535.21	425.52
535.57	428.60
535.93	431.59
536.29	434.50
536.65	437.51
537.00	440.49
537.36	443.58
537.72	446.73
538.08	450.03
538.44	453.33
538.79	456.50
539.15	459.84
539.51	463.38
539.87	467.03
540.22	470.69
540.58	474.40
540.94	477.76
541.29	481.36
541.65	485.05
542.01	488.98
542.37	492.70
542.72	496.46
543.08	500.22
543.44	504.12
543.79	507.82
544.15	511.79
544.51	516.10
544.87	520.51
545.22	524.61
545.58	528.65
545.94	532.86
546.29	537.25
546.65	541.63
547.01	545.77
547.36	549.97
547.72	554.21
548.07	558.54
548.43	562.89
548.79	567.36
549.14	571.70
549.50	575.84
549.86	580.32
550.21	584.62
550.57	589.12
550.92	593.71
551.28	598.30
551.64	602.81
551.99	607.22
552.35	611.65
552.70	616.08
553.06	620.62
553.41	624.90
553.77	629.42
554.13	633.80
554.48	638.11
554.84	642.66
555.19	646.98
555.55	651.65
555.90	656.14
556.26	660.88
556.61	665.20
556.97	669.70
557.32	673.97
557.68	678.57
558.03	683.08
558.39	687.40
558.74	691.87
559.10	696.19
559.45	700.39
559.81	704.81
560.16	708.99
560.52	713.35
560.87	717.81
561.23	721.92
561.58	726.29
561.94	730.73
562.29	734.75
562.64	738.91
563.00	742.58
563.35	746.80
563.71	750.66
564.06	755.05
564.42	758.95
564.77	763.15
565.12	767.38
565.48	771.36
565.83	775.11
566.19	779.11
566.54	782.77
566.89	786.32
567.25	789.57
567.60	793.50
567.96	797.10
568.31	800.49
568.66	803.91
569.02	807.01
569.37	810.22
569.72	813.43
570.08	816.64
570.43	819.90
570.78	822.78
571.14	825.54
571.49	828.25
571.84	831.23
572.20	833.87
572.55	836.24
572.90	838.64
573.26	841.04
573.61	843.22
573.96	845.38
574.31	847.46
574.67	849.44
575.02	851.08
575.37	852.97
575.72	854.50
576.08	856.37
576.43	858.05
576.78	859.54
577.13	861.20
577.49	863.00
577.84	864.50
578.19	865.97
578.54	867.10
578.90	868.21
579.25	869.40
579.60	870.50
579.95	871.43
580.30	872.23
580.66	873.02
581.01	873.73
581.36	874.73
581.71	875.87
582.06	876.78
582.42	877.46
582.77	877.99
583.12	878.73
583.47	879.40
583.82	880.09
584.17	880.58
584.53	880.88
584.88	880.87
585.23	881.05
585.58	881.35
585.93	881.73
586.28	882.41
586.63	882.63
586.98	883.05
587.34	883.34
587.69	883.40
588.04	883.65
588.39	883.73
588.74	883.30
589.09	882.68
589.44	882.40
589.79	882.40
590.14	882.20
590.49	881.91
590.84	881.30
591.19	880.96
591.54	880.32
591.89	879.47
592.25	878.96
592.60	878.00
592.95	877.06
593.30	876.30
593.65	875.05
594.00	874.04
594.35	873.20
594.70	871.86
595.05	871.04
595.40	869.84
595.75	868.71
596.10	867.84
596.45	867.47
596.80	866.78
597.15	865.62
597.50	864.25
597.85	863.07
598.19	862.03
598.54	860.80
598.89	859.79
599.24	859.20
599.59	858.17
599.94	857.40
600.29	856.08
600.64	854.88
600.99	853.63
601.34	852.37
601.69	850.53
602.04	849.37
602.39	847.68
602.74	846.70
603.08	845.45
603.43	844.39
603.78	842.67
604.13	841.12
604.48	839.66
604.83	838.24
605.18	837.18
605.53	835.36
605.87	833.47
606.22	832.03
606.57	830.12
606.92	828.10
607.27	826.30
607.62	824.77
607.96	823.17
608.31	821.54
608.66	819.75
609.01	817.90
609.36	815.58
609.70	813.39
610.05	810.92
610.40	808.84
610.75	806.34
611.10	803.93
611.44	801.39
611.79	799.04
612.14	796.72
612.49	793.65
612.83	791.02
613.18	788.71
613.53	785.88
613.88	783.15
614.22	780.70
614.57	778.00
614.92	775.40
615.27	772.93
615.61	770.24
615.96	767.70
616.31	765.11
616.65	763.09
617.00	760.90
617.35	758.35
617.70	755.59
618.04	752.90
618.39	750.27
618.74	747.77
619.08	745.04
619.43	742.51
619.78	740.16
620.12	738.05
620.47	735.36
620.82	732.76
621.16	730.15
621.51	727.84
621.85	725.47
622.20	722.75
622.55	720.08
622.89	717.55
623.24	714.93
623.59	712.33
623.93	709.85
624.28	707.49
624.62	705.16
624.97	702.87
625.32	700.60
625.66	698.41
626.01	695.91
626.35	693.41
626.70	690.72
627.04	688.60
627.39	685.99
627.73	683.55
628.08	681.26
628.43	679.05
628.77	676.56
629.12	673.83
629.46	671.35
629.81	668.56
630.15	665.75
630.50	663.00
630.84	660.10
631.19	657.02
631.53	653.95
631.88	650.99
632.22	648.03
632.57	645.40
632.91	642.39
633.26	639.85
633.60	637.25
633.95	634.80
634.29	631.90
634.64	629.39
634.98	626.78
635.32	624.19
635.67	621.71
636.01	619.12
636.36	616.43
636.70	614.29
637.05	611.82
637.39	609.55
637.73	607.13
638.08	605.37
638.42	603.24
638.77	601.16
639.11	598.82
639.45	596.54
639.80	594.00
640.14	591.88
640.49	589.39
640.83	587.06
641.17	584.87
641.52	582.68
641.86	580.12
642.20	577.79
642.55	575.62
642.89	573.24
643.23	570.61
643.58	568.57
643.92	565.90
644.26	563.40
644.61	561.27
644.95	559.00
645.29	556.35
645.64	553.72
645.98	551.30
646.32	549.18
646.66	546.94
647.01	544.75
647.35	542.50
647.69	540.18
648.04	538.05
648.38	535.30
648.72	532.67
649.06	530.27
649.41	527.96
649.75	525.43
650.09	522.87
650.43	520.56
650.78	517.88
651.12	515.56
651.46	513.43
651.80	510.91
652.14	508.67
652.49	506.44
652.83	504.31
653.17	501.94
653.51	499.43
653.85	496.97
654.20	494.59
654.54	492.10
654.88	489.69
655.22	487.26
655.56	485.14
655.90	483.03
656.25	480.93
656.59	478.81
656.93	476.50
657.27	474.47
657.61	472.13
657.95	470.47
658.29	468.43
658.64	466.39
658.98	464.20
659.32	461.90
659.66	459.71
660.00	457.56
660.34	455.35
660.68	453.40
661.02	451.28
661.36	449.32
661.70	447.38
662.05	445.54
662.39	443.60
662.73	441.75
663.07	439.87
663.41	437.93
663.75	435.81
664.09	434.05
664.43	432.20
664.77	430.58
665.11	428.50
665.45	426.59
665.79	424.52
666.13	422.70
666.47	421.00
666.81	419.08
667.15	417.10
667.49	415.42
667.83	413.70
668.17	411.82
668.51	410.01
668.85	408.20
669.19	406.61
669.53	404.86
669.87	403.08
670.21	401.36
670.55	399.62
670.89	398.16
671.23	396.42
671.57	394.82
671.91	393.26
672.25	391.64
672.58	390.19
672.92	388.76
673.26	387.17
673.60	385.66
673.94	384.23
674.28	382.92
674.62	381.55
674.96	380.14
675.30	378.99
675.64	377.67
675.97	376.32
676.31	374.90
676.65	373.57
676.99	372.28
677.33	371.00
677.67	369.84
678.01	368.45
678.34	367.21
678.68	365.88
679.02	364.49
679.36	363.29
679.70	362.02
680.04	360.85
680.37	359.66
680.71	358.50
681.05	357.48
681.39	356.51
681.73	355.38
682.06	354.12
682.40	353.08
682.74	351.88
683.08	350.80
683.42	349.70
683.75	348.49
684.09	347.27
684.43	346.10
684.77	345.00
685.10	343.97
685.44	342.94
685.78	341.92
686.12	340.95
686.45	339.73
686.79	338.59
687.13	337.55
687.46	336.50
687.80	335.48
688.14	334.37
688.48	333.29
688.81	332.25
689.15	331.41
689.49	330.32
689.82	329.36
690.16	328.41
690.50	327.31
690.83	326.38
691.17	325.48
691.51	324.59
691.84	323.56
692.18	322.48
692.52	321.46
692.85	320.43
693.19	319.49
693.52	318.60
693.86	317.59
694.20	316.58
694.53	315.66
694.87	314.57
695.21	313.55
695.54	312.61
695.88	311.65
696.21	310.63
696.55	309.70
696.88	308.82
697.22	307.75
697.56	306.91
697.89	306.08
698.23	305.30
698.56	304.52
698.90	303.72
699.23	302.94
699.57	302.09
699.90	301.29
700.24	300.46
700.58	299.67
700.91	298.90
701.25	298.35
701.58	297.81
701.92	297.10
702.25	296.32
702.59	295.60
702.92	294.87
703.26	294.18
703.59	293.45
703.93	292.90
704.26	292.29
704.60	291.69
704.93	291.01
705.26	290.27
705.60	289.58
705.93	288.83
706.27	288.32
706.60	287.75
706.94	287.15
707.27	286.42
707.61	285.87
707.94	285.31
708.27	284.48
708.61	283.74
708.94	283.20
709.28	282.75
709.61	282.12
709.94	281.50
710.28	280.95
710.61	280.32
710.95	279.55
711.28	279.05
711.61	278.40
711.95	277.87
712.28	277.27
712.61	276.60
712.95	276.07
713.28	275.46
713.61	274.88
713.95	274.19
714.28	273.70
714.61	273.17
714.95	272.70
715.28	272.30
715.61	271.72
715.95	271.21
716.28	270.67
716.61	270.24
716.95	269.83
717.28	269.22
717.61	268.82
717.94	268.45
718.28	267.97
718.61	267.58
718.94	267.10
719.27	266.73
719.61	266.35
719.94	266.02
720.27	265.56
720.60	265.18
720.94	264.85
721.27	264.53
721.60	264.20
721.93	263.83
722.27	263.60
722.60	263.20
722.93	262.83
723.26	262.43
723.59	262.07
723.93	261.74
724.26	261.46
724.59	261.06
724.92	260.62
725.25	260.31
725.59	259.89
725.92	259.69
726.25	259.44
726.58	259.22
726.91	258.92
727.24	258.75
727.57	258.51
727.91	258.22
728.24	257.96
728.57	257.55
728.90	257.17
729.23	256.73
729.56	256.54
729.89	256.19
730.22	255.94
730.55	255.62
730.89	255.35
731.22	255.10
731.55	254.85
731.88	254.73
732.21	254.42
732.54	254.15
732.87	253.86
733.20	253.50
733.53	253.17
733.86	253.03
734.19	252.64
734.52	252.40
734.85	252.24
735.18	251.94
735.51	251.88
735.84	251.68
736.17	251.52
736.50	251.37
736.83	251.49
737.16	251.24
737.49	251.01
737.82	250.76
738.15	250.56
738.48	250.36
738.81	250.11
739.14	249.89
739.47	249.70
739.80	249.45
740.13	249.36
740.46	249.12
740.79	248.85
741.12	248.61
741.45	248.36
741.78	248.18
742.11	248.06
742.44	247.82
742.77	247.60
743.10	247.31
743.43	247.00
743.75	246.56
744.08	246.71
744.41	246.60
744.74	246.44
745.07	246.20
745.40	246.10
745.73	245.95
746.06	245.70
746.39	245.53
746.71	245.39
747.04	245.17
747.37	245.04
747.70	244.73
748.03	244.66
748.36	244.48
748.68	244.22
749.01	243.94
749.34	243.70
749.67	243.58
750.00	243.43
750.33	243.48
750.65	243.31
750.98	242.90
751.31	242.63
751.64	242.50
751.97	242.49
752.29	242.20
752.62	241.99
752.95	241.89
753.28	241.65
753.60	241.50
753.93	241.26
754.26	241.13
754.59	241.04
754.91	240.83
755.24	240.77
755.57	240.66
755.90	240.44
756.22	240.35
756.55	240.20
756.88	240.02
757.20	239.70
757.53	239.46
757.86	239.18
758.19	238.97
758.51	238.83
758.84	238.56
759.17	238.58
759.49	238.46
759.82	238.45
760.15	238.48
760.47	238.28
760.80	238.12
761.13	238.02
761.45	237.89
761.78	237.69
762.11	237.58
762.43	237.34
762.76	237.27
763.08	237.14
763.41	237.06
763.74	236.88
764.06	236.75
764.39	236.74
764.71	236.74
765.04	236.70
765.37	236.53
765.69	236.46
766.02	236.25
766.34	236.14
766.67	235.94
767.00	235.81
767.32	235.82
767.65	235.90
767.97	235.78
768.30	235.72
768.62	235.70
768.95	235.56
769.27	235.58
769.60	235.53
769.92	235.40
770.25	235.21
770.57	235.20
770.90	235.14
771.22	235.02
771.55	234.93
771.87	235.01
772.20	234.97
772.52	235.01
772.85	235.23
773.17	235.20
773.50	235.15
773.82	235.18
774.15	235.05
774.47	234.97
774.80	234.90
775.12	234.77
775.45	234.78
775.77	234.71
776.09	234.70
776.42	234.63
776.74	234.68
777.07	234.67
777.39	234.68
777.72	234.59
778.04	234.63
778.36	234.55
778.69	234.39
779.01	234.35
779.33	234.18
779.66	233.93
779.98	233.76
780.31	233.71
780.63	233.61
780.95	233.68
781.28	233.56
781.60	233.52
781.92	233.55
782.25	233.56
782.57	233.48
782.89	233.34
783.22	233.33
783.54	233.19
783.86	233.27
784.19	233.08
784.51	233.17
784.83	232.97
785.16	233.03
785.48	232.98
785.80	233.01
786.12	232.98
786.45	232.86
786.77	232.86
787.09	232.87
787.42	232.72
787.74	232.70
788.06	232.71
788.38	232.66
788.71	232.62
789.03	232.51
789.35	232.54
789.67	232.58
789.99	232.53
790.32	232.49
790.64	232.38
790.96	232.53
791.28	232.37
791.61	232.38
791.93	232.32
792.25	232.26
792.57	232.30
792.89	232.29
793.21	232.30
793.54	232.26
793.86	232.19
794.18	232.15
794.50	232.02
794.82	231.85
795.14	231.79
795.47	231.80
795.79	231.69
796.11	231.52
796.43	231.48
796.75	231.37
797.07	231.30
797.39	231.30
797.71	231.18
798.04	231.15
798.36	231.13
798.68	231.03
799.00	231.01
799.32	230.90
799.64	230.86
799.96	230.86
800.28	230.96
800.60	230.91
800.92	230.87
801.24	230.85
801.56	230.97
801.89	231.00
802.21	231.00
802.53	230.96
802.85	231.07
803.17	230.97
803.49	231.01
803.81	231.04
804.13	231.04
804.45	230.98
804.77	231.00
805.09	230.96
805.41	230.98
805.73	230.92
806.05	230.79
806.37	230.74
806.69	230.67
807.01	230.60
807.33	230.58
807.65	230.56
807.97	230.66
808.28	230.68
808.60	230.63
808.92	230.54
809.24	230.72
809.56	230.70
809.88	230.74
810.20	230.79
810.52	230.78
810.84	230.72
811.16	230.70
811.48	230.69
811.80	230.77
812.12	230.79
812.43	230.79
812.75	230.84
813.07	230.90
813.39	230.90
813.71	230.90
814.03	230.82
814.35	230.86
814.67	230.76
814.98	230.65
815.30	230.76
815.62	230.73
815.94	230.59
816.26	230.62
816.58	230.55
816.89	230.60
817.21	230.66
817.53	230.65
817.85	230.67
818.17	230.66
818.48	230.58
818.80	230.58
819.12	230.63
819.44	230.58
819.76	230.57
820.07	230.61
820.39	230.62
820.71	230.71
821.03	230.62
821.34	230.60
821.66	230.50
821.98	230.38
822.30	230.34
822.61	230.42
822.93	230.30
823.25	230.35
823.57	230.21
823.88	230.20
824.20	230.16
824.52	230.12
824.83	230.04
825.15	230.06
825.47	230.10
825.79	230.04
826.10	229.99
826.42	229.82
826.74	229.82
827.05	229.71
827.37	229.65
827.69	229.70
828.00	229.56
828.32	229.55
828.64	229.60
828.95	229.64
829.27	229.66
829.58	229.62
829.90	229.68
830.22	229.64
830.53	229.59
830.85	229.53
831.17	229.50
831.48	229.50
831.80	229.49
832.11	229.35
832.43	229.29
832.75	229.30
833.06	229.39
833.38	229.33
833.69	229.30
834.01	229.32
834.32	229.27
834.64	229.27
834.96	229.29
835.27	229.12
835.59	229.05
835.90	228.78
836.22	228.75
836.53	228.60
836.85	228.62
837.16	228.77
837.48	228.78
837.79	228.83
838.11	228.77
838.42	228.70
838.74	228.72
839.05	228.70
839.37	228.70
839.68	228.60
840.00	228.55
840.31	228.56
840.63	228.49
840.94	228.42
841.26	228.35
841.57	228.29
841.88	228.41
842.20	228.50
842.51	228.53
842.83	228.60
843.14	228.83
843.46	228.79
843.77	228.57
844.08	228.62
844.40	228.62
844.71	228.65
845.03	228.60
845.34	228.58
845.65	228.55
845.97	228.54
846.28	228.55
846.60	228.50
846.91	228.41
847.22	228.45
847.54	228.59
847.85	228.69
848.16	228.74
848.48	228.72
848.79	228.70
849.10	228.81
849.42	228.83
849.73	228.66
850.04	228.81
850.36	228.88
850.67	228.81
850.98	228.86
851.30	229.00
851.61	229.04
851.92	229.09
852.23	229.25
852.55	229.28
852.86	229.36
853.17	229.46
853.49	229.62
853.80	229.69
854.11	229.67
854.42	229.70
854.74	229.74
855.05	229.71
855.36	229.66
855.67	229.61
855.99	229.62
856.30	229.86
856.61	229.67
856.92	229.60
857.23	229.65
857.55	229.60
857.86	229.45
858.17	229.52
858.48	229.50
858.79	229.47
859.11	229.43
859.42	229.45
859.73	229.44
860.04	229.40
860.35	229.21
860.66	229.22
860.98	229.20
861.29	229.25
861.60	229.20
861.91	229.24
862.22	229.28
862.53	229.22
862.84	228.99
863.16	229.19
863.47	229.16
863.78	229.12
864.09	229.13
864.40	229.09
864.71	229.02
865.02	229.01
865.33	229.00
865.64	228.98
865.95	228.92
866.27	229.01
866.58	228.99
866.89	229.07
867.20	229.02
867.51	228.98
867.82	228.93
868.13	228.96
868.44	228.81
868.75	228.84
869.06	228.87
869.37	228.79
869.68	228.54
869.99	228.48
870.30	228.51
870.61	228.43
870.92	228.45
871.23	228.35
871.54	228.36
871.85	228.26
872.16	228.25
872.47	228.18
872.78	228.01
873.09	227.96
873.40	227.92
873.71	227.88
874.02	227.85
874.33	227.71
874.64	227.60
874.95	227.60
875.26	227.47
875.56	227.42
875.87	227.43
876.18	227.42
876.49	227.66
876.80	227.76
877.11	227.71
877.42	227.71
877.73	227.77
878.04	227.76
878.35	227.79
878.66	227.83
878.96	227.90
879.27	227.94
879.58	227.90
879.89	227.91
880.20	227.99
880.51	228.02
880.82	228.05
881.12	228.10
881.43	228.12
881.74	228.21
882.05	228.19
882.36	228.17
882.67	228.25
882.97	228.14
883.28	227.99
883.59	228.09
883.90	228.09
884.21	228.10
884.51	228.07
884.82	228.04
885.13	228.01
885.44	227.94
885.74	227.91
886.05	227.96
886.36	227.90
886.67	227.86
886.98	228.04
887.28	228.19
887.59	228.29
887.90	228.36
888.20	228.33
888.51	228.53
888.82	228.55
889.13	228.58
889.43	228.82
889.74	228.88
890.05	228.75
890.35	228.79
890.66	228.79
890.97	228.83
891.28	228.88
891.58	228.99
891.89	229.04
892.20	229.10
892.50	229.12
892.81	229.25
893.12	229.27
893.42	229.23
893.73	229.16
894.04	229.17
894.34	229.25
894.65	229.25
894.95	229.15
895.26	229.18
895.57	229.30
895.87	228.97
896.18	228.96
896.48	229.00
896.79	229.07
897.10	229.15
897.40	229.10
897.71	229.16
898.01	229.08
898.32	229.15
898.63	229.08
898.93	229.08
899.24	229.04
899.54	228.99
899.85	228.83
900.15	228.75
900.46	228.73
900.76	228.62
901.07	228.69
901.38	228.53
901.68	228.51
901.99	228.32
902.29	228.41
902.60	228.43
902.90	228.45
903.21	228.39
903.51	228.34
903.82	228.30
904.12	228.25
904.43	228.31
904.73	228.28
905.03	228.34
905.34	228.60
905.64	228.53
905.95	228.54
906.25	228.57
906.56	228.67
906.86	228.66
907.17	228.64
907.47	228.48
907.77	228.60
908.08	228.51
908.38	228.48
908.69	228.39
908.99	228.21
909.30	228.17
909.60	228.16
909.90	228.22
910.21	228.24
910.51	228.14
910.81	228.10
911.12	228.10
911.42	228.03
911.73	227.72
912.03	227.74
912.33	227.73
912.64	227.66
912.94	227.50
913.24	227.46
913.55	227.42
913.85	227.44
914.15	227.43
914.46	227.50
914.76	227.60
915.06	227.59
915.37	227.70
915.67	227.69
915.97	227.71
916.27	227.57
916.58	227.55
916.88	227.61
917.18	227.59
917.49	227.57
917.79	227.60
918.09	227.64
918.39	227.76
918.70	227.79
919.00	227.75
919.30	228.04
919.60	227.99
919.91	227.99
920.21	228.00
920.51	228.03
920.81	228.00
921.12	227.91
921.42	227.99
921.72	227.95
922.02	228.05
922.32	227.92
922.63	227.92
922.93	228.06
923.23	227.99
923.53	228.01
923.83	227.98
924.13	227.97
924.44	227.99
924.74	227.94
925.04	227.97
925.34	228.06
925.64	227.90
925.94	227.98
926.24	228.17
926.55	228.24
926.85	228.18
927.15	228.18
927.45	228.22
927.75	228.09
928.05	228.10
928.35	228.01
928.65	228.16
928.95	228.28
929.26	228.09
929.56	228.15
929.86	228.15
930.16	228.11
930.46	228.15
930.76	228.13
931.06	228.14
931.36	228.09
931.66	228.15
931.96	228.13
932.26	228.17
932.56	228.01
932.86	227.94
933.16	228.02
933.46	228.01
933.76	228.12
934.06	228.31
934.36	228.48
934.66	228.48
934.96	228.46
935.26	228.35
935.56	228.49
935.86	228.50
936.16	228.49
936.46	228.48
936.76	228.40
937.06	228.37
937.36	228.33
937.66	228.33
937.96	228.30
938.26	228.21
938.56	228.13
938.86	228.16
939.16	228.33
939.46	228.36
939.76	228.40
940.06	228.44
940.35	228.31
940.65	228.18
940.95	228.27
941.25	228.20
941.55	228.23
941.85	228.17
942.15	228.25
942.45	228.30
942.75	228.31
943.04	228.37
943.34	228.46
943.64	228.42
943.94	228.34
944.24	228.35
944.54	228.50
944.84	228.43
945.13	228.29
945.43	228.10
945.73	228.03
946.03	228.06
946.33	227.90
946.62	227.88
946.92	227.89
947.22	227.88
947.52	227.92
947.82	227.96
948.11	227.98
948.41	227.89
948.71	227.82
949.01	227.78
949.31	227.77
949.60	227.69
949.90	227.77
950.20	227.82
950.50	227.74
950.79	227.64
951.09	227.76
951.39	227.86
951.69	227.90
951.98	227.92
952.28	227.94
952.58	227.82
952.87	227.79
953.17	227.91
953.47	227.82
953.76	227.82
954.06	227.78
954.36	227.79
954.66	227.77
954.95	227.84
955.25	227.93
955.55	227.86
955.84	227.90
956.14	227.97
956.44	227.93
956.73	227.91
957.03	227.91
957.32	227.90
957.62	227.92
957.92	228.03
958.21	228.00
958.51	228.12
958.81	228.27
959.10	228.37
959.40	228.32
959.69	228.40
959.99	228.39
960.29	228.34
960.58	228.17
960.88	228.24
961.17	228.15
961.47	228.18
961.76	228.21
962.06	228.11
962.36	228.11
962.65	228.16
962.95	228.29
963.24	228.28
963.54	228.33
963.83	228.36
964.13	228.28
964.42	228.28
964.72	228.18
965.01	228.08
965.31	227.98
965.60	227.87
965.90	228.04
966.19	228.07
966.49	228.14
966.78	228.28
967.08	228.33
967.37	228.40
967.67	228.38
967.96	228.40
968.26	228.41
968.55	228.28
968.85	228.31
969.14	228.26
969.43	228.31
969.73	228.28
970.02	228.34
970.32	228.39
970.61	228.43
970.91	228.47
971.20	228.68
971.49	228.86
971.79	228.91
972.08	228.85
972.38	228.81
972.67	228.78
972.96	228.83
973.26	228.78
973.55	228.82
973.85	228.78
974.14	228.82
974.43	228.96
974.73	229.00
975.02	229.02
975.31	229.15
975.61	229.15
975.90	229.18
976.19	229.09
976.49	229.13
976.78	229.20
977.07	229.16
977.37	229.09
977.66	229.06
977.95	229.00
978.24	228.87
978.54	228.97
978.83	229.02
979.12	228.96
979.42	228.95
979.71	228.91
980.00	228.98
980.29	229.03
980.59	229.00
980.88	229.09
981.17	229.12
981.46	228.99
981.76	228.95
982.05	229.00
982.34	229.02
982.63	228.89
982.93	228.76
983.22	228.79
983.51	228.83
983.80	228.80
984.09	228.90
984.39	228.96
984.68	228.91
984.97	228.90
985.26	228.95
985.55	228.95
985.85	228.87
986.14	228.76
986.43	228.71
986.72	228.50
987.01	228.27
987.30	228.20
987.59	228.14
987.89	228.15
988.18	227.95
988.47	227.94
988.76	227.95
989.05	227.97
989.34	227.86
989.63	227.84
989.92	227.87
990.22	227.76
990.51	227.72
990.80	227.60
991.09	227.60
991.38	227.69
991.67	227.66
991.96	227.67
992.25	227.80
992.54	227.78
992.83	227.97
993.12	228.04
993.41	228.02
993.70	228.08
993.99	228.14
994.28	228.28
994.58	228.25
994.87	228.10
995.16	228.03
995.45	227.98
995.74	227.86
996.03	227.80
996.32	227.91
996.61	227.88
996.90	228.03
997.19	228.01
997.48	227.89
997.77	227.90
998.06	227.92
998.34	227.89
998.63	227.95
998.92	227.99
999.21	228.06
999.50	228.18
999.79	228.18
1000.08	228.15
1000.37	228.19
1000.66	228.25
1000.95	228.42
1001.24	228.51
1001.53	228.65
1001.82	228.67
1002.11	228.68
1002.40	228.69
1002.68	228.76
1002.97	228.78
1003.26	228.83
1003.55	228.87
1003.84	228.94
1004.13	228.98
1004.42	228.99
1004.71	228.95
1004.99	228.93
1005.28	229.08
1005.57	229.08
1005.86	229.15
1006.15	229.24
1006.44	229.29
1006.72	229.26
1007.01	229.31
1007.30	229.36
1007.59	229.38
1007.88	229.43
1008.17	229.48
1008.45	229.53
1008.74	229.55
1009.03	229.51
1009.32	229.51
1009.60	229.49
1009.89	229.48
1010.18	229.44
1010.47	229.40
1010.76	229.39
1011.04	229.36
1011.33	229.27
1011.62	229.17
1011.91	229.24
1012.19	229.24
1012.48	229.23
1012.77	229.34
1013.05	229.50
1013.34	229.39
1013.63	229.35
1013.92	229.34
1014.20	229.35
1014.49	229.32
1014.78	229.29
1015.06	229.23
1015.35	229.19
1015.64	229.18
1015.92	229.19
1016.21	229.26
1016.50	229.25
1016.78	229.30
1017.07	229.24
1017.36	229.18
1017.64	229.15
1017.93	229.10
1018.22	229.00
1018.50	228.99
1018.79	228.94
1019.08	228.72
1019.36	228.76
1019.65	228.74
1019.93	228.73
1020.22	228.67
1020.51	228.68
1020.79	228.57
1021.08	228.50
1021.36	230.10
1021.65	229.70
1021.94	227.60
1022.22	228.70
1022.51	228.30
1022.79	228.10
1023.08	228.00
1023.36	230.50
1023.65	226.10
>>>>>End Processed Spectral Data<<<<<
