SpectraSuite Data File
++++++++++++++++++++++++++++++++++++
Date: Fri Feb 01 14:37:36 EST 2013
User: group
Dark Spectrum Present: No
Reference Spectrum Present: No
Number of Sampled Component Spectra: 1
Spectrometers: USB2E7196
Integration Time (usec): 70000 (USB2E7196)
Spectra Averaged: 10 (USB2E7196)
Boxcar Smoothing: 10 (USB2E7196)
Correct for Electrical Dark: No (USB2E7196)
Strobe/Lamp Enabled: No (USB2E7196)
Correct for Detector Non-linearity: No (USB2E7196)
Correct for Stray Light: No (USB2E7196)
Number of Pixels in Processed Spectrum: 2048
>>>>>Begin Processed Spectral Data<<<<<
339.09	0.00
339.48	215.40
339.86	219.00
340.24	218.20
340.63	219.60
341.01	224.90
341.39	224.60
341.78	224.50
342.16	226.60
342.54	226.20
342.93	214.84
343.31	225.73
343.69	226.29
344.07	226.71
344.46	227.16
344.84	227.69
345.22	227.79
345.60	227.96
345.99	228.11
346.37	228.14
346.75	228.15
347.13	228.16
347.52	228.26
347.90	228.31
348.28	228.31
348.66	228.43
349.05	228.29
349.43	228.26
349.81	228.31
350.19	228.17
350.57	228.16
350.96	228.25
351.34	228.28
351.72	228.36
352.10	228.43
352.48	228.57
352.87	228.52
353.25	228.58
353.63	228.70
354.01	228.79
354.39	228.98
354.77	229.16
355.15	229.30
355.54	229.34
355.92	229.40
356.30	229.49
356.68	229.64
357.06	229.83
357.44	229.92
357.82	230.02
358.20	230.10
358.58	230.20
358.97	230.22
359.35	230.27
359.73	230.30
360.11	230.34
360.49	230.34
360.87	230.40
361.25	230.54
361.63	230.59
362.01	230.70
362.39	230.65
362.77	230.59
363.15	230.69
363.53	230.81
363.91	230.93
364.29	230.91
364.67	230.73
365.05	230.70
365.43	230.74
365.81	230.88
366.19	231.01
366.57	231.07
366.95	231.11
367.33	231.09
367.71	231.13
368.09	231.12
368.47	231.10
368.85	231.01
369.23	230.92
369.61	230.72
369.99	230.75
370.37	230.66
370.75	230.78
371.13	230.62
371.51	230.51
371.89	230.36
372.27	230.38
372.65	230.29
373.03	230.22
373.41	230.01
373.78	229.77
374.16	229.51
374.54	229.38
374.92	229.21
375.30	229.13
375.68	228.94
376.06	228.90
376.44	228.85
376.82	228.84
377.19	228.81
377.57	228.88
377.95	228.60
378.33	228.54
378.71	228.18
379.09	228.11
379.47	228.00
379.84	227.90
380.22	227.77
380.60	227.58
380.98	227.47
381.36	227.44
381.73	227.34
382.11	227.40
382.49	227.31
382.87	227.31
383.25	227.25
383.62	227.47
384.00	227.40
384.38	227.33
384.76	227.22
385.13	227.21
385.51	227.14
385.89	227.03
386.27	227.06
386.64	227.24
387.02	227.19
387.40	227.12
387.78	227.08
388.15	227.03
388.53	227.14
388.91	227.08
389.29	227.05
389.66	227.10
390.04	227.05
390.42	227.00
390.79	226.89
391.17	226.95
391.55	226.70
391.92	226.60
392.30	226.58
392.68	226.59
393.05	226.60
393.43	226.57
393.81	226.66
394.18	226.56
394.56	226.46
394.94	226.41
395.31	226.44
395.69	226.52
396.06	226.67
396.44	226.74
396.82	226.86
397.19	227.00
397.57	227.06
397.95	227.14
398.32	227.23
398.70	227.35
399.07	227.35
399.45	227.47
399.82	227.57
400.20	227.66
400.58	227.62
400.95	227.60
401.33	227.81
401.70	227.97
402.08	228.10
402.45	228.30
402.83	228.59
403.20	228.79
403.58	228.89
403.95	229.01
404.33	229.15
404.71	229.27
405.08	229.52
405.46	229.60
405.83	229.70
406.21	229.86
406.58	230.01
406.96	230.22
407.33	230.50
407.70	230.78
408.08	231.20
408.45	231.64
408.83	232.07
409.20	232.28
409.58	232.60
409.95	233.00
410.33	233.36
410.70	233.70
411.08	234.10
411.45	234.60
411.82	234.99
412.20	235.42
412.57	236.05
412.95	236.46
413.32	237.17
413.69	237.94
414.07	238.59
414.44	239.27
414.82	240.00
415.19	240.78
415.56	241.55
415.94	242.23
416.31	243.16
416.68	244.04
417.06	245.13
417.43	246.19
417.81	247.30
418.18	248.54
418.55	249.81
418.93	251.13
419.30	252.45
419.67	253.84
420.04	255.41
420.42	256.96
420.79	258.80
421.16	260.55
421.54	262.33
421.91	264.30
422.28	266.32
422.66	268.58
423.03	270.83
423.40	273.08
423.77	275.48
424.15	277.82
424.52	280.34
424.89	283.09
425.26	285.74
425.64	288.32
426.01	290.96
426.38	293.75
426.75	296.63
427.13	299.59
427.50	302.95
427.87	306.20
428.24	309.37
428.61	312.25
428.99	315.59
429.36	319.28
429.73	322.78
430.10	326.50
430.47	330.08
430.85	333.79
431.22	337.70
431.59	342.17
431.96	346.14
432.33	350.62
432.70	354.82
433.08	359.91
433.45	364.71
433.82	369.49
434.19	374.84
434.56	380.13
434.93	385.22
435.30	389.81
435.68	395.24
436.05	400.59
436.42	406.12
436.79	411.00
437.16	416.18
437.53	421.81
437.90	427.25
438.27	432.66
438.64	438.21
439.01	443.42
439.38	447.73
439.75	452.14
440.13	457.21
440.50	461.99
440.87	465.86
441.24	469.88
441.61	474.29
441.98	477.63
442.35	481.44
442.72	485.21
443.09	489.29
443.46	491.60
443.83	493.45
444.20	495.10
444.57	497.33
444.94	498.52
445.31	499.92
445.68	501.14
446.05	501.82
446.42	501.70
446.79	501.77
447.16	501.63
447.53	501.74
447.90	500.12
448.27	498.83
448.64	496.58
449.01	495.08
449.37	492.19
449.74	489.19
450.11	485.65
450.48	481.50
450.85	477.27
451.22	473.88
451.59	470.50
451.96	467.20
452.33	462.78
452.70	458.80
453.07	453.81
453.43	448.79
453.80	444.12
454.17	439.46
454.54	434.84
454.91	429.99
455.28	425.44
455.65	421.05
456.02	416.60
456.38	412.80
456.75	408.13
457.12	404.11
457.49	400.17
457.86	396.07
458.23	393.00
458.59	389.34
458.96	385.63
459.33	382.36
459.70	378.99
460.07	376.32
460.43	373.14
460.80	370.18
461.17	367.74
461.54	364.97
461.91	362.31
462.27	359.56
462.64	357.47
463.01	354.78
463.38	352.50
463.74	349.94
464.11	347.79
464.48	345.92
464.85	343.88
465.21	342.26
465.58	340.71
465.95	338.58
466.32	336.79
466.68	335.00
467.05	333.21
467.42	331.51
467.78	329.71
468.15	328.13
468.52	326.79
468.88	324.90
469.25	323.35
469.62	322.20
469.98	320.86
470.35	319.48
470.72	318.36
471.08	317.06
471.45	315.90
471.82	314.67
472.18	313.30
472.55	312.35
472.92	311.33
473.28	310.31
473.65	309.45
474.02	308.56
474.38	307.82
474.75	307.04
475.11	306.17
475.48	305.41
475.85	304.72
476.21	304.10
476.58	303.63
476.94	303.02
477.31	302.38
477.67	301.78
478.04	301.11
478.41	300.65
478.77	300.29
479.14	299.79
479.50	299.40
479.87	299.31
480.23	299.04
480.60	298.53
480.96	298.20
481.33	298.02
481.69	297.88
482.06	297.54
482.42	297.41
482.79	297.36
483.15	297.23
483.52	297.30
483.88	297.14
484.25	297.09
484.61	297.03
484.98	296.98
485.34	297.30
485.71	297.54
486.07	297.64
486.44	297.58
486.80	297.74
487.17	297.98
487.53	298.14
487.90	298.26
488.26	298.60
488.62	298.90
488.99	299.08
489.35	299.38
489.72	299.84
490.08	300.25
490.44	300.62
490.81	301.15
491.17	301.46
491.54	302.07
491.90	302.48
492.26	303.12
492.63	303.75
492.99	304.00
493.36	304.46
493.72	305.10
494.08	305.72
494.45	306.40
494.81	307.06
495.17	307.63
495.54	308.39
495.90	309.03
496.26	309.79
496.63	310.50
496.99	311.21
497.35	311.80
497.72	312.40
498.08	313.07
498.44	313.74
498.80	314.47
499.17	315.20
499.53	315.94
499.89	316.79
500.26	317.46
500.62	318.24
500.98	318.97
501.34	319.60
501.71	320.29
502.07	320.84
502.43	321.35
502.79	321.85
503.16	322.29
503.52	322.90
503.88	323.27
504.24	323.74
504.60	324.17
504.97	324.64
505.33	325.00
505.69	325.38
506.05	325.76
506.41	326.20
506.78	326.37
507.14	326.69
507.50	326.79
507.86	326.97
508.22	327.38
508.59	327.56
508.95	327.74
509.31	327.96
509.67	328.26
510.03	328.30
510.39	328.48
510.75	328.60
511.12	328.68
511.48	328.86
511.84	329.05
512.20	329.06
512.56	329.20
512.92	329.41
513.28	329.59
513.64	329.67
514.00	329.74
514.37	329.87
514.73	329.99
515.09	330.13
515.45	330.37
515.81	330.40
516.17	330.65
516.53	330.98
516.89	331.09
517.25	331.29
517.61	331.74
517.97	332.13
518.33	332.44
518.69	332.84
519.05	333.18
519.41	333.47
519.77	334.17
520.13	334.58
520.49	335.16
520.85	335.59
521.21	336.21
521.57	336.96
521.93	337.62
522.29	338.47
522.65	339.21
523.01	340.13
523.37	340.95
523.73	341.95
524.09	342.88
524.45	343.88
524.81	345.11
525.17	346.33
525.53	347.69
525.89	349.05
526.25	350.39
526.61	351.94
526.97	353.58
527.33	355.25
527.68	357.15
528.04	358.94
528.40	361.09
528.76	363.19
529.12	365.11
529.48	367.34
529.84	369.39
530.20	371.75
530.56	373.99
530.91	376.64
531.27	379.21
531.63	381.73
531.99	384.65
532.35	387.37
532.71	390.20
533.07	393.10
533.42	396.33
533.78	399.35
534.14	402.56
534.50	405.80
534.86	408.93
535.21	412.20
535.57	415.64
535.93	418.96
536.29	422.56
536.65	426.14
537.00	429.76
537.36	433.61
537.72	437.33
538.08	441.28
538.44	445.09
538.79	449.04
539.15	453.05
539.51	457.20
539.87	461.10
540.22	465.15
540.58	469.35
540.94	473.52
541.29	477.92
541.65	482.22
542.01	486.54
542.37	491.32
542.72	495.91
543.08	500.28
543.44	505.01
543.79	509.32
544.15	514.06
544.51	519.01
544.87	523.69
545.22	528.63
545.58	533.42
545.94	538.20
546.29	542.95
546.65	547.75
547.01	552.40
547.36	557.51
547.72	562.43
548.07	567.23
548.43	572.08
548.79	577.11
549.14	581.93
549.50	586.95
549.86	591.43
550.21	596.34
550.57	601.54
550.92	606.41
551.28	611.40
551.64	616.23
551.99	621.30
552.35	626.30
552.70	631.06
553.06	636.12
553.41	641.01
553.77	646.02
554.13	650.97
554.48	655.97
554.84	660.84
555.19	665.76
555.55	670.59
555.90	675.25
556.26	679.96
556.61	684.75
556.97	689.49
557.32	694.48
557.68	699.13
558.03	703.75
558.39	708.31
558.74	713.34
559.10	718.17
559.45	722.51
559.81	727.17
560.16	731.90
560.52	736.20
560.87	740.90
561.23	745.14
561.58	749.79
561.94	754.25
562.29	758.42
562.64	762.65
563.00	766.94
563.35	771.44
563.71	775.87
564.06	780.30
564.42	784.40
564.77	788.35
565.12	792.78
565.48	797.05
565.83	801.15
566.19	804.89
566.54	808.87
566.89	812.43
567.25	816.31
567.60	820.10
567.96	824.00
568.31	827.48
568.66	831.10
569.02	834.63
569.37	837.92
569.72	841.51
570.08	844.63
570.43	847.86
570.78	850.83
571.14	853.48
571.49	856.41
571.84	859.70
572.20	862.69
572.55	864.89
572.90	867.32
573.26	870.14
573.61	872.68
573.96	874.87
574.31	877.20
574.67	878.88
575.02	880.66
575.37	882.76
575.72	884.52
576.08	886.40
576.43	887.87
576.78	889.62
577.13	891.35
577.49	893.52
577.84	895.02
578.19	896.60
578.54	898.05
578.90	899.00
579.25	899.70
579.60	900.85
579.95	901.95
580.30	902.80
580.66	903.36
581.01	904.04
581.36	905.07
581.71	906.16
582.06	907.37
582.42	907.92
582.77	908.18
583.12	908.71
583.47	909.40
583.82	909.94
584.17	910.27
584.53	910.35
584.88	910.59
585.23	911.00
585.58	911.29
585.93	911.71
586.28	912.21
586.63	912.72
586.98	912.73
587.34	913.11
587.69	913.37
588.04	913.45
588.39	913.70
588.74	913.29
589.09	912.92
589.44	912.26
589.79	912.65
590.14	912.81
590.49	912.81
590.84	912.31
591.19	912.21
591.54	911.44
591.89	910.73
592.25	909.83
592.60	908.79
592.95	907.87
593.30	906.96
593.65	905.68
594.00	904.70
594.35	904.40
594.70	903.10
595.05	902.09
595.40	901.06
595.75	899.65
596.10	898.91
596.45	897.97
596.80	897.27
597.15	895.93
597.50	894.50
597.85	893.35
598.19	892.27
598.54	891.05
598.89	890.38
599.24	889.48
599.59	888.43
599.94	887.44
600.29	886.30
600.64	885.00
600.99	883.90
601.34	882.62
601.69	880.76
602.04	879.69
602.39	878.06
602.74	876.97
603.08	876.11
603.43	874.54
603.78	873.15
604.13	871.81
604.48	870.23
604.83	868.91
605.18	867.47
605.53	865.66
605.87	863.65
606.22	861.77
606.57	859.84
606.92	857.90
607.27	856.42
607.62	854.73
607.96	852.89
608.31	851.18
608.66	848.99
609.01	847.03
609.36	844.65
609.70	842.53
610.05	839.63
610.40	837.05
610.75	834.65
611.10	832.00
611.44	829.20
611.79	826.73
612.14	824.12
612.49	821.18
612.83	818.64
613.18	816.09
613.53	813.52
613.88	810.81
614.22	808.33
614.57	805.31
614.92	802.69
615.27	800.03
615.61	797.12
615.96	794.59
616.31	791.84
616.65	789.77
617.00	787.42
617.35	785.19
617.70	782.34
618.04	779.62
618.39	777.21
618.74	774.52
619.08	771.78
619.43	768.97
619.78	766.50
620.12	763.74
620.47	761.38
620.82	758.46
621.16	756.11
621.51	753.80
621.85	751.18
622.20	748.01
622.55	745.41
622.89	742.92
623.24	740.38
623.59	738.13
623.93	735.32
624.28	732.81
624.62	730.17
624.97	727.74
625.32	725.17
625.66	722.65
626.01	720.01
626.35	717.47
626.70	715.04
627.04	712.40
627.39	709.77
627.73	707.08
628.08	704.67
628.43	701.92
628.77	698.83
629.12	696.03
629.46	693.59
629.81	690.75
630.15	687.95
630.50	685.13
630.84	681.72
631.19	678.40
631.53	675.22
631.88	672.25
632.22	669.21
632.57	666.43
632.91	663.40
633.26	660.78
633.60	657.81
633.95	654.85
634.29	652.24
634.64	649.60
634.98	646.70
635.32	644.12
635.67	641.51
636.01	638.91
636.36	636.30
636.70	633.76
637.05	631.26
637.39	628.86
637.73	626.22
638.08	623.91
638.42	621.77
638.77	619.48
639.11	617.00
639.45	614.68
639.80	612.09
640.14	609.55
640.49	607.00
640.83	604.51
641.17	601.89
641.52	599.26
641.86	596.77
642.20	594.49
642.55	591.88
642.89	589.25
643.23	586.63
643.58	584.46
643.92	581.80
644.26	579.26
644.61	577.06
644.95	574.59
645.29	571.90
645.64	569.32
645.98	566.69
646.32	564.33
646.66	561.70
647.01	559.20
647.35	556.97
647.69	554.50
648.04	552.26
648.38	550.05
648.72	547.51
649.06	545.02
649.41	542.26
649.75	539.55
650.09	537.07
650.43	534.59
650.78	531.89
651.12	529.49
651.46	527.09
651.80	524.39
652.14	521.99
652.49	519.69
652.83	517.43
653.17	514.98
653.51	512.46
653.85	510.05
654.20	507.79
654.54	505.10
654.88	502.53
655.22	499.80
655.56	497.28
655.90	494.81
656.25	492.46
656.59	490.23
656.93	487.95
657.27	485.70
657.61	483.31
657.95	481.03
658.29	478.84
658.64	476.60
658.98	474.08
659.32	471.82
659.66	469.57
660.00	467.12
660.34	464.91
660.68	462.57
661.02	460.33
661.36	458.06
661.70	456.10
662.05	454.20
662.39	452.31
662.73	450.06
663.07	448.20
663.41	446.37
663.75	444.40
664.09	442.51
664.43	440.47
664.77	438.65
665.11	436.78
665.45	434.87
665.79	433.08
666.13	431.21
666.47	429.14
666.81	427.11
667.15	425.21
667.49	423.32
667.83	421.66
668.17	419.76
668.51	418.04
668.85	416.12
669.19	414.30
669.53	412.60
669.87	410.96
670.21	409.21
670.55	407.34
670.89	405.77
671.23	404.10
671.57	402.44
671.91	400.82
672.25	399.05
672.58	397.36
672.92	395.49
673.26	394.06
673.60	392.62
673.94	391.31
674.28	389.89
674.62	388.66
674.96	387.33
675.30	386.12
675.64	384.73
675.97	383.49
676.31	382.14
676.65	380.70
676.99	379.29
677.33	377.91
677.67	376.49
678.01	374.96
678.34	373.60
678.68	372.24
679.02	370.83
679.36	369.51
679.70	368.14
680.04	366.80
680.37	365.53
680.71	364.20
681.05	362.99
681.39	361.73
681.73	360.30
682.06	358.90
682.40	357.56
682.74	356.26
683.08	354.92
683.42	353.62
683.75	352.38
684.09	351.29
684.43	350.00
684.77	348.71
685.10	347.44
685.44	346.40
685.78	345.39
686.12	344.41
686.45	343.30
686.79	342.31
687.13	341.16
687.46	340.08
687.80	338.98
688.14	337.65
688.48	336.58
688.81	335.50
689.15	334.57
689.49	333.60
689.82	332.56
690.16	331.47
690.50	330.48
690.83	329.44
691.17	328.30
691.51	327.45
691.84	326.51
692.18	325.65
692.52	324.51
692.85	323.48
693.19	322.41
693.52	321.54
693.86	320.46
694.20	319.69
694.53	318.73
694.87	317.83
695.21	316.91
695.54	316.05
695.88	315.08
696.21	314.08
696.55	312.99
696.88	312.14
697.22	311.16
697.56	310.36
697.89	309.55
698.23	308.66
698.56	307.65
698.90	306.85
699.23	305.97
699.57	305.12
699.90	304.23
700.24	303.30
700.58	302.31
700.91	301.51
701.25	300.64
701.58	299.86
701.92	298.97
702.25	298.21
702.59	297.26
702.92	296.50
703.26	295.73
703.59	295.12
703.93	294.42
704.26	293.77
704.60	293.11
704.93	292.31
705.26	291.67
705.60	290.99
705.93	290.32
706.27	289.66
706.60	289.12
706.94	288.54
707.27	287.90
707.61	287.34
707.94	286.69
708.27	286.01
708.61	285.33
708.94	284.69
709.28	284.05
709.61	283.56
709.94	282.99
710.28	282.37
710.61	281.68
710.95	280.98
711.28	280.38
711.61	279.70
711.95	279.20
712.28	278.59
712.61	277.96
712.95	277.43
713.28	276.93
713.61	276.20
713.95	275.52
714.28	274.94
714.61	274.31
714.95	273.84
715.28	273.34
715.61	272.74
715.95	272.35
716.28	271.93
716.61	271.36
716.95	270.87
717.28	270.46
717.61	270.11
717.94	269.68
718.28	269.29
718.61	268.80
718.94	268.29
719.27	267.96
719.61	267.60
719.94	267.08
720.27	266.53
720.60	266.21
720.94	265.82
721.27	265.51
721.60	265.18
721.93	264.68
722.27	264.42
722.60	264.04
722.93	263.71
723.26	263.35
723.59	263.07
723.93	262.70
724.26	262.29
724.59	261.89
724.92	261.66
725.25	261.46
725.59	261.16
725.92	260.88
726.25	260.51
726.58	260.35
726.91	260.20
727.24	259.92
727.57	259.56
727.91	259.35
728.24	259.05
728.57	258.81
728.90	258.65
729.23	258.32
729.56	258.08
729.89	257.78
730.22	257.55
730.55	257.31
730.89	257.01
731.22	256.70
731.55	256.50
731.88	256.18
732.21	255.90
732.54	255.60
732.87	255.36
733.20	255.04
733.53	254.64
733.86	254.38
734.19	254.16
734.52	253.98
734.85	253.77
735.18	253.49
735.51	253.26
735.84	252.97
736.17	252.75
736.50	252.49
736.83	252.44
737.16	252.20
737.49	251.82
737.82	251.70
738.15	251.57
738.48	251.30
738.81	250.91
739.14	250.55
739.47	250.28
739.80	250.06
740.13	249.97
740.46	249.66
740.79	249.32
741.12	248.99
741.45	248.70
741.78	248.40
742.11	248.24
742.44	247.89
742.77	247.67
743.10	247.38
743.43	247.18
743.75	246.80
744.08	246.71
744.41	246.56
744.74	246.27
745.07	246.00
745.40	245.81
745.73	245.73
746.06	245.52
746.39	245.36
746.71	245.04
747.04	244.61
747.37	244.54
747.70	244.42
748.03	244.23
748.36	244.06
748.68	243.89
749.01	243.58
749.34	243.48
749.67	243.31
750.00	243.23
750.33	243.21
750.65	243.05
750.98	242.74
751.31	242.51
751.64	242.27
751.97	242.18
752.29	241.96
752.62	241.77
752.95	241.66
753.28	241.53
753.60	241.46
753.93	241.50
754.26	241.25
754.59	241.12
754.91	241.04
755.24	240.95
755.57	240.82
755.90	240.72
756.22	240.64
756.55	240.55
756.88	240.31
757.20	240.03
757.53	239.81
757.86	239.65
758.19	239.70
758.51	239.62
758.84	239.42
759.17	239.31
759.49	239.24
759.82	239.16
760.15	239.00
760.47	238.92
760.80	238.68
761.13	238.59
761.45	238.39
761.78	238.26
762.11	238.03
762.43	237.77
762.76	237.64
763.08	237.39
763.41	237.27
763.74	237.28
764.06	237.24
764.39	237.18
764.71	237.03
765.04	236.77
765.37	236.69
765.69	236.58
766.02	236.48
766.34	236.36
766.67	236.24
767.00	236.17
767.32	236.18
767.65	236.31
767.97	236.20
768.30	236.17
768.62	236.13
768.95	236.13
769.27	236.16
769.60	236.20
769.92	236.15
770.25	236.00
770.57	235.80
770.90	235.61
771.22	235.51
771.55	235.48
771.87	235.50
772.20	235.33
772.52	235.45
772.85	235.61
773.17	235.53
773.50	235.41
773.82	235.31
774.15	235.12
774.47	234.89
774.80	234.97
775.12	234.93
775.45	234.81
775.77	234.81
776.09	234.76
776.42	234.64
776.74	234.76
777.07	234.72
777.39	234.63
777.72	234.63
778.04	234.60
778.36	234.53
778.69	234.43
779.01	234.52
779.33	234.30
779.66	233.97
779.98	233.85
780.31	233.74
780.63	233.70
780.95	233.65
781.28	233.56
781.60	233.45
781.92	233.32
782.25	233.21
782.57	233.17
782.89	233.12
783.22	233.12
783.54	233.00
783.86	232.89
784.19	232.90
784.51	232.89
784.83	232.73
785.16	232.67
785.48	232.56
785.80	232.48
786.12	232.49
786.45	232.49
786.77	232.48
787.09	232.43
787.42	232.42
787.74	232.41
788.06	232.48
788.38	232.40
788.71	232.36
789.03	232.40
789.35	232.35
789.67	232.25
789.99	232.25
790.32	232.15
790.64	232.11
790.96	232.16
791.28	232.07
791.61	231.98
791.93	231.95
792.25	231.93
792.57	231.98
792.89	231.83
793.21	231.86
793.54	231.77
793.86	231.76
794.18	231.69
794.50	231.63
794.82	231.52
795.14	231.54
795.47	231.59
795.79	231.51
796.11	231.40
796.43	231.30
796.75	231.23
797.07	231.25
797.39	231.30
797.71	231.18
798.04	231.13
798.36	231.24
798.68	231.22
799.00	231.25
799.32	231.22
799.64	231.33
799.96	231.25
800.28	231.30
800.60	231.17
800.92	231.16
801.24	231.02
801.56	231.01
801.89	230.93
802.21	230.82
802.53	230.80
802.85	230.76
803.17	230.89
803.49	230.70
803.81	230.71
804.13	230.68
804.45	230.70
804.77	230.72
805.09	230.67
805.41	230.57
805.73	230.52
806.05	230.39
806.37	230.29
806.69	230.19
807.01	230.12
807.33	230.24
807.65	230.14
807.97	230.26
808.28	230.17
808.60	230.16
808.92	230.14
809.24	230.25
809.56	230.28
809.88	230.25
810.20	230.28
810.52	230.21
810.84	230.16
811.16	230.09
811.48	230.08
811.80	230.12
812.12	230.23
812.43	230.29
812.75	230.36
813.07	230.31
813.39	230.40
813.71	230.42
814.03	230.42
814.35	230.53
814.67	230.41
814.98	230.51
815.30	230.56
815.62	230.57
815.94	230.46
816.26	230.56
816.58	230.52
816.89	230.61
817.21	230.55
817.53	230.60
817.85	230.60
818.17	230.50
818.48	230.37
818.80	230.39
819.12	230.29
819.44	230.22
819.76	230.19
820.07	230.08
820.39	229.96
820.71	229.99
821.03	229.84
821.34	229.90
821.66	229.90
821.98	229.76
822.30	229.65
822.61	229.70
822.93	229.52
823.25	229.56
823.57	229.46
823.88	229.51
824.20	229.48
824.52	229.48
824.83	229.42
825.15	229.43
825.47	229.37
825.79	229.39
826.10	229.34
826.42	229.21
826.74	229.27
827.05	229.24
827.37	229.13
827.69	229.06
828.00	228.90
828.32	228.82
828.64	228.96
828.95	229.04
829.27	228.91
829.58	228.97
829.90	228.91
830.22	228.90
830.53	228.85
830.85	228.77
831.17	228.74
831.48	228.78
831.80	228.81
832.11	228.79
832.43	228.75
832.75	228.63
833.06	228.90
833.38	228.85
833.69	228.89
834.01	228.86
834.32	229.00
834.64	229.02
834.96	228.99
835.27	228.91
835.59	228.92
835.90	228.91
836.22	228.95
836.53	228.83
836.85	228.86
837.16	228.99
837.48	229.05
837.79	229.04
838.11	229.05
838.42	229.05
838.74	229.12
839.05	229.03
839.37	229.13
839.68	228.93
840.00	228.91
840.31	228.96
840.63	228.98
840.94	228.88
841.26	228.94
841.57	228.88
841.88	228.87
842.20	228.80
842.51	228.82
842.83	228.79
843.14	229.05
843.46	229.01
843.77	228.97
844.08	228.85
844.40	228.89
844.71	228.81
845.03	228.77
845.34	228.67
845.65	228.77
845.97	228.80
846.28	228.83
846.60	228.80
846.91	228.79
847.22	228.83
847.54	228.90
847.85	228.82
848.16	228.88
848.48	228.76
848.79	228.93
849.10	228.88
849.42	228.81
849.73	228.63
850.04	228.67
850.36	228.61
850.67	228.67
850.98	228.60
851.30	228.74
851.61	228.78
851.92	228.78
852.23	228.80
852.55	228.80
852.86	228.89
853.17	228.97
853.49	228.99
853.80	228.95
854.11	228.95
854.42	229.01
854.74	228.97
855.05	229.13
855.36	229.01
855.67	229.09
855.99	229.12
856.30	229.42
856.61	229.35
856.92	229.30
857.23	229.33
857.55	229.36
857.86	229.38
858.17	229.35
858.48	229.34
858.79	229.26
859.11	229.27
859.42	229.24
859.73	229.22
860.04	229.16
860.35	229.21
860.66	229.20
860.98	229.28
861.29	229.41
861.60	229.34
861.91	229.34
862.22	229.38
862.53	229.39
862.84	229.14
863.16	229.39
863.47	229.40
863.78	229.35
864.09	229.24
864.40	229.13
864.71	229.17
865.02	229.25
865.33	229.37
865.64	229.38
865.95	229.34
866.27	229.45
866.58	229.42
866.89	229.43
867.20	229.39
867.51	229.31
867.82	229.36
868.13	229.36
868.44	229.38
868.75	229.32
869.06	229.28
869.37	229.23
869.68	229.07
869.99	229.18
870.30	229.20
870.61	229.34
870.92	229.26
871.23	229.11
871.54	229.06
871.85	229.01
872.16	229.00
872.47	229.00
872.78	228.90
873.09	229.00
873.40	228.99
873.71	229.06
874.02	229.11
874.33	228.97
874.64	229.03
874.95	228.96
875.26	229.00
875.56	229.03
875.87	228.96
876.18	228.90
876.49	229.08
876.80	229.04
877.11	228.93
877.42	228.98
877.73	229.10
878.04	229.15
878.35	229.11
878.66	229.14
878.96	229.04
879.27	228.99
879.58	228.96
879.89	228.95
880.20	228.99
880.51	228.82
880.82	228.78
881.12	228.67
881.43	228.64
881.74	228.63
882.05	228.62
882.36	228.78
882.67	228.84
882.97	228.58
883.28	228.62
883.59	228.70
883.90	228.80
884.21	228.80
884.51	228.79
884.82	228.82
885.13	228.79
885.44	228.88
885.74	228.87
886.05	228.96
886.36	228.91
886.67	228.82
886.98	229.03
887.28	229.06
887.59	229.22
887.90	229.22
888.20	229.17
888.51	229.17
888.82	228.99
889.13	228.90
889.43	229.01
889.74	228.95
890.05	228.86
890.35	228.77
890.66	228.71
890.97	228.60
891.28	228.53
891.58	228.36
891.89	228.40
892.20	228.40
892.50	228.29
892.81	228.20
893.12	228.28
893.42	228.17
893.73	228.24
894.04	228.13
894.34	228.16
894.65	228.22
894.95	228.22
895.26	228.31
895.57	228.36
895.87	228.25
896.18	228.31
896.48	228.30
896.79	228.41
897.10	228.39
897.40	228.45
897.71	228.52
898.01	228.61
898.32	228.51
898.63	228.51
898.93	228.50
899.24	228.54
899.54	228.45
899.85	228.53
900.15	228.40
900.46	228.42
900.76	228.44
901.07	228.31
901.38	228.35
901.68	228.41
901.99	228.37
902.29	228.36
902.60	228.30
902.90	228.36
903.21	228.33
903.51	228.32
903.82	228.32
904.12	228.30
904.43	228.33
904.73	228.30
905.03	228.25
905.34	228.52
905.64	228.60
905.95	228.54
906.25	228.38
906.56	228.43
906.86	228.43
907.17	228.39
907.47	228.42
907.77	228.31
908.08	228.22
908.38	228.21
908.69	228.19
908.99	228.27
909.30	228.23
909.60	228.16
909.90	228.25
910.21	228.17
910.51	228.10
910.81	228.09
911.12	228.20
911.42	228.23
911.73	228.00
912.03	227.93
912.33	228.00
912.64	228.09
912.94	228.09
913.24	228.06
913.55	228.06
913.85	228.05
914.15	228.07
914.46	228.07
914.76	228.04
915.06	228.06
915.37	227.99
915.67	227.98
915.97	227.93
916.27	227.80
916.58	227.78
916.88	227.78
917.18	227.77
917.49	227.88
917.79	227.83
918.09	227.86
918.39	227.85
918.70	227.93
919.00	227.82
919.30	227.90
919.60	227.84
919.91	227.87
920.21	227.90
920.51	227.89
920.81	227.86
921.12	227.98
921.42	227.99
921.72	228.01
922.02	228.01
922.32	228.05
922.63	228.17
922.93	228.26
923.23	228.32
923.53	228.29
923.83	228.14
924.13	228.30
924.44	228.30
924.74	228.45
925.04	228.35
925.34	228.41
925.64	228.33
925.94	228.37
926.24	228.37
926.55	228.46
926.85	228.44
927.15	228.56
927.45	228.59
927.75	228.54
928.05	228.53
928.35	228.53
928.65	228.57
928.95	228.60
929.26	228.60
929.56	228.63
929.86	228.64
930.16	228.76
930.46	228.66
930.76	228.63
931.06	228.53
931.36	228.51
931.66	228.62
931.96	228.66
932.26	228.67
932.56	228.69
932.86	228.60
933.16	228.59
933.46	228.59
933.76	228.47
934.06	228.58
934.36	228.70
934.66	228.73
934.96	228.73
935.26	228.72
935.56	228.83
935.86	228.75
936.16	228.73
936.46	228.62
936.76	228.62
937.06	228.54
937.36	228.50
937.66	228.48
937.96	228.43
938.26	228.40
938.56	228.41
938.86	228.42
939.16	228.43
939.46	228.58
939.76	228.52
940.06	228.53
940.35	228.34
940.65	228.14
940.95	228.10
941.25	228.00
941.55	227.87
941.85	227.83
942.15	227.90
942.45	227.92
942.75	227.90
943.04	227.96
943.34	228.00
943.64	227.90
943.94	227.93
944.24	227.88
944.54	227.91
944.84	227.78
945.13	227.72
945.43	227.70
945.73	227.56
946.03	227.51
946.33	227.50
946.62	227.52
946.92	227.61
947.22	227.65
947.52	227.70
947.82	227.82
948.11	227.67
948.41	227.61
948.71	227.65
949.01	227.74
949.31	227.76
949.60	227.77
949.90	227.89
950.20	227.93
950.50	227.98
950.79	228.08
951.09	228.20
951.39	228.19
951.69	228.20
951.98	228.29
952.28	228.30
952.58	228.26
952.87	228.32
953.17	228.30
953.47	228.28
953.76	228.34
954.06	228.28
954.36	228.29
954.66	228.38
954.95	228.41
955.25	228.31
955.55	228.20
955.84	228.19
956.14	228.26
956.44	228.30
956.73	228.20
957.03	228.15
957.32	228.17
957.62	228.18
957.92	228.28
958.21	228.31
958.51	228.62
958.81	228.70
959.10	228.70
959.40	228.70
959.69	228.77
959.99	228.81
960.29	228.84
960.58	228.96
960.88	228.96
961.17	229.01
961.47	229.04
961.76	229.10
962.06	229.11
962.36	229.08
962.65	229.05
962.95	229.14
963.24	229.06
963.54	229.05
963.83	229.08
964.13	228.90
964.42	228.87
964.72	228.60
965.01	228.62
965.31	228.59
965.60	228.59
965.90	228.74
966.19	228.62
966.49	228.56
966.78	228.54
967.08	228.52
967.37	228.45
967.67	228.39
967.96	228.43
968.26	228.38
968.55	228.34
968.85	228.32
969.14	228.34
969.43	228.35
969.73	228.35
970.02	228.32
970.32	228.44
970.61	228.40
970.91	228.41
971.20	228.35
971.49	228.44
971.79	228.49
972.08	228.30
972.38	228.25
972.67	228.27
972.96	228.21
973.26	228.20
973.55	228.18
973.85	228.15
974.14	228.15
974.43	228.18
974.73	228.11
975.02	228.10
975.31	228.09
975.61	228.12
975.90	228.01
976.19	227.90
976.49	227.87
976.78	227.84
977.07	227.83
977.37	227.83
977.66	227.80
977.95	227.62
978.24	227.55
978.54	227.66
978.83	227.71
979.12	227.73
979.42	227.70
979.71	227.66
980.00	227.60
980.29	227.61
980.59	227.51
980.88	227.57
981.17	227.52
981.46	227.44
981.76	227.38
982.05	227.45
982.34	227.52
982.63	227.51
982.93	227.48
983.22	227.47
983.51	227.38
983.80	227.36
984.09	227.51
984.39	227.60
984.68	227.54
984.97	227.45
985.26	227.49
985.55	227.48
985.85	227.48
986.14	227.55
986.43	227.54
986.72	227.66
987.01	227.64
987.30	227.75
987.59	227.77
987.89	227.76
988.18	227.78
988.47	227.76
988.76	227.82
989.05	227.92
989.34	227.96
989.63	228.07
989.92	228.11
990.22	228.06
990.51	228.07
990.80	228.00
991.09	228.00
991.38	228.00
991.67	228.06
991.96	228.03
992.25	228.19
992.54	228.19
992.83	228.19
993.12	228.22
993.41	228.21
993.70	228.19
993.99	228.24
994.28	228.20
994.58	228.31
994.87	228.22
995.16	228.12
995.45	228.00
995.74	228.02
996.03	228.00
996.32	228.03
996.61	228.04
996.90	228.14
997.19	228.22
997.48	228.27
997.77	228.21
998.06	228.21
998.34	228.15
998.63	228.11
998.92	228.18
999.21	228.22
999.50	228.23
999.79	228.23
1000.08	228.23
1000.37	228.33
1000.66	228.20
1000.95	228.40
1001.24	228.42
1001.53	228.56
1001.82	228.46
1002.11	228.49
1002.40	228.46
1002.68	228.53
1002.97	228.65
1003.26	228.62
1003.55	228.56
1003.84	228.60
1004.13	228.78
1004.42	228.78
1004.71	228.81
1004.99	228.75
1005.28	228.82
1005.57	228.85
1005.86	228.92
1006.15	228.95
1006.44	228.90
1006.72	228.97
1007.01	228.87
1007.30	228.92
1007.59	228.97
1007.88	229.03
1008.17	229.03
1008.45	229.07
1008.74	228.97
1009.03	228.92
1009.32	228.90
1009.60	228.89
1009.89	228.79
1010.18	228.66
1010.47	228.59
1010.76	228.56
1011.04	228.52
1011.33	228.36
1011.62	228.32
1011.91	228.28
1012.19	228.26
1012.48	228.23
1012.77	228.21
1013.05	228.25
1013.34	228.23
1013.63	228.19
1013.92	228.21
1014.20	228.09
1014.49	228.08
1014.78	228.10
1015.06	228.03
1015.35	227.96
1015.64	227.92
1015.92	228.02
1016.21	227.95
1016.50	227.97
1016.78	227.92
1017.07	227.94
1017.36	227.90
1017.64	227.85
1017.93	227.82
1018.22	227.84
1018.50	227.90
1018.79	227.92
1019.08	227.80
1019.36	227.84
1019.65	227.68
1019.93	227.64
1020.22	227.83
1020.51	227.90
1020.79	227.86
1021.08	229.10
1021.36	228.30
1021.65	228.60
1021.94	227.10
1022.22	229.10
1022.51	226.10
1022.79	227.60
1023.08	230.00
1023.36	229.90
1023.65	227.30
>>>>>End Processed Spectral Data<<<<<
