SpectraSuite Data File
++++++++++++++++++++++++++++++++++++
Date: Fri Feb 01 14:40:42 EST 2013
User: group
Dark Spectrum Present: No
Reference Spectrum Present: No
Number of Sampled Component Spectra: 1
Spectrometers: USB2E7196
Integration Time (usec): 70000 (USB2E7196)
Spectra Averaged: 10 (USB2E7196)
Boxcar Smoothing: 10 (USB2E7196)
Correct for Electrical Dark: No (USB2E7196)
Strobe/Lamp Enabled: No (USB2E7196)
Correct for Detector Non-linearity: No (USB2E7196)
Correct for Stray Light: No (USB2E7196)
Number of Pixels in Processed Spectrum: 2048
>>>>>Begin Processed Spectral Data<<<<<
339.09	0.00
339.48	218.30
339.86	218.10
340.24	217.20
340.63	221.00
341.01	224.30
341.39	224.40
341.78	225.00
342.16	224.00
342.54	225.90
342.93	214.50
343.31	225.35
343.69	225.74
344.07	226.17
344.46	226.70
344.84	227.01
345.22	227.26
345.60	227.47
345.99	227.72
346.37	227.89
346.75	227.95
347.13	228.11
347.52	228.08
347.90	228.22
348.28	228.36
348.66	228.33
349.05	228.23
349.43	228.27
349.81	228.28
350.19	228.36
350.57	228.38
350.96	228.49
351.34	228.52
351.72	228.70
352.10	228.79
352.48	228.81
352.87	228.88
353.25	228.83
353.63	228.90
354.01	228.96
354.39	229.04
354.77	229.13
355.15	229.15
355.54	229.28
355.92	229.17
356.30	229.14
356.68	229.34
357.06	229.54
357.44	229.52
357.82	229.59
358.20	229.66
358.58	229.77
358.97	229.82
359.35	230.00
359.73	230.03
360.11	230.07
360.49	230.12
360.87	230.23
361.25	230.33
361.63	230.39
362.01	230.31
362.39	230.41
362.77	230.42
363.15	230.51
363.53	230.60
363.91	230.67
364.29	230.73
364.67	230.51
365.05	230.44
365.43	230.49
365.81	230.48
366.19	230.51
366.57	230.60
366.95	230.59
367.33	230.43
367.71	230.41
368.09	230.44
368.47	230.40
368.85	230.27
369.23	230.27
369.61	230.18
369.99	230.25
370.37	230.18
370.75	230.20
371.13	230.03
371.51	230.00
371.89	229.99
372.27	229.90
372.65	229.85
373.03	229.76
373.41	229.63
373.78	229.59
374.16	229.49
374.54	229.25
374.92	229.13
375.30	229.07
375.68	228.92
376.06	228.84
376.44	228.71
376.82	228.73
377.19	228.67
377.57	228.60
377.95	228.44
378.33	228.41
378.71	228.27
379.09	228.24
379.47	228.15
379.84	228.07
380.22	228.00
380.60	227.90
380.98	227.83
381.36	227.80
381.73	227.51
382.11	227.44
382.49	227.42
382.87	227.30
383.25	227.20
383.62	227.30
384.00	227.20
384.38	227.18
384.76	227.08
385.13	227.13
385.51	226.98
385.89	226.97
386.27	226.82
386.64	226.89
387.02	226.87
387.40	226.82
387.78	226.80
388.15	226.75
388.53	226.77
388.91	226.78
389.29	226.83
389.66	226.89
390.04	226.90
390.42	226.81
390.79	226.79
391.17	226.87
391.55	226.70
391.92	226.76
392.30	226.86
392.68	226.84
393.05	226.80
393.43	226.82
393.81	226.74
394.18	226.80
394.56	226.75
394.94	226.80
395.31	226.83
395.69	226.88
396.06	226.99
396.44	227.04
396.82	227.20
397.19	227.30
397.57	227.55
397.95	227.61
398.32	227.83
398.70	228.08
399.07	228.14
399.45	228.32
399.82	228.44
400.20	228.48
400.58	228.58
400.95	228.57
401.33	228.70
401.70	228.95
402.08	229.05
402.45	229.12
402.83	229.30
403.20	229.35
403.58	229.49
403.95	229.70
404.33	229.85
404.71	229.90
405.08	230.12
405.46	230.19
405.83	230.42
406.21	230.52
406.58	230.60
406.96	230.86
407.33	231.01
407.70	231.10
408.08	231.36
408.45	231.64
408.83	231.89
409.20	232.10
409.58	232.27
409.95	232.57
410.33	232.92
410.70	233.11
411.08	233.39
411.45	233.76
411.82	233.95
412.20	234.36
412.57	234.83
412.95	235.11
413.32	235.61
413.69	235.99
414.07	236.41
414.44	237.00
414.82	237.48
415.19	238.02
415.56	238.65
415.94	239.23
416.31	239.89
416.68	240.47
417.06	241.18
417.43	241.81
417.81	242.60
418.18	243.32
418.55	244.16
418.93	245.15
419.30	245.94
419.67	246.92
420.04	247.86
420.42	248.77
420.79	249.95
421.16	251.01
421.54	252.21
421.91	253.46
422.28	254.61
422.66	255.86
423.03	257.23
423.40	258.50
423.77	259.96
424.15	261.35
424.52	262.94
424.89	264.57
425.26	266.17
425.64	267.64
426.01	269.23
426.38	270.97
426.75	272.61
427.13	274.39
427.50	276.18
427.87	278.07
428.24	279.86
428.61	281.55
428.99	283.67
429.36	285.76
429.73	287.81
430.10	289.88
430.47	292.08
430.85	294.22
431.22	296.57
431.59	298.97
431.96	301.22
432.33	303.67
432.70	306.16
433.08	308.93
433.45	311.74
433.82	314.44
434.19	317.43
434.56	320.35
434.93	323.08
435.30	325.91
435.68	328.98
436.05	331.98
436.42	334.86
436.79	337.21
437.16	340.09
437.53	343.00
437.90	345.87
438.27	348.57
438.64	351.42
439.01	354.08
439.38	356.41
439.75	358.67
440.13	361.32
440.50	363.80
440.87	365.86
441.24	367.76
441.61	370.01
441.98	371.44
442.35	373.26
442.72	375.26
443.09	376.95
443.46	377.88
443.83	378.71
444.20	379.28
444.57	380.19
444.94	380.32
445.31	380.65
445.68	381.05
446.05	381.29
446.42	380.95
446.79	380.56
447.16	380.10
447.53	379.90
447.90	378.70
448.27	377.41
448.64	375.81
449.01	374.66
449.37	372.74
449.74	370.86
450.11	368.61
450.48	365.87
450.85	363.39
451.22	361.15
451.59	358.92
451.96	356.84
452.33	354.35
452.70	351.95
453.07	349.05
453.43	346.10
453.80	343.10
454.17	340.25
454.54	337.59
454.91	334.72
455.28	331.80
455.65	329.20
456.02	326.89
456.38	324.61
456.75	321.76
457.12	319.30
457.49	317.09
457.86	314.80
458.23	313.05
458.59	310.85
458.96	308.76
459.33	306.79
459.70	304.89
460.07	303.22
460.43	301.54
460.80	299.98
461.17	298.51
461.54	296.90
461.91	295.40
462.27	293.89
462.64	292.60
463.01	291.30
463.38	289.95
463.74	288.30
464.11	287.06
464.48	286.09
464.85	284.90
465.21	283.90
465.58	282.75
465.95	281.50
466.32	280.47
466.68	279.26
467.05	278.15
467.42	277.19
467.78	276.22
468.15	275.20
468.52	274.44
468.88	273.45
469.25	272.66
469.62	272.00
469.98	271.12
470.35	270.31
470.72	269.55
471.08	268.71
471.45	268.10
471.82	267.38
472.18	266.54
472.55	265.96
472.92	265.21
473.28	264.68
473.65	264.05
474.02	263.56
474.38	263.20
474.75	262.88
475.11	262.32
475.48	261.75
475.85	261.40
476.21	260.86
476.58	260.51
476.94	260.18
477.31	259.77
477.67	259.45
478.04	259.19
478.41	258.93
478.77	258.95
479.14	258.71
479.50	258.45
479.87	258.30
480.23	258.18
480.60	258.07
480.96	257.97
481.33	257.90
481.69	257.86
482.06	257.73
482.42	257.67
482.79	257.61
483.15	257.68
483.52	257.59
483.88	257.70
484.25	257.66
484.61	257.69
484.98	257.72
485.34	257.90
485.71	258.08
486.07	258.27
486.44	258.28
486.80	258.42
487.17	258.79
487.53	259.10
487.90	259.45
488.26	259.85
488.62	260.24
488.99	260.66
489.35	260.99
489.72	261.42
490.08	261.92
490.44	262.52
490.81	263.03
491.17	263.69
491.54	264.30
491.90	265.06
492.26	265.84
492.63	266.80
492.99	267.58
493.36	268.44
493.72	269.38
494.08	270.30
494.45	271.38
494.81	272.43
495.17	273.59
495.54	274.81
495.90	276.09
496.26	277.51
496.63	279.03
496.99	280.60
497.35	282.32
497.72	284.07
498.08	285.95
498.44	287.95
498.80	290.02
499.17	292.03
499.53	294.02
499.89	296.35
500.26	298.57
500.62	301.09
500.98	303.73
501.34	306.29
501.71	309.24
502.07	312.10
502.43	315.17
502.79	318.38
503.16	321.70
503.52	325.19
503.88	328.72
504.24	332.39
504.60	336.27
504.97	340.27
505.33	344.29
505.69	348.72
506.05	353.14
506.41	357.65
506.78	362.37
507.14	367.37
507.50	372.60
507.86	377.90
508.22	383.37
508.59	388.87
508.95	394.84
509.31	400.86
509.67	407.20
510.03	413.74
510.39	420.38
510.75	427.00
511.12	433.91
511.48	440.83
511.84	447.96
512.20	455.38
512.56	462.95
512.92	470.73
513.28	478.54
513.64	486.50
514.00	494.84
514.37	503.44
514.73	512.07
515.09	520.39
515.45	529.38
515.81	538.46
516.17	547.87
516.53	557.17
516.89	566.57
517.25	576.42
517.61	586.13
517.97	596.05
518.33	606.02
518.69	616.44
519.05	627.27
519.41	638.09
519.77	649.05
520.13	660.21
520.49	671.49
520.85	682.98
521.21	694.51
521.57	706.37
521.93	718.10
522.29	730.10
522.65	742.26
523.01	754.47
523.37	766.63
523.73	778.82
524.09	791.24
524.45	803.72
524.81	816.44
525.17	829.39
525.53	842.50
525.89	855.94
526.25	869.11
526.61	882.10
526.97	895.65
527.33	909.25
527.68	922.91
528.04	936.25
528.40	949.99
528.76	963.98
529.12	978.04
529.48	992.11
529.84	1005.69
530.20	1020.16
530.56	1034.41
530.91	1049.12
531.27	1063.73
531.63	1078.22
531.99	1092.84
532.35	1106.93
532.71	1120.84
533.07	1135.26
533.42	1149.50
533.78	1163.92
534.14	1178.29
534.50	1192.05
534.86	1206.07
535.21	1219.79
535.57	1234.47
535.93	1248.58
536.29	1262.53
536.65	1276.37
537.00	1290.26
537.36	1304.91
537.72	1318.37
538.08	1331.78
538.44	1345.04
538.79	1358.36
539.15	1371.13
539.51	1384.68
539.87	1398.37
540.22	1411.85
540.58	1425.42
540.94	1438.54
541.29	1451.30
541.65	1464.28
542.01	1477.85
542.37	1491.01
542.72	1504.06
543.08	1516.59
543.44	1529.00
543.79	1540.69
544.15	1552.57
544.51	1564.84
544.87	1576.83
545.22	1588.57
545.58	1600.07
545.94	1611.22
546.29	1622.69
546.65	1634.16
547.01	1644.77
547.36	1655.38
547.72	1665.64
548.07	1675.48
548.43	1685.50
548.79	1695.09
549.14	1704.33
549.50	1713.30
549.86	1722.12
550.21	1730.76
550.57	1739.86
550.92	1748.70
551.28	1758.01
551.64	1766.90
551.99	1775.32
552.35	1783.28
552.70	1791.75
553.06	1800.65
553.41	1809.11
553.77	1816.82
554.13	1824.74
554.48	1832.99
554.84	1840.23
555.19	1848.04
555.55	1855.42
555.90	1862.19
556.26	1869.95
556.61	1877.13
556.97	1883.60
557.32	1890.42
557.68	1897.43
558.03	1903.66
558.39	1910.00
558.74	1916.63
559.10	1922.67
559.45	1928.90
559.81	1935.40
560.16	1940.82
560.52	1945.55
560.87	1951.40
561.23	1956.18
561.58	1961.81
561.94	1966.52
562.29	1971.14
562.64	1975.65
563.00	1979.87
563.35	1985.06
563.71	1990.07
564.06	1995.26
564.42	2000.11
564.77	2004.84
565.12	2009.44
565.48	2013.93
565.83	2017.29
566.19	2020.74
566.54	2024.24
566.89	2027.54
567.25	2030.48
567.60	2034.50
567.96	2037.80
568.31	2040.28
568.66	2043.21
569.02	2045.79
569.37	2048.16
569.72	2050.70
570.08	2052.78
570.43	2055.17
570.78	2056.69
571.14	2057.37
571.49	2058.41
571.84	2060.49
572.20	2060.86
572.55	2061.13
572.90	2061.07
573.26	2062.51
573.61	2063.10
573.96	2062.90
574.31	2062.13
574.67	2060.86
575.02	2059.31
575.37	2058.80
575.72	2057.10
576.08	2056.41
576.43	2054.92
576.78	2053.55
577.13	2052.49
577.49	2051.69
577.84	2050.31
578.19	2048.51
578.54	2046.52
578.90	2043.90
579.25	2040.65
579.60	2037.94
579.95	2035.03
580.30	2032.31
580.66	2028.68
581.01	2024.84
581.36	2021.84
581.71	2019.49
582.06	2017.00
582.42	2013.76
582.77	2010.40
583.12	2007.32
583.47	2004.45
583.82	2001.34
584.17	1997.91
584.53	1994.36
584.88	1990.55
585.23	1986.34
585.58	1982.84
585.93	1979.14
586.28	1975.89
586.63	1972.70
586.98	1969.59
587.34	1966.74
587.69	1962.88
588.04	1959.26
588.39	1955.99
588.74	1951.32
589.09	1945.94
589.44	1940.90
589.79	1937.45
590.14	1933.71
590.49	1929.27
590.84	1924.24
591.19	1919.77
591.54	1914.19
591.89	1908.13
592.25	1902.72
592.60	1896.97
592.95	1891.64
593.30	1886.11
593.65	1880.03
594.00	1874.09
594.35	1868.61
594.70	1861.72
595.05	1856.43
595.40	1850.31
595.75	1844.26
596.10	1839.56
596.45	1835.25
596.80	1830.86
597.15	1824.83
597.50	1818.73
597.85	1813.80
598.19	1808.29
598.54	1802.60
598.89	1797.93
599.24	1793.90
599.59	1788.63
599.94	1783.96
600.29	1778.51
600.64	1772.97
600.99	1767.25
601.34	1761.93
601.69	1755.75
602.04	1750.59
602.39	1744.90
602.74	1739.78
603.08	1734.60
603.43	1729.24
603.78	1722.99
604.13	1716.71
604.48	1710.77
604.83	1704.73
605.18	1698.89
605.53	1692.51
605.87	1685.40
606.22	1679.04
606.57	1672.27
606.92	1665.95
607.27	1659.70
607.62	1654.07
607.96	1648.10
608.31	1642.41
608.66	1635.18
609.01	1628.36
609.36	1621.55
609.70	1613.98
610.05	1606.82
610.40	1599.59
610.75	1592.03
611.10	1584.85
611.44	1577.00
611.79	1570.10
612.14	1562.87
612.49	1554.59
612.83	1547.35
613.18	1540.50
613.53	1533.19
613.88	1525.47
614.22	1518.05
614.57	1510.23
614.92	1502.22
615.27	1495.13
615.61	1487.35
615.96	1480.36
616.31	1473.93
616.65	1467.42
617.00	1460.73
617.35	1453.46
617.70	1446.16
618.04	1438.57
618.39	1431.58
618.74	1425.40
619.08	1417.91
619.43	1411.10
619.78	1404.64
620.12	1397.90
620.47	1390.90
620.82	1383.44
621.16	1376.55
621.51	1369.93
621.85	1363.06
622.20	1355.99
622.55	1349.02
622.89	1342.49
623.24	1336.12
623.59	1329.30
623.93	1322.40
624.28	1315.70
624.62	1308.97
624.97	1302.54
625.32	1296.36
625.66	1289.90
626.01	1283.00
626.35	1276.48
626.70	1269.62
627.04	1263.12
627.39	1255.92
627.73	1249.36
628.08	1243.06
628.43	1236.47
628.77	1229.40
629.12	1222.70
629.46	1216.10
629.81	1208.63
630.15	1201.36
630.50	1193.97
630.84	1186.38
631.19	1178.93
631.53	1171.63
631.88	1164.30
632.22	1156.94
632.57	1150.33
632.91	1143.38
633.26	1136.13
633.60	1129.06
633.95	1122.14
634.29	1115.27
634.64	1109.10
634.98	1102.00
635.32	1095.33
635.67	1089.20
636.01	1083.02
636.36	1076.50
636.70	1070.03
637.05	1064.03
637.39	1058.18
637.73	1052.17
638.08	1046.63
638.42	1040.90
638.77	1035.27
639.11	1029.48
639.45	1023.49
639.80	1017.00
640.14	1010.45
640.49	1004.53
640.83	998.64
641.17	992.61
641.52	986.67
641.86	980.40
642.20	975.02
642.55	969.04
642.89	962.90
643.23	956.52
643.58	951.18
643.92	945.18
644.26	939.37
644.61	933.63
644.95	927.96
645.29	921.47
645.64	915.15
645.98	909.45
646.32	903.92
646.66	898.18
647.01	892.48
647.35	887.13
647.69	881.65
648.04	876.12
648.38	870.46
648.72	864.42
649.06	858.55
649.41	852.83
649.75	847.06
650.09	841.07
650.43	835.44
650.78	829.22
651.12	823.40
651.46	817.70
651.80	812.13
652.14	806.65
652.49	801.29
652.83	796.25
653.17	790.58
653.51	785.06
653.85	779.62
654.20	774.12
654.54	768.47
654.88	762.80
655.22	756.90
655.56	751.34
655.90	746.26
656.25	741.19
656.59	736.00
656.93	731.02
657.27	726.20
657.61	721.21
657.95	716.53
658.29	711.81
658.64	706.85
658.98	701.70
659.32	696.43
659.66	691.63
660.00	686.63
660.34	681.68
660.68	676.81
661.02	672.23
661.36	667.50
661.70	663.16
662.05	658.81
662.39	654.84
662.73	650.57
663.07	646.17
663.41	641.99
663.75	637.46
664.09	633.25
664.43	629.14
664.77	625.14
665.11	621.04
665.45	617.03
665.79	613.03
666.13	609.02
666.47	605.07
666.81	601.15
667.15	597.10
667.49	593.31
667.83	589.67
668.17	585.71
668.51	581.99
668.85	578.01
669.19	574.43
669.53	570.72
669.87	567.03
670.21	563.61
670.55	560.09
670.89	557.13
671.23	553.93
671.57	550.56
671.91	547.14
672.25	543.74
672.58	540.34
672.92	537.18
673.26	534.36
673.60	531.45
673.94	528.33
674.28	525.61
674.62	522.68
674.96	519.64
675.30	516.88
675.64	514.10
675.97	511.45
676.31	508.72
676.65	506.08
676.99	503.64
677.33	500.89
677.67	498.11
678.01	494.97
678.34	492.00
678.68	489.14
679.02	486.30
679.36	483.57
679.70	480.99
680.04	478.42
680.37	475.65
680.71	472.91
681.05	470.67
681.39	468.19
681.73	465.83
682.06	463.48
682.40	461.00
682.74	458.48
683.08	456.03
683.42	453.53
683.75	451.02
684.09	448.23
684.43	445.63
684.77	443.16
685.10	440.90
685.44	438.47
685.78	436.34
686.12	434.38
686.45	432.19
686.79	429.98
687.13	427.70
687.46	425.38
687.80	423.25
688.14	420.79
688.48	418.60
688.81	416.45
689.15	414.35
689.49	412.18
689.82	410.10
690.16	407.92
690.50	405.94
690.83	403.97
691.17	401.96
691.51	400.26
691.84	398.43
692.18	396.43
692.52	394.60
692.85	392.47
693.19	390.29
693.52	388.33
693.86	386.33
694.20	384.33
694.53	382.62
694.87	380.79
695.21	379.11
695.54	377.17
695.88	375.35
696.21	373.40
696.55	371.64
696.88	369.95
697.22	368.28
697.56	366.43
697.89	364.65
698.23	363.11
698.56	361.22
698.90	359.44
699.23	357.68
699.57	356.05
699.90	354.51
700.24	353.03
700.58	351.50
700.91	349.98
701.25	348.69
701.58	347.21
701.92	345.71
702.25	344.19
702.59	342.83
702.92	341.35
703.26	340.10
703.59	338.92
703.93	337.70
704.26	336.35
704.60	335.02
704.93	333.82
705.26	332.58
705.60	331.51
705.93	330.39
706.27	329.41
706.60	328.29
706.94	327.15
707.27	325.88
707.61	324.71
707.94	323.61
708.27	322.36
708.61	321.12
708.94	319.99
709.28	319.05
709.61	318.03
709.94	317.02
710.28	315.89
710.61	314.84
710.95	313.71
711.28	312.88
711.61	312.06
711.95	310.91
712.28	309.90
712.61	308.83
712.95	308.03
713.28	307.23
713.61	306.27
713.95	305.40
714.28	304.70
714.61	303.82
714.95	302.97
715.28	302.05
715.61	301.20
715.95	300.53
716.28	299.66
716.61	298.77
716.95	298.02
717.28	297.28
717.61	296.44
717.94	295.70
718.28	294.81
718.61	294.10
718.94	293.55
719.27	292.86
719.61	292.20
719.94	291.35
720.27	290.35
720.60	289.68
720.94	289.04
721.27	288.41
721.60	287.85
721.93	287.28
722.27	286.80
722.60	286.19
722.93	285.50
723.26	284.83
723.59	284.29
723.93	283.56
724.26	282.97
724.59	282.51
724.92	281.98
725.25	281.47
725.59	280.83
725.92	280.27
726.25	279.70
726.58	279.24
726.91	278.82
727.24	278.41
727.57	277.99
727.91	277.35
728.24	276.72
728.57	276.15
728.90	275.54
729.23	274.91
729.56	274.52
729.89	274.01
730.22	273.58
730.55	273.00
730.89	272.57
731.22	272.04
731.55	271.35
731.88	270.80
732.21	270.20
732.54	269.57
732.87	269.06
733.20	268.71
733.53	268.17
733.86	267.70
734.19	267.21
734.52	266.70
734.85	266.41
735.18	265.99
735.51	265.50
735.84	265.09
736.17	264.69
736.50	264.10
736.83	263.88
737.16	263.39
737.49	263.06
737.82	262.61
738.15	262.30
738.48	261.96
738.81	261.51
739.14	261.09
739.47	260.76
739.80	260.33
740.13	259.95
740.46	259.55
740.79	259.09
741.12	258.78
741.45	258.28
741.78	257.81
742.11	257.50
742.44	257.29
742.77	256.93
743.10	256.55
743.43	256.29
743.75	255.75
744.08	255.59
744.41	255.18
744.74	254.85
745.07	254.49
745.40	254.21
745.73	253.97
746.06	253.65
746.39	253.38
746.71	253.05
747.04	252.68
747.37	252.39
747.70	252.13
748.03	251.74
748.36	251.47
748.68	251.18
749.01	250.84
749.34	250.47
749.67	250.29
750.00	250.11
750.33	249.91
750.65	249.53
750.98	249.03
751.31	248.80
751.64	248.67
751.97	248.53
752.29	248.23
752.62	248.02
752.95	247.88
753.28	247.70
753.60	247.44
753.93	247.31
754.26	247.14
754.59	246.88
754.91	246.74
755.24	246.64
755.57	246.41
755.90	246.21
756.22	246.02
756.55	245.76
756.88	245.47
757.20	245.18
757.53	245.04
757.86	244.98
758.19	244.90
758.51	244.61
758.84	244.36
759.17	244.21
759.49	244.05
759.82	243.97
760.15	243.88
760.47	243.80
760.80	243.55
761.13	243.44
761.45	243.31
761.78	243.11
762.11	242.89
762.43	242.82
762.76	242.70
763.08	242.57
763.41	242.44
763.74	242.37
764.06	242.35
764.39	242.29
764.71	242.06
765.04	241.81
765.37	241.81
765.69	241.67
766.02	241.55
766.34	241.34
766.67	241.20
767.00	241.15
767.32	241.19
767.65	241.19
767.97	241.04
768.30	240.96
768.62	240.88
768.95	240.77
769.27	240.69
769.60	240.60
769.92	240.50
770.25	240.38
770.57	240.17
770.90	240.02
771.22	239.81
771.55	239.72
771.87	239.69
772.20	239.51
772.52	239.54
772.85	239.62
773.17	239.47
773.50	239.34
773.82	239.08
774.15	238.79
774.47	238.59
774.80	238.46
775.12	238.28
775.45	238.13
775.77	237.93
776.09	237.75
776.42	237.48
776.74	237.39
777.07	237.30
777.39	237.22
777.72	236.97
778.04	236.83
778.36	236.74
778.69	236.53
779.01	236.45
779.33	236.20
779.66	235.88
779.98	235.79
780.31	235.61
780.63	235.60
780.95	235.52
781.28	235.36
781.60	235.15
781.92	235.06
782.25	234.99
782.57	234.92
782.89	234.87
783.22	234.78
783.54	234.68
783.86	234.56
784.19	234.42
784.51	234.40
784.83	234.34
785.16	234.28
785.48	234.16
785.80	234.03
786.12	233.94
786.45	233.83
786.77	233.71
787.09	233.60
787.42	233.33
787.74	233.24
788.06	233.17
788.38	233.02
788.71	232.85
789.03	232.78
789.35	232.80
789.67	232.70
789.99	232.77
790.32	232.61
790.64	232.53
790.96	232.65
791.28	232.52
791.61	232.47
791.93	232.36
792.25	232.34
792.57	232.43
792.89	232.38
793.21	232.33
793.54	232.25
793.86	232.18
794.18	232.20
794.50	232.25
794.82	232.17
795.14	232.27
795.47	232.31
795.79	232.31
796.11	232.29
796.43	232.28
796.75	232.17
797.07	232.21
797.39	232.20
797.71	232.11
798.04	232.07
798.36	232.11
798.68	232.05
799.00	232.15
799.32	231.98
799.64	231.96
799.96	232.00
800.28	232.09
800.60	232.19
800.92	232.20
801.24	232.20
801.56	232.31
801.89	232.32
802.21	232.33
802.53	232.18
802.85	232.20
803.17	232.27
803.49	232.30
803.81	232.27
804.13	232.30
804.45	232.31
804.77	232.40
805.09	232.42
805.41	232.46
805.73	232.36
806.05	232.34
806.37	232.46
806.69	232.44
807.01	232.39
807.33	232.31
807.65	232.28
807.97	232.28
808.28	232.20
808.60	232.13
808.92	232.14
809.24	232.37
809.56	232.31
809.88	232.10
810.20	232.04
810.52	232.03
810.84	232.00
811.16	231.90
811.48	231.90
811.80	231.83
812.12	231.80
812.43	231.89
812.75	231.83
813.07	231.64
813.39	231.64
813.71	231.67
814.03	231.58
814.35	231.48
814.67	231.29
814.98	231.20
815.30	231.18
815.62	231.09
815.94	230.82
816.26	230.82
816.58	230.81
816.89	230.89
817.21	230.77
817.53	230.66
817.85	230.55
818.17	230.44
818.48	230.43
818.80	230.35
819.12	230.16
819.44	230.10
819.76	230.02
820.07	229.86
820.39	229.80
820.71	229.90
821.03	229.87
821.34	229.81
821.66	229.82
821.98	229.73
822.30	229.65
822.61	229.71
822.93	229.58
823.25	229.55
823.57	229.39
823.88	229.43
824.20	229.43
824.52	229.40
824.83	229.40
825.15	229.27
825.47	229.33
825.79	229.28
826.10	229.20
826.42	229.28
826.74	229.38
827.05	229.31
827.37	229.14
827.69	229.14
828.00	229.11
828.32	229.02
828.64	229.05
828.95	229.18
829.27	229.14
829.58	229.20
829.90	229.23
830.22	229.24
830.53	229.28
830.85	229.26
831.17	229.17
831.48	229.11
831.80	229.17
832.11	229.09
832.43	229.10
832.75	229.16
833.06	229.21
833.38	229.17
833.69	229.22
834.01	229.24
834.32	229.17
834.64	229.24
834.96	229.40
835.27	229.36
835.59	229.29
835.90	229.27
836.22	229.25
836.53	229.21
836.85	229.27
837.16	229.47
837.48	229.53
837.79	229.75
838.11	229.79
838.42	229.73
838.74	229.74
839.05	229.80
839.37	229.82
839.68	229.76
840.00	229.71
840.31	229.71
840.63	229.81
840.94	229.87
841.26	229.87
841.57	229.88
841.88	229.92
842.20	229.96
842.51	229.99
842.83	229.95
843.14	230.08
843.46	230.10
843.77	229.97
844.08	229.90
844.40	229.76
844.71	229.80
845.03	229.97
845.34	230.00
845.65	230.01
845.97	230.03
846.28	230.12
846.60	230.15
846.91	230.25
847.22	230.22
847.54	230.32
847.85	230.34
848.16	230.29
848.48	230.32
848.79	230.35
849.10	230.42
849.42	230.46
849.73	230.31
850.04	230.24
850.36	230.10
850.67	230.16
850.98	230.17
851.30	230.16
851.61	229.97
851.92	229.92
852.23	229.96
852.55	229.93
852.86	229.88
853.17	229.89
853.49	229.79
853.80	229.88
854.11	229.78
854.42	229.67
854.74	229.58
855.05	229.52
855.36	229.41
855.67	229.37
855.99	229.43
856.30	229.60
856.61	229.58
856.92	229.63
857.23	229.59
857.55	229.60
857.86	229.57
858.17	229.66
858.48	229.64
858.79	229.60
859.11	229.63
859.42	229.54
859.73	229.46
860.04	229.45
860.35	229.25
860.66	229.24
860.98	229.26
861.29	229.27
861.60	229.22
861.91	229.31
862.22	229.18
862.53	229.05
862.84	228.74
863.16	228.83
863.47	228.68
863.78	228.59
864.09	228.61
864.40	228.58
864.71	228.53
865.02	228.56
865.33	228.48
865.64	228.38
865.95	228.30
866.27	228.46
866.58	228.48
866.89	228.58
867.20	228.56
867.51	228.60
867.82	228.63
868.13	228.74
868.44	228.59
868.75	228.61
869.06	228.68
869.37	228.69
869.68	228.68
869.99	228.76
870.30	228.81
870.61	228.84
870.92	228.80
871.23	228.76
871.54	228.79
871.85	228.77
872.16	228.80
872.47	228.85
872.78	228.72
873.09	228.61
873.40	228.54
873.71	228.55
874.02	228.58
874.33	228.55
874.64	228.50
874.95	228.60
875.26	228.58
875.56	228.64
875.87	228.78
876.18	228.69
876.49	228.86
876.80	228.89
877.11	228.85
877.42	228.94
877.73	229.02
878.04	228.99
878.35	229.16
878.66	229.25
878.96	229.27
879.27	229.28
879.58	229.30
879.89	229.43
880.20	229.49
880.51	229.47
880.82	229.49
881.12	229.52
881.43	229.49
881.74	229.54
882.05	229.50
882.36	229.50
882.67	229.54
882.97	229.49
883.28	229.46
883.59	229.45
883.90	229.45
884.21	229.47
884.51	229.36
884.82	229.17
885.13	229.13
885.44	229.14
885.74	229.15
886.05	229.25
886.36	229.23
886.67	229.11
886.98	229.22
887.28	229.22
887.59	229.10
887.90	229.21
888.20	229.15
888.51	229.11
888.82	229.08
889.13	229.03
889.43	229.16
889.74	229.08
890.05	229.00
890.35	228.95
890.66	228.96
890.97	229.07
891.28	229.12
891.58	229.10
891.89	229.10
892.20	229.15
892.50	229.04
892.81	228.95
893.12	228.93
893.42	228.71
893.73	228.76
894.04	228.83
894.34	228.74
894.65	228.79
894.95	228.81
895.26	228.80
895.57	228.90
895.87	228.63
896.18	228.69
896.48	228.74
896.79	228.70
897.10	228.59
897.40	228.58
897.71	228.61
898.01	228.70
898.32	228.63
898.63	228.46
898.93	228.49
899.24	228.48
899.54	228.54
899.85	228.57
900.15	228.40
900.46	228.31
900.76	228.28
901.07	228.26
901.38	228.17
901.68	228.05
901.99	227.96
902.29	227.99
902.60	227.96
902.90	227.82
903.21	227.93
903.51	227.96
903.82	227.90
904.12	227.78
904.43	227.72
904.73	227.81
905.03	227.93
905.34	228.05
905.64	228.04
905.95	227.99
906.25	227.98
906.56	228.10
906.86	228.20
907.17	228.25
907.47	228.19
907.77	228.21
908.08	228.25
908.38	228.24
908.69	228.16
908.99	228.25
909.30	228.37
909.60	228.23
909.90	228.23
910.21	228.28
910.51	228.27
910.81	228.14
911.12	228.10
911.42	228.12
911.73	227.94
912.03	227.91
912.33	228.01
912.64	228.04
912.94	227.95
913.24	227.92
913.55	227.87
913.85	227.98
914.15	228.03
914.46	228.11
914.76	228.14
915.06	228.20
915.37	228.20
915.67	228.24
915.97	228.37
916.27	228.29
916.58	228.34
916.88	228.40
917.18	228.45
917.49	228.50
917.79	228.54
918.09	228.63
918.39	228.79
918.70	228.83
919.00	228.96
919.30	229.14
919.60	229.08
919.91	229.13
920.21	229.14
920.51	229.11
920.81	229.17
921.12	229.27
921.42	229.35
921.72	229.31
922.02	229.31
922.32	229.31
922.63	229.40
922.93	229.51
923.23	229.56
923.53	229.61
923.83	229.56
924.13	229.55
924.44	229.53
924.74	229.53
925.04	229.52
925.34	229.41
925.64	229.38
925.94	229.49
926.24	229.50
926.55	229.54
926.85	229.60
927.15	229.57
927.45	229.51
927.75	229.55
928.05	229.57
928.35	229.52
928.65	229.58
928.95	229.62
929.26	229.42
929.56	229.54
929.86	229.58
930.16	229.61
930.46	229.50
930.76	229.52
931.06	229.39
931.36	229.26
931.66	229.30
931.96	229.21
932.26	229.13
932.56	229.12
932.86	229.06
933.16	228.96
933.46	228.86
933.76	228.91
934.06	228.87
934.36	228.90
934.66	228.95
934.96	228.80
935.26	228.65
935.56	228.64
935.86	228.40
936.16	228.35
936.46	228.25
936.76	228.27
937.06	228.20
937.36	228.22
937.66	228.24
937.96	228.13
938.26	228.06
938.56	228.03
938.86	227.99
939.16	227.95
939.46	227.93
939.76	228.03
940.06	227.91
940.35	227.86
940.65	227.79
940.95	227.71
941.25	227.70
941.55	227.77
941.85	227.77
942.15	227.88
942.45	227.93
942.75	227.95
943.04	227.85
943.34	227.89
943.64	227.82
943.94	227.84
944.24	227.89
944.54	227.96
944.84	228.00
945.13	227.99
945.43	227.96
945.73	227.94
946.03	227.87
946.33	227.82
946.62	227.76
946.92	227.75
947.22	227.76
947.52	227.81
947.82	227.80
948.11	227.84
948.41	227.87
948.71	227.73
949.01	227.74
949.31	227.84
949.60	227.78
949.90	227.78
950.20	227.81
950.50	227.76
950.79	227.80
951.09	227.82
951.39	227.81
951.69	227.79
951.98	227.93
952.28	227.93
952.58	227.99
952.87	228.06
953.17	228.08
953.47	228.09
953.76	228.06
954.06	228.09
954.36	228.01
954.66	228.01
954.95	228.15
955.25	228.16
955.55	228.19
955.84	228.26
956.14	228.36
956.44	228.33
956.73	228.33
957.03	228.33
957.32	228.33
957.62	228.40
957.92	228.48
958.21	228.40
958.51	228.57
958.81	228.56
959.10	228.54
959.40	228.71
959.69	228.71
959.99	228.79
960.29	228.83
960.58	228.94
960.88	229.03
961.17	229.04
961.47	229.12
961.76	229.18
962.06	229.21
962.36	229.19
962.65	229.24
962.95	229.32
963.24	229.27
963.54	229.40
963.83	229.38
964.13	229.41
964.42	229.43
964.72	229.31
965.01	229.32
965.31	229.37
965.60	229.20
965.90	229.25
966.19	229.20
966.49	229.15
966.78	229.25
967.08	229.16
967.37	229.05
967.67	229.01
967.96	228.95
968.26	228.87
968.55	229.00
968.85	228.93
969.14	228.87
969.43	228.84
969.73	228.70
970.02	228.70
970.32	228.64
970.61	228.60
970.91	228.63
971.20	228.58
971.49	228.49
971.79	228.49
972.08	228.42
972.38	228.33
972.67	228.25
972.96	228.16
973.26	228.10
973.55	228.22
973.85	228.22
974.14	228.25
974.43	228.26
974.73	228.08
975.02	228.14
975.31	228.13
975.61	228.15
975.90	228.14
976.19	228.04
976.49	228.02
976.78	227.93
977.07	227.74
977.37	227.73
977.66	227.71
977.95	227.61
978.24	227.66
978.54	227.79
978.83	227.82
979.12	227.71
979.42	227.81
979.71	227.71
980.00	227.63
980.29	227.57
980.59	227.53
980.88	227.51
981.17	227.38
981.46	227.42
981.76	227.45
982.05	227.44
982.34	227.51
982.63	227.55
982.93	227.58
983.22	227.69
983.51	227.78
983.80	227.80
984.09	227.98
984.39	228.00
984.68	227.86
984.97	227.88
985.26	227.83
985.55	227.70
985.85	227.66
986.14	227.72
986.43	227.77
986.72	227.86
987.01	227.89
987.30	227.98
987.59	227.84
987.89	227.91
988.18	227.84
988.47	227.75
988.76	227.68
989.05	227.74
989.34	227.80
989.63	227.85
989.92	227.89
990.22	227.79
990.51	227.71
990.80	227.84
991.09	228.02
991.38	228.17
991.67	228.31
991.96	228.37
992.25	228.41
992.54	228.31
992.83	228.25
993.12	228.22
993.41	228.28
993.70	228.47
993.99	228.47
994.28	228.57
994.58	228.72
994.87	228.75
995.16	228.84
995.45	228.77
995.74	228.65
996.03	228.64
996.32	228.75
996.61	228.83
996.90	228.85
997.19	228.73
997.48	228.77
997.77	228.73
998.06	228.78
998.34	228.71
998.63	228.81
998.92	228.86
999.21	228.86
999.50	228.75
999.79	228.72
1000.08	228.75
1000.37	228.78
1000.66	228.84
1000.95	228.91
1001.24	228.85
1001.53	229.02
1001.82	229.04
1002.11	229.01
1002.40	229.03
1002.68	229.16
1002.97	229.30
1003.26	229.33
1003.55	229.30
1003.84	229.35
1004.13	229.41
1004.42	229.43
1004.71	229.42
1004.99	229.45
1005.28	229.62
1005.57	229.65
1005.86	229.60
1006.15	229.60
1006.44	229.58
1006.72	229.49
1007.01	229.48
1007.30	229.49
1007.59	229.28
1007.88	229.29
1008.17	229.31
1008.45	229.19
1008.74	229.01
1009.03	228.82
1009.32	228.76
1009.60	228.77
1009.89	228.57
1010.18	228.46
1010.47	228.47
1010.76	228.39
1011.04	228.45
1011.33	228.49
1011.62	228.49
1011.91	228.43
1012.19	228.38
1012.48	228.40
1012.77	228.36
1013.05	228.33
1013.34	228.24
1013.63	228.36
1013.92	228.33
1014.20	228.22
1014.49	228.25
1014.78	228.22
1015.06	228.18
1015.35	228.08
1015.64	228.07
1015.92	228.18
1016.21	228.05
1016.50	227.95
1016.78	227.98
1017.07	227.77
1017.36	227.58
1017.64	227.63
1017.93	227.73
1018.22	227.76
1018.50	227.69
1018.79	227.69
1019.08	227.72
1019.36	227.83
1019.65	227.73
1019.93	227.79
1020.22	227.88
1020.51	227.89
1020.79	227.93
1021.08	229.20
1021.36	228.00
1021.65	227.90
1021.94	228.60
1022.22	229.10
1022.51	227.40
1022.79	228.50
1023.08	228.20
1023.36	228.50
1023.65	227.90
>>>>>End Processed Spectral Data<<<<<
