SpectraSuite Data File
++++++++++++++++++++++++++++++++++++
Date: Fri Feb 01 14:38:19 EST 2013
User: group
Dark Spectrum Present: No
Reference Spectrum Present: No
Number of Sampled Component Spectra: 1
Spectrometers: USB2E7196
Integration Time (usec): 70000 (USB2E7196)
Spectra Averaged: 10 (USB2E7196)
Boxcar Smoothing: 10 (USB2E7196)
Correct for Electrical Dark: No (USB2E7196)
Strobe/Lamp Enabled: No (USB2E7196)
Correct for Detector Non-linearity: No (USB2E7196)
Correct for Stray Light: No (USB2E7196)
Number of Pixels in Processed Spectrum: 2048
>>>>>Begin Processed Spectral Data<<<<<
339.09	0.00
339.48	217.80
339.86	216.00
340.24	218.30
340.63	220.70
341.01	222.70
341.39	222.60
341.78	224.80
342.16	225.70
342.54	225.70
342.93	214.26
343.31	225.09
343.69	225.51
344.07	226.03
344.46	226.53
344.84	226.89
345.22	227.15
345.60	227.40
345.99	227.56
346.37	227.67
346.75	227.73
347.13	227.76
347.52	227.83
347.90	227.80
348.28	227.93
348.66	227.93
349.05	227.89
349.43	227.96
349.81	227.99
350.19	228.04
350.57	228.13
350.96	228.20
351.34	228.28
351.72	228.40
352.10	228.44
352.48	228.42
352.87	228.44
353.25	228.48
353.63	228.59
354.01	228.63
354.39	228.74
354.77	228.81
355.15	228.91
355.54	228.97
355.92	229.05
356.30	229.10
356.68	229.37
357.06	229.47
357.44	229.54
357.82	229.57
358.20	229.58
358.58	229.59
358.97	229.65
359.35	229.70
359.73	229.77
360.11	229.88
360.49	229.98
360.87	229.95
361.25	230.01
361.63	230.10
362.01	230.14
362.39	230.15
362.77	230.25
363.15	230.28
363.53	230.23
363.91	230.21
364.29	230.23
364.67	230.02
365.05	230.01
365.43	230.09
365.81	230.25
366.19	230.33
366.57	230.45
366.95	230.34
367.33	230.27
367.71	230.27
368.09	230.15
368.47	230.08
368.85	230.14
369.23	230.11
369.61	230.02
369.99	230.10
370.37	230.03
370.75	230.05
371.13	230.00
371.51	230.01
371.89	229.95
372.27	229.89
372.65	229.90
373.03	229.82
373.41	229.70
373.78	229.46
374.16	229.39
374.54	229.17
374.92	229.17
375.30	229.11
375.68	229.02
376.06	229.03
376.44	228.94
376.82	228.83
377.19	228.79
377.57	228.65
377.95	228.45
378.33	228.37
378.71	228.19
379.09	228.13
379.47	228.02
379.84	228.05
380.22	227.93
380.60	227.87
380.98	227.76
381.36	227.64
381.73	227.60
382.11	227.46
382.49	227.43
382.87	227.25
383.25	227.24
383.62	227.35
384.00	227.28
384.38	227.25
384.76	227.30
385.13	227.38
385.51	227.29
385.89	227.28
386.27	227.25
386.64	227.17
387.02	227.11
387.40	227.15
387.78	227.03
388.15	226.94
388.53	226.90
388.91	226.87
389.29	226.80
389.66	226.78
390.04	226.84
390.42	226.97
390.79	227.09
391.17	227.11
391.55	226.89
391.92	226.90
392.30	226.88
392.68	226.89
393.05	226.85
393.43	226.91
393.81	227.00
394.18	227.02
394.56	227.12
394.94	227.16
395.31	227.11
395.69	227.26
396.06	227.35
396.44	227.37
396.82	227.43
397.19	227.70
397.57	227.70
397.95	227.73
398.32	227.63
398.70	227.70
399.07	227.84
399.45	228.01
399.82	227.99
400.20	228.08
400.58	228.11
400.95	228.11
401.33	228.30
401.70	228.47
402.08	228.59
402.45	228.74
402.83	228.96
403.20	229.09
403.58	229.20
403.95	229.39
404.33	229.56
404.71	229.71
405.08	229.84
405.46	230.08
405.83	230.25
406.21	230.47
406.58	230.60
406.96	230.77
407.33	230.84
407.70	231.26
408.08	231.74
408.45	231.96
408.83	232.20
409.20	232.36
409.58	232.47
409.95	232.86
410.33	233.15
410.70	233.26
411.08	233.65
411.45	233.94
411.82	234.23
412.20	234.77
412.57	235.36
412.95	235.70
413.32	236.17
413.69	236.68
414.07	237.12
414.44	237.70
414.82	238.21
415.19	238.93
415.56	239.55
415.94	240.12
416.31	240.91
416.68	241.80
417.06	242.75
417.43	243.66
417.81	244.50
418.18	245.53
418.55	246.71
418.93	247.76
419.30	248.94
419.67	250.26
420.04	251.40
420.42	252.73
420.79	254.30
421.16	255.88
421.54	257.48
421.91	259.11
422.28	260.88
422.66	262.69
423.03	264.43
423.40	266.13
423.77	267.96
424.15	269.77
424.52	271.78
424.89	273.91
425.26	276.07
425.64	278.18
426.01	280.24
426.38	282.51
426.75	284.90
427.13	287.26
427.50	289.70
427.87	292.29
428.24	294.83
428.61	297.28
428.99	300.01
429.36	302.96
429.73	305.98
430.10	308.81
430.47	311.81
430.85	314.92
431.22	318.17
431.59	321.71
431.96	325.05
432.33	328.47
432.70	331.88
433.08	335.90
433.45	339.66
433.82	343.48
434.19	347.60
434.56	351.86
434.93	355.91
435.30	359.79
435.68	364.18
436.05	368.30
436.42	372.46
436.79	376.25
437.16	380.36
437.53	384.67
437.90	388.96
438.27	393.17
438.64	397.53
439.01	401.58
439.38	405.06
439.75	408.45
440.13	412.65
440.50	416.53
440.87	419.66
441.24	422.86
441.61	426.45
441.98	429.06
442.35	432.12
442.72	435.10
443.09	438.21
443.46	440.00
443.83	441.31
444.20	442.72
444.57	444.49
444.94	445.42
445.31	446.27
445.68	447.29
446.05	447.71
446.42	447.69
446.79	447.57
447.16	447.44
447.53	447.62
447.90	446.22
448.27	444.98
448.64	443.11
449.01	441.82
449.37	439.40
449.74	437.04
450.11	433.98
450.48	430.66
450.85	427.38
451.22	424.68
451.59	422.06
451.96	419.37
452.33	415.86
452.70	412.66
453.07	408.90
453.43	405.00
453.80	401.16
454.17	397.34
454.54	393.81
454.91	389.92
455.28	386.08
455.65	382.50
456.02	378.94
456.38	375.76
456.75	372.00
457.12	368.88
457.49	365.80
457.86	362.66
458.23	360.14
458.59	356.98
458.96	353.86
459.33	351.17
459.70	348.48
460.07	346.26
460.43	343.59
460.80	341.10
461.17	338.85
461.54	336.63
461.91	334.42
462.27	332.29
462.64	330.46
463.01	328.37
463.38	326.46
463.74	324.42
464.11	322.73
464.48	321.06
464.85	319.16
465.21	317.69
465.58	316.26
465.95	314.50
466.32	313.18
466.68	311.78
467.05	310.34
467.42	308.86
467.78	307.43
468.15	305.97
468.52	305.02
468.88	303.67
469.25	302.35
469.62	301.37
469.98	300.09
470.35	298.90
470.72	297.87
471.08	296.73
471.45	295.80
471.82	295.01
472.18	293.97
472.55	293.27
472.92	292.35
473.28	291.43
473.65	290.58
474.02	289.75
474.38	288.94
474.75	288.32
475.11	287.51
475.48	286.78
475.85	286.36
476.21	285.77
476.58	285.15
476.94	284.76
477.31	284.21
477.67	283.77
478.04	283.36
478.41	283.05
478.77	282.94
479.14	282.52
479.50	281.96
479.87	281.67
480.23	281.27
480.60	281.01
480.96	280.71
481.33	280.71
481.69	280.50
482.06	280.39
482.42	280.10
482.79	279.96
483.15	279.85
483.52	279.89
483.88	279.70
484.25	279.66
484.61	279.67
484.98	279.65
485.34	279.73
485.71	279.83
486.07	279.78
486.44	279.61
486.80	279.60
487.17	279.71
487.53	279.97
487.90	280.18
488.26	280.37
488.62	280.67
488.99	280.73
489.35	280.87
489.72	281.01
490.08	281.25
490.44	281.47
490.81	281.83
491.17	281.90
491.54	282.21
491.90	282.48
492.26	282.75
492.63	283.03
492.99	283.30
493.36	283.62
493.72	284.02
494.08	284.29
494.45	284.74
494.81	285.16
495.17	285.48
495.54	285.80
495.90	286.22
496.26	286.54
496.63	286.91
496.99	287.25
497.35	287.74
497.72	288.28
498.08	288.76
498.44	289.03
498.80	289.50
499.17	289.77
499.53	290.14
499.89	290.48
500.26	290.84
500.62	291.18
500.98	291.54
501.34	292.01
501.71	292.44
502.07	292.77
502.43	292.85
502.79	293.16
503.16	293.60
503.52	293.92
503.88	294.20
504.24	294.43
504.60	294.92
504.97	295.12
505.33	295.35
505.69	295.70
506.05	295.96
506.41	296.24
506.78	296.59
507.14	296.93
507.50	297.38
507.86	297.61
508.22	297.98
508.59	298.23
508.95	298.45
509.31	298.89
509.67	299.17
510.03	299.78
510.39	300.15
510.75	300.45
511.12	300.78
511.48	301.22
511.84	301.68
512.20	302.05
512.56	302.54
512.92	303.04
513.28	303.59
513.64	304.20
514.00	304.82
514.37	305.41
514.73	306.12
515.09	306.74
515.45	307.64
515.81	308.43
516.17	309.23
516.53	310.17
516.89	310.90
517.25	311.89
517.61	313.00
517.97	314.06
518.33	315.12
518.69	316.34
519.05	317.55
519.41	318.96
519.77	320.40
520.13	321.96
520.49	323.45
520.85	324.95
521.21	326.55
521.57	328.21
521.93	329.91
522.29	331.71
522.65	333.60
523.01	335.57
523.37	337.65
523.73	339.82
524.09	341.85
524.45	344.23
524.81	346.59
525.17	348.89
525.53	351.49
525.89	354.19
526.25	356.83
526.61	359.61
526.97	362.30
527.33	365.09
527.68	368.18
528.04	371.22
528.40	374.42
528.76	377.70
529.12	381.12
529.48	384.60
529.84	388.20
530.20	391.78
530.56	395.53
530.91	399.47
531.27	403.29
531.63	407.47
531.99	411.53
532.35	415.65
532.71	419.90
533.07	424.40
533.42	428.91
533.78	433.37
534.14	438.00
534.50	442.63
534.86	447.50
535.21	451.93
535.57	456.74
535.93	461.44
536.29	466.50
536.65	471.38
537.00	476.35
537.36	481.28
537.72	486.37
538.08	491.43
538.44	496.27
538.79	501.55
539.15	506.40
539.51	511.74
539.87	517.02
540.22	522.36
540.58	527.70
540.94	532.95
541.29	538.36
541.65	543.75
542.01	549.47
542.37	554.91
542.72	560.66
543.08	566.31
543.44	572.17
543.79	577.39
544.15	583.10
544.51	589.03
544.87	594.80
545.22	600.70
545.58	606.38
545.94	612.03
546.29	617.73
546.65	623.66
547.01	629.33
547.36	635.26
547.72	640.80
548.07	646.40
548.43	651.97
548.79	657.67
549.14	663.29
549.50	668.73
549.86	674.33
550.21	679.85
550.57	685.42
550.92	690.97
551.28	696.91
551.64	702.52
551.99	707.93
552.35	713.52
552.70	718.66
553.06	724.15
553.41	729.86
553.77	735.45
554.13	740.85
554.48	746.36
554.84	751.41
555.19	756.93
555.55	762.30
555.90	767.74
556.26	773.15
556.61	778.46
556.97	783.66
557.32	788.70
557.68	793.91
558.03	799.06
558.39	804.04
558.74	809.08
559.10	813.97
559.45	818.94
559.81	823.98
560.16	828.85
560.52	833.98
560.87	838.73
561.23	843.10
561.58	848.13
561.94	852.68
562.29	857.14
562.64	861.49
563.00	865.89
563.35	870.81
563.71	875.46
564.06	880.09
564.42	884.41
564.77	888.88
565.12	893.32
565.48	897.64
565.83	901.70
566.19	906.03
566.54	910.15
566.89	914.21
567.25	918.40
567.60	922.89
567.96	926.48
568.31	930.20
568.66	934.02
569.02	937.34
569.37	940.71
569.72	944.44
570.08	947.88
570.43	950.93
570.78	953.52
571.14	956.11
571.49	958.82
571.84	962.24
572.20	965.08
572.55	967.62
572.90	970.13
573.26	972.73
573.61	974.98
573.96	977.28
574.31	979.21
574.67	980.70
575.02	982.17
575.37	983.96
575.72	985.77
576.08	987.67
576.43	989.36
576.78	991.03
577.13	992.93
577.49	994.39
577.84	996.09
578.19	997.36
578.54	998.40
578.90	999.55
579.25	999.95
579.60	1000.93
579.95	1001.55
580.30	1001.96
580.66	1002.72
581.01	1003.31
581.36	1003.99
581.71	1004.92
582.06	1005.53
582.42	1006.11
582.77	1006.63
583.12	1007.06
583.47	1007.06
583.82	1007.39
584.17	1007.35
584.53	1007.29
584.88	1007.38
585.23	1007.37
585.58	1007.51
585.93	1007.82
586.28	1008.02
586.63	1008.78
586.98	1008.50
587.34	1008.76
587.69	1008.93
588.04	1008.61
588.39	1008.46
588.74	1007.60
589.09	1006.95
589.44	1006.27
589.79	1005.88
590.14	1005.50
590.49	1004.84
590.84	1004.44
591.19	1003.75
591.54	1002.85
591.89	1001.32
592.25	1000.42
592.60	999.04
592.95	997.94
593.30	996.66
593.65	995.02
594.00	993.06
594.35	992.26
594.70	990.63
595.05	989.21
595.40	987.83
595.75	986.15
596.10	985.08
596.45	983.85
596.80	982.64
597.15	981.32
597.50	979.82
597.85	978.43
598.19	976.98
598.54	975.70
598.89	974.67
599.24	973.85
599.59	972.32
599.94	971.24
600.29	969.80
600.64	968.29
600.99	966.60
601.34	965.06
601.69	962.93
602.04	961.29
602.39	959.48
602.74	958.06
603.08	956.58
603.43	954.99
603.78	953.01
604.13	951.23
604.48	949.20
604.83	947.21
605.18	945.16
605.53	942.77
605.87	940.20
606.22	938.00
606.57	935.67
606.92	933.60
607.27	931.60
607.62	929.48
607.96	927.62
608.31	925.66
608.66	923.28
609.01	920.81
609.36	917.86
609.70	915.10
610.05	912.00
610.40	909.34
610.75	906.56
611.10	903.60
611.44	900.56
611.79	897.87
612.14	894.95
612.49	891.78
612.83	888.89
613.18	885.82
613.53	883.00
613.88	879.78
614.22	876.81
614.57	873.19
614.92	869.79
615.27	866.50
615.61	863.43
615.96	860.13
616.31	857.14
616.65	854.85
617.00	852.30
617.35	849.45
617.70	846.00
618.04	842.49
618.39	839.70
618.74	836.79
619.08	833.46
619.43	830.40
619.78	827.57
620.12	824.56
620.47	821.81
620.82	818.28
621.16	815.50
621.51	812.38
621.85	809.56
622.20	806.72
622.55	803.74
622.89	800.65
623.24	797.93
623.59	795.00
623.93	792.00
624.28	788.91
624.62	786.08
624.97	783.46
625.32	781.03
625.66	778.12
626.01	775.20
626.35	772.17
626.70	769.03
627.04	766.26
627.39	763.19
627.73	760.11
628.08	757.45
628.43	754.25
628.77	751.10
629.12	747.92
629.46	744.48
629.81	741.06
630.15	737.67
630.50	734.31
630.84	730.93
631.19	727.29
631.53	724.18
631.88	720.65
632.22	717.08
632.57	713.86
632.91	710.49
633.26	707.15
633.60	703.78
633.95	700.85
634.29	697.61
634.64	694.92
634.98	691.90
635.32	688.88
635.67	686.11
636.01	683.27
636.36	680.42
636.70	677.80
637.05	675.03
637.39	672.40
637.73	669.66
638.08	667.25
638.42	664.70
638.77	661.99
639.11	659.38
639.45	656.79
639.80	653.78
640.14	650.99
640.49	648.33
640.83	645.70
641.17	642.98
641.52	640.25
641.86	637.32
642.20	634.53
642.55	631.56
642.89	628.74
643.23	625.96
643.58	623.22
643.92	620.27
644.26	617.49
644.61	614.91
644.95	612.25
645.29	609.09
645.64	606.20
645.98	603.11
646.32	600.31
646.66	597.47
647.01	594.84
647.35	592.18
647.69	589.39
648.04	587.06
648.38	583.97
648.72	580.84
649.06	577.96
649.41	575.12
649.75	572.11
650.09	569.10
650.43	566.16
650.78	563.09
651.12	560.40
651.46	557.43
651.80	554.67
652.14	552.03
652.49	549.46
652.83	546.84
653.17	543.93
653.51	541.07
653.85	538.17
654.20	535.35
654.54	532.53
654.88	529.73
655.22	526.39
655.56	523.54
655.90	521.05
656.25	518.27
656.59	515.66
656.93	513.31
657.27	510.87
657.61	508.27
657.95	505.82
658.29	503.41
658.64	500.86
658.98	498.05
659.32	495.16
659.66	492.51
660.00	490.02
660.34	487.77
660.68	485.49
661.02	483.18
661.36	480.79
661.70	478.49
662.05	476.23
662.39	474.20
662.73	472.24
663.07	470.09
663.41	468.09
663.75	465.70
664.09	463.40
664.43	461.19
664.77	459.02
665.11	456.93
665.45	454.71
665.79	452.70
666.13	450.58
666.47	448.62
666.81	446.53
667.15	444.27
667.49	442.13
667.83	440.06
668.17	438.08
668.51	436.02
668.85	434.02
669.19	432.20
669.53	430.21
669.87	427.97
670.21	425.92
670.55	423.90
670.89	422.30
671.23	420.83
671.57	418.88
671.91	417.08
672.25	415.32
672.58	413.61
672.92	411.83
673.26	410.20
673.60	408.48
673.94	406.86
674.28	405.27
674.62	403.91
674.96	402.35
675.30	400.97
675.64	399.60
675.97	397.98
676.31	396.49
676.65	395.02
676.99	393.64
677.33	392.16
677.67	390.69
678.01	389.04
678.34	387.40
678.68	386.04
679.02	384.56
679.36	383.20
679.70	381.72
680.04	380.47
680.37	379.00
680.71	377.70
681.05	376.55
681.39	375.24
681.73	373.69
682.06	372.31
682.40	370.91
682.74	369.49
683.08	368.29
683.42	366.68
683.75	365.29
684.09	364.04
684.43	362.71
684.77	361.53
685.10	360.24
685.44	358.82
685.78	357.64
686.12	356.37
686.45	354.81
686.79	353.46
687.13	352.04
687.46	350.69
687.80	349.34
688.14	347.82
688.48	346.69
688.81	345.47
689.15	344.33
689.49	342.85
689.82	341.59
690.16	340.20
690.50	339.26
690.83	338.16
691.17	336.82
691.51	335.66
691.84	334.40
692.18	333.30
692.52	332.19
692.85	330.92
693.19	329.84
693.52	328.81
693.86	327.55
694.20	326.60
694.53	325.56
694.87	324.43
695.21	323.39
695.54	322.00
695.88	320.86
696.21	319.74
696.55	318.72
696.88	317.71
697.22	316.68
697.56	315.53
697.89	314.41
698.23	313.45
698.56	312.46
698.90	311.63
699.23	310.55
699.57	309.58
699.90	308.54
700.24	307.50
700.58	306.65
700.91	305.93
701.25	305.04
701.58	304.30
701.92	303.49
702.25	302.69
702.59	301.97
702.92	301.15
703.26	300.31
703.59	299.65
703.93	298.92
704.26	298.20
704.60	297.38
704.93	296.58
705.26	295.80
705.60	295.12
705.93	294.31
706.27	293.75
706.60	293.09
706.94	292.48
707.27	291.80
707.61	291.05
707.94	290.34
708.27	289.56
708.61	288.82
708.94	288.18
709.28	287.49
709.61	286.93
709.94	286.39
710.28	285.85
710.61	285.20
710.95	284.48
711.28	284.01
711.61	283.34
711.95	282.85
712.28	282.35
712.61	281.79
712.95	281.32
713.28	280.73
713.61	280.12
713.95	279.54
714.28	279.04
714.61	278.57
714.95	278.07
715.28	277.47
715.61	276.90
715.95	276.48
716.28	276.08
716.61	275.61
716.95	275.02
717.28	274.53
717.61	274.06
717.94	273.62
718.28	273.05
718.61	272.65
718.94	272.20
719.27	271.73
719.61	271.23
719.94	270.73
720.27	270.26
720.60	269.89
720.94	269.65
721.27	269.24
721.60	268.88
721.93	268.51
722.27	268.32
722.60	267.93
722.93	267.56
723.26	267.15
723.59	266.72
723.93	266.43
724.26	265.94
724.59	265.61
724.92	265.29
725.25	264.94
725.59	264.62
725.92	264.24
726.25	263.93
726.58	263.58
726.91	263.14
727.24	262.77
727.57	262.38
727.91	261.88
728.24	261.50
728.57	261.01
728.90	260.58
729.23	260.16
729.56	259.89
729.89	259.38
730.22	258.98
730.55	258.73
730.89	258.31
731.22	258.06
731.55	257.61
731.88	257.31
732.21	256.95
732.54	256.56
732.87	256.32
733.20	255.91
733.53	255.63
733.86	255.42
734.19	255.13
734.52	254.82
734.85	254.61
735.18	254.35
735.51	254.19
735.84	253.92
736.17	253.60
736.50	253.32
736.83	253.34
737.16	253.00
737.49	252.66
737.82	252.44
738.15	252.20
738.48	251.98
738.81	251.59
739.14	251.32
739.47	251.11
739.80	250.86
740.13	250.63
740.46	250.43
740.79	250.10
741.12	249.85
741.45	249.53
741.78	249.26
742.11	249.03
742.44	248.74
742.77	248.59
743.10	248.35
743.43	248.11
743.75	247.62
744.08	247.55
744.41	247.30
744.74	246.98
745.07	246.70
745.40	246.59
745.73	246.45
746.06	246.22
746.39	246.04
746.71	245.71
747.04	245.50
747.37	245.23
747.70	245.13
748.03	244.91
748.36	244.80
748.68	244.59
749.01	244.31
749.34	244.03
749.67	243.88
750.00	243.72
750.33	243.71
750.65	243.55
750.98	243.25
751.31	243.11
751.64	243.10
751.97	243.08
752.29	242.75
752.62	242.50
752.95	242.37
753.28	242.24
753.60	242.16
753.93	242.18
754.26	241.97
754.59	241.69
754.91	241.57
755.24	241.39
755.57	241.17
755.90	241.05
756.22	240.95
756.55	240.75
756.88	240.60
757.20	240.31
757.53	240.24
757.86	240.16
758.19	240.06
758.51	239.88
758.84	239.70
759.17	239.68
759.49	239.56
759.82	239.51
760.15	239.41
760.47	239.36
760.80	239.20
761.13	239.16
761.45	239.22
761.78	239.14
762.11	239.14
762.43	239.16
762.76	239.20
763.08	239.23
763.41	239.19
763.74	239.18
764.06	239.15
764.39	238.96
764.71	239.00
765.04	238.85
765.37	238.81
765.69	238.63
766.02	238.58
766.34	238.49
766.67	238.35
767.00	238.24
767.32	238.14
767.65	238.08
767.97	237.99
768.30	237.87
768.62	237.77
768.95	237.61
769.27	237.52
769.60	237.46
769.92	237.29
770.25	237.18
770.57	237.02
770.90	236.84
771.22	236.73
771.55	236.58
771.87	236.50
772.20	236.39
772.52	236.57
772.85	236.69
773.17	236.68
773.50	236.60
773.82	236.45
774.15	236.36
774.47	236.11
774.80	236.00
775.12	235.87
775.45	235.78
775.77	235.70
776.09	235.46
776.42	235.36
776.74	235.37
777.07	235.27
777.39	235.13
777.72	235.04
778.04	234.96
778.36	234.79
778.69	234.70
779.01	234.56
779.33	234.26
779.66	233.96
779.98	233.86
780.31	233.74
780.63	233.79
780.95	233.70
781.28	233.49
781.60	233.26
781.92	233.10
782.25	232.91
782.57	232.81
782.89	232.79
783.22	232.60
783.54	232.38
783.86	232.30
784.19	232.23
784.51	232.16
784.83	232.03
785.16	231.91
785.48	231.80
785.80	231.78
786.12	231.72
786.45	231.61
786.77	231.65
787.09	231.57
787.42	231.47
787.74	231.40
788.06	231.49
788.38	231.49
788.71	231.47
789.03	231.54
789.35	231.49
789.67	231.41
789.99	231.40
790.32	231.47
790.64	231.41
790.96	231.42
791.28	231.38
791.61	231.45
791.93	231.44
792.25	231.42
792.57	231.52
792.89	231.43
793.21	231.46
793.54	231.32
793.86	231.38
794.18	231.36
794.50	231.31
794.82	231.46
795.14	231.58
795.47	231.58
795.79	231.58
796.11	231.62
796.43	231.75
796.75	231.82
797.07	231.73
797.39	231.84
797.71	231.85
798.04	231.97
798.36	232.02
798.68	232.14
799.00	232.18
799.32	232.10
799.64	232.17
799.96	232.17
800.28	232.14
800.60	232.11
800.92	232.18
801.24	232.24
801.56	232.10
801.89	232.10
802.21	232.18
802.53	232.14
802.85	232.11
803.17	232.25
803.49	232.26
803.81	232.26
804.13	232.31
804.45	232.30
804.77	232.25
805.09	232.19
805.41	232.16
805.73	232.16
806.05	232.08
806.37	232.04
806.69	231.94
807.01	231.95
807.33	231.99
807.65	231.88
807.97	231.89
808.28	231.94
808.60	231.92
808.92	231.84
809.24	231.93
809.56	231.87
809.88	231.67
810.20	231.57
810.52	231.60
810.84	231.45
811.16	231.38
811.48	231.34
811.80	231.33
812.12	231.21
812.43	231.11
812.75	231.13
813.07	231.10
813.39	231.14
813.71	231.10
814.03	231.01
814.35	230.91
814.67	230.73
814.98	230.62
815.30	230.45
815.62	230.30
815.94	230.06
816.26	230.12
816.58	230.09
816.89	229.99
817.21	229.84
817.53	229.79
817.85	229.71
818.17	229.58
818.48	229.47
818.80	229.39
819.12	229.35
819.44	229.15
819.76	229.02
820.07	228.93
820.39	228.89
820.71	228.84
821.03	228.85
821.34	228.74
821.66	228.70
821.98	228.75
822.30	228.72
822.61	228.86
822.93	228.74
823.25	228.64
823.57	228.58
823.88	228.60
824.20	228.56
824.52	228.62
824.83	228.70
825.15	228.68
825.47	228.70
825.79	228.68
826.10	228.63
826.42	228.70
826.74	228.74
827.05	228.77
827.37	228.81
827.69	228.69
828.00	228.77
828.32	228.73
828.64	228.74
828.95	228.84
829.27	228.74
829.58	228.79
829.90	228.87
830.22	228.91
830.53	228.90
830.85	228.80
831.17	228.66
831.48	228.61
831.80	228.66
832.11	228.66
832.43	228.59
832.75	228.70
833.06	228.74
833.38	228.80
833.69	228.77
834.01	228.67
834.32	228.78
834.64	228.83
834.96	228.91
835.27	228.98
835.59	229.03
835.90	229.04
836.22	229.11
836.53	228.99
836.85	229.00
837.16	229.25
837.48	229.35
837.79	229.50
838.11	229.59
838.42	229.63
838.74	229.80
839.05	229.93
839.37	229.87
839.68	229.81
840.00	229.85
840.31	229.91
840.63	229.99
840.94	229.97
841.26	230.01
841.57	230.04
841.88	230.10
842.20	230.10
842.51	230.16
842.83	230.07
843.14	230.33
843.46	230.41
843.77	230.34
844.08	230.38
844.40	230.39
844.71	230.42
845.03	230.50
845.34	230.38
845.65	230.30
845.97	230.51
846.28	230.54
846.60	230.47
846.91	230.44
847.22	230.39
847.54	230.46
847.85	230.45
848.16	230.40
848.48	230.30
848.79	230.27
849.10	230.29
849.42	230.36
849.73	230.16
850.04	230.10
850.36	230.09
850.67	230.05
850.98	230.01
851.30	229.94
851.61	229.82
851.92	229.76
852.23	229.92
852.55	229.87
852.86	229.84
853.17	229.80
853.49	229.75
853.80	229.77
854.11	229.82
854.42	229.89
854.74	229.91
855.05	229.81
855.36	229.68
855.67	229.59
855.99	229.50
856.30	229.65
856.61	229.54
856.92	229.47
857.23	229.45
857.55	229.32
857.86	229.25
858.17	229.20
858.48	229.10
858.79	228.93
859.11	228.80
859.42	228.82
859.73	228.74
860.04	228.72
860.35	228.62
860.66	228.49
860.98	228.35
861.29	228.28
861.60	228.29
861.91	228.24
862.22	228.19
862.53	228.16
862.84	228.00
863.16	228.03
863.47	227.81
863.78	227.80
864.09	227.86
864.40	227.84
864.71	227.79
865.02	227.83
865.33	227.75
865.64	227.74
865.95	227.71
866.27	227.81
866.58	227.80
866.89	227.78
867.20	227.70
867.51	227.71
867.82	227.71
868.13	227.70
868.44	227.73
868.75	227.71
869.06	227.70
869.37	227.62
869.68	227.74
869.99	227.88
870.30	227.87
870.61	227.92
870.92	227.91
871.23	227.96
871.54	228.03
871.85	228.15
872.16	228.20
872.47	228.17
872.78	228.13
873.09	228.07
873.40	228.14
873.71	228.22
874.02	228.24
874.33	228.29
874.64	228.28
874.95	228.45
875.26	228.55
875.56	228.65
875.87	228.70
876.18	228.59
876.49	228.85
876.80	228.72
877.11	228.68
877.42	228.77
877.73	228.87
878.04	228.86
878.35	228.92
878.66	228.92
878.96	228.93
879.27	228.95
879.58	229.01
879.89	229.08
880.20	229.16
880.51	229.12
880.82	229.11
881.12	229.21
881.43	229.03
881.74	229.00
882.05	229.00
882.36	229.05
882.67	229.15
882.97	228.90
883.28	228.98
883.59	228.92
883.90	228.90
884.21	228.96
884.51	228.92
884.82	228.87
885.13	229.02
885.44	228.96
885.74	228.93
886.05	229.00
886.36	228.99
886.67	228.93
886.98	229.06
887.28	229.09
887.59	229.04
887.90	229.25
888.20	229.22
888.51	229.09
888.82	229.04
889.13	229.00
889.43	229.12
889.74	229.09
890.05	229.10
890.35	228.99
890.66	228.87
890.97	228.84
891.28	228.89
891.58	228.70
891.89	228.80
892.20	228.81
892.50	228.67
892.81	228.63
893.12	228.58
893.42	228.42
893.73	228.31
894.04	228.24
894.34	228.07
894.65	228.10
894.95	228.08
895.26	227.94
895.57	227.98
895.87	227.77
896.18	227.85
896.48	227.86
896.79	227.84
897.10	227.83
897.40	227.82
897.71	227.73
898.01	227.67
898.32	227.61
898.63	227.56
898.93	227.49
899.24	227.44
899.54	227.39
899.85	227.30
900.15	227.34
900.46	227.31
900.76	227.29
901.07	227.31
901.38	227.34
901.68	227.43
901.99	227.33
902.29	227.38
902.60	227.27
902.90	227.19
903.21	227.19
903.51	227.10
903.82	227.10
904.12	227.11
904.43	227.21
904.73	227.18
905.03	227.11
905.34	227.38
905.64	227.37
905.95	227.38
906.25	227.46
906.56	227.39
906.86	227.42
907.17	227.37
907.47	227.40
907.77	227.32
908.08	227.33
908.38	227.30
908.69	227.35
908.99	227.40
909.30	227.42
909.60	227.51
909.90	227.64
910.21	227.65
910.51	227.65
910.81	227.56
911.12	227.59
911.42	227.62
911.73	227.54
912.03	227.58
912.33	227.71
912.64	227.79
912.94	227.80
913.24	227.82
913.55	227.90
913.85	227.81
914.15	227.99
914.46	228.05
914.76	228.15
915.06	228.19
915.37	228.35
915.67	228.39
915.97	228.38
916.27	228.28
916.58	228.42
916.88	228.34
917.18	228.48
917.49	228.64
917.79	228.72
918.09	228.68
918.39	228.72
918.70	228.80
919.00	228.84
919.30	229.01
919.60	229.12
919.91	229.12
920.21	229.22
920.51	229.13
920.81	229.10
921.12	229.18
921.42	229.20
921.72	229.15
922.02	229.24
922.32	229.39
922.63	229.51
922.93	229.49
923.23	229.61
923.53	229.64
923.83	229.56
924.13	229.50
924.44	229.51
924.74	229.65
925.04	229.60
925.34	229.62
925.64	229.50
925.94	229.46
926.24	229.70
926.55	229.61
926.85	229.69
927.15	229.68
927.45	229.60
927.75	229.51
928.05	229.47
928.35	229.48
928.65	229.40
928.95	229.36
929.26	229.34
929.56	229.36
929.86	229.37
930.16	229.30
930.46	229.38
930.76	229.39
931.06	229.26
931.36	229.20
931.66	229.09
931.96	229.12
932.26	229.09
932.56	228.86
932.86	228.90
933.16	228.90
933.46	228.85
933.76	228.83
934.06	228.88
934.36	228.90
934.66	228.85
934.96	228.85
935.26	228.82
935.56	228.78
935.86	228.68
936.16	228.51
936.46	228.50
936.76	228.46
937.06	228.46
937.36	228.36
937.66	228.28
937.96	228.36
938.26	228.41
938.56	228.27
938.86	228.35
939.16	228.37
939.46	228.37
939.76	228.33
940.06	228.26
940.35	228.23
940.65	228.06
940.95	228.02
941.25	227.91
941.55	227.88
941.85	227.80
942.15	227.85
942.45	227.96
942.75	227.94
943.04	227.96
943.34	227.94
943.64	227.88
943.94	227.90
944.24	227.87
944.54	227.75
944.84	227.80
945.13	227.73
945.43	227.74
945.73	227.75
946.03	227.75
946.33	227.67
946.62	227.67
946.92	227.76
947.22	227.76
947.52	227.78
947.82	227.79
948.11	227.85
948.41	227.82
948.71	227.75
949.01	227.79
949.31	227.73
949.60	227.60
949.90	227.68
950.20	227.72
950.50	227.65
950.79	227.63
951.09	227.71
951.39	227.69
951.69	227.61
951.98	227.56
952.28	227.65
952.58	227.78
952.87	227.74
953.17	227.77
953.47	227.80
953.76	227.76
954.06	227.68
954.36	227.74
954.66	227.75
954.95	227.84
955.25	227.83
955.55	227.90
955.84	228.01
956.14	228.15
956.44	228.10
956.73	228.15
957.03	228.17
957.32	228.20
957.62	228.25
957.92	228.22
958.21	228.28
958.51	228.46
958.81	228.49
959.10	228.60
959.40	228.63
959.69	228.56
959.99	228.63
960.29	228.72
960.58	228.70
960.88	228.85
961.17	228.91
961.47	228.92
961.76	228.80
962.06	228.82
962.36	228.84
962.65	228.92
962.95	228.95
963.24	229.00
963.54	229.06
963.83	228.97
964.13	229.08
964.42	229.07
964.72	228.98
965.01	228.96
965.31	228.80
965.60	228.74
965.90	228.82
966.19	228.82
966.49	228.89
966.78	228.78
967.08	228.64
967.37	228.55
967.67	228.68
967.96	228.73
968.26	228.76
968.55	228.65
968.85	228.61
969.14	228.64
969.43	228.60
969.73	228.46
970.02	228.53
970.32	228.54
970.61	228.40
970.91	228.27
971.20	228.24
971.49	228.27
971.79	228.31
972.08	228.27
972.38	228.22
972.67	228.15
972.96	228.22
973.26	228.19
973.55	228.26
973.85	228.15
974.14	228.10
974.43	228.08
974.73	228.10
975.02	228.06
975.31	227.98
975.61	227.93
975.90	227.96
976.19	227.99
976.49	227.95
976.78	228.07
977.07	228.13
977.37	228.14
977.66	228.15
977.95	228.09
978.24	228.11
978.54	228.20
978.83	228.20
979.12	228.20
979.42	228.18
979.71	228.10
980.00	228.12
980.29	228.25
980.59	228.20
980.88	228.32
981.17	228.28
981.46	228.34
981.76	228.42
982.05	228.53
982.34	228.49
982.63	228.45
982.93	228.43
983.22	228.47
983.51	228.43
983.80	228.43
984.09	228.41
984.39	228.44
984.68	228.39
984.97	228.40
985.26	228.39
985.55	228.49
985.85	228.43
986.14	228.42
986.43	228.37
986.72	228.37
987.01	228.34
987.30	228.40
987.59	228.30
987.89	228.37
988.18	228.28
988.47	228.27
988.76	228.30
989.05	228.25
989.34	228.20
989.63	228.24
989.92	228.24
990.22	228.30
990.51	228.26
990.80	228.26
991.09	228.37
991.38	228.39
991.67	228.27
991.96	228.35
992.25	228.39
992.54	228.41
992.83	228.40
993.12	228.32
993.41	228.32
993.70	228.45
993.99	228.32
994.28	228.35
994.58	228.44
994.87	228.38
995.16	228.40
995.45	228.45
995.74	228.49
996.03	228.55
996.32	228.53
996.61	228.50
996.90	228.52
997.19	228.46
997.48	228.40
997.77	228.37
998.06	228.29
998.34	228.22
998.63	228.19
998.92	228.19
999.21	228.13
999.50	228.13
999.79	228.03
1000.08	228.14
1000.37	228.13
1000.66	228.03
1000.95	228.10
1001.24	228.18
1001.53	228.19
1001.82	228.13
1002.11	228.08
1002.40	228.03
1002.68	228.18
1002.97	228.30
1003.26	228.21
1003.55	228.21
1003.84	228.30
1004.13	228.44
1004.42	228.40
1004.71	228.30
1004.99	228.34
1005.28	228.41
1005.57	228.40
1005.86	228.47
1006.15	228.40
1006.44	228.36
1006.72	228.33
1007.01	228.21
1007.30	228.09
1007.59	227.92
1007.88	227.97
1008.17	228.01
1008.45	227.99
1008.74	227.83
1009.03	227.63
1009.32	227.56
1009.60	227.59
1009.89	227.57
1010.18	227.44
1010.47	227.51
1010.76	227.70
1011.04	227.63
1011.33	227.58
1011.62	227.55
1011.91	227.41
1012.19	227.41
1012.48	227.42
1012.77	227.58
1013.05	227.64
1013.34	227.65
1013.63	227.73
1013.92	227.68
1014.20	227.64
1014.49	227.68
1014.78	227.73
1015.06	227.70
1015.35	227.79
1015.64	227.84
1015.92	227.84
1016.21	227.85
1016.50	227.75
1016.78	227.65
1017.07	227.73
1017.36	227.78
1017.64	227.75
1017.93	227.85
1018.22	227.86
1018.50	227.86
1018.79	227.81
1019.08	227.84
1019.36	227.85
1019.65	227.82
1019.93	227.89
1020.22	227.93
1020.51	228.09
1020.79	228.10
1021.08	228.30
1021.36	227.50
1021.65	229.00
1021.94	228.50
1022.22	227.40
1022.51	227.50
1022.79	228.70
1023.08	228.40
1023.36	230.70
1023.65	228.30
>>>>>End Processed Spectral Data<<<<<
