SpectraSuite Data File
++++++++++++++++++++++++++++++++++++
Date: Fri Feb 01 14:39:05 EST 2013
User: group
Dark Spectrum Present: No
Reference Spectrum Present: No
Number of Sampled Component Spectra: 1
Spectrometers: USB2E7196
Integration Time (usec): 70000 (USB2E7196)
Spectra Averaged: 10 (USB2E7196)
Boxcar Smoothing: 10 (USB2E7196)
Correct for Electrical Dark: No (USB2E7196)
Strobe/Lamp Enabled: No (USB2E7196)
Correct for Detector Non-linearity: No (USB2E7196)
Correct for Stray Light: No (USB2E7196)
Number of Pixels in Processed Spectrum: 2048
>>>>>Begin Processed Spectral Data<<<<<
339.09	0.00
339.48	217.90
339.86	218.20
340.24	218.60
340.63	220.10
341.01	223.30
341.39	222.60
341.78	224.40
342.16	226.60
342.54	224.50
342.93	214.74
343.31	225.67
343.69	226.08
344.07	226.52
344.46	227.01
344.84	227.35
345.22	227.51
345.60	227.86
345.99	228.01
346.37	228.14
346.75	228.32
347.13	228.40
347.52	228.50
347.90	228.56
348.28	228.63
348.66	228.62
349.05	228.54
349.43	228.52
349.81	228.48
350.19	228.50
350.57	228.61
350.96	228.70
351.34	228.71
351.72	228.87
352.10	229.01
352.48	228.99
352.87	229.15
353.25	229.15
353.63	229.12
354.01	229.19
354.39	229.23
354.77	229.30
355.15	229.37
355.54	229.41
355.92	229.48
356.30	229.51
356.68	229.68
357.06	229.80
357.44	229.91
357.82	229.96
358.20	229.98
358.58	230.02
358.97	229.97
359.35	230.02
359.73	230.11
360.11	230.08
360.49	230.16
360.87	230.10
361.25	230.33
361.63	230.42
362.01	230.50
362.39	230.41
362.77	230.37
363.15	230.30
363.53	230.23
363.91	230.10
364.29	230.12
364.67	229.95
365.05	229.92
365.43	229.89
365.81	229.94
366.19	230.01
366.57	229.97
366.95	229.90
367.33	229.83
367.71	229.72
368.09	229.64
368.47	229.55
368.85	229.50
369.23	229.45
369.61	229.35
369.99	229.30
370.37	229.40
370.75	229.37
371.13	229.40
371.51	229.44
371.89	229.51
372.27	229.48
372.65	229.40
373.03	229.28
373.41	229.21
373.78	229.06
374.16	228.92
374.54	228.80
374.92	228.81
375.30	228.68
375.68	228.61
376.06	228.56
376.44	228.48
376.82	228.40
377.19	228.27
377.57	228.10
377.95	228.07
378.33	227.94
378.71	227.89
379.09	227.82
379.47	227.74
379.84	227.52
380.22	227.46
380.60	227.34
380.98	227.41
381.36	227.37
381.73	227.32
382.11	227.35
382.49	227.29
382.87	227.16
383.25	227.22
383.62	227.32
384.00	227.35
384.38	227.38
384.76	227.40
385.13	227.34
385.51	227.32
385.89	227.22
386.27	227.14
386.64	227.03
387.02	226.84
387.40	226.80
387.78	226.83
388.15	226.84
388.53	226.87
388.91	226.80
389.29	226.71
389.66	226.71
390.04	226.63
390.42	226.66
390.79	226.70
391.17	226.66
391.55	226.52
391.92	226.45
392.30	226.50
392.68	226.48
393.05	226.53
393.43	226.57
393.81	226.61
394.18	226.57
394.56	226.70
394.94	226.83
395.31	226.83
395.69	227.04
396.06	227.00
396.44	227.11
396.82	227.13
397.19	227.35
397.57	227.38
397.95	227.51
398.32	227.61
398.70	227.69
399.07	227.79
399.45	227.86
399.82	227.98
400.20	227.95
400.58	227.99
400.95	228.01
401.33	228.22
401.70	228.42
402.08	228.58
402.45	228.66
402.83	228.82
403.20	228.95
403.58	228.95
403.95	229.24
404.33	229.25
404.71	229.37
405.08	229.55
405.46	229.63
405.83	229.74
406.21	229.89
406.58	230.05
406.96	230.15
407.33	230.23
407.70	230.46
408.08	230.80
408.45	231.05
408.83	231.31
409.20	231.46
409.58	231.59
409.95	231.97
410.33	232.25
410.70	232.47
411.08	232.81
411.45	233.23
411.82	233.40
412.20	233.87
412.57	234.36
412.95	234.48
413.32	234.97
413.69	235.34
414.07	235.68
414.44	236.20
414.82	236.72
415.19	237.43
415.56	238.05
415.94	238.61
416.31	239.39
416.68	240.12
417.06	240.96
417.43	241.68
417.81	242.30
418.18	243.16
418.55	244.07
418.93	245.00
419.30	245.80
419.67	246.70
420.04	247.65
420.42	248.69
420.79	250.13
421.16	251.42
421.54	252.77
421.91	254.20
422.28	255.61
422.66	257.20
423.03	258.74
423.40	260.12
423.77	261.66
424.15	263.14
424.52	264.78
424.89	266.60
425.26	268.32
425.64	270.08
426.01	271.88
426.38	273.75
426.75	275.74
427.13	277.86
427.50	280.02
427.87	282.34
428.24	284.41
428.61	286.44
428.99	288.77
429.36	291.18
429.73	293.68
430.10	296.08
430.47	298.47
430.85	300.98
431.22	303.75
431.59	306.71
431.96	309.38
432.33	312.47
432.70	315.23
433.08	318.60
433.45	321.82
433.82	325.07
434.19	328.56
434.56	331.94
434.93	335.13
435.30	338.39
435.68	341.90
436.05	345.49
436.42	349.08
436.79	352.23
437.16	355.63
437.53	359.15
437.90	362.70
438.27	366.24
438.64	369.77
439.01	373.02
439.38	375.68
439.75	378.54
440.13	381.61
440.50	384.75
440.87	387.20
441.24	389.69
441.61	392.53
441.98	394.68
442.35	397.14
442.72	399.68
443.09	402.28
443.46	403.64
443.83	404.57
444.20	405.33
444.57	406.51
444.94	407.16
445.31	407.91
445.68	408.72
446.05	409.17
446.42	408.98
446.79	408.69
447.16	408.52
447.53	408.57
447.90	407.55
448.27	406.51
448.64	404.99
449.01	404.04
449.37	401.88
449.74	399.73
450.11	397.30
450.48	394.56
450.85	391.55
451.22	389.27
451.59	387.05
451.96	384.82
452.33	381.83
452.70	379.12
453.07	375.87
453.43	372.30
453.80	368.83
454.17	365.60
454.54	362.76
454.91	359.56
455.28	356.35
455.65	353.23
456.02	350.27
456.38	347.72
456.75	344.42
457.12	341.55
457.49	338.86
457.86	336.13
458.23	333.80
458.59	331.28
458.96	328.70
459.33	326.39
459.70	324.21
460.07	322.50
460.43	320.37
460.80	318.23
461.17	316.55
461.54	314.65
461.91	312.89
462.27	310.93
462.64	309.25
463.01	307.50
463.38	305.97
463.74	304.09
464.11	302.51
464.48	301.25
464.85	299.91
465.21	298.80
465.58	297.66
465.95	296.25
466.32	295.13
466.68	293.86
467.05	292.66
467.42	291.43
467.78	290.08
468.15	288.85
468.52	287.82
468.88	286.60
469.25	285.55
469.62	284.60
469.98	283.79
470.35	282.94
470.72	282.03
471.08	281.09
471.45	280.37
471.82	279.50
472.18	278.60
472.55	277.98
472.92	277.25
473.28	276.50
473.65	275.89
474.02	275.26
474.38	274.63
474.75	274.11
475.11	273.52
475.48	273.08
475.85	272.66
476.21	272.31
476.58	271.93
476.94	271.67
477.31	271.27
477.67	270.79
478.04	270.52
478.41	270.21
478.77	270.00
479.14	269.53
479.50	269.36
479.87	269.00
480.23	268.60
480.60	268.30
480.96	267.89
481.33	267.64
481.69	267.35
482.06	267.14
482.42	266.81
482.79	266.69
483.15	266.55
483.52	266.41
483.88	266.28
484.25	266.16
484.61	265.97
484.98	265.92
485.34	265.81
485.71	265.73
486.07	265.77
486.44	265.65
486.80	265.73
487.17	265.70
487.53	265.83
487.90	265.95
488.26	266.11
488.62	266.36
488.99	266.33
489.35	266.48
489.72	266.66
490.08	266.99
490.44	267.14
490.81	267.18
491.17	267.36
491.54	267.50
491.90	267.54
492.26	267.73
492.63	267.89
492.99	268.10
493.36	268.27
493.72	268.42
494.08	268.63
494.45	268.97
494.81	269.24
495.17	269.56
495.54	269.96
495.90	270.22
496.26	270.53
496.63	270.96
496.99	271.29
497.35	271.65
497.72	272.01
498.08	272.29
498.44	272.91
498.80	273.30
499.17	273.74
499.53	274.29
499.89	274.78
500.26	275.30
500.62	275.79
500.98	276.38
501.34	276.87
501.71	277.46
502.07	277.98
502.43	278.48
502.79	279.06
503.16	279.53
503.52	280.10
503.88	280.70
504.24	281.48
504.60	282.22
504.97	282.99
505.33	283.64
505.69	284.57
506.05	285.19
506.41	285.93
506.78	286.63
507.14	287.48
507.50	288.34
507.86	289.28
508.22	290.36
508.59	291.26
508.95	292.37
509.31	293.54
509.67	294.69
510.03	295.80
510.39	297.08
510.75	298.44
511.12	299.77
511.48	300.95
511.84	302.26
512.20	303.60
512.56	305.14
512.92	306.77
513.28	308.30
513.64	309.97
514.00	311.80
514.37	313.78
514.73	315.65
515.09	317.53
515.45	319.55
515.81	321.57
516.17	323.75
516.53	325.87
516.89	328.15
517.25	330.50
517.61	333.16
517.97	335.56
518.33	338.09
518.69	340.75
519.05	343.80
519.41	346.66
519.77	349.76
520.13	352.69
520.49	355.73
520.85	358.90
521.21	362.32
521.57	365.86
521.93	369.28
522.29	372.97
522.65	376.69
523.01	380.47
523.37	384.32
523.73	388.38
524.09	392.57
524.45	396.67
524.81	400.92
525.17	405.32
525.53	409.91
525.89	414.59
526.25	419.41
526.61	423.85
526.97	428.58
527.33	433.62
527.68	438.73
528.04	443.69
528.40	448.86
528.76	454.00
529.12	459.09
529.48	464.53
529.84	469.96
530.20	475.67
530.56	481.55
530.91	487.40
531.27	493.25
531.63	499.09
531.99	504.92
532.35	510.71
532.71	516.71
533.07	523.03
533.42	529.15
533.78	535.33
534.14	541.75
534.50	548.08
534.86	554.37
535.21	560.78
535.57	567.50
535.93	574.09
536.29	580.89
536.65	587.64
537.00	594.16
537.36	601.07
537.72	607.74
538.08	614.35
538.44	621.07
538.79	627.88
539.15	634.79
539.51	641.66
539.87	648.91
540.22	655.74
540.58	662.57
540.94	669.66
541.29	676.57
541.65	683.61
542.01	691.00
542.37	698.19
542.72	705.30
543.08	712.35
543.44	719.58
543.79	726.29
544.15	733.29
544.51	740.76
544.87	747.78
545.22	754.84
545.58	761.84
545.94	768.85
546.29	775.65
546.65	782.34
547.01	789.22
547.36	795.76
547.72	802.69
548.07	809.33
548.43	815.83
548.79	822.56
549.14	829.30
549.50	835.69
549.86	842.10
550.21	848.47
550.57	854.83
550.92	861.00
551.28	867.43
551.64	873.69
551.99	879.56
552.35	885.48
552.70	891.52
553.06	897.51
553.41	903.27
553.77	909.66
554.13	915.82
554.48	922.06
554.84	928.02
555.19	933.91
555.55	940.09
555.90	945.66
556.26	951.21
556.61	956.70
556.97	962.02
557.32	967.41
557.68	972.97
558.03	978.64
558.39	984.25
558.74	989.98
559.10	995.42
559.45	1000.95
559.81	1006.67
560.16	1011.99
560.52	1017.25
560.87	1022.80
561.23	1027.61
561.58	1032.85
561.94	1037.60
562.29	1042.53
562.64	1046.92
563.00	1051.31
563.35	1056.53
563.71	1061.50
564.06	1065.91
564.42	1070.67
564.77	1075.42
565.12	1080.15
565.48	1084.74
565.83	1088.60
566.19	1092.68
566.54	1096.74
566.89	1100.59
567.25	1104.70
567.60	1108.78
567.96	1112.68
568.31	1116.21
568.66	1119.65
569.02	1123.02
569.37	1126.43
569.72	1129.62
570.08	1133.10
570.43	1136.64
570.78	1139.49
571.14	1142.20
571.49	1145.17
571.84	1148.35
572.20	1150.76
572.55	1152.72
572.90	1154.64
573.26	1157.46
573.61	1159.60
573.96	1161.63
574.31	1163.14
574.67	1164.47
575.02	1165.88
575.37	1167.23
575.72	1168.33
576.08	1170.15
576.43	1171.11
576.78	1172.35
577.13	1173.87
577.49	1175.13
577.84	1175.64
578.19	1176.25
578.54	1176.88
578.90	1177.34
579.25	1177.31
579.60	1177.79
579.95	1177.93
580.30	1177.72
580.66	1177.59
581.01	1177.46
581.36	1177.59
581.71	1178.29
582.06	1178.27
582.42	1178.02
582.77	1177.88
583.12	1177.88
583.47	1177.37
583.82	1177.53
584.17	1177.06
584.53	1176.48
584.88	1175.68
585.23	1175.04
585.58	1174.93
585.93	1174.48
586.28	1174.22
586.63	1173.71
586.98	1172.86
587.34	1172.57
587.69	1172.32
588.04	1171.57
588.39	1171.02
588.74	1169.83
589.09	1168.38
589.44	1167.01
589.79	1166.14
590.14	1165.23
590.49	1164.06
590.84	1162.76
591.19	1161.42
591.54	1159.54
591.89	1157.34
592.25	1156.12
592.60	1154.07
592.95	1151.82
593.30	1149.72
593.65	1147.60
594.00	1145.61
594.35	1144.27
594.70	1141.98
595.05	1139.80
595.40	1137.59
595.75	1135.18
596.10	1133.09
596.45	1131.34
596.80	1129.69
597.15	1127.60
597.50	1125.33
597.85	1123.47
598.19	1121.77
598.54	1119.67
598.89	1117.95
599.24	1116.50
599.59	1114.13
599.94	1112.63
600.29	1110.47
600.64	1108.38
600.99	1106.11
601.34	1103.79
601.69	1100.62
602.04	1098.46
602.39	1096.07
602.74	1093.80
603.08	1091.80
603.43	1089.61
603.78	1087.04
604.13	1084.43
604.48	1081.81
604.83	1079.18
605.18	1076.34
605.53	1073.15
605.87	1069.79
606.22	1067.12
606.57	1064.15
606.92	1061.33
607.27	1058.41
607.62	1055.84
607.96	1052.91
608.31	1050.21
608.66	1047.30
609.01	1044.32
609.36	1040.85
609.70	1037.31
610.05	1033.89
610.40	1030.47
610.75	1027.11
611.10	1023.59
611.44	1019.49
611.79	1016.15
612.14	1012.61
612.49	1008.48
612.83	1004.55
613.18	1000.83
613.53	996.90
613.88	992.97
614.22	989.10
614.57	984.90
614.92	980.98
615.27	977.55
615.61	973.48
615.96	969.64
616.31	966.20
616.65	963.20
617.00	960.06
617.35	956.42
617.70	952.48
618.04	948.73
618.39	945.06
618.74	941.75
619.08	937.57
619.43	933.85
619.78	930.53
620.12	926.99
620.47	923.48
620.82	919.99
621.16	916.46
621.51	913.04
621.85	909.63
622.20	905.73
622.55	902.08
622.89	898.67
623.24	895.19
623.59	891.61
623.93	887.78
624.28	884.12
624.62	880.55
624.97	877.12
625.32	873.57
625.66	870.00
626.01	866.59
626.35	863.27
626.70	859.45
627.04	855.98
627.39	852.18
627.73	848.51
628.08	844.90
628.43	841.19
628.77	837.33
629.12	833.42
629.46	829.89
629.81	825.60
630.15	821.59
630.50	817.50
630.84	813.19
631.19	809.09
631.53	805.12
631.88	800.79
632.22	796.67
632.57	792.83
632.91	788.79
633.26	784.65
633.60	780.56
633.95	776.87
634.29	773.02
634.64	769.61
634.98	765.75
635.32	762.01
635.67	758.57
636.01	755.20
636.36	751.45
636.70	747.88
637.05	744.48
637.39	740.97
637.73	737.73
638.08	734.90
638.42	731.85
638.77	728.48
639.11	725.40
639.45	722.07
639.80	718.51
640.14	715.34
640.49	711.89
640.83	708.71
641.17	705.56
641.52	702.09
641.86	698.65
642.20	695.57
642.55	692.04
642.89	688.51
643.23	684.84
643.58	682.06
643.92	678.58
644.26	675.26
644.61	672.20
644.95	669.04
645.29	665.23
645.64	661.47
645.98	658.18
646.32	654.87
646.66	651.25
647.01	647.98
647.35	644.56
647.69	641.33
648.04	638.08
648.38	634.46
648.72	630.95
649.06	627.27
649.41	623.85
649.75	620.42
650.09	617.17
650.43	613.75
650.78	609.95
651.12	606.68
651.46	603.53
651.80	600.02
652.14	596.49
652.49	593.34
652.83	590.33
653.17	587.01
653.51	583.87
653.85	580.90
654.20	577.68
654.54	574.36
654.88	571.04
655.22	567.67
655.56	564.46
655.90	561.51
656.25	558.54
656.59	555.45
656.93	552.67
657.27	549.63
657.61	546.70
657.95	544.01
658.29	541.07
658.64	538.06
658.98	535.15
659.32	532.23
659.66	529.31
660.00	526.38
660.34	523.38
660.68	520.34
661.02	517.39
661.36	514.77
661.70	512.12
662.05	509.69
662.39	507.25
662.73	504.80
663.07	502.40
663.41	500.05
663.75	497.65
664.09	495.10
664.43	492.56
664.77	490.15
665.11	487.69
665.45	485.33
665.79	482.90
666.13	480.44
666.47	477.99
666.81	475.52
667.15	473.10
667.49	470.77
667.83	468.72
668.17	466.47
668.51	463.90
668.85	461.77
669.19	459.67
669.53	457.40
669.87	455.01
670.21	452.71
670.55	450.49
670.89	448.48
671.23	446.34
671.57	444.24
671.91	442.03
672.25	439.97
672.58	437.98
672.92	435.90
673.26	434.04
673.60	432.12
673.94	430.20
674.28	428.36
674.62	426.73
674.96	424.67
675.30	422.90
675.64	421.20
675.97	419.38
676.31	417.52
676.65	415.64
676.99	414.06
677.33	412.24
677.67	410.48
678.01	408.47
678.34	406.56
678.68	404.74
679.02	402.98
679.36	401.18
679.70	399.39
680.04	397.68
680.37	395.92
680.71	394.22
681.05	392.60
681.39	391.07
681.73	389.30
682.06	388.00
682.40	386.57
682.74	385.15
683.08	383.58
683.42	381.86
683.75	380.42
684.09	378.68
684.43	377.05
684.77	375.62
685.10	374.05
685.44	372.56
685.78	371.10
686.12	369.68
686.45	368.27
686.79	366.79
687.13	365.52
687.46	364.02
687.80	362.65
688.14	361.25
688.48	359.77
688.81	358.38
689.15	356.86
689.49	355.28
689.82	353.78
690.16	352.22
690.50	350.90
690.83	349.52
691.17	348.21
691.51	347.07
691.84	345.70
692.18	344.50
692.52	343.36
692.85	342.24
693.19	341.09
693.52	339.71
693.86	338.43
694.20	337.21
694.53	336.16
694.87	334.90
695.21	333.73
695.54	332.58
695.88	331.34
696.21	330.01
696.55	329.02
696.88	327.84
697.22	326.77
697.56	325.68
697.89	324.62
698.23	323.52
698.56	322.34
698.90	321.25
699.23	320.11
699.57	318.96
699.90	317.74
700.24	316.60
700.58	315.74
700.91	314.87
701.25	313.93
701.58	313.06
701.92	312.10
702.25	311.22
702.59	310.17
702.92	309.31
703.26	308.56
703.59	307.62
703.93	306.90
704.26	306.08
704.60	305.20
704.93	304.29
705.26	303.54
705.60	302.80
705.93	302.05
706.27	301.35
706.60	300.71
706.94	299.98
707.27	299.21
707.61	298.38
707.94	297.53
708.27	296.59
708.61	295.68
708.94	294.91
709.28	294.18
709.61	293.60
709.94	292.90
710.28	292.10
710.61	291.47
710.95	290.50
711.28	289.90
711.61	289.24
711.95	288.56
712.28	287.71
712.61	286.99
712.95	286.39
713.28	285.73
713.61	284.96
713.95	284.31
714.28	283.67
714.61	283.02
714.95	282.48
715.28	281.94
715.61	281.40
715.95	280.87
716.28	280.29
716.61	279.57
716.95	279.00
717.28	278.47
717.61	277.85
717.94	277.37
718.28	276.74
718.61	276.10
718.94	275.57
719.27	275.19
719.61	274.81
719.94	274.18
720.27	273.68
720.60	273.11
720.94	272.69
721.27	272.31
721.60	271.94
721.93	271.43
722.27	271.04
722.60	270.59
722.93	270.10
723.26	269.52
723.59	269.02
723.93	268.57
724.26	268.13
724.59	267.65
724.92	267.24
725.25	266.80
725.59	266.36
725.92	265.93
726.25	265.55
726.58	265.11
726.91	264.72
727.24	264.36
727.57	264.00
727.91	263.52
728.24	263.01
728.57	262.49
728.90	262.13
729.23	261.72
729.56	261.29
729.89	261.08
730.22	260.75
730.55	260.36
730.89	260.11
731.22	259.83
731.55	259.56
731.88	259.32
732.21	258.90
732.54	258.70
732.87	258.42
733.20	258.07
733.53	257.75
733.86	257.50
734.19	257.04
734.52	256.85
734.85	256.71
735.18	256.54
735.51	256.34
735.84	255.99
736.17	255.80
736.50	255.50
736.83	255.33
737.16	255.06
737.49	254.93
737.82	254.56
738.15	254.31
738.48	254.05
738.81	253.69
739.14	253.52
739.47	253.22
739.80	252.94
740.13	252.69
740.46	252.42
740.79	252.15
741.12	252.02
741.45	251.75
741.78	251.41
742.11	251.25
742.44	250.95
742.77	250.85
743.10	250.42
743.43	250.22
743.75	249.81
744.08	249.90
744.41	249.70
744.74	249.40
745.07	249.06
745.40	248.78
745.73	248.75
746.06	248.56
746.39	248.39
746.71	248.18
747.04	247.99
747.37	247.82
747.70	247.71
748.03	247.48
748.36	247.26
748.68	247.06
749.01	246.73
749.34	246.60
749.67	246.39
750.00	246.21
750.33	246.17
750.65	246.01
750.98	245.55
751.31	245.29
751.64	245.20
751.97	245.11
752.29	244.90
752.62	244.54
752.95	244.35
753.28	244.08
753.60	243.93
753.93	243.80
754.26	243.58
754.59	243.23
754.91	243.10
755.24	242.94
755.57	242.66
755.90	242.53
756.22	242.36
756.55	242.04
756.88	241.99
757.20	241.64
757.53	241.44
757.86	241.28
758.19	241.06
758.51	240.87
758.84	240.74
759.17	240.63
759.49	240.40
759.82	240.33
760.15	240.13
760.47	240.01
760.80	239.76
761.13	239.59
761.45	239.50
761.78	239.27
762.11	239.15
762.43	239.10
762.76	238.92
763.08	238.68
763.41	238.62
763.74	238.42
764.06	238.24
764.39	238.02
764.71	237.83
765.04	237.76
765.37	237.61
765.69	237.34
766.02	237.13
766.34	237.05
766.67	236.80
767.00	236.83
767.32	236.76
767.65	236.80
767.97	236.64
768.30	236.39
768.62	236.20
768.95	236.05
769.27	235.86
769.60	235.73
769.92	235.79
770.25	235.66
770.57	235.54
770.90	235.35
771.22	235.28
771.55	235.16
771.87	235.08
772.20	234.97
772.52	235.09
772.85	235.38
773.17	235.38
773.50	235.32
773.82	235.16
774.15	234.96
774.47	234.78
774.80	234.71
775.12	234.81
775.45	234.85
775.77	234.86
776.09	234.87
776.42	234.85
776.74	234.72
777.07	234.70
777.39	234.70
777.72	234.73
778.04	234.69
778.36	234.72
778.69	234.67
779.01	234.68
779.33	234.56
779.66	234.21
779.98	234.13
780.31	234.12
780.63	234.20
780.95	234.20
781.28	234.13
781.60	234.14
781.92	234.10
782.25	234.02
782.57	233.99
782.89	233.99
783.22	233.89
783.54	233.90
783.86	233.79
784.19	233.71
784.51	233.84
784.83	233.76
785.16	233.75
785.48	233.65
785.80	233.60
786.12	233.58
786.45	233.55
786.77	233.55
787.09	233.57
787.42	233.42
787.74	233.41
788.06	233.39
788.38	233.37
788.71	233.30
789.03	233.32
789.35	233.32
789.67	233.17
789.99	233.24
790.32	233.14
790.64	233.17
790.96	233.32
791.28	233.15
791.61	233.13
791.93	233.01
792.25	233.13
792.57	233.20
792.89	233.09
793.21	233.10
793.54	232.99
793.86	232.88
794.18	232.93
794.50	232.91
794.82	232.92
795.14	232.88
795.47	232.83
795.79	232.76
796.11	232.54
796.43	232.61
796.75	232.57
797.07	232.52
797.39	232.51
797.71	232.18
798.04	232.11
798.36	232.03
798.68	232.02
799.00	231.93
799.32	231.87
799.64	231.90
799.96	231.78
800.28	231.70
800.60	231.58
800.92	231.56
801.24	231.48
801.56	231.31
801.89	231.27
802.21	231.15
802.53	231.03
802.85	231.11
803.17	231.14
803.49	231.00
803.81	230.95
804.13	230.86
804.45	230.93
804.77	230.95
805.09	230.91
805.41	230.85
805.73	230.67
806.05	230.63
806.37	230.46
806.69	230.40
807.01	230.46
807.33	230.42
807.65	230.19
807.97	230.21
808.28	230.21
808.60	230.16
808.92	230.17
809.24	230.34
809.56	230.21
809.88	230.04
810.20	230.01
810.52	229.95
810.84	229.84
811.16	229.78
811.48	229.71
811.80	229.73
812.12	229.63
812.43	229.72
812.75	229.60
813.07	229.58
813.39	229.54
813.71	229.42
814.03	229.49
814.35	229.50
814.67	229.42
814.98	229.40
815.30	229.37
815.62	229.39
815.94	229.24
816.26	229.43
816.58	229.41
816.89	229.42
817.21	229.40
817.53	229.55
817.85	229.52
818.17	229.50
818.48	229.49
818.80	229.63
819.12	229.60
819.44	229.64
819.76	229.72
820.07	229.75
820.39	229.82
820.71	229.86
821.03	229.91
821.34	229.84
821.66	229.96
821.98	229.94
822.30	229.90
822.61	230.00
822.93	229.83
823.25	229.90
823.57	229.93
823.88	230.00
824.20	229.91
824.52	229.96
824.83	230.00
825.15	230.10
825.47	230.07
825.79	230.14
826.10	230.24
826.42	230.17
826.74	230.21
827.05	230.19
827.37	230.10
827.69	230.13
828.00	230.20
828.32	230.10
828.64	230.16
828.95	230.28
829.27	230.19
829.58	230.26
829.90	230.32
830.22	230.27
830.53	230.20
830.85	230.19
831.17	230.14
831.48	230.16
831.80	230.05
832.11	229.98
832.43	229.98
832.75	229.83
833.06	229.88
833.38	229.89
833.69	229.83
834.01	229.95
834.32	229.88
834.64	229.85
834.96	229.90
835.27	229.83
835.59	229.73
835.90	229.73
836.22	229.65
836.53	229.53
836.85	229.49
837.16	229.69
837.48	229.55
837.79	229.59
838.11	229.61
838.42	229.64
838.74	229.70
839.05	229.63
839.37	229.59
839.68	229.52
840.00	229.46
840.31	229.40
840.63	229.31
840.94	229.27
841.26	229.24
841.57	229.17
841.88	229.17
842.20	229.05
842.51	229.03
842.83	229.03
843.14	229.20
843.46	229.20
843.77	229.10
844.08	229.15
844.40	229.06
844.71	228.91
845.03	228.83
845.34	228.75
845.65	228.75
845.97	228.65
846.28	228.59
846.60	228.58
846.91	228.54
847.22	228.47
847.54	228.51
847.85	228.53
848.16	228.51
848.48	228.44
848.79	228.54
849.10	228.57
849.42	228.49
849.73	228.25
850.04	228.27
850.36	228.12
850.67	228.20
850.98	228.21
851.30	228.21
851.61	228.23
851.92	228.20
852.23	228.27
852.55	228.29
852.86	228.29
853.17	228.33
853.49	228.48
853.80	228.44
854.11	228.54
854.42	228.50
854.74	228.44
855.05	228.57
855.36	228.51
855.67	228.54
855.99	228.60
856.30	228.86
856.61	228.84
856.92	228.95
857.23	228.96
857.55	229.07
857.86	229.20
858.17	229.33
858.48	229.40
858.79	229.34
859.11	229.48
859.42	229.59
859.73	229.63
860.04	229.58
860.35	229.64
860.66	229.55
860.98	229.55
861.29	229.71
861.60	229.69
861.91	229.83
862.22	229.75
862.53	229.80
862.84	229.60
863.16	229.70
863.47	229.59
863.78	229.65
864.09	229.55
864.40	229.54
864.71	229.47
865.02	229.47
865.33	229.45
865.64	229.37
865.95	229.33
866.27	229.44
866.58	229.52
866.89	229.59
867.20	229.60
867.51	229.64
867.82	229.57
868.13	229.63
868.44	229.56
868.75	229.60
869.06	229.53
869.37	229.63
869.68	229.56
869.99	229.64
870.30	229.64
870.61	229.63
870.92	229.63
871.23	229.55
871.54	229.63
871.85	229.71
872.16	229.77
872.47	229.76
872.78	229.60
873.09	229.56
873.40	229.48
873.71	229.35
874.02	229.35
874.33	229.30
874.64	229.17
874.95	229.10
875.26	229.04
875.56	229.03
875.87	228.93
876.18	228.84
876.49	229.10
876.80	228.98
877.11	229.03
877.42	228.91
877.73	228.92
878.04	228.81
878.35	228.72
878.66	228.65
878.96	228.62
879.27	228.66
879.58	228.60
879.89	228.73
880.20	228.81
880.51	228.77
880.82	228.70
881.12	228.73
881.43	228.75
881.74	228.73
882.05	228.78
882.36	228.73
882.67	228.72
882.97	228.40
883.28	228.40
883.59	228.34
883.90	228.32
884.21	228.32
884.51	228.32
884.82	228.26
885.13	228.39
885.44	228.41
885.74	228.36
886.05	228.33
886.36	228.15
886.67	228.09
886.98	228.11
887.28	228.22
887.59	228.10
887.90	228.13
888.20	228.11
888.51	228.05
888.82	228.04
889.13	228.13
889.43	228.30
889.74	228.17
890.05	228.10
890.35	228.09
890.66	228.09
890.97	228.10
891.28	228.07
891.58	228.04
891.89	228.10
892.20	228.00
892.50	228.00
892.81	228.09
893.12	228.19
893.42	228.19
893.73	228.19
894.04	228.30
894.34	228.26
894.65	228.32
894.95	228.36
895.26	228.39
895.57	228.49
895.87	228.33
896.18	228.43
896.48	228.56
896.79	228.69
897.10	228.76
897.40	228.79
897.71	228.91
898.01	228.86
898.32	228.91
898.63	229.02
898.93	229.08
899.24	229.12
899.54	229.10
899.85	229.03
900.15	229.12
900.46	229.04
900.76	229.03
901.07	229.06
901.38	229.12
901.68	229.22
901.99	229.20
902.29	229.30
902.60	229.32
902.90	229.28
903.21	229.22
903.51	229.21
903.82	229.24
904.12	229.17
904.43	229.23
904.73	229.16
905.03	229.15
905.34	229.33
905.64	229.29
905.95	229.32
906.25	229.38
906.56	229.31
906.86	229.35
907.17	229.45
907.47	229.47
907.77	229.40
908.08	229.29
908.38	229.29
908.69	229.22
908.99	229.30
909.30	229.27
909.60	229.37
909.90	229.34
910.21	229.28
910.51	229.34
910.81	229.25
911.12	229.24
911.42	229.13
911.73	228.87
912.03	228.92
912.33	228.90
912.64	228.85
912.94	228.76
913.24	228.78
913.55	228.78
913.85	228.69
914.15	228.70
914.46	228.77
914.76	228.72
915.06	228.69
915.37	228.56
915.67	228.52
915.97	228.41
916.27	228.31
916.58	228.27
916.88	228.16
917.18	228.18
917.49	228.31
917.79	228.40
918.09	228.44
918.39	228.28
918.70	228.20
919.00	228.26
919.30	228.36
919.60	228.28
919.91	228.07
920.21	228.08
920.51	228.08
920.81	227.93
921.12	227.90
921.42	227.94
921.72	227.92
922.02	227.91
922.32	227.94
922.63	228.00
922.93	228.08
923.23	228.01
923.53	227.95
923.83	227.74
924.13	227.77
924.44	227.72
924.74	227.76
925.04	227.86
925.34	227.77
925.64	227.62
925.94	227.55
926.24	227.72
926.55	227.65
926.85	227.56
927.15	227.52
927.45	227.45
927.75	227.39
928.05	227.32
928.35	227.36
928.65	227.33
928.95	227.25
929.26	227.11
929.56	227.20
929.86	227.23
930.16	227.21
930.46	227.13
930.76	227.10
931.06	227.11
931.36	226.91
931.66	226.88
931.96	226.92
932.26	226.96
932.56	226.81
932.86	226.81
933.16	226.81
933.46	226.92
933.76	226.93
934.06	227.01
934.36	227.20
934.66	227.10
934.96	227.16
935.26	227.22
935.56	227.29
935.86	227.35
936.16	227.40
936.46	227.43
936.76	227.48
937.06	227.54
937.36	227.60
937.66	227.70
937.96	227.77
938.26	227.75
938.56	227.78
938.86	227.90
939.16	228.11
939.46	228.22
939.76	228.22
940.06	228.22
940.35	228.17
940.65	228.11
940.95	228.25
941.25	228.26
941.55	228.36
941.85	228.48
942.15	228.55
942.45	228.64
942.75	228.71
943.04	228.75
943.34	228.82
943.64	228.88
943.94	229.00
944.24	229.15
944.54	229.24
944.84	229.35
945.13	229.40
945.43	229.39
945.73	229.37
946.03	229.39
946.33	229.44
946.62	229.49
946.92	229.48
947.22	229.60
947.52	229.58
947.82	229.50
948.11	229.47
948.41	229.38
948.71	229.32
949.01	229.36
949.31	229.35
949.60	229.33
949.90	229.28
950.20	229.29
950.50	229.26
950.79	229.25
951.09	229.29
951.39	229.24
951.69	229.16
951.98	229.23
952.28	229.24
952.58	229.21
952.87	229.24
953.17	229.19
953.47	229.07
953.76	229.11
954.06	229.12
954.36	229.06
954.66	229.00
954.95	229.03
955.25	229.03
955.55	228.95
955.84	228.84
956.14	228.71
956.44	228.60
956.73	228.53
957.03	228.54
957.32	228.39
957.62	228.21
957.92	228.23
958.21	228.10
958.51	228.31
958.81	228.25
959.10	228.26
959.40	228.42
959.69	228.34
959.99	228.28
960.29	228.36
960.58	228.32
960.88	228.45
961.17	228.37
961.47	228.30
961.76	228.35
962.06	228.45
962.36	228.50
962.65	228.52
962.95	228.50
963.24	228.42
963.54	228.49
963.83	228.52
964.13	228.43
964.42	228.40
964.72	228.20
965.01	228.23
965.31	228.17
965.60	228.03
965.90	228.11
966.19	228.08
966.49	227.93
966.78	227.89
967.08	227.80
967.37	227.77
967.67	227.74
967.96	227.79
968.26	227.63
968.55	227.64
968.85	227.59
969.14	227.57
969.43	227.58
969.73	227.53
970.02	227.60
970.32	227.67
970.61	227.68
970.91	227.66
971.20	227.72
971.49	227.68
971.79	227.79
972.08	227.67
972.38	227.62
972.67	227.72
972.96	227.73
973.26	227.70
973.55	227.81
973.85	227.77
974.14	227.69
974.43	227.84
974.73	227.87
975.02	227.83
975.31	227.87
975.61	228.00
975.90	228.08
976.19	228.08
976.49	228.12
976.78	228.17
977.07	228.16
977.37	228.16
977.66	228.19
977.95	228.17
978.24	228.29
978.54	228.44
978.83	228.43
979.12	228.55
979.42	228.65
979.71	228.57
980.00	228.64
980.29	228.75
980.59	228.70
980.88	228.74
981.17	228.79
981.46	228.80
981.76	228.79
982.05	228.79
982.34	228.89
982.63	228.79
982.93	228.81
983.22	228.93
983.51	228.92
983.80	229.08
984.09	229.04
984.39	228.94
984.68	228.87
984.97	228.81
985.26	228.73
985.55	228.85
985.85	228.91
986.14	229.05
986.43	229.04
986.72	228.93
987.01	228.90
987.30	228.98
987.59	228.93
987.89	228.80
988.18	228.75
988.47	228.71
988.76	228.71
989.05	228.69
989.34	228.56
989.63	228.61
989.92	228.61
990.22	228.52
990.51	228.50
990.80	228.48
991.09	228.50
991.38	228.48
991.67	228.35
991.96	228.24
992.25	228.09
992.54	227.89
992.83	227.97
993.12	227.89
993.41	227.81
993.70	227.76
993.99	227.90
994.28	227.78
994.58	227.75
994.87	227.84
995.16	227.78
995.45	227.73
995.74	227.55
996.03	227.42
996.32	227.48
996.61	227.55
996.90	227.56
997.19	227.47
997.48	227.40
997.77	227.25
998.06	227.23
998.34	227.20
998.63	227.29
998.92	227.28
999.21	227.40
999.50	227.48
999.79	227.47
1000.08	227.45
1000.37	227.53
1000.66	227.47
1000.95	227.48
1001.24	227.52
1001.53	227.55
1001.82	227.63
1002.11	227.54
1002.40	227.53
1002.68	227.59
1002.97	227.69
1003.26	227.76
1003.55	227.77
1003.84	227.86
1004.13	227.98
1004.42	227.93
1004.71	228.02
1004.99	228.05
1005.28	228.12
1005.57	228.06
1005.86	228.03
1006.15	227.93
1006.44	227.95
1006.72	227.94
1007.01	227.93
1007.30	227.98
1007.59	228.04
1007.88	228.07
1008.17	228.11
1008.45	228.13
1008.74	228.15
1009.03	228.13
1009.32	228.04
1009.60	228.11
1009.89	228.11
1010.18	228.04
1010.47	228.15
1010.76	228.20
1011.04	228.25
1011.33	228.20
1011.62	228.22
1011.91	228.35
1012.19	228.49
1012.48	228.50
1012.77	228.64
1013.05	228.77
1013.34	228.77
1013.63	228.80
1013.92	228.78
1014.20	228.88
1014.49	228.88
1014.78	228.85
1015.06	228.81
1015.35	228.94
1015.64	228.98
1015.92	228.97
1016.21	228.98
1016.50	228.99
1016.78	229.00
1017.07	228.97
1017.36	228.90
1017.64	228.97
1017.93	228.91
1018.22	228.80
1018.50	228.81
1018.79	228.78
1019.08	228.65
1019.36	228.72
1019.65	228.62
1019.93	228.69
1020.22	228.70
1020.51	228.83
1020.79	228.83
1021.08	227.50
1021.36	228.20
1021.65	229.00
1021.94	229.20
1022.22	230.00
1022.51	227.70
1022.79	229.40
1023.08	229.10
1023.36	231.30
1023.65	228.80
>>>>>End Processed Spectral Data<<<<<
