SpectraSuite Data File
++++++++++++++++++++++++++++++++++++
Date: Fri Feb 01 14:41:18 EST 2013
User: group
Dark Spectrum Present: No
Reference Spectrum Present: No
Number of Sampled Component Spectra: 1
Spectrometers: USB2E7196
Integration Time (usec): 70000 (USB2E7196)
Spectra Averaged: 10 (USB2E7196)
Boxcar Smoothing: 10 (USB2E7196)
Correct for Electrical Dark: No (USB2E7196)
Strobe/Lamp Enabled: No (USB2E7196)
Correct for Detector Non-linearity: No (USB2E7196)
Correct for Stray Light: No (USB2E7196)
Number of Pixels in Processed Spectrum: 2048
>>>>>Begin Processed Spectral Data<<<<<
339.09	0.00
339.48	216.80
339.86	217.50
340.24	220.20
340.63	221.10
341.01	224.00
341.39	223.90
341.78	223.90
342.16	226.10
342.54	226.50
342.93	214.78
343.31	225.67
343.69	226.17
344.07	226.65
344.46	227.07
344.84	227.48
345.22	227.68
345.60	227.89
345.99	228.01
346.37	228.11
346.75	228.25
347.13	228.26
347.52	228.30
347.90	228.45
348.28	228.49
348.66	228.69
349.05	228.66
349.43	228.71
349.81	228.84
350.19	228.90
350.57	228.99
350.96	229.03
351.34	229.02
351.72	229.10
352.10	229.20
352.48	229.20
352.87	229.38
353.25	229.49
353.63	229.68
354.01	229.86
354.39	229.93
354.77	229.97
355.15	230.15
355.54	230.21
355.92	230.17
356.30	230.22
356.68	230.35
357.06	230.38
357.44	230.41
357.82	230.43
358.20	230.52
358.58	230.65
358.97	230.71
359.35	230.82
359.73	231.00
360.11	231.01
360.49	231.00
360.87	230.88
361.25	230.94
361.63	230.87
362.01	230.92
362.39	230.96
362.77	231.18
363.15	231.10
363.53	231.11
363.91	231.12
364.29	231.18
364.67	231.01
365.05	231.07
365.43	231.05
365.81	231.02
366.19	231.09
366.57	231.21
366.95	231.20
367.33	231.10
367.71	231.11
368.09	231.24
368.47	231.37
368.85	231.42
369.23	231.35
369.61	231.29
369.99	231.23
370.37	231.18
370.75	231.09
371.13	231.17
371.51	231.13
371.89	231.11
372.27	230.98
372.65	230.91
373.03	230.84
373.41	230.81
373.78	230.80
374.16	230.61
374.54	230.40
374.92	230.32
375.30	230.40
375.68	230.16
376.06	229.95
376.44	229.80
376.82	229.67
377.19	229.65
377.57	229.55
377.95	229.46
378.33	229.43
378.71	229.15
379.09	229.01
379.47	228.89
379.84	228.72
380.22	228.68
380.60	228.57
380.98	228.44
381.36	228.35
381.73	228.23
382.11	228.18
382.49	228.15
382.87	228.02
383.25	227.88
383.62	228.07
384.00	227.96
384.38	227.88
384.76	227.80
385.13	227.78
385.51	227.73
385.89	227.66
386.27	227.62
386.64	227.60
387.02	227.47
387.40	227.42
387.78	227.39
388.15	227.44
388.53	227.43
388.91	227.47
389.29	227.49
389.66	227.51
390.04	227.41
390.42	227.36
390.79	227.38
391.17	227.34
391.55	227.23
391.92	227.33
392.30	227.41
392.68	227.58
393.05	227.67
393.43	227.90
393.81	227.92
394.18	227.92
394.56	228.01
394.94	228.10
395.31	228.14
395.69	228.27
396.06	228.25
396.44	228.31
396.82	228.31
397.19	228.45
397.57	228.54
397.95	228.78
398.32	228.92
398.70	229.07
399.07	229.25
399.45	229.20
399.82	229.29
400.20	229.32
400.58	229.28
400.95	229.20
401.33	229.07
401.70	229.39
402.08	229.50
402.45	229.66
402.83	229.89
403.20	230.10
403.58	230.37
403.95	230.62
404.33	230.89
404.71	231.07
405.08	231.33
405.46	231.45
405.83	231.58
406.21	231.73
406.58	231.90
406.96	232.03
407.33	232.36
407.70	232.60
408.08	233.04
408.45	233.30
408.83	233.64
409.20	234.00
409.58	234.15
409.95	234.55
410.33	234.71
410.70	234.92
411.08	235.33
411.45	235.50
411.82	235.83
412.20	236.12
412.57	236.70
412.95	236.86
413.32	237.28
413.69	237.78
414.07	238.29
414.44	238.82
414.82	239.42
415.19	240.05
415.56	240.68
415.94	241.27
416.31	242.01
416.68	242.75
417.06	243.59
417.43	244.33
417.81	245.17
418.18	246.26
418.55	247.29
418.93	248.15
419.30	249.16
419.67	250.18
420.04	251.42
420.42	252.59
420.79	254.17
421.16	255.57
421.54	257.10
421.91	258.54
422.28	260.02
422.66	261.60
423.03	263.19
423.40	264.79
423.77	266.41
424.15	268.09
424.52	269.78
424.89	271.79
425.26	273.66
425.64	275.34
426.01	277.17
426.38	279.01
426.75	281.12
427.13	283.31
427.50	285.59
427.87	287.79
428.24	289.95
428.61	291.92
428.99	294.27
429.36	296.67
429.73	299.19
430.10	301.64
430.47	304.02
430.85	306.54
431.22	309.22
431.59	312.32
431.96	315.05
432.33	318.04
432.70	320.77
433.08	324.11
433.45	327.21
433.82	330.43
434.19	334.00
434.56	337.27
434.93	340.54
435.30	343.61
435.68	347.01
436.05	350.32
436.42	353.79
436.79	356.79
437.16	359.99
437.53	363.33
437.90	366.68
438.27	370.07
438.64	373.40
439.01	376.51
439.38	378.93
439.75	381.54
440.13	384.50
440.50	387.27
440.87	389.51
441.24	391.74
441.61	394.24
441.98	395.96
442.35	398.18
442.72	400.34
443.09	402.57
443.46	403.80
443.83	404.59
444.20	405.05
444.57	406.09
444.94	406.44
445.31	406.78
445.68	407.42
446.05	407.42
446.42	406.81
446.79	406.28
447.16	405.80
447.53	405.23
447.90	403.82
448.27	402.37
448.64	400.34
449.01	399.13
449.37	396.78
449.74	394.49
450.11	391.89
450.48	388.79
450.85	385.58
451.22	382.92
451.59	380.43
451.96	377.95
452.33	374.78
452.70	371.85
453.07	368.40
453.43	364.65
453.80	361.24
454.17	358.14
454.54	354.96
454.91	351.60
455.28	348.47
455.65	345.54
456.02	342.93
456.38	340.46
456.75	337.33
457.12	334.62
457.49	331.94
457.86	329.27
458.23	327.13
458.59	324.69
458.96	322.13
459.33	319.84
459.70	317.66
460.07	315.80
460.43	313.77
460.80	311.91
461.17	310.31
461.54	308.69
461.91	306.92
462.27	305.27
462.64	303.70
463.01	302.11
463.38	300.41
463.74	298.47
464.11	296.96
464.48	295.63
464.85	294.19
465.21	293.24
465.58	292.00
465.95	290.60
466.32	289.48
466.68	288.46
467.05	287.40
467.42	286.40
467.78	285.36
468.15	284.30
468.52	283.47
468.88	282.22
469.25	281.10
469.62	280.30
469.98	279.40
470.35	278.57
470.72	277.74
471.08	276.90
471.45	276.16
471.82	275.49
472.18	274.61
472.55	273.98
472.92	273.14
473.28	272.41
473.65	271.67
474.02	271.07
474.38	270.38
474.75	269.85
475.11	269.23
475.48	268.70
475.85	268.29
476.21	267.79
476.58	267.40
476.94	267.09
477.31	266.63
477.67	266.37
478.04	266.13
478.41	265.85
478.77	265.77
479.14	265.55
479.50	265.39
479.87	265.35
480.23	265.28
480.60	265.11
480.96	265.08
481.33	265.12
481.69	265.10
482.06	265.14
482.42	265.17
482.79	265.30
483.15	265.36
483.52	265.53
483.88	265.61
484.25	265.75
484.61	265.90
484.98	266.31
485.34	266.58
485.71	266.87
486.07	267.34
486.44	267.59
486.80	268.00
487.17	268.42
487.53	269.04
487.90	269.67
488.26	270.39
488.62	271.05
488.99	271.81
489.35	272.59
489.72	273.40
490.08	274.33
490.44	275.17
490.81	276.25
491.17	277.22
491.54	278.50
491.90	279.86
492.26	281.23
492.63	282.47
492.99	283.92
493.36	285.46
493.72	287.04
494.08	288.78
494.45	290.71
494.81	292.74
495.17	294.62
495.54	296.65
495.90	298.86
496.26	301.35
496.63	303.83
496.99	306.63
497.35	309.48
497.72	312.38
498.08	315.48
498.44	318.69
498.80	322.18
499.17	325.70
499.53	329.27
499.89	333.20
500.26	337.19
500.62	341.27
500.98	345.69
501.34	350.20
501.71	354.91
502.07	359.61
502.43	364.69
502.79	370.02
503.16	375.63
503.52	381.30
503.88	387.06
504.24	393.20
504.60	399.40
504.97	406.04
505.33	412.99
505.69	420.27
506.05	427.48
506.41	434.82
506.78	442.44
507.14	450.29
507.50	458.43
507.86	467.01
508.22	475.85
508.59	484.83
508.95	494.01
509.31	503.61
509.67	513.57
510.03	523.54
510.39	533.98
510.75	544.47
511.12	555.33
511.48	566.57
511.84	577.93
512.20	589.38
512.56	601.31
512.92	613.31
513.28	625.58
513.64	638.20
514.00	651.05
514.37	664.04
514.73	677.33
515.09	690.89
515.45	704.74
515.81	718.60
516.17	732.89
516.53	747.71
516.89	762.34
517.25	777.20
517.61	792.15
517.97	807.00
518.33	822.14
518.69	837.59
519.05	853.19
519.41	868.92
519.77	885.32
520.13	901.74
520.49	918.15
520.85	934.70
521.21	951.49
521.57	968.74
521.93	985.65
522.29	1003.40
522.65	1020.69
523.01	1038.09
523.37	1055.53
523.73	1073.01
524.09	1090.22
524.45	1108.30
524.81	1126.64
525.17	1145.04
525.53	1163.57
525.89	1182.22
526.25	1201.02
526.61	1219.29
526.97	1238.33
527.33	1257.06
527.68	1275.76
528.04	1294.57
528.40	1313.86
528.76	1333.50
529.12	1352.84
529.48	1372.49
529.84	1390.99
530.20	1410.34
530.56	1430.31
530.91	1450.39
531.27	1470.02
531.63	1489.66
531.99	1508.91
532.35	1527.60
532.71	1546.31
533.07	1565.82
533.42	1584.95
533.78	1604.20
534.14	1623.50
534.50	1641.82
534.86	1660.50
535.21	1678.94
535.57	1698.03
535.93	1716.41
536.29	1734.00
536.65	1751.86
537.00	1769.48
537.36	1787.88
537.72	1805.55
538.08	1822.08
538.44	1838.89
538.79	1856.44
539.15	1872.91
539.51	1889.84
539.87	1907.40
540.22	1924.40
540.58	1941.26
540.94	1957.44
541.29	1973.61
541.65	1989.49
542.01	2005.98
542.37	2022.17
542.72	2037.64
543.08	2052.91
543.44	2067.92
543.79	2082.17
544.15	2097.23
544.51	2112.48
544.87	2127.17
545.22	2141.43
545.58	2156.13
545.94	2169.24
546.29	2182.08
546.65	2195.27
547.01	2207.97
547.36	2220.19
547.72	2232.40
548.07	2244.25
548.43	2256.06
548.79	2266.86
549.14	2277.80
549.50	2287.98
549.86	2298.14
550.21	2308.59
550.57	2319.21
550.92	2329.56
551.28	2340.04
551.64	2349.49
551.99	2359.09
552.35	2368.07
552.70	2377.16
553.06	2386.03
553.41	2395.94
553.77	2405.29
554.13	2414.71
554.48	2422.49
554.84	2430.99
555.19	2439.31
555.55	2447.10
555.90	2455.05
556.26	2463.17
556.61	2471.21
556.97	2478.66
557.32	2485.70
557.68	2493.07
558.03	2499.50
558.39	2506.15
558.74	2513.59
559.10	2519.90
559.45	2525.84
559.81	2532.76
560.16	2538.86
560.52	2544.08
560.87	2549.68
561.23	2554.19
561.58	2559.13
561.94	2565.01
562.29	2568.90
562.64	2573.08
563.00	2577.30
563.35	2582.65
563.71	2587.77
564.06	2592.46
564.42	2597.05
564.77	2601.84
565.12	2605.92
565.48	2609.63
565.83	2613.18
566.19	2616.13
566.54	2618.76
566.89	2621.61
567.25	2623.49
567.60	2626.34
567.96	2629.04
568.31	2630.36
568.66	2632.17
569.02	2634.22
569.37	2635.71
569.72	2637.90
570.08	2639.45
570.43	2640.82
570.78	2640.72
571.14	2639.86
571.49	2639.52
571.84	2640.65
572.20	2639.66
572.55	2638.89
572.90	2637.87
573.26	2636.83
573.61	2636.04
573.96	2635.33
574.31	2632.76
574.67	2629.98
575.02	2627.23
575.37	2624.68
575.72	2622.10
576.08	2620.14
576.43	2616.57
576.78	2613.91
577.13	2610.93
577.49	2607.89
577.84	2604.32
578.19	2600.81
578.54	2597.69
578.90	2593.48
579.25	2587.79
579.60	2583.57
579.95	2578.73
580.30	2573.85
580.66	2568.30
581.01	2562.58
581.36	2557.52
581.71	2553.44
582.06	2549.57
582.42	2543.93
582.77	2538.64
583.12	2532.97
583.47	2527.69
583.82	2522.93
584.17	2516.76
584.53	2511.19
584.88	2505.60
585.23	2499.85
585.58	2494.38
585.93	2488.79
586.28	2483.77
586.63	2478.91
586.98	2473.57
587.34	2467.98
587.69	2462.13
588.04	2456.75
588.39	2451.49
588.74	2443.80
589.09	2437.05
589.44	2429.45
589.79	2423.95
590.14	2418.30
590.49	2412.35
590.84	2405.18
591.19	2398.55
591.54	2391.02
591.89	2382.34
592.25	2374.68
592.60	2366.36
592.95	2357.97
593.30	2349.72
593.65	2341.62
594.00	2333.18
594.35	2325.41
594.70	2316.78
595.05	2309.70
595.40	2301.09
595.75	2292.10
596.10	2285.52
596.45	2278.00
596.80	2271.24
597.15	2263.30
597.50	2254.70
597.85	2246.94
598.19	2239.66
598.54	2232.21
598.89	2225.06
599.24	2219.13
599.59	2211.82
599.94	2205.45
600.29	2198.28
600.64	2190.71
600.99	2182.21
601.34	2174.90
601.69	2166.26
602.04	2159.31
602.39	2151.22
602.74	2144.19
603.08	2136.85
603.43	2129.30
603.78	2121.40
604.13	2113.40
604.48	2105.00
604.83	2097.16
605.18	2089.77
605.53	2080.72
605.87	2071.14
606.22	2063.13
606.57	2054.14
606.92	2046.13
607.27	2037.55
607.62	2029.65
607.96	2021.41
608.31	2013.54
608.66	2004.69
609.01	1996.12
609.36	1986.29
609.70	1976.36
610.05	1966.70
610.40	1957.87
610.75	1948.23
611.10	1938.60
611.44	1928.20
611.79	1919.23
612.14	1909.62
612.49	1898.70
612.83	1889.37
613.18	1880.34
613.53	1870.76
613.88	1860.83
614.22	1850.84
614.57	1840.34
614.92	1830.51
615.27	1821.39
615.61	1812.05
615.96	1802.05
616.31	1793.17
616.65	1785.11
617.00	1776.53
617.35	1767.78
617.70	1758.50
618.04	1749.01
618.39	1739.90
618.74	1731.55
619.08	1721.99
619.43	1713.21
619.78	1705.08
620.12	1696.17
620.47	1687.20
620.82	1677.71
621.16	1668.95
621.51	1660.13
621.85	1651.42
622.20	1641.45
622.55	1632.32
622.89	1623.52
623.24	1615.18
623.59	1606.40
623.93	1597.59
624.28	1588.87
624.62	1579.79
624.97	1570.87
625.32	1562.60
625.66	1554.20
626.01	1545.39
626.35	1536.95
626.70	1528.00
627.04	1519.79
627.39	1511.06
627.73	1501.98
628.08	1493.85
628.43	1485.06
628.77	1476.30
629.12	1467.40
629.46	1459.12
629.81	1449.90
630.15	1440.46
630.50	1431.35
630.84	1421.66
631.19	1412.26
631.53	1403.29
631.88	1394.28
632.22	1385.16
632.57	1376.40
632.91	1367.42
633.26	1358.53
633.60	1349.37
633.95	1340.51
634.29	1331.20
634.64	1323.12
634.98	1314.45
635.32	1306.27
635.67	1298.60
636.01	1290.49
636.36	1282.48
636.70	1274.82
637.05	1267.07
637.39	1259.68
637.73	1252.06
638.08	1245.31
638.42	1237.92
638.77	1230.34
639.11	1222.44
639.45	1214.86
639.80	1207.29
640.14	1199.73
640.49	1192.40
640.83	1184.63
641.17	1177.23
641.52	1169.88
641.86	1161.70
642.20	1154.90
642.55	1146.97
642.89	1139.42
643.23	1131.68
643.58	1124.60
643.92	1116.80
644.26	1109.26
644.61	1101.81
644.95	1094.40
645.29	1086.02
645.64	1078.28
645.98	1070.84
646.32	1064.11
646.66	1056.53
647.01	1048.87
647.35	1041.75
647.69	1034.23
648.04	1027.88
648.38	1020.62
648.72	1013.04
649.06	1005.83
649.41	998.46
649.75	991.16
650.09	983.63
650.43	976.38
650.78	968.80
651.12	961.76
651.46	954.85
651.80	947.86
652.14	941.01
652.49	934.40
652.83	927.58
653.17	920.27
653.51	913.36
653.85	906.80
654.20	900.01
654.54	892.81
654.88	886.12
655.22	878.88
655.56	871.98
655.90	865.62
656.25	859.32
656.59	852.57
656.93	846.50
657.27	839.99
657.61	833.32
657.95	827.50
658.29	821.31
658.64	815.01
658.98	808.64
659.32	802.11
659.66	796.03
660.00	789.92
660.34	784.05
660.68	778.04
661.02	771.81
661.36	766.15
661.70	760.86
662.05	755.40
662.39	750.23
662.73	745.05
663.07	739.63
663.41	734.63
663.75	729.50
664.09	723.96
664.43	719.06
664.77	714.17
665.11	709.09
665.45	703.96
665.79	698.90
666.13	693.99
666.47	689.31
666.81	684.29
667.15	679.27
667.49	674.58
667.83	670.05
668.17	665.35
668.51	660.55
668.85	655.62
669.19	651.24
669.53	646.58
669.87	641.87
670.21	637.39
670.55	632.77
670.89	628.69
671.23	624.57
671.57	620.19
671.91	616.22
672.25	611.78
672.58	607.83
672.92	603.76
673.26	600.01
673.60	595.90
673.94	592.17
674.28	588.70
674.62	585.34
674.96	581.37
675.30	578.11
675.64	574.34
675.97	570.91
676.31	567.16
676.65	563.50
676.99	560.28
677.33	556.78
677.67	553.06
678.01	549.14
678.34	545.61
678.68	542.28
679.02	538.73
679.36	535.64
679.70	532.35
680.04	529.01
680.37	525.41
680.71	522.29
681.05	519.30
681.39	516.01
681.73	512.72
682.06	509.71
682.40	506.79
682.74	504.04
683.08	501.10
683.42	498.09
683.75	495.06
684.09	491.87
684.43	489.00
684.77	486.30
685.10	483.63
685.44	480.77
685.78	477.92
686.12	475.05
686.45	472.00
686.79	469.17
687.13	466.42
687.46	463.71
687.80	461.10
688.14	458.37
688.48	455.80
688.81	452.90
689.15	450.36
689.49	447.51
689.82	444.85
690.16	442.34
690.50	440.01
690.83	437.70
691.17	435.01
691.51	432.67
691.84	430.36
692.18	428.02
692.52	425.70
692.85	423.24
693.19	421.03
693.52	418.92
693.86	416.49
694.20	414.38
694.53	412.23
694.87	409.96
695.21	407.66
695.54	405.39
695.88	403.32
696.21	401.14
696.55	399.11
696.88	397.16
697.22	395.01
697.56	392.90
697.89	390.90
698.23	389.20
698.56	387.24
698.90	385.09
699.23	383.14
699.57	381.15
699.90	379.37
700.24	377.50
700.58	375.48
700.91	373.79
701.25	372.17
701.58	370.64
701.92	368.94
702.25	367.35
702.59	365.80
702.92	364.28
703.26	362.70
703.59	361.12
703.93	359.66
704.26	358.10
704.60	356.51
704.93	354.91
705.26	353.32
705.60	351.88
705.93	350.45
706.27	349.14
706.60	347.88
706.94	346.48
707.27	345.09
707.61	343.86
707.94	342.62
708.27	341.06
708.61	339.49
708.94	338.24
709.28	336.95
709.61	335.81
709.94	334.54
710.28	333.19
710.61	331.98
710.95	330.58
711.28	329.32
711.61	328.09
711.95	326.91
712.28	325.75
712.61	324.55
712.95	323.56
713.28	322.46
713.61	321.26
713.95	320.21
714.28	319.15
714.61	318.14
714.95	316.99
715.28	315.92
715.61	314.99
715.95	313.86
716.28	312.73
716.61	311.53
716.95	310.49
717.28	309.60
717.61	308.60
717.94	307.68
718.28	306.74
718.61	305.84
718.94	304.92
719.27	304.01
719.61	303.17
719.94	302.03
720.27	301.04
720.60	300.17
720.94	299.25
721.27	298.42
721.60	297.61
721.93	296.88
722.27	296.16
722.60	295.26
722.93	294.60
723.26	293.89
723.59	293.05
723.93	292.30
724.26	291.54
724.59	290.73
724.92	289.97
725.25	289.28
725.59	288.62
725.92	287.95
726.25	287.19
726.58	286.47
726.91	286.00
727.24	285.37
727.57	284.72
727.91	284.11
728.24	283.40
728.57	282.71
728.90	281.91
729.23	281.15
729.56	280.64
729.89	279.94
730.22	279.21
730.55	278.74
730.89	278.18
731.22	277.59
731.55	277.07
731.88	276.50
732.21	276.06
732.54	275.42
732.87	274.88
733.20	274.44
733.53	273.93
733.86	273.38
734.19	272.82
734.52	272.31
734.85	271.80
735.18	271.31
735.51	270.81
735.84	270.52
736.17	270.16
736.50	269.69
736.83	269.44
737.16	269.11
737.49	268.67
737.82	268.10
738.15	267.73
738.48	267.22
738.81	266.80
739.14	266.22
739.47	265.88
739.80	265.48
740.13	265.07
740.46	264.56
740.79	264.15
741.12	263.81
741.45	263.45
741.78	263.12
742.11	262.81
742.44	262.45
742.77	262.00
743.10	261.62
743.43	261.22
743.75	260.65
744.08	260.53
744.41	260.18
744.74	259.88
745.07	259.51
745.40	259.31
745.73	259.00
746.06	258.78
746.39	258.46
746.71	257.99
747.04	257.64
747.37	257.40
747.70	257.19
748.03	256.89
748.36	256.60
748.68	256.13
749.01	255.66
749.34	255.40
749.67	255.19
750.00	254.87
750.33	254.67
750.65	254.36
750.98	253.81
751.31	253.45
751.64	253.21
751.97	252.95
752.29	252.68
752.62	252.34
752.95	251.99
753.28	251.67
753.60	251.44
753.93	251.28
754.26	250.98
754.59	250.61
754.91	250.35
755.24	250.07
755.57	249.91
755.90	249.80
756.22	249.52
756.55	249.10
756.88	248.80
757.20	248.45
757.53	248.18
757.86	248.02
758.19	247.77
758.51	247.56
758.84	247.20
759.17	246.97
759.49	246.71
759.82	246.52
760.15	246.26
760.47	246.12
760.80	245.76
761.13	245.55
761.45	245.32
761.78	245.08
762.11	244.91
762.43	244.68
762.76	244.38
763.08	244.13
763.41	243.95
763.74	243.72
764.06	243.51
764.39	243.35
764.71	243.01
765.04	242.83
765.37	242.58
765.69	242.42
766.02	242.27
766.34	242.07
766.67	241.86
767.00	241.74
767.32	241.53
767.65	241.62
767.97	241.46
768.30	241.32
768.62	241.14
768.95	240.84
769.27	240.70
769.60	240.61
769.92	240.50
770.25	240.38
770.57	240.18
770.90	240.08
771.22	239.84
771.55	239.85
771.87	239.78
772.20	239.65
772.52	239.73
772.85	239.69
773.17	239.71
773.50	239.59
773.82	239.47
774.15	239.35
774.47	239.00
774.80	238.80
775.12	238.75
775.45	238.60
775.77	238.57
776.09	238.44
776.42	238.36
776.74	238.27
777.07	238.15
777.39	238.06
777.72	237.90
778.04	237.97
778.36	237.82
778.69	237.71
779.01	237.62
779.33	237.42
779.66	237.20
779.98	236.93
780.31	236.90
780.63	236.84
780.95	236.81
781.28	236.80
781.60	236.76
781.92	236.63
782.25	236.60
782.57	236.45
782.89	236.38
783.22	236.29
783.54	236.15
783.86	236.06
784.19	236.11
784.51	236.10
784.83	236.00
785.16	235.86
785.48	235.79
785.80	235.82
786.12	235.73
786.45	235.63
786.77	235.70
787.09	235.60
787.42	235.58
787.74	235.50
788.06	235.47
788.38	235.49
788.71	235.32
789.03	235.25
789.35	235.25
789.67	235.16
789.99	235.04
790.32	235.04
790.64	235.00
790.96	235.08
791.28	234.99
791.61	234.84
791.93	234.77
792.25	234.68
792.57	234.75
792.89	234.62
793.21	234.59
793.54	234.47
793.86	234.33
794.18	234.26
794.50	234.11
794.82	233.98
795.14	233.90
795.47	234.08
795.79	234.04
796.11	233.97
796.43	233.97
796.75	233.93
797.07	233.90
797.39	233.93
797.71	233.79
798.04	233.71
798.36	233.69
798.68	233.63
799.00	233.54
799.32	233.40
799.64	233.48
799.96	233.36
800.28	233.34
800.60	233.32
800.92	233.17
801.24	233.13
801.56	233.09
801.89	233.00
802.21	232.81
802.53	232.76
802.85	232.78
803.17	232.78
803.49	232.80
803.81	232.73
804.13	232.67
804.45	232.55
804.77	232.55
805.09	232.50
805.41	232.45
805.73	232.49
806.05	232.30
806.37	232.13
806.69	232.07
807.01	231.97
807.33	231.94
807.65	231.78
807.97	231.86
808.28	231.78
808.60	231.74
808.92	231.64
809.24	231.70
809.56	231.60
809.88	231.46
810.20	231.27
810.52	231.22
810.84	231.18
811.16	231.16
811.48	231.02
811.80	231.14
812.12	231.06
812.43	231.09
812.75	230.97
813.07	230.83
813.39	230.88
813.71	230.88
814.03	230.85
814.35	230.93
814.67	230.80
814.98	230.70
815.30	230.69
815.62	230.60
815.94	230.44
816.26	230.46
816.58	230.43
816.89	230.52
817.21	230.48
817.53	230.39
817.85	230.30
818.17	230.33
818.48	230.16
818.80	230.26
819.12	230.11
819.44	230.19
819.76	230.26
820.07	230.23
820.39	230.13
820.71	230.09
821.03	230.03
821.34	230.05
821.66	230.08
821.98	230.02
822.30	230.06
822.61	230.23
822.93	230.09
823.25	230.04
823.57	229.96
823.88	229.96
824.20	229.95
824.52	230.08
824.83	230.15
825.15	230.09
825.47	229.95
825.79	230.01
826.10	230.03
826.42	230.02
826.74	229.98
827.05	230.08
827.37	230.08
827.69	230.11
828.00	230.08
828.32	230.19
828.64	230.15
828.95	230.26
829.27	230.20
829.58	230.25
829.90	230.25
830.22	230.32
830.53	230.30
830.85	230.26
831.17	230.13
831.48	230.09
831.80	230.13
832.11	230.27
832.43	230.18
832.75	230.15
833.06	230.24
833.38	230.19
833.69	230.08
834.01	230.04
834.32	230.00
834.64	230.02
834.96	230.03
835.27	230.06
835.59	230.06
835.90	229.88
836.22	229.89
836.53	229.92
836.85	229.81
837.16	230.03
837.48	230.02
837.79	230.18
838.11	230.07
838.42	230.12
838.74	230.01
839.05	230.01
839.37	229.99
839.68	229.88
840.00	229.90
840.31	229.94
840.63	229.88
840.94	229.96
841.26	229.83
841.57	229.77
841.88	229.76
842.20	229.64
842.51	229.64
842.83	229.65
843.14	229.77
843.46	229.91
843.77	229.78
844.08	229.85
844.40	229.63
844.71	229.74
845.03	229.62
845.34	229.63
845.65	229.51
845.97	229.53
846.28	229.50
846.60	229.55
846.91	229.54
847.22	229.54
847.54	229.47
847.85	229.53
848.16	229.45
848.48	229.44
848.79	229.51
849.10	229.57
849.42	229.51
849.73	229.40
850.04	229.21
850.36	229.05
850.67	229.04
850.98	229.08
851.30	229.02
851.61	228.96
851.92	228.96
852.23	229.06
852.55	228.99
852.86	229.07
853.17	229.00
853.49	229.07
853.80	229.12
854.11	229.16
854.42	229.23
854.74	229.27
855.05	229.28
855.36	229.16
855.67	229.15
855.99	229.16
856.30	229.44
856.61	229.52
856.92	229.65
857.23	229.53
857.55	229.56
857.86	229.54
858.17	229.76
858.48	229.77
858.79	229.73
859.11	229.78
859.42	229.70
859.73	229.61
860.04	229.61
860.35	229.63
860.66	229.53
860.98	229.50
861.29	229.47
861.60	229.38
861.91	229.50
862.22	229.50
862.53	229.37
862.84	229.11
863.16	229.08
863.47	229.01
863.78	229.00
864.09	228.99
864.40	228.99
864.71	228.92
865.02	228.87
865.33	228.84
865.64	228.85
865.95	228.85
866.27	229.10
866.58	228.94
866.89	228.91
867.20	228.94
867.51	228.88
867.82	228.90
868.13	228.93
868.44	228.79
868.75	228.75
869.06	228.89
869.37	228.83
869.68	228.81
869.99	228.78
870.30	228.90
870.61	228.88
870.92	228.88
871.23	228.88
871.54	228.98
871.85	229.03
872.16	228.98
872.47	228.98
872.78	228.90
873.09	228.99
873.40	229.00
873.71	229.03
874.02	228.97
874.33	228.95
874.64	228.95
874.95	228.99
875.26	229.00
875.56	228.94
875.87	228.93
876.18	228.95
876.49	229.24
876.80	229.23
877.11	229.19
877.42	229.26
877.73	229.22
878.04	229.20
878.35	229.24
878.66	229.27
878.96	229.31
879.27	229.22
879.58	229.21
879.89	229.15
880.20	229.22
880.51	229.30
880.82	229.32
881.12	229.25
881.43	229.26
881.74	229.19
882.05	229.08
882.36	229.10
882.67	229.13
882.97	228.78
883.28	228.65
883.59	228.73
883.90	228.65
884.21	228.70
884.51	228.56
884.82	228.55
885.13	228.61
885.44	228.60
885.74	228.67
886.05	228.71
886.36	228.80
886.67	228.80
886.98	228.94
887.28	228.91
887.59	229.00
887.90	229.06
888.20	229.20
888.51	229.37
888.82	229.29
889.13	229.29
889.43	229.51
889.74	229.55
890.05	229.43
890.35	229.45
890.66	229.36
890.97	229.33
891.28	229.34
891.58	229.30
891.89	229.15
892.20	229.07
892.50	228.98
892.81	228.91
893.12	228.89
893.42	228.78
893.73	228.79
894.04	228.80
894.34	228.77
894.65	228.70
894.95	228.67
895.26	228.69
895.57	228.80
895.87	228.60
896.18	228.67
896.48	228.73
896.79	228.71
897.10	228.80
897.40	228.87
897.71	228.83
898.01	228.88
898.32	228.97
898.63	229.00
898.93	229.06
899.24	229.10
899.54	228.97
899.85	228.95
900.15	228.93
900.46	228.99
900.76	229.00
901.07	228.95
901.38	229.06
901.68	229.12
901.99	229.01
902.29	228.99
902.60	229.02
902.90	229.03
903.21	229.01
903.51	228.95
903.82	229.00
904.12	229.09
904.43	229.02
904.73	229.01
905.03	229.00
905.34	229.02
905.64	228.97
905.95	228.99
906.25	228.90
906.56	228.83
906.86	228.81
907.17	228.78
907.47	228.76
907.77	228.70
908.08	228.67
908.38	228.71
908.69	228.76
908.99	228.70
909.30	228.71
909.60	228.73
909.90	228.71
910.21	228.62
910.51	228.53
910.81	228.63
911.12	228.62
911.42	228.62
911.73	228.61
912.03	228.62
912.33	228.64
912.64	228.57
912.94	228.59
913.24	228.54
913.55	228.48
913.85	228.54
914.15	228.45
914.46	228.50
914.76	228.45
915.06	228.52
915.37	228.47
915.67	228.47
915.97	228.49
916.27	228.52
916.58	228.58
916.88	228.58
917.18	228.46
917.49	228.63
917.79	228.61
918.09	228.56
918.39	228.66
918.70	228.73
919.00	228.82
919.30	228.88
919.60	228.92
919.91	228.97
920.21	229.06
920.51	229.07
920.81	229.08
921.12	229.08
921.42	229.07
921.72	229.10
922.02	229.13
922.32	229.18
922.63	229.16
922.93	229.22
923.23	229.19
923.53	229.16
923.83	229.06
924.13	229.10
924.44	229.16
924.74	229.14
925.04	229.18
925.34	229.27
925.64	229.30
925.94	229.26
926.24	229.36
926.55	229.26
926.85	229.24
927.15	229.19
927.45	229.22
927.75	229.16
928.05	229.24
928.35	229.15
928.65	229.02
928.95	228.97
929.26	228.94
929.56	229.02
929.86	229.11
930.16	229.05
930.46	229.07
930.76	229.04
931.06	229.02
931.36	228.98
931.66	228.90
931.96	228.92
932.26	228.93
932.56	228.86
932.86	228.84
933.16	228.83
933.46	228.83
933.76	228.77
934.06	228.79
934.36	228.80
934.66	228.84
934.96	228.93
935.26	228.95
935.56	228.95
935.86	228.92
936.16	228.75
936.46	228.65
936.76	228.54
937.06	228.45
937.36	228.42
937.66	228.39
937.96	228.36
938.26	228.30
938.56	228.32
938.86	228.23
939.16	228.33
939.46	228.27
939.76	228.11
940.06	228.10
940.35	228.04
940.65	227.90
940.95	227.90
941.25	227.90
941.55	227.99
941.85	227.95
942.15	227.95
942.45	228.16
942.75	228.19
943.04	228.30
943.34	228.41
943.64	228.29
943.94	228.23
944.24	228.26
944.54	228.27
944.84	228.20
945.13	228.18
945.43	228.10
945.73	228.12
946.03	228.27
946.33	228.26
946.62	228.25
946.92	228.28
947.22	228.21
947.52	228.12
947.82	228.07
948.11	228.01
948.41	227.80
948.71	227.73
949.01	227.77
949.31	227.67
949.60	227.69
949.90	227.79
950.20	227.70
950.50	227.70
950.79	227.72
951.09	227.77
951.39	227.86
951.69	227.82
951.98	227.95
952.28	227.95
952.58	228.00
952.87	228.02
953.17	228.03
953.47	228.03
953.76	228.05
954.06	228.03
954.36	228.03
954.66	228.16
954.95	228.14
955.25	228.10
955.55	228.15
955.84	228.02
956.14	228.07
956.44	228.19
956.73	228.11
957.03	228.01
957.32	227.99
957.62	227.97
957.92	227.98
958.21	227.98
958.51	228.09
958.81	228.06
959.10	228.10
959.40	228.12
959.69	228.20
959.99	228.17
960.29	228.20
960.58	228.26
960.88	228.32
961.17	228.31
961.47	228.43
961.76	228.49
962.06	228.42
962.36	228.33
962.65	228.38
962.95	228.57
963.24	228.59
963.54	228.61
963.83	228.60
964.13	228.62
964.42	228.50
964.72	228.37
965.01	228.44
965.31	228.40
965.60	228.45
965.90	228.61
966.19	228.66
966.49	228.66
966.78	228.65
967.08	228.73
967.37	228.81
967.67	228.78
967.96	228.76
968.26	228.81
968.55	228.88
968.85	228.85
969.14	228.76
969.43	228.81
969.73	228.76
970.02	228.76
970.32	228.87
970.61	228.90
970.91	228.91
971.20	228.82
971.49	228.90
971.79	228.80
972.08	228.65
972.38	228.73
972.67	228.70
972.96	228.77
973.26	228.61
973.55	228.68
973.85	228.70
974.14	228.63
974.43	228.75
974.73	228.70
975.02	228.77
975.31	228.74
975.61	228.69
975.90	228.73
976.19	228.73
976.49	228.66
976.78	228.71
977.07	228.66
977.37	228.64
977.66	228.62
977.95	228.68
978.24	228.67
978.54	228.60
978.83	228.59
979.12	228.59
979.42	228.62
979.71	228.56
980.00	228.55
980.29	228.59
980.59	228.57
980.88	228.70
981.17	228.55
981.46	228.57
981.76	228.63
982.05	228.75
982.34	228.82
982.63	228.85
982.93	228.75
983.22	228.77
983.51	228.82
983.80	228.83
984.09	228.83
984.39	228.74
984.68	228.78
984.97	228.71
985.26	228.57
985.55	228.61
985.85	228.53
986.14	228.48
986.43	228.49
986.72	228.47
987.01	228.41
987.30	228.45
987.59	228.35
987.89	228.26
988.18	228.15
988.47	228.10
988.76	228.07
989.05	228.25
989.34	228.25
989.63	228.29
989.92	228.21
990.22	228.10
990.51	228.20
990.80	228.13
991.09	228.21
991.38	228.21
991.67	228.01
991.96	228.06
992.25	228.02
992.54	228.03
992.83	228.02
993.12	227.85
993.41	227.96
993.70	228.08
993.99	228.14
994.28	228.08
994.58	228.00
994.87	227.99
995.16	227.87
995.45	227.86
995.74	227.80
996.03	227.80
996.32	227.88
996.61	227.86
996.90	227.89
997.19	227.81
997.48	227.94
997.77	228.05
998.06	227.98
998.34	228.00
998.63	227.96
998.92	227.82
999.21	227.88
999.50	227.76
999.79	227.67
1000.08	227.73
1000.37	227.68
1000.66	227.65
1000.95	227.69
1001.24	227.61
1001.53	227.65
1001.82	227.66
1002.11	227.59
1002.40	227.67
1002.68	227.80
1002.97	227.90
1003.26	228.02
1003.55	227.91
1003.84	227.94
1004.13	228.01
1004.42	228.00
1004.71	228.09
1004.99	228.16
1005.28	228.24
1005.57	228.26
1005.86	228.33
1006.15	228.22
1006.44	228.28
1006.72	228.32
1007.01	228.26
1007.30	228.35
1007.59	228.32
1007.88	228.37
1008.17	228.50
1008.45	228.43
1008.74	228.26
1009.03	228.24
1009.32	228.25
1009.60	228.34
1009.89	228.35
1010.18	228.26
1010.47	228.33
1010.76	228.32
1011.04	228.39
1011.33	228.47
1011.62	228.52
1011.91	228.47
1012.19	228.51
1012.48	228.57
1012.77	228.60
1013.05	228.68
1013.34	228.68
1013.63	228.75
1013.92	228.79
1014.20	228.79
1014.49	228.77
1014.78	228.84
1015.06	228.77
1015.35	228.72
1015.64	228.65
1015.92	228.62
1016.21	228.77
1016.50	228.75
1016.78	228.74
1017.07	228.83
1017.36	228.75
1017.64	228.67
1017.93	228.66
1018.22	228.66
1018.50	228.63
1018.79	228.74
1019.08	228.64
1019.36	228.57
1019.65	228.49
1019.93	228.40
1020.22	228.38
1020.51	228.43
1020.79	228.34
1021.08	228.10
1021.36	228.00
1021.65	229.70
1021.94	227.90
1022.22	226.80
1022.51	228.10
1022.79	228.10
1023.08	228.00
1023.36	229.80
1023.65	227.10
>>>>>End Processed Spectral Data<<<<<
