SpectraSuite Data File
++++++++++++++++++++++++++++++++++++
Date: Fri Feb 01 14:38:12 EST 2013
User: group
Dark Spectrum Present: No
Reference Spectrum Present: No
Number of Sampled Component Spectra: 1
Spectrometers: USB2E7196
Integration Time (usec): 70000 (USB2E7196)
Spectra Averaged: 10 (USB2E7196)
Boxcar Smoothing: 10 (USB2E7196)
Correct for Electrical Dark: No (USB2E7196)
Strobe/Lamp Enabled: No (USB2E7196)
Correct for Detector Non-linearity: No (USB2E7196)
Correct for Stray Light: No (USB2E7196)
Number of Pixels in Processed Spectrum: 2048
>>>>>Begin Processed Spectral Data<<<<<
339.09	0.00
339.48	215.90
339.86	217.60
340.24	218.80
340.63	218.50
341.01	223.60
341.39	222.60
341.78	223.80
342.16	225.60
342.54	225.90
342.93	214.09
343.31	224.85
343.69	225.38
344.07	225.78
344.46	226.19
344.84	226.55
345.22	226.74
345.60	227.02
345.99	227.23
346.37	227.30
346.75	227.41
347.13	227.45
347.52	227.47
347.90	227.56
348.28	227.52
348.66	227.47
349.05	227.38
349.43	227.50
349.81	227.61
350.19	227.69
350.57	227.80
350.96	227.90
351.34	228.07
351.72	228.16
352.10	228.16
352.48	228.18
352.87	228.30
353.25	228.33
353.63	228.40
354.01	228.42
354.39	228.54
354.77	228.61
355.15	228.82
355.54	228.93
355.92	229.06
356.30	229.14
356.68	229.44
357.06	229.54
357.44	229.59
357.82	229.67
358.20	229.67
358.58	229.68
358.97	229.77
359.35	229.81
359.73	229.94
360.11	230.01
360.49	230.09
360.87	230.11
361.25	230.28
361.63	230.43
362.01	230.50
362.39	230.51
362.77	230.52
363.15	230.49
363.53	230.50
363.91	230.37
364.29	230.33
364.67	230.11
365.05	230.09
365.43	230.17
365.81	230.16
366.19	230.30
366.57	230.43
366.95	230.42
367.33	230.32
367.71	230.22
368.09	230.43
368.47	230.37
368.85	230.35
369.23	230.28
369.61	230.07
369.99	230.13
370.37	230.13
370.75	230.19
371.13	230.17
371.51	230.17
371.89	230.15
372.27	230.25
372.65	230.22
373.03	230.14
373.41	229.90
373.78	229.70
374.16	229.45
374.54	229.30
374.92	229.25
375.30	229.23
375.68	229.13
376.06	228.99
376.44	228.86
376.82	228.89
377.19	228.75
377.57	228.68
377.95	228.50
378.33	228.41
378.71	228.19
379.09	228.12
379.47	227.98
379.84	227.94
380.22	227.79
380.60	227.68
380.98	227.58
381.36	227.58
381.73	227.65
382.11	227.65
382.49	227.54
382.87	227.31
383.25	227.20
383.62	227.33
384.00	227.19
384.38	227.23
384.76	227.14
385.13	227.18
385.51	227.21
385.89	227.12
386.27	227.05
386.64	226.97
387.02	226.92
387.40	226.78
387.78	226.68
388.15	226.50
388.53	226.34
388.91	226.40
389.29	226.32
389.66	226.31
390.04	226.26
390.42	226.21
390.79	226.29
391.17	226.36
391.55	226.10
391.92	226.09
392.30	226.13
392.68	226.10
393.05	226.10
393.43	225.95
393.81	226.01
394.18	225.98
394.56	226.05
394.94	226.01
395.31	226.10
395.69	226.15
396.06	226.25
396.44	226.43
396.82	226.32
397.19	226.44
397.57	226.40
397.95	226.50
398.32	226.59
398.70	226.57
399.07	226.68
399.45	226.82
399.82	226.91
400.20	226.93
400.58	227.08
400.95	227.08
401.33	227.23
401.70	227.52
402.08	227.71
402.45	227.83
402.83	228.04
403.20	228.23
403.58	228.36
403.95	228.54
404.33	228.74
404.71	229.03
405.08	229.26
405.46	229.47
405.83	229.64
406.21	229.85
406.58	230.09
406.96	230.27
407.33	230.47
407.70	230.61
408.08	231.07
408.45	231.32
408.83	231.67
409.20	232.05
409.58	232.12
409.95	232.45
410.33	232.88
410.70	233.15
411.08	233.51
411.45	234.01
411.82	234.47
412.20	234.93
412.57	235.49
412.95	235.92
413.32	236.46
413.69	236.96
414.07	237.50
414.44	238.14
414.82	238.76
415.19	239.49
415.56	240.38
415.94	241.01
416.31	241.86
416.68	242.60
417.06	243.53
417.43	244.45
417.81	245.44
418.18	246.46
418.55	247.56
418.93	248.65
419.30	249.73
419.67	250.96
420.04	252.13
420.42	253.34
420.79	254.95
421.16	256.52
421.54	258.20
421.91	259.85
422.28	261.55
422.66	263.36
423.03	265.29
423.40	266.97
423.77	268.86
424.15	270.86
424.52	272.95
424.89	275.20
425.26	277.51
425.64	279.55
426.01	281.80
426.38	284.23
426.75	286.70
427.13	289.13
427.50	291.71
427.87	294.65
428.24	297.35
428.61	299.90
428.99	302.83
429.36	305.91
429.73	308.96
430.10	312.04
430.47	315.08
430.85	318.17
431.22	321.49
431.59	325.10
431.96	328.43
432.33	332.20
432.70	335.85
433.08	339.99
433.45	343.89
433.82	347.79
434.19	352.05
434.56	356.42
434.93	360.62
435.30	364.63
435.68	369.03
436.05	373.44
436.42	377.85
436.79	381.79
437.16	385.96
437.53	390.39
437.90	394.98
438.27	399.30
438.64	403.80
439.01	408.17
439.38	411.90
439.75	415.56
440.13	419.70
440.50	423.60
440.87	426.89
441.24	430.34
441.61	434.09
441.98	437.03
442.35	440.21
442.72	443.68
443.09	446.97
443.46	448.90
443.83	450.31
444.20	451.56
444.57	453.37
444.94	454.32
445.31	455.37
445.68	456.38
446.05	457.06
446.42	457.05
446.79	456.80
447.16	456.70
447.53	456.69
447.90	455.34
448.27	454.18
448.64	452.09
449.01	450.92
449.37	448.50
449.74	445.81
450.11	442.66
450.48	439.09
450.85	435.59
451.22	432.68
451.59	429.89
451.96	427.21
452.33	423.30
452.70	420.02
453.07	415.90
453.43	411.53
453.80	407.60
454.17	403.66
454.54	399.94
454.91	395.72
455.28	391.75
455.65	388.09
456.02	384.15
456.38	381.05
456.75	376.93
457.12	373.49
457.49	370.27
457.86	367.07
458.23	364.27
458.59	361.06
458.96	357.84
459.33	354.96
459.70	352.06
460.07	349.90
460.43	347.24
460.80	344.85
461.17	342.65
461.54	340.29
461.91	338.04
462.27	335.93
462.64	334.10
463.01	331.98
463.38	330.01
463.74	327.91
464.11	325.97
464.48	324.36
464.85	322.44
465.21	321.05
465.58	319.54
465.95	317.73
466.32	316.42
466.68	314.87
467.05	313.45
467.42	311.99
467.78	310.37
468.15	308.89
468.52	307.67
468.88	306.22
469.25	304.90
469.62	303.80
469.98	302.50
470.35	301.44
470.72	300.26
471.08	299.04
471.45	298.10
471.82	297.17
472.18	296.12
472.55	295.43
472.92	294.32
473.28	293.42
473.65	292.60
474.02	291.67
474.38	291.00
474.75	290.28
475.11	289.50
475.48	288.94
475.85	288.41
476.21	287.92
476.58	287.56
476.94	287.09
477.31	286.68
477.67	286.19
478.04	285.73
478.41	285.42
478.77	285.27
479.14	284.76
479.50	284.46
479.87	284.18
480.23	283.81
480.60	283.59
480.96	283.37
481.33	283.30
481.69	283.09
482.06	282.89
482.42	282.75
482.79	282.76
483.15	282.67
483.52	282.73
483.88	282.70
484.25	282.52
484.61	282.56
484.98	282.41
485.34	282.60
485.71	282.68
486.07	282.70
486.44	282.67
486.80	282.87
487.17	282.90
487.53	283.09
487.90	283.33
488.26	283.60
488.62	283.78
488.99	283.95
489.35	284.27
489.72	284.54
490.08	284.92
490.44	285.09
490.81	285.43
491.17	285.50
491.54	285.74
491.90	286.15
492.26	286.42
492.63	286.90
492.99	287.19
493.36	287.60
493.72	288.13
494.08	288.40
494.45	288.80
494.81	289.31
495.17	289.67
495.54	289.99
495.90	290.33
496.26	290.88
496.63	291.32
496.99	291.66
497.35	292.15
497.72	292.52
498.08	293.00
498.44	293.38
498.80	293.94
499.17	294.39
499.53	294.64
499.89	295.12
500.26	295.49
500.62	295.81
500.98	296.09
501.34	296.33
501.71	296.80
502.07	297.14
502.43	297.44
502.79	297.70
503.16	297.90
503.52	298.31
503.88	298.49
504.24	298.71
504.60	298.98
504.97	299.26
505.33	299.53
505.69	299.90
506.05	300.12
506.41	300.29
506.78	300.42
507.14	300.72
507.50	300.92
507.86	301.06
508.22	301.37
508.59	301.54
508.95	301.74
509.31	302.08
509.67	302.31
510.03	302.50
510.39	302.88
510.75	303.33
511.12	303.50
511.48	303.70
511.84	303.89
512.20	304.29
512.56	304.59
512.92	304.95
513.28	305.26
513.64	305.80
514.00	306.18
514.37	306.75
514.73	307.30
515.09	307.85
515.45	308.40
515.81	308.89
516.17	309.57
516.53	310.37
516.89	310.91
517.25	311.64
517.61	312.59
517.97	313.35
518.33	314.32
518.69	315.30
519.05	316.44
519.41	317.62
519.77	318.78
520.13	320.00
520.49	321.27
520.85	322.56
521.21	323.86
521.57	325.39
521.93	326.90
522.29	328.46
522.65	330.11
523.01	331.96
523.37	333.83
523.73	335.62
524.09	337.51
524.45	339.64
524.81	341.94
525.17	344.08
525.53	346.50
525.89	348.95
526.25	351.50
526.61	354.02
526.97	356.58
527.33	359.32
527.68	362.27
528.04	365.12
528.40	368.12
528.76	371.33
529.12	374.45
529.48	377.65
529.84	380.88
530.20	384.32
530.56	387.80
530.91	391.40
531.27	395.17
531.63	398.91
531.99	402.62
532.35	406.61
532.71	410.46
533.07	414.48
533.42	418.58
533.78	422.80
534.14	427.21
534.50	431.45
534.86	435.80
535.21	440.02
535.57	444.56
535.93	449.05
536.29	453.44
536.65	458.24
537.00	463.00
537.36	467.80
537.72	472.69
538.08	477.49
538.44	482.48
538.79	487.64
539.15	492.62
539.51	497.74
539.87	502.67
540.22	507.89
540.58	513.05
540.94	518.20
541.29	523.44
541.65	528.43
542.01	533.88
542.37	539.15
542.72	544.70
543.08	549.96
543.44	555.62
543.79	561.17
544.15	566.71
544.51	572.30
544.87	577.80
545.22	583.20
545.58	588.69
545.94	594.09
546.29	599.56
546.65	605.18
547.01	610.67
547.36	616.46
547.72	621.99
548.07	627.59
548.43	633.01
548.79	638.40
549.14	643.98
549.50	649.39
549.86	654.78
550.21	659.91
550.57	665.52
550.92	670.69
551.28	675.98
551.64	681.23
551.99	686.82
552.35	692.40
552.70	697.79
553.06	703.21
553.41	708.43
553.77	713.60
554.13	718.61
554.48	724.14
554.84	729.18
555.19	734.30
555.55	739.51
555.90	744.60
556.26	749.93
556.61	754.97
556.97	759.97
557.32	765.09
557.68	770.37
558.03	775.48
558.39	780.51
558.74	785.82
559.10	790.94
559.45	795.38
559.81	800.07
560.16	804.73
560.52	809.61
560.87	814.66
561.23	819.33
561.58	824.38
561.94	828.90
562.29	833.39
562.64	837.90
563.00	842.25
563.35	846.69
563.71	851.10
564.06	855.68
564.42	860.29
564.77	864.64
565.12	868.92
565.48	873.20
565.83	877.36
566.19	881.29
566.54	885.06
566.89	888.90
567.25	892.94
567.60	897.17
567.96	901.25
568.31	904.99
568.66	908.70
569.02	912.24
569.37	915.55
569.72	919.05
570.08	922.54
570.43	925.89
570.78	929.15
571.14	931.89
571.49	934.90
571.84	938.05
572.20	940.91
572.55	943.43
572.90	945.69
573.26	948.56
573.61	950.97
573.96	953.50
574.31	955.88
574.67	957.78
575.02	959.47
575.37	961.13
575.72	962.70
576.08	964.62
576.43	966.33
576.78	968.28
577.13	970.07
577.49	971.54
577.84	973.13
578.19	974.69
578.54	976.08
578.90	977.02
579.25	977.66
579.60	978.58
579.95	979.50
580.30	980.35
580.66	980.90
581.01	981.65
581.36	982.35
581.71	982.93
582.06	983.70
582.42	984.15
582.77	984.56
583.12	985.11
583.47	985.57
583.82	986.10
584.17	986.37
584.53	986.51
584.88	986.57
585.23	986.52
585.58	986.42
585.93	986.57
586.28	987.03
586.63	987.28
586.98	987.55
587.34	987.45
587.69	987.52
588.04	987.45
588.39	987.53
588.74	986.76
589.09	986.55
589.44	985.94
589.79	985.87
590.14	985.77
590.49	985.02
590.84	984.34
591.19	983.62
591.54	982.47
591.89	981.17
592.25	980.42
592.60	979.37
592.95	977.97
593.30	976.68
593.65	975.24
594.00	973.97
594.35	972.98
594.70	971.71
595.05	970.69
595.40	969.12
595.75	967.38
596.10	966.60
596.45	965.44
596.80	964.17
597.15	962.84
597.50	961.28
597.85	960.32
598.19	958.91
598.54	957.51
598.89	956.06
599.24	955.09
599.59	953.68
599.94	952.29
600.29	950.90
600.64	949.37
600.99	947.76
601.34	946.22
601.69	944.25
602.04	942.84
602.39	940.93
602.74	939.50
603.08	937.96
603.43	936.08
603.78	934.36
604.13	932.72
604.48	930.89
604.83	929.06
605.18	926.95
605.53	924.78
605.87	922.43
606.22	920.59
606.57	918.28
606.92	916.20
607.27	914.44
607.62	912.78
607.96	911.14
608.31	909.26
608.66	907.01
609.01	904.48
609.36	901.79
609.70	899.00
610.05	896.28
610.40	893.74
610.75	891.15
611.10	888.37
611.44	885.36
611.79	882.61
612.14	879.58
612.49	876.42
612.83	873.59
613.18	870.75
613.53	868.06
613.88	865.04
614.22	862.30
614.57	858.81
614.92	855.72
615.27	852.53
615.61	849.06
615.96	845.82
616.31	843.10
616.65	840.50
617.00	838.02
617.35	835.26
617.70	832.15
618.04	829.10
618.39	826.03
618.74	823.27
619.08	820.14
619.43	817.35
619.78	814.87
620.12	812.23
620.47	809.35
620.82	806.01
621.16	803.30
621.51	800.40
621.85	797.64
622.20	794.66
622.55	791.72
622.89	788.91
623.24	786.38
623.59	783.62
623.93	780.68
624.28	777.65
624.62	774.71
624.97	772.10
625.32	769.40
625.66	766.88
626.01	764.16
626.35	761.32
626.70	758.52
627.04	755.74
627.39	752.41
627.73	749.61
628.08	746.85
628.43	744.03
628.77	741.16
629.12	738.09
629.46	734.94
629.81	731.84
630.15	728.83
630.50	725.70
630.84	722.13
631.19	718.92
631.53	715.97
631.88	712.48
632.22	709.01
632.57	705.69
632.91	702.44
633.26	699.21
633.60	695.82
633.95	692.37
634.29	689.18
634.64	686.38
634.98	683.14
635.32	680.24
635.67	677.25
636.01	674.01
636.36	671.32
636.70	668.79
637.05	665.99
637.39	663.53
637.73	660.75
638.08	658.54
638.42	655.95
638.77	653.02
639.11	650.46
639.45	647.97
639.80	645.30
640.14	642.41
640.49	639.57
640.83	637.06
641.17	634.39
641.52	631.56
641.86	628.84
642.20	626.32
642.55	623.51
642.89	620.71
643.23	617.91
643.58	615.28
643.92	612.44
644.26	609.85
644.61	607.12
644.95	604.35
645.29	601.10
645.64	598.13
645.98	595.27
646.32	592.76
646.66	589.81
647.01	587.15
647.35	584.52
647.69	581.96
648.04	579.30
648.38	576.62
648.72	573.84
649.06	570.83
649.41	568.15
649.75	565.43
650.09	562.57
650.43	559.95
650.78	556.79
651.12	553.97
651.46	551.20
651.80	548.32
652.14	545.61
652.49	543.19
652.83	540.74
653.17	538.02
653.51	535.24
653.85	532.66
654.20	529.94
654.54	527.12
654.88	524.23
655.22	521.32
655.56	518.60
655.90	516.06
656.25	513.65
656.59	511.01
656.93	508.40
657.27	505.92
657.61	503.13
657.95	500.90
658.29	498.30
658.64	495.80
658.98	493.11
659.32	490.37
659.66	487.88
660.00	485.40
660.34	483.04
660.68	480.54
661.02	478.11
661.36	475.84
661.70	473.66
662.05	471.56
662.39	469.61
662.73	467.51
663.07	465.27
663.41	463.21
663.75	460.89
664.09	458.71
664.43	456.52
664.77	454.60
665.11	452.42
665.45	450.57
665.79	448.53
666.13	446.62
666.47	444.78
666.81	442.59
667.15	440.33
667.49	438.35
667.83	436.65
668.17	434.60
668.51	432.55
668.85	430.70
669.19	428.82
669.53	426.78
669.87	424.73
670.21	422.88
670.55	420.94
670.89	419.29
671.23	417.72
671.57	416.03
671.91	414.23
672.25	412.23
672.58	410.39
672.92	408.58
673.26	406.85
673.60	405.28
673.94	403.72
674.28	402.32
674.62	400.84
674.96	399.19
675.30	397.62
675.64	395.92
675.97	394.49
676.31	392.98
676.65	391.44
676.99	390.05
677.33	388.56
677.67	387.07
678.01	385.40
678.34	383.81
678.68	382.40
679.02	380.97
679.36	379.81
679.70	378.36
680.04	376.72
680.37	375.28
680.71	373.83
681.05	372.54
681.39	371.21
681.73	370.00
682.06	368.50
682.40	367.37
682.74	366.22
683.08	364.70
683.42	363.18
683.75	362.01
684.09	360.70
684.43	359.34
684.77	357.96
685.10	356.71
685.44	355.36
685.78	354.03
686.12	352.82
686.45	351.46
686.79	350.11
687.13	349.09
687.46	347.80
687.80	346.44
688.14	345.24
688.48	343.94
688.81	342.57
689.15	341.53
689.49	340.38
689.82	339.10
690.16	337.81
690.50	336.82
690.83	335.58
691.17	334.36
691.51	333.27
691.84	332.19
692.18	331.01
692.52	329.83
692.85	328.81
693.19	327.82
693.52	326.80
693.86	325.71
694.20	324.67
694.53	323.69
694.87	322.79
695.21	321.52
695.54	320.45
695.88	319.38
696.21	318.19
696.55	317.11
696.88	316.23
697.22	315.35
697.56	314.50
697.89	313.49
698.23	312.62
698.56	311.68
698.90	310.64
699.23	309.71
699.57	308.85
699.90	307.71
700.24	306.63
700.58	305.71
700.91	304.90
701.25	304.18
701.58	303.40
701.92	302.40
702.25	301.68
702.59	300.88
702.92	300.17
703.26	299.55
703.59	298.75
703.93	298.07
704.26	297.25
704.60	296.37
704.93	295.70
705.26	294.91
705.60	294.30
705.93	293.76
706.27	293.15
706.60	292.67
706.94	292.24
707.27	291.49
707.61	290.83
707.94	290.22
708.27	289.32
708.61	288.57
708.94	288.01
709.28	287.34
709.61	286.80
709.94	286.09
710.28	285.41
710.61	284.71
710.95	283.87
711.28	283.40
711.61	282.89
711.95	282.32
712.28	281.74
712.61	280.99
712.95	280.36
713.28	279.81
713.61	279.12
713.95	278.51
714.28	278.01
714.61	277.58
714.95	276.94
715.28	276.41
715.61	275.86
715.95	275.30
716.28	274.96
716.61	274.34
716.95	273.90
717.28	273.43
717.61	273.04
717.94	272.66
718.28	272.10
718.61	271.47
718.94	270.93
719.27	270.46
719.61	270.04
719.94	269.67
720.27	269.11
720.60	268.67
720.94	268.13
721.27	267.77
721.60	267.36
721.93	266.90
722.27	266.60
722.60	266.22
722.93	265.97
723.26	265.60
723.59	265.24
723.93	264.81
724.26	264.47
724.59	263.96
724.92	263.57
725.25	263.17
725.59	262.81
725.92	262.57
726.25	262.30
726.58	262.01
726.91	261.50
727.24	261.24
727.57	260.88
727.91	260.43
728.24	260.00
728.57	259.51
728.90	259.16
729.23	258.68
729.56	258.43
729.89	257.99
730.22	257.50
730.55	257.17
730.89	256.85
731.22	256.47
731.55	256.20
731.88	255.83
732.21	255.60
732.54	255.23
732.87	254.81
733.20	254.52
733.53	254.16
733.86	254.01
734.19	253.78
734.52	253.48
734.85	253.45
735.18	253.28
735.51	253.11
735.84	252.92
736.17	252.79
736.50	252.54
736.83	252.47
737.16	252.22
737.49	251.99
737.82	251.72
738.15	251.53
738.48	251.30
738.81	251.12
739.14	250.82
739.47	250.69
739.80	250.49
740.13	250.23
740.46	250.00
740.79	249.67
741.12	249.36
741.45	249.18
741.78	248.88
742.11	248.65
742.44	248.41
742.77	248.25
743.10	247.91
743.43	247.70
743.75	247.25
744.08	247.27
744.41	247.07
744.74	246.89
745.07	246.70
745.40	246.60
745.73	246.47
746.06	246.38
746.39	246.16
746.71	246.04
747.04	245.78
747.37	245.63
747.70	245.54
748.03	245.35
748.36	245.22
748.68	244.96
749.01	244.75
749.34	244.56
749.67	244.35
750.00	244.33
750.33	244.22
750.65	244.05
750.98	243.75
751.31	243.55
751.64	243.46
751.97	243.33
752.29	243.13
752.62	242.96
752.95	242.70
753.28	242.59
753.60	242.34
753.93	242.24
754.26	242.13
754.59	241.96
754.91	241.82
755.24	241.58
755.57	241.41
755.90	241.34
756.22	241.16
756.55	240.99
756.88	240.74
757.20	240.51
757.53	240.51
757.86	240.40
758.19	240.38
758.51	240.23
758.84	240.00
759.17	239.80
759.49	239.60
759.82	239.60
760.15	239.48
760.47	239.41
760.80	239.22
761.13	239.10
761.45	239.00
761.78	238.96
762.11	238.90
762.43	238.78
762.76	238.63
763.08	238.51
763.41	238.48
763.74	238.48
764.06	238.36
764.39	238.17
764.71	238.05
765.04	237.78
765.37	237.66
765.69	237.64
766.02	237.67
766.34	237.58
766.67	237.44
767.00	237.33
767.32	237.29
767.65	237.39
767.97	237.16
768.30	237.06
768.62	236.98
768.95	236.90
769.27	236.84
769.60	236.73
769.92	236.77
770.25	236.60
770.57	236.45
770.90	236.33
771.22	236.21
771.55	236.16
771.87	236.12
772.20	235.92
772.52	235.90
772.85	235.96
773.17	235.82
773.50	235.72
773.82	235.60
774.15	235.50
774.47	235.26
774.80	235.17
775.12	235.10
775.45	234.87
775.77	234.75
776.09	234.72
776.42	234.70
776.74	234.55
777.07	234.49
777.39	234.37
777.72	234.18
778.04	234.16
778.36	233.93
778.69	233.80
779.01	233.76
779.33	233.50
779.66	233.24
779.98	233.26
780.31	233.20
780.63	233.39
780.95	233.39
781.28	233.28
781.60	233.28
781.92	233.20
782.25	233.20
782.57	233.14
782.89	233.02
783.22	232.93
783.54	232.85
783.86	232.77
784.19	232.77
784.51	232.85
784.83	232.76
785.16	232.88
785.48	232.90
785.80	232.91
786.12	232.90
786.45	232.82
786.77	232.75
787.09	232.68
787.42	232.46
787.74	232.31
788.06	232.38
788.38	232.31
788.71	232.22
789.03	232.25
789.35	232.27
789.67	232.21
789.99	232.13
790.32	232.16
790.64	232.23
790.96	232.33
791.28	232.31
791.61	232.35
791.93	232.26
792.25	232.27
792.57	232.35
792.89	232.33
793.21	232.24
793.54	232.21
793.86	232.13
794.18	232.10
794.50	232.02
794.82	231.91
795.14	231.91
795.47	231.96
795.79	231.83
796.11	231.71
796.43	231.70
796.75	231.66
797.07	231.53
797.39	231.51
797.71	231.30
798.04	231.29
798.36	231.26
798.68	231.23
799.00	231.21
799.32	231.03
799.64	231.11
799.96	231.05
800.28	231.09
800.60	231.02
800.92	230.97
801.24	230.96
801.56	231.00
801.89	231.01
802.21	230.88
802.53	230.92
802.85	231.04
803.17	231.10
803.49	231.13
803.81	231.21
804.13	231.13
804.45	231.15
804.77	231.15
805.09	231.13
805.41	231.13
805.73	231.09
806.05	231.08
806.37	230.98
806.69	231.11
807.01	231.03
807.33	231.14
807.65	231.10
807.97	231.23
808.28	231.20
808.60	231.19
808.92	231.25
809.24	231.35
809.56	231.28
809.88	231.24
810.20	231.20
810.52	231.20
810.84	231.14
811.16	231.14
811.48	231.04
811.80	231.03
812.12	230.93
812.43	230.86
812.75	230.90
813.07	230.84
813.39	230.71
813.71	230.67
814.03	230.58
814.35	230.51
814.67	230.40
814.98	230.33
815.30	230.30
815.62	230.23
815.94	230.01
816.26	229.99
816.58	229.84
816.89	229.84
817.21	229.68
817.53	229.70
817.85	229.67
818.17	229.54
818.48	229.39
818.80	229.52
819.12	229.53
819.44	229.49
819.76	229.57
820.07	229.63
820.39	229.67
820.71	229.69
821.03	229.70
821.34	229.66
821.66	229.69
821.98	229.70
822.30	229.70
822.61	229.85
822.93	229.72
823.25	229.78
823.57	229.80
823.88	229.80
824.20	229.76
824.52	229.77
824.83	229.89
825.15	230.00
825.47	229.79
825.79	229.80
826.10	229.76
826.42	229.57
826.74	229.48
827.05	229.52
827.37	229.53
827.69	229.50
828.00	229.46
828.32	229.42
828.64	229.26
828.95	229.28
829.27	229.16
829.58	229.15
829.90	229.27
830.22	229.19
830.53	229.24
830.85	229.20
831.17	229.13
831.48	229.21
831.80	229.20
832.11	229.31
832.43	229.18
832.75	229.12
833.06	229.38
833.38	229.36
833.69	229.29
834.01	229.28
834.32	229.28
834.64	229.28
834.96	229.36
835.27	229.46
835.59	229.41
835.90	229.40
836.22	229.43
836.53	229.23
836.85	229.27
837.16	229.36
837.48	229.46
837.79	229.48
838.11	229.37
838.42	229.32
838.74	229.25
839.05	229.33
839.37	229.43
839.68	229.25
840.00	229.26
840.31	229.23
840.63	229.17
840.94	229.17
841.26	229.10
841.57	229.09
841.88	229.13
842.20	229.11
842.51	229.10
842.83	229.13
843.14	229.30
843.46	229.25
843.77	229.25
844.08	229.20
844.40	229.18
844.71	229.16
845.03	229.11
845.34	229.14
845.65	229.04
845.97	229.03
846.28	229.06
846.60	229.06
846.91	229.05
847.22	229.03
847.54	229.00
847.85	229.12
848.16	229.04
848.48	229.03
848.79	229.04
849.10	229.11
849.42	229.10
849.73	228.97
850.04	228.85
850.36	228.79
850.67	228.75
850.98	228.75
851.30	228.74
851.61	228.73
851.92	228.74
852.23	228.84
852.55	228.67
852.86	228.57
853.17	228.59
853.49	228.63
853.80	228.68
854.11	228.69
854.42	228.67
854.74	228.61
855.05	228.50
855.36	228.51
855.67	228.45
855.99	228.39
856.30	228.61
856.61	228.63
856.92	228.55
857.23	228.54
857.55	228.49
857.86	228.54
858.17	228.60
858.48	228.51
858.79	228.49
859.11	228.61
859.42	228.62
859.73	228.59
860.04	228.53
860.35	228.48
860.66	228.49
860.98	228.50
861.29	228.60
861.60	228.59
861.91	228.58
862.22	228.48
862.53	228.54
862.84	228.27
863.16	228.39
863.47	228.38
863.78	228.29
864.09	228.33
864.40	228.32
864.71	228.25
865.02	228.27
865.33	228.22
865.64	228.18
865.95	228.20
866.27	228.32
866.58	228.31
866.89	228.39
867.20	228.26
867.51	228.19
867.82	228.14
868.13	228.20
868.44	228.16
868.75	228.26
869.06	228.26
869.37	228.36
869.68	228.35
869.99	228.30
870.30	228.40
870.61	228.39
870.92	228.33
871.23	228.37
871.54	228.48
871.85	228.62
872.16	228.74
872.47	228.74
872.78	228.70
873.09	228.79
873.40	228.74
873.71	228.94
874.02	229.00
874.33	228.90
874.64	228.89
874.95	229.00
875.26	229.01
875.56	229.09
875.87	229.13
876.18	229.12
876.49	229.42
876.80	229.47
877.11	229.37
877.42	229.52
877.73	229.46
878.04	229.50
878.35	229.46
878.66	229.39
878.96	229.40
879.27	229.30
879.58	229.19
879.89	229.21
880.20	229.25
880.51	229.22
880.82	229.32
881.12	229.26
881.43	229.14
881.74	229.07
882.05	228.95
882.36	228.84
882.67	228.83
882.97	228.60
883.28	228.58
883.59	228.73
883.90	228.56
884.21	228.58
884.51	228.44
884.82	228.47
885.13	228.40
885.44	228.32
885.74	228.34
886.05	228.37
886.36	228.30
886.67	228.17
886.98	228.22
887.28	228.21
887.59	228.22
887.90	228.25
888.20	228.29
888.51	228.35
888.82	228.30
889.13	228.31
889.43	228.41
889.74	228.30
890.05	228.27
890.35	228.24
890.66	228.24
890.97	228.25
891.28	228.09
891.58	228.08
891.89	228.07
892.20	228.02
892.50	227.96
892.81	228.02
893.12	228.02
893.42	227.97
893.73	228.00
894.04	228.07
894.34	228.05
894.65	228.03
894.95	227.95
895.26	228.02
895.57	228.10
895.87	227.91
896.18	227.90
896.48	227.80
896.79	227.91
897.10	227.93
897.40	227.89
897.71	227.93
898.01	227.93
898.32	228.02
898.63	228.04
898.93	228.08
899.24	227.96
899.54	227.94
899.85	227.87
900.15	227.73
900.46	227.69
900.76	227.73
901.07	227.70
901.38	227.71
901.68	227.70
901.99	227.61
902.29	227.69
902.60	227.69
902.90	227.71
903.21	227.74
903.51	227.71
903.82	227.72
904.12	227.78
904.43	227.89
904.73	227.87
905.03	227.93
905.34	228.19
905.64	228.33
905.95	228.29
906.25	228.30
906.56	228.34
906.86	228.43
907.17	228.37
907.47	228.37
907.77	228.42
908.08	228.48
908.38	228.50
908.69	228.57
908.99	228.70
909.30	228.77
909.60	228.74
909.90	228.77
910.21	228.72
910.51	228.71
910.81	228.70
911.12	228.65
911.42	228.70
911.73	228.41
912.03	228.31
912.33	228.48
912.64	228.56
912.94	228.54
913.24	228.47
913.55	228.58
913.85	228.56
914.15	228.57
914.46	228.49
914.76	228.45
915.06	228.43
915.37	228.40
915.67	228.36
915.97	228.29
916.27	228.29
916.58	228.44
916.88	228.45
917.18	228.39
917.49	228.56
917.79	228.61
918.09	228.62
918.39	228.77
918.70	228.66
919.00	228.59
919.30	228.76
919.60	228.67
919.91	228.68
920.21	228.73
920.51	228.70
920.81	228.75
921.12	228.86
921.42	228.76
921.72	228.67
922.02	228.63
922.32	228.75
922.63	228.73
922.93	228.80
923.23	228.74
923.53	228.65
923.83	228.51
924.13	228.51
924.44	228.54
924.74	228.41
925.04	228.50
925.34	228.48
925.64	228.46
925.94	228.51
926.24	228.58
926.55	228.62
926.85	228.59
927.15	228.58
927.45	228.50
927.75	228.55
928.05	228.60
928.35	228.64
928.65	228.64
928.95	228.64
929.26	228.57
929.56	228.59
929.86	228.60
930.16	228.47
930.46	228.29
930.76	228.27
931.06	228.21
931.36	228.06
931.66	228.13
931.96	228.07
932.26	228.08
932.56	227.89
932.86	227.85
933.16	227.86
933.46	227.77
933.76	227.68
934.06	227.68
934.36	227.71
934.66	227.71
934.96	227.66
935.26	227.56
935.56	227.54
935.86	227.52
936.16	227.55
936.46	227.61
936.76	227.67
937.06	227.70
937.36	227.78
937.66	227.85
937.96	227.78
938.26	227.65
938.56	227.54
938.86	227.61
939.16	227.66
939.46	227.71
939.76	227.84
940.06	227.91
940.35	227.98
940.65	227.92
940.95	227.91
941.25	227.85
941.55	227.93
941.85	227.93
942.15	228.02
942.45	228.17
942.75	228.24
943.04	228.20
943.34	228.17
943.64	228.12
943.94	228.03
944.24	228.15
944.54	228.20
944.84	228.24
945.13	228.27
945.43	228.21
945.73	228.19
946.03	228.08
946.33	228.00
946.62	227.94
946.92	227.99
947.22	228.02
947.52	228.07
947.82	228.08
948.11	228.04
948.41	227.99
948.71	227.95
949.01	227.91
949.31	227.97
949.60	227.98
949.90	228.07
950.20	228.19
950.50	228.10
950.79	228.14
951.09	228.20
951.39	228.14
951.69	228.11
951.98	228.15
952.28	228.14
952.58	228.11
952.87	228.09
953.17	228.08
953.47	228.04
953.76	228.00
954.06	228.00
954.36	228.00
954.66	227.97
954.95	227.92
955.25	227.98
955.55	228.03
955.84	227.94
956.14	227.98
956.44	227.93
956.73	227.93
957.03	227.90
957.32	227.84
957.62	227.89
957.92	227.99
958.21	227.94
958.51	228.25
958.81	228.29
959.10	228.34
959.40	228.39
959.69	228.39
959.99	228.42
960.29	228.44
960.58	228.39
960.88	228.47
961.17	228.54
961.47	228.58
961.76	228.54
962.06	228.67
962.36	228.61
962.65	228.56
962.95	228.52
963.24	228.58
963.54	228.62
963.83	228.50
964.13	228.52
964.42	228.53
964.72	228.26
965.01	228.37
965.31	228.29
965.60	228.23
965.90	228.41
966.19	228.46
966.49	228.42
966.78	228.57
967.08	228.54
967.37	228.42
967.67	228.45
967.96	228.47
968.26	228.37
968.55	228.39
968.85	228.44
969.14	228.46
969.43	228.44
969.73	228.49
970.02	228.55
970.32	228.44
970.61	228.34
970.91	228.39
971.20	228.28
971.49	228.25
971.79	228.31
972.08	228.07
972.38	228.04
972.67	227.97
972.96	228.03
973.26	227.93
973.55	228.07
973.85	227.99
974.14	227.94
974.43	227.99
974.73	227.93
975.02	227.89
975.31	227.90
975.61	227.76
975.90	227.79
976.19	227.87
976.49	227.86
976.78	227.94
977.07	227.81
977.37	227.89
977.66	228.00
977.95	227.88
978.24	227.89
978.54	227.90
978.83	227.90
979.12	227.78
979.42	227.94
979.71	227.81
980.00	227.74
980.29	227.80
980.59	227.80
980.88	227.91
981.17	227.95
981.46	227.99
981.76	228.13
982.05	228.14
982.34	228.06
982.63	228.13
982.93	228.12
983.22	228.26
983.51	228.23
983.80	228.17
984.09	228.24
984.39	228.32
984.68	228.36
984.97	228.42
985.26	228.33
985.55	228.26
985.85	228.42
986.14	228.50
986.43	228.45
986.72	228.41
987.01	228.27
987.30	228.28
987.59	228.24
987.89	228.30
988.18	228.22
988.47	228.19
988.76	228.09
989.05	228.11
989.34	228.08
989.63	228.17
989.92	228.20
990.22	228.17
990.51	228.10
990.80	228.10
991.09	228.18
991.38	228.29
991.67	228.30
991.96	228.16
992.25	228.17
992.54	228.22
992.83	228.35
993.12	228.43
993.41	228.49
993.70	228.54
993.99	228.49
994.28	228.53
994.58	228.66
994.87	228.73
995.16	228.74
995.45	228.81
995.74	228.74
996.03	228.84
996.32	228.83
996.61	229.01
996.90	229.00
997.19	228.90
997.48	228.83
997.77	228.75
998.06	228.69
998.34	228.73
998.63	228.67
998.92	228.65
999.21	228.72
999.50	228.61
999.79	228.56
1000.08	228.55
1000.37	228.53
1000.66	228.51
1000.95	228.50
1001.24	228.46
1001.53	228.43
1001.82	228.38
1002.11	228.26
1002.40	228.38
1002.68	228.32
1002.97	228.41
1003.26	228.51
1003.55	228.46
1003.84	228.48
1004.13	228.55
1004.42	228.52
1004.71	228.52
1004.99	228.39
1005.28	228.32
1005.57	228.33
1005.86	228.37
1006.15	228.38
1006.44	228.32
1006.72	228.31
1007.01	228.29
1007.30	228.40
1007.59	228.34
1007.88	228.34
1008.17	228.27
1008.45	228.20
1008.74	228.02
1009.03	227.91
1009.32	227.87
1009.60	227.86
1009.89	227.87
1010.18	227.87
1010.47	227.89
1010.76	227.87
1011.04	227.96
1011.33	227.94
1011.62	228.01
1011.91	227.85
1012.19	227.93
1012.48	227.92
1012.77	227.83
1013.05	227.99
1013.34	227.77
1013.63	227.86
1013.92	227.83
1014.20	227.95
1014.49	227.84
1014.78	227.97
1015.06	227.91
1015.35	227.99
1015.64	228.05
1015.92	228.07
1016.21	228.05
1016.50	228.00
1016.78	228.13
1017.07	228.12
1017.36	228.09
1017.64	228.07
1017.93	228.30
1018.22	228.28
1018.50	228.36
1018.79	228.41
1019.08	228.26
1019.36	228.37
1019.65	228.37
1019.93	228.41
1020.22	228.40
1020.51	228.57
1020.79	228.50
1021.08	229.50
1021.36	228.80
1021.65	228.60
1021.94	227.40
1022.22	227.80
1022.51	229.60
1022.79	227.60
1023.08	228.30
1023.36	229.90
1023.65	227.30
>>>>>End Processed Spectral Data<<<<<
