SpectraSuite Data File
++++++++++++++++++++++++++++++++++++
Date: Fri Feb 01 14:39:34 EST 2013
User: group
Dark Spectrum Present: No
Reference Spectrum Present: No
Number of Sampled Component Spectra: 1
Spectrometers: USB2E7196
Integration Time (usec): 70000 (USB2E7196)
Spectra Averaged: 10 (USB2E7196)
Boxcar Smoothing: 10 (USB2E7196)
Correct for Electrical Dark: No (USB2E7196)
Strobe/Lamp Enabled: No (USB2E7196)
Correct for Detector Non-linearity: No (USB2E7196)
Correct for Stray Light: No (USB2E7196)
Number of Pixels in Processed Spectrum: 2048
>>>>>Begin Processed Spectral Data<<<<<
339.09	0.00
339.48	217.70
339.86	215.40
340.24	217.40
340.63	219.60
341.01	225.50
341.39	223.70
341.78	224.20
342.16	226.40
342.54	225.10
342.93	214.41
343.31	225.27
343.69	225.74
344.07	226.39
344.46	226.91
344.84	227.30
345.22	227.43
345.60	227.74
345.99	227.91
346.37	228.00
346.75	228.15
347.13	228.20
347.52	228.20
347.90	228.32
348.28	228.25
348.66	228.35
349.05	228.40
349.43	228.39
349.81	228.40
350.19	228.55
350.57	228.59
350.96	228.72
351.34	228.75
351.72	228.83
352.10	228.81
352.48	228.87
352.87	228.91
353.25	228.89
353.63	228.90
354.01	228.93
354.39	229.02
354.77	229.10
355.15	229.30
355.54	229.39
355.92	229.42
356.30	229.51
356.68	229.75
357.06	229.79
357.44	229.68
357.82	229.68
358.20	229.71
358.58	229.75
358.97	229.83
359.35	229.98
359.73	229.98
360.11	230.04
360.49	230.07
360.87	230.04
361.25	230.20
361.63	230.26
362.01	230.30
362.39	230.34
362.77	230.36
363.15	230.44
363.53	230.46
363.91	230.41
364.29	230.50
364.67	230.25
365.05	230.21
365.43	230.32
365.81	230.34
366.19	230.43
366.57	230.50
366.95	230.35
367.33	230.21
367.71	230.28
368.09	230.36
368.47	230.33
368.85	230.43
369.23	230.38
369.61	230.23
369.99	230.31
370.37	230.27
370.75	230.20
371.13	230.04
371.51	229.95
371.89	229.99
372.27	229.96
372.65	229.87
373.03	229.79
373.41	229.72
373.78	229.68
374.16	229.51
374.54	229.37
374.92	229.40
375.30	229.37
375.68	229.21
376.06	229.09
376.44	228.95
376.82	228.83
377.19	228.72
377.57	228.65
377.95	228.56
378.33	228.43
378.71	228.30
379.09	228.25
379.47	228.21
379.84	228.06
380.22	227.83
380.60	227.68
380.98	227.58
381.36	227.60
381.73	227.42
382.11	227.40
382.49	227.26
382.87	227.15
383.25	227.08
383.62	227.15
384.00	227.00
384.38	226.98
384.76	227.05
385.13	227.08
385.51	227.04
385.89	226.88
386.27	226.83
386.64	226.82
387.02	226.68
387.40	226.64
387.78	226.61
388.15	226.69
388.53	226.70
388.91	226.67
389.29	226.49
389.66	226.59
390.04	226.45
390.42	226.53
390.79	226.49
391.17	226.41
391.55	226.29
391.92	226.36
392.30	226.35
392.68	226.19
393.05	226.10
393.43	226.13
393.81	226.15
394.18	226.09
394.56	226.14
394.94	226.28
395.31	226.19
395.69	226.26
396.06	226.18
396.44	226.27
396.82	226.29
397.19	226.38
397.57	226.34
397.95	226.41
398.32	226.41
398.70	226.37
399.07	226.56
399.45	226.60
399.82	226.69
400.20	226.78
400.58	226.92
400.95	227.01
401.33	227.16
401.70	227.41
402.08	227.51
402.45	227.50
402.83	227.60
403.20	227.73
403.58	227.95
403.95	228.19
404.33	228.32
404.71	228.56
405.08	228.87
405.46	229.05
405.83	229.28
406.21	229.41
406.58	229.65
406.96	229.75
407.33	230.00
407.70	230.09
408.08	230.54
408.45	230.80
408.83	231.00
409.20	231.29
409.58	231.39
409.95	231.78
410.33	232.14
410.70	232.40
411.08	232.75
411.45	232.88
411.82	233.23
412.20	233.65
412.57	234.05
412.95	234.19
413.32	234.56
413.69	234.95
414.07	235.51
414.44	236.09
414.82	236.64
415.19	237.15
415.56	237.76
415.94	238.25
416.31	238.78
416.68	239.55
417.06	240.22
417.43	240.88
417.81	241.67
418.18	242.39
418.55	243.21
418.93	244.10
419.30	245.02
419.67	245.83
420.04	246.71
420.42	247.64
420.79	249.06
421.16	250.13
421.54	251.42
421.91	252.49
422.28	253.80
422.66	255.10
423.03	256.57
423.40	257.91
423.77	259.21
424.15	260.76
424.52	262.19
424.89	263.76
425.26	265.40
425.64	266.86
426.01	268.56
426.38	270.33
426.75	272.18
427.13	274.19
427.50	276.21
427.87	278.19
428.24	280.15
428.61	281.80
428.99	283.95
429.36	286.04
429.73	288.27
430.10	290.38
430.47	292.50
430.85	294.48
431.22	297.04
431.59	299.68
431.96	302.10
432.33	304.75
432.70	307.38
433.08	310.42
433.45	313.26
433.82	316.18
434.19	319.13
434.56	322.14
434.93	324.87
435.30	327.74
435.68	331.04
436.05	334.11
436.42	337.35
436.79	340.05
437.16	342.96
437.53	346.13
437.90	349.12
438.27	352.32
438.64	355.62
439.01	358.34
439.38	360.77
439.75	363.24
440.13	366.07
440.50	368.81
440.87	370.94
441.24	373.22
441.61	375.56
441.98	377.45
442.35	379.58
442.72	381.81
443.09	383.83
443.46	384.81
443.83	385.63
444.20	386.29
444.57	387.58
444.94	388.21
445.31	388.80
445.68	389.65
446.05	390.00
446.42	389.75
446.79	389.55
447.16	389.25
447.53	389.04
447.90	387.95
448.27	386.70
448.64	385.09
449.01	383.92
449.37	381.97
449.74	380.14
450.11	377.91
450.48	375.39
450.85	372.89
451.22	370.90
451.59	368.92
451.96	366.81
452.33	363.99
452.70	361.58
453.07	358.57
453.43	355.34
453.80	352.42
454.17	349.63
454.54	346.83
454.91	343.93
455.28	341.01
455.65	338.45
456.02	335.90
456.38	333.69
456.75	330.90
457.12	328.48
457.49	326.01
457.86	323.61
458.23	321.52
458.59	319.24
458.96	316.88
459.33	314.79
459.70	312.89
460.07	311.21
460.43	309.36
460.80	307.66
461.17	306.11
461.54	304.20
461.91	302.60
462.27	301.17
462.64	299.88
463.01	298.40
463.38	296.99
463.74	295.40
464.11	293.94
464.48	292.82
464.85	291.53
465.21	290.53
465.58	289.40
465.95	288.12
466.32	287.14
466.68	286.03
467.05	285.04
467.42	283.94
467.78	282.89
468.15	281.78
468.52	280.86
468.88	279.71
469.25	278.91
469.62	278.19
469.98	277.20
470.35	276.37
470.72	275.65
471.08	274.78
471.45	274.12
471.82	273.51
472.18	272.65
472.55	272.06
472.92	271.42
473.28	270.70
473.65	270.09
474.02	269.37
474.38	268.89
474.75	268.36
475.11	267.73
475.48	267.31
475.85	266.76
476.21	266.16
476.58	265.80
476.94	265.39
477.31	264.98
477.67	264.60
478.04	264.19
478.41	263.92
478.77	263.80
479.14	263.36
479.50	263.01
479.87	262.80
480.23	262.55
480.60	262.20
480.96	262.08
481.33	261.88
481.69	261.68
482.06	261.53
482.42	261.38
482.79	261.28
483.15	261.05
483.52	261.03
483.88	261.01
484.25	260.99
484.61	260.87
484.98	260.70
485.34	260.73
485.71	260.71
486.07	260.70
486.44	260.46
486.80	260.47
487.17	260.48
487.53	260.51
487.90	260.54
488.26	260.70
488.62	260.74
488.99	260.76
489.35	260.91
489.72	260.96
490.08	261.04
490.44	261.20
490.81	261.34
491.17	261.38
491.54	261.66
491.90	261.82
492.26	262.09
492.63	262.26
492.99	262.46
493.36	262.77
493.72	262.93
494.08	263.20
494.45	263.44
494.81	263.88
495.17	264.19
495.54	264.62
495.90	264.99
496.26	265.46
496.63	266.01
496.99	266.44
497.35	266.98
497.72	267.43
498.08	267.88
498.44	268.55
498.80	269.26
499.17	269.80
499.53	270.48
499.89	271.20
500.26	271.85
500.62	272.48
500.98	273.22
501.34	274.05
501.71	274.92
502.07	275.88
502.43	276.60
502.79	277.60
503.16	278.60
503.52	279.62
503.88	280.52
504.24	281.48
504.60	282.60
504.97	283.84
505.33	285.12
505.69	286.52
506.05	287.80
506.41	289.30
506.78	290.80
507.14	292.32
507.50	293.91
507.86	295.67
508.22	297.35
508.59	299.22
508.95	301.06
509.31	302.92
509.67	305.10
510.03	307.52
510.39	309.59
510.75	311.80
511.12	314.21
511.48	316.74
511.84	319.35
512.20	321.99
512.56	324.59
512.92	327.42
513.28	330.23
513.64	333.09
514.00	335.93
514.37	339.10
514.73	342.20
515.09	345.53
515.45	348.97
515.81	352.66
516.17	356.26
516.53	359.87
516.89	363.81
517.25	367.51
517.61	371.40
517.97	375.41
518.33	379.63
518.69	383.78
519.05	388.18
519.41	392.71
519.77	397.46
520.13	402.20
520.49	407.03
520.85	411.93
521.21	417.10
521.57	422.25
521.93	427.35
522.29	432.79
522.65	438.02
523.01	443.48
523.37	448.73
523.73	454.21
524.09	459.89
524.45	465.68
524.81	471.69
525.17	477.70
525.53	484.15
525.89	490.32
526.25	496.69
526.61	503.01
526.97	509.71
527.33	516.18
527.68	522.96
528.04	529.53
528.40	536.24
528.76	543.07
529.12	550.13
529.48	557.40
529.84	564.39
530.20	571.81
530.56	579.37
530.91	587.10
531.27	594.64
531.63	602.40
531.99	609.95
532.35	617.83
532.71	625.44
533.07	633.14
533.42	641.33
533.78	649.15
534.14	657.28
534.50	665.13
534.86	673.16
535.21	680.91
535.57	689.25
535.93	697.53
536.29	705.90
536.65	714.00
537.00	721.91
537.36	730.31
537.72	738.38
538.08	746.34
538.44	754.38
538.79	762.70
539.15	771.00
539.51	779.43
539.87	787.84
540.22	796.43
540.58	804.99
540.94	812.96
541.29	821.24
541.65	829.15
542.01	837.55
542.37	846.03
542.72	854.43
543.08	862.67
543.44	871.10
543.79	878.93
544.15	887.38
544.51	895.90
544.87	904.16
545.22	912.40
545.58	920.48
545.94	928.66
546.29	936.68
546.65	944.26
547.01	952.12
547.36	959.29
547.72	966.92
548.07	974.39
548.43	981.99
548.79	989.45
549.14	997.13
549.50	1003.93
549.86	1010.76
550.21	1017.93
550.57	1024.90
550.92	1031.75
551.28	1038.89
551.64	1045.85
551.99	1052.81
552.35	1059.33
552.70	1065.84
553.06	1072.64
553.41	1079.15
553.77	1085.48
554.13	1092.41
554.48	1099.20
554.84	1105.85
555.19	1112.09
555.55	1118.22
555.90	1124.04
556.26	1130.41
556.61	1136.64
556.97	1142.66
557.32	1148.70
557.68	1154.56
558.03	1160.25
558.39	1166.14
558.74	1172.05
559.10	1177.77
559.45	1183.15
559.81	1189.37
560.16	1194.68
560.52	1199.96
560.87	1205.77
561.23	1211.00
561.58	1216.01
561.94	1220.70
562.29	1225.56
562.64	1230.37
563.00	1235.34
563.35	1241.01
563.71	1245.61
564.06	1250.20
564.42	1255.13
564.77	1259.89
565.12	1264.59
565.48	1269.30
565.83	1273.20
566.19	1277.38
566.54	1280.94
566.89	1284.75
567.25	1288.23
567.60	1292.52
567.96	1296.46
568.31	1299.82
568.66	1303.29
569.02	1306.93
569.37	1310.06
569.72	1313.26
570.08	1316.25
570.43	1318.91
570.78	1321.20
571.14	1323.80
571.49	1326.42
571.84	1329.32
572.20	1331.20
572.55	1333.07
572.90	1334.96
573.26	1337.18
573.61	1338.94
573.96	1340.80
574.31	1342.01
574.67	1342.95
575.02	1343.43
575.37	1344.49
575.72	1344.60
576.08	1345.53
576.43	1345.65
576.78	1346.62
577.13	1347.48
577.49	1348.25
577.84	1348.49
578.19	1348.72
578.54	1348.78
578.90	1348.70
579.25	1347.89
579.60	1347.85
579.95	1347.72
580.30	1347.13
580.66	1346.28
581.01	1345.58
581.36	1345.27
581.71	1345.21
582.06	1344.80
582.42	1344.39
582.77	1343.43
583.12	1343.16
583.47	1342.28
583.82	1342.08
584.17	1340.54
584.53	1339.55
584.88	1338.20
585.23	1337.24
585.58	1336.02
585.93	1335.06
586.28	1333.77
586.63	1333.03
586.98	1332.14
587.34	1330.73
587.69	1329.56
588.04	1328.63
588.39	1327.19
588.74	1324.68
589.09	1322.82
589.44	1320.53
589.79	1318.88
590.14	1317.28
590.49	1315.61
590.84	1313.57
591.19	1311.41
591.54	1308.93
591.89	1305.94
592.25	1303.67
592.60	1301.23
592.95	1298.78
593.30	1295.98
593.65	1293.19
594.00	1290.03
594.35	1287.45
594.70	1284.31
595.05	1281.41
595.40	1277.85
595.75	1274.74
596.10	1272.50
596.45	1269.87
596.80	1267.90
597.15	1265.49
597.50	1262.60
597.85	1259.69
598.19	1257.30
598.54	1254.48
598.89	1252.24
599.24	1250.24
599.59	1247.56
599.94	1244.93
600.29	1242.07
600.64	1239.20
600.99	1236.11
601.34	1233.20
601.69	1229.97
602.04	1227.33
602.39	1224.33
602.74	1222.21
603.08	1219.63
603.43	1216.71
603.78	1213.37
604.13	1210.00
604.48	1206.60
604.83	1203.44
605.18	1200.28
605.53	1196.27
605.87	1192.31
606.22	1188.84
606.57	1185.02
606.92	1181.52
607.27	1177.87
607.62	1174.60
607.96	1171.33
608.31	1168.09
608.66	1164.59
609.01	1160.61
609.36	1156.40
609.70	1151.78
610.05	1147.18
610.40	1142.87
610.75	1138.52
611.10	1134.28
611.44	1129.47
611.79	1125.43
612.14	1121.34
612.49	1116.47
612.83	1112.23
613.18	1107.74
613.53	1103.29
613.88	1098.61
614.22	1093.90
614.57	1089.21
614.92	1084.47
615.27	1080.01
615.61	1075.49
615.96	1071.06
616.31	1066.96
616.65	1063.22
617.00	1059.58
617.35	1055.39
617.70	1051.06
618.04	1046.36
618.39	1041.97
618.74	1037.65
619.08	1032.86
619.43	1028.20
619.78	1024.17
620.12	1019.90
620.47	1015.54
620.82	1010.90
621.16	1006.78
621.51	1002.65
621.85	998.36
622.20	993.77
622.55	989.15
622.89	984.86
623.24	980.69
623.59	976.21
623.93	971.92
624.28	967.62
624.62	963.51
624.97	958.98
625.32	955.36
625.66	951.30
626.01	947.34
626.35	943.06
626.70	938.59
627.04	934.48
627.39	930.02
627.73	925.96
628.08	922.22
628.43	917.86
628.77	913.54
629.12	909.23
629.46	905.14
629.81	900.79
630.15	896.35
630.50	891.70
630.84	887.00
631.19	882.20
631.53	877.86
631.88	873.15
632.22	868.62
632.57	864.10
632.91	859.49
633.26	855.06
633.60	850.50
633.95	846.10
634.29	841.51
634.64	837.43
634.98	833.04
635.32	828.60
635.67	824.69
636.01	820.53
636.36	816.31
636.70	812.15
637.05	808.27
637.39	804.17
637.73	800.13
638.08	796.47
638.42	792.71
638.77	788.61
639.11	784.62
639.45	781.14
639.80	777.01
640.14	773.21
640.49	769.38
640.83	765.54
641.17	761.84
641.52	758.15
641.86	754.26
642.20	750.78
642.55	746.83
642.89	742.82
643.23	738.84
643.58	735.40
643.92	731.45
644.26	727.50
644.61	723.94
644.95	720.21
645.29	716.01
645.64	711.91
645.98	708.13
646.32	704.67
646.66	700.80
647.01	697.14
647.35	693.44
647.69	689.70
648.04	686.30
648.38	682.51
648.72	678.32
649.06	674.65
649.41	670.85
649.75	666.96
650.09	663.05
650.43	659.30
650.78	655.23
651.12	651.39
651.46	647.71
651.80	643.83
652.14	640.06
652.49	636.55
652.83	633.03
653.17	629.33
653.51	625.46
653.85	621.56
654.20	617.81
654.54	614.02
654.88	610.21
655.22	606.26
655.56	602.39
655.90	599.06
656.25	595.31
656.59	591.72
656.93	588.27
657.27	584.82
657.61	581.19
657.95	577.99
658.29	574.71
658.64	571.21
658.98	567.73
659.32	564.24
659.66	560.88
660.00	557.57
660.34	554.22
660.68	550.97
661.02	547.83
661.36	544.77
661.70	541.67
662.05	538.72
662.39	535.99
662.73	533.14
663.07	530.19
663.41	527.49
663.75	524.54
664.09	521.74
664.43	518.87
664.77	516.26
665.11	513.40
665.45	510.85
665.79	508.25
666.13	505.55
666.47	503.03
666.81	500.32
667.15	497.61
667.49	495.03
667.83	492.48
668.17	489.87
668.51	487.29
668.85	484.79
669.19	482.48
669.53	479.74
669.87	477.19
670.21	474.84
670.55	472.24
670.89	469.90
671.23	467.61
671.57	465.27
671.91	462.79
672.25	460.35
672.58	458.11
672.92	455.77
673.26	453.67
673.60	451.48
673.94	449.50
674.28	447.55
674.62	445.61
674.96	443.43
675.30	441.43
675.64	439.36
675.97	437.24
676.31	434.94
676.65	433.09
676.99	431.14
677.33	429.02
677.67	426.97
678.01	424.92
678.34	422.90
678.68	421.13
679.02	419.07
679.36	417.20
679.70	415.22
680.04	413.33
680.37	411.34
680.71	409.58
681.05	407.89
681.39	405.97
681.73	404.10
682.06	402.45
682.40	400.66
682.74	398.89
683.08	397.33
683.42	395.71
683.75	393.84
684.09	392.19
684.43	390.65
684.77	389.05
685.10	387.45
685.44	385.77
685.78	384.08
686.12	382.80
686.45	381.15
686.79	379.42
687.13	377.91
687.46	376.38
687.80	374.62
688.14	372.74
688.48	371.20
688.81	369.70
689.15	368.25
689.49	366.75
689.82	365.36
690.16	363.73
690.50	362.46
690.83	361.21
691.17	359.68
691.51	358.16
691.84	356.85
692.18	355.34
692.52	353.92
692.85	352.46
693.19	351.05
693.52	349.92
693.86	348.63
694.20	347.21
694.53	345.89
694.87	344.56
695.21	343.34
695.54	342.02
695.88	340.59
696.21	339.13
696.55	337.91
696.88	336.51
697.22	335.36
697.56	334.00
697.89	332.70
698.23	331.64
698.56	330.46
698.90	329.31
699.23	328.10
699.57	326.92
699.90	325.81
700.24	324.65
700.58	323.35
700.91	322.14
701.25	321.05
701.58	320.10
701.92	319.01
702.25	317.97
702.59	316.90
702.92	316.03
703.26	315.01
703.59	314.03
703.93	313.26
704.26	312.31
704.60	311.28
704.93	310.30
705.26	309.40
705.60	308.57
705.93	307.67
706.27	306.97
706.60	306.26
706.94	305.45
707.27	304.50
707.61	303.76
707.94	303.10
708.27	302.17
708.61	301.25
708.94	300.63
709.28	299.80
709.61	299.13
709.94	298.29
710.28	297.63
710.61	296.91
710.95	296.07
711.28	295.34
711.61	294.61
711.95	293.90
712.28	293.02
712.61	292.22
712.95	291.61
713.28	290.90
713.61	290.15
713.95	289.33
714.28	288.59
714.61	287.80
714.95	287.10
715.28	286.55
715.61	285.86
715.95	285.25
716.28	284.61
716.61	283.95
716.95	283.28
717.28	282.63
717.61	281.95
717.94	281.28
718.28	280.54
718.61	279.88
718.94	279.18
719.27	278.73
719.61	278.06
719.94	277.28
720.27	276.60
720.60	276.04
720.94	275.61
721.27	275.15
721.60	274.70
721.93	274.12
722.27	273.55
722.60	273.03
722.93	272.45
723.26	272.05
723.59	271.52
723.93	271.10
724.26	270.72
724.59	270.33
724.92	269.99
725.25	269.64
725.59	269.24
725.92	268.90
726.25	268.25
726.58	267.90
726.91	267.48
727.24	267.15
727.57	266.72
727.91	266.30
728.24	265.85
728.57	265.37
728.90	265.00
729.23	264.66
729.56	264.37
729.89	263.95
730.22	263.54
730.55	263.10
730.89	262.70
731.22	262.30
731.55	261.91
731.88	261.41
732.21	260.98
732.54	260.57
732.87	260.22
733.20	260.03
733.53	259.65
733.86	259.40
734.19	258.94
734.52	258.55
734.85	258.30
735.18	257.94
735.51	257.73
735.84	257.45
736.17	257.19
736.50	256.74
736.83	256.67
737.16	256.29
737.49	255.99
737.82	255.78
738.15	255.54
738.48	255.15
738.81	254.90
739.14	254.71
739.47	254.51
739.80	254.24
740.13	253.88
740.46	253.65
740.79	253.40
741.12	253.21
741.45	253.04
741.78	252.71
742.11	252.54
742.44	252.21
742.77	251.93
743.10	251.68
743.43	251.39
743.75	250.96
744.08	251.06
744.41	250.80
744.74	250.50
745.07	250.14
745.40	249.97
745.73	249.77
746.06	249.36
746.39	249.12
746.71	248.91
747.04	248.70
747.37	248.44
747.70	248.21
748.03	247.98
748.36	247.72
748.68	247.57
749.01	247.36
749.34	247.17
749.67	247.08
750.00	246.79
750.33	246.83
750.65	246.61
750.98	246.17
751.31	245.98
751.64	245.80
751.97	245.77
752.29	245.55
752.62	245.34
752.95	245.21
753.28	245.02
753.60	244.82
753.93	244.69
754.26	244.47
754.59	244.15
754.91	243.85
755.24	243.71
755.57	243.38
755.90	243.19
756.22	243.08
756.55	242.74
756.88	242.58
757.20	242.25
757.53	241.94
757.86	241.73
758.19	241.63
758.51	241.40
758.84	241.10
759.17	240.88
759.49	240.62
759.82	240.60
760.15	240.49
760.47	240.25
760.80	240.04
761.13	239.94
761.45	239.82
761.78	239.81
762.11	239.64
762.43	239.53
762.76	239.52
763.08	239.29
763.41	239.21
763.74	239.09
764.06	238.91
764.39	238.83
764.71	238.73
765.04	238.55
765.37	238.39
765.69	238.27
766.02	238.23
766.34	238.18
766.67	237.90
767.00	237.76
767.32	237.70
767.65	237.79
767.97	237.67
768.30	237.65
768.62	237.52
768.95	237.32
769.27	237.18
769.60	236.99
769.92	236.88
770.25	236.79
770.57	236.67
770.90	236.58
771.22	236.49
771.55	236.40
771.87	236.33
772.20	236.32
772.52	236.31
772.85	236.34
773.17	236.25
773.50	236.24
773.82	236.13
774.15	236.04
774.47	235.86
774.80	235.74
775.12	235.53
775.45	235.48
775.77	235.50
776.09	235.32
776.42	235.20
776.74	235.14
777.07	234.96
777.39	234.87
777.72	234.70
778.04	234.74
778.36	234.64
778.69	234.49
779.01	234.42
779.33	234.23
779.66	233.95
779.98	233.83
780.31	233.76
780.63	233.66
780.95	233.61
781.28	233.51
781.60	233.46
781.92	233.40
782.25	233.22
782.57	233.08
782.89	233.16
783.22	233.13
783.54	233.08
783.86	233.20
784.19	233.11
784.51	233.22
784.83	233.04
785.16	232.92
785.48	233.00
785.80	232.96
786.12	232.98
786.45	233.03
786.77	233.01
787.09	233.10
787.42	233.16
787.74	233.09
788.06	233.03
788.38	233.04
788.71	233.05
789.03	233.08
789.35	233.09
789.67	233.05
789.99	233.04
790.32	232.93
790.64	232.70
790.96	232.86
791.28	232.75
791.61	232.81
791.93	232.83
792.25	232.72
792.57	232.80
792.89	232.72
793.21	232.75
793.54	232.83
793.86	232.64
794.18	232.55
794.50	232.59
794.82	232.61
795.14	232.55
795.47	232.57
795.79	232.58
796.11	232.67
796.43	232.69
796.75	232.72
797.07	232.70
797.39	232.74
797.71	232.65
798.04	232.66
798.36	232.70
798.68	232.70
799.00	232.79
799.32	232.80
799.64	232.87
799.96	232.90
800.28	232.83
800.60	232.84
800.92	232.90
801.24	232.80
801.56	232.68
801.89	232.70
802.21	232.69
802.53	232.67
802.85	232.62
803.17	232.68
803.49	232.57
803.81	232.62
804.13	232.67
804.45	232.57
804.77	232.52
805.09	232.40
805.41	232.34
805.73	232.21
806.05	232.04
806.37	231.90
806.69	231.75
807.01	231.79
807.33	231.72
807.65	231.56
807.97	231.67
808.28	231.69
808.60	231.65
808.92	231.53
809.24	231.64
809.56	231.53
809.88	231.32
810.20	231.21
810.52	231.10
810.84	231.00
811.16	230.97
811.48	230.89
811.80	230.90
812.12	230.85
812.43	230.82
812.75	230.82
813.07	230.77
813.39	230.71
813.71	230.55
814.03	230.51
814.35	230.51
814.67	230.32
814.98	230.20
815.30	230.10
815.62	230.08
815.94	229.74
816.26	229.80
816.58	229.71
816.89	229.74
817.21	229.72
817.53	229.69
817.85	229.61
818.17	229.60
818.48	229.52
818.80	229.59
819.12	229.59
819.44	229.50
819.76	229.50
820.07	229.51
820.39	229.35
820.71	229.40
821.03	229.28
821.34	229.26
821.66	229.30
821.98	229.40
822.30	229.38
822.61	229.65
822.93	229.53
823.25	229.54
823.57	229.44
823.88	229.56
824.20	229.53
824.52	229.58
824.83	229.67
825.15	229.61
825.47	229.56
825.79	229.62
826.10	229.49
826.42	229.43
826.74	229.50
827.05	229.62
827.37	229.53
827.69	229.62
828.00	229.61
828.32	229.63
828.64	229.54
828.95	229.68
829.27	229.57
829.58	229.56
829.90	229.61
830.22	229.70
830.53	229.62
830.85	229.58
831.17	229.47
831.48	229.39
831.80	229.50
832.11	229.51
832.43	229.43
832.75	229.56
833.06	229.67
833.38	229.64
833.69	229.62
834.01	229.66
834.32	229.60
834.64	229.70
834.96	229.66
835.27	229.73
835.59	229.65
835.90	229.70
836.22	229.63
836.53	229.59
836.85	229.60
837.16	229.73
837.48	229.80
837.79	229.91
838.11	229.96
838.42	229.93
838.74	230.02
839.05	229.96
839.37	229.93
839.68	229.87
840.00	229.85
840.31	229.85
840.63	229.84
840.94	229.83
841.26	229.75
841.57	229.76
841.88	229.75
842.20	229.64
842.51	229.60
842.83	229.76
843.14	229.93
843.46	229.91
843.77	229.87
844.08	229.80
844.40	229.71
844.71	229.62
845.03	229.62
845.34	229.45
845.65	229.43
845.97	229.36
846.28	229.30
846.60	229.21
846.91	229.18
847.22	229.17
847.54	229.20
847.85	229.10
848.16	229.12
848.48	228.97
848.79	229.07
849.10	228.96
849.42	228.87
849.73	228.71
850.04	228.60
850.36	228.49
850.67	228.52
850.98	228.51
851.30	228.46
851.61	228.41
851.92	228.38
852.23	228.46
852.55	228.62
852.86	228.68
853.17	228.64
853.49	228.63
853.80	228.63
854.11	228.63
854.42	228.71
854.74	228.65
855.05	228.62
855.36	228.55
855.67	228.53
855.99	228.50
856.30	228.74
856.61	228.75
856.92	228.73
857.23	228.74
857.55	228.66
857.86	228.73
858.17	228.69
858.48	228.76
858.79	228.71
859.11	228.62
859.42	228.55
859.73	228.62
860.04	228.56
860.35	228.50
860.66	228.44
860.98	228.34
861.29	228.39
861.60	228.44
861.91	228.50
862.22	228.53
862.53	228.54
862.84	228.25
863.16	228.29
863.47	228.16
863.78	228.05
864.09	228.15
864.40	228.13
864.71	228.16
865.02	228.17
865.33	228.18
865.64	228.19
865.95	228.21
866.27	228.35
866.58	228.37
866.89	228.47
867.20	228.58
867.51	228.70
867.82	228.64
868.13	228.72
868.44	228.72
868.75	228.79
869.06	228.77
869.37	228.86
869.68	228.87
869.99	229.01
870.30	229.15
870.61	229.25
870.92	229.33
871.23	229.26
871.54	229.22
871.85	229.29
872.16	229.20
872.47	229.16
872.78	229.00
873.09	229.09
873.40	229.00
873.71	228.89
874.02	228.96
874.33	229.00
874.64	228.92
874.95	229.06
875.26	228.97
875.56	228.96
875.87	228.93
876.18	228.96
876.49	229.13
876.80	229.06
877.11	229.02
877.42	228.88
877.73	228.96
878.04	228.90
878.35	228.84
878.66	229.03
878.96	229.09
879.27	229.05
879.58	229.01
879.89	229.03
880.20	229.10
880.51	229.12
880.82	229.08
881.12	229.17
881.43	229.00
881.74	228.98
882.05	228.93
882.36	228.93
882.67	228.90
882.97	228.73
883.28	228.63
883.59	228.62
883.90	228.73
884.21	228.74
884.51	228.80
884.82	228.66
885.13	228.53
885.44	228.50
885.74	228.48
886.05	228.51
886.36	228.47
886.67	228.37
886.98	228.29
887.28	228.33
887.59	228.25
887.90	228.10
888.20	228.11
888.51	228.07
888.82	228.00
889.13	228.00
889.43	228.08
889.74	228.09
890.05	228.01
890.35	227.98
890.66	227.83
890.97	227.79
891.28	227.80
891.58	227.70
891.89	227.67
892.20	227.62
892.50	227.62
892.81	227.58
893.12	227.48
893.42	227.42
893.73	227.43
894.04	227.42
894.34	227.57
894.65	227.56
894.95	227.71
895.26	227.77
895.57	227.84
895.87	227.65
896.18	227.69
896.48	227.71
896.79	227.65
897.10	227.80
897.40	227.74
897.71	227.77
898.01	227.86
898.32	227.90
898.63	227.97
898.93	227.94
899.24	228.03
899.54	228.10
899.85	228.10
900.15	228.02
900.46	228.05
900.76	228.06
901.07	228.02
901.38	227.98
901.68	227.95
901.99	227.83
902.29	227.92
902.60	227.91
902.90	227.87
903.21	227.90
903.51	227.80
903.82	227.93
904.12	227.99
904.43	228.06
904.73	228.13
905.03	228.16
905.34	228.41
905.64	228.42
905.95	228.41
906.25	228.48
906.56	228.56
906.86	228.49
907.17	228.49
907.47	228.63
907.77	228.56
908.08	228.57
908.38	228.60
908.69	228.63
908.99	228.70
909.30	228.72
909.60	228.76
909.90	228.89
910.21	228.73
910.51	228.72
910.81	228.68
911.12	228.64
911.42	228.70
911.73	228.47
912.03	228.37
912.33	228.50
912.64	228.43
912.94	228.34
913.24	228.43
913.55	228.52
913.85	228.44
914.15	228.49
914.46	228.47
914.76	228.37
915.06	228.34
915.37	228.38
915.67	228.41
915.97	228.39
916.27	228.32
916.58	228.36
916.88	228.38
917.18	228.33
917.49	228.39
917.79	228.36
918.09	228.30
918.39	228.51
918.70	228.40
919.00	228.43
919.30	228.60
919.60	228.57
919.91	228.46
920.21	228.45
920.51	228.46
920.81	228.45
921.12	228.57
921.42	228.52
921.72	228.49
922.02	228.50
922.32	228.50
922.63	228.41
922.93	228.62
923.23	228.59
923.53	228.42
923.83	228.29
924.13	228.22
924.44	228.29
924.74	228.17
925.04	228.29
925.34	228.20
925.64	228.03
925.94	227.96
926.24	227.96
926.55	227.90
926.85	227.78
927.15	227.78
927.45	227.80
927.75	227.75
928.05	227.69
928.35	227.62
928.65	227.62
928.95	227.61
929.26	227.50
929.56	227.54
929.86	227.64
930.16	227.60
930.46	227.60
930.76	227.65
931.06	227.66
931.36	227.55
931.66	227.65
931.96	227.75
932.26	227.90
932.56	227.91
932.86	228.00
933.16	228.04
933.46	228.14
933.76	228.05
934.06	228.20
934.36	228.24
934.66	228.23
934.96	228.27
935.26	228.34
935.56	228.31
935.86	228.27
936.16	228.40
936.46	228.51
936.76	228.50
937.06	228.44
937.36	228.46
937.66	228.45
937.96	228.46
938.26	228.40
938.56	228.30
938.86	228.24
939.16	228.17
939.46	228.30
939.76	228.27
940.06	228.23
940.35	228.20
940.65	228.16
940.95	228.31
941.25	228.23
941.55	228.30
941.85	228.30
942.15	228.43
942.45	228.45
942.75	228.36
943.04	228.43
943.34	228.50
943.64	228.39
943.94	228.45
944.24	228.42
944.54	228.53
944.84	228.59
945.13	228.65
945.43	228.76
945.73	228.66
946.03	228.65
946.33	228.80
946.62	228.73
946.92	228.70
947.22	228.60
947.52	228.68
947.82	228.68
948.11	228.80
948.41	228.72
948.71	228.67
949.01	228.77
949.31	228.74
949.60	228.64
949.90	228.72
950.20	228.69
950.50	228.68
950.79	228.57
951.09	228.58
951.39	228.53
951.69	228.49
951.98	228.66
952.28	228.71
952.58	228.68
952.87	228.74
953.17	228.81
953.47	228.79
953.76	228.67
954.06	228.62
954.36	228.51
954.66	228.54
954.95	228.52
955.25	228.56
955.55	228.62
955.84	228.68
956.14	228.71
956.44	228.69
956.73	228.84
957.03	228.93
957.32	228.91
957.62	228.92
957.92	228.91
958.21	228.76
958.51	228.90
958.81	228.86
959.10	228.80
959.40	228.91
959.69	228.97
959.99	229.00
960.29	228.89
960.58	228.88
960.88	228.86
961.17	228.82
961.47	228.77
961.76	228.64
962.06	228.65
962.36	228.66
962.65	228.67
962.95	228.58
963.24	228.51
963.54	228.55
963.83	228.60
964.13	228.61
964.42	228.52
964.72	228.32
965.01	228.21
965.31	228.37
965.60	228.27
965.90	228.40
966.19	228.41
966.49	228.53
966.78	228.49
967.08	228.52
967.37	228.55
967.67	228.46
967.96	228.55
968.26	228.51
968.55	228.45
968.85	228.38
969.14	228.35
969.43	228.31
969.73	228.27
970.02	228.12
970.32	228.00
970.61	228.06
970.91	228.05
971.20	228.16
971.49	228.08
971.79	228.09
972.08	227.84
972.38	227.91
972.67	227.93
972.96	227.98
973.26	227.89
973.55	227.96
973.85	227.96
974.14	227.91
974.43	227.88
974.73	227.85
975.02	227.95
975.31	227.87
975.61	227.85
975.90	227.80
976.19	227.98
976.49	228.09
976.78	228.08
977.07	228.05
977.37	228.06
977.66	228.10
977.95	228.02
978.24	228.16
978.54	228.23
978.83	228.10
979.12	228.19
979.42	228.18
979.71	228.22
980.00	228.25
980.29	228.26
980.59	228.22
980.88	228.36
981.17	228.39
981.46	228.43
981.76	228.43
982.05	228.49
982.34	228.47
982.63	228.44
982.93	228.50
983.22	228.68
983.51	228.62
983.80	228.63
984.09	228.72
984.39	228.68
984.68	228.57
984.97	228.64
985.26	228.58
985.55	228.59
985.85	228.49
986.14	228.61
986.43	228.69
986.72	228.77
987.01	228.65
987.30	228.72
987.59	228.71
987.89	228.76
988.18	228.73
988.47	228.65
988.76	228.70
989.05	228.52
989.34	228.31
989.63	228.47
989.92	228.45
990.22	228.34
990.51	228.25
990.80	228.30
991.09	228.26
991.38	228.31
991.67	228.28
991.96	228.29
992.25	228.22
992.54	228.20
992.83	228.19
993.12	228.19
993.41	228.03
993.70	228.10
993.99	228.13
994.28	228.11
994.58	228.18
994.87	228.04
995.16	228.14
995.45	228.22
995.74	228.04
996.03	228.03
996.32	228.05
996.61	228.09
996.90	228.04
997.19	228.06
997.48	227.99
997.77	228.00
998.06	227.96
998.34	227.90
998.63	227.81
998.92	227.83
999.21	227.83
999.50	227.92
999.79	228.00
1000.08	228.02
1000.37	228.02
1000.66	228.09
1000.95	228.26
1001.24	228.39
1001.53	228.45
1001.82	228.50
1002.11	228.39
1002.40	228.52
1002.68	228.53
1002.97	228.62
1003.26	228.65
1003.55	228.63
1003.84	228.63
1004.13	228.70
1004.42	228.76
1004.71	228.74
1004.99	228.75
1005.28	228.75
1005.57	228.68
1005.86	228.50
1006.15	228.41
1006.44	228.44
1006.72	228.40
1007.01	228.33
1007.30	228.31
1007.59	228.25
1007.88	228.22
1008.17	228.27
1008.45	228.20
1008.74	228.11
1009.03	228.11
1009.32	228.03
1009.60	228.02
1009.89	228.10
1010.18	228.09
1010.47	228.08
1010.76	228.24
1011.04	228.20
1011.33	228.30
1011.62	228.31
1011.91	228.35
1012.19	228.44
1012.48	228.50
1012.77	228.58
1013.05	228.70
1013.34	228.68
1013.63	228.72
1013.92	228.74
1014.20	228.79
1014.49	228.74
1014.78	228.82
1015.06	228.70
1015.35	228.76
1015.64	228.76
1015.92	228.69
1016.21	228.66
1016.50	228.61
1016.78	228.48
1017.07	228.51
1017.36	228.33
1017.64	228.34
1017.93	228.39
1018.22	228.30
1018.50	228.21
1018.79	228.11
1019.08	228.06
1019.36	228.00
1019.65	227.95
1019.93	227.97
1020.22	227.94
1020.51	228.02
1020.79	228.07
1021.08	227.60
1021.36	227.80
1021.65	228.60
1021.94	229.30
1022.22	227.40
1022.51	228.40
1022.79	227.80
1023.08	228.10
1023.36	229.50
1023.65	229.30
>>>>>End Processed Spectral Data<<<<<
