SpectraSuite Data File
++++++++++++++++++++++++++++++++++++
Date: Fri Feb 01 14:41:40 EST 2013
User: group
Dark Spectrum Present: No
Reference Spectrum Present: No
Number of Sampled Component Spectra: 1
Spectrometers: USB2E7196
Integration Time (usec): 70000 (USB2E7196)
Spectra Averaged: 10 (USB2E7196)
Boxcar Smoothing: 10 (USB2E7196)
Correct for Electrical Dark: No (USB2E7196)
Strobe/Lamp Enabled: No (USB2E7196)
Correct for Detector Non-linearity: No (USB2E7196)
Correct for Stray Light: No (USB2E7196)
Number of Pixels in Processed Spectrum: 2048
>>>>>Begin Processed Spectral Data<<<<<
339.09	0.00
339.48	217.80
339.86	218.40
340.24	220.00
340.63	221.10
341.01	222.60
341.39	223.30
341.78	225.10
342.16	227.80
342.54	226.00
342.93	215.33
343.31	226.14
343.69	226.68
344.07	227.12
344.46	227.58
344.84	227.97
345.22	228.24
345.60	228.59
345.99	228.80
346.37	228.88
346.75	229.05
347.13	229.10
347.52	229.20
347.90	229.26
348.28	229.28
348.66	229.38
349.05	229.30
349.43	229.27
349.81	229.33
350.19	229.41
350.57	229.50
350.96	229.50
351.34	229.74
351.72	229.82
352.10	229.97
352.48	230.03
352.87	230.02
353.25	230.11
353.63	230.08
354.01	230.04
354.39	230.09
354.77	230.12
355.15	230.22
355.54	230.15
355.92	230.06
356.30	230.15
356.68	230.25
357.06	230.35
357.44	230.36
357.82	230.39
358.20	230.40
358.58	230.49
358.97	230.56
359.35	230.53
359.73	230.51
360.11	230.49
360.49	230.50
360.87	230.53
361.25	230.51
361.63	230.65
362.01	230.78
362.39	230.72
362.77	230.74
363.15	230.81
363.53	230.90
363.91	230.90
364.29	230.87
364.67	230.64
365.05	230.57
365.43	230.56
365.81	230.62
366.19	230.60
366.57	230.63
366.95	230.64
367.33	230.53
367.71	230.51
368.09	230.49
368.47	230.43
368.85	230.48
369.23	230.46
369.61	230.28
369.99	230.23
370.37	230.21
370.75	230.20
371.13	230.10
371.51	229.95
371.89	230.00
372.27	229.96
372.65	229.92
373.03	229.96
373.41	229.90
373.78	229.73
374.16	229.63
374.54	229.44
374.92	229.37
375.30	229.25
375.68	229.20
376.06	229.12
376.44	229.17
376.82	229.13
377.19	229.05
377.57	228.95
377.95	228.81
378.33	228.79
378.71	228.67
379.09	228.60
379.47	228.58
379.84	228.56
380.22	228.47
380.60	228.41
380.98	228.24
381.36	228.20
381.73	228.15
382.11	228.08
382.49	228.11
382.87	227.99
383.25	228.06
383.62	228.24
384.00	228.14
384.38	227.97
384.76	227.87
385.13	227.96
385.51	227.93
385.89	227.92
386.27	227.88
386.64	227.82
387.02	227.76
387.40	227.64
387.78	227.58
388.15	227.59
388.53	227.62
388.91	227.65
389.29	227.60
389.66	227.59
390.04	227.58
390.42	227.62
390.79	227.61
391.17	227.56
391.55	227.30
391.92	227.36
392.30	227.33
392.68	227.38
393.05	227.43
393.43	227.43
393.81	227.44
394.18	227.50
394.56	227.61
394.94	227.75
395.31	227.78
395.69	227.79
396.06	227.85
396.44	227.83
396.82	227.90
397.19	228.11
397.57	228.24
397.95	228.35
398.32	228.30
398.70	228.40
399.07	228.49
399.45	228.55
399.82	228.61
400.20	228.71
400.58	228.80
400.95	228.80
401.33	228.99
401.70	229.38
402.08	229.46
402.45	229.50
402.83	229.66
403.20	229.96
403.58	230.22
403.95	230.43
404.33	230.64
404.71	230.71
405.08	231.02
405.46	231.09
405.83	231.39
406.21	231.49
406.58	231.79
406.96	232.01
407.33	232.30
407.70	232.53
408.08	232.89
408.45	233.13
408.83	233.48
409.20	233.78
409.58	233.86
409.95	234.24
410.33	234.62
410.70	234.85
411.08	235.22
411.45	235.52
411.82	235.90
412.20	236.43
412.57	237.03
412.95	237.34
413.32	237.88
413.69	238.37
414.07	239.13
414.44	239.71
414.82	240.37
415.19	241.17
415.56	241.95
415.94	242.70
416.31	243.55
416.68	244.38
417.06	245.25
417.43	246.13
417.81	247.13
418.18	248.22
418.55	249.52
418.93	250.63
419.30	251.92
419.67	253.17
420.04	254.38
420.42	255.79
420.79	257.40
421.16	259.09
421.54	260.63
421.91	262.24
422.28	263.94
422.66	265.75
423.03	267.53
423.40	269.39
423.77	271.30
424.15	273.21
424.52	275.16
424.89	277.40
425.26	279.58
425.64	281.63
426.01	283.81
426.38	285.96
426.75	288.27
427.13	290.55
427.50	293.16
427.87	295.64
428.24	298.11
428.61	300.43
428.99	303.07
429.36	305.94
429.73	308.78
430.10	311.41
430.47	314.23
430.85	316.98
431.22	319.84
431.59	323.07
431.96	326.03
432.33	329.41
432.70	332.73
433.08	336.49
433.45	339.95
433.82	343.49
434.19	347.46
434.56	351.21
434.93	354.79
435.30	358.11
435.68	362.11
436.05	365.84
436.42	369.53
436.79	372.95
437.16	376.52
437.53	380.35
437.90	384.15
438.27	387.83
438.64	391.77
439.01	395.39
439.38	398.32
439.75	401.32
440.13	404.60
440.50	407.66
440.87	410.13
441.24	412.76
441.61	415.56
441.98	417.55
442.35	420.04
442.72	422.62
443.09	425.20
443.46	426.46
443.83	427.33
444.20	428.05
444.57	429.10
444.94	429.64
445.31	430.14
445.68	430.84
446.05	430.76
446.42	430.08
446.79	429.50
447.16	429.02
447.53	428.54
447.90	426.98
448.27	425.36
448.64	423.17
449.01	421.66
449.37	418.85
449.74	416.12
450.11	413.01
450.48	409.62
450.85	406.09
451.22	403.15
451.59	400.39
451.96	397.67
452.33	394.00
452.70	390.80
453.07	386.87
453.43	382.76
453.80	379.18
454.17	375.54
454.54	371.98
454.91	368.39
455.28	364.81
455.65	361.38
456.02	358.12
456.38	355.24
456.75	351.62
457.12	348.64
457.49	345.81
457.86	342.79
458.23	340.20
458.59	337.47
458.96	334.73
459.33	332.20
459.70	329.79
460.07	327.82
460.43	325.32
460.80	323.12
461.17	321.11
461.54	319.06
461.91	317.19
462.27	315.26
462.64	313.26
463.01	311.36
463.38	309.71
463.74	307.71
464.11	306.14
464.48	304.60
464.85	303.16
465.21	301.75
465.58	300.62
465.95	299.17
466.32	297.90
466.68	296.57
467.05	295.36
467.42	294.12
467.78	292.72
468.15	291.50
468.52	290.64
468.88	289.46
469.25	288.20
469.62	287.30
469.98	286.34
470.35	285.55
470.72	284.72
471.08	283.69
471.45	282.90
471.82	282.09
472.18	281.27
472.55	280.69
472.92	279.93
473.28	279.18
473.65	278.33
474.02	277.59
474.38	277.09
474.75	276.54
475.11	275.92
475.48	275.58
475.85	275.12
476.21	274.58
476.58	274.17
476.94	274.00
477.31	273.60
477.67	273.20
478.04	272.89
478.41	272.59
478.77	272.71
479.14	272.49
479.50	272.47
479.87	272.45
480.23	272.24
480.60	272.19
480.96	272.07
481.33	272.33
481.69	272.41
482.06	272.40
482.42	272.59
482.79	272.79
483.15	272.94
483.52	273.34
483.88	273.62
484.25	274.08
484.61	274.38
484.98	274.67
485.34	275.28
485.71	275.91
486.07	276.44
486.44	276.75
486.80	277.41
487.17	277.86
487.53	278.58
487.90	279.45
488.26	280.38
488.62	281.40
488.99	282.27
489.35	283.35
489.72	284.50
490.08	285.66
490.44	286.91
490.81	288.37
491.17	289.84
491.54	291.30
491.90	292.74
492.26	294.52
492.63	296.51
492.99	298.26
493.36	300.25
493.72	302.49
494.08	304.75
494.45	307.07
494.81	309.70
495.17	312.35
495.54	315.26
495.90	318.30
496.26	321.40
496.63	324.62
496.99	327.95
497.35	331.55
497.72	335.17
498.08	339.02
498.44	343.08
498.80	347.27
499.17	351.73
499.53	356.52
499.89	361.40
500.26	366.41
500.62	371.69
500.98	377.20
501.34	383.05
501.71	388.95
502.07	395.22
502.43	401.59
502.79	408.10
503.16	414.81
503.52	421.96
503.88	429.29
504.24	437.04
504.60	444.99
504.97	453.19
505.33	461.67
505.69	470.66
506.05	479.71
506.41	489.08
506.78	498.55
507.14	508.30
507.50	518.67
507.86	529.15
508.22	540.10
508.59	551.10
508.95	562.54
509.31	574.30
509.67	586.55
510.03	598.94
510.39	611.67
510.75	624.95
511.12	638.14
511.48	651.69
511.84	665.61
512.20	679.69
512.56	694.41
512.92	709.33
513.28	724.54
513.64	740.02
514.00	755.46
514.37	771.75
514.73	788.03
515.09	804.22
515.45	821.07
515.81	838.07
516.17	855.52
516.53	873.10
516.89	891.04
517.25	908.82
517.61	926.99
517.97	945.34
518.33	963.72
518.69	982.60
519.05	1002.25
519.41	1021.44
519.77	1041.38
520.13	1061.33
520.49	1081.00
520.85	1101.13
521.21	1121.22
521.57	1142.14
521.93	1162.22
522.29	1183.40
522.65	1204.27
523.01	1224.85
523.37	1245.46
523.73	1266.44
524.09	1287.10
524.45	1308.35
524.81	1330.11
525.17	1352.18
525.53	1374.22
525.89	1396.13
526.25	1418.09
526.61	1439.10
526.97	1461.29
527.33	1483.34
527.68	1505.33
528.04	1527.59
528.40	1549.58
528.76	1572.06
529.12	1594.19
529.48	1616.69
529.84	1638.25
530.20	1660.50
530.56	1683.50
530.91	1707.47
531.27	1730.09
531.63	1752.78
531.99	1774.83
532.35	1796.52
532.71	1817.78
533.07	1839.83
533.42	1861.78
533.78	1883.83
534.14	1905.67
534.50	1926.19
534.86	1947.46
535.21	1967.95
535.57	1989.45
535.93	2010.59
536.29	2031.29
536.65	2052.12
537.00	2072.58
537.36	2093.54
537.72	2113.52
538.08	2133.18
538.44	2151.42
538.79	2170.76
539.15	2189.97
539.51	2209.78
539.87	2229.64
540.22	2248.61
540.58	2267.61
540.94	2285.81
541.29	2303.52
541.65	2321.71
542.01	2340.42
542.37	2358.15
542.72	2375.80
543.08	2392.51
543.44	2409.02
543.79	2424.71
544.15	2441.17
544.51	2458.02
544.87	2474.01
545.22	2489.78
545.58	2505.14
545.94	2519.50
546.29	2533.79
546.65	2547.51
547.01	2561.17
547.36	2574.26
547.72	2587.38
548.07	2600.11
548.43	2612.89
548.79	2625.66
549.14	2637.38
549.50	2648.85
549.86	2659.54
550.21	2670.29
550.57	2681.85
550.92	2692.66
551.28	2703.69
551.64	2713.63
551.99	2723.97
552.35	2733.33
552.70	2742.95
553.06	2753.07
553.41	2763.57
553.77	2773.65
554.13	2783.66
554.48	2792.62
554.84	2801.28
555.19	2810.15
555.55	2818.11
555.90	2825.21
556.26	2832.73
556.61	2840.60
556.97	2847.99
557.32	2855.45
557.68	2862.99
558.03	2869.80
558.39	2877.03
558.74	2884.85
559.10	2891.39
559.45	2897.17
559.81	2904.51
560.16	2910.47
560.52	2915.57
560.87	2921.74
561.23	2926.17
561.58	2931.59
561.94	2936.21
562.29	2940.50
562.64	2944.56
563.00	2949.09
563.35	2955.32
563.71	2960.50
564.06	2965.33
564.42	2969.87
564.77	2974.32
565.12	2979.16
565.48	2982.79
565.83	2985.66
566.19	2988.00
566.54	2990.81
566.89	2992.82
567.25	2994.21
567.60	2997.23
567.96	2998.84
568.31	2999.45
568.66	3000.77
569.02	3001.70
569.37	3002.27
569.72	3003.98
570.08	3005.00
570.43	3005.29
570.78	3004.01
571.14	3002.19
571.49	3001.30
571.84	3002.12
572.20	3000.40
572.55	2998.20
572.90	2995.72
573.26	2994.29
573.61	2992.21
573.96	2989.77
574.31	2986.87
574.67	2983.22
575.02	2979.30
575.37	2976.33
575.72	2972.00
576.08	2968.87
576.43	2964.60
576.78	2961.18
577.13	2956.69
577.49	2952.60
577.84	2948.18
578.19	2944.20
578.54	2939.50
578.90	2934.01
579.25	2926.50
579.60	2920.81
579.95	2914.50
580.30	2908.47
580.66	2901.71
581.01	2895.03
581.36	2888.95
581.71	2883.51
582.06	2878.15
582.42	2871.06
582.77	2864.18
583.12	2858.19
583.47	2851.99
583.82	2845.76
584.17	2838.77
584.53	2831.98
584.88	2824.65
585.23	2817.61
585.58	2810.34
585.93	2804.20
586.28	2798.13
586.63	2791.89
586.98	2785.85
587.34	2779.20
587.69	2772.55
588.04	2766.15
588.39	2759.79
588.74	2751.54
589.09	2743.18
589.44	2734.54
589.79	2727.63
590.14	2720.73
590.49	2712.87
590.84	2704.62
591.19	2696.54
591.54	2687.27
591.89	2677.12
592.25	2668.44
592.60	2658.68
592.95	2648.83
593.30	2638.95
593.65	2628.80
594.00	2619.17
594.35	2609.86
594.70	2599.79
595.05	2590.54
595.40	2580.36
595.75	2570.01
596.10	2561.21
596.45	2553.04
596.80	2544.46
597.15	2535.64
597.50	2525.38
597.85	2516.62
598.19	2507.78
598.54	2498.98
598.89	2490.87
599.24	2483.85
599.59	2475.43
599.94	2467.21
600.29	2459.05
600.64	2450.55
600.99	2440.72
601.34	2431.70
601.69	2422.29
602.04	2414.02
602.39	2405.02
602.74	2396.80
603.08	2388.77
603.43	2379.80
603.78	2370.31
604.13	2361.19
604.48	2351.27
604.83	2342.70
605.18	2333.67
605.53	2323.19
605.87	2312.45
606.22	2303.06
606.57	2292.80
606.92	2283.06
607.27	2274.10
607.62	2265.06
607.96	2255.51
608.31	2246.95
608.66	2236.85
609.01	2226.49
609.36	2215.73
609.70	2204.51
610.05	2193.55
610.40	2182.41
610.75	2171.66
611.10	2160.54
611.44	2148.84
611.79	2138.52
612.14	2127.35
612.49	2115.21
612.83	2103.94
613.18	2093.44
613.53	2082.20
613.88	2070.58
614.22	2059.30
614.57	2047.13
614.92	2035.83
615.27	2025.15
615.61	2013.89
615.96	2003.35
616.31	1992.93
616.65	1983.64
617.00	1974.13
617.35	1963.68
617.70	1953.11
618.04	1942.04
618.39	1931.84
618.74	1922.12
619.08	1910.91
619.43	1900.81
619.78	1891.35
620.12	1881.77
620.47	1871.34
620.82	1861.09
621.16	1851.24
621.51	1841.34
621.85	1831.49
622.20	1820.55
622.55	1810.01
622.89	1800.26
623.24	1790.52
623.59	1781.18
623.93	1770.69
624.28	1760.55
624.62	1750.52
624.97	1741.16
625.32	1731.90
625.66	1722.21
626.01	1712.45
626.35	1703.02
626.70	1693.11
627.04	1683.80
627.39	1673.48
627.73	1663.81
628.08	1654.33
628.43	1644.12
628.77	1634.21
629.12	1624.16
629.46	1614.69
629.81	1604.35
630.15	1593.78
630.50	1583.40
630.84	1572.09
631.19	1561.45
631.53	1551.40
631.88	1541.10
632.22	1530.16
632.57	1520.48
632.91	1510.26
633.26	1500.18
633.60	1489.80
633.95	1479.80
634.29	1469.68
634.64	1460.47
634.98	1450.57
635.32	1441.18
635.67	1432.74
636.01	1423.90
636.36	1414.80
636.70	1405.66
637.05	1397.39
637.39	1389.10
637.73	1380.30
638.08	1372.57
638.42	1364.42
638.77	1355.66
639.11	1347.01
639.45	1338.99
639.80	1329.80
640.14	1321.22
640.49	1312.85
640.83	1304.34
641.17	1295.85
641.52	1287.25
641.86	1278.68
642.20	1270.82
642.55	1261.82
642.89	1253.09
643.23	1243.92
643.58	1236.26
643.92	1227.66
644.26	1218.81
644.61	1210.76
644.95	1202.32
645.29	1193.05
645.64	1184.20
645.98	1175.90
646.32	1167.88
646.66	1159.13
647.01	1150.85
647.35	1142.90
647.69	1134.28
648.04	1126.64
648.38	1118.21
648.72	1109.49
649.06	1101.10
649.41	1092.65
649.75	1084.31
650.09	1075.87
650.43	1068.13
650.78	1059.07
651.12	1051.04
651.46	1043.02
651.80	1034.71
652.14	1026.89
652.49	1019.58
652.83	1012.09
653.17	1003.72
653.51	995.78
653.85	988.38
654.20	980.74
654.54	972.52
654.88	964.91
655.22	956.90
655.56	949.20
655.90	941.97
656.25	934.63
656.59	927.09
656.93	920.24
657.27	913.14
657.61	905.41
657.95	898.90
658.29	891.97
658.64	884.93
658.98	877.50
659.32	870.36
659.66	863.13
660.00	856.03
660.34	849.41
660.68	842.60
661.02	835.50
661.36	829.12
661.70	822.78
662.05	816.92
662.39	811.04
662.73	805.13
663.07	799.42
663.41	793.59
663.75	787.97
664.09	781.87
664.43	775.97
664.77	770.28
665.11	764.33
665.45	758.87
665.79	753.18
666.13	747.75
666.47	742.24
666.81	736.61
667.15	730.92
667.49	725.63
667.83	720.35
668.17	715.41
668.51	709.80
668.85	704.40
669.19	699.01
669.53	693.90
669.87	688.68
670.21	683.40
670.55	678.44
670.89	673.55
671.23	668.90
671.57	664.19
671.91	659.58
672.25	654.90
672.58	650.22
672.92	645.59
673.26	641.44
673.60	637.08
673.94	632.98
674.28	629.06
674.62	625.06
674.96	620.71
675.30	616.72
675.64	613.02
675.97	609.18
676.31	605.08
676.65	601.10
676.99	597.29
677.33	593.35
677.67	589.32
678.01	585.20
678.34	581.21
678.68	577.50
679.02	573.71
679.36	569.90
679.70	566.13
680.04	562.57
680.37	558.60
680.71	554.96
681.05	551.50
681.39	547.93
681.73	544.41
682.06	541.27
682.40	537.71
682.74	534.33
683.08	531.10
683.42	527.64
683.75	524.32
684.09	520.89
684.43	517.54
684.77	514.33
685.10	511.04
685.44	507.82
685.78	504.63
686.12	501.51
686.45	498.47
686.79	495.14
687.13	492.04
687.46	488.99
687.80	485.86
688.14	482.62
688.48	479.70
688.81	476.60
689.15	473.66
689.49	470.55
689.82	467.64
690.16	464.72
690.50	462.12
690.83	459.26
691.17	456.46
691.51	453.86
691.84	451.26
692.18	448.66
692.52	445.98
692.85	443.27
693.19	440.73
693.52	438.04
693.86	435.58
694.20	433.12
694.53	430.70
694.87	428.30
695.21	425.71
695.54	423.16
695.88	420.67
696.21	418.09
696.55	415.86
696.88	413.49
697.22	411.20
697.56	409.01
697.89	406.78
698.23	404.63
698.56	402.34
698.90	400.06
699.23	397.82
699.57	395.65
699.90	393.52
700.24	391.41
700.58	389.59
700.91	387.47
701.25	385.40
701.58	383.51
701.92	381.50
702.25	379.73
702.59	377.87
702.92	376.21
703.26	374.43
703.59	372.60
703.93	370.94
704.26	368.96
704.60	367.00
704.93	365.19
705.26	363.35
705.60	361.73
705.93	360.15
706.27	358.70
706.60	357.28
706.94	355.71
707.27	353.97
707.61	352.37
707.94	350.96
708.27	349.49
708.61	347.87
708.94	346.43
709.28	345.20
709.61	343.89
709.94	342.48
710.28	341.27
710.61	339.94
710.95	338.51
711.28	337.52
711.61	336.12
711.95	334.97
712.28	333.72
712.61	332.38
712.95	331.25
713.28	330.04
713.61	328.73
713.95	327.53
714.28	326.48
714.61	325.21
714.95	324.07
715.28	322.91
715.61	321.78
715.95	320.76
716.28	319.52
716.61	318.39
716.95	317.40
717.28	316.39
717.61	315.36
717.94	314.31
718.28	313.20
718.61	312.36
718.94	311.39
719.27	310.52
719.61	309.68
719.94	308.65
720.27	307.66
720.60	306.70
720.94	305.91
721.27	305.19
721.60	304.40
721.93	303.61
722.27	302.80
722.60	302.05
722.93	301.27
723.26	300.52
723.59	299.70
723.93	298.90
724.26	298.07
724.59	297.32
724.92	296.67
725.25	295.90
725.59	295.16
725.92	294.36
726.25	293.69
726.58	292.87
726.91	292.16
727.24	291.49
727.57	290.90
727.91	290.04
728.24	289.19
728.57	288.45
728.90	287.85
729.23	287.19
729.56	286.52
729.89	285.81
730.22	285.09
730.55	284.42
730.89	283.76
731.22	282.99
731.55	282.42
731.88	281.79
732.21	281.21
732.54	280.53
732.87	279.95
733.20	279.19
733.53	278.74
733.86	278.19
734.19	277.48
734.52	276.88
734.85	276.44
735.18	275.86
735.51	275.33
735.84	274.73
736.17	274.11
736.50	273.54
736.83	273.15
737.16	272.72
737.49	272.21
737.82	271.65
738.15	271.20
738.48	270.57
738.81	270.08
739.14	269.48
739.47	269.06
739.80	268.54
740.13	268.20
740.46	267.68
740.79	267.18
741.12	266.89
741.45	266.40
741.78	265.96
742.11	265.61
742.44	265.05
742.77	264.65
743.10	264.24
743.43	263.70
743.75	263.04
744.08	262.84
744.41	262.44
744.74	262.09
745.07	261.77
745.40	261.53
745.73	261.12
746.06	260.73
746.39	260.36
746.71	259.96
747.04	259.50
747.37	259.09
747.70	258.75
748.03	258.26
748.36	258.00
748.68	257.59
749.01	257.20
749.34	256.92
749.67	256.54
750.00	256.30
750.33	256.19
750.65	255.89
750.98	255.34
751.31	255.00
751.64	254.68
751.97	254.35
752.29	254.02
752.62	253.68
752.95	253.40
753.28	253.18
753.60	252.91
753.93	252.74
754.26	252.38
754.59	252.09
754.91	251.92
755.24	251.65
755.57	251.41
755.90	251.10
756.22	251.00
756.55	250.73
756.88	250.44
757.20	249.97
757.53	249.78
757.86	249.53
758.19	249.41
758.51	249.24
758.84	249.09
759.17	248.82
759.49	248.62
759.82	248.48
760.15	248.24
760.47	248.07
760.80	247.81
761.13	247.73
761.45	247.44
761.78	247.20
762.11	247.03
762.43	246.85
762.76	246.61
763.08	246.37
763.41	246.25
763.74	246.01
764.06	245.93
764.39	245.77
764.71	245.52
765.04	245.32
765.37	245.21
765.69	245.00
766.02	244.83
766.34	244.54
766.67	244.29
767.00	244.10
767.32	244.04
767.65	243.89
767.97	243.72
768.30	243.72
768.62	243.42
768.95	243.14
769.27	243.01
769.60	242.98
769.92	242.80
770.25	242.63
770.57	242.47
770.90	242.27
771.22	242.04
771.55	241.97
771.87	241.72
772.20	241.50
772.52	241.49
772.85	241.47
773.17	241.39
773.50	241.20
773.82	241.00
774.15	240.72
774.47	240.50
774.80	240.30
775.12	240.05
775.45	240.00
775.77	239.90
776.09	239.65
776.42	239.49
776.74	239.32
777.07	239.07
777.39	238.92
777.72	238.86
778.04	238.68
778.36	238.41
778.69	238.36
779.01	238.11
779.33	237.85
779.66	237.57
779.98	237.33
780.31	237.21
780.63	237.12
780.95	237.00
781.28	236.84
781.60	236.70
781.92	236.59
782.25	236.47
782.57	236.25
782.89	236.16
783.22	236.04
783.54	235.79
783.86	235.73
784.19	235.57
784.51	235.44
784.83	235.44
785.16	235.40
785.48	235.32
785.80	235.29
786.12	235.10
786.45	235.10
786.77	235.11
787.09	235.12
787.42	235.10
787.74	234.97
788.06	234.91
788.38	234.84
788.71	234.70
789.03	234.66
789.35	234.70
789.67	234.63
789.99	234.62
790.32	234.67
790.64	234.63
790.96	234.91
791.28	234.76
791.61	234.69
791.93	234.67
792.25	234.53
792.57	234.62
792.89	234.54
793.21	234.43
793.54	234.35
793.86	234.30
794.18	234.20
794.50	234.19
794.82	234.22
795.14	234.29
795.47	234.48
795.79	234.33
796.11	234.34
796.43	234.39
796.75	234.39
797.07	234.30
797.39	234.28
797.71	234.04
798.04	234.17
798.36	234.12
798.68	234.05
799.00	234.10
799.32	233.89
799.64	233.95
799.96	233.97
800.28	234.03
800.60	233.90
800.92	233.90
801.24	233.84
801.56	233.85
801.89	233.83
802.21	233.64
802.53	233.70
802.85	233.69
803.17	233.69
803.49	233.49
803.81	233.57
804.13	233.57
804.45	233.44
804.77	233.33
805.09	233.34
805.41	233.35
805.73	233.23
806.05	233.20
806.37	233.10
806.69	233.04
807.01	232.99
807.33	233.12
807.65	232.93
807.97	233.01
808.28	232.89
808.60	232.79
808.92	232.70
809.24	232.80
809.56	232.68
809.88	232.58
810.20	232.61
810.52	232.60
810.84	232.47
811.16	232.41
811.48	232.40
811.80	232.37
812.12	232.30
812.43	232.35
812.75	232.34
813.07	232.29
813.39	232.22
813.71	232.15
814.03	231.98
814.35	232.01
814.67	231.96
814.98	231.95
815.30	231.88
815.62	231.83
815.94	231.60
816.26	231.52
816.58	231.44
816.89	231.43
817.21	231.21
817.53	231.20
817.85	231.13
818.17	231.00
818.48	230.90
818.80	230.90
819.12	230.81
819.44	230.78
819.76	230.75
820.07	230.66
820.39	230.60
820.71	230.51
821.03	230.43
821.34	230.27
821.66	230.22
821.98	230.17
822.30	230.08
822.61	230.22
822.93	230.21
823.25	230.10
823.57	230.07
823.88	230.18
824.20	230.10
824.52	230.24
824.83	230.24
825.15	230.18
825.47	230.13
825.79	230.03
826.10	229.97
826.42	229.96
826.74	229.93
827.05	229.88
827.37	230.01
827.69	230.01
828.00	229.99
828.32	230.02
828.64	230.14
828.95	230.24
829.27	230.16
829.58	230.15
829.90	230.22
830.22	230.16
830.53	230.06
830.85	230.09
831.17	229.97
831.48	230.03
831.80	230.04
832.11	230.12
832.43	230.18
832.75	230.24
833.06	230.28
833.38	230.32
833.69	230.40
834.01	230.40
834.32	230.44
834.64	230.48
834.96	230.47
835.27	230.40
835.59	230.38
835.90	230.35
836.22	230.34
836.53	230.34
836.85	230.41
837.16	230.62
837.48	230.65
837.79	230.72
838.11	230.76
838.42	230.69
838.74	230.66
839.05	230.64
839.37	230.61
839.68	230.58
840.00	230.55
840.31	230.57
840.63	230.50
840.94	230.49
841.26	230.49
841.57	230.51
841.88	230.52
842.20	230.51
842.51	230.53
842.83	230.54
843.14	230.72
843.46	230.72
843.77	230.53
844.08	230.49
844.40	230.40
844.71	230.31
845.03	230.43
845.34	230.43
845.65	230.42
845.97	230.39
846.28	230.51
846.60	230.57
846.91	230.51
847.22	230.55
847.54	230.55
847.85	230.57
848.16	230.54
848.48	230.49
848.79	230.60
849.10	230.62
849.42	230.55
849.73	230.30
850.04	230.26
850.36	230.25
850.67	230.36
850.98	230.33
851.30	230.39
851.61	230.24
851.92	230.20
852.23	230.22
852.55	230.23
852.86	230.04
853.17	229.94
853.49	230.01
853.80	229.90
854.11	229.94
854.42	229.90
854.74	229.80
855.05	229.77
855.36	229.60
855.67	229.45
855.99	229.45
856.30	229.63
856.61	229.63
856.92	229.62
857.23	229.41
857.55	229.36
857.86	229.35
858.17	229.37
858.48	229.23
858.79	229.19
859.11	229.16
859.42	229.13
859.73	229.19
860.04	229.09
860.35	228.94
860.66	228.80
860.98	228.81
861.29	228.89
861.60	228.85
861.91	228.88
862.22	228.86
862.53	228.86
862.84	228.73
863.16	228.60
863.47	228.56
863.78	228.68
864.09	228.71
864.40	228.66
864.71	228.69
865.02	228.72
865.33	228.66
865.64	228.67
865.95	228.60
866.27	228.70
866.58	228.58
866.89	228.68
867.20	228.63
867.51	228.53
867.82	228.50
868.13	228.62
868.44	228.53
868.75	228.70
869.06	228.68
869.37	228.70
869.68	228.68
869.99	228.78
870.30	228.72
870.61	228.72
870.92	228.70
871.23	228.77
871.54	228.80
871.85	228.91
872.16	228.88
872.47	229.00
872.78	228.81
873.09	228.94
873.40	229.02
873.71	229.09
874.02	229.18
874.33	229.14
874.64	228.97
874.95	229.09
875.26	229.02
875.56	229.01
875.87	229.01
876.18	229.10
876.49	229.27
876.80	229.29
877.11	229.18
877.42	229.28
877.73	229.20
878.04	229.24
878.35	229.30
878.66	229.38
878.96	229.42
879.27	229.54
879.58	229.51
879.89	229.53
880.20	229.67
880.51	229.70
880.82	229.73
881.12	229.82
881.43	229.76
881.74	229.73
882.05	229.80
882.36	229.81
882.67	229.77
882.97	229.58
883.28	229.50
883.59	229.55
883.90	229.48
884.21	229.43
884.51	229.38
884.82	229.32
885.13	229.29
885.44	229.32
885.74	229.29
886.05	229.43
886.36	229.38
886.67	229.37
886.98	229.43
887.28	229.36
887.59	229.41
887.90	229.33
888.20	229.28
888.51	229.31
888.82	229.29
889.13	229.30
889.43	229.43
889.74	229.56
890.05	229.61
890.35	229.54
890.66	229.51
890.97	229.50
891.28	229.42
891.58	229.41
891.89	229.30
892.20	229.18
892.50	229.05
892.81	229.06
893.12	228.89
893.42	228.85
893.73	228.98
894.04	228.91
894.34	229.07
894.65	229.01
894.95	228.84
895.26	228.67
895.57	228.76
895.87	228.48
896.18	228.45
896.48	228.35
896.79	228.25
897.10	228.35
897.40	228.26
897.71	228.18
898.01	228.23
898.32	228.17
898.63	228.15
898.93	228.02
899.24	227.90
899.54	227.95
899.85	227.85
900.15	227.69
900.46	227.70
900.76	227.62
901.07	227.63
901.38	227.63
901.68	227.61
901.99	227.39
902.29	227.45
902.60	227.35
902.90	227.36
903.21	227.38
903.51	227.30
903.82	227.30
904.12	227.30
904.43	227.21
904.73	227.21
905.03	227.15
905.34	227.32
905.64	227.40
905.95	227.34
906.25	227.31
906.56	227.21
906.86	227.10
907.17	227.08
907.47	227.06
907.77	227.01
908.08	227.04
908.38	227.13
908.69	227.11
908.99	227.11
909.30	227.14
909.60	227.24
909.90	227.35
910.21	227.37
910.51	227.39
910.81	227.41
911.12	227.45
911.42	227.59
911.73	227.48
912.03	227.43
912.33	227.47
912.64	227.53
912.94	227.70
913.24	227.70
913.55	227.75
913.85	227.87
914.15	228.10
914.46	228.18
914.76	228.29
915.06	228.30
915.37	228.39
915.67	228.37
915.97	228.42
916.27	228.35
916.58	228.45
916.88	228.59
917.18	228.57
917.49	228.78
917.79	228.83
918.09	228.93
918.39	229.09
918.70	229.09
919.00	229.10
919.30	229.19
919.60	229.21
919.91	229.14
920.21	229.19
920.51	229.19
920.81	229.19
921.12	229.27
921.42	229.33
921.72	229.36
922.02	229.53
922.32	229.58
922.63	229.71
922.93	229.81
923.23	229.74
923.53	229.87
923.83	229.64
924.13	229.65
924.44	229.67
924.74	229.57
925.04	229.70
925.34	229.74
925.64	229.70
925.94	229.77
926.24	230.00
926.55	230.02
926.85	229.95
927.15	230.03
927.45	229.89
927.75	229.91
928.05	229.85
928.35	229.83
928.65	229.79
928.95	229.75
929.26	229.68
929.56	229.69
929.86	229.57
930.16	229.69
930.46	229.60
930.76	229.61
931.06	229.64
931.36	229.50
931.66	229.45
931.96	229.35
932.26	229.38
932.56	229.19
932.86	229.05
933.16	228.94
933.46	228.80
933.76	228.75
934.06	228.77
934.36	228.85
934.66	228.71
934.96	228.64
935.26	228.50
935.56	228.50
935.86	228.45
936.16	228.49
936.46	228.32
936.76	228.23
937.06	228.04
937.36	228.05
937.66	228.05
937.96	227.90
938.26	227.81
938.56	227.75
938.86	227.71
939.16	227.67
939.46	227.76
939.76	227.76
940.06	227.78
940.35	227.64
940.65	227.39
940.95	227.42
941.25	227.31
941.55	227.31
941.85	227.20
942.15	227.26
942.45	227.33
942.75	227.34
943.04	227.35
943.34	227.46
943.64	227.42
943.94	227.36
944.24	227.43
944.54	227.47
944.84	227.51
945.13	227.56
945.43	227.58
945.73	227.55
946.03	227.70
946.33	227.70
946.62	227.67
946.92	227.87
947.22	227.92
947.52	228.01
947.82	228.10
948.11	228.19
948.41	228.14
948.71	228.02
949.01	228.02
949.31	228.11
949.60	228.10
949.90	228.16
950.20	228.31
950.50	228.41
950.79	228.55
951.09	228.56
951.39	228.63
951.69	228.67
951.98	228.81
952.28	228.74
952.58	228.77
952.87	228.90
953.17	228.87
953.47	228.80
953.76	228.82
954.06	228.82
954.36	228.84
954.66	228.90
954.95	229.11
955.25	229.20
955.55	229.27
955.84	229.40
956.14	229.35
956.44	229.27
956.73	229.28
957.03	229.32
957.32	229.33
957.62	229.33
957.92	229.38
958.21	229.44
958.51	229.68
958.81	229.76
959.10	229.74
959.40	229.91
959.69	230.01
959.99	230.06
960.29	230.04
960.58	230.05
960.88	230.15
961.17	230.03
961.47	230.09
961.76	230.11
962.06	230.14
962.36	230.11
962.65	230.12
962.95	230.17
963.24	230.02
963.54	230.00
963.83	229.93
964.13	230.01
964.42	229.94
964.72	229.81
965.01	229.83
965.31	229.85
965.60	229.74
965.90	229.84
966.19	229.77
966.49	229.76
966.78	229.60
967.08	229.51
967.37	229.39
967.67	229.38
967.96	229.30
968.26	229.03
968.55	228.99
968.85	229.05
969.14	228.90
969.43	228.93
969.73	228.83
970.02	228.88
970.32	228.69
970.61	228.54
970.91	228.36
971.20	228.22
971.49	228.17
971.79	228.10
972.08	227.91
972.38	227.94
972.67	227.97
972.96	227.98
973.26	227.96
973.55	228.05
973.85	227.94
974.14	227.88
974.43	227.96
974.73	227.86
975.02	227.71
975.31	227.68
975.61	227.60
975.90	227.58
976.19	227.45
976.49	227.45
976.78	227.45
977.07	227.46
977.37	227.34
977.66	227.26
977.95	227.21
978.24	227.25
978.54	227.24
978.83	227.12
979.12	227.22
979.42	227.20
979.71	227.12
980.00	227.18
980.29	227.16
980.59	227.17
980.88	227.27
981.17	227.34
981.46	227.47
981.76	227.50
982.05	227.61
982.34	227.63
982.63	227.62
982.93	227.64
983.22	227.66
983.51	227.81
983.80	227.86
984.09	227.92
984.39	227.90
984.68	227.90
984.97	227.90
985.26	227.80
985.55	227.86
985.85	227.81
986.14	227.79
986.43	227.87
986.72	227.94
987.01	227.94
987.30	228.03
987.59	227.98
987.89	228.00
988.18	227.90
988.47	227.99
988.76	228.07
989.05	228.08
989.34	228.12
989.63	228.17
989.92	228.15
990.22	228.07
990.51	228.08
990.80	228.08
991.09	228.20
991.38	228.28
991.67	228.25
991.96	228.29
992.25	228.32
992.54	228.39
992.83	228.31
993.12	228.35
993.41	228.35
993.70	228.42
993.99	228.43
994.28	228.54
994.58	228.59
994.87	228.51
995.16	228.52
995.45	228.45
995.74	228.39
996.03	228.43
996.32	228.55
996.61	228.60
996.90	228.65
997.19	228.64
997.48	228.74
997.77	228.74
998.06	228.83
998.34	228.85
998.63	228.72
998.92	228.83
999.21	228.83
999.50	228.77
999.79	228.66
1000.08	228.78
1000.37	228.79
1000.66	228.71
1000.95	228.85
1001.24	228.96
1001.53	229.05
1001.82	229.04
1002.11	229.02
1002.40	229.02
1002.68	229.02
1002.97	229.12
1003.26	229.11
1003.55	229.03
1003.84	228.98
1004.13	229.00
1004.42	228.87
1004.71	228.83
1004.99	228.67
1005.28	228.76
1005.57	228.78
1005.86	228.78
1006.15	228.79
1006.44	228.60
1006.72	228.61
1007.01	228.50
1007.30	228.41
1007.59	228.35
1007.88	228.34
1008.17	228.32
1008.45	228.24
1008.74	228.15
1009.03	228.04
1009.32	227.90
1009.60	227.84
1009.89	227.70
1010.18	227.57
1010.47	227.67
1010.76	227.63
1011.04	227.66
1011.33	227.60
1011.62	227.58
1011.91	227.57
1012.19	227.43
1012.48	227.48
1012.77	227.44
1013.05	227.46
1013.34	227.44
1013.63	227.41
1013.92	227.39
1014.20	227.42
1014.49	227.37
1014.78	227.41
1015.06	227.32
1015.35	227.44
1015.64	227.46
1015.92	227.65
1016.21	227.64
1016.50	227.54
1016.78	227.57
1017.07	227.54
1017.36	227.46
1017.64	227.38
1017.93	227.31
1018.22	227.32
1018.50	227.35
1018.79	227.40
1019.08	227.26
1019.36	227.18
1019.65	227.18
1019.93	227.26
1020.22	227.22
1020.51	227.34
1020.79	227.28
1021.08	227.50
1021.36	227.50
1021.65	228.70
1021.94	225.00
1022.22	226.50
1022.51	227.00
1022.79	228.80
1023.08	227.10
1023.36	229.40
1023.65	227.00
>>>>>End Processed Spectral Data<<<<<
