SpectraSuite Data File
++++++++++++++++++++++++++++++++++++
Date: Fri Feb 01 14:40:57 EST 2013
User: group
Dark Spectrum Present: No
Reference Spectrum Present: No
Number of Sampled Component Spectra: 1
Spectrometers: USB2E7196
Integration Time (usec): 70000 (USB2E7196)
Spectra Averaged: 10 (USB2E7196)
Boxcar Smoothing: 10 (USB2E7196)
Correct for Electrical Dark: No (USB2E7196)
Strobe/Lamp Enabled: No (USB2E7196)
Correct for Detector Non-linearity: No (USB2E7196)
Correct for Stray Light: No (USB2E7196)
Number of Pixels in Processed Spectrum: 2048
>>>>>Begin Processed Spectral Data<<<<<
339.09	0.00
339.48	216.80
339.86	217.00
340.24	218.30
340.63	218.70
341.01	224.40
341.39	224.80
341.78	224.10
342.16	224.70
342.54	226.00
342.93	214.23
343.31	225.01
343.69	225.44
344.07	226.08
344.46	226.55
344.84	226.95
345.22	227.18
345.60	227.41
345.99	227.58
346.37	227.86
346.75	227.99
347.13	228.07
347.52	228.18
347.90	228.38
348.28	228.40
348.66	228.49
349.05	228.40
349.43	228.47
349.81	228.55
350.19	228.59
350.57	228.69
350.96	228.80
351.34	228.95
351.72	229.16
352.10	229.07
352.48	229.17
352.87	229.29
353.25	229.41
353.63	229.40
354.01	229.63
354.39	229.62
354.77	229.67
355.15	229.70
355.54	229.78
355.92	229.83
356.30	230.07
356.68	230.21
357.06	230.34
357.44	230.43
357.82	230.61
358.20	230.69
358.58	230.71
358.97	230.82
359.35	230.90
359.73	230.99
360.11	231.04
360.49	231.10
360.87	231.19
361.25	231.17
361.63	231.29
362.01	231.24
362.39	231.35
362.77	231.47
363.15	231.61
363.53	231.59
363.91	231.68
364.29	231.59
364.67	231.40
365.05	231.44
365.43	231.34
365.81	231.31
366.19	231.47
366.57	231.43
366.95	231.34
367.33	231.23
367.71	231.18
368.09	231.23
368.47	231.22
368.85	231.25
369.23	231.21
369.61	231.24
369.99	231.30
370.37	231.23
370.75	231.21
371.13	231.10
371.51	231.04
371.89	230.96
372.27	230.90
372.65	230.89
373.03	230.77
373.41	230.78
373.78	230.68
374.16	230.42
374.54	230.35
374.92	230.28
375.30	230.24
375.68	230.06
376.06	230.00
376.44	229.83
376.82	229.68
377.19	229.62
377.57	229.38
377.95	229.10
378.33	228.94
378.71	228.69
379.09	228.70
379.47	228.64
379.84	228.43
380.22	228.40
380.60	228.29
380.98	228.25
381.36	228.15
381.73	228.01
382.11	228.02
382.49	227.98
382.87	227.93
383.25	227.85
383.62	228.14
384.00	228.05
384.38	228.09
384.76	228.03
385.13	228.01
385.51	227.93
385.89	227.90
386.27	227.90
386.64	227.92
387.02	227.83
387.40	227.79
387.78	227.87
388.15	227.73
388.53	227.67
388.91	227.60
389.29	227.57
389.66	227.63
390.04	227.57
390.42	227.56
390.79	227.56
391.17	227.55
391.55	227.23
391.92	227.14
392.30	227.06
392.68	227.13
393.05	227.12
393.43	227.15
393.81	227.15
394.18	227.10
394.56	227.15
394.94	227.15
395.31	227.22
395.69	227.36
396.06	227.49
396.44	227.63
396.82	227.65
397.19	227.81
397.57	227.76
397.95	227.83
398.32	227.88
398.70	227.96
399.07	228.11
399.45	228.27
399.82	228.51
400.20	228.51
400.58	228.45
400.95	228.51
401.33	228.67
401.70	228.99
402.08	229.11
402.45	229.21
402.83	229.45
403.20	229.50
403.58	229.49
403.95	229.59
404.33	229.71
404.71	229.92
405.08	230.09
405.46	230.36
405.83	230.54
406.21	230.66
406.58	230.77
406.96	230.90
407.33	231.04
407.70	231.15
408.08	231.63
408.45	231.98
408.83	232.19
409.20	232.35
409.58	232.46
409.95	232.80
410.33	233.07
410.70	233.22
411.08	233.49
411.45	233.81
411.82	234.20
412.20	234.57
412.57	234.96
412.95	235.28
413.32	235.66
413.69	235.98
414.07	236.41
414.44	236.78
414.82	237.27
415.19	237.85
415.56	238.41
415.94	238.89
416.31	239.42
416.68	240.14
417.06	240.96
417.43	241.66
417.81	242.40
418.18	243.23
418.55	244.12
418.93	245.03
419.30	246.00
419.67	246.93
420.04	247.95
420.42	249.04
420.79	250.38
421.16	251.55
421.54	253.02
421.91	254.43
422.28	255.94
422.66	257.40
423.03	258.88
423.40	260.24
423.77	261.67
424.15	263.32
424.52	264.84
424.89	266.58
425.26	268.17
425.64	269.73
426.01	271.35
426.38	273.15
426.75	275.05
427.13	276.96
427.50	278.96
427.87	281.05
428.24	283.12
428.61	284.92
428.99	287.01
429.36	289.29
429.73	291.58
430.10	293.76
430.47	296.05
430.85	298.35
431.22	300.95
431.59	303.64
431.96	306.04
432.33	308.77
432.70	311.40
433.08	314.56
433.45	317.43
433.82	320.40
434.19	323.38
434.56	326.46
434.93	329.29
435.30	332.10
435.68	335.20
436.05	338.40
436.42	341.43
436.79	344.22
437.16	347.17
437.53	349.90
437.90	352.96
438.27	355.81
438.64	358.86
439.01	361.68
439.38	364.04
439.75	366.44
440.13	369.16
440.50	371.53
440.87	373.54
441.24	375.68
441.61	377.91
441.98	379.64
442.35	381.59
442.72	383.57
443.09	385.50
443.46	386.47
443.83	386.90
444.20	387.40
444.57	388.18
444.94	388.34
445.31	388.88
445.68	389.28
446.05	389.21
446.42	388.71
446.79	388.23
447.16	387.77
447.53	387.29
447.90	385.93
448.27	384.71
448.64	382.96
449.01	381.63
449.37	379.53
449.74	377.55
450.11	375.10
450.48	372.36
450.85	369.51
451.22	367.25
451.59	365.00
451.96	362.89
452.33	360.14
452.70	357.59
453.07	354.50
453.43	351.26
453.80	348.41
454.17	345.48
454.54	342.46
454.91	339.61
455.28	336.70
455.65	333.95
456.02	331.20
456.38	328.76
456.75	325.82
457.12	323.32
457.49	320.73
457.86	318.23
458.23	316.19
458.59	313.98
458.96	311.73
459.33	309.60
459.70	307.51
460.07	305.86
460.43	303.94
460.80	302.19
461.17	300.59
461.54	299.00
461.91	297.34
462.27	295.90
462.64	294.31
463.01	292.80
463.38	291.57
463.74	290.13
464.11	288.82
464.48	287.78
464.85	286.57
465.21	285.69
465.58	284.62
465.95	283.37
466.32	282.29
466.68	281.12
467.05	280.14
467.42	279.16
467.78	278.16
468.15	277.13
468.52	276.42
468.88	275.42
469.25	274.44
469.62	273.76
469.98	272.97
470.35	272.19
470.72	271.50
471.08	270.51
471.45	269.89
471.82	269.42
472.18	268.65
472.55	268.10
472.92	267.47
473.28	266.87
473.65	266.34
474.02	265.82
474.38	265.37
474.75	264.99
475.11	264.53
475.48	264.10
475.85	263.71
476.21	263.35
476.58	263.15
476.94	262.95
477.31	262.63
477.67	262.26
478.04	262.22
478.41	262.00
478.77	262.04
479.14	261.83
479.50	261.57
479.87	261.50
480.23	261.41
480.60	261.32
480.96	261.37
481.33	261.44
481.69	261.50
482.06	261.57
482.42	261.62
482.79	261.66
483.15	261.73
483.52	261.90
483.88	261.86
484.25	261.84
484.61	261.90
484.98	262.11
485.34	262.50
485.71	262.66
486.07	263.00
486.44	263.08
486.80	263.40
487.17	263.72
487.53	264.24
487.90	264.55
488.26	265.00
488.62	265.56
488.99	266.04
489.35	266.60
489.72	267.19
490.08	267.74
490.44	268.36
490.81	269.15
491.17	269.97
491.54	270.91
491.90	271.87
492.26	272.86
492.63	273.80
492.99	274.63
493.36	275.75
493.72	276.94
494.08	278.28
494.45	279.50
494.81	280.89
495.17	282.33
495.54	284.08
495.90	285.64
496.26	287.25
496.63	289.09
496.99	290.92
497.35	292.75
497.72	294.84
498.08	297.11
498.44	299.33
498.80	301.87
499.17	304.33
499.53	306.91
499.89	309.64
500.26	312.50
500.62	315.65
500.98	318.94
501.34	322.20
501.71	325.70
502.07	329.37
502.43	332.95
502.79	336.69
503.16	340.55
503.52	344.78
503.88	349.26
504.24	353.70
504.60	358.62
504.97	363.71
505.33	368.95
505.69	374.41
506.05	379.91
506.41	385.44
506.78	391.34
507.14	397.55
507.50	403.76
507.86	410.37
508.22	417.13
508.59	423.92
508.95	431.11
509.31	438.38
509.67	446.00
510.03	453.98
510.39	461.99
510.75	470.33
511.12	478.61
511.48	487.20
511.84	495.92
512.20	504.70
512.56	513.98
512.92	523.34
513.28	532.98
513.64	542.79
514.00	553.02
514.37	563.55
514.73	573.91
515.09	584.61
515.45	595.54
515.81	606.40
516.17	617.57
516.53	629.00
516.89	640.66
517.25	652.38
517.61	664.34
517.97	676.39
518.33	688.42
518.69	701.09
519.05	713.75
519.41	726.75
519.77	740.00
520.13	753.33
520.49	766.58
520.85	780.02
521.21	793.65
521.57	807.62
521.93	821.04
522.29	835.35
522.65	849.52
523.01	863.71
523.37	878.19
523.73	892.67
524.09	907.15
524.45	921.92
524.81	937.01
525.17	952.03
525.53	967.21
525.89	982.61
526.25	998.25
526.61	1013.78
526.97	1029.58
527.33	1045.12
527.68	1061.03
528.04	1076.87
528.40	1092.50
528.76	1108.73
529.12	1124.70
529.48	1141.24
529.84	1156.64
530.20	1173.04
530.56	1189.48
530.91	1205.98
531.27	1222.52
531.63	1238.97
531.99	1255.40
532.35	1271.66
532.71	1287.77
533.07	1304.39
533.42	1321.05
533.78	1336.88
534.14	1352.71
534.50	1368.05
534.86	1384.06
535.21	1399.70
535.57	1415.88
535.93	1432.00
536.29	1447.38
536.65	1462.95
537.00	1478.46
537.36	1494.67
537.72	1509.66
538.08	1524.75
538.44	1540.00
538.79	1554.96
539.15	1569.60
539.51	1584.49
539.87	1599.63
540.22	1614.30
540.58	1629.03
540.94	1643.40
541.29	1657.50
541.65	1671.54
542.01	1686.70
542.37	1701.14
542.72	1714.73
543.08	1727.98
543.44	1741.47
543.79	1754.45
544.15	1767.52
544.51	1780.95
544.87	1794.14
545.22	1807.31
545.58	1819.81
545.94	1831.47
546.29	1843.20
546.65	1855.26
547.01	1866.64
547.36	1877.34
547.72	1888.56
548.07	1899.05
548.43	1909.07
548.79	1919.73
549.14	1929.87
549.50	1939.23
549.86	1948.70
550.21	1958.43
550.57	1968.05
550.92	1977.36
551.28	1986.70
551.64	1995.35
551.99	2004.25
552.35	2012.77
552.70	2021.04
553.06	2029.51
553.41	2038.12
553.77	2046.80
554.13	2055.08
554.48	2063.65
554.84	2071.87
555.19	2079.57
555.55	2087.33
555.90	2095.05
556.26	2102.54
556.61	2110.24
556.97	2117.08
557.32	2124.03
557.68	2130.43
558.03	2137.40
558.39	2143.73
558.74	2151.11
559.10	2158.12
559.45	2163.87
559.81	2170.40
560.16	2176.08
560.52	2181.89
560.87	2187.99
561.23	2192.62
561.58	2197.90
561.94	2201.87
562.29	2206.31
562.64	2210.62
563.00	2215.15
563.35	2220.53
563.71	2225.76
564.06	2230.57
564.42	2235.34
564.77	2239.79
565.12	2244.81
565.48	2248.68
565.83	2252.83
566.19	2255.94
566.54	2258.61
566.89	2261.76
567.25	2264.51
567.60	2268.36
567.96	2271.15
568.31	2273.11
568.66	2275.65
569.02	2278.23
569.37	2281.18
569.72	2283.26
570.08	2285.50
570.43	2287.13
570.78	2287.49
571.14	2287.70
571.49	2288.51
571.84	2290.23
572.20	2290.51
572.55	2290.17
572.90	2289.98
573.26	2290.12
573.61	2289.75
573.96	2289.77
574.31	2288.55
574.67	2286.44
575.02	2284.36
575.37	2283.29
575.72	2281.11
576.08	2279.95
576.43	2277.52
576.78	2275.53
577.13	2273.52
577.49	2271.66
577.84	2269.03
578.19	2266.95
578.54	2264.47
578.90	2260.72
579.25	2256.22
579.60	2252.49
579.95	2249.38
580.30	2245.91
580.66	2241.78
581.01	2237.99
581.36	2234.11
581.71	2231.17
582.06	2227.90
582.42	2223.97
582.77	2219.33
583.12	2215.75
583.47	2211.79
583.82	2208.12
584.17	2203.17
584.53	2199.26
584.88	2194.67
585.23	2190.43
585.58	2186.23
585.93	2181.75
586.28	2178.33
586.63	2174.40
586.98	2170.49
587.34	2165.85
587.69	2161.27
588.04	2156.71
588.39	2152.04
588.74	2146.37
589.09	2140.27
589.44	2134.39
589.79	2129.77
590.14	2125.18
590.49	2120.33
590.84	2114.62
591.19	2109.02
591.54	2103.06
591.89	2095.88
592.25	2089.63
592.60	2082.95
592.95	2076.16
593.30	2069.42
593.65	2062.24
594.00	2055.36
594.35	2048.97
594.70	2042.24
595.05	2035.93
595.40	2028.58
595.75	2021.40
596.10	2015.41
596.45	2009.54
596.80	2004.33
597.15	1997.91
597.50	1991.27
597.85	1984.68
598.19	1979.16
598.54	1973.19
598.89	1967.56
599.24	1962.71
599.59	1957.03
599.94	1951.50
600.29	1945.10
600.64	1938.97
600.99	1932.04
601.34	1925.96
601.69	1919.15
602.04	1912.65
602.39	1905.67
602.74	1900.41
603.08	1894.59
603.43	1888.65
603.78	1882.00
604.13	1875.03
604.48	1867.97
604.83	1861.32
605.18	1854.60
605.53	1846.42
605.87	1838.46
606.22	1831.50
606.57	1824.16
606.92	1816.73
607.27	1809.37
607.62	1803.11
607.96	1796.56
608.31	1790.54
608.66	1783.00
609.01	1775.02
609.36	1766.82
609.70	1758.90
610.05	1750.37
610.40	1742.75
610.75	1734.19
611.10	1726.02
611.44	1717.53
611.79	1709.92
612.14	1701.50
612.49	1692.69
612.83	1684.58
613.18	1676.20
613.53	1668.09
613.88	1659.17
614.22	1650.77
614.57	1642.35
614.92	1633.46
615.27	1624.86
615.61	1616.21
615.96	1607.77
616.31	1600.36
616.65	1593.73
617.00	1586.76
617.35	1579.03
617.70	1570.43
618.04	1562.28
618.39	1554.92
618.74	1547.13
619.08	1539.00
619.43	1531.26
619.78	1523.98
620.12	1516.76
620.47	1509.07
620.82	1500.80
621.16	1493.33
621.51	1485.67
621.85	1477.92
622.20	1469.88
622.55	1461.99
622.89	1454.32
623.24	1446.99
623.59	1439.91
623.93	1432.10
624.28	1424.12
624.62	1416.21
624.97	1409.19
625.32	1401.85
625.66	1394.30
626.01	1387.09
626.35	1379.35
626.70	1371.80
627.04	1364.47
627.39	1356.32
627.73	1348.93
628.08	1341.67
628.43	1334.36
628.77	1327.03
629.12	1319.48
629.46	1312.29
629.81	1304.45
630.15	1296.34
630.50	1288.35
630.84	1279.88
631.19	1271.69
631.53	1263.73
631.88	1255.80
632.22	1247.51
632.57	1240.24
632.91	1232.22
633.26	1224.17
633.60	1216.24
633.95	1208.54
634.29	1200.96
634.64	1193.95
634.98	1186.89
635.32	1179.86
635.67	1172.81
636.01	1165.63
636.36	1158.53
636.70	1151.50
637.05	1144.74
637.39	1138.49
637.73	1132.12
638.08	1126.03
638.42	1119.41
638.77	1112.89
639.11	1106.35
639.45	1099.70
639.80	1092.89
640.14	1086.22
640.49	1079.68
640.83	1073.07
641.17	1066.34
641.52	1059.70
641.86	1053.04
642.20	1046.26
642.55	1039.45
642.89	1032.65
643.23	1025.96
643.58	1019.97
643.92	1013.12
644.26	1006.48
644.61	999.93
644.95	993.33
645.29	985.82
645.64	979.10
645.98	972.74
646.32	966.50
646.66	960.22
647.01	953.82
647.35	947.67
647.69	941.47
648.04	935.63
648.38	929.42
648.72	922.78
649.06	916.43
649.41	910.15
649.75	903.39
650.09	896.72
650.43	890.25
650.78	883.32
651.12	877.35
651.46	871.34
651.80	865.31
652.14	859.46
652.49	853.61
652.83	847.87
653.17	841.34
653.51	835.39
653.85	829.60
654.20	823.26
654.54	816.87
654.88	810.66
655.22	804.12
655.56	798.20
655.90	792.63
656.25	786.96
656.59	781.25
656.93	776.12
657.27	771.01
657.61	765.34
657.95	760.22
658.29	754.74
658.64	749.40
658.98	743.70
659.32	737.83
659.66	732.65
660.00	727.15
660.34	722.06
660.68	716.73
661.02	711.27
661.36	706.35
661.70	701.63
662.05	697.03
662.39	692.74
662.73	688.08
663.07	683.67
663.41	678.99
663.75	674.30
664.09	669.73
664.43	664.87
664.77	660.61
665.11	656.18
665.45	651.67
665.79	647.06
666.13	642.67
666.47	638.50
666.81	633.95
667.15	629.65
667.49	625.70
667.83	621.61
668.17	617.55
668.51	613.42
668.85	609.15
669.19	605.10
669.53	600.97
669.87	596.93
670.21	592.81
670.55	588.93
670.89	585.41
671.23	581.72
671.57	578.15
671.91	574.29
672.25	570.63
672.58	567.09
672.92	563.55
673.26	560.17
673.60	556.83
673.94	553.62
674.28	550.50
674.62	547.30
674.96	543.94
675.30	540.80
675.64	537.73
675.97	534.77
676.31	531.73
676.65	528.46
676.99	525.32
677.33	522.00
677.67	518.87
678.01	515.61
678.34	512.36
678.68	509.50
679.02	506.56
679.36	503.39
679.70	500.50
680.04	497.65
680.37	494.79
680.71	491.85
681.05	489.22
681.39	486.31
681.73	483.40
682.06	480.83
682.40	478.25
682.74	475.58
683.08	472.88
683.42	470.04
683.75	467.69
684.09	465.11
684.43	462.58
684.77	459.95
685.10	457.52
685.44	455.06
685.78	452.66
686.12	450.22
686.45	447.97
686.79	445.55
687.13	443.12
687.46	440.54
687.80	438.11
688.14	435.67
688.48	433.35
688.81	430.92
689.15	428.56
689.49	426.13
689.82	423.82
690.16	421.61
690.50	419.61
690.83	417.26
691.17	415.05
691.51	412.83
691.84	410.73
692.18	408.40
692.52	406.19
692.85	403.86
693.19	401.90
693.52	399.87
693.86	397.67
694.20	395.70
694.53	393.74
694.87	391.67
695.21	389.56
695.54	387.62
695.88	385.63
696.21	383.67
696.55	381.75
696.88	379.95
697.22	378.01
697.56	376.12
697.89	374.27
698.23	372.52
698.56	370.85
698.90	369.20
699.23	367.37
699.57	365.81
699.90	364.09
700.24	362.41
700.58	360.68
700.91	359.16
701.25	357.67
701.58	356.38
701.92	354.94
702.25	353.45
702.59	352.09
702.92	350.86
703.26	349.57
703.59	348.31
703.93	347.03
704.26	345.63
704.60	344.20
704.93	342.90
705.26	341.54
705.60	340.28
705.93	339.05
706.27	337.97
706.60	336.67
706.94	335.35
707.27	334.06
707.61	332.79
707.94	331.55
708.27	330.21
708.61	328.82
708.94	327.67
709.28	326.61
709.61	325.28
709.94	323.97
710.28	322.80
710.61	321.61
710.95	320.34
711.28	319.48
711.61	318.40
711.95	317.41
712.28	316.29
712.61	315.21
712.95	314.12
713.28	313.17
713.61	312.19
713.95	311.29
714.28	310.38
714.61	309.55
714.95	308.60
715.28	307.76
715.61	306.83
715.95	305.84
716.28	304.88
716.61	304.06
716.95	303.21
717.28	302.41
717.61	301.67
717.94	300.85
718.28	299.86
718.61	299.19
718.94	298.44
719.27	297.74
719.61	297.07
719.94	296.30
720.27	295.42
720.60	294.64
720.94	293.85
721.27	293.16
721.60	292.33
721.93	291.68
722.27	290.92
722.60	290.31
722.93	289.63
723.26	289.04
723.59	288.42
723.93	287.70
724.26	286.97
724.59	286.25
724.92	285.65
725.25	285.07
725.59	284.40
725.92	283.69
726.25	282.96
726.58	282.26
726.91	281.70
727.24	281.08
727.57	280.47
727.91	279.90
728.24	279.24
728.57	278.72
728.90	278.08
729.23	277.48
729.56	276.86
729.89	276.33
730.22	275.76
730.55	275.14
730.89	274.74
731.22	274.11
731.55	273.46
731.88	272.90
732.21	272.30
732.54	271.71
732.87	271.20
733.20	270.65
733.53	270.18
733.86	269.63
734.19	269.20
734.52	268.81
734.85	268.44
735.18	268.00
735.51	267.57
735.84	267.19
736.17	266.74
736.50	266.26
736.83	266.06
737.16	265.54
737.49	265.20
737.82	264.74
738.15	264.41
738.48	264.13
738.81	263.69
739.14	263.39
739.47	263.02
739.80	262.73
740.13	262.50
740.46	262.16
740.79	261.69
741.12	261.28
741.45	260.87
741.78	260.45
742.11	260.05
742.44	259.53
742.77	259.26
743.10	258.86
743.43	258.59
743.75	258.02
744.08	258.09
744.41	257.67
744.74	257.38
745.07	257.00
745.40	256.71
745.73	256.50
746.06	256.08
746.39	255.69
746.71	255.28
747.04	254.83
747.37	254.49
747.70	254.30
748.03	254.10
748.36	253.73
748.68	253.58
749.01	253.32
749.34	253.00
749.67	252.60
750.00	252.42
750.33	252.20
750.65	252.03
750.98	251.47
751.31	251.09
751.64	250.79
751.97	250.70
752.29	250.36
752.62	249.96
752.95	249.72
753.28	249.52
753.60	249.18
753.93	249.04
754.26	248.78
754.59	248.50
754.91	248.07
755.24	247.83
755.57	247.40
755.90	247.12
756.22	246.98
756.55	246.76
756.88	246.47
757.20	246.03
757.53	245.64
757.86	245.39
758.19	245.37
758.51	245.09
758.84	244.78
759.17	244.59
759.49	244.41
759.82	244.39
760.15	244.22
760.47	244.06
760.80	243.90
761.13	243.80
761.45	243.59
761.78	243.50
762.11	243.34
762.43	243.17
762.76	243.02
763.08	242.90
763.41	242.74
763.74	242.60
764.06	242.51
764.39	242.44
764.71	242.30
765.04	242.00
765.37	241.95
765.69	241.70
766.02	241.52
766.34	241.45
766.67	241.10
767.00	241.00
767.32	241.13
767.65	241.11
767.97	240.90
768.30	240.75
768.62	240.54
768.95	240.43
769.27	240.37
769.60	240.27
769.92	240.01
770.25	239.83
770.57	239.72
770.90	239.61
771.22	239.37
771.55	239.28
771.87	239.18
772.20	239.00
772.52	239.09
772.85	239.28
773.17	239.09
773.50	239.00
773.82	238.84
774.15	238.51
774.47	238.21
774.80	238.12
775.12	237.97
775.45	237.90
775.77	237.71
776.09	237.56
776.42	237.53
776.74	237.62
777.07	237.52
777.39	237.35
777.72	237.26
778.04	237.19
778.36	237.01
778.69	236.94
779.01	236.90
779.33	236.65
779.66	236.29
779.98	236.19
780.31	236.08
780.63	236.04
780.95	235.95
781.28	235.86
781.60	235.78
781.92	235.80
782.25	235.70
782.57	235.72
782.89	235.70
783.22	235.49
783.54	235.29
783.86	235.29
784.19	235.25
784.51	235.20
784.83	235.14
785.16	235.03
785.48	235.00
785.80	234.80
786.12	234.76
786.45	234.76
786.77	234.83
787.09	234.78
787.42	234.67
787.74	234.60
788.06	234.54
788.38	234.50
788.71	234.46
789.03	234.50
789.35	234.40
789.67	234.31
789.99	234.31
790.32	234.30
790.64	234.24
790.96	234.26
791.28	234.18
791.61	234.12
791.93	234.10
792.25	234.03
792.57	234.26
792.89	234.19
793.21	234.19
793.54	234.14
793.86	234.11
794.18	234.08
794.50	233.98
794.82	233.93
795.14	233.84
795.47	233.84
795.79	233.76
796.11	233.65
796.43	233.52
796.75	233.50
797.07	233.42
797.39	233.35
797.71	233.25
798.04	233.22
798.36	233.19
798.68	233.20
799.00	232.99
799.32	232.80
799.64	232.84
799.96	232.70
800.28	232.59
800.60	232.49
800.92	232.45
801.24	232.44
801.56	232.42
801.89	232.36
802.21	232.23
802.53	232.16
802.85	232.16
803.17	232.23
803.49	232.20
803.81	232.14
804.13	232.05
804.45	232.00
804.77	231.98
805.09	231.93
805.41	231.92
805.73	231.98
806.05	231.89
806.37	231.78
806.69	231.72
807.01	231.60
807.33	231.69
807.65	231.61
807.97	231.72
808.28	231.72
808.60	231.67
808.92	231.63
809.24	231.81
809.56	231.81
809.88	231.71
810.20	231.66
810.52	231.74
810.84	231.78
811.16	231.73
811.48	231.61
811.80	231.74
812.12	231.70
812.43	231.66
812.75	231.59
813.07	231.59
813.39	231.61
813.71	231.68
814.03	231.52
814.35	231.34
814.67	231.20
814.98	231.12
815.30	231.08
815.62	230.98
815.94	230.72
816.26	230.85
816.58	230.80
816.89	230.66
817.21	230.55
817.53	230.50
817.85	230.40
818.17	230.39
818.48	230.24
818.80	230.22
819.12	230.29
819.44	230.26
819.76	230.17
820.07	230.09
820.39	230.04
820.71	230.00
821.03	230.12
821.34	230.13
821.66	230.08
821.98	230.06
822.30	230.14
822.61	230.25
822.93	229.97
823.25	229.93
823.57	229.97
823.88	229.98
824.20	229.93
824.52	230.03
824.83	230.06
825.15	230.03
825.47	229.98
825.79	229.96
826.10	229.96
826.42	230.03
826.74	230.02
827.05	230.05
827.37	230.08
827.69	229.99
828.00	229.83
828.32	229.88
828.64	229.88
828.95	229.93
829.27	229.83
829.58	229.92
829.90	230.02
830.22	229.98
830.53	229.87
830.85	229.84
831.17	229.79
831.48	229.65
831.80	229.56
832.11	229.48
832.43	229.32
832.75	229.28
833.06	229.25
833.38	229.22
833.69	229.09
834.01	229.14
834.32	229.13
834.64	229.15
834.96	229.10
835.27	229.14
835.59	229.09
835.90	229.10
836.22	229.10
836.53	229.05
836.85	229.08
837.16	229.29
837.48	229.40
837.79	229.43
838.11	229.44
838.42	229.52
838.74	229.62
839.05	229.72
839.37	229.75
839.68	229.71
840.00	229.77
840.31	229.89
840.63	229.86
840.94	229.78
841.26	229.80
841.57	229.86
841.88	229.86
842.20	229.76
842.51	229.73
842.83	229.72
843.14	229.87
843.46	229.89
843.77	229.81
844.08	229.75
844.40	229.73
844.71	229.79
845.03	229.81
845.34	229.74
845.65	229.76
845.97	229.81
846.28	229.81
846.60	229.73
846.91	229.74
847.22	229.73
847.54	229.88
847.85	229.90
848.16	229.88
848.48	229.78
848.79	229.98
849.10	229.97
849.42	230.01
849.73	229.85
850.04	229.73
850.36	229.63
850.67	229.70
850.98	229.67
851.30	229.70
851.61	229.73
851.92	229.76
852.23	229.88
852.55	229.82
852.86	229.86
853.17	229.94
853.49	230.01
853.80	230.07
854.11	230.09
854.42	230.09
854.74	230.07
855.05	230.20
855.36	230.14
855.67	230.23
855.99	230.15
856.30	230.34
856.61	230.48
856.92	230.58
857.23	230.47
857.55	230.48
857.86	230.41
858.17	230.29
858.48	230.29
858.79	230.12
859.11	230.19
859.42	230.17
859.73	230.07
860.04	229.83
860.35	229.76
860.66	229.80
860.98	229.81
861.29	229.87
861.60	229.80
861.91	229.69
862.22	229.69
862.53	229.70
862.84	229.46
863.16	229.42
863.47	229.25
863.78	229.25
864.09	229.23
864.40	229.30
864.71	229.44
865.02	229.42
865.33	229.42
865.64	229.41
865.95	229.40
866.27	229.63
866.58	229.61
866.89	229.56
867.20	229.48
867.51	229.43
867.82	229.35
868.13	229.35
868.44	229.45
868.75	229.38
869.06	229.30
869.37	229.34
869.68	229.27
869.99	229.39
870.30	229.40
870.61	229.47
870.92	229.37
871.23	229.23
871.54	229.21
871.85	229.21
872.16	229.13
872.47	229.06
872.78	228.93
873.09	229.02
873.40	229.03
873.71	229.05
874.02	229.02
874.33	229.07
874.64	229.02
874.95	228.94
875.26	228.89
875.56	228.93
875.87	228.84
876.18	228.88
876.49	229.03
876.80	229.01
877.11	228.93
877.42	229.02
877.73	229.06
878.04	229.12
878.35	229.22
878.66	229.23
878.96	229.22
879.27	229.20
879.58	229.19
879.89	229.24
880.20	229.25
880.51	229.20
880.82	229.15
881.12	229.15
881.43	229.08
881.74	229.05
882.05	229.10
882.36	229.16
882.67	229.13
882.97	228.98
883.28	229.05
883.59	228.99
883.90	229.04
884.21	229.08
884.51	228.97
884.82	228.92
885.13	228.95
885.44	228.87
885.74	228.82
886.05	228.92
886.36	228.82
886.67	228.69
886.98	228.87
887.28	228.87
887.59	228.87
887.90	228.95
888.20	228.93
888.51	228.92
888.82	228.94
889.13	229.00
889.43	229.09
889.74	229.02
890.05	229.14
890.35	229.03
890.66	228.92
890.97	228.95
891.28	228.77
891.58	228.67
891.89	228.76
892.20	228.68
892.50	228.53
892.81	228.51
893.12	228.60
893.42	228.52
893.73	228.40
894.04	228.47
894.34	228.44
894.65	228.45
894.95	228.30
895.26	228.22
895.57	228.27
895.87	228.10
896.18	228.12
896.48	228.00
896.79	227.96
897.10	228.05
897.40	228.11
897.71	228.21
898.01	228.27
898.32	228.35
898.63	228.40
898.93	228.47
899.24	228.49
899.54	228.49
899.85	228.46
900.15	228.50
900.46	228.49
900.76	228.54
901.07	228.62
901.38	228.70
901.68	228.77
901.99	228.60
902.29	228.60
902.60	228.58
902.90	228.61
903.21	228.68
903.51	228.63
903.82	228.63
904.12	228.61
904.43	228.61
904.73	228.50
905.03	228.53
905.34	228.71
905.64	228.80
905.95	228.74
906.25	228.67
906.56	228.74
906.86	228.77
907.17	228.74
907.47	228.72
907.77	228.65
908.08	228.71
908.38	228.76
908.69	228.78
908.99	228.72
909.30	228.67
909.60	228.71
909.90	228.69
910.21	228.59
910.51	228.59
910.81	228.61
911.12	228.60
911.42	228.64
911.73	228.39
912.03	228.45
912.33	228.47
912.64	228.52
912.94	228.53
913.24	228.48
913.55	228.50
913.85	228.34
914.15	228.50
914.46	228.36
914.76	228.34
915.06	228.33
915.37	228.39
915.67	228.46
915.97	228.40
916.27	228.39
916.58	228.43
916.88	228.38
917.18	228.31
917.49	228.48
917.79	228.49
918.09	228.54
918.39	228.46
918.70	228.48
919.00	228.55
919.30	228.65
919.60	228.59
919.91	228.50
920.21	228.61
920.51	228.52
920.81	228.60
921.12	228.62
921.42	228.70
921.72	228.78
922.02	228.86
922.32	228.81
922.63	228.75
922.93	228.88
923.23	228.94
923.53	228.95
923.83	228.81
924.13	228.69
924.44	228.79
924.74	228.80
925.04	228.86
925.34	228.73
925.64	228.65
925.94	228.68
926.24	228.78
926.55	228.77
926.85	228.81
927.15	228.74
927.45	228.82
927.75	228.70
928.05	228.60
928.35	228.48
928.65	228.58
928.95	228.69
929.26	228.65
929.56	228.78
929.86	228.84
930.16	228.85
930.46	228.76
930.76	228.76
931.06	228.69
931.36	228.66
931.66	228.78
931.96	228.77
932.26	228.77
932.56	228.66
932.86	228.69
933.16	228.74
933.46	228.76
933.76	228.68
934.06	228.73
934.36	228.79
934.66	228.83
934.96	228.78
935.26	228.81
935.56	228.78
935.86	228.60
936.16	228.59
936.46	228.63
936.76	228.76
937.06	228.64
937.36	228.70
937.66	228.70
937.96	228.66
938.26	228.69
938.56	228.61
938.86	228.72
939.16	228.71
939.46	228.69
939.76	228.69
940.06	228.65
940.35	228.62
940.65	228.58
940.95	228.54
941.25	228.60
941.55	228.60
941.85	228.55
942.15	228.70
942.45	228.71
942.75	228.72
943.04	228.65
943.34	228.73
943.64	228.67
943.94	228.59
944.24	228.59
944.54	228.51
944.84	228.60
945.13	228.47
945.43	228.53
945.73	228.47
946.03	228.48
946.33	228.50
946.62	228.48
946.92	228.50
947.22	228.51
947.52	228.47
947.82	228.45
948.11	228.55
948.41	228.40
948.71	228.40
949.01	228.40
949.31	228.52
949.60	228.48
949.90	228.58
950.20	228.50
950.50	228.53
950.79	228.57
951.09	228.60
951.39	228.60
951.69	228.51
951.98	228.58
952.28	228.55
952.58	228.55
952.87	228.51
953.17	228.44
953.47	228.42
953.76	228.39
954.06	228.37
954.36	228.25
954.66	228.23
954.95	228.23
955.25	228.20
955.55	228.22
955.84	228.15
956.14	228.12
956.44	228.19
956.73	228.17
957.03	228.22
957.32	228.21
957.62	228.19
957.92	228.16
958.21	228.17
958.51	228.49
958.81	228.55
959.10	228.60
959.40	228.72
959.69	228.79
959.99	228.80
960.29	228.79
960.58	228.83
960.88	229.00
961.17	228.97
961.47	228.95
961.76	228.90
962.06	229.07
962.36	229.00
962.65	229.09
962.95	229.02
963.24	228.93
963.54	228.99
963.83	229.05
964.13	229.10
964.42	229.01
964.72	228.78
965.01	228.83
965.31	228.86
965.60	228.76
965.90	228.77
966.19	228.78
966.49	228.83
966.78	228.73
967.08	228.67
967.37	228.64
967.67	228.62
967.96	228.70
968.26	228.69
968.55	228.77
968.85	228.76
969.14	228.79
969.43	228.79
969.73	228.71
970.02	228.70
970.32	228.69
970.61	228.72
970.91	228.67
971.20	228.46
971.49	228.46
971.79	228.51
972.08	228.35
972.38	228.29
972.67	228.21
972.96	228.33
973.26	228.23
973.55	228.29
973.85	228.25
974.14	228.08
974.43	227.92
974.73	227.88
975.02	227.79
975.31	227.78
975.61	227.78
975.90	227.73
976.19	227.83
976.49	227.83
976.78	227.80
977.07	227.84
977.37	227.88
977.66	227.89
977.95	227.84
978.24	227.96
978.54	227.98
978.83	228.00
979.12	227.95
979.42	228.00
979.71	227.99
980.00	227.96
980.29	228.07
980.59	228.12
980.88	228.08
981.17	228.10
981.46	228.11
981.76	228.07
982.05	228.22
982.34	228.25
982.63	228.32
982.93	228.44
983.22	228.46
983.51	228.57
983.80	228.59
984.09	228.55
984.39	228.58
984.68	228.65
984.97	228.76
985.26	228.71
985.55	228.71
985.85	228.68
986.14	228.73
986.43	228.73
986.72	228.75
987.01	228.77
987.30	228.75
987.59	228.75
987.89	228.89
988.18	228.76
988.47	228.61
988.76	228.55
989.05	228.43
989.34	228.40
989.63	228.44
989.92	228.36
990.22	228.39
990.51	228.36
990.80	228.30
991.09	228.26
991.38	228.38
991.67	228.44
991.96	228.42
992.25	228.49
992.54	228.44
992.83	228.50
993.12	228.49
993.41	228.61
993.70	228.69
993.99	228.61
994.28	228.56
994.58	228.59
994.87	228.59
995.16	228.58
995.45	228.52
995.74	228.40
996.03	228.41
996.32	228.53
996.61	228.48
996.90	228.52
997.19	228.51
997.48	228.43
997.77	228.33
998.06	228.34
998.34	228.29
998.63	228.29
998.92	228.22
999.21	228.21
999.50	228.23
999.79	228.11
1000.08	228.15
1000.37	228.14
1000.66	228.18
1000.95	228.24
1001.24	228.22
1001.53	228.31
1001.82	228.34
1002.11	228.39
1002.40	228.29
1002.68	228.33
1002.97	228.45
1003.26	228.33
1003.55	228.33
1003.84	228.34
1004.13	228.36
1004.42	228.40
1004.71	228.39
1004.99	228.35
1005.28	228.45
1005.57	228.40
1005.86	228.45
1006.15	228.48
1006.44	228.46
1006.72	228.44
1007.01	228.41
1007.30	228.39
1007.59	228.39
1007.88	228.35
1008.17	228.33
1008.45	228.28
1008.74	228.18
1009.03	228.01
1009.32	228.06
1009.60	227.98
1009.89	227.91
1010.18	227.82
1010.47	227.80
1010.76	227.80
1011.04	227.78
1011.33	227.74
1011.62	227.70
1011.91	227.68
1012.19	227.57
1012.48	227.59
1012.77	227.46
1013.05	227.60
1013.34	227.52
1013.63	227.49
1013.92	227.52
1014.20	227.47
1014.49	227.49
1014.78	227.52
1015.06	227.52
1015.35	227.47
1015.64	227.56
1015.92	227.59
1016.21	227.56
1016.50	227.60
1016.78	227.57
1017.07	227.54
1017.36	227.48
1017.64	227.37
1017.93	227.40
1018.22	227.46
1018.50	227.48
1018.79	227.54
1019.08	227.43
1019.36	227.61
1019.65	227.60
1019.93	227.63
1020.22	227.70
1020.51	227.75
1020.79	227.83
1021.08	228.10
1021.36	227.50
1021.65	227.20
1021.94	229.50
1022.22	229.20
1022.51	227.70
1022.79	229.00
1023.08	228.70
1023.36	228.50
1023.65	228.80
>>>>>End Processed Spectral Data<<<<<
