SpectraSuite Data File
++++++++++++++++++++++++++++++++++++
Date: Fri Feb 01 14:38:10 EST 2013
User: group
Dark Spectrum Present: No
Reference Spectrum Present: No
Number of Sampled Component Spectra: 1
Spectrometers: USB2E7196
Integration Time (usec): 70000 (USB2E7196)
Spectra Averaged: 10 (USB2E7196)
Boxcar Smoothing: 10 (USB2E7196)
Correct for Electrical Dark: No (USB2E7196)
Strobe/Lamp Enabled: No (USB2E7196)
Correct for Detector Non-linearity: No (USB2E7196)
Correct for Stray Light: No (USB2E7196)
Number of Pixels in Processed Spectrum: 2048
>>>>>Begin Processed Spectral Data<<<<<
339.09	0.00
339.48	216.60
339.86	217.00
340.24	218.80
340.63	220.30
341.01	225.10
341.39	222.90
341.78	225.60
342.16	225.40
342.54	226.10
342.93	214.84
343.31	225.74
343.69	226.29
344.07	226.75
344.46	227.20
344.84	227.54
345.22	227.66
345.60	227.99
345.99	228.15
346.37	228.27
346.75	228.38
347.13	228.43
347.52	228.55
347.90	228.54
348.28	228.43
348.66	228.48
349.05	228.48
349.43	228.56
349.81	228.64
350.19	228.70
350.57	228.72
350.96	228.74
351.34	228.76
351.72	228.77
352.10	228.84
352.48	228.88
352.87	228.97
353.25	229.06
353.63	229.09
354.01	229.10
354.39	229.21
354.77	229.28
355.15	229.45
355.54	229.38
355.92	229.44
356.30	229.61
356.68	229.81
357.06	229.87
357.44	229.82
357.82	229.87
358.20	229.85
358.58	229.79
358.97	229.82
359.35	230.08
359.73	230.21
360.11	230.29
360.49	230.34
360.87	230.39
361.25	230.42
361.63	230.37
362.01	230.46
362.39	230.37
362.77	230.38
363.15	230.30
363.53	230.24
363.91	230.24
364.29	230.16
364.67	229.98
365.05	230.00
365.43	230.15
365.81	230.17
366.19	230.24
366.57	230.29
366.95	230.26
367.33	229.94
367.71	229.92
368.09	229.99
368.47	230.00
368.85	229.96
369.23	229.98
369.61	229.98
369.99	229.94
370.37	230.01
370.75	230.08
371.13	230.03
371.51	230.06
371.89	230.06
372.27	230.09
372.65	229.92
373.03	229.78
373.41	229.71
373.78	229.56
374.16	229.50
374.54	229.37
374.92	229.25
375.30	229.23
375.68	229.09
376.06	228.97
376.44	228.88
376.82	228.84
377.19	228.60
377.57	228.48
377.95	228.32
378.33	228.20
378.71	227.96
379.09	227.96
379.47	227.84
379.84	227.70
380.22	227.58
380.60	227.47
380.98	227.48
381.36	227.23
381.73	227.19
382.11	227.14
382.49	227.11
382.87	227.00
383.25	226.91
383.62	227.02
384.00	226.95
384.38	226.92
384.76	226.90
385.13	227.06
385.51	226.99
385.89	227.00
386.27	227.00
386.64	226.90
387.02	226.72
387.40	226.80
387.78	226.76
388.15	226.71
388.53	226.75
388.91	226.73
389.29	226.86
389.66	226.84
390.04	226.69
390.42	226.69
390.79	226.71
391.17	226.79
391.55	226.55
391.92	226.59
392.30	226.56
392.68	226.48
393.05	226.45
393.43	226.48
393.81	226.38
394.18	226.37
394.56	226.56
394.94	226.68
395.31	226.57
395.69	226.70
396.06	226.71
396.44	226.88
396.82	226.84
397.19	226.93
397.57	227.07
397.95	227.18
398.32	227.22
398.70	227.29
399.07	227.33
399.45	227.46
399.82	227.46
400.20	227.47
400.58	227.63
400.95	227.56
401.33	227.73
401.70	228.04
402.08	228.18
402.45	228.20
402.83	228.29
403.20	228.50
403.58	228.55
403.95	228.70
404.33	228.77
404.71	229.03
405.08	229.28
405.46	229.32
405.83	229.57
406.21	229.73
406.58	230.00
406.96	230.17
407.33	230.33
407.70	230.51
408.08	231.01
408.45	231.23
408.83	231.59
409.20	231.76
409.58	231.89
409.95	232.18
410.33	232.59
410.70	232.89
411.08	233.29
411.45	233.70
411.82	234.22
412.20	234.69
412.57	235.28
412.95	235.58
413.32	236.14
413.69	236.68
414.07	237.18
414.44	237.76
414.82	238.44
415.19	239.19
415.56	239.98
415.94	240.57
416.31	241.40
416.68	242.27
417.06	243.23
417.43	244.13
417.81	245.11
418.18	246.13
418.55	247.29
418.93	248.43
419.30	249.70
419.67	250.90
420.04	252.30
420.42	253.57
420.79	255.19
421.16	256.77
421.54	258.49
421.91	260.17
422.28	261.90
422.66	263.78
423.03	265.70
423.40	267.55
423.77	269.55
424.15	271.57
424.52	273.63
424.89	275.94
425.26	278.20
425.64	280.34
426.01	282.75
426.38	285.03
426.75	287.44
427.13	289.97
427.50	292.59
427.87	295.25
428.24	297.97
428.61	300.70
428.99	303.58
429.36	306.64
429.73	309.81
430.10	312.78
430.47	315.89
430.85	318.99
431.22	322.30
431.59	325.92
431.96	329.30
432.33	332.95
432.70	336.58
433.08	340.82
433.45	344.83
433.82	348.60
434.19	353.15
434.56	357.59
434.93	361.57
435.30	365.71
435.68	370.21
436.05	374.66
436.42	378.98
436.79	383.22
437.16	387.64
437.53	392.24
437.90	396.84
438.27	401.22
438.64	405.80
439.01	410.04
439.38	413.86
439.75	417.40
440.13	421.68
440.50	425.66
440.87	428.98
441.24	432.40
441.61	436.26
441.98	439.04
442.35	442.18
442.72	445.60
443.09	448.76
443.46	450.74
443.83	452.15
444.20	453.37
444.57	455.13
444.94	455.93
445.31	456.94
445.68	458.12
446.05	458.82
446.42	458.80
446.79	458.87
447.16	458.63
447.53	458.93
447.90	457.77
448.27	456.51
448.64	454.48
449.01	453.10
449.37	450.48
449.74	447.87
450.11	444.79
450.48	441.21
450.85	437.74
451.22	435.05
451.59	432.27
451.96	429.60
452.33	425.57
452.70	422.21
453.07	418.05
453.43	413.80
453.80	409.70
454.17	405.65
454.54	401.80
454.91	397.76
455.28	393.63
455.65	389.79
456.02	386.24
456.38	383.10
456.75	379.05
457.12	375.61
457.49	372.26
457.86	369.15
458.23	366.48
458.59	363.32
458.96	359.92
459.33	357.02
459.70	354.15
460.07	351.91
460.43	349.22
460.80	346.70
461.17	344.37
461.54	342.07
461.91	339.97
462.27	337.77
462.64	335.68
463.01	333.56
463.38	331.41
463.74	329.08
464.11	327.15
464.48	325.60
464.85	323.80
465.21	322.45
465.58	320.85
465.95	318.96
466.32	317.54
466.68	315.97
467.05	314.46
467.42	312.94
467.78	311.45
468.15	310.04
468.52	308.86
468.88	307.38
469.25	305.93
469.62	304.73
469.98	303.50
470.35	302.46
470.72	301.46
471.08	300.47
471.45	299.53
471.82	298.59
472.18	297.47
472.55	296.70
472.92	295.67
473.28	294.68
473.65	293.93
474.02	293.13
474.38	292.44
474.75	291.78
475.11	291.03
475.48	290.44
475.85	289.86
476.21	289.19
476.58	288.80
476.94	288.43
477.31	288.08
477.67	287.60
478.04	287.20
478.41	286.82
478.77	286.64
479.14	286.13
479.50	285.76
479.87	285.44
480.23	285.16
480.60	284.94
480.96	284.65
481.33	284.49
481.69	284.27
482.06	284.13
482.42	283.85
482.79	283.73
483.15	283.70
483.52	283.70
483.88	283.69
484.25	283.40
484.61	283.33
484.98	283.19
485.34	283.20
485.71	283.10
486.07	282.98
486.44	282.82
486.80	282.96
487.17	282.99
487.53	283.20
487.90	283.38
488.26	283.58
488.62	283.78
488.99	283.90
489.35	284.01
489.72	284.28
490.08	284.67
490.44	284.97
490.81	285.13
491.17	285.35
491.54	285.62
491.90	286.06
492.26	286.31
492.63	286.73
492.99	286.93
493.36	287.37
493.72	287.78
494.08	288.10
494.45	288.54
494.81	289.05
495.17	289.35
495.54	289.68
495.90	290.13
496.26	290.50
496.63	290.94
496.99	291.39
497.35	291.76
497.72	292.23
498.08	292.66
498.44	293.22
498.80	293.69
499.17	294.16
499.53	294.46
499.89	294.92
500.26	295.24
500.62	295.82
500.98	296.29
501.34	296.70
501.71	297.13
502.07	297.50
502.43	297.68
502.79	298.08
503.16	298.50
503.52	298.70
503.88	299.03
504.24	299.28
504.60	299.54
504.97	299.77
505.33	299.99
505.69	300.30
506.05	300.49
506.41	300.78
506.78	301.00
507.14	301.27
507.50	301.47
507.86	301.70
508.22	301.89
508.59	302.06
508.95	302.17
509.31	302.46
509.67	302.71
510.03	303.00
510.39	303.26
510.75	303.50
511.12	303.79
511.48	304.07
511.84	304.48
512.20	304.78
512.56	305.18
512.92	305.49
513.28	305.89
513.64	306.33
514.00	306.63
514.37	307.05
514.73	307.55
515.09	308.00
515.45	308.47
515.81	309.07
516.17	309.68
516.53	310.51
516.89	311.03
517.25	311.75
517.61	312.71
517.97	313.69
518.33	314.60
518.69	315.58
519.05	316.60
519.41	317.61
519.77	318.79
520.13	319.90
520.49	321.21
520.85	322.33
521.21	323.64
521.57	325.14
521.93	326.56
522.29	328.15
522.65	329.82
523.01	331.60
523.37	333.22
523.73	335.02
524.09	336.88
524.45	338.93
524.81	341.02
525.17	343.07
525.53	345.23
525.89	347.43
526.25	349.82
526.61	352.30
526.97	354.88
527.33	357.58
527.68	360.40
528.04	363.13
528.40	366.11
528.76	369.28
529.12	372.25
529.48	375.50
529.84	378.65
530.20	382.10
530.56	385.70
530.91	389.30
531.27	392.96
531.63	396.57
531.99	400.32
532.35	404.04
532.71	407.90
533.07	411.90
533.42	416.16
533.78	420.23
534.14	424.36
534.50	428.49
534.86	432.83
535.21	437.20
535.57	441.92
535.93	446.28
536.29	450.70
536.65	455.43
537.00	460.04
537.36	464.86
537.72	469.52
538.08	474.06
538.44	478.99
538.79	483.83
539.15	488.66
539.51	493.79
539.87	498.97
540.22	504.13
540.58	509.34
540.94	514.42
541.29	519.55
541.65	524.78
542.01	530.25
542.37	535.41
542.72	540.79
543.08	545.91
543.44	551.48
543.79	556.68
544.15	562.10
544.51	567.85
544.87	573.41
545.22	578.92
545.58	584.65
545.94	589.92
546.29	595.49
546.65	601.18
547.01	606.62
547.36	612.15
547.72	617.55
548.07	622.92
548.43	628.30
548.79	633.92
549.14	639.71
549.50	644.89
549.86	650.32
550.21	655.65
550.57	661.15
550.92	666.60
551.28	671.99
551.64	677.38
551.99	682.60
552.35	688.00
552.70	693.44
553.06	698.53
553.41	704.00
553.77	709.52
554.13	714.80
554.48	720.16
554.84	725.42
555.19	730.73
555.55	736.05
555.90	740.97
556.26	745.97
556.61	750.71
556.97	755.73
557.32	760.69
557.68	765.67
558.03	770.33
558.39	775.20
558.74	780.20
559.10	785.03
559.45	789.80
559.81	794.43
560.16	799.07
560.52	804.16
560.87	808.93
561.23	813.31
561.58	817.97
561.94	822.71
562.29	826.87
562.64	831.15
563.00	835.44
563.35	840.22
563.71	844.72
564.06	849.22
564.42	853.83
564.77	858.13
565.12	862.35
565.48	867.07
565.83	871.21
566.19	875.39
566.54	879.48
566.89	883.56
567.25	887.62
567.60	891.89
567.96	895.55
568.31	899.41
568.66	903.24
569.02	906.60
569.37	909.98
569.72	913.87
570.08	917.35
570.43	920.61
570.78	923.49
571.14	926.51
571.49	929.19
571.84	932.24
572.20	935.09
572.55	938.12
572.90	940.43
573.26	942.96
573.61	945.41
573.96	947.59
574.31	949.44
574.67	951.14
575.02	952.66
575.37	954.39
575.72	955.89
576.08	957.51
576.43	959.08
576.78	960.54
577.13	961.87
577.49	963.37
577.84	965.01
578.19	966.73
578.54	968.01
578.90	969.36
579.25	969.94
579.60	970.89
579.95	971.60
580.30	972.33
580.66	973.13
581.01	973.85
581.36	974.63
581.71	975.51
582.06	976.31
582.42	976.98
582.77	977.54
583.12	977.92
583.47	978.66
583.82	979.47
584.17	979.80
584.53	980.13
584.88	980.67
585.23	980.63
585.58	980.69
585.93	980.66
586.28	981.20
586.63	981.66
586.98	982.10
587.34	982.52
587.69	982.88
588.04	982.90
588.39	982.93
588.74	982.60
589.09	982.30
589.44	982.01
589.79	981.46
590.14	981.04
590.49	981.14
590.84	980.12
591.19	979.69
591.54	978.91
591.89	977.87
592.25	976.74
592.60	975.62
592.95	974.30
593.30	973.19
593.65	971.71
594.00	970.33
594.35	969.58
594.70	967.60
595.05	966.17
595.40	964.74
595.75	962.94
596.10	961.79
596.45	960.53
596.80	959.66
597.15	958.72
597.50	957.21
597.85	955.69
598.19	954.69
598.54	953.28
598.89	952.09
599.24	951.08
599.59	950.07
599.94	949.03
600.29	947.70
600.64	946.34
600.99	944.69
601.34	943.35
601.69	941.08
602.04	939.68
602.39	937.99
602.74	936.82
603.08	935.65
603.43	934.18
603.78	932.47
604.13	930.27
604.48	928.32
604.83	926.79
605.18	924.93
605.53	922.59
605.87	920.16
606.22	918.00
606.57	915.79
606.92	913.53
607.27	911.49
607.62	909.70
607.96	907.68
608.31	905.65
608.66	903.15
609.01	900.84
609.36	898.23
609.70	895.58
610.05	892.68
610.40	890.13
610.75	887.38
611.10	884.70
611.44	881.65
611.79	878.88
612.14	875.99
612.49	872.64
612.83	869.70
613.18	866.90
613.53	864.00
613.88	860.57
614.22	857.15
614.57	853.86
614.92	850.66
615.27	847.90
615.61	844.96
615.96	842.27
616.31	839.67
616.65	837.38
617.00	834.49
617.35	831.62
617.70	828.33
618.04	824.96
618.39	822.08
618.74	819.49
619.08	816.52
619.43	813.85
619.78	811.43
620.12	808.77
620.47	805.92
620.82	802.96
621.16	800.53
621.51	798.08
621.85	795.17
622.20	792.31
622.55	789.18
622.89	786.47
623.24	783.48
623.59	780.19
623.93	777.01
624.28	774.26
624.62	771.69
624.97	768.89
625.32	766.40
625.66	763.63
626.01	760.77
626.35	758.02
626.70	754.85
627.04	751.86
627.39	748.82
627.73	745.84
628.08	743.04
628.43	740.00
628.77	736.99
629.12	733.87
629.46	730.86
629.81	727.76
630.15	724.18
630.50	721.08
630.84	718.00
631.19	714.97
631.53	711.93
631.88	708.34
632.22	705.28
632.57	702.12
632.91	698.93
633.26	695.84
633.60	692.53
633.95	689.66
634.29	686.63
634.64	683.98
634.98	681.02
635.32	678.19
635.67	675.62
636.01	672.55
636.36	669.80
636.70	667.06
637.05	664.48
637.39	662.06
637.73	659.48
638.08	656.96
638.42	654.28
638.77	651.70
639.11	648.75
639.45	646.15
639.80	643.39
640.14	640.57
640.49	637.78
640.83	635.12
641.17	632.30
641.52	629.70
641.86	626.66
642.20	623.95
642.55	621.17
642.89	618.24
643.23	615.58
643.58	613.17
643.92	610.15
644.26	607.41
644.61	604.76
644.95	601.93
645.29	598.92
645.64	595.96
645.98	593.13
646.32	590.61
646.66	587.76
647.01	585.08
647.35	582.60
647.69	580.00
648.04	577.49
648.38	574.75
648.72	571.72
649.06	568.90
649.41	566.09
649.75	563.18
650.09	560.27
650.43	557.53
650.78	554.48
651.12	551.78
651.46	549.01
651.80	546.32
652.14	543.56
652.49	541.00
652.83	538.53
653.17	535.67
653.51	533.01
653.85	530.28
654.20	527.56
654.54	524.72
654.88	521.95
655.22	518.90
655.56	516.07
655.90	513.55
656.25	511.20
656.59	508.74
656.93	506.31
657.27	503.90
657.61	501.28
657.95	499.01
658.29	496.70
658.64	494.09
658.98	491.44
659.32	488.88
659.66	486.42
660.00	483.81
660.34	481.50
660.68	479.10
661.02	476.76
661.36	474.48
661.70	472.28
662.05	470.06
662.39	468.14
662.73	466.11
663.07	463.96
663.41	461.62
663.75	459.46
664.09	457.25
664.43	455.03
664.77	453.08
665.11	450.79
665.45	448.79
665.79	446.81
666.13	444.74
666.47	442.74
666.81	440.55
667.15	438.31
667.49	436.31
667.83	434.56
668.17	432.56
668.51	430.62
668.85	428.58
669.19	426.77
669.53	424.83
669.87	422.87
670.21	420.97
670.55	419.30
670.89	417.62
671.23	415.96
671.57	414.44
671.91	412.51
672.25	410.88
672.58	409.12
672.92	407.44
673.26	405.91
673.60	404.41
673.94	402.98
674.28	401.81
674.62	400.34
674.96	398.72
675.30	397.50
675.64	395.94
675.97	394.59
676.31	393.11
676.65	391.63
676.99	390.36
677.33	388.80
677.67	387.26
678.01	385.70
678.34	384.18
678.68	382.65
679.02	381.25
679.36	379.93
679.70	378.40
680.04	376.92
680.37	375.46
680.71	374.17
681.05	372.74
681.39	371.34
681.73	370.03
682.06	368.65
682.40	367.15
682.74	365.93
683.08	364.57
683.42	363.25
683.75	361.96
684.09	360.48
684.43	359.33
684.77	357.99
685.10	356.66
685.44	355.30
685.78	353.87
686.12	352.70
686.45	351.33
686.79	350.19
687.13	349.18
687.46	347.94
687.80	346.58
688.14	345.45
688.48	344.22
688.81	342.81
689.15	341.66
689.49	340.40
689.82	339.25
690.16	338.01
690.50	336.70
690.83	335.48
691.17	334.34
691.51	333.15
691.84	332.21
692.18	331.24
692.52	330.14
692.85	329.08
693.19	328.16
693.52	327.12
693.86	326.03
694.20	324.85
694.53	323.88
694.87	322.80
695.21	321.67
695.54	320.59
695.88	319.60
696.21	318.57
696.55	317.67
696.88	316.59
697.22	315.59
697.56	314.73
697.89	313.88
698.23	312.94
698.56	311.91
698.90	310.90
699.23	309.80
699.57	308.86
699.90	307.92
700.24	306.83
700.58	305.87
700.91	304.97
701.25	304.03
701.58	303.18
701.92	302.42
702.25	301.51
702.59	300.58
702.92	299.81
703.26	298.85
703.59	298.06
703.93	297.50
704.26	296.71
704.60	295.83
704.93	294.90
705.26	294.04
705.60	293.40
705.93	292.62
706.27	292.02
706.60	291.36
706.94	290.80
707.27	290.07
707.61	289.23
707.94	288.53
708.27	287.79
708.61	286.94
708.94	286.30
709.28	285.73
709.61	285.10
709.94	284.46
710.28	283.93
710.61	283.30
710.95	282.42
711.28	282.00
711.61	281.42
711.95	281.05
712.28	280.45
712.61	279.88
712.95	279.38
713.28	278.83
713.61	278.33
713.95	277.70
714.28	277.16
714.61	276.70
714.95	276.15
715.28	275.70
715.61	275.24
715.95	274.73
716.28	274.30
716.61	273.86
716.95	273.35
717.28	272.94
717.61	272.40
717.94	271.92
718.28	271.26
718.61	270.93
718.94	270.38
719.27	270.10
719.61	269.68
719.94	269.20
720.27	268.72
720.60	268.30
720.94	267.94
721.27	267.53
721.60	267.29
721.93	267.00
722.27	266.70
722.60	266.38
722.93	265.96
723.26	265.49
723.59	265.17
723.93	264.83
724.26	264.36
724.59	263.99
724.92	263.73
725.25	263.56
725.59	263.14
725.92	262.90
726.25	262.42
726.58	262.09
726.91	261.84
727.24	261.46
727.57	261.12
727.91	260.84
728.24	260.67
728.57	260.25
728.90	259.92
729.23	259.57
729.56	259.30
729.89	258.96
730.22	258.70
730.55	258.29
730.89	257.97
731.22	257.74
731.55	257.47
731.88	257.11
732.21	256.66
732.54	256.37
732.87	255.90
733.20	255.59
733.53	255.28
733.86	254.98
734.19	254.66
734.52	254.30
734.85	254.12
735.18	253.69
735.51	253.53
735.84	253.22
736.17	253.08
736.50	252.75
736.83	252.68
737.16	252.35
737.49	252.25
737.82	251.99
738.15	251.79
738.48	251.45
738.81	251.19
739.14	251.04
739.47	250.68
739.80	250.53
740.13	250.42
740.46	250.13
740.79	249.88
741.12	249.75
741.45	249.53
741.78	249.17
742.11	249.09
742.44	248.79
742.77	248.60
743.10	248.20
743.43	247.96
743.75	247.56
744.08	247.63
744.41	247.30
744.74	247.04
745.07	246.81
745.40	246.73
745.73	246.60
746.06	246.34
746.39	246.16
746.71	245.81
747.04	245.67
747.37	245.46
747.70	245.25
748.03	245.00
748.36	244.93
748.68	244.74
749.01	244.48
749.34	244.26
749.67	244.02
750.00	243.89
750.33	243.72
750.65	243.67
750.98	243.30
751.31	243.19
751.64	243.03
751.97	242.95
752.29	242.80
752.62	242.56
752.95	242.40
753.28	242.22
753.60	242.27
753.93	242.07
754.26	241.93
754.59	241.80
754.91	241.68
755.24	241.44
755.57	241.27
755.90	241.10
756.22	240.92
756.55	240.91
756.88	240.84
757.20	240.77
757.53	240.50
757.86	240.30
758.19	240.20
758.51	240.13
758.84	240.01
759.17	239.83
759.49	239.76
759.82	239.66
760.15	239.67
760.47	239.38
760.80	239.29
761.13	239.21
761.45	239.08
761.78	238.87
762.11	238.88
762.43	238.75
762.76	238.66
763.08	238.59
763.41	238.35
763.74	238.15
764.06	238.02
764.39	238.01
764.71	237.99
765.04	237.84
765.37	237.65
765.69	237.37
766.02	237.40
766.34	237.25
766.67	237.17
767.00	237.11
767.32	237.23
767.65	237.20
767.97	237.14
768.30	237.02
768.62	236.99
768.95	236.81
769.27	236.77
769.60	236.75
769.92	236.69
770.25	236.61
770.57	236.43
770.90	236.31
771.22	236.16
771.55	236.05
771.87	236.04
772.20	235.97
772.52	236.11
772.85	236.05
773.17	236.06
773.50	235.98
773.82	235.80
774.15	235.60
774.47	235.40
774.80	235.24
775.12	235.22
775.45	235.17
775.77	235.16
776.09	235.10
776.42	235.06
776.74	234.99
777.07	234.86
777.39	234.89
777.72	234.74
778.04	234.70
778.36	234.56
778.69	234.42
779.01	234.45
779.33	234.27
779.66	234.05
779.98	233.89
780.31	233.73
780.63	233.77
780.95	233.76
781.28	233.68
781.60	233.58
781.92	233.36
782.25	233.28
782.57	233.07
782.89	233.00
783.22	232.86
783.54	232.80
783.86	232.78
784.19	232.71
784.51	232.80
784.83	232.74
785.16	232.70
785.48	232.62
785.80	232.57
786.12	232.48
786.45	232.42
786.77	232.39
787.09	232.40
787.42	232.32
787.74	232.25
788.06	232.30
788.38	232.35
788.71	232.36
789.03	232.30
789.35	232.31
789.67	232.25
789.99	232.24
790.32	232.16
790.64	232.23
790.96	232.30
791.28	232.22
791.61	232.11
791.93	232.10
792.25	232.11
792.57	232.24
792.89	232.21
793.21	232.20
793.54	232.19
793.86	232.14
794.18	232.12
794.50	232.15
794.82	232.10
795.14	232.13
795.47	232.21
795.79	232.21
796.11	232.25
796.43	232.22
796.75	232.21
797.07	232.29
797.39	232.19
797.71	232.05
798.04	232.02
798.36	232.08
798.68	232.14
799.00	232.11
799.32	231.95
799.64	231.91
799.96	231.94
800.28	232.08
800.60	232.01
800.92	232.00
801.24	231.93
801.56	231.91
801.89	231.74
802.21	231.73
802.53	231.65
802.85	231.68
803.17	231.77
803.49	231.67
803.81	231.49
804.13	231.51
804.45	231.45
804.77	231.46
805.09	231.48
805.41	231.39
805.73	231.36
806.05	231.30
806.37	231.22
806.69	231.14
807.01	231.07
807.33	231.21
807.65	231.16
807.97	231.15
808.28	231.09
808.60	231.16
808.92	231.03
809.24	231.20
809.56	231.09
809.88	230.88
810.20	230.86
810.52	231.02
810.84	231.00
811.16	230.99
811.48	230.95
811.80	230.89
812.12	230.87
812.43	230.89
812.75	230.82
813.07	230.98
813.39	231.00
813.71	230.85
814.03	230.73
814.35	230.65
814.67	230.61
814.98	230.61
815.30	230.52
815.62	230.53
815.94	230.28
816.26	230.34
816.58	230.42
816.89	230.43
817.21	230.26
817.53	230.20
817.85	230.18
818.17	230.21
818.48	230.13
818.80	230.14
819.12	230.11
819.44	230.09
819.76	229.88
820.07	229.86
820.39	229.80
820.71	229.80
821.03	229.70
821.34	229.64
821.66	229.64
821.98	229.68
822.30	229.60
822.61	229.70
822.93	229.63
823.25	229.49
823.57	229.47
823.88	229.54
824.20	229.43
824.52	229.41
824.83	229.32
825.15	229.29
825.47	229.21
825.79	229.12
826.10	229.00
826.42	228.95
826.74	228.93
827.05	228.90
827.37	228.91
827.69	228.91
828.00	228.97
828.32	228.90
828.64	228.85
828.95	228.99
829.27	228.98
829.58	228.86
829.90	228.90
830.22	228.90
830.53	228.80
830.85	228.79
831.17	228.87
831.48	228.79
831.80	228.80
832.11	228.75
832.43	228.76
832.75	228.85
833.06	229.05
833.38	228.98
833.69	229.05
834.01	229.06
834.32	229.19
834.64	229.06
834.96	229.06
835.27	229.10
835.59	229.00
835.90	228.95
836.22	229.03
836.53	229.05
836.85	229.14
837.16	229.46
837.48	229.51
837.79	229.45
838.11	229.62
838.42	229.60
838.74	229.72
839.05	229.80
839.37	229.82
839.68	229.73
840.00	229.70
840.31	229.73
840.63	229.64
840.94	229.66
841.26	229.77
841.57	229.82
841.88	229.88
842.20	229.84
842.51	229.76
842.83	229.82
843.14	229.92
843.46	229.80
843.77	229.60
844.08	229.70
844.40	229.68
844.71	229.62
845.03	229.58
845.34	229.55
845.65	229.47
845.97	229.49
846.28	229.49
846.60	229.44
846.91	229.38
847.22	229.40
847.54	229.32
847.85	229.30
848.16	229.30
848.48	229.13
848.79	229.25
849.10	229.35
849.42	229.23
849.73	229.16
850.04	229.13
850.36	229.12
850.67	228.99
850.98	228.90
851.30	228.90
851.61	228.92
851.92	228.90
852.23	228.95
852.55	228.94
852.86	228.93
853.17	229.06
853.49	229.06
853.80	229.08
854.11	229.09
854.42	229.07
854.74	229.00
855.05	229.07
855.36	228.83
855.67	228.76
855.99	228.73
856.30	228.92
856.61	228.84
856.92	228.74
857.23	228.75
857.55	228.80
857.86	228.65
858.17	228.70
858.48	228.62
858.79	228.57
859.11	228.48
859.42	228.50
859.73	228.40
860.04	228.35
860.35	228.30
860.66	228.20
860.98	228.27
861.29	228.28
861.60	228.18
861.91	228.21
862.22	228.28
862.53	228.24
862.84	228.03
863.16	228.13
863.47	228.10
863.78	228.10
864.09	228.07
864.40	228.10
864.71	228.03
865.02	228.11
865.33	228.10
865.64	228.13
865.95	228.02
866.27	228.16
866.58	228.19
866.89	228.29
867.20	228.32
867.51	228.17
867.82	228.15
868.13	228.25
868.44	228.35
868.75	228.33
869.06	228.40
869.37	228.44
869.68	228.42
869.99	228.49
870.30	228.52
870.61	228.66
870.92	228.71
871.23	228.82
871.54	228.82
871.85	228.96
872.16	228.95
872.47	228.98
872.78	228.89
873.09	228.96
873.40	228.90
873.71	228.85
874.02	229.04
874.33	229.06
874.64	229.00
874.95	229.09
875.26	229.12
875.56	229.06
875.87	229.01
876.18	229.08
876.49	229.24
876.80	229.29
877.11	229.13
877.42	229.12
877.73	229.14
878.04	229.10
878.35	229.04
878.66	229.13
878.96	229.13
879.27	229.24
879.58	229.31
879.89	229.30
880.20	229.45
880.51	229.36
880.82	229.38
881.12	229.45
881.43	229.33
881.74	229.32
882.05	229.36
882.36	229.42
882.67	229.43
882.97	229.25
883.28	229.20
883.59	229.29
883.90	229.25
884.21	229.20
884.51	229.20
884.82	229.23
885.13	229.21
885.44	229.15
885.74	229.12
886.05	228.97
886.36	229.03
886.67	228.95
886.98	229.01
887.28	229.03
887.59	229.09
887.90	229.12
888.20	229.03
888.51	229.09
888.82	229.05
889.13	228.99
889.43	229.17
889.74	229.22
890.05	229.22
890.35	229.24
890.66	229.19
890.97	229.17
891.28	229.10
891.58	229.00
891.89	229.11
892.20	228.98
892.50	228.96
892.81	228.97
893.12	228.94
893.42	228.73
893.73	228.66
894.04	228.57
894.34	228.60
894.65	228.60
894.95	228.55
895.26	228.55
895.57	228.66
895.87	228.40
896.18	228.44
896.48	228.34
896.79	228.29
897.10	228.33
897.40	228.34
897.71	228.36
898.01	228.34
898.32	228.30
898.63	228.30
898.93	228.34
899.24	228.24
899.54	228.18
899.85	228.22
900.15	228.13
900.46	228.15
900.76	228.10
901.07	228.09
901.38	228.05
901.68	228.02
901.99	227.90
902.29	227.84
902.60	227.70
902.90	227.74
903.21	227.76
903.51	227.75
903.82	227.82
904.12	227.81
904.43	227.81
904.73	227.79
905.03	227.81
905.34	227.93
905.64	227.89
905.95	227.90
906.25	227.91
906.56	228.06
906.86	228.02
907.17	228.02
907.47	228.00
907.77	228.00
908.08	227.96
908.38	228.04
908.69	228.11
908.99	228.12
909.30	228.16
909.60	228.17
909.90	228.10
910.21	228.06
910.51	228.05
910.81	228.10
911.12	228.10
911.42	228.17
911.73	228.05
912.03	228.13
912.33	228.24
912.64	228.26
912.94	228.15
913.24	228.20
913.55	228.15
913.85	228.12
914.15	228.07
914.46	228.19
914.76	228.02
915.06	228.08
915.37	228.17
915.67	228.22
915.97	228.34
916.27	228.35
916.58	228.37
916.88	228.26
917.18	228.24
917.49	228.37
917.79	228.33
918.09	228.45
918.39	228.41
918.70	228.52
919.00	228.46
919.30	228.60
919.60	228.48
919.91	228.56
920.21	228.60
920.51	228.63
920.81	228.58
921.12	228.68
921.42	228.66
921.72	228.71
922.02	228.64
922.32	228.60
922.63	228.67
922.93	228.68
923.23	228.77
923.53	228.85
923.83	228.70
924.13	228.73
924.44	228.57
924.74	228.60
925.04	228.48
925.34	228.58
925.64	228.54
925.94	228.63
926.24	228.73
926.55	228.77
926.85	228.81
927.15	228.83
927.45	228.86
927.75	228.90
928.05	228.80
928.35	228.74
928.65	228.73
928.95	228.63
929.26	228.59
929.56	228.65
929.86	228.73
930.16	228.79
930.46	228.71
930.76	228.76
931.06	228.63
931.36	228.54
931.66	228.61
931.96	228.55
932.26	228.57
932.56	228.44
932.86	228.46
933.16	228.46
933.46	228.38
933.76	228.39
934.06	228.37
934.36	228.48
934.66	228.43
934.96	228.41
935.26	228.51
935.56	228.64
935.86	228.60
936.16	228.37
936.46	228.35
936.76	228.36
937.06	228.30
937.36	228.39
937.66	228.53
937.96	228.45
938.26	228.40
938.56	228.37
938.86	228.26
939.16	228.32
939.46	228.32
939.76	228.29
940.06	228.17
940.35	228.20
940.65	228.04
940.95	228.12
941.25	228.04
941.55	227.96
941.85	227.89
942.15	227.94
942.45	228.02
942.75	227.99
943.04	228.04
943.34	228.11
943.64	228.05
943.94	228.00
944.24	228.04
944.54	228.18
944.84	228.23
945.13	228.35
945.43	228.30
945.73	228.28
946.03	228.28
946.33	228.35
946.62	228.30
946.92	228.37
947.22	228.39
947.52	228.30
947.82	228.36
948.11	228.40
948.41	228.20
948.71	228.26
949.01	228.24
949.31	228.18
949.60	228.23
949.90	228.33
950.20	228.33
950.50	228.26
950.79	228.22
951.09	228.10
951.39	228.07
951.69	228.06
951.98	228.18
952.28	228.26
952.58	228.20
952.87	228.25
953.17	228.33
953.47	228.29
953.76	228.51
954.06	228.48
954.36	228.32
954.66	228.52
954.95	228.49
955.25	228.64
955.55	228.77
955.84	228.71
956.14	228.76
956.44	228.80
956.73	228.83
957.03	228.91
957.32	229.11
957.62	229.09
957.92	229.07
958.21	229.03
958.51	229.27
958.81	229.35
959.10	229.43
959.40	229.45
959.69	229.49
959.99	229.44
960.29	229.46
960.58	229.57
960.88	229.50
961.17	229.44
961.47	229.37
961.76	229.22
962.06	229.31
962.36	229.23
962.65	229.17
962.95	229.23
963.24	229.09
963.54	229.11
963.83	229.17
964.13	229.21
964.42	229.17
964.72	228.99
965.01	228.94
965.31	228.83
965.60	228.65
965.90	228.79
966.19	228.76
966.49	228.75
966.78	228.65
967.08	228.63
967.37	228.63
967.67	228.64
967.96	228.74
968.26	228.65
968.55	228.70
968.85	228.73
969.14	228.60
969.43	228.70
969.73	228.58
970.02	228.53
970.32	228.51
970.61	228.49
970.91	228.42
971.20	228.35
971.49	228.43
971.79	228.43
972.08	228.32
972.38	228.31
972.67	228.34
972.96	228.43
973.26	228.50
973.55	228.57
973.85	228.52
974.14	228.58
974.43	228.60
974.73	228.58
975.02	228.49
975.31	228.50
975.61	228.38
975.90	228.32
976.19	228.29
976.49	228.27
976.78	228.27
977.07	228.25
977.37	228.36
977.66	228.28
977.95	228.34
978.24	228.30
978.54	228.32
978.83	228.26
979.12	228.13
979.42	228.10
979.71	228.05
980.00	227.99
980.29	227.83
980.59	227.73
980.88	227.69
981.17	227.73
981.46	227.71
981.76	227.79
982.05	227.92
982.34	227.88
982.63	227.85
982.93	227.85
983.22	227.91
983.51	227.83
983.80	227.92
984.09	227.93
984.39	227.88
984.68	227.87
984.97	227.87
985.26	227.90
985.55	227.77
985.85	227.67
986.14	227.78
986.43	227.90
986.72	227.91
987.01	227.88
987.30	227.77
987.59	227.82
987.89	227.73
988.18	227.57
988.47	227.59
988.76	227.61
989.05	227.57
989.34	227.41
989.63	227.46
989.92	227.40
990.22	227.29
990.51	227.36
990.80	227.35
991.09	227.36
991.38	227.37
991.67	227.45
991.96	227.59
992.25	227.60
992.54	227.51
992.83	227.51
993.12	227.50
993.41	227.70
993.70	227.76
993.99	227.80
994.28	227.94
994.58	227.94
994.87	227.88
995.16	227.92
995.45	228.08
995.74	228.03
996.03	228.07
996.32	228.18
996.61	228.21
996.90	228.16
997.19	228.20
997.48	228.20
997.77	228.25
998.06	228.25
998.34	228.19
998.63	228.21
998.92	228.24
999.21	228.31
999.50	228.25
999.79	228.17
1000.08	228.24
1000.37	228.23
1000.66	228.26
1000.95	228.33
1001.24	228.40
1001.53	228.40
1001.82	228.33
1002.11	228.22
1002.40	228.20
1002.68	228.21
1002.97	228.47
1003.26	228.45
1003.55	228.51
1003.84	228.54
1004.13	228.57
1004.42	228.70
1004.71	228.73
1004.99	228.71
1005.28	228.76
1005.57	228.74
1005.86	228.88
1006.15	228.87
1006.44	228.80
1006.72	228.86
1007.01	228.84
1007.30	228.79
1007.59	228.71
1007.88	228.82
1008.17	228.84
1008.45	228.94
1008.74	228.92
1009.03	228.68
1009.32	228.71
1009.60	228.64
1009.89	228.60
1010.18	228.49
1010.47	228.34
1010.76	228.29
1011.04	228.20
1011.33	228.20
1011.62	228.24
1011.91	228.15
1012.19	228.14
1012.48	228.06
1012.77	227.99
1013.05	228.09
1013.34	228.04
1013.63	228.08
1013.92	228.08
1014.20	228.11
1014.49	228.00
1014.78	228.03
1015.06	227.96
1015.35	227.91
1015.64	227.99
1015.92	228.00
1016.21	228.05
1016.50	228.13
1016.78	228.15
1017.07	228.24
1017.36	228.16
1017.64	228.07
1017.93	228.06
1018.22	227.97
1018.50	228.03
1018.79	228.00
1019.08	227.87
1019.36	227.88
1019.65	227.91
1019.93	227.97
1020.22	227.99
1020.51	228.04
1020.79	227.91
1021.08	226.70
1021.36	227.80
1021.65	226.80
1021.94	227.20
1022.22	227.10
1022.51	229.10
1022.79	229.80
1023.08	228.40
1023.36	228.50
1023.65	227.30
>>>>>End Processed Spectral Data<<<<<
