SpectraSuite Data File
++++++++++++++++++++++++++++++++++++
Date: Fri Feb 01 14:42:10 EST 2013
User: group
Dark Spectrum Present: No
Reference Spectrum Present: No
Number of Sampled Component Spectra: 1
Spectrometers: USB2E7196
Integration Time (usec): 70000 (USB2E7196)
Spectra Averaged: 10 (USB2E7196)
Boxcar Smoothing: 10 (USB2E7196)
Correct for Electrical Dark: No (USB2E7196)
Strobe/Lamp Enabled: No (USB2E7196)
Correct for Detector Non-linearity: No (USB2E7196)
Correct for Stray Light: No (USB2E7196)
Number of Pixels in Processed Spectrum: 2048
>>>>>Begin Processed Spectral Data<<<<<
339.09	0.00
339.48	216.70
339.86	218.00
340.24	219.90
340.63	219.30
341.01	225.20
341.39	221.00
341.78	224.60
342.16	226.50
342.54	226.50
342.93	214.62
343.31	225.45
343.69	225.92
344.07	226.50
344.46	226.92
344.84	227.36
345.22	227.52
345.60	227.92
345.99	228.04
346.37	228.17
346.75	228.22
347.13	228.35
347.52	228.55
347.90	228.55
348.28	228.67
348.66	228.81
349.05	228.80
349.43	228.87
349.81	229.06
350.19	229.17
350.57	229.20
350.96	229.24
351.34	229.39
351.72	229.62
352.10	229.65
352.48	229.68
352.87	229.78
353.25	229.77
353.63	229.83
354.01	229.91
354.39	230.02
354.77	230.13
355.15	230.26
355.54	230.36
355.92	230.40
356.30	230.44
356.68	230.64
357.06	230.70
357.44	230.83
357.82	230.80
358.20	230.91
358.58	231.02
358.97	230.97
359.35	231.14
359.73	231.17
360.11	231.20
360.49	231.34
360.87	231.38
361.25	231.56
361.63	231.63
362.01	231.71
362.39	231.67
362.77	231.77
363.15	231.77
363.53	231.69
363.91	231.75
364.29	231.78
364.67	231.56
365.05	231.61
365.43	231.59
365.81	231.61
366.19	231.66
366.57	231.64
366.95	231.59
367.33	231.39
367.71	231.28
368.09	231.25
368.47	231.16
368.85	231.14
369.23	231.05
369.61	230.99
369.99	230.96
370.37	230.91
370.75	230.88
371.13	230.81
371.51	230.81
371.89	230.75
372.27	230.54
372.65	230.50
373.03	230.35
373.41	230.22
373.78	230.22
374.16	230.04
374.54	229.95
374.92	229.95
375.30	229.85
375.68	229.87
376.06	229.75
376.44	229.68
376.82	229.58
377.19	229.55
377.57	229.36
377.95	229.26
378.33	229.27
378.71	229.08
379.09	229.04
379.47	229.00
379.84	228.93
380.22	228.93
380.60	228.79
380.98	228.64
381.36	228.57
381.73	228.47
382.11	228.40
382.49	228.39
382.87	228.25
383.25	228.25
383.62	228.41
384.00	228.33
384.38	228.25
384.76	228.19
385.13	228.25
385.51	228.24
385.89	228.21
386.27	228.20
386.64	228.23
387.02	228.14
387.40	228.01
387.78	227.93
388.15	227.90
388.53	227.96
388.91	228.01
389.29	228.01
389.66	228.12
390.04	228.05
390.42	228.02
390.79	228.01
391.17	228.00
391.55	227.68
391.92	227.73
392.30	227.83
392.68	227.86
393.05	227.83
393.43	227.86
393.81	227.92
394.18	227.96
394.56	228.07
394.94	228.20
395.31	228.33
395.69	228.46
396.06	228.58
396.44	228.59
396.82	228.67
397.19	228.84
397.57	228.80
397.95	228.92
398.32	229.03
398.70	229.06
399.07	229.20
399.45	229.45
399.82	229.48
400.20	229.50
400.58	229.62
400.95	229.70
401.33	229.88
401.70	230.10
402.08	230.14
402.45	230.17
402.83	230.30
403.20	230.39
403.58	230.50
403.95	230.71
404.33	230.90
404.71	231.11
405.08	231.46
405.46	231.66
405.83	232.00
406.21	232.25
406.58	232.52
406.96	232.77
407.33	232.93
407.70	233.28
408.08	233.71
408.45	234.03
408.83	234.35
409.20	234.66
409.58	234.93
409.95	235.40
410.33	235.86
410.70	236.21
411.08	236.66
411.45	237.09
411.82	237.48
412.20	238.14
412.57	238.83
412.95	239.23
413.32	239.94
413.69	240.54
414.07	241.27
414.44	242.16
414.82	242.85
415.19	243.72
415.56	244.59
415.94	245.48
416.31	246.46
416.68	247.63
417.06	248.79
417.43	249.83
417.81	250.96
418.18	252.25
418.55	253.64
418.93	254.98
419.30	256.49
419.67	258.00
420.04	259.42
420.42	261.04
420.79	262.92
421.16	264.72
421.54	266.63
421.91	268.60
422.28	270.48
422.66	272.71
423.03	274.87
423.40	277.02
423.77	279.27
424.15	281.50
424.52	283.56
424.89	286.17
425.26	288.70
425.64	291.08
426.01	293.64
426.38	296.49
426.75	299.31
427.13	301.95
427.50	304.94
427.87	307.95
428.24	310.80
428.61	313.65
428.99	316.76
429.36	320.10
429.73	323.20
430.10	326.51
430.47	329.74
430.85	333.04
431.22	336.81
431.59	340.70
431.96	344.42
432.33	348.51
432.70	352.36
433.08	356.97
433.45	361.16
433.82	365.32
434.19	369.93
434.56	374.36
434.93	378.82
435.30	382.87
435.68	387.55
436.05	392.08
436.42	396.60
436.79	400.68
437.16	405.01
437.53	409.57
437.90	414.17
438.27	418.60
438.64	423.23
439.01	427.29
439.38	430.86
439.75	434.19
440.13	438.23
440.50	441.87
440.87	444.67
441.24	447.72
441.61	451.28
441.98	453.49
442.35	456.31
442.72	459.28
443.09	462.38
443.46	463.80
443.83	464.65
444.20	465.20
444.57	466.40
444.94	466.87
445.31	467.29
445.68	467.74
446.05	467.76
446.42	466.95
446.79	466.28
447.16	465.39
447.53	465.03
447.90	463.09
448.27	461.15
448.64	458.60
449.01	456.78
449.37	453.34
449.74	450.33
450.11	446.82
450.48	442.78
450.85	438.66
451.22	435.38
451.59	432.21
451.96	429.19
452.33	425.09
452.70	421.18
453.07	416.87
453.43	412.26
453.80	407.90
454.17	403.74
454.54	399.53
454.91	395.08
455.28	390.70
455.65	386.80
456.02	382.91
456.38	379.43
456.75	375.11
457.12	371.49
457.49	367.89
457.86	364.32
458.23	361.36
458.59	358.01
458.96	354.65
459.33	351.72
459.70	348.67
460.07	346.22
460.43	343.59
460.80	340.89
461.17	338.46
461.54	335.96
461.91	333.56
462.27	331.20
462.64	329.35
463.01	327.18
463.38	325.02
463.74	322.90
464.11	321.01
464.48	319.34
464.85	317.68
465.21	316.34
465.58	314.80
465.95	313.05
466.32	311.46
466.68	309.96
467.05	308.50
467.42	307.08
467.78	305.53
468.15	304.13
468.52	303.08
468.88	301.60
469.25	300.33
469.62	299.33
469.98	298.25
470.35	297.20
470.72	296.22
471.08	295.11
471.45	294.06
471.82	293.15
472.18	292.27
472.55	291.47
472.92	290.45
473.28	289.81
473.65	288.99
474.02	288.22
474.38	287.64
474.75	287.12
475.11	286.56
475.48	286.10
475.85	285.45
476.21	285.00
476.58	284.78
476.94	284.55
477.31	284.24
477.67	284.00
478.04	283.75
478.41	283.51
478.77	283.48
479.14	283.44
479.50	283.52
479.87	283.43
480.23	283.49
480.60	283.50
480.96	283.48
481.33	283.62
481.69	283.86
482.06	283.98
482.42	284.07
482.79	284.33
483.15	284.64
483.52	285.23
483.88	285.55
484.25	286.00
484.61	286.46
484.98	286.93
485.34	287.60
485.71	288.24
486.07	289.03
486.44	289.74
486.80	290.62
487.17	291.48
487.53	292.49
487.90	293.59
488.26	295.02
488.62	296.34
488.99	297.58
489.35	299.10
489.72	300.55
490.08	302.19
490.44	303.81
490.81	305.75
491.17	307.67
491.54	309.77
491.90	311.96
492.26	314.25
492.63	316.79
492.99	319.25
493.36	322.02
493.72	324.85
494.08	327.78
494.45	330.90
494.81	334.31
495.17	337.98
495.54	341.62
495.90	345.32
496.26	349.35
496.63	353.81
496.99	358.24
497.35	363.07
497.72	368.08
498.08	373.32
498.44	378.53
498.80	384.30
499.17	390.18
499.53	396.20
499.89	402.63
500.26	409.10
500.62	415.92
500.98	423.23
501.34	430.76
501.71	438.69
502.07	446.73
502.43	454.76
502.79	463.38
503.16	472.33
503.52	481.65
503.88	491.30
504.24	501.07
504.60	511.10
504.97	521.52
505.33	532.46
505.69	543.92
506.05	555.80
506.41	567.66
506.78	580.09
507.14	593.12
507.50	606.24
507.86	620.05
508.22	634.00
508.59	648.27
508.95	663.05
509.31	678.05
509.67	693.51
510.03	709.61
510.39	725.60
510.75	742.63
511.12	759.62
511.48	776.60
511.84	794.14
512.20	812.20
512.56	830.97
512.92	849.83
513.28	869.04
513.64	888.31
514.00	908.25
514.37	928.33
514.73	948.63
515.09	969.18
515.45	989.93
515.81	1011.34
516.17	1032.79
516.53	1054.59
516.89	1076.94
517.25	1099.30
517.61	1121.94
517.97	1145.04
518.33	1167.45
518.69	1190.72
519.05	1214.48
519.41	1238.61
519.77	1263.10
520.13	1287.48
520.49	1312.10
520.85	1336.40
521.21	1361.08
521.57	1386.33
521.93	1411.18
522.29	1436.71
522.65	1461.86
523.01	1487.08
523.37	1512.04
523.73	1537.58
524.09	1563.28
524.45	1588.96
524.81	1614.82
525.17	1641.33
525.53	1667.79
525.89	1693.94
526.25	1720.14
526.61	1746.42
526.97	1772.95
527.33	1799.23
527.68	1825.49
528.04	1851.23
528.40	1877.71
528.76	1904.61
529.12	1930.85
529.48	1957.19
529.84	1983.10
530.20	2009.99
530.56	2037.45
530.91	2065.30
531.27	2092.34
531.63	2118.45
531.99	2144.72
532.35	2170.81
532.71	2195.49
533.07	2221.28
533.42	2246.96
533.78	2272.66
534.14	2297.97
534.50	2321.87
534.86	2346.57
535.21	2371.00
535.57	2396.71
535.93	2421.17
536.29	2445.12
536.65	2469.00
537.00	2492.55
537.36	2516.46
537.72	2539.37
538.08	2561.31
538.44	2582.96
538.79	2605.01
539.15	2627.01
539.51	2649.21
539.87	2671.45
540.22	2693.67
540.58	2715.65
540.94	2737.03
541.29	2757.04
541.65	2777.18
542.01	2798.95
542.37	2819.35
542.72	2839.09
543.08	2857.54
543.44	2877.05
543.79	2894.40
544.15	2912.21
544.51	2931.35
544.87	2949.28
545.22	2967.41
545.58	2984.68
545.94	3000.99
546.29	3017.01
546.65	3033.22
547.01	3048.42
547.36	3063.22
547.72	3078.14
548.07	3091.42
548.43	3105.35
548.79	3119.20
549.14	3132.81
549.50	3144.63
549.86	3156.15
550.21	3168.00
550.57	3180.14
550.92	3191.57
551.28	3203.44
551.64	3214.63
551.99	3224.62
552.35	3235.05
552.70	3244.87
553.06	3255.97
553.41	3266.45
553.77	3275.76
554.13	3285.24
554.48	3294.62
554.84	3303.92
555.19	3312.36
555.55	3321.29
555.90	3328.54
556.26	3337.32
556.61	3344.71
556.97	3351.87
557.32	3359.77
557.68	3367.18
558.03	3374.27
558.39	3380.87
558.74	3388.55
559.10	3395.30
559.45	3402.54
559.81	3409.37
560.16	3414.97
560.52	3420.06
560.87	3426.12
561.23	3431.21
561.58	3436.47
561.94	3440.93
562.29	3444.54
562.64	3448.26
563.00	3451.86
563.35	3457.27
563.71	3461.39
564.06	3466.22
564.42	3470.69
564.77	3474.66
565.12	3478.44
565.48	3482.10
565.83	3484.75
566.19	3486.89
566.54	3489.08
566.89	3490.66
567.25	3491.49
567.60	3494.02
567.96	3495.03
568.31	3495.61
568.66	3496.60
569.02	3497.32
569.37	3497.72
569.72	3498.11
570.08	3498.48
570.43	3498.53
570.78	3497.35
571.14	3495.33
571.49	3493.30
571.84	3493.18
572.20	3490.44
572.55	3488.08
572.90	3484.16
573.26	3482.02
573.61	3479.31
573.96	3475.97
574.31	3471.20
574.67	3466.00
575.02	3460.41
575.37	3456.25
575.72	3450.51
576.08	3446.06
576.43	3439.95
576.78	3434.87
577.13	3430.07
577.49	3424.90
577.84	3418.65
578.19	3412.54
578.54	3406.11
578.90	3399.15
579.25	3390.34
579.60	3383.31
579.95	3375.38
580.30	3367.94
580.66	3359.12
581.01	3350.36
581.36	3342.36
581.71	3335.26
582.06	3328.25
582.42	3319.55
582.77	3310.56
583.12	3302.28
583.47	3293.92
583.82	3286.01
584.17	3276.75
584.53	3267.71
584.88	3258.96
585.23	3249.96
585.58	3241.45
585.93	3233.47
586.28	3225.84
586.63	3218.09
586.98	3210.18
587.34	3202.28
587.69	3193.75
588.04	3185.60
588.39	3177.64
588.74	3167.61
589.09	3158.06
589.44	3147.83
589.79	3139.27
590.14	3131.10
590.49	3121.77
590.84	3111.89
591.19	3102.13
591.54	3091.02
591.89	3078.77
592.25	3068.26
592.60	3056.65
592.95	3045.04
593.30	3033.20
593.65	3021.05
594.00	3009.32
594.35	2998.34
594.70	2986.13
595.05	2975.41
595.40	2963.63
595.75	2951.34
596.10	2941.21
596.45	2930.44
596.80	2920.93
597.15	2910.79
597.50	2898.85
597.85	2888.48
598.19	2878.09
598.54	2867.81
598.89	2858.25
599.24	2850.08
599.59	2839.47
599.94	2830.25
600.29	2820.10
600.64	2809.97
600.99	2798.50
601.34	2787.90
601.69	2776.37
602.04	2766.12
602.39	2754.88
602.74	2745.46
603.08	2736.11
603.43	2725.75
603.78	2715.00
604.13	2703.40
604.48	2691.79
604.83	2681.08
605.18	2670.03
605.53	2657.65
605.87	2644.90
606.22	2633.58
606.57	2621.29
606.92	2609.82
607.27	2598.53
607.62	2587.68
607.96	2576.49
608.31	2566.60
608.66	2554.76
609.01	2542.71
609.36	2529.86
609.70	2516.63
610.05	2503.10
610.40	2490.21
610.75	2477.23
611.10	2464.30
611.44	2451.21
611.79	2438.98
612.14	2426.19
612.49	2412.02
612.83	2399.49
613.18	2387.32
613.53	2375.03
613.88	2361.69
614.22	2348.97
614.57	2335.25
614.92	2322.08
615.27	2309.43
615.61	2296.10
615.96	2283.36
616.31	2271.62
616.65	2260.89
617.00	2249.63
617.35	2237.44
617.70	2224.83
618.04	2211.88
618.39	2199.80
618.74	2188.41
619.08	2175.93
619.43	2164.03
619.78	2153.36
620.12	2141.52
620.47	2129.46
620.82	2116.43
621.16	2104.80
621.51	2092.76
621.85	2081.12
622.20	2068.69
622.55	2056.68
622.89	2044.90
623.24	2033.70
623.59	2022.18
623.93	2010.23
624.28	1999.00
624.62	1987.55
624.97	1976.87
625.32	1966.41
625.66	1955.77
626.01	1944.00
626.35	1932.40
626.70	1920.44
627.04	1909.08
627.39	1897.82
627.73	1886.34
628.08	1875.55
628.43	1864.29
628.77	1852.80
629.12	1841.51
629.46	1830.22
629.81	1818.31
630.15	1806.48
630.50	1794.57
630.84	1782.09
631.19	1769.62
631.53	1758.11
631.88	1746.07
632.22	1733.37
632.57	1721.90
632.91	1709.67
633.26	1698.08
633.60	1686.51
633.95	1675.37
634.29	1664.04
634.64	1653.26
634.98	1642.13
635.32	1631.55
635.67	1621.13
636.01	1610.54
636.36	1599.97
636.70	1590.06
637.05	1579.86
637.39	1570.38
637.73	1560.40
638.08	1551.29
638.42	1541.90
638.77	1531.94
639.11	1522.30
639.45	1512.72
639.80	1502.34
640.14	1492.50
640.49	1482.51
640.83	1472.65
641.17	1462.72
641.52	1452.46
641.86	1441.76
642.20	1432.40
642.55	1422.23
642.89	1412.29
643.23	1401.88
643.58	1392.48
643.92	1381.82
644.26	1372.14
644.61	1362.37
644.95	1352.74
645.29	1341.63
645.64	1331.18
645.98	1321.07
646.32	1311.30
646.66	1301.71
647.01	1292.29
647.35	1282.91
647.69	1273.40
648.04	1264.40
648.38	1254.75
648.72	1245.01
649.06	1235.53
649.41	1225.55
649.75	1215.84
650.09	1206.15
650.43	1197.10
650.78	1187.18
651.12	1177.90
651.46	1168.34
651.80	1159.08
652.14	1149.68
652.49	1141.19
652.83	1132.51
653.17	1123.29
653.51	1114.30
653.85	1105.13
654.20	1095.86
654.54	1086.38
654.88	1077.29
655.22	1067.60
655.56	1058.33
655.90	1049.95
656.25	1041.56
656.59	1033.15
656.93	1025.33
657.27	1017.03
657.61	1008.25
657.95	1000.21
658.29	992.31
658.64	984.18
658.98	975.64
659.32	967.21
659.66	959.23
660.00	951.19
660.34	943.23
660.68	935.39
661.02	927.44
661.36	920.16
661.70	912.99
662.05	905.97
662.39	899.30
662.73	892.58
663.07	885.40
663.41	878.57
663.75	871.93
664.09	864.54
664.43	857.72
664.77	851.50
665.11	845.00
665.45	838.39
665.79	832.10
666.13	825.55
666.47	819.27
666.81	812.36
667.15	805.57
667.49	799.30
667.83	793.25
668.17	786.98
668.51	780.57
668.85	774.18
669.19	768.24
669.53	762.11
669.87	755.99
670.21	750.41
670.55	744.50
670.89	738.90
671.23	733.56
671.57	728.08
671.91	722.40
672.25	716.71
672.58	711.40
672.92	705.72
673.26	700.75
673.60	695.58
673.94	690.80
674.28	686.31
674.62	681.68
674.96	676.67
675.30	672.29
675.64	667.55
675.97	663.06
676.31	658.58
676.65	653.97
676.99	649.79
677.33	644.91
677.67	640.40
678.01	635.54
678.34	630.76
678.68	626.24
679.02	621.76
679.36	617.52
679.70	613.28
680.04	609.13
680.37	604.68
680.71	600.46
681.05	596.57
681.39	592.37
681.73	588.01
682.06	584.11
682.40	580.30
682.74	576.21
683.08	572.35
683.42	568.15
683.75	564.40
684.09	560.38
684.43	556.60
684.77	552.91
685.10	549.15
685.44	545.46
685.78	541.83
686.12	538.38
686.45	534.63
686.79	531.04
687.13	527.74
687.46	524.28
687.80	520.78
688.14	516.95
688.48	513.80
688.81	510.52
689.15	507.39
689.49	503.72
689.82	500.69
690.16	497.21
690.50	494.06
690.83	490.83
691.17	487.62
691.51	484.42
691.84	481.36
692.18	478.33
692.52	475.40
692.85	472.48
693.19	469.50
693.52	466.58
693.86	463.54
694.20	460.47
694.53	457.70
694.87	455.00
695.21	452.42
695.54	449.37
695.88	446.60
696.21	443.53
696.55	441.09
696.88	438.44
697.22	435.87
697.56	433.30
697.89	430.65
698.23	428.24
698.56	425.95
698.90	423.54
699.23	420.93
699.57	418.44
699.90	416.02
700.24	413.53
700.58	411.14
700.91	408.89
701.25	406.60
701.58	404.40
701.92	402.03
702.25	399.94
702.59	397.81
702.92	395.78
703.26	393.90
703.59	391.91
703.93	390.08
704.26	388.24
704.60	386.21
704.93	384.35
705.26	382.35
705.60	380.54
705.93	378.72
706.27	377.18
706.60	375.49
706.94	373.64
707.27	371.80
707.61	370.12
707.94	368.41
708.27	366.66
708.61	364.88
708.94	363.29
709.28	361.63
709.61	360.06
709.94	358.54
710.28	356.81
710.61	355.06
710.95	353.25
711.28	351.69
711.61	350.08
711.95	348.52
712.28	346.96
712.61	345.33
712.95	343.74
713.28	342.28
713.61	340.83
713.95	339.37
714.28	338.10
714.61	336.63
714.95	335.36
715.28	333.99
715.61	332.62
715.95	331.30
716.28	329.87
716.61	328.60
716.95	327.23
717.28	326.00
717.61	324.84
717.94	323.63
718.28	322.29
718.61	321.19
718.94	320.14
719.27	319.16
719.61	318.11
719.94	316.98
720.27	315.77
720.60	314.62
720.94	313.64
721.27	312.67
721.60	311.90
721.93	310.99
722.27	310.18
722.60	309.34
722.93	308.40
723.26	307.48
723.59	306.49
723.93	305.71
724.26	304.90
724.59	303.91
724.92	303.06
725.25	302.25
725.59	301.48
725.92	300.50
726.25	299.58
726.58	298.76
726.91	298.11
727.24	297.45
727.57	296.63
727.91	295.74
728.24	294.96
728.57	294.08
728.90	293.21
729.23	292.36
729.56	291.63
729.89	290.97
730.22	290.27
730.55	289.65
730.89	288.87
731.22	288.13
731.55	287.50
731.88	286.80
732.21	286.26
732.54	285.50
732.87	284.91
733.20	284.39
733.53	283.86
733.86	283.20
734.19	282.50
734.52	281.92
734.85	281.54
735.18	280.92
735.51	280.38
735.84	279.86
736.17	279.40
736.50	278.78
736.83	278.45
737.16	277.92
737.49	277.40
737.82	276.91
738.15	276.43
738.48	276.00
738.81	275.63
739.14	275.13
739.47	274.58
739.80	274.14
740.13	273.66
740.46	273.13
740.79	272.69
741.12	272.37
741.45	271.96
741.78	271.32
742.11	270.99
742.44	270.42
742.77	269.87
743.10	269.39
743.43	268.91
743.75	268.20
744.08	268.06
744.41	267.54
744.74	267.08
745.07	266.70
745.40	266.28
745.73	265.87
746.06	265.42
746.39	265.13
746.71	264.70
747.04	264.27
747.37	263.84
747.70	263.37
748.03	262.81
748.36	262.47
748.68	262.11
749.01	261.62
749.34	261.32
749.67	260.91
750.00	260.55
750.33	260.27
750.65	259.99
750.98	259.52
751.31	259.19
751.64	258.82
751.97	258.53
752.29	258.15
752.62	257.63
752.95	257.19
753.28	256.77
753.60	256.46
753.93	256.07
754.26	255.66
754.59	255.28
754.91	255.00
755.24	254.59
755.57	254.31
755.90	253.91
756.22	253.53
756.55	253.22
756.88	252.74
757.20	252.29
757.53	251.83
757.86	251.34
758.19	251.02
758.51	250.76
758.84	250.28
759.17	249.88
759.49	249.62
759.82	249.53
760.15	249.29
760.47	248.91
760.80	248.64
761.13	248.37
761.45	248.12
761.78	247.80
762.11	247.64
762.43	247.43
762.76	247.20
763.08	247.00
763.41	246.78
763.74	246.65
764.06	246.40
764.39	246.27
764.71	246.10
765.04	245.91
765.37	245.62
765.69	245.46
766.02	245.34
766.34	245.11
766.67	244.84
767.00	244.64
767.32	244.56
767.65	244.45
767.97	244.28
768.30	244.09
768.62	243.96
768.95	243.72
769.27	243.47
769.60	243.30
769.92	243.16
770.25	242.96
770.57	242.81
770.90	242.70
771.22	242.41
771.55	242.30
771.87	242.04
772.20	241.99
772.52	242.05
772.85	242.03
773.17	241.90
773.50	241.69
773.82	241.67
774.15	241.52
774.47	241.33
774.80	241.25
775.12	241.11
775.45	240.96
775.77	240.84
776.09	240.75
776.42	240.61
776.74	240.52
777.07	240.34
777.39	240.23
777.72	240.00
778.04	239.98
778.36	239.74
778.69	239.76
779.01	239.54
779.33	239.24
779.66	238.97
779.98	238.91
780.31	238.79
780.63	238.70
780.95	238.55
781.28	238.37
781.60	238.21
781.92	238.09
782.25	237.89
782.57	237.78
782.89	237.61
783.22	237.52
783.54	237.40
783.86	237.37
784.19	237.23
784.51	237.29
784.83	237.30
785.16	237.31
785.48	237.15
785.80	237.16
786.12	237.09
786.45	236.95
786.77	236.80
787.09	236.71
787.42	236.49
787.74	236.43
788.06	236.33
788.38	236.20
788.71	236.01
789.03	236.09
789.35	236.00
789.67	235.95
789.99	235.92
790.32	235.70
790.64	235.70
790.96	235.76
791.28	235.49
791.61	235.31
791.93	235.14
792.25	235.09
792.57	235.10
792.89	234.89
793.21	234.86
793.54	234.74
793.86	234.59
794.18	234.58
794.50	234.49
794.82	234.43
795.14	234.40
795.47	234.51
795.79	234.32
796.11	234.22
796.43	234.10
796.75	233.94
797.07	233.99
797.39	233.84
797.71	233.62
798.04	233.65
798.36	233.59
798.68	233.59
799.00	233.51
799.32	233.32
799.64	233.39
799.96	233.36
800.28	233.46
800.60	233.44
800.92	233.45
801.24	233.21
801.56	233.19
801.89	233.17
802.21	233.03
802.53	233.00
802.85	232.98
803.17	232.99
803.49	232.96
803.81	232.89
804.13	232.86
804.45	232.75
804.77	232.74
805.09	232.65
805.41	232.55
805.73	232.46
806.05	232.38
806.37	232.26
806.69	232.27
807.01	232.12
807.33	232.11
807.65	231.96
807.97	232.09
808.28	232.05
808.60	231.88
808.92	231.85
809.24	231.89
809.56	231.75
809.88	231.76
810.20	231.73
810.52	231.78
810.84	231.71
811.16	231.71
811.48	231.65
811.80	231.77
812.12	231.71
812.43	231.74
812.75	231.80
813.07	231.80
813.39	231.74
813.71	231.68
814.03	231.67
814.35	231.60
814.67	231.67
814.98	231.57
815.30	231.72
815.62	231.76
815.94	231.70
816.26	231.78
816.58	231.77
816.89	231.81
817.21	231.70
817.53	231.66
817.85	231.55
818.17	231.54
818.48	231.40
818.80	231.48
819.12	231.48
819.44	231.36
819.76	231.32
820.07	231.21
820.39	231.25
820.71	231.26
821.03	231.18
821.34	231.00
821.66	231.11
821.98	231.07
822.30	231.05
822.61	231.16
822.93	231.10
823.25	231.04
823.57	230.92
823.88	230.94
824.20	230.97
824.52	231.10
824.83	231.07
825.15	231.02
825.47	231.01
825.79	230.89
826.10	230.92
826.42	230.94
826.74	230.95
827.05	230.83
827.37	230.87
827.69	230.91
828.00	230.89
828.32	230.81
828.64	230.82
828.95	230.90
829.27	230.80
829.58	230.86
829.90	230.84
830.22	230.86
830.53	230.76
830.85	230.76
831.17	230.74
831.48	230.78
831.80	230.84
832.11	230.89
832.43	230.98
832.75	230.96
833.06	231.07
833.38	231.14
833.69	231.23
834.01	231.19
834.32	231.20
834.64	231.26
834.96	231.20
835.27	231.14
835.59	231.06
835.90	231.01
836.22	231.01
836.53	230.99
836.85	230.99
837.16	231.21
837.48	231.15
837.79	231.17
838.11	231.15
838.42	231.15
838.74	231.01
839.05	231.00
839.37	230.92
839.68	230.80
840.00	230.73
840.31	230.69
840.63	230.61
840.94	230.53
841.26	230.54
841.57	230.52
841.88	230.55
842.20	230.52
842.51	230.44
842.83	230.31
843.14	230.43
843.46	230.44
843.77	230.26
844.08	230.29
844.40	230.13
844.71	230.14
845.03	230.03
845.34	230.04
845.65	229.87
845.97	229.94
846.28	229.91
846.60	229.84
846.91	229.87
847.22	229.88
847.54	229.91
847.85	229.86
848.16	229.86
848.48	229.86
848.79	229.83
849.10	229.77
849.42	229.76
849.73	229.63
850.04	229.58
850.36	229.59
850.67	229.58
850.98	229.58
851.30	229.61
851.61	229.64
851.92	229.70
852.23	229.83
852.55	229.79
852.86	229.70
853.17	229.73
853.49	229.77
853.80	229.68
854.11	229.72
854.42	229.72
854.74	229.64
855.05	229.57
855.36	229.58
855.67	229.68
855.99	229.81
856.30	229.96
856.61	229.94
856.92	229.91
857.23	229.92
857.55	229.97
857.86	229.81
858.17	229.77
858.48	229.73
858.79	229.70
859.11	229.60
859.42	229.64
859.73	229.55
860.04	229.50
860.35	229.43
860.66	229.30
860.98	229.35
861.29	229.40
861.60	229.35
861.91	229.30
862.22	229.13
862.53	228.93
862.84	228.67
863.16	228.74
863.47	228.60
863.78	228.57
864.09	228.51
864.40	228.48
864.71	228.46
865.02	228.40
865.33	228.33
865.64	228.29
865.95	228.24
866.27	228.41
866.58	228.41
866.89	228.52
867.20	228.54
867.51	228.46
867.82	228.45
868.13	228.59
868.44	228.55
868.75	228.75
869.06	228.77
869.37	228.81
869.68	228.72
869.99	228.83
870.30	228.70
870.61	228.68
870.92	228.78
871.23	228.85
871.54	228.93
871.85	228.99
872.16	229.05
872.47	229.08
872.78	228.97
873.09	228.98
873.40	229.01
873.71	228.98
874.02	228.94
874.33	228.95
874.64	228.83
874.95	228.88
875.26	228.81
875.56	228.83
875.87	228.90
876.18	228.87
876.49	229.15
876.80	229.26
877.11	229.32
877.42	229.30
877.73	229.25
878.04	229.21
878.35	229.29
878.66	229.36
878.96	229.40
879.27	229.42
879.58	229.43
879.89	229.36
880.20	229.51
880.51	229.55
880.82	229.51
881.12	229.68
881.43	229.68
881.74	229.64
882.05	229.64
882.36	229.57
882.67	229.59
882.97	229.35
883.28	229.30
883.59	229.30
883.90	229.24
884.21	229.25
884.51	229.24
884.82	229.15
885.13	229.21
885.44	229.14
885.74	229.16
886.05	229.09
886.36	229.16
886.67	229.09
886.98	229.22
887.28	229.31
887.59	229.17
887.90	229.09
888.20	229.12
888.51	229.23
888.82	229.27
889.13	229.32
889.43	229.40
889.74	229.43
890.05	229.41
890.35	229.44
890.66	229.35
890.97	229.30
891.28	229.29
891.58	229.16
891.89	229.09
892.20	229.07
892.50	229.08
892.81	229.13
893.12	229.19
893.42	229.12
893.73	229.07
894.04	229.08
894.34	229.09
894.65	229.06
894.95	229.02
895.26	228.98
895.57	228.95
895.87	228.80
896.18	228.83
896.48	228.87
896.79	228.78
897.10	228.92
897.40	228.90
897.71	228.95
898.01	228.93
898.32	228.98
898.63	228.95
898.93	229.09
899.24	228.99
899.54	228.78
899.85	228.71
900.15	228.72
900.46	228.73
900.76	228.77
901.07	228.80
901.38	228.76
901.68	228.77
901.99	228.78
902.29	228.80
902.60	228.73
902.90	228.62
903.21	228.69
903.51	228.57
903.82	228.60
904.12	228.58
904.43	228.60
904.73	228.61
905.03	228.58
905.34	228.71
905.64	228.70
905.95	228.76
906.25	228.65
906.56	228.60
906.86	228.64
907.17	228.60
907.47	228.50
907.77	228.47
908.08	228.45
908.38	228.49
908.69	228.46
908.99	228.56
909.30	228.57
909.60	228.68
909.90	228.75
910.21	228.73
910.51	228.72
910.81	228.72
911.12	228.68
911.42	228.74
911.73	228.45
912.03	228.47
912.33	228.55
912.64	228.74
912.94	228.76
913.24	228.73
913.55	228.75
913.85	228.89
914.15	228.99
914.46	228.98
914.76	228.99
915.06	228.97
915.37	228.89
915.67	228.94
915.97	228.80
916.27	228.79
916.58	228.79
916.88	228.80
917.18	228.92
917.49	229.10
917.79	229.08
918.09	229.18
918.39	229.12
918.70	229.12
919.00	229.02
919.30	229.20
919.60	229.12
919.91	229.01
920.21	229.00
920.51	228.98
920.81	229.01
921.12	229.01
921.42	229.08
921.72	229.09
922.02	229.13
922.32	229.26
922.63	229.24
922.93	229.40
923.23	229.44
923.53	229.36
923.83	229.23
924.13	229.14
924.44	229.04
924.74	229.10
925.04	229.15
925.34	229.12
925.64	228.97
925.94	228.97
926.24	229.09
926.55	229.05
926.85	229.00
927.15	229.00
927.45	228.98
927.75	228.87
928.05	228.83
928.35	228.79
928.65	228.81
928.95	228.78
929.26	228.52
929.56	228.46
929.86	228.37
930.16	228.34
930.46	228.32
930.76	228.42
931.06	228.38
931.36	228.33
931.66	228.35
931.96	228.43
932.26	228.42
932.56	228.39
932.86	228.32
933.16	228.30
933.46	228.25
933.76	228.21
934.06	228.37
934.36	228.46
934.66	228.50
934.96	228.35
935.26	228.46
935.56	228.60
935.86	228.55
936.16	228.63
936.46	228.57
936.76	228.69
937.06	228.66
937.36	228.72
937.66	228.77
937.96	228.84
938.26	228.77
938.56	228.70
938.86	228.70
939.16	228.81
939.46	228.91
939.76	228.88
940.06	228.92
940.35	228.85
940.65	228.80
940.95	228.75
941.25	228.76
941.55	228.67
941.85	228.64
942.15	228.70
942.45	228.62
942.75	228.72
943.04	228.72
943.34	228.68
943.64	228.64
943.94	228.56
944.24	228.51
944.54	228.60
944.84	228.77
945.13	228.82
945.43	228.77
945.73	228.70
946.03	228.79
946.33	228.83
946.62	228.70
946.92	228.64
947.22	228.74
947.52	228.74
947.82	228.75
948.11	228.80
948.41	228.80
948.71	228.86
949.01	228.89
949.31	228.85
949.60	228.87
949.90	228.90
950.20	228.86
950.50	228.90
950.79	228.72
951.09	228.70
951.39	228.63
951.69	228.57
951.98	228.53
952.28	228.55
952.58	228.45
952.87	228.56
953.17	228.58
953.47	228.55
953.76	228.66
954.06	228.77
954.36	228.75
954.66	228.70
954.95	228.72
955.25	228.65
955.55	228.80
955.84	228.73
956.14	228.72
956.44	228.78
956.73	228.70
957.03	228.84
957.32	228.88
957.62	228.89
957.92	228.96
958.21	229.05
958.51	229.24
958.81	229.29
959.10	229.30
959.40	229.35
959.69	229.34
959.99	229.29
960.29	229.20
960.58	229.09
960.88	229.20
961.17	229.13
961.47	229.09
961.76	228.90
962.06	228.95
962.36	228.82
962.65	228.81
962.95	228.81
963.24	228.78
963.54	228.75
963.83	228.63
964.13	228.65
964.42	228.56
964.72	228.35
965.01	228.30
965.31	228.22
965.60	228.15
965.90	228.25
966.19	228.15
966.49	228.08
966.78	228.20
967.08	228.06
967.37	228.03
967.67	228.16
967.96	228.22
968.26	228.26
968.55	228.36
968.85	228.38
969.14	228.31
969.43	228.22
969.73	228.08
970.02	228.14
970.32	228.08
970.61	228.00
970.91	227.91
971.20	227.95
971.49	227.92
971.79	227.91
972.08	227.77
972.38	227.75
972.67	227.84
972.96	227.74
973.26	227.76
973.55	227.91
973.85	227.84
974.14	227.72
974.43	227.77
974.73	227.80
975.02	227.81
975.31	227.93
975.61	227.97
975.90	228.05
976.19	227.98
976.49	228.05
976.78	228.09
977.07	228.12
977.37	228.10
977.66	228.17
977.95	228.18
978.24	228.21
978.54	228.29
978.83	228.28
979.12	228.41
979.42	228.41
979.71	228.33
980.00	228.37
980.29	228.53
980.59	228.45
980.88	228.50
981.17	228.56
981.46	228.50
981.76	228.50
982.05	228.61
982.34	228.73
982.63	228.78
982.93	228.87
983.22	228.90
983.51	228.95
983.80	228.98
984.09	229.07
984.39	229.02
984.68	229.08
984.97	229.15
985.26	229.17
985.55	229.28
985.85	229.36
986.14	229.38
986.43	229.51
986.72	229.56
987.01	229.42
987.30	229.27
987.59	229.27
987.89	229.34
988.18	229.26
988.47	229.24
988.76	229.22
989.05	229.20
989.34	229.23
989.63	229.32
989.92	229.40
990.22	229.29
990.51	229.38
990.80	229.29
991.09	229.23
991.38	229.16
991.67	229.13
991.96	229.11
992.25	229.07
992.54	228.88
992.83	228.82
993.12	228.88
993.41	229.06
993.70	229.13
993.99	229.22
994.28	229.30
994.58	229.33
994.87	229.31
995.16	229.30
995.45	229.31
995.74	229.20
996.03	229.20
996.32	229.21
996.61	229.09
996.90	229.10
997.19	229.11
997.48	229.07
997.77	229.06
998.06	228.96
998.34	228.92
998.63	228.90
998.92	228.97
999.21	228.97
999.50	228.85
999.79	228.75
1000.08	228.68
1000.37	228.60
1000.66	228.47
1000.95	228.41
1001.24	228.51
1001.53	228.42
1001.82	228.37
1002.11	228.24
1002.40	228.23
1002.68	228.24
1002.97	228.31
1003.26	228.19
1003.55	228.07
1003.84	227.89
1004.13	227.92
1004.42	227.80
1004.71	227.80
1004.99	227.77
1005.28	227.81
1005.57	227.75
1005.86	227.69
1006.15	227.50
1006.44	227.35
1006.72	227.46
1007.01	227.40
1007.30	227.23
1007.59	227.28
1007.88	227.33
1008.17	227.35
1008.45	227.30
1008.74	227.33
1009.03	227.22
1009.32	227.20
1009.60	227.28
1009.89	227.35
1010.18	227.32
1010.47	227.33
1010.76	227.30
1011.04	227.20
1011.33	227.15
1011.62	227.27
1011.91	227.32
1012.19	227.39
1012.48	227.46
1012.77	227.39
1013.05	227.51
1013.34	227.63
1013.63	227.55
1013.92	227.49
1014.20	227.42
1014.49	227.51
1014.78	227.59
1015.06	227.57
1015.35	227.66
1015.64	227.72
1015.92	227.77
1016.21	227.82
1016.50	227.88
1016.78	227.96
1017.07	228.02
1017.36	228.14
1017.64	228.10
1017.93	228.07
1018.22	228.20
1018.50	228.24
1018.79	228.33
1019.08	228.35
1019.36	228.35
1019.65	228.34
1019.93	228.51
1020.22	228.65
1020.51	228.79
1020.79	228.71
1021.08	229.20
1021.36	228.60
1021.65	228.60
1021.94	230.10
1022.22	229.40
1022.51	227.20
1022.79	230.80
1023.08	229.80
1023.36	231.40
1023.65	227.90
>>>>>End Processed Spectral Data<<<<<
