SpectraSuite Data File
++++++++++++++++++++++++++++++++++++
Date: Fri Feb 01 14:41:26 EST 2013
User: group
Dark Spectrum Present: No
Reference Spectrum Present: No
Number of Sampled Component Spectra: 1
Spectrometers: USB2E7196
Integration Time (usec): 70000 (USB2E7196)
Spectra Averaged: 10 (USB2E7196)
Boxcar Smoothing: 10 (USB2E7196)
Correct for Electrical Dark: No (USB2E7196)
Strobe/Lamp Enabled: No (USB2E7196)
Correct for Detector Non-linearity: No (USB2E7196)
Correct for Stray Light: No (USB2E7196)
Number of Pixels in Processed Spectrum: 2048
>>>>>Begin Processed Spectral Data<<<<<
339.09	0.00
339.48	216.40
339.86	218.20
340.24	217.80
340.63	221.70
341.01	224.10
341.39	222.10
341.78	225.00
342.16	225.80
342.54	225.60
342.93	214.74
343.31	225.51
343.69	226.03
344.07	226.49
344.46	226.94
344.84	227.27
345.22	227.54
345.60	227.90
345.99	228.12
346.37	228.23
346.75	228.40
347.13	228.55
347.52	228.57
347.90	228.62
348.28	228.60
348.66	228.58
349.05	228.63
349.43	228.70
349.81	228.81
350.19	228.87
350.57	228.84
350.96	228.88
351.34	229.11
351.72	229.23
352.10	229.30
352.48	229.35
352.87	229.48
353.25	229.50
353.63	229.45
354.01	229.45
354.39	229.52
354.77	229.65
355.15	229.67
355.54	229.70
355.92	229.72
356.30	229.81
356.68	230.08
357.06	230.10
357.44	230.21
357.82	230.30
358.20	230.38
358.58	230.53
358.97	230.57
359.35	230.64
359.73	230.70
360.11	230.79
360.49	230.87
360.87	230.85
361.25	230.91
361.63	231.12
362.01	231.18
362.39	231.29
362.77	231.28
363.15	231.35
363.53	231.32
363.91	231.28
364.29	231.28
364.67	231.12
365.05	231.02
365.43	230.97
365.81	230.97
366.19	231.03
366.57	231.02
366.95	230.95
367.33	230.85
367.71	230.77
368.09	230.73
368.47	230.67
368.85	230.60
369.23	230.53
369.61	230.45
369.99	230.33
370.37	230.23
370.75	230.17
371.13	230.14
371.51	230.11
371.89	230.16
372.27	230.15
372.65	230.08
373.03	230.02
373.41	230.02
373.78	229.94
374.16	229.75
374.54	229.53
374.92	229.43
375.30	229.49
375.68	229.46
376.06	229.34
376.44	229.33
376.82	229.29
377.19	229.21
377.57	229.03
377.95	229.00
378.33	228.86
378.71	228.72
379.09	228.65
379.47	228.54
379.84	228.43
380.22	228.30
380.60	228.17
380.98	228.23
381.36	228.09
381.73	227.87
382.11	227.92
382.49	227.98
382.87	227.97
383.25	227.81
383.62	227.99
384.00	227.96
384.38	227.85
384.76	227.86
385.13	227.94
385.51	227.94
385.89	227.88
386.27	227.92
386.64	227.82
387.02	227.75
387.40	227.67
387.78	227.60
388.15	227.62
388.53	227.65
388.91	227.61
389.29	227.68
389.66	227.79
390.04	227.73
390.42	227.73
390.79	227.81
391.17	227.73
391.55	227.50
391.92	227.50
392.30	227.76
392.68	227.71
393.05	227.74
393.43	227.68
393.81	227.75
394.18	227.70
394.56	227.76
394.94	227.83
395.31	227.88
395.69	228.00
396.06	228.03
396.44	228.19
396.82	228.26
397.19	228.36
397.57	228.45
397.95	228.55
398.32	228.61
398.70	228.64
399.07	228.78
399.45	228.82
399.82	228.88
400.20	228.84
400.58	228.92
400.95	228.82
401.33	229.02
401.70	229.22
402.08	229.37
402.45	229.53
402.83	229.75
403.20	229.95
403.58	230.10
403.95	230.26
404.33	230.39
404.71	230.58
405.08	230.82
405.46	231.00
405.83	231.20
406.21	231.30
406.58	231.58
406.96	231.87
407.33	232.18
407.70	232.42
408.08	232.71
408.45	232.98
408.83	233.39
409.20	233.75
409.58	233.90
409.95	234.28
410.33	234.66
410.70	234.82
411.08	235.19
411.45	235.57
411.82	235.93
412.20	236.29
412.57	236.75
412.95	237.06
413.32	237.57
413.69	238.01
414.07	238.70
414.44	239.20
414.82	239.75
415.19	240.33
415.56	241.07
415.94	241.73
416.31	242.59
416.68	243.29
417.06	244.08
417.43	245.01
417.81	245.92
418.18	246.96
418.55	248.21
418.93	249.40
419.30	250.47
419.67	251.71
420.04	252.99
420.42	254.29
420.79	255.85
421.16	257.20
421.54	258.81
421.91	260.26
422.28	261.83
422.66	263.40
423.03	265.10
423.40	266.76
423.77	268.40
424.15	270.22
424.52	272.10
424.89	274.04
425.26	276.01
425.64	277.93
426.01	279.80
426.38	281.79
426.75	283.81
427.13	286.03
427.50	288.28
427.87	290.61
428.24	292.89
428.61	294.99
428.99	297.57
429.36	300.02
429.73	302.70
430.10	305.28
430.47	307.92
430.85	310.61
431.22	313.45
431.59	316.70
431.96	319.45
432.33	322.71
432.70	325.70
433.08	329.38
433.45	332.43
433.82	335.79
434.19	339.31
434.56	342.85
434.93	346.33
435.30	349.60
435.68	353.27
436.05	356.78
436.42	360.21
436.79	363.39
437.16	366.90
437.53	370.29
437.90	373.83
438.27	377.32
438.64	380.94
439.01	384.32
439.38	387.09
439.75	389.83
440.13	392.89
440.50	395.90
440.87	398.02
441.24	400.50
441.61	403.16
441.98	404.94
442.35	407.20
442.72	409.29
443.09	411.51
443.46	412.66
443.83	413.50
444.20	414.16
444.57	415.09
444.94	415.19
445.31	415.64
445.68	416.00
446.05	415.90
446.42	415.21
446.79	414.52
447.16	413.67
447.53	413.26
447.90	411.65
448.27	410.10
448.64	408.00
449.01	406.67
449.37	404.19
449.74	401.91
450.11	398.94
450.48	395.68
450.85	392.53
451.22	389.72
451.59	387.06
451.96	384.61
452.33	381.15
452.70	378.30
453.07	374.74
453.43	371.15
453.80	367.58
454.17	364.30
454.54	360.94
454.91	357.52
455.28	354.03
455.65	350.95
456.02	348.07
456.38	345.50
456.75	342.09
457.12	339.21
457.49	336.43
457.86	333.78
458.23	331.60
458.59	328.94
458.96	326.33
459.33	323.93
459.70	321.60
460.07	319.90
460.43	317.81
460.80	315.76
461.17	313.87
461.54	312.16
461.91	310.33
462.27	308.59
462.64	307.10
463.01	305.39
463.38	303.69
463.74	301.62
464.11	299.97
464.48	298.66
464.85	297.24
465.21	295.97
465.58	294.64
465.95	293.20
466.32	292.06
466.68	290.92
467.05	289.82
467.42	288.52
467.78	287.29
468.15	286.05
468.52	285.15
468.88	283.97
469.25	282.96
469.62	282.05
469.98	281.10
470.35	280.20
470.72	279.42
471.08	278.61
471.45	278.01
471.82	277.32
472.18	276.57
472.55	275.90
472.92	275.24
473.28	274.61
473.65	273.88
474.02	273.18
474.38	272.66
474.75	272.20
475.11	271.75
475.48	271.33
475.85	271.04
476.21	270.67
476.58	270.33
476.94	269.98
477.31	269.76
477.67	269.54
478.04	269.22
478.41	268.95
478.77	268.76
479.14	268.58
479.50	268.41
479.87	268.29
480.23	268.27
480.60	268.23
480.96	268.10
481.33	268.28
481.69	268.42
482.06	268.42
482.42	268.46
482.79	268.57
483.15	268.65
483.52	268.79
483.88	268.80
484.25	269.00
484.61	269.13
484.98	269.41
485.34	269.78
485.71	270.29
486.07	270.88
486.44	271.31
486.80	271.80
487.17	272.37
487.53	273.00
487.90	273.66
488.26	274.36
488.62	275.14
488.99	275.93
489.35	276.78
489.72	277.62
490.08	278.59
490.44	279.70
490.81	280.80
491.17	281.93
491.54	283.42
491.90	284.86
492.26	286.48
492.63	287.90
492.99	289.50
493.36	291.22
493.72	293.00
494.08	294.91
494.45	296.91
494.81	299.12
495.17	301.51
495.54	303.83
495.90	306.43
496.26	309.24
496.63	311.95
496.99	314.92
497.35	318.20
497.72	321.40
498.08	324.80
498.44	328.43
498.80	332.24
499.17	336.06
499.53	340.08
499.89	344.20
500.26	348.65
500.62	353.25
500.98	358.20
501.34	362.98
501.71	368.32
502.07	373.71
502.43	379.43
502.79	385.07
503.16	391.10
503.52	397.19
503.88	403.66
504.24	410.34
504.60	417.20
504.97	424.29
505.33	431.87
505.69	439.49
506.05	447.55
506.41	455.62
506.78	463.96
507.14	472.85
507.50	481.80
507.86	491.03
508.22	500.58
508.59	510.22
508.95	520.56
509.31	530.78
509.67	541.58
510.03	552.32
510.39	563.33
510.75	574.95
511.12	586.67
511.48	598.79
511.84	611.22
512.20	623.78
512.56	636.77
512.92	649.88
513.28	663.34
513.64	676.85
514.00	691.03
514.37	705.52
514.73	719.67
515.09	734.18
515.45	749.00
515.81	764.35
516.17	779.70
516.53	795.25
516.89	811.18
517.25	827.30
517.61	843.70
517.97	860.28
518.33	876.63
518.69	893.64
519.05	910.85
519.41	928.41
519.77	946.36
520.13	964.41
520.49	982.25
520.85	1000.28
521.21	1018.34
521.57	1037.06
521.93	1055.04
522.29	1074.20
522.65	1093.16
523.01	1111.99
523.37	1130.57
523.73	1149.62
524.09	1169.09
524.45	1188.44
524.81	1207.62
525.17	1227.26
525.53	1246.97
525.89	1267.08
526.25	1287.50
526.61	1307.21
526.97	1327.27
527.33	1347.03
527.68	1367.12
528.04	1387.07
528.40	1407.52
528.76	1428.52
529.12	1448.59
529.48	1469.50
529.84	1489.38
530.20	1510.36
530.56	1531.55
530.91	1553.20
531.27	1574.05
531.63	1594.28
531.99	1614.91
532.35	1635.33
532.71	1655.31
533.07	1676.17
533.42	1696.24
533.78	1715.77
534.14	1736.00
534.50	1754.87
534.86	1774.66
535.21	1793.55
535.57	1813.82
535.93	1833.31
536.29	1852.18
536.65	1871.18
537.00	1889.48
537.36	1909.17
537.72	1927.39
538.08	1945.67
538.44	1962.66
538.79	1980.52
539.15	1997.86
539.51	2016.01
539.87	2034.01
540.22	2051.43
540.58	2068.99
540.94	2086.19
541.29	2102.94
541.65	2119.40
542.01	2136.94
542.37	2153.60
542.72	2170.24
543.08	2185.72
543.44	2201.69
543.79	2216.36
544.15	2232.15
544.51	2248.20
544.87	2262.84
545.22	2277.80
545.58	2291.71
545.94	2305.78
546.29	2319.68
546.65	2333.40
547.01	2346.07
547.36	2358.82
547.72	2371.74
548.07	2383.89
548.43	2396.12
548.79	2408.11
549.14	2419.55
549.50	2429.96
549.86	2440.66
550.21	2451.11
550.57	2461.58
550.92	2472.09
551.28	2482.74
551.64	2492.39
551.99	2502.38
552.35	2512.03
552.70	2520.99
553.06	2530.74
553.41	2540.45
553.77	2549.61
554.13	2559.34
554.48	2568.39
554.84	2576.63
555.19	2584.65
555.55	2592.40
555.90	2600.04
556.26	2608.22
556.61	2616.33
556.97	2623.99
557.32	2631.25
557.68	2638.23
558.03	2645.50
558.39	2652.11
558.74	2659.71
559.10	2666.65
559.45	2672.86
559.81	2679.93
560.16	2686.08
560.52	2691.28
560.87	2697.40
561.23	2702.02
561.58	2706.69
561.94	2711.07
562.29	2715.56
562.64	2720.11
563.00	2724.45
563.35	2729.51
563.71	2734.09
564.06	2738.82
564.42	2743.58
564.77	2748.15
565.12	2752.70
565.48	2757.33
565.83	2760.21
566.19	2762.61
566.54	2764.79
566.89	2766.73
567.25	2768.14
567.60	2771.22
567.96	2774.21
568.31	2776.00
568.66	2778.20
569.02	2780.75
569.37	2782.50
569.72	2784.39
570.08	2785.18
570.43	2786.05
570.78	2786.18
571.14	2785.83
571.49	2785.45
571.84	2786.28
572.20	2785.30
572.55	2784.22
572.90	2781.62
573.26	2780.80
573.61	2779.75
573.96	2778.05
574.31	2775.80
574.67	2772.60
575.02	2769.05
575.37	2766.51
575.72	2762.17
576.08	2759.33
576.43	2755.32
576.78	2752.21
577.13	2749.07
577.49	2746.50
577.84	2743.04
578.19	2738.74
578.54	2734.69
578.90	2729.53
579.25	2722.86
579.60	2717.80
579.95	2712.56
580.30	2707.64
580.66	2701.50
581.01	2695.30
581.36	2690.16
581.71	2685.67
582.06	2680.83
582.42	2675.86
582.77	2669.08
583.12	2663.82
583.47	2658.23
583.82	2652.54
584.17	2645.98
584.53	2639.90
584.88	2633.30
585.23	2626.32
585.58	2620.42
585.93	2614.10
586.28	2608.18
586.63	2602.89
586.98	2596.93
587.34	2591.07
587.69	2584.75
588.04	2579.11
588.39	2573.51
588.74	2565.77
589.09	2558.27
589.44	2550.50
589.79	2543.24
590.14	2537.43
590.49	2530.54
590.84	2523.12
591.19	2515.66
591.54	2507.27
591.89	2498.33
592.25	2490.12
592.60	2481.63
592.95	2472.36
593.30	2463.61
593.65	2455.00
594.00	2446.44
594.35	2438.08
594.70	2428.51
595.05	2420.50
595.40	2411.65
595.75	2402.36
596.10	2394.68
596.45	2386.86
596.80	2380.00
597.15	2371.66
597.50	2362.68
597.85	2354.48
598.19	2346.01
598.54	2338.00
598.89	2330.74
599.24	2323.82
599.59	2316.08
599.94	2309.06
600.29	2301.81
600.64	2294.00
600.99	2285.11
601.34	2276.50
601.69	2267.68
602.04	2260.07
602.39	2251.48
602.74	2243.72
603.08	2236.21
603.43	2228.57
603.78	2220.14
604.13	2211.22
604.48	2202.76
604.83	2194.27
605.18	2185.82
605.53	2176.74
605.87	2166.90
606.22	2158.26
606.57	2148.60
606.92	2139.61
607.27	2130.87
607.62	2122.31
607.96	2113.79
608.31	2106.11
608.66	2097.28
609.01	2087.99
609.36	2078.01
609.70	2067.38
610.05	2057.00
610.40	2046.70
610.75	2036.52
611.10	2026.28
611.44	2015.84
611.79	2006.19
612.14	1996.01
612.49	1984.93
612.83	1974.82
613.18	1964.95
613.53	1954.80
613.88	1944.22
614.22	1933.83
614.57	1923.06
614.92	1912.77
615.27	1902.52
615.61	1891.91
615.96	1882.12
616.31	1872.70
616.65	1864.30
617.00	1855.72
617.35	1846.41
617.70	1836.79
618.04	1826.76
618.39	1817.35
618.74	1807.94
619.08	1797.70
619.43	1788.08
619.78	1779.64
620.12	1770.38
620.47	1761.09
620.82	1751.10
621.16	1742.08
621.51	1733.20
621.85	1723.77
622.20	1713.82
622.55	1704.10
622.89	1695.01
623.24	1685.92
623.59	1676.65
623.93	1667.19
624.28	1657.93
624.62	1648.53
624.97	1639.24
625.32	1630.26
625.66	1621.43
626.01	1612.15
626.35	1603.24
626.70	1594.36
627.04	1585.09
627.39	1575.75
627.73	1566.70
628.08	1558.04
628.43	1548.76
628.77	1539.57
629.12	1530.24
629.46	1521.01
629.81	1511.42
630.15	1501.54
630.50	1491.60
630.84	1481.46
631.19	1471.06
631.53	1461.22
631.88	1451.62
632.22	1442.17
632.57	1433.06
632.91	1423.21
633.26	1413.81
633.60	1404.28
633.95	1394.83
634.29	1385.69
634.64	1377.02
634.98	1367.74
635.32	1358.89
635.67	1350.63
636.01	1341.95
636.36	1333.51
636.70	1325.42
637.05	1317.33
637.39	1309.62
637.73	1301.84
638.08	1294.63
638.42	1286.99
638.77	1279.05
639.11	1270.93
639.45	1263.04
639.80	1254.62
640.14	1246.58
640.49	1238.61
640.83	1230.75
641.17	1223.02
641.52	1215.05
641.86	1206.96
642.20	1199.63
642.55	1191.64
642.89	1183.45
643.23	1175.43
643.58	1168.18
643.92	1160.01
644.26	1152.10
644.61	1144.24
644.95	1136.11
645.29	1127.68
645.64	1119.75
645.98	1111.84
646.32	1104.40
646.66	1096.47
647.01	1089.01
647.35	1081.56
647.69	1073.99
648.04	1067.08
648.38	1058.86
648.72	1050.97
649.06	1043.10
649.41	1035.48
649.75	1027.41
650.09	1019.77
650.43	1011.99
650.78	1003.83
651.12	996.28
651.46	989.18
651.80	981.76
652.14	974.74
652.49	967.76
652.83	960.96
653.17	953.50
653.51	946.13
653.85	939.09
654.20	931.81
654.54	924.28
654.88	917.25
655.22	909.28
655.56	902.17
655.90	895.42
656.25	888.83
656.59	881.74
656.93	875.48
657.27	869.05
657.61	862.06
657.95	855.71
658.29	849.57
658.64	842.71
658.98	836.05
659.32	829.21
659.66	822.85
660.00	816.16
660.34	810.13
660.68	803.84
661.02	797.55
661.36	791.47
661.70	785.77
662.05	779.99
662.39	774.71
662.73	769.45
663.07	763.68
663.41	758.12
663.75	752.55
664.09	746.74
664.43	741.24
664.77	736.31
665.11	730.87
665.45	725.56
665.79	720.59
666.13	715.25
666.47	710.01
666.81	704.46
667.15	699.08
667.49	694.13
667.83	689.30
668.17	684.62
668.51	679.60
668.85	674.61
669.19	669.74
669.53	664.76
669.87	659.78
670.21	655.20
670.55	650.60
670.89	646.49
671.23	642.08
671.57	637.60
671.91	633.29
672.25	628.79
672.58	624.40
672.92	620.04
673.26	616.03
673.60	611.89
673.94	607.95
674.28	604.30
674.62	600.59
674.96	596.55
675.30	592.72
675.64	588.84
675.97	585.04
676.31	581.37
676.65	577.43
676.99	573.88
677.33	570.05
677.67	566.28
678.01	562.01
678.34	558.30
678.68	554.50
679.02	550.69
679.36	547.30
679.70	543.90
680.04	540.48
680.37	536.91
680.71	533.60
681.05	530.50
681.39	527.16
681.73	523.81
682.06	520.88
682.40	517.70
682.74	514.77
683.08	511.80
683.42	508.60
683.75	505.82
684.09	502.69
684.43	499.81
684.77	496.71
685.10	493.95
685.44	491.03
685.78	488.20
686.12	485.33
686.45	482.36
686.79	479.46
687.13	476.49
687.46	473.70
687.80	470.82
688.14	467.92
688.48	465.29
688.81	462.33
689.15	459.39
689.49	456.54
689.82	453.87
690.16	451.11
690.50	448.54
690.83	445.90
691.17	443.35
691.51	440.83
691.84	438.72
692.18	436.11
692.52	433.80
692.85	431.20
693.19	428.93
693.52	426.50
693.86	424.01
694.20	421.91
694.53	419.64
694.87	417.37
695.21	414.89
695.54	412.60
695.88	410.35
696.21	408.11
696.55	406.03
696.88	403.90
697.22	401.71
697.56	399.64
697.89	397.43
698.23	395.40
698.56	393.30
698.90	391.08
699.23	388.97
699.57	386.94
699.90	385.22
700.24	383.11
700.58	381.25
700.91	379.37
701.25	377.50
701.58	375.56
701.92	373.86
702.25	372.18
702.59	370.24
702.92	368.53
703.26	366.96
703.59	365.17
703.93	363.49
704.26	361.81
704.60	360.06
704.93	358.51
705.26	356.72
705.60	355.20
705.93	353.56
706.27	352.37
706.60	350.98
706.94	349.46
707.27	347.91
707.61	346.59
707.94	345.22
708.27	343.59
708.61	342.31
708.94	340.96
709.28	339.67
709.61	338.38
709.94	337.21
710.28	335.81
710.61	334.61
710.95	333.13
711.28	332.04
711.61	330.83
711.95	329.54
712.28	328.38
712.61	327.10
712.95	325.85
713.28	324.57
713.61	323.34
713.95	322.02
714.28	321.02
714.61	319.84
714.95	318.60
715.28	317.54
715.61	316.30
715.95	315.15
716.28	314.18
716.61	313.10
716.95	311.94
717.28	310.97
717.61	309.93
717.94	308.96
718.28	307.81
718.61	306.89
718.94	306.16
719.27	305.28
719.61	304.39
719.94	303.56
720.27	302.60
720.60	301.66
720.94	300.95
721.27	300.08
721.60	299.25
721.93	298.49
722.27	297.74
722.60	297.08
722.93	296.43
723.26	295.65
723.59	294.88
723.93	294.12
724.26	293.35
724.59	292.58
724.92	291.92
725.25	291.28
725.59	290.50
725.92	289.67
726.25	289.00
726.58	288.40
726.91	287.79
727.24	287.03
727.57	286.40
727.91	285.78
728.24	285.11
728.57	284.37
728.90	283.86
729.23	283.20
729.56	282.55
729.89	281.76
730.22	281.09
730.55	280.51
730.89	280.10
731.22	279.54
731.55	278.92
731.88	278.33
732.21	277.68
732.54	277.14
732.87	276.71
733.20	276.23
733.53	275.65
733.86	275.24
734.19	274.88
734.52	274.43
734.85	273.93
735.18	273.55
735.51	273.23
735.84	272.73
736.17	272.24
736.50	271.72
736.83	271.56
737.16	271.01
737.49	270.55
737.82	269.96
738.15	269.60
738.48	269.19
738.81	268.71
739.14	268.33
739.47	267.96
739.80	267.40
740.13	266.96
740.46	266.54
740.79	265.95
741.12	265.49
741.45	264.96
741.78	264.49
742.11	264.07
742.44	263.48
742.77	263.09
743.10	262.70
743.43	262.30
743.75	261.61
744.08	261.56
744.41	261.22
744.74	260.81
745.07	260.37
745.40	259.94
745.73	259.62
746.06	259.24
746.39	258.87
746.71	258.53
747.04	258.19
747.37	257.80
747.70	257.53
748.03	257.16
748.36	256.90
748.68	256.52
749.01	256.10
749.34	255.89
749.67	255.59
750.00	255.24
750.33	255.09
750.65	254.79
750.98	254.26
751.31	253.90
751.64	253.62
751.97	253.42
752.29	253.09
752.62	252.80
752.95	252.51
753.28	252.15
753.60	251.78
753.93	251.55
754.26	251.34
754.59	250.98
754.91	250.67
755.24	250.34
755.57	250.14
755.90	249.83
756.22	249.46
756.55	249.13
756.88	248.89
757.20	248.50
757.53	248.31
757.86	247.97
758.19	247.70
758.51	247.46
758.84	247.06
759.17	246.92
759.49	246.69
759.82	246.66
760.15	246.45
760.47	246.33
760.80	245.98
761.13	245.78
761.45	245.56
761.78	245.34
762.11	245.18
762.43	244.88
762.76	244.70
763.08	244.62
763.41	244.47
763.74	244.23
764.06	244.01
764.39	243.81
764.71	243.76
765.04	243.70
765.37	243.63
765.69	243.46
766.02	243.34
766.34	243.10
766.67	242.72
767.00	242.60
767.32	242.50
767.65	242.49
767.97	242.21
768.30	242.00
768.62	241.90
768.95	241.72
769.27	241.64
769.60	241.60
769.92	241.49
770.25	241.24
770.57	241.13
770.90	241.04
771.22	240.86
771.55	240.60
771.87	240.34
772.20	240.12
772.52	240.20
772.85	240.28
773.17	240.17
773.50	240.04
773.82	239.89
774.15	239.60
774.47	239.23
774.80	239.17
775.12	239.08
775.45	238.95
775.77	238.87
776.09	238.83
776.42	238.65
776.74	238.46
777.07	238.38
777.39	238.24
777.72	238.10
778.04	238.08
778.36	237.99
778.69	237.91
779.01	237.89
779.33	237.55
779.66	237.18
779.98	237.13
780.31	237.04
780.63	237.00
780.95	237.03
781.28	237.05
781.60	236.88
781.92	236.76
782.25	236.71
782.57	236.71
782.89	236.63
783.22	236.59
783.54	236.54
783.86	236.50
784.19	236.49
784.51	236.45
784.83	236.35
785.16	236.33
785.48	236.24
785.80	236.15
786.12	236.25
786.45	236.24
786.77	236.15
787.09	236.10
787.42	235.98
787.74	235.92
788.06	235.82
788.38	235.87
788.71	235.92
789.03	235.90
789.35	235.66
789.67	235.59
789.99	235.47
790.32	235.39
790.64	235.33
790.96	235.38
791.28	235.27
791.61	235.14
791.93	234.92
792.25	234.84
792.57	234.89
792.89	234.73
793.21	234.75
793.54	234.68
793.86	234.60
794.18	234.50
794.50	234.32
794.82	234.33
795.14	234.30
795.47	234.25
795.79	234.12
796.11	234.10
796.43	233.90
796.75	233.95
797.07	233.79
797.39	233.71
797.71	233.49
798.04	233.48
798.36	233.42
798.68	233.41
799.00	233.42
799.32	233.32
799.64	233.29
799.96	233.16
800.28	233.06
800.60	233.05
800.92	233.08
801.24	233.05
801.56	233.00
801.89	232.78
802.21	232.68
802.53	232.58
802.85	232.61
803.17	232.65
803.49	232.52
803.81	232.55
804.13	232.48
804.45	232.39
804.77	232.27
805.09	232.19
805.41	232.17
805.73	232.06
806.05	231.85
806.37	231.85
806.69	231.73
807.01	231.70
807.33	231.56
807.65	231.40
807.97	231.39
808.28	231.34
808.60	231.22
808.92	231.13
809.24	231.18
809.56	231.06
809.88	230.96
810.20	230.80
810.52	230.73
810.84	230.69
811.16	230.63
811.48	230.56
811.80	230.64
812.12	230.57
812.43	230.57
812.75	230.59
813.07	230.42
813.39	230.40
813.71	230.38
814.03	230.38
814.35	230.38
814.67	230.34
814.98	230.29
815.30	230.49
815.62	230.45
815.94	230.38
816.26	230.43
816.58	230.41
816.89	230.53
817.21	230.52
817.53	230.57
817.85	230.63
818.17	230.72
818.48	230.68
818.80	230.70
819.12	230.73
819.44	230.67
819.76	230.70
820.07	230.79
820.39	230.71
820.71	230.69
821.03	230.72
821.34	230.70
821.66	230.72
821.98	230.68
822.30	230.71
822.61	230.75
822.93	230.60
823.25	230.59
823.57	230.54
823.88	230.54
824.20	230.50
824.52	230.42
824.83	230.30
825.15	230.25
825.47	230.30
825.79	230.32
826.10	230.35
826.42	230.27
826.74	230.24
827.05	230.22
827.37	230.24
827.69	230.35
828.00	230.43
828.32	230.45
828.64	230.50
828.95	230.54
829.27	230.53
829.58	230.64
829.90	230.76
830.22	230.86
830.53	230.85
830.85	230.88
831.17	230.96
831.48	231.00
831.80	231.03
832.11	231.05
832.43	230.98
832.75	231.04
833.06	231.30
833.38	231.22
833.69	231.36
834.01	231.42
834.32	231.35
834.64	231.37
834.96	231.35
835.27	231.27
835.59	231.22
835.90	231.23
836.22	231.27
836.53	231.24
836.85	231.22
837.16	231.48
837.48	231.42
837.79	231.38
838.11	231.45
838.42	231.45
838.74	231.52
839.05	231.52
839.37	231.54
839.68	231.32
840.00	231.30
840.31	231.20
840.63	231.18
840.94	231.03
841.26	230.87
841.57	230.84
841.88	230.75
842.20	230.65
842.51	230.67
842.83	230.49
843.14	230.54
843.46	230.50
843.77	230.36
844.08	230.38
844.40	230.36
844.71	230.29
845.03	230.19
845.34	229.97
845.65	229.87
845.97	229.79
846.28	229.73
846.60	229.65
846.91	229.66
847.22	229.58
847.54	229.63
847.85	229.66
848.16	229.64
848.48	229.72
848.79	229.84
849.10	229.69
849.42	229.73
849.73	229.54
850.04	229.37
850.36	229.28
850.67	229.22
850.98	229.15
851.30	229.18
851.61	229.17
851.92	229.28
852.23	229.32
852.55	229.30
852.86	229.27
853.17	229.35
853.49	229.28
853.80	229.25
854.11	229.25
854.42	229.23
854.74	229.11
855.05	228.99
855.36	228.80
855.67	228.76
855.99	228.73
856.30	228.90
856.61	228.90
856.92	228.88
857.23	228.97
857.55	228.98
857.86	228.92
858.17	228.82
858.48	228.71
858.79	228.71
859.11	228.62
859.42	228.63
859.73	228.53
860.04	228.61
860.35	228.70
860.66	228.67
860.98	228.67
861.29	228.74
861.60	228.82
861.91	228.87
862.22	228.87
862.53	228.86
862.84	228.72
863.16	228.86
863.47	228.78
863.78	228.69
864.09	228.70
864.40	228.76
864.71	228.90
865.02	228.96
865.33	229.02
865.64	229.13
865.95	229.17
866.27	229.38
866.58	229.36
866.89	229.37
867.20	229.30
867.51	229.26
867.82	229.26
868.13	229.30
868.44	229.35
868.75	229.45
869.06	229.46
869.37	229.41
869.68	229.25
869.99	229.35
870.30	229.40
870.61	229.45
870.92	229.32
871.23	229.24
871.54	229.26
871.85	229.23
872.16	229.17
872.47	229.20
872.78	228.98
873.09	228.99
873.40	228.89
873.71	228.91
874.02	228.97
874.33	228.89
874.64	228.78
874.95	228.74
875.26	228.59
875.56	228.63
875.87	228.66
876.18	228.66
876.49	228.88
876.80	228.75
877.11	228.74
877.42	228.82
877.73	228.93
878.04	228.83
878.35	228.89
878.66	228.89
878.96	228.84
879.27	228.82
879.58	228.87
879.89	228.91
880.20	228.94
880.51	228.93
880.82	228.99
881.12	229.04
881.43	229.10
881.74	229.21
882.05	229.20
882.36	229.20
882.67	229.17
882.97	228.85
883.28	228.86
883.59	228.77
883.90	228.74
884.21	228.68
884.51	228.69
884.82	228.60
885.13	228.58
885.44	228.56
885.74	228.62
886.05	228.48
886.36	228.45
886.67	228.47
886.98	228.51
887.28	228.51
887.59	228.48
887.90	228.40
888.20	228.29
888.51	228.29
888.82	228.29
889.13	228.43
889.43	228.67
889.74	228.64
890.05	228.63
890.35	228.50
890.66	228.50
890.97	228.42
891.28	228.42
891.58	228.40
891.89	228.41
892.20	228.40
892.50	228.40
892.81	228.32
893.12	228.23
893.42	228.16
893.73	228.10
894.04	228.12
894.34	228.09
894.65	228.17
894.95	228.07
895.26	227.99
895.57	228.04
895.87	227.82
896.18	227.89
896.48	227.88
896.79	227.96
897.10	227.96
897.40	228.00
897.71	227.98
898.01	228.02
898.32	227.93
898.63	227.80
898.93	227.79
899.24	227.92
899.54	227.91
899.85	227.87
900.15	227.87
900.46	227.90
900.76	227.97
901.07	227.91
901.38	228.01
901.68	228.04
901.99	227.91
902.29	227.94
902.60	227.91
902.90	227.95
903.21	228.07
903.51	228.05
903.82	228.17
904.12	228.26
904.43	228.25
904.73	228.30
905.03	228.50
905.34	228.77
905.64	228.73
905.95	228.81
906.25	228.86
906.56	228.89
906.86	228.81
907.17	228.84
907.47	228.90
907.77	228.87
908.08	228.96
908.38	229.04
908.69	229.07
908.99	229.11
909.30	229.16
909.60	229.06
909.90	229.06
910.21	228.93
910.51	228.92
910.81	228.93
911.12	229.10
911.42	229.03
911.73	228.87
912.03	228.90
912.33	228.98
912.64	229.04
912.94	229.08
913.24	229.15
913.55	229.16
913.85	229.21
914.15	229.30
914.46	229.35
914.76	229.31
915.06	229.37
915.37	229.45
915.67	229.47
915.97	229.52
916.27	229.57
916.58	229.77
916.88	229.72
917.18	229.70
917.49	229.70
917.79	229.73
918.09	229.79
918.39	229.80
918.70	229.79
919.00	229.79
919.30	229.92
919.60	229.78
919.91	229.69
920.21	229.63
920.51	229.56
920.81	229.41
921.12	229.41
921.42	229.33
921.72	229.29
922.02	229.20
922.32	229.15
922.63	229.17
922.93	229.20
923.23	229.17
923.53	229.21
923.83	229.07
924.13	229.12
924.44	228.97
924.74	228.97
925.04	228.93
925.34	228.91
925.64	228.80
925.94	228.96
926.24	229.16
926.55	229.13
926.85	229.04
927.15	229.18
927.45	229.21
927.75	229.17
928.05	229.17
928.35	229.16
928.65	229.15
928.95	229.18
929.26	229.03
929.56	229.03
929.86	229.02
930.16	229.01
930.46	228.97
930.76	229.04
931.06	228.98
931.36	228.90
931.66	228.94
931.96	228.96
932.26	228.82
932.56	228.76
932.86	228.82
933.16	228.92
933.46	228.86
933.76	228.78
934.06	228.90
934.36	228.98
934.66	228.94
934.96	228.94
935.26	228.87
935.56	228.96
935.86	229.02
936.16	228.93
936.46	228.96
936.76	228.98
937.06	228.95
937.36	228.95
937.66	229.05
937.96	228.99
938.26	228.97
938.56	229.08
938.86	229.04
939.16	229.09
939.46	229.14
939.76	229.10
940.06	229.17
940.35	229.10
940.65	229.03
940.95	229.11
941.25	229.15
941.55	229.21
941.85	229.16
942.15	229.13
942.45	229.19
942.75	229.18
943.04	229.14
943.34	229.21
943.64	229.26
943.94	229.28
944.24	229.22
944.54	229.17
944.84	229.16
945.13	229.06
945.43	228.95
945.73	228.92
946.03	228.89
946.33	228.87
946.62	228.91
946.92	228.87
947.22	228.96
947.52	229.00
947.82	228.94
948.11	228.85
948.41	228.83
948.71	228.83
949.01	228.76
949.31	228.81
949.60	228.72
949.90	228.71
950.20	228.56
950.50	228.55
950.79	228.60
951.09	228.60
951.39	228.66
951.69	228.70
951.98	228.70
952.28	228.70
952.58	228.62
952.87	228.60
953.17	228.63
953.47	228.53
953.76	228.42
954.06	228.30
954.36	228.36
954.66	228.34
954.95	228.32
955.25	228.38
955.55	228.35
955.84	228.27
956.14	228.30
956.44	228.30
956.73	228.38
957.03	228.26
957.32	228.29
957.62	228.32
957.92	228.36
958.21	228.29
958.51	228.54
958.81	228.59
959.10	228.55
959.40	228.53
959.69	228.59
959.99	228.64
960.29	228.75
960.58	228.76
960.88	228.78
961.17	228.82
961.47	228.77
961.76	228.80
962.06	228.82
962.36	228.79
962.65	228.84
962.95	228.84
963.24	228.91
963.54	228.84
963.83	228.82
964.13	228.72
964.42	228.69
964.72	228.48
965.01	228.43
965.31	228.40
965.60	228.26
965.90	228.30
966.19	228.25
966.49	228.15
966.78	228.11
967.08	228.10
967.37	228.01
967.67	228.05
967.96	227.97
968.26	227.95
968.55	228.03
968.85	227.95
969.14	227.91
969.43	227.84
969.73	227.86
970.02	227.82
970.32	227.85
970.61	227.85
970.91	227.75
971.20	227.75
971.49	227.71
971.79	227.85
972.08	227.64
972.38	227.70
972.67	227.71
972.96	227.73
973.26	227.73
973.55	227.81
973.85	227.78
974.14	227.82
974.43	227.81
974.73	227.74
975.02	227.79
975.31	227.80
975.61	227.80
975.90	227.75
976.19	227.77
976.49	227.80
976.78	227.83
977.07	227.94
977.37	228.05
977.66	228.08
977.95	227.95
978.24	228.08
978.54	228.01
978.83	228.07
979.12	228.02
979.42	228.11
979.71	228.10
980.00	228.12
980.29	228.14
980.59	228.24
980.88	228.28
981.17	228.26
981.46	228.29
981.76	228.30
982.05	228.43
982.34	228.52
982.63	228.54
982.93	228.55
983.22	228.58
983.51	228.50
983.80	228.56
984.09	228.67
984.39	228.64
984.68	228.74
984.97	228.72
985.26	228.73
985.55	228.62
985.85	228.57
986.14	228.66
986.43	228.61
986.72	228.58
987.01	228.53
987.30	228.50
987.59	228.55
987.89	228.48
988.18	228.39
988.47	228.27
988.76	228.28
989.05	228.33
989.34	228.40
989.63	228.44
989.92	228.45
990.22	228.46
990.51	228.56
990.80	228.49
991.09	228.54
991.38	228.67
991.67	228.69
991.96	228.73
992.25	228.72
992.54	228.74
992.83	228.83
993.12	228.82
993.41	228.87
993.70	228.90
993.99	229.03
994.28	229.08
994.58	229.11
994.87	229.01
995.16	228.99
995.45	228.88
995.74	228.77
996.03	228.77
996.32	228.76
996.61	228.72
996.90	228.74
997.19	228.77
997.48	228.70
997.77	228.68
998.06	228.69
998.34	228.62
998.63	228.70
998.92	228.65
999.21	228.63
999.50	228.64
999.79	228.63
1000.08	228.58
1000.37	228.59
1000.66	228.44
1000.95	228.57
1001.24	228.60
1001.53	228.64
1001.82	228.71
1002.11	228.64
1002.40	228.67
1002.68	228.70
1002.97	228.85
1003.26	228.81
1003.55	228.80
1003.84	228.90
1004.13	229.01
1004.42	228.99
1004.71	228.94
1004.99	228.91
1005.28	228.96
1005.57	228.96
1005.86	228.79
1006.15	228.82
1006.44	228.72
1006.72	228.82
1007.01	228.78
1007.30	228.70
1007.59	228.65
1007.88	228.67
1008.17	228.71
1008.45	228.69
1008.74	228.63
1009.03	228.48
1009.32	228.38
1009.60	228.34
1009.89	228.21
1010.18	228.05
1010.47	228.04
1010.76	228.07
1011.04	228.08
1011.33	228.20
1011.62	228.10
1011.91	228.15
1012.19	228.16
1012.48	228.25
1012.77	228.20
1013.05	228.20
1013.34	228.23
1013.63	228.25
1013.92	228.20
1014.20	228.21
1014.49	228.18
1014.78	228.16
1015.06	228.20
1015.35	228.29
1015.64	228.36
1015.92	228.43
1016.21	228.50
1016.50	228.57
1016.78	228.43
1017.07	228.31
1017.36	228.21
1017.64	228.28
1017.93	228.29
1018.22	228.24
1018.50	228.19
1018.79	228.32
1019.08	228.32
1019.36	228.35
1019.65	228.33
1019.93	228.33
1020.22	228.28
1020.51	228.37
1020.79	228.33
1021.08	227.20
1021.36	228.00
1021.65	229.10
1021.94	228.70
1022.22	229.10
1022.51	228.00
1022.79	227.80
1023.08	227.60
1023.36	230.00
1023.65	227.80
>>>>>End Processed Spectral Data<<<<<
