SpectraSuite Data File
++++++++++++++++++++++++++++++++++++
Date: Fri Feb 01 14:41:46 EST 2013
User: group
Dark Spectrum Present: No
Reference Spectrum Present: No
Number of Sampled Component Spectra: 1
Spectrometers: USB2E7196
Integration Time (usec): 70000 (USB2E7196)
Spectra Averaged: 10 (USB2E7196)
Boxcar Smoothing: 10 (USB2E7196)
Correct for Electrical Dark: No (USB2E7196)
Strobe/Lamp Enabled: No (USB2E7196)
Correct for Detector Non-linearity: No (USB2E7196)
Correct for Stray Light: No (USB2E7196)
Number of Pixels in Processed Spectrum: 2048
>>>>>Begin Processed Spectral Data<<<<<
339.09	0.00
339.48	216.20
339.86	216.60
340.24	219.30
340.63	219.50
341.01	223.40
341.39	222.00
341.78	225.30
342.16	226.60
342.54	227.20
342.93	214.31
343.31	225.15
343.69	225.70
344.07	226.25
344.46	226.68
344.84	227.16
345.22	227.46
345.60	227.72
345.99	227.83
346.37	227.93
346.75	227.97
347.13	228.14
347.52	228.24
347.90	228.46
348.28	228.51
348.66	228.64
349.05	228.69
349.43	228.70
349.81	228.82
350.19	228.93
350.57	228.97
350.96	229.04
351.34	229.20
351.72	229.39
352.10	229.53
352.48	229.64
352.87	229.68
353.25	229.73
353.63	229.93
354.01	230.04
354.39	230.12
354.77	230.28
355.15	230.42
355.54	230.54
355.92	230.59
356.30	230.75
356.68	230.90
357.06	230.92
357.44	231.03
357.82	231.07
358.20	231.19
358.58	231.29
358.97	231.30
359.35	231.40
359.73	231.36
360.11	231.39
360.49	231.36
360.87	231.37
361.25	231.38
361.63	231.38
362.01	231.48
362.39	231.52
362.77	231.54
363.15	231.64
363.53	231.65
363.91	231.65
364.29	231.56
364.67	231.40
365.05	231.43
365.43	231.44
365.81	231.43
366.19	231.43
366.57	231.51
366.95	231.50
367.33	231.41
367.71	231.40
368.09	231.40
368.47	231.45
368.85	231.46
369.23	231.40
369.61	231.30
369.99	231.28
370.37	231.25
370.75	231.20
371.13	231.06
371.51	230.92
371.89	230.84
372.27	230.83
372.65	230.79
373.03	230.70
373.41	230.58
373.78	230.51
374.16	230.36
374.54	230.23
374.92	230.21
375.30	230.10
375.68	230.04
376.06	229.95
376.44	229.80
376.82	229.61
377.19	229.53
377.57	229.45
377.95	229.22
378.33	229.03
378.71	229.00
379.09	228.84
379.47	228.79
379.84	228.76
380.22	228.69
380.60	228.53
380.98	228.50
381.36	228.41
381.73	228.29
382.11	228.17
382.49	228.10
382.87	227.88
383.25	227.87
383.62	227.98
384.00	227.88
384.38	227.78
384.76	227.82
385.13	227.90
385.51	227.89
385.89	227.90
386.27	227.97
386.64	227.86
387.02	227.85
387.40	227.74
387.78	227.74
388.15	227.74
388.53	227.76
388.91	227.64
389.29	227.59
389.66	227.59
390.04	227.60
390.42	227.54
390.79	227.62
391.17	227.57
391.55	227.29
391.92	227.29
392.30	227.37
392.68	227.37
393.05	227.40
393.43	227.40
393.81	227.48
394.18	227.45
394.56	227.49
394.94	227.60
395.31	227.74
395.69	227.80
396.06	227.81
396.44	227.87
396.82	228.02
397.19	228.19
397.57	228.28
397.95	228.39
398.32	228.45
398.70	228.61
399.07	228.78
399.45	228.92
399.82	229.07
400.20	229.06
400.58	229.24
400.95	229.18
401.33	229.44
401.70	229.68
402.08	229.90
402.45	230.06
402.83	230.28
403.20	230.37
403.58	230.50
403.95	230.77
404.33	230.98
404.71	231.13
405.08	231.48
405.46	231.71
405.83	232.02
406.21	232.28
406.58	232.47
406.96	232.72
407.33	233.09
407.70	233.41
408.08	233.95
408.45	234.21
408.83	234.60
409.20	234.82
409.58	235.04
409.95	235.37
410.33	235.72
410.70	236.00
411.08	236.47
411.45	236.90
411.82	237.19
412.20	237.70
412.57	238.24
412.95	238.58
413.32	239.10
413.69	239.56
414.07	240.11
414.44	240.77
414.82	241.39
415.19	241.96
415.56	242.57
415.94	243.32
416.31	244.13
416.68	245.04
417.06	245.90
417.43	246.84
417.81	247.82
418.18	248.80
418.55	249.94
418.93	251.06
419.30	252.27
419.67	253.60
420.04	254.87
420.42	256.25
420.79	257.85
421.16	259.50
421.54	261.02
421.91	262.67
422.28	264.29
422.66	266.04
423.03	267.99
423.40	269.92
423.77	271.81
424.15	273.82
424.52	275.90
424.89	278.27
425.26	280.41
425.64	282.37
426.01	284.66
426.38	286.95
426.75	289.30
427.13	291.70
427.50	294.23
427.87	296.95
428.24	299.57
428.61	301.97
428.99	304.60
429.36	307.68
429.73	310.74
430.10	313.64
430.47	316.61
430.85	319.48
431.22	322.58
431.59	325.91
431.96	329.06
432.33	332.64
432.70	335.84
433.08	339.72
433.45	343.50
433.82	347.03
434.19	351.15
434.56	355.13
434.93	358.91
435.30	362.62
435.68	366.48
436.05	370.34
436.42	374.35
436.79	377.91
437.16	381.57
437.53	385.33
437.90	389.24
438.27	393.18
438.64	397.21
439.01	400.82
439.38	403.95
439.75	406.94
440.13	410.21
440.50	413.53
440.87	416.30
441.24	419.01
441.61	422.08
441.98	424.06
442.35	426.46
442.72	428.90
443.09	431.28
443.46	432.73
443.83	433.68
444.20	434.23
444.57	435.37
444.94	435.90
445.31	436.38
445.68	436.95
446.05	436.99
446.42	436.45
446.79	435.85
447.16	435.12
447.53	434.71
447.90	433.05
448.27	431.37
448.64	428.90
449.01	427.25
449.37	424.59
449.74	421.98
450.11	418.90
450.48	415.43
450.85	412.01
451.22	408.94
451.59	405.97
451.96	403.34
452.33	399.68
452.70	396.35
453.07	392.47
453.43	388.27
453.80	384.31
454.17	380.48
454.54	376.98
454.91	373.22
455.28	369.40
455.65	365.91
456.02	362.72
456.38	359.84
456.75	356.06
457.12	352.80
457.49	349.57
457.86	346.49
458.23	343.89
458.59	340.86
458.96	338.05
459.33	335.49
459.70	332.81
460.07	330.74
460.43	328.18
460.80	325.87
461.17	323.93
461.54	321.74
461.91	319.69
462.27	317.56
462.64	315.75
463.01	313.83
463.38	312.04
463.74	309.85
464.11	308.16
464.48	306.71
464.85	305.10
465.21	303.95
465.58	302.62
465.95	301.15
466.32	299.86
466.68	298.49
467.05	297.18
467.42	295.80
467.78	294.36
468.15	293.12
468.52	292.05
468.88	290.79
469.25	289.65
469.62	288.82
469.98	287.78
470.35	286.92
470.72	285.95
471.08	284.98
471.45	284.19
471.82	283.25
472.18	282.35
472.55	281.66
472.92	280.87
473.28	280.18
473.65	279.36
474.02	278.71
474.38	278.10
474.75	277.58
475.11	277.19
475.48	276.73
475.85	276.32
476.21	275.90
476.58	275.39
476.94	275.08
477.31	274.68
477.67	274.43
478.04	274.10
478.41	274.00
478.77	273.99
479.14	273.78
479.50	273.63
479.87	273.64
480.23	273.69
480.60	273.58
480.96	273.57
481.33	273.80
481.69	273.90
482.06	273.97
482.42	274.10
482.79	274.19
483.15	274.42
483.52	274.81
483.88	275.13
484.25	275.57
484.61	275.96
484.98	276.44
485.34	276.95
485.71	277.57
486.07	278.20
486.44	278.58
486.80	279.36
487.17	280.21
487.53	281.12
487.90	281.98
488.26	282.97
488.62	284.00
488.99	284.97
489.35	286.08
489.72	287.38
490.08	288.62
490.44	289.94
490.81	291.54
491.17	293.08
491.54	294.80
491.90	296.50
492.26	298.30
492.63	300.10
492.99	302.18
493.36	304.35
493.72	306.62
494.08	309.09
494.45	311.64
494.81	314.35
495.17	317.03
495.54	319.98
495.90	323.14
496.26	326.37
496.63	329.86
496.99	333.58
497.35	337.37
497.72	341.48
498.08	345.78
498.44	349.89
498.80	354.46
499.17	359.08
499.53	363.88
499.89	369.14
500.26	374.64
500.62	380.16
500.98	385.86
501.34	391.82
501.71	398.20
502.07	404.62
502.43	411.25
502.79	418.22
503.16	425.48
503.52	433.05
503.88	440.93
504.24	448.82
504.60	457.05
504.97	465.79
505.33	474.74
505.69	484.10
506.05	493.62
506.41	503.28
506.78	513.39
507.14	524.02
507.50	534.81
507.86	545.78
508.22	557.08
508.59	568.74
508.95	580.87
509.31	593.20
509.67	606.00
510.03	618.89
510.39	632.29
510.75	645.91
511.12	659.70
511.48	673.87
511.84	688.62
512.20	703.60
512.56	718.74
512.92	734.05
513.28	749.70
513.64	765.86
514.00	782.38
514.37	799.10
514.73	815.96
515.09	833.12
515.45	850.60
515.81	868.39
516.17	886.63
516.53	905.05
516.89	923.52
517.25	942.21
517.61	961.70
517.97	980.70
518.33	999.80
518.69	1019.23
519.05	1039.28
519.41	1059.61
519.77	1080.22
520.13	1100.90
520.49	1121.57
520.85	1142.17
521.21	1163.10
521.57	1184.46
521.93	1206.00
522.29	1227.91
522.65	1249.23
523.01	1270.45
523.37	1291.95
523.73	1313.74
524.09	1335.56
524.45	1357.65
524.81	1379.99
525.17	1402.53
525.53	1425.37
525.89	1448.54
526.25	1471.57
526.61	1494.14
526.97	1516.71
527.33	1539.21
527.68	1562.51
528.04	1585.13
528.40	1608.33
528.76	1631.82
529.12	1655.39
529.48	1678.23
529.84	1700.56
530.20	1724.00
530.56	1748.47
530.91	1772.64
531.27	1796.13
531.63	1819.22
531.99	1842.20
532.35	1864.65
532.71	1886.13
533.07	1909.15
533.42	1931.70
533.78	1953.81
534.14	1976.10
534.50	1997.73
534.86	2019.92
535.21	2040.53
535.57	2063.23
535.93	2084.97
536.29	2106.16
536.65	2127.19
537.00	2147.92
537.36	2169.80
537.72	2189.99
538.08	2209.49
538.44	2228.74
538.79	2248.64
539.15	2268.10
539.51	2288.29
539.87	2308.54
540.22	2328.79
540.58	2348.49
540.94	2367.10
541.29	2386.08
541.65	2404.38
542.01	2423.74
542.37	2441.97
542.72	2460.35
543.08	2477.50
543.44	2495.40
543.79	2511.77
544.15	2528.43
544.51	2545.80
544.87	2561.67
545.22	2578.05
545.58	2593.49
545.94	2608.25
546.29	2622.89
546.65	2637.70
547.01	2651.52
547.36	2665.44
547.72	2678.70
548.07	2691.09
548.43	2703.96
548.79	2716.36
549.14	2728.72
549.50	2739.94
549.86	2751.24
550.21	2762.08
550.57	2773.50
550.92	2783.74
551.28	2794.16
551.64	2804.25
551.99	2814.32
552.35	2823.91
552.70	2833.83
553.06	2844.16
553.41	2854.82
553.77	2864.35
554.13	2873.59
554.48	2882.68
554.84	2891.13
555.19	2900.14
555.55	2908.47
555.90	2916.10
556.26	2924.46
556.61	2931.79
556.97	2938.85
557.32	2946.49
557.68	2954.18
558.03	2960.92
558.39	2967.88
558.74	2976.15
559.10	2983.01
559.45	2989.15
559.81	2997.15
560.16	3002.68
560.52	3007.95
560.87	3013.88
561.23	3018.23
561.58	3023.38
561.94	3028.02
562.29	3031.86
562.64	3035.37
563.00	3039.18
563.35	3044.70
563.71	3049.26
564.06	3054.46
564.42	3059.22
564.77	3062.70
565.12	3066.83
565.48	3070.63
565.83	3073.06
566.19	3075.54
566.54	3077.30
566.89	3079.39
567.25	3080.85
567.60	3083.76
567.96	3085.80
568.31	3086.33
568.66	3088.49
569.02	3089.99
569.37	3090.52
569.72	3091.65
570.08	3092.50
570.43	3093.49
570.78	3092.69
571.14	3091.04
571.49	3089.96
571.84	3090.05
572.20	3088.32
572.55	3086.11
572.90	3083.54
573.26	3082.53
573.61	3080.38
573.96	3078.40
574.31	3074.98
574.67	3070.36
575.02	3066.03
575.37	3062.92
575.72	3058.76
576.08	3054.73
576.43	3050.10
576.78	3046.04
577.13	3042.45
577.49	3038.18
577.84	3033.18
578.19	3028.17
578.54	3022.91
578.90	3017.20
579.25	3009.72
579.60	3004.03
579.95	2997.94
580.30	2991.79
580.66	2984.35
581.01	2977.09
581.36	2970.62
581.71	2965.14
582.06	2958.85
582.42	2952.03
582.77	2944.30
583.12	2937.49
583.47	2930.76
583.82	2924.66
584.17	2917.55
584.53	2909.83
584.88	2902.43
585.23	2895.43
585.58	2888.81
585.93	2882.48
586.28	2875.69
586.63	2869.36
586.98	2862.80
587.34	2856.22
587.69	2849.06
588.04	2842.89
588.39	2835.92
588.74	2827.16
589.09	2817.99
589.44	2809.34
589.79	2802.02
590.14	2794.92
590.49	2787.61
590.84	2778.54
591.19	2769.39
591.54	2759.93
591.89	2749.57
592.25	2740.93
592.60	2730.47
592.95	2720.06
593.30	2710.02
593.65	2699.57
594.00	2689.42
594.35	2679.85
594.70	2669.07
595.05	2659.50
595.40	2648.81
595.75	2638.14
596.10	2629.25
596.45	2620.85
596.80	2612.45
597.15	2602.99
597.50	2593.08
597.85	2583.50
598.19	2575.28
598.54	2566.38
598.89	2557.81
599.24	2550.45
599.59	2541.44
599.94	2533.60
600.29	2524.89
600.64	2515.40
600.99	2505.56
601.34	2496.58
601.69	2486.97
602.04	2477.92
602.39	2468.48
602.74	2460.24
603.08	2452.07
603.43	2443.18
603.78	2433.56
604.13	2423.80
604.48	2414.19
604.83	2404.59
605.18	2395.27
605.53	2384.34
605.87	2373.05
606.22	2363.22
606.57	2352.48
606.92	2342.42
607.27	2331.93
607.62	2322.50
607.96	2313.20
608.31	2304.34
608.66	2293.88
609.01	2282.55
609.36	2271.80
609.70	2259.96
610.05	2247.67
610.40	2236.66
610.75	2225.21
611.10	2214.16
611.44	2202.04
611.79	2191.39
612.14	2179.83
612.49	2167.10
612.83	2155.88
613.18	2145.09
613.53	2133.63
613.88	2122.06
614.22	2110.68
614.57	2098.94
614.92	2086.96
615.27	2075.51
615.61	2064.09
615.96	2052.94
616.31	2042.90
616.65	2033.20
617.00	2023.29
617.35	2012.75
617.70	2001.57
618.04	1990.18
618.39	1979.46
618.74	1969.48
619.08	1957.84
619.43	1947.71
619.78	1938.21
620.12	1928.16
620.47	1917.38
620.82	1907.07
621.16	1896.75
621.51	1886.29
621.85	1876.14
622.20	1865.16
622.55	1854.72
622.89	1844.52
623.24	1834.90
623.59	1824.76
623.93	1814.04
624.28	1804.54
624.62	1794.43
624.97	1784.50
625.32	1775.27
625.66	1765.78
626.01	1756.33
626.35	1746.49
626.70	1736.40
627.04	1726.07
627.39	1715.55
627.73	1705.71
628.08	1695.81
628.43	1685.81
628.77	1675.55
629.12	1664.99
629.46	1655.09
629.81	1644.28
630.15	1633.58
630.50	1622.57
630.84	1611.33
631.19	1600.55
631.53	1589.45
631.88	1578.98
632.22	1568.00
632.57	1557.74
632.91	1546.87
633.26	1536.27
633.60	1525.48
633.95	1514.75
634.29	1504.65
634.64	1495.06
634.98	1485.06
635.32	1475.41
635.67	1466.17
636.01	1456.84
636.36	1447.51
636.70	1438.16
637.05	1429.61
637.39	1420.86
637.73	1411.67
638.08	1403.70
638.42	1395.30
638.77	1386.46
639.11	1377.27
639.45	1368.54
639.80	1359.45
640.14	1350.61
640.49	1341.70
640.83	1332.95
641.17	1324.26
641.52	1315.53
641.86	1306.58
642.20	1298.40
642.55	1289.53
642.89	1280.63
643.23	1271.63
643.58	1263.58
643.92	1254.83
644.26	1245.72
644.61	1237.18
644.95	1228.77
645.29	1219.00
645.64	1209.65
645.98	1201.08
646.32	1193.23
646.66	1184.62
647.01	1176.14
647.35	1167.58
647.69	1158.82
648.04	1150.98
648.38	1142.43
648.72	1133.49
649.06	1124.82
649.41	1116.08
649.75	1107.29
650.09	1098.84
650.43	1090.25
650.78	1081.01
651.12	1072.81
651.46	1064.89
651.80	1056.74
652.14	1048.86
652.49	1041.29
652.83	1033.41
653.17	1025.19
653.51	1016.94
653.85	1009.11
654.20	1000.88
654.54	992.92
654.88	984.96
655.22	976.62
655.56	968.71
655.90	961.27
656.25	953.74
656.59	946.23
656.93	938.94
657.27	931.62
657.61	923.86
657.95	917.33
658.29	910.27
658.64	902.89
658.98	895.36
659.32	887.71
659.66	880.56
660.00	873.68
660.34	866.66
660.68	859.77
661.02	852.78
661.36	846.44
661.70	839.93
662.05	833.75
662.39	827.77
662.73	821.70
663.07	815.74
663.41	809.80
663.75	803.74
664.09	797.58
664.43	791.47
664.77	785.93
665.11	779.63
665.45	773.80
665.79	768.03
666.13	762.03
666.47	756.40
666.81	750.54
667.15	744.35
667.49	738.80
667.83	733.32
668.17	727.90
668.51	722.09
668.85	716.52
669.19	711.26
669.53	705.73
669.87	700.34
670.21	694.99
670.55	689.86
670.89	684.91
671.23	680.06
671.57	675.04
671.91	670.39
672.25	665.78
672.58	661.07
672.92	656.27
673.26	652.06
673.60	647.55
673.94	643.18
674.28	639.30
674.62	635.30
674.96	631.01
675.30	626.94
675.64	623.08
675.97	619.02
676.31	615.04
676.65	610.91
676.99	606.93
677.33	602.83
677.67	598.62
678.01	594.52
678.34	590.51
678.68	586.45
679.02	582.38
679.36	578.42
679.70	574.41
680.04	570.63
680.37	566.55
680.71	562.74
681.05	559.28
681.39	555.50
681.73	551.70
682.06	548.25
682.40	544.87
682.74	541.24
683.08	537.75
683.42	533.97
683.75	530.74
684.09	527.14
684.43	523.87
684.77	520.61
685.10	517.23
685.44	513.99
685.78	511.03
686.12	507.72
686.45	504.39
686.79	501.23
687.13	498.10
687.46	495.03
687.80	492.01
688.14	488.85
688.48	486.09
688.81	483.03
689.15	480.00
689.49	476.77
689.82	473.69
690.16	470.80
690.50	468.20
690.83	465.21
691.17	462.52
691.51	459.80
691.84	457.13
692.18	454.42
692.52	451.64
692.85	448.92
693.19	446.45
693.52	444.04
693.86	441.39
694.20	438.78
694.53	436.30
694.87	433.59
695.21	430.94
695.54	428.29
695.88	425.86
696.21	423.24
696.55	421.09
696.88	418.81
697.22	416.27
697.56	413.90
697.89	411.64
698.23	409.48
698.56	407.18
698.90	404.83
699.23	402.50
699.57	400.27
699.90	398.01
700.24	395.74
700.58	393.54
700.91	391.56
701.25	389.69
701.58	387.84
701.92	386.10
702.25	384.39
702.59	382.46
702.92	380.45
703.26	378.66
703.59	376.66
703.93	375.04
704.26	373.39
704.60	371.45
704.93	369.73
705.26	368.02
705.60	366.48
705.93	364.93
706.27	363.47
706.60	361.94
706.94	360.30
707.27	358.51
707.61	357.09
707.94	355.60
708.27	354.00
708.61	352.21
708.94	350.58
709.28	349.04
709.61	347.60
709.94	346.37
710.28	345.00
710.61	343.69
710.95	342.02
711.28	340.63
711.61	339.36
711.95	337.88
712.28	336.38
712.61	334.81
712.95	333.56
713.28	332.29
713.61	331.00
713.95	329.78
714.28	328.70
714.61	327.12
714.95	325.79
715.28	324.54
715.61	323.36
715.95	322.23
716.28	320.99
716.61	319.75
716.95	318.60
717.28	317.60
717.61	316.60
717.94	315.58
718.28	314.48
718.61	313.43
718.94	312.51
719.27	311.58
719.61	310.77
719.94	309.69
720.27	308.55
720.60	307.60
720.94	306.76
721.27	305.93
721.60	305.13
721.93	304.37
722.27	303.51
722.60	302.75
722.93	301.93
723.26	301.12
723.59	300.30
723.93	299.41
724.26	298.50
724.59	297.57
724.92	296.80
725.25	295.98
725.59	295.18
725.92	294.50
726.25	293.77
726.58	292.97
726.91	292.30
727.24	291.60
727.57	290.88
727.91	290.05
728.24	289.31
728.57	288.60
728.90	287.88
729.23	287.17
729.56	286.32
729.89	285.57
730.22	284.85
730.55	284.30
730.89	283.72
731.22	283.07
731.55	282.40
731.88	281.74
732.21	281.17
732.54	280.57
732.87	279.95
733.20	279.26
733.53	278.64
733.86	277.98
734.19	277.52
734.52	277.01
734.85	276.62
735.18	276.05
735.51	275.59
735.84	275.14
736.17	274.65
736.50	274.26
736.83	274.09
737.16	273.57
737.49	273.02
737.82	272.42
738.15	271.91
738.48	271.49
738.81	271.00
739.14	270.51
739.47	270.05
739.80	269.56
740.13	269.19
740.46	268.71
740.79	268.39
741.12	267.87
741.45	267.45
741.78	266.90
742.11	266.53
742.44	266.12
742.77	265.68
743.10	265.18
743.43	264.74
743.75	264.00
744.08	263.86
744.41	263.41
744.74	263.03
745.07	262.62
745.40	262.20
745.73	261.97
746.06	261.60
746.39	261.21
746.71	260.80
747.04	260.37
747.37	259.96
747.70	259.59
748.03	259.19
748.36	258.79
748.68	258.50
749.01	258.03
749.34	257.74
749.67	257.30
750.00	257.07
750.33	256.87
750.65	256.64
750.98	256.08
751.31	255.78
751.64	255.46
751.97	255.24
752.29	254.97
752.62	254.54
752.95	254.23
753.28	253.88
753.60	253.53
753.93	253.26
754.26	252.98
754.59	252.62
754.91	252.41
755.24	252.05
755.57	251.70
755.90	251.40
756.22	251.10
756.55	250.80
756.88	250.40
757.20	250.01
757.53	249.60
757.86	249.34
758.19	249.07
758.51	248.80
758.84	248.63
759.17	248.36
759.49	248.08
759.82	247.96
760.15	247.84
760.47	247.56
760.80	247.35
761.13	247.13
761.45	246.91
761.78	246.59
762.11	246.36
762.43	246.13
762.76	245.84
763.08	245.60
763.41	245.51
763.74	245.33
764.06	245.07
764.39	245.03
764.71	244.86
765.04	244.69
765.37	244.47
765.69	244.15
766.02	243.90
766.34	243.69
766.67	243.47
767.00	243.23
767.32	243.21
767.65	243.06
767.97	242.90
768.30	242.74
768.62	242.50
768.95	242.30
769.27	242.15
769.60	242.16
769.92	241.99
770.25	241.80
770.57	241.60
770.90	241.55
771.22	241.37
771.55	241.20
771.87	241.09
772.20	240.92
772.52	240.98
772.85	241.09
773.17	241.08
773.50	240.86
773.82	240.70
774.15	240.47
774.47	240.28
774.80	240.10
775.12	239.98
775.45	240.02
775.77	240.01
776.09	239.84
776.42	239.70
776.74	239.55
777.07	239.40
777.39	239.32
777.72	239.18
778.04	239.08
778.36	238.94
778.69	238.80
779.01	238.68
779.33	238.44
779.66	238.20
779.98	238.05
780.31	237.98
780.63	237.95
780.95	237.88
781.28	237.85
781.60	237.76
781.92	237.62
782.25	237.44
782.57	237.30
782.89	237.23
783.22	237.11
783.54	237.01
783.86	236.88
784.19	236.77
784.51	236.68
784.83	236.47
785.16	236.40
785.48	236.27
785.80	236.28
786.12	236.30
786.45	236.26
786.77	236.21
787.09	236.06
787.42	235.91
787.74	235.90
788.06	235.87
788.38	235.90
788.71	235.84
789.03	235.76
789.35	235.73
789.67	235.65
789.99	235.60
790.32	235.59
790.64	235.59
790.96	235.72
791.28	235.61
791.61	235.60
791.93	235.63
792.25	235.59
792.57	235.59
792.89	235.34
793.21	235.24
793.54	235.16
793.86	235.19
794.18	235.18
794.50	235.03
794.82	234.91
795.14	234.76
795.47	234.70
795.79	234.68
796.11	234.60
796.43	234.63
796.75	234.53
797.07	234.40
797.39	234.36
797.71	234.18
798.04	234.21
798.36	234.20
798.68	234.12
799.00	234.17
799.32	234.13
799.64	234.10
799.96	234.08
800.28	234.05
800.60	233.94
800.92	233.92
801.24	233.89
801.56	233.96
801.89	233.89
802.21	233.80
802.53	233.79
802.85	233.81
803.17	233.75
803.49	233.65
803.81	233.68
804.13	233.51
804.45	233.40
804.77	233.31
805.09	233.27
805.41	233.14
805.73	232.98
806.05	232.97
806.37	232.91
806.69	232.73
807.01	232.72
807.33	232.74
807.65	232.53
807.97	232.57
808.28	232.49
808.60	232.51
808.92	232.50
809.24	232.65
809.56	232.55
809.88	232.53
810.20	232.60
810.52	232.52
810.84	232.50
811.16	232.47
811.48	232.45
811.80	232.44
812.12	232.40
812.43	232.46
812.75	232.34
813.07	232.22
813.39	232.26
813.71	232.09
814.03	232.00
814.35	232.06
814.67	232.00
814.98	231.85
815.30	231.84
815.62	231.83
815.94	231.50
816.26	231.60
816.58	231.46
816.89	231.36
817.21	231.27
817.53	231.38
817.85	231.35
818.17	231.29
818.48	231.20
818.80	231.19
819.12	230.95
819.44	230.88
819.76	230.83
820.07	230.87
820.39	230.86
820.71	230.85
821.03	230.85
821.34	230.68
821.66	230.70
821.98	230.63
822.30	230.50
822.61	230.58
822.93	230.30
823.25	230.23
823.57	230.19
823.88	230.20
824.20	230.06
824.52	229.92
824.83	229.78
825.15	229.73
825.47	229.71
825.79	229.90
826.10	229.88
826.42	229.89
826.74	229.71
827.05	229.61
827.37	229.57
827.69	229.50
828.00	229.51
828.32	229.45
828.64	229.37
828.95	229.50
829.27	229.47
829.58	229.50
829.90	229.55
830.22	229.58
830.53	229.53
830.85	229.48
831.17	229.55
831.48	229.59
831.80	229.53
832.11	229.50
832.43	229.34
832.75	229.33
833.06	229.51
833.38	229.50
833.69	229.56
834.01	229.57
834.32	229.53
834.64	229.56
834.96	229.54
835.27	229.61
835.59	229.54
835.90	229.46
836.22	229.49
836.53	229.42
836.85	229.31
837.16	229.50
837.48	229.54
837.79	229.50
838.11	229.53
838.42	229.59
838.74	229.60
839.05	229.67
839.37	229.54
839.68	229.41
840.00	229.50
840.31	229.47
840.63	229.42
840.94	229.37
841.26	229.44
841.57	229.49
841.88	229.44
842.20	229.40
842.51	229.44
842.83	229.46
843.14	229.73
843.46	229.75
843.77	229.66
844.08	229.60
844.40	229.68
844.71	229.60
845.03	229.59
845.34	229.66
845.65	229.62
845.97	229.69
846.28	229.72
846.60	229.69
846.91	229.62
847.22	229.67
847.54	229.81
847.85	229.72
848.16	229.64
848.48	229.68
848.79	229.78
849.10	229.84
849.42	229.81
849.73	229.60
850.04	229.65
850.36	229.59
850.67	229.69
850.98	229.82
851.30	229.92
851.61	229.91
851.92	229.80
852.23	229.88
852.55	229.93
852.86	229.84
853.17	229.77
853.49	229.91
853.80	229.87
854.11	229.84
854.42	229.91
854.74	229.89
855.05	229.82
855.36	229.74
855.67	229.65
855.99	229.67
856.30	229.96
856.61	229.94
856.92	229.85
857.23	229.87
857.55	229.67
857.86	229.60
858.17	229.60
858.48	229.60
858.79	229.55
859.11	229.60
859.42	229.60
859.73	229.63
860.04	229.53
860.35	229.51
860.66	229.52
860.98	229.52
861.29	229.54
861.60	229.51
861.91	229.49
862.22	229.42
862.53	229.31
862.84	229.00
863.16	228.99
863.47	228.97
863.78	228.90
864.09	228.90
864.40	228.98
864.71	229.03
865.02	229.08
865.33	229.03
865.64	228.87
865.95	228.83
866.27	228.97
866.58	228.99
866.89	228.95
867.20	228.89
867.51	228.81
867.82	228.77
868.13	228.89
868.44	228.86
868.75	228.92
869.06	228.91
869.37	228.93
869.68	228.89
869.99	228.88
870.30	228.88
870.61	228.80
870.92	228.67
871.23	228.52
871.54	228.47
871.85	228.46
872.16	228.50
872.47	228.56
872.78	228.35
873.09	228.35
873.40	228.40
873.71	228.45
874.02	228.44
874.33	228.45
874.64	228.30
874.95	228.31
875.26	228.26
875.56	228.32
875.87	228.34
876.18	228.29
876.49	228.57
876.80	228.58
877.11	228.69
877.42	228.81
877.73	228.93
878.04	228.99
878.35	229.12
878.66	229.20
878.96	229.09
879.27	229.21
879.58	229.24
879.89	229.22
880.20	229.21
880.51	229.25
880.82	229.24
881.12	229.30
881.43	229.34
881.74	229.44
882.05	229.40
882.36	229.37
882.67	229.48
882.97	229.29
883.28	229.30
883.59	229.30
883.90	229.28
884.21	229.27
884.51	229.28
884.82	229.21
885.13	229.22
885.44	229.31
885.74	229.37
886.05	229.34
886.36	229.31
886.67	229.24
886.98	229.33
887.28	229.41
887.59	229.45
887.90	229.49
888.20	229.40
888.51	229.34
888.82	229.43
889.13	229.42
889.43	229.55
889.74	229.54
890.05	229.46
890.35	229.50
890.66	229.46
890.97	229.44
891.28	229.32
891.58	229.28
891.89	229.29
892.20	229.13
892.50	229.17
892.81	229.23
893.12	229.21
893.42	229.08
893.73	229.05
894.04	229.01
894.34	229.00
894.65	228.98
894.95	229.07
895.26	228.96
895.57	229.09
895.87	228.99
896.18	228.94
896.48	229.00
896.79	228.85
897.10	228.86
897.40	228.87
897.71	228.93
898.01	228.94
898.32	228.95
898.63	228.95
898.93	228.94
899.24	228.87
899.54	228.92
899.85	228.89
900.15	228.86
900.46	228.90
900.76	228.90
901.07	228.86
901.38	228.90
901.68	228.88
901.99	228.76
902.29	228.76
902.60	228.75
902.90	228.61
903.21	228.63
903.51	228.69
903.82	228.60
904.12	228.57
904.43	228.53
904.73	228.47
905.03	228.45
905.34	228.62
905.64	228.66
905.95	228.60
906.25	228.68
906.56	228.72
906.86	228.64
907.17	228.57
907.47	228.68
907.77	228.63
908.08	228.65
908.38	228.63
908.69	228.55
908.99	228.68
909.30	228.83
909.60	228.78
909.90	228.79
910.21	228.77
910.51	228.88
910.81	228.78
911.12	228.85
911.42	228.93
911.73	228.71
912.03	228.68
912.33	228.73
912.64	228.67
912.94	228.60
913.24	228.60
913.55	228.63
913.85	228.62
914.15	228.67
914.46	228.73
914.76	228.64
915.06	228.72
915.37	228.66
915.67	228.64
915.97	228.68
916.27	228.55
916.58	228.59
916.88	228.56
917.18	228.63
917.49	228.77
917.79	228.76
918.09	228.76
918.39	228.81
918.70	228.80
919.00	228.87
919.30	229.00
919.60	229.05
919.91	228.95
920.21	228.93
920.51	228.92
920.81	228.89
921.12	229.03
921.42	228.90
921.72	228.90
922.02	228.99
922.32	229.08
922.63	229.17
922.93	229.24
923.23	229.25
923.53	229.33
923.83	229.17
924.13	229.20
924.44	229.31
924.74	229.35
925.04	229.42
925.34	229.32
925.64	229.27
925.94	229.28
926.24	229.40
926.55	229.33
926.85	229.28
927.15	229.23
927.45	229.22
927.75	229.30
928.05	229.38
928.35	229.28
928.65	229.20
928.95	229.20
929.26	229.25
929.56	229.22
929.86	229.26
930.16	229.27
930.46	229.23
930.76	229.19
931.06	229.21
931.36	229.10
931.66	229.14
931.96	229.11
932.26	229.10
932.56	229.03
932.86	229.02
933.16	229.04
933.46	229.02
933.76	228.93
934.06	228.95
934.36	228.93
934.66	228.92
934.96	228.93
935.26	228.85
935.56	228.76
935.86	228.76
936.16	228.60
936.46	228.54
936.76	228.57
937.06	228.51
937.36	228.37
937.66	228.30
937.96	228.28
938.26	228.29
938.56	228.30
938.86	228.39
939.16	228.41
939.46	228.45
939.76	228.40
940.06	228.50
940.35	228.40
940.65	228.22
940.95	228.21
941.25	228.14
941.55	228.20
941.85	228.14
942.15	228.10
942.45	228.21
942.75	228.19
943.04	228.20
943.34	228.19
943.64	228.21
943.94	228.20
944.24	228.21
944.54	228.12
944.84	228.08
945.13	228.01
945.43	228.03
945.73	227.98
946.03	228.02
946.33	227.91
946.62	228.01
946.92	228.05
947.22	227.99
947.52	227.98
947.82	228.00
948.11	228.11
948.41	228.16
948.71	228.04
949.01	227.98
949.31	227.87
949.60	227.82
949.90	227.94
950.20	228.04
950.50	228.02
950.79	228.08
951.09	228.16
951.39	228.15
951.69	228.14
951.98	228.17
952.28	228.20
952.58	228.21
952.87	228.16
953.17	228.30
953.47	228.37
953.76	228.44
954.06	228.45
954.36	228.35
954.66	228.26
954.95	228.41
955.25	228.51
955.55	228.60
955.84	228.60
956.14	228.50
956.44	228.46
956.73	228.47
957.03	228.46
957.32	228.38
957.62	228.31
957.92	228.43
958.21	228.48
958.51	228.71
958.81	228.72
959.10	228.77
959.40	228.75
959.69	228.70
959.99	228.72
960.29	228.69
960.58	228.74
960.88	228.90
961.17	228.75
961.47	228.80
961.76	228.77
962.06	228.89
962.36	228.90
962.65	228.97
962.95	229.00
963.24	228.95
963.54	228.86
963.83	228.89
964.13	228.81
964.42	228.73
964.72	228.47
965.01	228.48
965.31	228.45
965.60	228.35
965.90	228.44
966.19	228.44
966.49	228.37
966.78	228.34
967.08	228.25
967.37	228.25
967.67	228.13
967.96	228.14
968.26	228.10
968.55	228.02
968.85	227.91
969.14	227.95
969.43	227.97
969.73	228.08
970.02	228.21
970.32	228.22
970.61	228.26
970.91	228.24
971.20	228.26
971.49	228.26
971.79	228.31
972.08	228.26
972.38	228.27
972.67	228.33
972.96	228.32
973.26	228.26
973.55	228.33
973.85	228.36
974.14	228.39
974.43	228.41
974.73	228.47
975.02	228.50
975.31	228.44
975.61	228.51
975.90	228.47
976.19	228.28
976.49	228.25
976.78	228.23
977.07	228.37
977.37	228.35
977.66	228.43
977.95	228.41
978.24	228.42
978.54	228.37
978.83	228.36
979.12	228.34
979.42	228.36
979.71	228.38
980.00	228.35
980.29	228.30
980.59	228.27
980.88	228.25
981.17	228.24
981.46	228.27
981.76	228.19
982.05	228.23
982.34	228.32
982.63	228.32
982.93	228.32
983.22	228.34
983.51	228.37
983.80	228.28
984.09	228.20
984.39	228.21
984.68	228.24
984.97	228.14
985.26	228.08
985.55	228.19
985.85	228.10
986.14	228.16
986.43	228.19
986.72	228.02
987.01	228.01
987.30	228.00
987.59	227.87
987.89	227.89
988.18	227.86
988.47	227.86
988.76	227.76
989.05	227.64
989.34	227.50
989.63	227.57
989.92	227.59
990.22	227.60
990.51	227.54
990.80	227.53
991.09	227.52
991.38	227.58
991.67	227.44
991.96	227.48
992.25	227.50
992.54	227.49
992.83	227.62
993.12	227.62
993.41	227.70
993.70	227.83
993.99	227.90
994.28	227.87
994.58	227.89
994.87	228.02
995.16	228.02
995.45	228.02
995.74	227.91
996.03	227.88
996.32	228.02
996.61	227.97
996.90	228.02
997.19	228.07
997.48	228.05
997.77	228.08
998.06	228.01
998.34	228.01
998.63	228.02
998.92	228.11
999.21	228.22
999.50	228.23
999.79	228.19
1000.08	228.21
1000.37	228.27
1000.66	228.25
1000.95	228.19
1001.24	228.28
1001.53	228.38
1001.82	228.36
1002.11	228.34
1002.40	228.26
1002.68	228.44
1002.97	228.50
1003.26	228.53
1003.55	228.60
1003.84	228.74
1004.13	228.89
1004.42	228.91
1004.71	228.94
1004.99	228.93
1005.28	229.00
1005.57	229.01
1005.86	229.02
1006.15	228.94
1006.44	228.88
1006.72	228.91
1007.01	228.97
1007.30	229.00
1007.59	228.98
1007.88	228.97
1008.17	229.00
1008.45	229.09
1008.74	229.00
1009.03	229.08
1009.32	229.10
1009.60	229.15
1009.89	229.06
1010.18	229.06
1010.47	229.05
1010.76	229.04
1011.04	229.07
1011.33	228.97
1011.62	228.97
1011.91	229.05
1012.19	229.07
1012.48	229.20
1012.77	229.16
1013.05	229.17
1013.34	229.20
1013.63	229.17
1013.92	229.23
1014.20	229.28
1014.49	229.20
1014.78	229.25
1015.06	229.09
1015.35	229.09
1015.64	229.04
1015.92	229.04
1016.21	229.03
1016.50	229.02
1016.78	229.01
1017.07	228.87
1017.36	228.90
1017.64	228.90
1017.93	228.86
1018.22	228.83
1018.50	228.78
1018.79	228.83
1019.08	228.65
1019.36	228.65
1019.65	228.63
1019.93	228.67
1020.22	228.72
1020.51	228.83
1020.79	228.70
1021.08	228.00
1021.36	228.70
1021.65	229.10
1021.94	226.00
1022.22	229.00
1022.51	228.20
1022.79	229.30
1023.08	230.30
1023.36	230.50
1023.65	227.10
>>>>>End Processed Spectral Data<<<<<
