SpectraSuite Data File
++++++++++++++++++++++++++++++++++++
Date: Fri Feb 01 14:38:27 EST 2013
User: group
Dark Spectrum Present: No
Reference Spectrum Present: No
Number of Sampled Component Spectra: 1
Spectrometers: USB2E7196
Integration Time (usec): 70000 (USB2E7196)
Spectra Averaged: 10 (USB2E7196)
Boxcar Smoothing: 10 (USB2E7196)
Correct for Electrical Dark: No (USB2E7196)
Strobe/Lamp Enabled: No (USB2E7196)
Correct for Detector Non-linearity: No (USB2E7196)
Correct for Stray Light: No (USB2E7196)
Number of Pixels in Processed Spectrum: 2048
>>>>>Begin Processed Spectral Data<<<<<
339.09	0.00
339.48	214.70
339.86	216.40
340.24	218.80
340.63	220.10
341.01	225.20
341.39	222.70
341.78	224.00
342.16	226.60
342.54	225.00
342.93	214.32
343.31	225.14
343.69	225.79
344.07	226.27
344.46	226.69
344.84	227.06
345.22	227.04
345.60	227.36
345.99	227.61
346.37	227.68
346.75	227.76
347.13	227.87
347.52	227.86
347.90	227.90
348.28	227.95
348.66	228.03
349.05	228.19
349.43	228.14
349.81	228.20
350.19	228.32
350.57	228.42
350.96	228.36
351.34	228.50
351.72	228.59
352.10	228.75
352.48	228.85
352.87	228.90
353.25	229.08
353.63	229.11
354.01	229.10
354.39	229.18
354.77	229.29
355.15	229.36
355.54	229.44
355.92	229.45
356.30	229.56
356.68	229.65
357.06	229.69
357.44	229.72
357.82	229.71
358.20	229.80
358.58	229.76
358.97	229.88
359.35	229.95
359.73	230.00
360.11	229.94
360.49	229.93
360.87	230.01
361.25	230.08
361.63	230.09
362.01	230.14
362.39	230.21
362.77	230.21
363.15	230.35
363.53	230.41
363.91	230.37
364.29	230.27
364.67	230.04
365.05	229.95
365.43	229.98
365.81	230.04
366.19	230.24
366.57	230.31
366.95	230.32
367.33	230.22
367.71	230.25
368.09	230.25
368.47	230.29
368.85	230.20
369.23	230.31
369.61	230.21
369.99	230.19
370.37	230.10
370.75	230.27
371.13	230.04
371.51	229.84
371.89	229.83
372.27	229.73
372.65	229.82
373.03	229.77
373.41	229.76
373.78	229.61
374.16	229.27
374.54	229.19
374.92	229.01
375.30	228.92
375.68	228.72
376.06	228.65
376.44	228.51
376.82	228.44
377.19	228.20
377.57	228.16
377.95	228.10
378.33	228.00
378.71	227.58
379.09	227.54
379.47	227.54
379.84	227.47
380.22	227.50
380.60	227.41
380.98	227.38
381.36	227.20
381.73	227.10
382.11	227.09
382.49	227.00
382.87	226.96
383.25	226.89
383.62	227.13
384.00	227.12
384.38	227.10
384.76	227.12
385.13	227.02
385.51	226.91
385.89	226.74
386.27	226.65
386.64	226.79
387.02	226.76
387.40	226.70
387.78	226.58
388.15	226.40
388.53	226.34
388.91	226.35
389.29	226.34
389.66	226.40
390.04	226.40
390.42	226.39
390.79	226.40
391.17	226.34
391.55	225.94
391.92	225.89
392.30	225.89
392.68	225.79
393.05	225.82
393.43	225.91
393.81	226.01
394.18	226.10
394.56	226.10
394.94	226.08
395.31	226.18
395.69	226.33
396.06	226.50
396.44	226.49
396.82	226.48
397.19	226.58
397.57	226.63
397.95	226.63
398.32	226.74
398.70	226.81
399.07	226.86
399.45	226.95
399.82	227.14
400.20	227.20
400.58	227.35
400.95	227.47
401.33	227.63
401.70	227.81
402.08	227.84
402.45	228.02
402.83	228.32
403.20	228.39
403.58	228.39
403.95	228.55
404.33	228.79
404.71	229.05
405.08	229.36
405.46	229.55
405.83	229.73
406.21	229.91
406.58	230.11
406.96	230.39
407.33	230.76
407.70	230.99
408.08	231.39
408.45	231.65
408.83	231.96
409.20	232.14
409.58	232.26
409.95	232.70
410.33	232.96
410.70	233.24
411.08	233.68
411.45	234.15
411.82	234.42
412.20	234.88
412.57	235.35
412.95	235.62
413.32	236.11
413.69	236.65
414.07	237.13
414.44	237.72
414.82	238.37
415.19	238.98
415.56	239.58
415.94	240.18
416.31	240.92
416.68	241.75
417.06	242.63
417.43	243.65
417.81	244.58
418.18	245.61
418.55	246.60
418.93	247.60
419.30	248.81
419.67	250.06
420.04	251.27
420.42	252.41
420.79	253.93
421.16	255.39
421.54	256.97
421.91	258.55
422.28	260.08
422.66	261.79
423.03	263.58
423.40	265.34
423.77	267.13
424.15	269.08
424.52	271.00
424.89	273.14
425.26	275.06
425.64	277.00
426.01	279.09
426.38	281.29
426.75	283.44
427.13	285.61
427.50	288.20
427.87	290.60
428.24	293.22
428.61	295.54
428.99	298.27
429.36	301.01
429.73	303.83
430.10	306.59
430.47	309.49
430.85	312.24
431.22	315.32
431.59	318.62
431.96	321.79
432.33	325.19
432.70	328.54
433.08	332.50
433.45	336.16
433.82	339.80
434.19	343.96
434.56	348.15
434.93	352.00
435.30	355.55
435.68	359.80
436.05	363.93
436.42	367.81
436.79	371.40
437.16	375.36
437.53	379.47
437.90	383.48
438.27	387.38
438.64	391.77
439.01	395.72
439.38	399.32
439.75	402.48
440.13	406.24
440.50	409.88
440.87	412.93
441.24	415.81
441.61	419.09
441.98	421.48
442.35	424.23
442.72	427.19
443.09	430.02
443.46	431.76
443.83	432.74
444.20	434.22
444.57	435.99
444.94	436.86
445.31	437.84
445.68	439.08
446.05	439.75
446.42	439.47
446.79	439.32
447.16	439.03
447.53	439.12
447.90	438.01
448.27	436.57
448.64	434.64
449.01	433.62
449.37	431.39
449.74	428.97
450.11	426.15
450.48	422.97
450.85	419.84
451.22	417.16
451.59	414.70
451.96	412.10
452.33	408.51
452.70	405.49
453.07	401.68
453.43	397.66
453.80	393.87
454.17	390.35
454.54	386.79
454.91	383.05
455.28	379.23
455.65	375.84
456.02	372.80
456.38	369.87
456.75	366.17
457.12	362.96
457.49	359.99
457.86	356.95
458.23	354.44
458.59	351.58
458.96	348.58
459.33	346.03
459.70	343.44
460.07	341.30
460.43	338.80
460.80	336.47
461.17	334.44
461.54	332.27
461.91	330.16
462.27	328.20
462.64	326.28
463.01	324.40
463.38	322.52
463.74	320.38
464.11	318.70
464.48	317.26
464.85	315.60
465.21	314.35
465.58	313.05
465.95	311.30
466.32	309.89
466.68	308.52
467.05	307.12
467.42	305.69
467.78	304.41
468.15	303.06
468.52	302.03
468.88	300.68
469.25	299.51
469.62	298.43
469.98	297.11
470.35	296.08
470.72	295.12
471.08	293.96
471.45	292.98
471.82	291.87
472.18	290.75
472.55	290.05
472.92	289.10
473.28	288.20
473.65	287.46
474.02	286.81
474.38	286.14
474.75	285.35
475.11	284.61
475.48	283.82
475.85	283.19
476.21	282.52
476.58	282.16
476.94	281.61
477.31	281.18
477.67	280.68
478.04	280.22
478.41	279.85
478.77	279.70
479.14	279.35
479.50	279.05
479.87	278.80
480.23	278.40
480.60	278.00
480.96	277.70
481.33	277.50
481.69	277.21
482.06	277.07
482.42	276.89
482.79	276.79
483.15	276.72
483.52	276.61
483.88	276.52
484.25	276.33
484.61	276.25
484.98	276.12
485.34	276.30
485.71	276.36
486.07	276.42
486.44	276.25
486.80	276.27
487.17	276.33
487.53	276.44
487.90	276.62
488.26	276.94
488.62	277.05
488.99	277.15
489.35	277.25
489.72	277.32
490.08	277.59
490.44	277.78
490.81	277.99
491.17	278.20
491.54	278.40
491.90	278.53
492.26	278.87
492.63	279.26
492.99	279.53
493.36	279.88
493.72	280.14
494.08	280.49
494.45	280.83
494.81	281.36
495.17	281.82
495.54	282.31
495.90	282.60
496.26	283.08
496.63	283.57
496.99	283.98
497.35	284.31
497.72	284.71
498.08	285.04
498.44	285.50
498.80	285.98
499.17	286.56
499.53	287.10
499.89	287.47
500.26	287.82
500.62	288.18
500.98	288.58
501.34	288.95
501.71	289.47
502.07	289.91
502.43	290.18
502.79	290.40
503.16	290.56
503.52	290.95
503.88	291.26
504.24	291.64
504.60	291.95
504.97	292.38
505.33	292.74
505.69	293.16
506.05	293.57
506.41	293.93
506.78	294.22
507.14	294.43
507.50	294.70
507.86	295.09
508.22	295.39
508.59	295.59
508.95	295.92
509.31	296.32
509.67	296.55
510.03	296.92
510.39	297.34
510.75	297.93
511.12	298.37
511.48	298.81
511.84	299.25
512.20	299.86
512.56	300.40
512.92	301.16
513.28	301.80
513.64	302.42
514.00	303.03
514.37	303.68
514.73	304.40
515.09	305.42
515.45	306.26
515.81	307.20
516.17	308.38
516.53	309.48
516.89	310.43
517.25	311.64
517.61	312.98
517.97	314.36
518.33	315.65
518.69	317.08
519.05	318.59
519.41	320.12
519.77	321.85
520.13	323.59
520.49	325.12
520.85	326.99
521.21	328.81
521.57	330.88
521.93	332.83
522.29	335.08
522.65	337.21
523.01	339.41
523.37	341.83
523.73	344.02
524.09	346.50
524.45	349.00
524.81	351.75
525.17	354.53
525.53	357.30
525.89	360.28
526.25	363.15
526.61	366.18
526.97	369.38
527.33	372.53
527.68	376.00
528.04	379.43
528.40	382.91
528.76	386.62
529.12	390.21
529.48	394.02
529.84	397.93
530.20	401.80
530.56	405.95
530.91	410.02
531.27	414.36
531.63	418.68
531.99	423.09
532.35	427.55
532.71	431.83
533.07	436.41
533.42	441.07
533.78	445.89
534.14	450.89
534.50	455.64
534.86	460.59
535.21	465.39
535.57	470.63
535.93	475.62
536.29	480.68
536.65	486.04
537.00	491.26
537.36	496.64
537.72	502.04
538.08	507.40
538.44	512.65
538.79	518.13
539.15	523.61
539.51	529.20
539.87	534.67
540.22	540.58
540.58	546.30
540.94	551.89
541.29	557.63
541.65	563.31
542.01	569.39
542.37	575.26
542.72	581.02
543.08	586.81
543.44	592.90
543.79	598.59
544.15	604.45
544.51	610.56
544.87	616.50
545.22	622.48
545.58	628.38
545.94	634.40
546.29	640.47
546.65	646.29
547.01	652.06
547.36	657.99
547.72	663.57
548.07	669.50
548.43	675.49
548.79	681.06
549.14	686.88
549.50	692.59
549.86	698.13
550.21	703.82
550.57	709.54
550.92	715.15
551.28	721.05
551.64	726.67
551.99	732.48
552.35	738.01
552.70	743.76
553.06	749.50
553.41	755.19
553.77	760.75
554.13	765.98
554.48	771.48
554.84	776.84
555.19	782.27
555.55	787.70
555.90	792.55
556.26	798.03
556.61	803.31
556.97	808.27
557.32	813.64
557.68	818.94
558.03	824.03
558.39	829.25
558.74	834.51
559.10	839.56
559.45	844.28
559.81	849.34
560.16	853.92
560.52	858.70
560.87	863.79
561.23	868.35
561.58	873.58
561.94	878.50
562.29	882.84
562.64	887.35
563.00	892.01
563.35	897.07
563.71	901.56
564.06	906.09
564.42	910.53
564.77	915.07
565.12	919.51
565.48	923.73
565.83	927.67
566.19	931.78
566.54	935.75
566.89	939.62
567.25	943.61
567.60	947.82
567.96	951.92
568.31	955.62
568.66	959.35
569.02	962.87
569.37	966.04
569.72	969.72
570.08	972.90
570.43	975.77
570.78	978.56
571.14	981.41
571.49	984.18
571.84	987.19
572.20	989.64
572.55	992.35
572.90	994.89
573.26	997.64
573.61	1000.10
573.96	1002.42
574.31	1004.55
574.67	1006.45
575.02	1008.23
575.37	1009.87
575.72	1011.19
576.08	1012.71
576.43	1014.33
576.78	1016.05
577.13	1017.86
577.49	1019.44
577.84	1020.70
578.19	1022.16
578.54	1023.70
578.90	1024.61
579.25	1025.37
579.60	1026.11
579.95	1026.73
580.30	1027.36
580.66	1027.70
581.01	1028.01
581.36	1028.50
581.71	1029.43
582.06	1030.04
582.42	1030.22
582.77	1030.17
583.12	1030.60
583.47	1031.20
583.82	1031.70
584.17	1031.98
584.53	1031.76
584.88	1032.05
585.23	1032.28
585.58	1032.16
585.93	1031.96
586.28	1032.20
586.63	1032.59
586.98	1033.02
587.34	1032.96
587.69	1033.00
588.04	1032.73
588.39	1032.62
588.74	1031.98
589.09	1031.28
589.44	1030.20
589.79	1029.90
590.14	1029.83
590.49	1028.85
590.84	1027.91
591.19	1026.87
591.54	1025.56
591.89	1024.21
592.25	1023.19
592.60	1021.49
592.95	1020.25
593.30	1018.66
593.65	1017.19
594.00	1015.49
594.35	1014.37
594.70	1012.51
595.05	1011.19
595.40	1009.81
595.75	1007.94
596.10	1006.94
596.45	1005.45
596.80	1004.35
597.15	1003.01
597.50	1001.11
597.85	999.93
598.19	998.60
598.54	996.84
598.89	995.56
599.24	994.62
599.59	993.10
599.94	992.22
600.29	990.46
600.64	988.99
600.99	986.89
601.34	985.41
601.69	982.76
602.04	981.15
602.39	979.12
602.74	977.45
603.08	975.94
603.43	974.05
603.78	972.00
604.13	969.98
604.48	967.45
604.83	965.56
605.18	963.61
605.53	960.95
605.87	958.65
606.22	956.40
606.57	954.01
606.92	951.40
607.27	949.01
607.62	947.19
607.96	944.96
608.31	942.86
608.66	939.85
609.01	937.41
609.36	934.66
609.70	931.86
610.05	928.62
610.40	925.97
610.75	922.87
611.10	920.31
611.44	917.23
611.79	914.76
612.14	911.50
612.49	908.03
612.83	905.13
613.18	902.17
613.53	899.17
613.88	895.69
614.22	892.73
614.57	889.50
614.92	886.08
615.27	883.01
615.61	879.96
615.96	877.08
616.31	874.15
616.65	871.46
617.00	868.27
617.35	865.47
617.70	861.81
618.04	858.57
618.39	855.38
618.74	852.34
619.08	848.90
619.43	845.90
619.78	843.04
620.12	839.83
620.47	836.73
620.82	833.18
621.16	830.16
621.51	827.32
621.85	824.03
622.20	820.72
622.55	817.38
622.89	814.26
623.24	811.24
623.59	808.10
623.93	805.06
624.28	802.32
624.62	799.41
624.97	796.70
625.32	793.95
625.66	790.79
626.01	787.81
626.35	784.97
626.70	782.08
627.04	779.28
627.39	776.47
627.73	773.49
628.08	770.76
628.43	767.66
628.77	764.20
629.12	760.95
629.46	757.82
629.81	754.62
630.15	751.30
630.50	748.01
630.84	744.60
631.19	741.16
631.53	737.73
631.88	734.13
632.22	730.40
632.57	727.14
632.91	723.90
633.26	720.68
633.60	717.11
633.95	713.63
634.29	710.31
634.64	707.09
634.98	703.82
635.32	700.70
635.67	697.81
636.01	694.70
636.36	691.90
636.70	689.13
637.05	686.27
637.39	683.57
637.73	680.51
638.08	678.01
638.42	675.21
638.77	672.33
639.11	669.52
639.45	666.91
639.80	663.81
640.14	660.90
640.49	657.80
640.83	654.90
641.17	652.26
641.52	649.03
641.86	646.10
642.20	643.22
642.55	640.46
642.89	637.61
643.23	634.91
643.58	632.14
643.92	628.88
644.26	625.90
644.61	623.10
644.95	620.21
645.29	616.75
645.64	613.62
645.98	610.82
646.32	608.05
646.66	604.95
647.01	602.14
647.35	599.28
647.69	596.45
648.04	593.91
648.38	590.89
648.72	587.97
649.06	584.92
649.41	581.85
649.75	578.59
650.09	575.55
650.43	572.38
650.78	569.08
651.12	566.23
651.46	563.30
651.80	560.31
652.14	557.46
652.49	555.07
652.83	552.33
653.17	549.18
653.51	546.13
653.85	543.42
654.20	540.31
654.54	537.27
654.88	534.30
655.22	531.00
655.56	527.99
655.90	525.38
656.25	522.60
656.59	520.16
656.93	517.71
657.27	515.05
657.61	512.36
657.95	510.20
658.29	507.53
658.64	505.05
658.98	502.31
659.32	499.77
659.66	496.89
660.00	494.32
660.34	491.90
660.68	489.48
661.02	486.94
661.36	484.74
661.70	482.47
662.05	480.32
662.39	478.38
662.73	476.33
663.07	474.25
663.41	472.20
663.75	469.72
664.09	467.41
664.43	465.22
664.77	463.12
665.11	460.53
665.45	458.50
665.79	456.27
666.13	454.02
666.47	451.77
666.81	449.65
667.15	447.34
667.49	445.34
667.83	443.41
668.17	441.34
668.51	439.35
668.85	437.29
669.19	435.45
669.53	433.30
669.87	431.21
670.21	429.00
670.55	427.00
670.89	425.33
671.23	423.58
671.57	421.70
671.91	419.85
672.25	418.22
672.58	416.41
672.92	414.64
673.26	413.12
673.60	411.54
673.94	409.94
674.28	408.55
674.62	406.90
674.96	405.31
675.30	403.84
675.64	402.25
675.97	400.67
676.31	398.96
676.65	397.39
676.99	395.95
677.33	394.46
677.67	393.02
678.01	391.35
678.34	389.71
678.68	388.22
679.02	386.76
679.36	385.14
679.70	383.66
680.04	382.20
680.37	380.67
680.71	379.22
681.05	377.90
681.39	376.40
681.73	374.99
682.06	373.57
682.40	372.39
682.74	371.10
683.08	369.78
683.42	368.47
683.75	367.22
684.09	365.77
684.43	364.51
684.77	363.14
685.10	361.72
685.44	360.47
685.78	359.25
686.12	357.90
686.45	356.61
686.79	355.33
687.13	354.10
687.46	352.75
687.80	351.53
688.14	350.08
688.48	348.88
688.81	347.56
689.15	346.31
689.49	344.93
689.82	343.70
690.16	342.43
690.50	341.11
690.83	339.90
691.17	338.76
691.51	337.44
691.84	336.20
692.18	335.08
692.52	333.80
692.85	332.50
693.19	331.42
693.52	330.29
693.86	329.21
694.20	328.01
694.53	326.90
694.87	325.71
695.21	324.67
695.54	323.60
695.88	322.49
696.21	321.28
696.55	320.22
696.88	319.16
697.22	318.13
697.56	317.19
697.89	316.17
698.23	315.10
698.56	314.17
698.90	313.28
699.23	312.24
699.57	311.22
699.90	310.34
700.24	309.40
700.58	308.53
700.91	307.60
701.25	306.92
701.58	306.18
701.92	305.29
702.25	304.34
702.59	303.43
702.92	302.57
703.26	301.74
703.59	300.84
703.93	300.10
704.26	299.24
704.60	298.50
704.93	297.68
705.26	296.85
705.60	296.11
705.93	295.29
706.27	294.60
706.60	294.06
706.94	293.34
707.27	292.53
707.61	291.66
707.94	291.00
708.27	290.13
708.61	289.31
708.94	288.74
709.28	288.08
709.61	287.48
709.94	287.12
710.28	286.47
710.61	285.80
710.95	285.14
711.28	284.66
711.61	283.86
711.95	283.28
712.28	282.59
712.61	281.87
712.95	281.33
713.28	280.85
713.61	280.17
713.95	279.69
714.28	279.19
714.61	278.80
714.95	278.14
715.28	277.61
715.61	277.16
715.95	276.60
716.28	276.18
716.61	275.66
716.95	274.88
717.28	274.45
717.61	274.09
717.94	273.56
718.28	272.93
718.61	272.59
718.94	272.18
719.27	272.02
719.61	271.74
719.94	271.35
720.27	270.85
720.60	270.41
720.94	269.85
721.27	269.50
721.60	269.04
721.93	268.72
722.27	268.43
722.60	268.07
722.93	267.66
723.26	267.33
723.59	267.00
723.93	266.71
724.26	266.35
724.59	265.88
724.92	265.45
725.25	265.21
725.59	264.84
725.92	264.41
726.25	263.91
726.58	263.52
726.91	263.13
727.24	262.83
727.57	262.46
727.91	262.09
728.24	261.74
728.57	261.40
728.90	261.02
729.23	260.58
729.56	260.22
729.89	259.90
730.22	259.56
730.55	259.08
730.89	258.73
731.22	258.36
731.55	258.00
731.88	257.69
732.21	257.25
732.54	256.84
732.87	256.47
733.20	256.25
733.53	255.98
733.86	255.70
734.19	255.36
734.52	255.11
734.85	254.90
735.18	254.59
735.51	254.36
735.84	254.14
736.17	253.86
736.50	253.46
736.83	253.21
737.16	252.80
737.49	252.59
737.82	252.30
738.15	252.08
738.48	251.80
738.81	251.51
739.14	251.27
739.47	250.99
739.80	250.83
740.13	250.52
740.46	250.18
740.79	249.85
741.12	249.60
741.45	249.33
741.78	249.06
742.11	248.81
742.44	248.51
742.77	248.17
743.10	247.95
743.43	247.75
743.75	247.48
744.08	247.54
744.41	247.28
744.74	247.05
745.07	246.82
745.40	246.70
745.73	246.62
746.06	246.43
746.39	246.33
746.71	246.03
747.04	245.84
747.37	245.65
747.70	245.40
748.03	245.15
748.36	244.96
748.68	244.81
749.01	244.63
749.34	244.49
749.67	244.38
750.00	244.16
750.33	244.11
750.65	244.00
750.98	243.63
751.31	243.49
751.64	243.35
751.97	243.32
752.29	243.12
752.62	242.79
752.95	242.65
753.28	242.41
753.60	242.27
753.93	242.09
754.26	241.95
754.59	241.75
754.91	241.65
755.24	241.55
755.57	241.27
755.90	241.06
756.22	240.92
756.55	240.74
756.88	240.58
757.20	240.26
757.53	240.13
757.86	239.91
758.19	239.93
758.51	239.81
758.84	239.55
759.17	239.50
759.49	239.39
759.82	239.42
760.15	239.34
760.47	239.26
760.80	239.16
761.13	239.06
761.45	239.02
761.78	238.92
762.11	238.82
762.43	238.81
762.76	238.70
763.08	238.54
763.41	238.48
763.74	238.42
764.06	238.33
764.39	238.09
764.71	238.08
765.04	237.92
765.37	237.80
765.69	237.71
766.02	237.54
766.34	237.49
766.67	237.27
767.00	237.25
767.32	237.37
767.65	237.31
767.97	237.23
768.30	237.07
768.62	236.89
768.95	236.78
769.27	236.57
769.60	236.52
769.92	236.43
770.25	236.36
770.57	236.21
770.90	236.15
771.22	236.06
771.55	235.96
771.87	235.83
772.20	235.66
772.52	235.73
772.85	235.90
773.17	235.80
773.50	235.64
773.82	235.46
774.15	235.21
774.47	235.05
774.80	234.91
775.12	234.89
775.45	234.85
775.77	234.72
776.09	234.68
776.42	234.60
776.74	234.63
777.07	234.40
777.39	234.32
777.72	234.30
778.04	234.36
778.36	234.27
778.69	234.15
779.01	234.18
779.33	233.94
779.66	233.55
779.98	233.40
780.31	233.44
780.63	233.47
780.95	233.46
781.28	233.32
781.60	233.29
781.92	233.17
782.25	233.15
782.57	233.07
782.89	233.01
783.22	232.93
783.54	232.75
783.86	232.78
784.19	232.72
784.51	232.61
784.83	232.43
785.16	232.41
785.48	232.38
785.80	232.40
786.12	232.39
786.45	232.43
786.77	232.43
787.09	232.31
787.42	232.26
787.74	232.18
788.06	232.20
788.38	232.07
788.71	232.02
789.03	231.91
789.35	231.92
789.67	231.90
789.99	231.91
790.32	231.89
790.64	231.91
790.96	232.07
791.28	231.99
791.61	231.95
791.93	231.89
792.25	231.90
792.57	231.98
792.89	231.76
793.21	231.79
793.54	231.73
793.86	231.71
794.18	231.64
794.50	231.55
794.82	231.57
795.14	231.62
795.47	231.66
795.79	231.60
796.11	231.58
796.43	231.50
796.75	231.42
797.07	231.42
797.39	231.37
797.71	231.17
798.04	231.07
798.36	231.14
798.68	231.18
799.00	231.28
799.32	231.14
799.64	231.34
799.96	231.27
800.28	231.31
800.60	231.28
800.92	231.19
801.24	231.18
801.56	231.16
801.89	231.08
802.21	231.04
802.53	231.12
802.85	231.19
803.17	231.37
803.49	231.31
803.81	231.33
804.13	231.29
804.45	231.26
804.77	231.44
805.09	231.39
805.41	231.21
805.73	230.99
806.05	230.86
806.37	230.71
806.69	230.69
807.01	230.65
807.33	230.70
807.65	230.70
807.97	230.83
808.28	230.83
808.60	230.87
808.92	230.92
809.24	231.01
809.56	230.95
809.88	230.90
810.20	230.95
810.52	230.92
810.84	230.90
811.16	230.95
811.48	230.88
811.80	230.97
812.12	231.11
812.43	231.16
812.75	231.10
813.07	231.09
813.39	231.03
813.71	231.04
814.03	230.92
814.35	230.87
814.67	230.73
814.98	230.59
815.30	230.52
815.62	230.43
815.94	230.26
816.26	230.26
816.58	230.11
816.89	230.14
817.21	230.13
817.53	230.08
817.85	229.98
818.17	229.94
818.48	229.86
818.80	229.74
819.12	229.78
819.44	229.75
819.76	229.67
820.07	229.61
820.39	229.51
820.71	229.52
821.03	229.56
821.34	229.43
821.66	229.58
821.98	229.59
822.30	229.51
822.61	229.56
822.93	229.47
823.25	229.50
823.57	229.47
823.88	229.43
824.20	229.53
824.52	229.53
824.83	229.54
825.15	229.51
825.47	229.57
825.79	229.52
826.10	229.59
826.42	229.66
826.74	229.75
827.05	229.70
827.37	229.65
827.69	229.64
828.00	229.68
828.32	229.60
828.64	229.55
828.95	229.67
829.27	229.63
829.58	229.62
829.90	229.63
830.22	229.55
830.53	229.57
830.85	229.47
831.17	229.43
831.48	229.41
831.80	229.34
832.11	229.36
832.43	229.23
832.75	229.27
833.06	229.36
833.38	229.32
833.69	229.34
834.01	229.31
834.32	229.25
834.64	229.40
834.96	229.45
835.27	229.43
835.59	229.44
835.90	229.41
836.22	229.40
836.53	229.36
836.85	229.33
837.16	229.41
837.48	229.43
837.79	229.50
838.11	229.45
838.42	229.50
838.74	229.49
839.05	229.55
839.37	229.47
839.68	229.29
840.00	229.24
840.31	229.30
840.63	229.38
840.94	229.42
841.26	229.32
841.57	229.25
841.88	229.30
842.20	229.23
842.51	229.19
842.83	229.28
843.14	229.35
843.46	229.40
843.77	229.32
844.08	229.26
844.40	229.30
844.71	229.32
845.03	229.30
845.34	229.29
845.65	229.31
845.97	229.30
846.28	229.38
846.60	229.33
846.91	229.23
847.22	229.18
847.54	229.10
847.85	229.13
848.16	229.17
848.48	229.17
848.79	229.23
849.10	229.36
849.42	229.28
849.73	229.16
850.04	229.09
850.36	229.07
850.67	229.16
850.98	229.07
851.30	229.03
851.61	228.95
851.92	228.96
852.23	228.94
852.55	228.90
852.86	228.83
853.17	228.87
853.49	228.90
853.80	228.89
854.11	228.95
854.42	228.92
854.74	228.85
855.05	228.75
855.36	228.62
855.67	228.47
855.99	228.40
856.30	228.62
856.61	228.65
856.92	228.58
857.23	228.57
857.55	228.60
857.86	228.58
858.17	228.63
858.48	228.60
858.79	228.49
859.11	228.60
859.42	228.58
859.73	228.55
860.04	228.53
860.35	228.54
860.66	228.43
860.98	228.37
861.29	228.40
861.60	228.54
861.91	228.53
862.22	228.56
862.53	228.56
862.84	228.24
863.16	228.29
863.47	228.23
863.78	228.19
864.09	228.08
864.40	228.11
864.71	228.07
865.02	228.00
865.33	228.05
865.64	227.98
865.95	228.02
866.27	228.20
866.58	228.24
866.89	228.21
867.20	228.36
867.51	228.37
867.82	228.30
868.13	228.25
868.44	228.12
868.75	228.14
869.06	228.12
869.37	228.21
869.68	228.15
869.99	228.18
870.30	228.24
870.61	228.28
870.92	228.30
871.23	228.29
871.54	228.26
871.85	228.31
872.16	228.31
872.47	228.40
872.78	228.18
873.09	228.11
873.40	228.13
873.71	228.09
874.02	228.07
874.33	228.13
874.64	228.11
874.95	228.36
875.26	228.38
875.56	228.40
875.87	228.45
876.18	228.49
876.49	228.67
876.80	228.64
877.11	228.60
877.42	228.60
877.73	228.69
878.04	228.75
878.35	228.74
878.66	228.68
878.96	228.60
879.27	228.65
879.58	228.78
879.89	228.81
880.20	228.81
880.51	228.84
880.82	228.75
881.12	228.83
881.43	228.82
881.74	228.80
882.05	228.76
882.36	228.70
882.67	228.66
882.97	228.50
883.28	228.46
883.59	228.51
883.90	228.55
884.21	228.56
884.51	228.55
884.82	228.63
885.13	228.67
885.44	228.60
885.74	228.66
886.05	228.61
886.36	228.56
886.67	228.54
886.98	228.58
887.28	228.68
887.59	228.54
887.90	228.38
888.20	228.37
888.51	228.58
888.82	228.51
889.13	228.58
889.43	228.73
889.74	228.73
890.05	228.75
890.35	228.67
890.66	228.66
890.97	228.64
891.28	228.62
891.58	228.69
891.89	228.69
892.20	228.59
892.50	228.52
892.81	228.60
893.12	228.64
893.42	228.56
893.73	228.60
894.04	228.66
894.34	228.73
894.65	228.61
894.95	228.49
895.26	228.51
895.57	228.50
895.87	228.43
896.18	228.40
896.48	228.42
896.79	228.46
897.10	228.46
897.40	228.44
897.71	228.46
898.01	228.32
898.32	228.39
898.63	228.50
898.93	228.51
899.24	228.50
899.54	228.39
899.85	228.41
900.15	228.38
900.46	228.39
900.76	228.32
901.07	228.44
901.38	228.44
901.68	228.45
901.99	228.40
902.29	228.27
902.60	228.30
902.90	228.24
903.21	228.20
903.51	228.17
903.82	228.30
904.12	228.25
904.43	228.37
904.73	228.39
905.03	228.39
905.34	228.60
905.64	228.56
905.95	228.60
906.25	228.57
906.56	228.53
906.86	228.58
907.17	228.70
907.47	228.59
907.77	228.56
908.08	228.58
908.38	228.70
908.69	228.72
908.99	228.70
909.30	228.70
909.60	228.69
909.90	228.66
910.21	228.50
910.51	228.43
910.81	228.42
911.12	228.35
911.42	228.37
911.73	228.16
912.03	228.20
912.33	228.22
912.64	228.24
912.94	228.30
913.24	228.21
913.55	228.15
913.85	228.21
914.15	228.30
914.46	228.32
914.76	228.32
915.06	228.34
915.37	228.36
915.67	228.30
915.97	228.43
916.27	228.31
916.58	228.41
916.88	228.37
917.18	228.37
917.49	228.61
917.79	228.59
918.09	228.62
918.39	228.68
918.70	228.69
919.00	228.79
919.30	228.73
919.60	228.74
919.91	228.66
920.21	228.76
920.51	228.67
920.81	228.64
921.12	228.66
921.42	228.71
921.72	228.66
922.02	228.73
922.32	228.71
922.63	228.87
922.93	228.95
923.23	229.00
923.53	229.00
923.83	228.84
924.13	228.87
924.44	228.84
924.74	228.83
925.04	228.94
925.34	228.92
925.64	228.98
925.94	229.10
926.24	229.24
926.55	229.20
926.85	229.23
927.15	229.25
927.45	229.13
927.75	229.14
928.05	229.22
928.35	229.23
928.65	229.12
928.95	229.07
929.26	228.97
929.56	228.90
929.86	228.84
930.16	228.84
930.46	228.75
930.76	228.73
931.06	228.63
931.36	228.56
931.66	228.47
931.96	228.40
932.26	228.25
932.56	228.19
932.86	228.08
933.16	228.12
933.46	228.12
933.76	228.16
934.06	228.20
934.36	228.20
934.66	228.14
934.96	228.17
935.26	228.19
935.56	228.04
935.86	228.11
936.16	228.06
936.46	227.97
936.76	227.98
937.06	227.97
937.36	228.07
937.66	227.94
937.96	228.00
938.26	227.94
938.56	227.99
938.86	228.04
939.16	228.11
939.46	228.03
939.76	228.03
940.06	227.98
940.35	227.87
940.65	227.90
940.95	227.92
941.25	227.91
941.55	227.88
941.85	227.94
942.15	227.92
942.45	227.95
942.75	227.89
943.04	227.90
943.34	228.03
943.64	227.91
943.94	227.95
944.24	227.95
944.54	227.93
944.84	227.90
945.13	227.79
945.43	227.79
945.73	227.85
946.03	227.74
946.33	227.62
946.62	227.63
946.92	227.59
947.22	227.62
947.52	227.63
947.82	227.68
948.11	227.71
948.41	227.68
948.71	227.76
949.01	227.79
949.31	227.72
949.60	227.64
949.90	227.67
950.20	227.63
950.50	227.62
950.79	227.62
951.09	227.63
951.39	227.72
951.69	227.68
951.98	227.60
952.28	227.67
952.58	227.72
952.87	227.83
953.17	227.80
953.47	227.90
953.76	227.88
954.06	227.81
954.36	227.84
954.66	227.86
954.95	227.89
955.25	227.96
955.55	228.05
955.84	228.00
956.14	227.98
956.44	228.05
956.73	228.02
957.03	228.16
957.32	228.24
957.62	228.15
957.92	228.24
958.21	228.28
958.51	228.50
958.81	228.55
959.10	228.45
959.40	228.43
959.69	228.30
959.99	228.48
960.29	228.46
960.58	228.41
960.88	228.52
961.17	228.40
961.47	228.44
961.76	228.42
962.06	228.44
962.36	228.49
962.65	228.52
962.95	228.55
963.24	228.53
963.54	228.53
963.83	228.57
964.13	228.54
964.42	228.53
964.72	228.44
965.01	228.48
965.31	228.43
965.60	228.55
965.90	228.70
966.19	228.54
966.49	228.59
966.78	228.66
967.08	228.57
967.37	228.70
967.67	228.61
967.96	228.62
968.26	228.70
968.55	228.61
968.85	228.59
969.14	228.50
969.43	228.44
969.73	228.29
970.02	228.32
970.32	228.29
970.61	228.31
970.91	228.19
971.20	228.18
971.49	228.20
971.79	228.18
972.08	227.94
972.38	227.95
972.67	227.99
972.96	227.93
973.26	227.88
973.55	227.80
973.85	227.79
974.14	227.69
974.43	227.63
974.73	227.64
975.02	227.65
975.31	227.74
975.61	227.70
975.90	227.74
976.19	227.71
976.49	227.74
976.78	227.68
977.07	227.73
977.37	227.83
977.66	227.74
977.95	227.69
978.24	227.85
978.54	227.85
978.83	227.78
979.12	227.77
979.42	227.87
979.71	227.89
980.00	227.90
980.29	227.93
980.59	227.85
980.88	227.89
981.17	227.77
981.46	227.74
981.76	227.72
982.05	227.75
982.34	227.73
982.63	227.76
982.93	227.78
983.22	227.75
983.51	227.62
983.80	227.86
984.09	227.91
984.39	227.82
984.68	227.83
984.97	227.93
985.26	228.00
985.55	227.93
985.85	227.90
986.14	228.01
986.43	228.11
986.72	228.17
987.01	228.11
987.30	228.21
987.59	228.18
987.89	228.15
988.18	228.14
988.47	228.07
988.76	228.03
989.05	228.05
989.34	228.03
989.63	228.09
989.92	227.99
990.22	227.95
990.51	227.92
990.80	227.93
991.09	227.85
991.38	227.71
991.67	227.76
991.96	227.72
992.25	227.67
992.54	227.60
992.83	227.63
993.12	227.69
993.41	227.76
993.70	227.88
993.99	227.96
994.28	228.04
994.58	228.21
994.87	228.14
995.16	228.18
995.45	228.23
995.74	228.20
996.03	228.21
996.32	228.17
996.61	228.26
996.90	228.28
997.19	228.34
997.48	228.55
997.77	228.52
998.06	228.59
998.34	228.63
998.63	228.66
998.92	228.70
999.21	228.75
999.50	228.68
999.79	228.54
1000.08	228.53
1000.37	228.58
1000.66	228.51
1000.95	228.54
1001.24	228.54
1001.53	228.59
1001.82	228.59
1002.11	228.55
1002.40	228.62
1002.68	228.65
1002.97	228.79
1003.26	228.74
1003.55	228.72
1003.84	228.63
1004.13	228.69
1004.42	228.72
1004.71	228.75
1004.99	228.77
1005.28	228.77
1005.57	228.84
1005.86	228.96
1006.15	228.95
1006.44	228.99
1006.72	229.04
1007.01	229.09
1007.30	229.04
1007.59	229.11
1007.88	229.11
1008.17	229.08
1008.45	229.06
1008.74	229.00
1009.03	228.87
1009.32	228.93
1009.60	228.86
1009.89	229.00
1010.18	229.05
1010.47	228.94
1010.76	228.92
1011.04	228.94
1011.33	228.95
1011.62	228.90
1011.91	228.90
1012.19	228.96
1012.48	228.85
1012.77	228.82
1013.05	228.87
1013.34	228.85
1013.63	228.79
1013.92	228.78
1014.20	228.75
1014.49	228.73
1014.78	228.76
1015.06	228.68
1015.35	228.64
1015.64	228.59
1015.92	228.59
1016.21	228.52
1016.50	228.53
1016.78	228.52
1017.07	228.40
1017.36	228.34
1017.64	228.37
1017.93	228.28
1018.22	228.17
1018.50	228.07
1018.79	227.94
1019.08	227.91
1019.36	227.91
1019.65	227.86
1019.93	227.92
1020.22	228.07
1020.51	228.12
1020.79	228.06
1021.08	227.00
1021.36	226.30
1021.65	226.10
1021.94	229.00
1022.22	227.70
1022.51	228.50
1022.79	229.60
1023.08	229.80
1023.36	229.70
1023.65	227.50
>>>>>End Processed Spectral Data<<<<<
