SpectraSuite Data File
++++++++++++++++++++++++++++++++++++
Date: Fri Feb 01 14:35:40 EST 2013
User: group
Dark Spectrum Present: No
Reference Spectrum Present: No
Number of Sampled Component Spectra: 1
Spectrometers: USB2E7196
Integration Time (usec): 70000 (USB2E7196)
Spectra Averaged: 10 (USB2E7196)
Boxcar Smoothing: 10 (USB2E7196)
Correct for Electrical Dark: No (USB2E7196)
Strobe/Lamp Enabled: No (USB2E7196)
Correct for Detector Non-linearity: No (USB2E7196)
Correct for Stray Light: No (USB2E7196)
Number of Pixels in Processed Spectrum: 2048
>>>>>Begin Processed Spectral Data<<<<<
339.09	0.00
339.48	214.30
339.86	217.30
340.24	218.60
340.63	219.70
341.01	224.80
341.39	224.10
341.78	225.10
342.16	225.10
342.54	224.50
342.93	214.23
343.31	225.11
343.69	225.82
344.07	226.26
344.46	226.76
344.84	227.10
345.22	227.20
345.60	227.36
345.99	227.46
346.37	227.54
346.75	227.65
347.13	227.71
347.52	227.72
347.90	227.77
348.28	227.81
348.66	227.88
349.05	227.87
349.43	227.85
349.81	227.89
350.19	227.89
350.57	227.98
350.96	227.89
351.34	227.88
351.72	227.88
352.10	227.99
352.48	227.95
352.87	228.02
353.25	228.14
353.63	228.29
354.01	228.30
354.39	228.38
354.77	228.45
355.15	228.64
355.54	228.74
355.92	228.82
356.30	228.83
356.68	229.03
357.06	229.16
357.44	229.23
357.82	229.31
358.20	229.38
358.58	229.42
358.97	229.51
359.35	229.62
359.73	229.74
360.11	229.84
360.49	229.91
360.87	230.04
361.25	230.07
361.63	230.17
362.01	230.29
362.39	230.40
362.77	230.43
363.15	230.40
363.53	230.47
363.91	230.44
364.29	230.55
364.67	230.28
365.05	230.27
365.43	230.27
365.81	230.30
366.19	230.36
366.57	230.48
366.95	230.52
367.33	230.50
367.71	230.46
368.09	230.45
368.47	230.45
368.85	230.37
369.23	230.50
369.61	230.36
369.99	230.49
370.37	230.44
370.75	230.64
371.13	230.60
371.51	230.52
371.89	230.56
372.27	230.50
372.65	230.47
373.03	230.45
373.41	230.52
373.78	230.40
374.16	230.28
374.54	230.04
374.92	229.90
375.30	229.86
375.68	229.74
376.06	229.57
376.44	229.56
376.82	229.51
377.19	229.30
377.57	229.10
377.95	228.93
378.33	228.85
378.71	228.47
379.09	228.42
379.47	228.45
379.84	228.23
380.22	228.10
380.60	228.00
380.98	227.90
381.36	227.73
381.73	227.66
382.11	227.67
382.49	227.70
382.87	227.62
383.25	227.50
383.62	227.63
384.00	227.63
384.38	227.50
384.76	227.40
385.13	227.32
385.51	227.37
385.89	227.18
386.27	227.11
386.64	227.18
387.02	226.98
387.40	226.81
387.78	226.78
388.15	226.64
388.53	226.61
388.91	226.60
389.29	226.57
389.66	226.53
390.04	226.35
390.42	226.27
390.79	226.26
391.17	226.30
391.55	226.10
391.92	226.13
392.30	226.11
392.68	226.10
393.05	226.16
393.43	226.14
393.81	226.22
394.18	226.21
394.56	226.28
394.94	226.42
395.31	226.50
395.69	226.58
396.06	226.79
396.44	226.91
396.82	226.88
397.19	227.10
397.57	227.18
397.95	227.39
398.32	227.51
398.70	227.59
399.07	227.67
399.45	227.81
399.82	227.79
400.20	227.99
400.58	228.19
400.95	228.29
401.33	228.55
401.70	228.71
402.08	228.85
402.45	229.00
402.83	229.22
403.20	229.45
403.58	229.63
403.95	229.83
404.33	230.04
404.71	230.30
405.08	230.59
405.46	230.90
405.83	231.19
406.21	231.45
406.58	231.85
406.96	232.14
407.33	232.44
407.70	232.90
408.08	233.44
408.45	233.80
408.83	234.25
409.20	234.57
409.58	235.01
409.95	235.70
410.33	236.26
410.70	236.75
411.08	237.49
411.45	238.27
411.82	238.95
412.20	239.68
412.57	240.64
412.95	241.21
413.32	242.16
413.69	243.00
414.07	244.08
414.44	245.18
414.82	246.37
415.19	247.67
415.56	249.05
415.94	250.30
416.31	251.84
416.68	253.45
417.06	255.29
417.43	257.08
417.81	258.85
418.18	260.82
418.55	262.90
418.93	264.92
419.30	267.12
419.67	269.45
420.04	272.02
420.42	274.63
420.79	277.78
421.16	280.66
421.54	283.70
421.91	286.85
422.28	290.12
422.66	293.68
423.03	297.05
423.40	300.47
423.77	304.24
424.15	308.05
424.52	311.86
424.89	316.25
425.26	320.48
425.64	324.47
426.01	328.75
426.38	333.26
426.75	337.80
427.13	342.50
427.50	347.41
427.87	352.53
428.24	357.63
428.61	362.34
428.99	367.61
429.36	373.52
429.73	379.27
430.10	384.95
430.47	390.62
430.85	396.69
431.22	403.04
431.59	409.92
431.96	416.41
432.33	423.64
432.70	430.36
433.08	438.31
433.45	445.79
433.82	453.40
434.19	461.79
434.56	470.16
434.93	478.15
435.30	485.99
435.68	494.58
436.05	503.20
436.42	512.00
436.79	519.86
437.16	528.16
437.53	536.93
437.90	545.67
438.27	554.15
438.64	563.00
439.01	571.38
439.38	578.62
439.75	585.68
440.13	593.77
440.50	601.53
440.87	608.01
441.24	614.79
441.61	622.05
441.98	627.65
442.35	634.00
442.72	640.50
443.09	646.99
443.46	651.24
443.83	653.91
444.20	656.44
444.57	660.11
444.94	662.33
445.31	664.55
445.68	666.85
446.05	668.46
446.42	668.56
446.79	668.45
447.16	668.35
447.53	668.61
447.90	666.38
448.27	664.19
448.64	660.47
449.01	658.18
449.37	653.44
449.74	648.76
450.11	643.19
450.48	636.68
450.85	630.16
451.22	624.61
451.59	619.54
451.96	614.61
452.33	607.64
452.70	601.30
453.07	593.61
453.43	585.75
453.80	578.04
454.17	570.66
454.54	563.62
454.91	555.76
455.28	548.37
455.65	541.45
456.02	534.34
456.38	528.37
456.75	520.79
457.12	514.42
457.49	508.02
457.86	501.79
458.23	496.64
458.59	490.71
458.96	484.60
459.33	479.32
459.70	473.94
460.07	469.62
460.43	464.65
460.80	459.89
461.17	455.58
461.54	451.19
461.91	447.10
462.27	442.86
462.64	439.35
463.01	435.36
463.38	431.40
463.74	427.64
464.11	424.40
464.48	421.50
464.85	418.20
465.21	415.64
465.58	412.90
465.95	409.54
466.32	406.89
466.68	404.17
467.05	401.54
467.42	398.92
467.78	396.15
468.15	393.44
468.52	391.38
468.88	388.82
469.25	386.50
469.62	384.58
469.98	382.50
470.35	380.61
470.72	378.61
471.08	376.85
471.45	375.10
471.82	373.20
472.18	371.24
472.55	369.80
472.92	368.31
473.28	366.70
473.65	365.22
474.02	363.71
474.38	362.49
474.75	361.34
475.11	360.06
475.48	359.01
475.85	358.15
476.21	357.20
476.58	356.39
476.94	355.77
477.31	354.99
477.67	354.24
478.04	353.49
478.41	353.14
478.77	352.62
479.14	352.04
479.50	351.63
479.87	351.38
480.23	351.26
480.60	350.91
480.96	350.74
481.33	350.83
481.69	350.93
482.06	350.90
482.42	350.66
482.79	350.66
483.15	350.80
483.52	351.11
483.88	351.34
484.25	351.59
484.61	351.94
484.98	352.12
485.34	352.78
485.71	353.47
486.07	354.06
486.44	354.71
486.80	355.38
487.17	356.14
487.53	357.01
487.90	357.98
488.26	359.10
488.62	360.19
488.99	361.12
489.35	362.22
489.72	363.47
490.08	364.93
490.44	366.38
490.81	367.98
491.17	369.41
491.54	371.17
491.90	372.72
492.26	374.22
492.63	376.13
492.99	377.62
493.36	379.42
493.72	381.39
494.08	383.22
494.45	385.31
494.81	387.35
495.17	389.36
495.54	391.27
495.90	393.32
496.26	395.48
496.63	397.90
496.99	400.13
497.35	402.51
497.72	404.86
498.08	407.09
498.44	409.36
498.80	411.79
499.17	414.12
499.53	416.54
499.89	419.19
500.26	421.61
500.62	424.07
500.98	426.65
501.34	429.02
501.71	431.56
502.07	433.92
502.43	436.36
502.79	438.65
503.16	441.23
503.52	443.61
503.88	445.96
504.24	448.09
504.60	450.37
504.97	452.70
505.33	454.92
505.69	457.55
506.05	459.77
506.41	461.90
506.78	463.76
507.14	465.66
507.50	467.70
507.86	469.78
508.22	471.92
508.59	473.72
508.95	475.47
509.31	477.30
509.67	479.21
510.03	480.96
510.39	483.01
510.75	484.63
511.12	486.10
511.48	487.56
511.84	489.38
512.20	490.90
512.56	492.35
512.92	493.81
513.28	494.90
513.64	496.10
514.00	497.29
514.37	498.82
514.73	500.20
515.09	501.19
515.45	502.24
515.81	503.08
516.17	504.07
516.53	505.18
516.89	506.04
517.25	506.69
517.61	507.66
517.97	508.31
518.33	509.07
518.69	509.97
519.05	510.87
519.41	511.46
519.77	512.27
520.13	512.85
520.49	513.48
520.85	514.10
521.21	514.67
521.57	515.45
521.93	515.80
522.29	516.50
522.65	517.17
523.01	517.66
523.37	518.41
523.73	519.07
524.09	519.52
524.45	520.22
524.81	521.15
525.17	521.82
525.53	522.64
525.89	523.53
526.25	524.55
526.61	525.14
526.97	526.12
527.33	527.17
527.68	528.29
528.04	529.27
528.40	530.34
528.76	531.86
529.12	533.15
529.48	534.66
529.84	535.84
530.20	537.19
530.56	538.87
530.91	540.60
531.27	542.10
531.63	543.94
531.99	545.62
532.35	547.47
532.71	549.28
533.07	551.20
533.42	553.36
533.78	555.07
534.14	557.21
534.50	559.07
534.86	561.05
535.21	563.00
535.57	565.54
535.93	567.73
536.29	569.97
536.65	572.12
537.00	574.43
537.36	576.80
537.72	579.16
538.08	581.61
538.44	584.11
538.79	586.72
539.15	589.28
539.51	591.97
539.87	594.60
540.22	597.40
540.58	600.36
540.94	602.87
541.29	605.94
541.65	608.81
542.01	612.16
542.37	615.12
542.72	618.02
543.08	620.83
543.44	623.92
543.79	626.87
544.15	630.17
544.51	633.59
544.87	637.07
545.22	640.53
545.58	643.74
545.94	646.92
546.29	650.33
546.65	653.68
547.01	657.03
547.36	660.36
547.72	663.80
548.07	667.08
548.43	670.42
548.79	673.74
549.14	677.19
549.50	680.37
549.86	683.83
550.21	687.43
550.57	690.99
550.92	694.78
551.28	698.38
551.64	701.98
551.99	705.51
552.35	708.89
552.70	712.44
553.06	716.14
553.41	719.77
553.77	723.47
554.13	727.07
554.48	730.62
554.84	734.17
555.19	737.74
555.55	741.34
555.90	744.86
556.26	748.37
556.61	752.10
556.97	755.74
557.32	759.12
557.68	763.03
558.03	766.58
558.39	769.96
558.74	773.67
559.10	776.98
559.45	780.36
559.81	784.22
560.16	787.73
560.52	790.95
560.87	794.68
561.23	797.93
561.58	801.30
561.94	804.70
562.29	807.76
562.64	810.97
563.00	814.17
563.35	817.71
563.71	821.25
564.06	824.48
564.42	827.56
564.77	830.88
565.12	833.91
565.48	837.03
565.83	840.19
566.19	843.07
566.54	846.01
566.89	848.85
567.25	851.71
567.60	854.70
567.96	857.67
568.31	860.04
568.66	862.72
569.02	865.30
569.37	867.85
569.72	870.75
570.08	873.30
570.43	875.80
570.78	877.95
571.14	879.87
571.49	882.07
571.84	884.58
572.20	886.67
572.55	888.40
572.90	890.24
573.26	891.99
573.61	893.76
573.96	895.39
574.31	896.59
574.67	897.82
575.02	898.89
575.37	900.16
575.72	900.97
576.08	902.15
576.43	903.33
576.78	904.35
577.13	905.47
577.49	906.36
577.84	906.98
578.19	907.86
578.54	908.50
578.90	908.93
579.25	909.06
579.60	909.58
579.95	910.17
580.30	910.47
580.66	910.77
581.01	910.80
581.36	911.12
581.71	911.62
582.06	911.77
582.42	911.87
582.77	911.62
583.12	912.15
583.47	912.20
583.82	912.22
584.17	912.16
584.53	911.85
584.88	911.41
585.23	911.22
585.58	910.96
585.93	911.13
586.28	911.16
586.63	910.97
586.98	910.76
587.34	910.37
587.69	910.05
588.04	909.63
588.39	909.13
588.74	908.39
589.09	907.52
589.44	906.55
589.79	905.86
590.14	905.55
590.49	904.51
590.84	903.69
591.19	902.91
591.54	901.84
591.89	900.31
592.25	899.64
592.60	898.43
592.95	896.97
593.30	895.30
593.65	893.77
594.00	892.14
594.35	891.20
594.70	889.66
595.05	888.38
595.40	886.76
595.75	885.31
596.10	884.11
596.45	883.28
596.80	882.14
597.15	880.94
597.50	879.30
597.85	878.10
598.19	876.78
598.54	875.07
598.89	873.65
599.24	872.74
599.59	871.10
599.94	869.62
600.29	868.26
600.64	866.77
600.99	864.82
601.34	863.39
601.69	861.00
602.04	859.21
602.39	857.07
602.74	855.49
603.08	853.86
603.43	852.03
603.78	850.01
604.13	848.13
604.48	846.20
604.83	844.54
605.18	842.54
605.53	840.21
605.87	837.99
606.22	835.97
606.57	833.64
606.92	831.68
607.27	829.82
607.62	827.95
607.96	825.96
608.31	824.09
608.66	821.71
609.01	819.05
609.36	816.58
609.70	813.99
610.05	811.23
610.40	808.90
610.75	806.13
611.10	803.62
611.44	800.50
611.79	797.90
612.14	795.10
612.49	792.20
612.83	789.35
613.18	786.54
613.53	783.67
613.88	780.91
614.22	777.92
614.57	774.94
614.92	771.94
615.27	769.17
615.61	766.42
615.96	763.79
616.31	761.37
616.65	759.04
617.00	756.74
617.35	754.12
617.70	751.08
618.04	748.39
618.39	745.54
618.74	743.38
619.08	740.39
619.43	737.47
619.78	734.84
620.12	732.18
620.47	729.48
620.82	726.61
621.16	724.09
621.51	721.26
621.85	718.56
622.20	715.69
622.55	712.70
622.89	710.34
623.24	707.69
623.59	705.40
623.93	702.56
624.28	699.80
624.62	697.23
624.97	695.02
625.32	692.40
625.66	689.73
626.01	687.01
626.35	684.53
626.70	681.86
627.04	679.38
627.39	676.76
627.73	674.37
628.08	671.80
628.43	668.90
628.77	666.48
629.12	663.62
629.46	661.00
629.81	658.32
630.15	655.31
630.50	652.49
630.84	649.33
631.19	646.47
631.53	643.76
631.88	640.73
632.22	637.47
632.57	634.94
632.91	632.25
633.26	629.34
633.60	626.45
633.95	623.90
634.29	621.09
634.64	618.67
634.98	615.85
635.32	613.50
635.67	611.02
636.01	608.51
636.36	605.96
636.70	603.36
637.05	601.00
637.39	598.55
637.73	596.10
638.08	594.02
638.42	591.80
638.77	589.37
639.11	587.04
639.45	584.81
639.80	582.23
640.14	579.64
640.49	577.39
640.83	575.00
641.17	572.66
641.52	570.25
641.86	567.72
642.20	565.71
642.55	563.30
642.89	561.00
643.23	558.73
643.58	556.63
643.92	554.38
644.26	551.94
644.61	549.77
644.95	547.49
645.29	544.73
645.64	542.26
645.98	540.00
646.32	537.94
646.66	535.57
647.01	533.25
647.35	531.12
647.69	528.78
648.04	526.72
648.38	524.18
648.72	521.89
649.06	519.59
649.41	516.95
649.75	514.50
650.09	511.92
650.43	509.21
650.78	506.61
651.12	504.28
651.46	502.07
651.80	499.77
652.14	497.54
652.49	495.45
652.83	493.35
653.17	490.87
653.51	488.38
653.85	486.25
654.20	484.13
654.54	481.64
654.88	479.34
655.22	476.91
655.56	474.82
655.90	472.54
656.25	470.24
656.59	468.28
656.93	465.98
657.27	464.05
657.61	461.84
657.95	459.92
658.29	457.70
658.64	455.45
658.98	453.23
659.32	450.94
659.66	448.86
660.00	446.59
660.34	444.60
660.68	442.68
661.02	440.69
661.36	438.70
661.70	436.91
662.05	435.26
662.39	433.52
662.73	431.62
663.07	429.99
663.41	428.26
663.75	426.31
664.09	424.61
664.43	422.65
664.77	421.19
665.11	419.44
665.45	417.93
665.79	416.39
666.13	414.69
666.47	413.21
666.81	411.35
667.15	409.68
667.49	408.06
667.83	406.50
668.17	404.68
668.51	402.88
668.85	401.19
669.19	399.50
669.53	397.78
669.87	396.28
670.21	394.80
670.55	393.25
670.89	391.85
671.23	390.53
671.57	389.21
671.91	387.63
672.25	386.17
672.58	384.68
672.92	383.15
673.26	381.87
673.60	380.57
673.94	379.42
674.28	378.20
674.62	377.01
674.96	375.70
675.30	374.52
675.64	373.41
675.97	372.19
676.31	370.90
676.65	369.71
676.99	368.56
677.33	367.13
677.67	365.89
678.01	364.54
678.34	363.23
678.68	362.06
679.02	360.94
679.36	359.72
679.70	358.41
680.04	357.10
680.37	355.76
680.71	354.44
681.05	353.41
681.39	352.34
681.73	351.13
682.06	349.95
682.40	348.91
682.74	347.91
683.08	346.88
683.42	345.76
683.75	344.78
684.09	343.54
684.43	342.50
684.77	341.26
685.10	340.24
685.44	339.08
685.78	337.93
686.12	336.85
686.45	335.74
686.79	334.76
687.13	333.91
687.46	332.83
687.80	331.78
688.14	330.57
688.48	329.61
688.81	328.57
689.15	327.55
689.49	326.35
689.82	325.15
690.16	324.08
690.50	323.04
690.83	321.86
691.17	320.89
691.51	319.91
691.84	319.05
692.18	317.99
692.52	317.01
692.85	316.03
693.19	315.08
693.52	314.05
693.86	313.10
694.20	312.16
694.53	311.30
694.87	310.36
695.21	309.34
695.54	308.26
695.88	307.24
696.21	306.28
696.55	305.41
696.88	304.55
697.22	303.68
697.56	302.97
697.89	302.20
698.23	301.38
698.56	300.52
698.90	299.80
699.23	298.90
699.57	298.22
699.90	297.43
700.24	296.56
700.58	295.95
700.91	295.31
701.25	294.55
701.58	293.90
701.92	293.28
702.25	292.69
702.59	291.97
702.92	291.52
703.26	290.96
703.59	290.34
703.93	289.99
704.26	289.40
704.60	288.60
704.93	287.87
705.26	287.18
705.60	286.56
705.93	285.88
706.27	285.54
706.60	284.96
706.94	284.42
707.27	283.88
707.61	283.14
707.94	282.41
708.27	281.81
708.61	281.09
708.94	280.55
709.28	279.96
709.61	279.58
709.94	279.01
710.28	278.38
710.61	277.92
710.95	277.10
711.28	276.68
711.61	276.18
711.95	275.75
712.28	275.19
712.61	274.75
712.95	274.36
713.28	273.86
713.61	273.41
713.95	272.83
714.28	272.36
714.61	272.00
714.95	271.56
715.28	271.03
715.61	270.55
715.95	270.00
716.28	269.60
716.61	269.09
716.95	268.53
717.28	268.11
717.61	267.62
717.94	267.28
718.28	266.65
718.61	266.32
718.94	265.81
719.27	265.47
719.61	264.97
719.94	264.49
720.27	264.04
720.60	263.65
720.94	263.39
721.27	263.14
721.60	262.80
721.93	262.51
722.27	262.21
722.60	261.89
722.93	261.67
723.26	261.36
723.59	261.04
723.93	260.75
724.26	260.38
724.59	260.15
724.92	259.71
725.25	259.66
725.59	259.29
725.92	259.13
726.25	258.77
726.58	258.60
726.91	258.32
727.24	257.97
727.57	257.61
727.91	257.24
728.24	256.93
728.57	256.74
728.90	256.51
729.23	256.18
729.56	255.98
729.89	255.70
730.22	255.44
730.55	255.09
730.89	254.81
731.22	254.62
731.55	254.23
731.88	253.98
732.21	253.52
732.54	253.23
732.87	252.89
733.20	252.76
733.53	252.42
733.86	252.18
734.19	251.96
734.52	251.67
734.85	251.50
735.18	251.24
735.51	251.00
735.84	250.71
736.17	250.63
736.50	250.39
736.83	250.28
737.16	250.06
737.49	249.85
737.82	249.58
738.15	249.34
738.48	249.13
738.81	248.91
739.14	248.69
739.47	248.51
739.80	248.32
740.13	248.10
740.46	247.86
740.79	247.59
741.12	247.36
741.45	247.18
741.78	247.00
742.11	246.84
742.44	246.50
742.77	246.33
743.10	246.06
743.43	245.85
743.75	245.49
744.08	245.54
744.41	245.30
744.74	245.15
745.07	244.89
745.40	244.68
745.73	244.70
746.06	244.43
746.39	244.19
746.71	244.04
747.04	243.75
747.37	243.62
747.70	243.58
748.03	243.35
748.36	243.17
748.68	243.00
749.01	242.77
749.34	242.57
749.67	242.31
750.00	242.10
750.33	241.90
750.65	241.77
750.98	241.31
751.31	241.25
751.64	241.13
751.97	241.23
752.29	241.19
752.62	240.82
752.95	240.78
753.28	240.66
753.60	240.52
753.93	240.47
754.26	240.35
754.59	240.08
754.91	240.00
755.24	239.90
755.57	239.73
755.90	239.56
756.22	239.43
756.55	239.41
756.88	239.34
757.20	239.14
757.53	238.98
757.86	238.81
758.19	238.71
758.51	238.55
758.84	238.27
759.17	238.11
759.49	238.07
759.82	238.09
760.15	238.06
760.47	237.99
760.80	237.86
761.13	237.84
761.45	237.76
761.78	237.69
762.11	237.55
762.43	237.46
762.76	237.43
763.08	237.34
763.41	237.25
763.74	237.18
764.06	237.17
764.39	237.09
764.71	237.02
765.04	236.93
765.37	236.81
765.69	236.71
766.02	236.64
766.34	236.58
766.67	236.45
767.00	236.37
767.32	236.34
767.65	236.32
767.97	236.20
768.30	236.23
768.62	236.20
768.95	236.14
769.27	236.05
769.60	236.00
769.92	235.94
770.25	235.71
770.57	235.60
770.90	235.59
771.22	235.50
771.55	235.47
771.87	235.38
772.20	235.40
772.52	235.48
772.85	235.60
773.17	235.54
773.50	235.38
773.82	235.26
774.15	235.16
774.47	235.06
774.80	234.93
775.12	234.81
775.45	234.72
775.77	234.70
776.09	234.64
776.42	234.53
776.74	234.52
777.07	234.52
777.39	234.49
777.72	234.38
778.04	234.21
778.36	234.08
778.69	233.97
779.01	233.97
779.33	233.78
779.66	233.47
779.98	233.31
780.31	233.30
780.63	233.38
780.95	233.37
781.28	233.25
781.60	233.25
781.92	233.19
782.25	233.07
782.57	233.04
782.89	232.98
783.22	232.93
783.54	232.88
783.86	232.92
784.19	232.86
784.51	232.90
784.83	232.89
785.16	232.94
785.48	233.00
785.80	233.00
786.12	232.91
786.45	232.86
786.77	232.94
787.09	232.90
787.42	232.67
787.74	232.57
788.06	232.60
788.38	232.57
788.71	232.50
789.03	232.45
789.35	232.41
789.67	232.32
789.99	232.40
790.32	232.31
790.64	232.22
790.96	232.29
791.28	232.16
791.61	232.14
791.93	232.12
792.25	231.94
792.57	231.96
792.89	231.95
793.21	232.00
793.54	231.91
793.86	231.89
794.18	232.02
794.50	231.95
794.82	231.80
795.14	231.71
795.47	231.70
795.79	231.70
796.11	231.55
796.43	231.52
796.75	231.46
797.07	231.47
797.39	231.46
797.71	231.32
798.04	231.33
798.36	231.34
798.68	231.24
799.00	231.35
799.32	231.21
799.64	231.28
799.96	231.30
800.28	231.30
800.60	231.21
800.92	231.07
801.24	231.02
801.56	231.07
801.89	231.01
802.21	230.95
802.53	230.87
802.85	230.97
803.17	231.10
803.49	230.96
803.81	230.93
804.13	230.85
804.45	230.84
804.77	230.76
805.09	230.72
805.41	230.64
805.73	230.56
806.05	230.44
806.37	230.30
806.69	230.18
807.01	230.18
807.33	230.26
807.65	230.23
807.97	230.27
808.28	230.30
808.60	230.28
808.92	230.31
809.24	230.40
809.56	230.32
809.88	230.23
810.20	230.32
810.52	230.34
810.84	230.35
811.16	230.30
811.48	230.28
811.80	230.33
812.12	230.31
812.43	230.39
812.75	230.38
813.07	230.36
813.39	230.36
813.71	230.21
814.03	230.11
814.35	230.06
814.67	230.00
814.98	229.90
815.30	229.91
815.62	229.82
815.94	229.81
816.26	229.84
816.58	229.71
816.89	229.56
817.21	229.41
817.53	229.40
817.85	229.37
818.17	229.38
818.48	229.23
818.80	229.34
819.12	229.22
819.44	229.18
819.76	229.16
820.07	229.16
820.39	229.21
820.71	229.21
821.03	229.27
821.34	229.18
821.66	229.21
821.98	229.28
822.30	229.31
822.61	229.28
822.93	229.29
823.25	229.32
823.57	229.33
823.88	229.41
824.20	229.40
824.52	229.41
824.83	229.37
825.15	229.48
825.47	229.52
825.79	229.56
826.10	229.49
826.42	229.46
826.74	229.48
827.05	229.46
827.37	229.50
827.69	229.40
828.00	229.46
828.32	229.39
828.64	229.30
828.95	229.39
829.27	229.37
829.58	229.35
829.90	229.36
830.22	229.42
830.53	229.41
830.85	229.30
831.17	229.28
831.48	229.25
831.80	229.20
832.11	229.11
832.43	229.08
832.75	229.14
833.06	229.28
833.38	229.19
833.69	229.24
834.01	229.25
834.32	229.30
834.64	229.22
834.96	229.30
835.27	229.29
835.59	229.23
835.90	229.13
836.22	229.11
836.53	229.08
836.85	229.05
837.16	229.27
837.48	229.42
837.79	229.48
838.11	229.55
838.42	229.44
838.74	229.47
839.05	229.42
839.37	229.39
839.68	229.32
840.00	229.40
840.31	229.27
840.63	229.20
840.94	229.20
841.26	229.19
841.57	229.12
841.88	229.10
842.20	228.96
842.51	229.08
842.83	228.98
843.14	229.19
843.46	229.13
843.77	228.87
844.08	228.79
844.40	228.80
844.71	228.73
845.03	228.83
845.34	228.74
845.65	228.71
845.97	228.80
846.28	228.83
846.60	228.70
846.91	228.81
847.22	228.75
847.54	228.70
847.85	228.79
848.16	228.69
848.48	228.80
848.79	229.02
849.10	229.07
849.42	229.19
849.73	228.98
850.04	228.90
850.36	228.82
850.67	228.85
850.98	228.89
851.30	228.89
851.61	228.90
851.92	228.93
852.23	229.03
852.55	229.00
852.86	228.90
853.17	229.01
853.49	229.07
853.80	229.14
854.11	229.19
854.42	229.26
854.74	229.33
855.05	229.11
855.36	228.96
855.67	228.86
855.99	228.89
856.30	229.13
856.61	229.27
856.92	229.39
857.23	229.35
857.55	229.25
857.86	229.28
858.17	229.32
858.48	229.38
858.79	229.36
859.11	229.35
859.42	229.42
859.73	229.46
860.04	229.41
860.35	229.39
860.66	229.32
860.98	229.23
861.29	229.31
861.60	229.48
861.91	229.51
862.22	229.47
862.53	229.40
862.84	229.11
863.16	229.05
863.47	229.01
863.78	229.01
864.09	228.94
864.40	228.92
864.71	228.82
865.02	228.81
865.33	228.80
865.64	228.80
865.95	228.71
866.27	228.76
866.58	228.72
866.89	228.73
867.20	228.73
867.51	228.68
867.82	228.66
868.13	228.65
868.44	228.51
868.75	228.61
869.06	228.61
869.37	228.59
869.68	228.56
869.99	228.64
870.30	228.60
870.61	228.71
870.92	228.71
871.23	228.68
871.54	228.65
871.85	228.75
872.16	228.79
872.47	228.89
872.78	228.72
873.09	228.68
873.40	228.70
873.71	228.71
874.02	228.74
874.33	228.69
874.64	228.65
874.95	228.80
875.26	228.70
875.56	228.64
875.87	228.71
876.18	228.73
876.49	228.81
876.80	228.78
877.11	228.70
877.42	228.67
877.73	228.71
878.04	228.64
878.35	228.48
878.66	228.40
878.96	228.36
879.27	228.35
879.58	228.34
879.89	228.24
880.20	228.30
880.51	228.36
880.82	228.37
881.12	228.35
881.43	228.33
881.74	228.32
882.05	228.31
882.36	228.32
882.67	228.36
882.97	228.26
883.28	228.34
883.59	228.44
883.90	228.44
884.21	228.41
884.51	228.42
884.82	228.49
885.13	228.53
885.44	228.41
885.74	228.40
886.05	228.42
886.36	228.44
886.67	228.35
886.98	228.34
887.28	228.29
887.59	228.32
887.90	228.31
888.20	228.27
888.51	228.33
888.82	228.21
889.13	228.07
889.43	228.13
889.74	228.06
890.05	228.01
890.35	228.03
890.66	228.01
890.97	228.04
891.28	228.01
891.58	228.02
891.89	228.12
892.20	228.14
892.50	228.02
892.81	228.12
893.12	228.15
893.42	228.08
893.73	228.18
894.04	228.12
894.34	228.02
894.65	227.98
894.95	227.89
895.26	227.99
895.57	228.22
895.87	228.10
896.18	228.24
896.48	228.31
896.79	228.37
897.10	228.45
897.40	228.43
897.71	228.49
898.01	228.50
898.32	228.46
898.63	228.49
898.93	228.63
899.24	228.56
899.54	228.54
899.85	228.59
900.15	228.50
900.46	228.57
900.76	228.63
901.07	228.78
901.38	228.87
901.68	228.95
901.99	228.73
902.29	228.69
902.60	228.56
902.90	228.44
903.21	228.42
903.51	228.40
903.82	228.42
904.12	228.40
904.43	228.33
904.73	228.41
905.03	228.37
905.34	228.54
905.64	228.54
905.95	228.54
906.25	228.47
906.56	228.51
906.86	228.53
907.17	228.53
907.47	228.41
907.77	228.39
908.08	228.28
908.38	228.42
908.69	228.47
908.99	228.53
909.30	228.46
909.60	228.43
909.90	228.35
910.21	228.31
910.51	228.27
910.81	228.30
911.12	228.30
911.42	228.31
911.73	228.10
912.03	228.12
912.33	228.21
912.64	228.22
912.94	228.26
913.24	228.12
913.55	228.12
913.85	228.15
914.15	228.14
914.46	228.15
914.76	228.12
915.06	228.01
915.37	228.06
915.67	228.10
915.97	228.08
916.27	228.15
916.58	228.19
916.88	228.16
917.18	228.20
917.49	228.32
917.79	228.36
918.09	228.36
918.39	228.39
918.70	228.30
919.00	228.37
919.30	228.36
919.60	228.47
919.91	228.42
920.21	228.46
920.51	228.44
920.81	228.53
921.12	228.49
921.42	228.62
921.72	228.53
922.02	228.54
922.32	228.50
922.63	228.43
922.93	228.50
923.23	228.49
923.53	228.42
923.83	228.27
924.13	228.14
924.44	228.23
924.74	228.24
925.04	228.32
925.34	228.20
925.64	228.27
925.94	228.26
926.24	228.35
926.55	228.32
926.85	228.34
927.15	228.42
927.45	228.52
927.75	228.44
928.05	228.51
928.35	228.58
928.65	228.74
928.95	228.78
929.26	228.72
929.56	228.82
929.86	228.85
930.16	228.80
930.46	228.90
930.76	228.86
931.06	228.87
931.36	228.80
931.66	229.00
931.96	228.94
932.26	229.00
932.56	228.92
932.86	229.06
933.16	229.15
933.46	229.02
933.76	229.02
934.06	229.20
934.36	229.19
934.66	229.16
934.96	229.11
935.26	229.07
935.56	229.18
935.86	229.11
936.16	229.10
936.46	229.09
936.76	229.08
937.06	229.03
937.36	228.98
937.66	229.05
937.96	228.97
938.26	229.00
938.56	228.98
938.86	228.94
939.16	228.80
939.46	228.78
939.76	228.79
940.06	228.78
940.35	228.60
940.65	228.53
940.95	228.58
941.25	228.45
941.55	228.59
941.85	228.54
942.15	228.56
942.45	228.55
942.75	228.50
943.04	228.63
943.34	228.66
943.64	228.66
943.94	228.63
944.24	228.60
944.54	228.49
944.84	228.38
945.13	228.39
945.43	228.47
945.73	228.45
946.03	228.42
946.33	228.22
946.62	228.21
946.92	228.21
947.22	228.18
947.52	228.27
947.82	228.20
948.11	228.13
948.41	227.98
948.71	227.89
949.01	228.04
949.31	227.93
949.60	227.93
949.90	227.89
950.20	227.79
950.50	227.85
950.79	227.86
951.09	227.87
951.39	227.86
951.69	227.87
951.98	227.87
952.28	227.80
952.58	227.82
952.87	227.83
953.17	227.82
953.47	227.87
953.76	227.85
954.06	227.72
954.36	227.66
954.66	227.72
954.95	227.81
955.25	227.73
955.55	227.65
955.84	227.57
956.14	227.62
956.44	227.71
956.73	227.53
957.03	227.58
957.32	227.64
957.62	227.61
957.92	227.57
958.21	227.56
958.51	227.75
958.81	227.90
959.10	227.95
959.40	227.94
959.69	227.85
959.99	227.87
960.29	228.00
960.58	228.00
960.88	228.15
961.17	228.10
961.47	228.12
961.76	228.07
962.06	228.09
962.36	228.06
962.65	228.02
962.95	228.10
963.24	228.10
963.54	228.15
963.83	228.22
964.13	228.23
964.42	228.12
964.72	228.12
965.01	227.99
965.31	227.96
965.60	227.99
965.90	228.13
966.19	228.13
966.49	228.11
966.78	228.14
967.08	228.18
967.37	228.22
967.67	228.21
967.96	228.30
968.26	228.30
968.55	228.32
968.85	228.21
969.14	228.18
969.43	228.24
969.73	228.14
970.02	228.06
970.32	228.09
970.61	228.07
970.91	227.92
971.20	227.97
971.49	228.03
971.79	228.04
972.08	228.02
972.38	228.06
972.67	228.00
972.96	228.05
973.26	227.92
973.55	227.91
973.85	227.89
974.14	227.91
974.43	227.97
974.73	227.95
975.02	228.04
975.31	228.08
975.61	228.00
975.90	228.01
976.19	228.05
976.49	228.00
976.78	228.05
977.07	228.10
977.37	228.11
977.66	228.16
977.95	228.16
978.24	228.06
978.54	228.03
978.83	228.08
979.12	228.01
979.42	227.97
979.71	228.03
980.00	228.09
980.29	228.03
980.59	227.94
980.88	228.00
981.17	227.98
981.46	227.99
981.76	227.97
982.05	228.02
982.34	228.05
982.63	228.05
982.93	228.00
983.22	228.00
983.51	228.03
983.80	227.96
984.09	228.00
984.39	228.05
984.68	228.03
984.97	228.10
985.26	228.09
985.55	228.04
985.85	227.99
986.14	227.97
986.43	228.06
986.72	228.06
987.01	228.03
987.30	227.96
987.59	227.88
987.89	227.91
988.18	227.86
988.47	227.84
988.76	227.87
989.05	227.93
989.34	227.95
989.63	228.05
989.92	228.02
990.22	227.98
990.51	227.95
990.80	227.93
991.09	227.83
991.38	227.81
991.67	227.87
991.96	227.89
992.25	227.82
992.54	227.80
992.83	227.76
993.12	227.75
993.41	227.97
993.70	228.12
993.99	228.14
994.28	228.20
994.58	228.15
994.87	228.02
995.16	227.93
995.45	227.90
995.74	227.82
996.03	227.81
996.32	227.90
996.61	227.91
996.90	227.83
997.19	227.87
997.48	227.99
997.77	228.04
998.06	228.05
998.34	228.06
998.63	228.04
998.92	228.08
999.21	228.10
999.50	228.03
999.79	227.99
1000.08	227.90
1000.37	227.88
1000.66	227.93
1000.95	228.04
1001.24	228.16
1001.53	228.23
1001.82	228.13
1002.11	228.18
1002.40	228.20
1002.68	228.21
1002.97	228.41
1003.26	228.46
1003.55	228.44
1003.84	228.40
1004.13	228.50
1004.42	228.54
1004.71	228.56
1004.99	228.63
1005.28	228.74
1005.57	228.73
1005.86	228.70
1006.15	228.84
1006.44	228.75
1006.72	228.80
1007.01	228.81
1007.30	228.79
1007.59	228.76
1007.88	228.74
1008.17	228.71
1008.45	228.63
1008.74	228.67
1009.03	228.60
1009.32	228.59
1009.60	228.53
1009.89	228.54
1010.18	228.44
1010.47	228.45
1010.76	228.44
1011.04	228.49
1011.33	228.44
1011.62	228.42
1011.91	228.54
1012.19	228.54
1012.48	228.60
1012.77	228.57
1013.05	228.67
1013.34	228.67
1013.63	228.66
1013.92	228.74
1014.20	228.75
1014.49	228.64
1014.78	228.59
1015.06	228.48
1015.35	228.27
1015.64	228.34
1015.92	228.38
1016.21	228.38
1016.50	228.38
1016.78	228.43
1017.07	228.44
1017.36	228.43
1017.64	228.47
1017.93	228.43
1018.22	228.31
1018.50	228.39
1018.79	228.44
1019.08	228.32
1019.36	228.38
1019.65	228.26
1019.93	228.30
1020.22	228.28
1020.51	228.48
1020.79	228.46
1021.08	227.10
1021.36	229.50
1021.65	229.10
1021.94	227.80
1022.22	229.40
1022.51	226.50
1022.79	229.10
1023.08	228.10
1023.36	230.50
1023.65	227.60
>>>>>End Processed Spectral Data<<<<<
