SpectraSuite Data File
++++++++++++++++++++++++++++++++++++
Date: Fri Feb 01 14:40:24 EST 2013
User: group
Dark Spectrum Present: No
Reference Spectrum Present: No
Number of Sampled Component Spectra: 1
Spectrometers: USB2E7196
Integration Time (usec): 70000 (USB2E7196)
Spectra Averaged: 10 (USB2E7196)
Boxcar Smoothing: 10 (USB2E7196)
Correct for Electrical Dark: No (USB2E7196)
Strobe/Lamp Enabled: No (USB2E7196)
Correct for Detector Non-linearity: No (USB2E7196)
Correct for Stray Light: No (USB2E7196)
Number of Pixels in Processed Spectrum: 2048
>>>>>Begin Processed Spectral Data<<<<<
339.09	0.00
339.48	216.30
339.86	216.70
340.24	217.90
340.63	219.60
341.01	224.40
341.39	222.30
341.78	225.10
342.16	225.10
342.54	225.50
342.93	214.16
343.31	225.00
343.69	225.52
344.07	225.95
344.46	226.40
344.84	226.76
345.22	226.93
345.60	227.21
345.99	227.35
346.37	227.54
346.75	227.70
347.13	227.74
347.52	227.79
347.90	227.91
348.28	228.01
348.66	228.17
349.05	228.04
349.43	228.04
349.81	228.06
350.19	228.13
350.57	228.19
350.96	228.30
351.34	228.35
351.72	228.45
352.10	228.65
352.48	228.75
352.87	228.85
353.25	228.93
353.63	229.08
354.01	229.24
354.39	229.31
354.77	229.40
355.15	229.58
355.54	229.65
355.92	229.67
356.30	229.70
356.68	229.96
357.06	230.17
357.44	230.29
357.82	230.46
358.20	230.60
358.58	230.66
358.97	230.75
359.35	230.89
359.73	231.00
360.11	231.03
360.49	231.15
360.87	231.22
361.25	231.27
361.63	231.31
362.01	231.23
362.39	231.26
362.77	231.29
363.15	231.34
363.53	231.37
363.91	231.34
364.29	231.39
364.67	231.07
365.05	231.01
365.43	231.02
365.81	230.99
366.19	231.00
366.57	231.05
366.95	231.01
367.33	230.90
367.71	230.78
368.09	230.73
368.47	230.64
368.85	230.54
369.23	230.50
369.61	230.40
369.99	230.49
370.37	230.47
370.75	230.41
371.13	230.21
371.51	230.17
371.89	230.18
372.27	230.16
372.65	230.13
373.03	230.10
373.41	230.04
373.78	230.01
374.16	229.89
374.54	229.77
374.92	229.72
375.30	229.67
375.68	229.60
376.06	229.58
376.44	229.49
376.82	229.41
377.19	229.34
377.57	229.21
377.95	229.15
378.33	229.08
378.71	228.94
379.09	228.89
379.47	228.79
379.84	228.68
380.22	228.48
380.60	228.38
380.98	228.26
381.36	228.16
381.73	228.01
382.11	227.93
382.49	227.90
382.87	227.80
383.25	227.77
383.62	227.88
384.00	227.73
384.38	227.60
384.76	227.62
385.13	227.65
385.51	227.53
385.89	227.40
386.27	227.27
386.64	227.17
387.02	227.15
387.40	227.05
387.78	227.06
388.15	227.05
388.53	227.00
388.91	226.96
389.29	226.90
389.66	226.96
390.04	226.92
390.42	226.88
390.79	226.84
391.17	226.88
391.55	226.79
391.92	226.80
392.30	226.85
392.68	226.72
393.05	226.71
393.43	226.86
393.81	226.85
394.18	226.81
394.56	226.96
394.94	226.92
395.31	226.97
395.69	226.93
396.06	227.09
396.44	227.15
396.82	227.22
397.19	227.43
397.57	227.40
397.95	227.44
398.32	227.42
398.70	227.53
399.07	227.65
399.45	227.67
399.82	227.79
400.20	227.84
400.58	228.05
400.95	227.99
401.33	228.00
401.70	228.24
402.08	228.36
402.45	228.33
402.83	228.61
403.20	228.84
403.58	228.99
403.95	229.22
404.33	229.32
404.71	229.43
405.08	229.59
405.46	229.72
405.83	229.88
406.21	230.11
406.58	230.30
406.96	230.40
407.33	230.61
407.70	230.79
408.08	231.23
408.45	231.45
408.83	231.86
409.20	232.06
409.58	232.18
409.95	232.53
410.33	232.85
410.70	233.05
411.08	233.33
411.45	233.65
411.82	233.77
412.20	234.19
412.57	234.58
412.95	234.79
413.32	235.22
413.69	235.69
414.07	235.99
414.44	236.34
414.82	236.80
415.19	237.29
415.56	237.88
415.94	238.21
416.31	238.87
416.68	239.36
417.06	240.10
417.43	240.83
417.81	241.56
418.18	242.33
418.55	243.13
418.93	243.91
419.30	244.75
419.67	245.70
420.04	246.58
420.42	247.61
420.79	248.85
421.16	249.92
421.54	251.01
421.91	252.32
422.28	253.50
422.66	254.79
423.03	256.10
423.40	257.32
423.77	258.72
424.15	260.07
424.52	261.46
424.89	262.99
425.26	264.35
425.64	265.75
426.01	267.32
426.38	268.89
426.75	270.56
427.13	272.23
427.50	273.89
427.87	275.77
428.24	277.49
428.61	279.05
428.99	281.08
429.36	283.22
429.73	285.22
430.10	287.26
430.47	289.28
430.85	291.36
431.22	293.57
431.59	295.97
431.96	298.15
432.33	300.70
432.70	303.05
433.08	305.98
433.45	308.60
433.82	311.19
434.19	314.15
434.56	316.89
434.93	319.68
435.30	322.32
435.68	325.20
436.05	328.10
436.42	330.93
436.79	333.48
437.16	336.00
437.53	338.95
437.90	341.85
438.27	344.68
438.64	347.50
439.01	350.19
439.38	352.38
439.75	354.61
440.13	357.11
440.50	359.58
440.87	361.30
441.24	363.27
441.61	365.34
441.98	366.82
442.35	368.59
442.72	370.37
443.09	372.32
443.46	373.43
443.83	374.07
444.20	374.50
444.57	375.29
444.94	375.77
445.31	376.17
445.68	376.78
446.05	376.73
446.42	376.38
446.79	375.99
447.16	375.60
447.53	375.17
447.90	374.12
448.27	373.05
448.64	371.70
449.01	370.58
449.37	368.73
449.74	366.80
450.11	364.70
450.48	362.27
450.85	359.82
451.22	357.66
451.59	355.65
451.96	353.90
452.33	351.33
452.70	348.93
453.07	345.94
453.43	342.83
453.80	340.21
454.17	337.66
454.54	335.17
454.91	332.45
455.28	329.95
455.65	327.44
456.02	324.99
456.38	322.75
456.75	320.04
457.12	317.72
457.49	315.50
457.86	313.21
458.23	311.39
458.59	309.24
458.96	307.00
459.33	305.08
459.70	303.25
460.07	301.68
460.43	299.89
460.80	298.37
461.17	296.88
461.54	295.38
461.91	293.86
462.27	292.31
462.64	291.03
463.01	289.51
463.38	288.15
463.74	286.61
464.11	285.37
464.48	284.36
464.85	283.18
465.21	282.20
465.58	281.36
465.95	280.16
466.32	279.14
466.68	278.28
467.05	277.36
467.42	276.36
467.78	275.37
468.15	274.58
468.52	273.84
468.88	272.84
469.25	271.92
469.62	271.24
469.98	270.60
470.35	270.04
470.72	269.44
471.08	268.72
471.45	268.17
471.82	267.59
472.18	266.95
472.55	266.61
472.92	266.04
473.28	265.53
473.65	265.05
474.02	264.58
474.38	264.20
474.75	263.70
475.11	263.23
475.48	262.85
475.85	262.40
476.21	261.94
476.58	261.71
476.94	261.46
477.31	261.02
477.67	260.58
478.04	260.10
478.41	259.86
478.77	259.69
479.14	259.50
479.50	259.29
479.87	258.98
480.23	258.66
480.60	258.59
480.96	258.31
481.33	258.19
481.69	258.03
482.06	257.80
482.42	257.77
482.79	257.60
483.15	257.42
483.52	257.38
483.88	257.34
484.25	257.20
484.61	257.15
484.98	257.15
485.34	257.26
485.71	257.31
486.07	257.34
486.44	257.26
486.80	257.23
487.17	257.25
487.53	257.53
487.90	257.84
488.26	258.02
488.62	258.30
488.99	258.49
489.35	258.79
489.72	259.12
490.08	259.33
490.44	259.74
490.81	260.20
491.17	260.63
491.54	261.20
491.90	261.72
492.26	262.17
492.63	262.69
492.99	263.13
493.36	263.74
493.72	264.41
494.08	265.13
494.45	265.94
494.81	266.79
495.17	267.61
495.54	268.43
495.90	269.30
496.26	270.28
496.63	271.36
496.99	272.29
497.35	273.48
497.72	274.87
498.08	276.15
498.44	277.55
498.80	279.10
499.17	280.52
499.53	282.12
499.89	283.76
500.26	285.50
500.62	287.21
500.98	289.20
501.34	291.26
501.71	293.38
502.07	295.42
502.43	297.56
502.79	299.87
503.16	302.30
503.52	304.75
503.88	307.29
504.24	310.09
504.60	313.10
504.97	316.03
505.33	318.95
505.69	322.23
506.05	325.54
506.41	328.80
506.78	332.20
507.14	335.80
507.50	339.62
507.86	343.63
508.22	347.92
508.59	352.10
508.95	356.28
509.31	360.95
509.67	365.80
510.03	370.69
510.39	375.58
510.75	380.58
511.12	386.00
511.48	391.34
511.84	396.89
512.20	402.66
512.56	408.59
512.92	414.60
513.28	420.72
513.64	427.11
514.00	433.64
514.37	440.53
514.73	447.33
515.09	454.44
515.45	461.52
515.81	468.62
516.17	476.12
516.53	483.93
516.89	491.34
517.25	499.05
517.61	507.07
517.97	515.24
518.33	523.66
518.69	531.95
519.05	540.60
519.41	549.20
519.77	558.18
520.13	566.97
520.49	576.01
520.85	585.12
521.21	594.36
521.57	603.87
521.93	613.11
522.29	622.86
522.65	632.38
523.01	641.99
523.37	651.72
523.73	661.65
524.09	671.72
524.45	682.24
524.81	692.79
525.17	703.40
525.53	714.20
525.89	724.89
526.25	736.05
526.61	746.63
526.97	757.83
527.33	768.87
527.68	780.44
528.04	792.03
528.40	803.60
528.76	815.36
529.12	827.01
529.48	838.78
529.84	850.29
530.20	862.36
530.56	874.87
530.91	887.48
531.27	900.01
531.63	912.00
531.99	924.11
532.35	936.07
532.71	947.43
533.07	959.72
533.42	972.16
533.78	984.20
534.14	996.80
534.50	1008.55
534.86	1021.13
535.21	1032.97
535.57	1045.13
535.93	1057.30
536.29	1069.45
536.65	1081.63
537.00	1093.75
537.36	1106.20
537.72	1118.20
538.08	1129.87
538.44	1141.59
538.79	1153.04
539.15	1164.75
539.51	1176.54
539.87	1188.52
540.22	1201.02
540.58	1212.75
540.94	1224.09
541.29	1235.56
541.65	1247.00
542.01	1258.84
542.37	1270.08
542.72	1281.40
543.08	1292.40
543.44	1303.46
543.79	1313.85
544.15	1325.01
544.51	1336.21
544.87	1347.09
545.22	1357.79
545.58	1367.78
545.94	1377.67
546.29	1387.68
546.65	1397.81
547.01	1407.75
547.36	1417.54
547.72	1427.03
548.07	1436.41
548.43	1445.56
548.79	1454.58
549.14	1463.49
549.50	1471.79
549.86	1479.87
550.21	1488.31
550.57	1497.00
550.92	1505.16
551.28	1513.56
551.64	1521.10
551.99	1528.96
552.35	1536.84
552.70	1544.65
553.06	1553.37
553.41	1561.78
553.77	1569.83
554.13	1577.16
554.48	1584.46
554.84	1591.51
555.19	1598.93
555.55	1605.93
555.90	1612.89
556.26	1619.82
556.61	1626.63
556.97	1633.71
557.32	1640.55
557.68	1647.33
558.03	1653.60
558.39	1660.15
558.74	1666.79
559.10	1673.13
559.45	1679.23
559.81	1685.54
560.16	1690.97
560.52	1695.76
560.87	1700.84
561.23	1705.61
561.58	1711.49
561.94	1716.48
562.29	1721.04
562.64	1725.31
563.00	1729.97
563.35	1735.18
563.71	1740.60
564.06	1745.92
564.42	1750.60
564.77	1755.04
565.12	1759.50
565.48	1763.96
565.83	1767.65
566.19	1771.55
566.54	1774.70
566.89	1777.84
567.25	1780.89
567.60	1784.61
567.96	1788.24
568.31	1791.10
568.66	1794.41
569.02	1796.88
569.37	1799.35
569.72	1802.10
570.08	1804.71
570.43	1806.96
570.78	1808.76
571.14	1809.77
571.49	1810.65
571.84	1812.40
572.20	1813.40
572.55	1814.33
572.90	1815.10
573.26	1816.18
573.61	1816.56
573.96	1817.55
574.31	1817.62
574.67	1817.26
575.02	1816.70
575.37	1816.64
575.72	1816.40
576.08	1816.13
576.43	1815.66
576.78	1815.31
577.13	1815.19
577.49	1814.72
577.84	1813.66
578.19	1812.40
578.54	1811.02
578.90	1809.69
579.25	1807.42
579.60	1805.79
579.95	1803.92
580.30	1801.71
580.66	1799.40
581.01	1797.01
581.36	1794.68
581.71	1793.34
582.06	1791.32
582.42	1789.18
582.77	1786.40
583.12	1783.70
583.47	1781.40
583.82	1778.85
584.17	1776.07
584.53	1773.28
584.88	1770.40
585.23	1767.78
585.58	1765.21
585.93	1762.67
586.28	1760.39
586.63	1758.17
586.98	1755.74
587.34	1752.96
587.69	1750.13
588.04	1747.88
588.39	1745.35
588.74	1741.74
589.09	1737.38
589.44	1733.37
589.79	1730.37
590.14	1727.59
590.49	1724.19
590.84	1720.12
591.19	1716.22
591.54	1711.49
591.89	1706.39
592.25	1702.20
592.60	1697.60
592.95	1692.58
593.30	1687.79
593.65	1682.60
594.00	1677.48
594.35	1673.26
594.70	1668.27
595.05	1663.95
595.40	1658.56
595.75	1653.35
596.10	1649.36
596.45	1645.47
596.80	1641.62
597.15	1636.77
597.50	1631.76
597.85	1627.52
598.19	1623.37
598.54	1619.22
598.89	1615.31
599.24	1612.04
599.59	1607.53
599.94	1603.29
600.29	1599.17
600.64	1594.56
600.99	1589.52
601.34	1585.11
601.69	1579.50
602.04	1574.95
602.39	1569.89
602.74	1565.91
603.08	1561.88
603.43	1556.97
603.78	1551.79
604.13	1546.97
604.48	1542.01
604.83	1536.98
605.18	1531.82
605.53	1525.89
605.87	1519.80
606.22	1514.90
606.57	1509.13
606.92	1503.77
607.27	1498.70
607.62	1493.53
607.96	1488.52
608.31	1483.54
608.66	1477.90
609.01	1472.34
609.36	1466.10
609.70	1459.75
610.05	1453.16
610.40	1446.80
610.75	1440.62
611.10	1434.68
611.44	1427.96
611.79	1421.93
612.14	1415.48
612.49	1408.54
612.83	1402.10
613.18	1396.00
613.53	1389.68
613.88	1382.91
614.22	1376.52
614.57	1369.35
614.92	1362.80
615.27	1356.79
615.61	1350.12
615.96	1343.90
616.31	1337.92
616.65	1332.89
617.00	1327.20
617.35	1320.97
617.70	1314.65
618.04	1308.27
618.39	1301.93
618.74	1295.87
619.08	1289.16
619.43	1283.26
619.78	1277.61
620.12	1271.70
620.47	1265.43
620.82	1258.94
621.16	1253.05
621.51	1247.00
621.85	1241.10
622.20	1234.71
622.55	1228.17
622.89	1222.54
623.24	1216.70
623.59	1210.77
623.93	1204.15
624.28	1198.04
624.62	1191.93
624.97	1186.14
625.32	1180.76
625.66	1175.00
626.01	1169.38
626.35	1163.72
626.70	1157.88
627.04	1152.26
627.39	1146.36
627.73	1140.35
628.08	1134.60
628.43	1128.62
628.77	1122.27
629.12	1116.16
629.46	1110.26
629.81	1104.02
630.15	1097.75
630.50	1091.27
630.84	1084.56
631.19	1078.33
631.53	1072.20
631.88	1065.89
632.22	1059.11
632.57	1052.95
632.91	1046.96
633.26	1040.65
633.60	1034.14
633.95	1027.90
634.29	1021.79
634.64	1016.17
634.98	1010.58
635.32	1005.02
635.67	999.53
636.01	994.42
636.36	989.00
636.70	983.86
637.05	978.66
637.39	973.27
637.73	967.95
638.08	963.09
638.42	958.16
638.77	953.05
639.11	947.96
639.45	943.23
639.80	937.45
640.14	932.03
640.49	926.56
640.83	921.46
641.17	916.29
641.52	910.77
641.86	905.21
642.20	899.94
642.55	894.37
642.89	888.92
643.23	883.30
643.58	878.58
643.92	872.97
644.26	867.63
644.61	862.59
644.95	857.71
645.29	852.10
645.64	846.24
645.98	840.97
646.32	836.00
646.66	830.68
647.01	825.82
647.35	820.90
647.69	815.79
648.04	811.10
648.38	805.87
648.72	800.81
649.06	795.71
649.41	790.61
649.75	785.58
650.09	780.76
650.43	775.79
650.78	770.10
651.12	764.98
651.46	760.26
651.80	755.48
652.14	750.51
652.49	745.98
652.83	741.21
653.17	736.14
653.51	731.18
653.85	726.41
654.20	721.54
654.54	716.38
654.88	711.69
655.22	706.54
655.56	701.73
655.90	697.04
656.25	692.53
656.59	688.19
656.93	683.80
657.27	679.22
657.61	674.48
657.95	670.32
658.29	666.19
658.64	661.60
658.98	656.83
659.32	651.96
659.66	647.54
660.00	643.48
660.34	639.27
660.68	634.99
661.02	630.56
661.36	626.58
661.70	622.76
662.05	618.92
662.39	615.46
662.73	611.60
663.07	607.81
663.41	604.27
663.75	600.39
664.09	596.47
664.43	592.70
664.77	589.32
665.11	585.71
665.45	582.08
665.79	578.44
666.13	574.91
666.47	571.45
666.81	567.83
667.15	564.24
667.49	560.87
667.83	557.63
668.17	554.35
668.51	550.84
668.85	547.43
669.19	544.20
669.53	540.59
669.87	537.30
670.21	534.19
670.55	530.69
670.89	527.73
671.23	524.87
671.57	521.91
671.91	518.81
672.25	515.69
672.58	512.74
672.92	509.82
673.26	507.15
673.60	504.58
673.94	501.83
674.28	499.12
674.62	496.59
674.96	493.84
675.30	491.33
675.64	488.86
675.97	486.38
676.31	483.70
676.65	481.20
676.99	478.88
677.33	476.23
677.67	473.82
678.01	471.05
678.34	468.42
678.68	465.94
679.02	463.66
679.36	461.45
679.70	458.91
680.04	456.47
680.37	453.86
680.71	451.53
681.05	449.38
681.39	447.22
681.73	444.86
682.06	442.70
682.40	440.58
682.74	438.16
683.08	435.87
683.42	433.65
683.75	431.62
684.09	429.30
684.43	427.25
684.77	425.13
685.10	423.12
685.44	421.02
685.78	418.88
686.12	416.55
686.45	414.29
686.79	412.27
687.13	410.30
687.46	408.31
687.80	406.15
688.14	403.83
688.48	401.90
688.81	400.01
689.15	398.12
689.49	395.89
689.82	394.10
690.16	392.30
690.50	390.63
690.83	388.69
691.17	386.81
691.51	385.03
691.84	383.23
692.18	381.56
692.52	379.66
692.85	377.91
693.19	376.35
693.52	374.60
693.86	372.88
694.20	371.16
694.53	369.59
694.87	368.05
695.21	366.60
695.54	364.86
695.88	362.95
696.21	361.20
696.55	359.84
696.88	358.28
697.22	356.71
697.56	355.03
697.89	353.67
698.23	352.23
698.56	350.69
698.90	349.23
699.23	347.60
699.57	346.30
699.90	344.89
700.24	343.42
700.58	342.12
700.91	340.84
701.25	339.59
701.58	338.41
701.92	337.08
702.25	335.86
702.59	334.52
702.92	333.39
703.26	332.26
703.59	331.23
703.93	330.23
704.26	329.03
704.60	327.92
704.93	326.61
705.26	325.51
705.60	324.51
705.93	323.38
706.27	322.52
706.60	321.50
706.94	320.38
707.27	319.27
707.61	318.24
707.94	317.37
708.27	316.30
708.61	315.19
708.94	314.20
709.28	313.24
709.61	312.34
709.94	311.55
710.28	310.54
710.61	309.49
710.95	308.37
711.28	307.68
711.61	306.69
711.95	305.84
712.28	304.89
712.61	303.92
712.95	303.07
713.28	302.21
713.61	301.32
713.95	300.42
714.28	299.64
714.61	298.77
714.95	297.80
715.28	297.01
715.61	296.23
715.95	295.53
716.28	294.71
716.61	293.99
716.95	293.09
717.28	292.32
717.61	291.53
717.94	290.91
718.28	289.86
718.61	289.19
718.94	288.49
719.27	287.87
719.61	287.28
719.94	286.66
720.27	285.83
720.60	285.11
720.94	284.60
721.27	284.06
721.60	283.66
721.93	283.12
722.27	282.61
722.60	281.97
722.93	281.35
723.26	280.87
723.59	280.25
723.93	279.82
724.26	279.40
724.59	278.80
724.92	278.13
725.25	277.70
725.59	277.19
725.92	276.68
726.25	276.08
726.58	275.48
726.91	274.92
727.24	274.49
727.57	274.06
727.91	273.52
728.24	273.05
728.57	272.45
728.90	272.02
729.23	271.47
729.56	271.06
729.89	270.52
730.22	269.90
730.55	269.52
730.89	269.00
731.22	268.57
731.55	268.08
731.88	267.75
732.21	267.26
732.54	266.78
732.87	266.36
733.20	266.07
733.53	265.63
733.86	265.21
734.19	264.79
734.52	264.48
734.85	264.20
735.18	263.77
735.51	263.57
735.84	263.10
736.17	262.87
736.50	262.42
736.83	262.35
737.16	261.98
737.49	261.55
737.82	261.19
738.15	260.73
738.48	260.40
738.81	259.95
739.14	259.52
739.47	259.21
739.80	258.85
740.13	258.58
740.46	258.31
740.79	258.12
741.12	257.76
741.45	257.36
741.78	256.95
742.11	256.58
742.44	256.01
742.77	255.66
743.10	255.19
743.43	254.94
743.75	254.44
744.08	254.45
744.41	254.06
744.74	253.76
745.07	253.40
745.40	253.21
745.73	252.99
746.06	252.75
746.39	252.41
746.71	252.06
747.04	251.68
747.37	251.33
747.70	250.97
748.03	250.81
748.36	250.62
748.68	250.32
749.01	250.05
749.34	249.88
749.67	249.76
750.00	249.56
750.33	249.40
750.65	249.11
750.98	248.60
751.31	248.45
751.64	248.22
751.97	248.10
752.29	247.88
752.62	247.58
752.95	247.32
753.28	247.14
753.60	246.93
753.93	246.72
754.26	246.61
754.59	246.39
754.91	246.08
755.24	245.81
755.57	245.55
755.90	245.30
756.22	245.03
756.55	244.75
756.88	244.59
757.20	244.26
757.53	244.02
757.86	243.93
758.19	243.72
758.51	243.55
758.84	243.32
759.17	243.13
759.49	243.09
759.82	243.05
760.15	242.91
760.47	242.80
760.80	242.52
761.13	242.29
761.45	242.14
761.78	241.94
762.11	241.72
762.43	241.53
762.76	241.42
763.08	241.26
763.41	241.21
763.74	241.00
764.06	240.87
764.39	240.81
764.71	240.63
765.04	240.51
765.37	240.34
765.69	240.21
766.02	240.08
766.34	239.79
766.67	239.68
767.00	239.53
767.32	239.56
767.65	239.69
767.97	239.61
768.30	239.47
768.62	239.44
768.95	239.34
769.27	239.26
769.60	239.19
769.92	239.06
770.25	238.86
770.57	238.74
770.90	238.57
771.22	238.38
771.55	238.16
771.87	238.05
772.20	237.90
772.52	237.98
772.85	238.05
773.17	237.96
773.50	237.78
773.82	237.59
774.15	237.31
774.47	237.00
774.80	236.83
775.12	236.58
775.45	236.47
775.77	236.43
776.09	236.34
776.42	236.17
776.74	236.01
777.07	235.80
777.39	235.68
777.72	235.63
778.04	235.54
778.36	235.64
778.69	235.55
779.01	235.45
779.33	235.22
779.66	235.03
779.98	234.87
780.31	234.80
780.63	234.91
780.95	234.91
781.28	234.80
781.60	234.71
781.92	234.75
782.25	234.66
782.57	234.52
782.89	234.54
783.22	234.38
783.54	234.36
783.86	234.36
784.19	234.32
784.51	234.36
784.83	234.25
785.16	234.08
785.48	234.07
785.80	234.04
786.12	233.88
786.45	233.70
786.77	233.72
787.09	233.72
787.42	233.60
787.74	233.50
788.06	233.55
788.38	233.50
788.71	233.51
789.03	233.47
789.35	233.42
789.67	233.30
789.99	233.41
790.32	233.36
790.64	233.30
790.96	233.42
791.28	233.28
791.61	233.27
791.93	233.22
792.25	233.15
792.57	233.30
792.89	233.37
793.21	233.41
793.54	233.45
793.86	233.31
794.18	233.26
794.50	233.25
794.82	233.14
795.14	233.25
795.47	233.19
795.79	233.15
796.11	233.10
796.43	233.09
796.75	233.02
797.07	233.01
797.39	233.00
797.71	232.80
798.04	232.79
798.36	232.80
798.68	232.79
799.00	232.70
799.32	232.52
799.64	232.40
799.96	232.39
800.28	232.33
800.60	232.30
800.92	232.27
801.24	232.23
801.56	232.26
801.89	232.05
802.21	231.99
802.53	231.97
802.85	232.01
803.17	232.10
803.49	232.09
803.81	232.01
804.13	231.97
804.45	231.90
804.77	231.93
805.09	231.94
805.41	231.88
805.73	231.83
806.05	231.81
806.37	231.84
806.69	231.68
807.01	231.67
807.33	231.62
807.65	231.52
807.97	231.46
808.28	231.43
808.60	231.39
808.92	231.45
809.24	231.60
809.56	231.50
809.88	231.43
810.20	231.41
810.52	231.47
810.84	231.35
811.16	231.36
811.48	231.30
811.80	231.26
812.12	231.23
812.43	231.26
812.75	231.28
813.07	231.22
813.39	231.23
813.71	231.19
814.03	231.25
814.35	231.22
814.67	231.19
814.98	231.19
815.30	231.27
815.62	231.09
815.94	230.87
816.26	230.96
816.58	230.85
816.89	230.80
817.21	230.68
817.53	230.77
817.85	230.72
818.17	230.66
818.48	230.48
818.80	230.50
819.12	230.41
819.44	230.34
819.76	230.26
820.07	230.21
820.39	230.17
820.71	230.10
821.03	230.21
821.34	230.19
821.66	230.20
821.98	230.21
822.30	230.27
822.61	230.35
822.93	230.25
823.25	230.17
823.57	230.13
823.88	230.30
824.20	230.22
824.52	230.20
824.83	230.11
825.15	230.15
825.47	230.20
825.79	230.24
826.10	230.24
826.42	230.20
826.74	230.20
827.05	230.11
827.37	230.18
827.69	230.08
828.00	230.09
828.32	230.03
828.64	229.97
828.95	230.10
829.27	230.00
829.58	230.01
829.90	230.06
830.22	230.09
830.53	229.87
830.85	229.76
831.17	229.71
831.48	229.76
831.80	229.78
832.11	229.60
832.43	229.53
832.75	229.45
833.06	229.67
833.38	229.66
833.69	229.67
834.01	229.58
834.32	229.49
834.64	229.51
834.96	229.47
835.27	229.43
835.59	229.23
835.90	229.23
836.22	229.18
836.53	229.18
836.85	229.13
837.16	229.35
837.48	229.40
837.79	229.55
838.11	229.51
838.42	229.55
838.74	229.55
839.05	229.57
839.37	229.55
839.68	229.45
840.00	229.43
840.31	229.47
840.63	229.47
840.94	229.41
841.26	229.33
841.57	229.34
841.88	229.35
842.20	229.32
842.51	229.23
842.83	229.19
843.14	229.38
843.46	229.41
843.77	229.26
844.08	229.26
844.40	229.11
844.71	229.16
845.03	229.11
845.34	229.12
845.65	229.11
845.97	229.15
846.28	229.03
846.60	228.99
846.91	228.91
847.22	228.88
847.54	229.05
847.85	229.06
848.16	228.94
848.48	228.92
848.79	229.06
849.10	229.04
849.42	229.08
849.73	228.86
850.04	228.83
850.36	228.82
850.67	228.87
850.98	228.79
851.30	228.70
851.61	228.70
851.92	228.70
852.23	228.66
852.55	228.61
852.86	228.51
853.17	228.46
853.49	228.57
853.80	228.58
854.11	228.62
854.42	228.66
854.74	228.70
855.05	228.64
855.36	228.49
855.67	228.54
855.99	228.59
856.30	228.67
856.61	228.65
856.92	228.71
857.23	228.64
857.55	228.68
857.86	228.72
858.17	228.72
858.48	228.73
858.79	228.75
859.11	228.83
859.42	228.96
859.73	229.00
860.04	228.95
860.35	228.82
860.66	228.58
860.98	228.50
861.29	228.56
861.60	228.65
861.91	228.63
862.22	228.56
862.53	228.49
862.84	228.37
863.16	228.35
863.47	228.28
863.78	228.32
864.09	228.35
864.40	228.41
864.71	228.47
865.02	228.42
865.33	228.40
865.64	228.22
865.95	228.14
866.27	228.26
866.58	228.27
866.89	228.36
867.20	228.38
867.51	228.37
867.82	228.30
868.13	228.31
868.44	228.39
868.75	228.45
869.06	228.45
869.37	228.51
869.68	228.50
869.99	228.50
870.30	228.60
870.61	228.61
870.92	228.49
871.23	228.38
871.54	228.46
871.85	228.57
872.16	228.69
872.47	228.72
872.78	228.70
873.09	228.68
873.40	228.72
873.71	228.79
874.02	228.82
874.33	228.93
874.64	228.89
874.95	228.94
875.26	228.96
875.56	229.05
875.87	228.96
876.18	229.06
876.49	229.31
876.80	229.19
877.11	229.19
877.42	229.35
877.73	229.46
878.04	229.47
878.35	229.42
878.66	229.50
878.96	229.54
879.27	229.47
879.58	229.37
879.89	229.32
880.20	229.37
880.51	229.40
880.82	229.30
881.12	229.32
881.43	229.27
881.74	229.25
882.05	229.16
882.36	229.24
882.67	229.17
882.97	228.86
883.28	228.84
883.59	228.80
883.90	228.70
884.21	228.58
884.51	228.54
884.82	228.46
885.13	228.39
885.44	228.32
885.74	228.37
886.05	228.42
886.36	228.37
886.67	228.43
886.98	228.47
887.28	228.59
887.59	228.52
887.90	228.44
888.20	228.44
888.51	228.46
888.82	228.30
889.13	228.35
889.43	228.50
889.74	228.51
890.05	228.51
890.35	228.54
890.66	228.57
890.97	228.50
891.28	228.53
891.58	228.63
891.89	228.66
892.20	228.58
892.50	228.54
892.81	228.51
893.12	228.41
893.42	228.36
893.73	228.30
894.04	228.37
894.34	228.46
894.65	228.37
894.95	228.39
895.26	228.56
895.57	228.59
895.87	228.44
896.18	228.49
896.48	228.43
896.79	228.35
897.10	228.39
897.40	228.47
897.71	228.42
898.01	228.29
898.32	228.33
898.63	228.31
898.93	228.43
899.24	228.34
899.54	228.40
899.85	228.31
900.15	228.36
900.46	228.31
900.76	228.20
901.07	228.21
901.38	228.23
901.68	228.15
901.99	228.08
902.29	228.15
902.60	228.09
902.90	228.09
903.21	228.07
903.51	228.07
903.82	228.11
904.12	228.20
904.43	228.28
904.73	228.28
905.03	228.37
905.34	228.48
905.64	228.73
905.95	228.61
906.25	228.67
906.56	228.60
906.86	228.63
907.17	228.72
907.47	228.70
907.77	228.64
908.08	228.69
908.38	228.73
908.69	228.60
908.99	228.72
909.30	228.86
909.60	228.90
909.90	228.89
910.21	228.90
910.51	228.86
910.81	228.82
911.12	228.81
911.42	228.80
911.73	228.68
912.03	228.47
912.33	228.52
912.64	228.51
912.94	228.48
913.24	228.41
913.55	228.40
913.85	228.48
914.15	228.50
914.46	228.49
914.76	228.49
915.06	228.64
915.37	228.53
915.67	228.47
915.97	228.55
916.27	228.41
916.58	228.33
916.88	228.32
917.18	228.35
917.49	228.47
917.79	228.39
918.09	228.39
918.39	228.62
918.70	228.63
919.00	228.61
919.30	228.60
919.60	228.63
919.91	228.61
920.21	228.54
920.51	228.57
920.81	228.54
921.12	228.56
921.42	228.51
921.72	228.58
922.02	228.56
922.32	228.52
922.63	228.58
922.93	228.69
923.23	228.63
923.53	228.56
923.83	228.47
924.13	228.57
924.44	228.56
924.74	228.58
925.04	228.57
925.34	228.58
925.64	228.58
925.94	228.46
926.24	228.56
926.55	228.61
926.85	228.63
927.15	228.66
927.45	228.61
927.75	228.54
928.05	228.50
928.35	228.42
928.65	228.47
928.95	228.54
929.26	228.45
929.56	228.60
929.86	228.64
930.16	228.55
930.46	228.47
930.76	228.45
931.06	228.37
931.36	228.34
931.66	228.44
931.96	228.46
932.26	228.51
932.56	228.45
932.86	228.49
933.16	228.37
933.46	228.31
933.76	228.26
934.06	228.33
934.36	228.27
934.66	228.25
934.96	228.22
935.26	228.26
935.56	228.31
935.86	228.22
936.16	228.16
936.46	228.12
936.76	228.10
937.06	228.05
937.36	228.00
937.66	228.02
937.96	227.91
938.26	227.99
938.56	228.05
938.86	228.02
939.16	228.04
939.46	228.08
939.76	228.09
940.06	228.12
940.35	228.08
940.65	228.05
940.95	228.12
941.25	227.98
941.55	227.94
941.85	227.94
942.15	227.91
942.45	227.99
942.75	228.00
943.04	228.06
943.34	228.07
943.64	228.03
943.94	227.95
944.24	227.99
944.54	227.85
944.84	227.79
945.13	227.75
945.43	227.67
945.73	227.79
946.03	227.86
946.33	227.88
946.62	227.84
946.92	227.91
947.22	227.94
947.52	227.98
947.82	227.88
948.11	227.78
948.41	227.81
948.71	227.79
949.01	227.87
949.31	227.87
949.60	227.89
949.90	227.98
950.20	228.04
950.50	228.00
950.79	228.09
951.09	228.16
951.39	228.19
951.69	228.25
951.98	228.15
952.28	228.12
952.58	228.03
952.87	228.06
953.17	228.09
953.47	227.95
953.76	227.96
954.06	228.01
954.36	228.00
954.66	227.90
954.95	227.91
955.25	227.90
955.55	227.87
955.84	227.82
956.14	227.76
956.44	227.72
956.73	227.78
957.03	227.78
957.32	227.72
957.62	227.70
957.92	227.70
958.21	227.71
958.51	227.84
958.81	227.96
959.10	228.02
959.40	228.10
959.69	228.23
959.99	228.27
960.29	228.30
960.58	228.37
960.88	228.57
961.17	228.55
961.47	228.59
961.76	228.64
962.06	228.67
962.36	228.66
962.65	228.76
962.95	228.76
963.24	228.77
963.54	228.84
963.83	228.87
964.13	228.83
964.42	228.78
964.72	228.77
965.01	228.76
965.31	228.75
965.60	228.66
965.90	228.78
966.19	228.75
966.49	228.70
966.78	228.74
967.08	228.64
967.37	228.74
967.67	228.65
967.96	228.63
968.26	228.68
968.55	228.72
968.85	228.66
969.14	228.69
969.43	228.61
969.73	228.56
970.02	228.54
970.32	228.55
970.61	228.50
970.91	228.48
971.20	228.40
971.49	228.34
971.79	228.38
972.08	228.18
972.38	228.14
972.67	228.10
972.96	228.00
973.26	227.97
973.55	227.97
973.85	228.03
974.14	227.95
974.43	227.89
974.73	227.93
975.02	227.93
975.31	227.88
975.61	227.92
975.90	227.85
976.19	227.86
976.49	227.86
976.78	227.93
977.07	227.80
977.37	227.87
977.66	227.94
977.95	227.94
978.24	227.99
978.54	228.00
978.83	228.13
979.12	228.10
979.42	228.13
979.71	228.03
980.00	228.01
980.29	228.00
980.59	228.05
980.88	228.04
981.17	228.02
981.46	227.95
981.76	227.92
982.05	228.02
982.34	228.00
982.63	227.96
982.93	227.87
983.22	227.81
983.51	227.82
983.80	227.83
984.09	227.80
984.39	227.76
984.68	227.82
984.97	227.72
985.26	227.69
985.55	227.63
985.85	227.66
986.14	227.66
986.43	227.80
986.72	227.68
987.01	227.58
987.30	227.62
987.59	227.62
987.89	227.63
988.18	227.55
988.47	227.46
988.76	227.47
989.05	227.53
989.34	227.60
989.63	227.60
989.92	227.60
990.22	227.59
990.51	227.59
990.80	227.58
991.09	227.63
991.38	227.66
991.67	227.63
991.96	227.59
992.25	227.52
992.54	227.51
992.83	227.59
993.12	227.52
993.41	227.50
993.70	227.62
993.99	227.65
994.28	227.73
994.58	227.81
994.87	227.83
995.16	227.81
995.45	227.77
995.74	227.66
996.03	227.57
996.32	227.59
996.61	227.57
996.90	227.55
997.19	227.55
997.48	227.50
997.77	227.59
998.06	227.69
998.34	227.82
998.63	227.79
998.92	227.76
999.21	227.90
999.50	227.90
999.79	227.78
1000.08	227.81
1000.37	227.89
1000.66	227.88
1000.95	227.90
1001.24	227.90
1001.53	227.93
1001.82	228.00
1002.11	228.00
1002.40	228.04
1002.68	228.14
1002.97	228.22
1003.26	228.20
1003.55	228.31
1003.84	228.29
1004.13	228.35
1004.42	228.24
1004.71	228.20
1004.99	228.20
1005.28	228.14
1005.57	228.10
1005.86	228.22
1006.15	228.12
1006.44	227.99
1006.72	228.03
1007.01	228.07
1007.30	228.10
1007.59	228.17
1007.88	228.19
1008.17	228.15
1008.45	228.10
1008.74	228.11
1009.03	227.98
1009.32	227.95
1009.60	227.95
1009.89	227.89
1010.18	227.67
1010.47	227.67
1010.76	227.70
1011.04	227.80
1011.33	227.87
1011.62	227.97
1011.91	227.87
1012.19	227.88
1012.48	227.92
1012.77	227.88
1013.05	227.99
1013.34	228.02
1013.63	227.95
1013.92	227.90
1014.20	227.95
1014.49	227.96
1014.78	227.94
1015.06	228.00
1015.35	228.03
1015.64	228.06
1015.92	228.14
1016.21	228.21
1016.50	228.28
1016.78	228.39
1017.07	228.30
1017.36	228.22
1017.64	228.17
1017.93	228.22
1018.22	228.27
1018.50	228.25
1018.79	228.29
1019.08	228.13
1019.36	228.23
1019.65	228.26
1019.93	228.35
1020.22	228.41
1020.51	228.47
1020.79	228.50
1021.08	228.00
1021.36	227.70
1021.65	228.00
1021.94	228.00
1022.22	230.00
1022.51	228.40
1022.79	229.30
1023.08	229.10
1023.36	229.90
1023.65	228.90
>>>>>End Processed Spectral Data<<<<<
