SpectraSuite Data File
++++++++++++++++++++++++++++++++++++
Date: Fri Feb 01 14:37:54 EST 2013
User: group
Dark Spectrum Present: No
Reference Spectrum Present: No
Number of Sampled Component Spectra: 1
Spectrometers: USB2E7196
Integration Time (usec): 70000 (USB2E7196)
Spectra Averaged: 10 (USB2E7196)
Boxcar Smoothing: 10 (USB2E7196)
Correct for Electrical Dark: No (USB2E7196)
Strobe/Lamp Enabled: No (USB2E7196)
Correct for Detector Non-linearity: No (USB2E7196)
Correct for Stray Light: No (USB2E7196)
Number of Pixels in Processed Spectrum: 2048
>>>>>Begin Processed Spectral Data<<<<<
339.09	0.00
339.48	217.00
339.86	218.50
340.24	219.70
340.63	220.20
341.01	224.70
341.39	223.50
341.78	224.20
342.16	227.40
342.54	227.10
342.93	215.07
343.31	225.94
343.69	226.45
344.07	226.92
344.46	227.38
344.84	227.80
345.22	227.94
345.60	228.19
345.99	228.40
346.37	228.49
346.75	228.48
347.13	228.57
347.52	228.60
347.90	228.71
348.28	228.64
348.66	228.60
349.05	228.53
349.43	228.75
349.81	228.70
350.19	228.79
350.57	228.93
350.96	228.94
351.34	229.00
351.72	229.11
352.10	229.11
352.48	229.10
352.87	229.05
353.25	229.17
353.63	229.16
354.01	229.21
354.39	229.22
354.77	229.36
355.15	229.44
355.54	229.43
355.92	229.41
356.30	229.45
356.68	229.70
357.06	229.77
357.44	229.68
357.82	229.76
358.20	229.74
358.58	229.73
358.97	229.80
359.35	229.86
359.73	229.90
360.11	229.98
360.49	230.05
360.87	230.14
361.25	230.19
361.63	230.35
362.01	230.41
362.39	230.45
362.77	230.51
363.15	230.46
363.53	230.50
363.91	230.53
364.29	230.56
364.67	230.34
365.05	230.27
365.43	230.21
365.81	230.25
366.19	230.33
366.57	230.45
366.95	230.34
367.33	230.26
367.71	230.12
368.09	230.11
368.47	229.99
368.85	229.87
369.23	229.80
369.61	229.64
369.99	229.57
370.37	229.54
370.75	229.61
371.13	229.55
371.51	229.50
371.89	229.45
372.27	229.29
372.65	229.29
373.03	229.24
373.41	229.22
373.78	229.15
374.16	229.01
374.54	228.86
374.92	228.85
375.30	228.77
375.68	228.72
376.06	228.66
376.44	228.60
376.82	228.61
377.19	228.49
377.57	228.40
377.95	228.25
378.33	228.06
378.71	227.79
379.09	227.83
379.47	227.71
379.84	227.52
380.22	227.46
380.60	227.23
380.98	227.20
381.36	227.09
381.73	226.90
382.11	226.77
382.49	226.70
382.87	226.56
383.25	226.55
383.62	226.79
384.00	226.56
384.38	226.59
384.76	226.55
385.13	226.61
385.51	226.53
385.89	226.50
386.27	226.58
386.64	226.52
387.02	226.39
387.40	226.32
387.78	226.35
388.15	226.33
388.53	226.35
388.91	226.29
389.29	226.19
389.66	226.18
390.04	226.17
390.42	226.22
390.79	226.14
391.17	226.09
391.55	225.87
391.92	226.02
392.30	225.98
392.68	225.90
393.05	225.94
393.43	225.95
393.81	226.03
394.18	226.00
394.56	226.10
394.94	226.09
395.31	226.13
395.69	226.25
396.06	226.31
396.44	226.42
396.82	226.47
397.19	226.68
397.57	226.80
397.95	226.97
398.32	226.97
398.70	227.16
399.07	227.30
399.45	227.32
399.82	227.42
400.20	227.62
400.58	227.82
400.95	227.86
401.33	228.07
401.70	228.33
402.08	228.39
402.45	228.47
402.83	228.67
403.20	228.84
403.58	228.97
403.95	229.27
404.33	229.43
404.71	229.61
405.08	229.85
405.46	230.07
405.83	230.29
406.21	230.56
406.58	230.75
406.96	230.88
407.33	231.17
407.70	231.31
408.08	231.65
408.45	232.01
408.83	232.33
409.20	232.60
409.58	232.73
409.95	233.16
410.33	233.55
410.70	233.91
411.08	234.28
411.45	234.75
411.82	235.15
412.20	235.64
412.57	236.28
412.95	236.65
413.32	237.26
413.69	237.76
414.07	238.26
414.44	238.85
414.82	239.66
415.19	240.44
415.56	241.23
415.94	241.87
416.31	242.59
416.68	243.40
417.06	244.44
417.43	245.45
417.81	246.57
418.18	247.75
418.55	248.93
418.93	250.22
419.30	251.42
419.67	252.79
420.04	254.15
420.42	255.58
420.79	257.31
421.16	258.95
421.54	260.74
421.91	262.40
422.28	264.40
422.66	266.25
423.03	268.18
423.40	270.15
423.77	272.38
424.15	274.59
424.52	276.92
424.89	279.30
425.26	281.54
425.64	283.80
426.01	286.17
426.38	288.63
426.75	291.12
427.13	293.78
427.50	296.67
427.87	299.74
428.24	302.65
428.61	305.34
428.99	308.44
429.36	311.79
429.73	315.26
430.10	318.46
430.47	321.87
430.85	325.30
431.22	328.97
431.59	332.83
431.96	336.56
432.33	340.64
432.70	344.58
433.08	349.27
433.45	353.57
433.82	358.09
434.19	363.00
434.56	367.80
434.93	372.31
435.30	376.71
435.68	381.47
436.05	386.49
436.42	391.26
436.79	395.57
437.16	400.24
437.53	405.16
437.90	410.17
438.27	414.96
438.64	419.97
439.01	424.64
439.38	428.80
439.75	432.86
440.13	437.39
440.50	441.76
440.87	445.31
441.24	448.94
441.61	452.91
441.98	455.92
442.35	459.38
442.72	463.23
443.09	466.80
443.46	469.23
443.83	470.76
444.20	472.28
444.57	474.46
444.94	475.60
445.31	476.72
445.68	477.71
446.05	478.49
446.42	478.49
446.79	478.37
447.16	478.28
447.53	478.33
447.90	476.96
448.27	475.55
448.64	473.53
449.01	472.17
449.37	469.25
449.74	466.64
450.11	463.41
450.48	459.57
450.85	455.71
451.22	452.52
451.59	449.33
451.96	446.54
452.33	442.47
452.70	438.67
453.07	434.22
453.43	429.66
453.80	425.43
454.17	421.13
454.54	417.05
454.91	412.46
455.28	408.06
455.65	404.04
456.02	400.08
456.38	396.61
456.75	392.29
457.12	388.70
457.49	385.02
457.86	381.47
458.23	378.36
458.59	374.94
458.96	371.42
459.33	368.38
459.70	365.23
460.07	362.68
460.43	359.96
460.80	357.30
461.17	354.91
461.54	352.18
461.91	349.55
462.27	347.10
462.64	344.93
463.01	342.57
463.38	340.38
463.74	337.96
464.11	335.84
464.48	334.11
464.85	332.10
465.21	330.50
465.58	328.80
465.95	326.80
466.32	325.14
466.68	323.46
467.05	321.81
467.42	320.18
467.78	318.50
468.15	316.71
468.52	315.47
468.88	313.94
469.25	312.58
469.62	311.57
469.98	310.27
470.35	309.16
470.72	308.08
471.08	306.82
471.45	305.70
471.82	304.63
472.18	303.31
472.55	302.46
472.92	301.37
473.28	300.39
473.65	299.52
474.02	298.56
474.38	297.69
474.75	296.95
475.11	296.17
475.48	295.39
475.85	294.90
476.21	294.22
476.58	293.62
476.94	293.04
477.31	292.49
477.67	291.94
478.04	291.43
478.41	290.96
478.77	290.61
479.14	290.38
479.50	289.92
479.87	289.76
480.23	289.50
480.60	289.21
480.96	288.98
481.33	288.90
481.69	288.68
482.06	288.56
482.42	288.37
482.79	288.25
483.15	288.20
483.52	288.23
483.88	288.21
484.25	288.20
484.61	288.15
484.98	288.13
485.34	288.26
485.71	288.43
486.07	288.52
486.44	288.50
486.80	288.66
487.17	288.97
487.53	289.19
487.90	289.40
488.26	289.79
488.62	290.21
488.99	290.39
489.35	290.82
489.72	291.20
490.08	291.64
490.44	291.96
490.81	292.43
491.17	292.78
491.54	293.24
491.90	293.79
492.26	294.10
492.63	294.70
492.99	295.18
493.36	295.70
493.72	296.26
494.08	296.80
494.45	297.20
494.81	297.73
495.17	298.22
495.54	298.80
495.90	299.29
496.26	299.80
496.63	300.48
496.99	300.96
497.35	301.64
497.72	302.16
498.08	302.65
498.44	303.10
498.80	303.74
499.17	304.32
499.53	304.67
499.89	305.36
500.26	305.71
500.62	306.17
500.98	306.63
501.34	307.02
501.71	307.54
502.07	308.06
502.43	308.44
502.79	308.89
503.16	309.23
503.52	309.53
503.88	309.73
504.24	309.91
504.60	310.23
504.97	310.37
505.33	310.64
505.69	311.16
506.05	311.39
506.41	311.58
506.78	311.76
507.14	312.04
507.50	312.33
507.86	312.56
508.22	312.73
508.59	312.79
508.95	312.96
509.31	313.05
509.67	313.10
510.03	313.25
510.39	313.32
510.75	313.38
511.12	313.54
511.48	313.75
511.84	313.80
512.20	313.92
512.56	314.20
512.92	314.42
513.28	314.44
513.64	314.62
514.00	314.77
514.37	315.07
514.73	315.39
515.09	315.48
515.45	315.73
515.81	316.04
516.17	316.32
516.53	316.81
516.89	317.15
517.25	317.62
517.61	318.15
517.97	318.59
518.33	319.19
518.69	319.92
519.05	320.60
519.41	321.43
519.77	322.34
520.13	323.11
520.49	323.77
520.85	324.63
521.21	325.68
521.57	326.71
521.93	327.55
522.29	328.71
522.65	329.97
523.01	331.27
523.37	332.60
523.73	334.06
524.09	335.44
524.45	336.94
524.81	338.53
525.17	340.10
525.53	342.01
525.89	343.81
526.25	345.63
526.61	347.45
526.97	349.44
527.33	351.49
527.68	353.82
528.04	356.11
528.40	358.57
528.76	361.01
529.12	363.66
529.48	366.55
529.84	369.03
530.20	371.94
530.56	374.93
530.91	377.93
531.27	381.11
531.63	384.24
531.99	387.60
532.35	390.94
532.71	394.33
533.07	397.98
533.42	401.77
533.78	405.39
534.14	409.20
534.50	413.03
534.86	417.20
535.21	420.90
535.57	425.19
535.93	429.28
536.29	433.59
536.65	437.73
537.00	441.91
537.36	446.38
537.72	450.69
538.08	454.99
538.44	459.43
538.79	463.80
539.15	468.29
539.51	472.93
539.87	477.70
540.22	482.44
540.58	487.29
540.94	491.80
541.29	496.69
541.65	501.59
542.01	506.49
542.37	511.39
542.72	516.38
543.08	521.19
543.44	526.16
543.79	530.88
544.15	536.01
544.51	541.21
544.87	546.44
545.22	551.68
545.58	556.83
545.94	561.92
546.29	567.05
546.65	572.27
547.01	577.31
547.36	582.50
547.72	587.71
548.07	592.78
548.43	597.99
548.79	603.20
549.14	608.37
549.50	613.33
549.86	618.21
550.21	623.40
550.57	628.64
550.92	633.74
551.28	638.86
551.64	643.78
551.99	648.73
552.35	653.66
552.70	658.59
553.06	663.72
553.41	669.08
553.77	674.48
554.13	679.69
554.48	684.98
554.84	689.83
555.19	695.07
555.55	699.94
555.90	704.77
556.26	709.62
556.61	714.69
556.97	719.63
557.32	724.68
557.68	729.26
558.03	734.10
558.39	739.07
558.74	744.16
559.10	749.17
559.45	753.99
559.81	758.99
560.16	763.70
560.52	768.09
560.87	772.68
561.23	777.12
561.58	781.71
561.94	785.87
562.29	790.42
562.64	794.46
563.00	798.95
563.35	803.57
563.71	807.98
564.06	812.35
564.42	816.61
564.77	820.63
565.12	825.17
565.48	829.61
565.83	833.58
566.19	837.47
566.54	841.17
566.89	845.00
567.25	848.98
567.60	852.89
567.96	857.20
568.31	860.77
568.66	864.34
569.02	867.82
569.37	871.47
569.72	874.99
570.08	878.52
570.43	881.89
570.78	885.15
571.14	887.93
571.49	890.72
571.84	894.19
572.20	896.99
572.55	899.72
572.90	902.12
573.26	904.93
573.61	907.31
573.96	909.84
574.31	911.84
574.67	913.29
575.02	915.21
575.37	916.70
575.72	918.50
576.08	920.34
576.43	921.90
576.78	923.84
577.13	925.60
577.49	927.28
577.84	928.58
578.19	929.78
578.54	931.14
578.90	932.30
579.25	932.89
579.60	934.11
579.95	934.85
580.30	935.60
580.66	936.28
581.01	936.98
581.36	937.81
581.71	938.86
582.06	939.86
582.42	940.59
582.77	941.13
583.12	941.99
583.47	942.59
583.82	943.22
584.17	943.30
584.53	943.58
584.88	943.84
585.23	943.95
585.58	944.18
585.93	944.63
586.28	945.26
586.63	945.84
586.98	945.89
587.34	946.40
587.69	946.80
588.04	946.86
588.39	947.20
588.74	947.00
589.09	946.76
589.44	946.33
589.79	946.13
590.14	946.00
590.49	945.39
590.84	944.72
591.19	944.30
591.54	943.59
591.89	942.26
592.25	941.35
592.60	940.41
592.95	939.65
593.30	938.54
593.65	937.07
594.00	935.64
594.35	935.32
594.70	933.60
595.05	932.27
595.40	930.80
595.75	929.30
596.10	928.09
596.45	926.82
596.80	926.07
597.15	924.99
597.50	923.91
597.85	922.70
598.19	921.83
598.54	920.65
598.89	919.66
599.24	919.08
599.59	917.90
599.94	916.98
600.29	915.56
600.64	914.24
600.99	912.79
601.34	911.68
601.69	909.45
602.04	908.19
602.39	906.58
602.74	905.40
603.08	904.17
603.43	903.17
603.78	901.55
604.13	899.83
604.48	897.86
604.83	896.18
605.18	894.63
605.53	892.33
605.87	890.15
606.22	888.25
606.57	886.06
606.92	884.00
607.27	882.09
607.62	880.51
607.96	878.77
608.31	877.13
608.66	874.75
609.01	872.57
609.36	870.18
609.70	867.65
610.05	864.93
610.40	862.43
610.75	859.39
611.10	857.00
611.44	854.12
611.79	851.75
612.14	849.07
612.49	845.75
612.83	843.07
613.18	840.36
613.53	837.70
613.88	834.84
614.22	832.07
614.57	829.11
614.92	825.82
615.27	823.10
615.61	820.01
615.96	817.28
616.31	814.70
616.65	812.40
617.00	809.96
617.35	807.53
617.70	804.77
618.04	801.61
618.39	798.70
618.74	796.25
619.08	793.27
619.43	790.58
619.78	788.38
620.12	785.84
620.47	782.94
620.82	779.92
621.16	777.35
621.51	774.80
621.85	771.83
622.20	769.03
622.55	766.11
622.89	763.31
623.24	760.72
623.59	757.93
623.93	755.18
624.28	752.49
624.62	749.85
624.97	747.24
625.32	744.97
625.66	742.54
626.01	739.79
626.35	737.12
626.70	734.30
627.04	731.56
627.39	728.66
627.73	725.97
628.08	723.14
628.43	720.27
628.77	717.44
629.12	714.68
629.46	712.09
629.81	709.18
630.15	706.19
630.50	703.39
630.84	700.14
631.19	696.93
631.53	693.71
631.88	690.36
632.22	687.09
632.57	684.08
632.91	680.91
633.26	677.68
633.60	674.79
633.95	671.93
634.29	669.08
634.64	666.50
634.98	663.77
635.32	661.16
635.67	658.47
636.01	655.68
636.36	652.93
636.70	650.11
637.05	647.40
637.39	644.97
637.73	642.06
638.08	639.91
638.42	637.55
638.77	635.15
639.11	632.68
639.45	630.21
639.80	627.74
640.14	625.14
640.49	622.71
640.83	619.87
641.17	617.16
641.52	614.25
641.86	611.42
642.20	609.10
642.55	606.48
642.89	603.79
643.23	601.08
643.58	598.77
643.92	596.15
644.26	593.56
644.61	591.11
644.95	588.53
645.29	585.48
645.64	582.58
645.98	579.91
646.32	577.35
646.66	574.55
647.01	571.81
647.35	569.41
647.69	566.90
648.04	564.52
648.38	562.05
648.72	559.32
649.06	556.51
649.41	553.54
649.75	550.71
650.09	548.05
650.43	545.35
650.78	542.39
651.12	539.70
651.46	537.14
651.80	534.48
652.14	532.14
652.49	529.90
652.83	527.65
653.17	525.06
653.51	522.37
653.85	519.99
654.20	517.46
654.54	514.64
654.88	511.90
655.22	509.30
655.56	506.51
655.90	504.11
656.25	501.91
656.59	499.42
656.93	497.33
657.27	495.08
657.61	492.58
657.95	490.39
658.29	488.14
658.64	485.63
658.98	483.19
659.32	480.57
659.66	478.12
660.00	475.56
660.34	473.24
660.68	471.10
661.02	468.73
661.36	466.47
661.70	464.36
662.05	462.28
662.39	460.30
662.73	458.37
663.07	456.43
663.41	454.42
663.75	452.41
664.09	450.25
664.43	448.18
664.77	446.31
665.11	444.27
665.45	442.18
665.79	440.32
666.13	438.32
666.47	436.38
666.81	434.46
667.15	432.54
667.49	430.69
667.83	428.93
668.17	427.21
668.51	425.34
668.85	423.50
669.19	421.78
669.53	419.90
669.87	417.92
670.21	416.22
670.55	414.31
670.89	412.74
671.23	411.05
671.57	409.40
671.91	407.75
672.25	406.03
672.58	404.47
672.92	402.77
673.26	401.36
673.60	399.81
673.94	398.35
674.28	396.87
674.62	395.49
674.96	393.83
675.30	392.31
675.64	390.77
675.97	389.48
676.31	387.89
676.65	386.50
676.99	385.26
677.33	383.70
677.67	382.20
678.01	380.65
678.34	379.12
678.68	377.68
679.02	376.32
679.36	374.97
679.70	373.47
680.04	372.06
680.37	370.49
680.71	369.15
681.05	367.76
681.39	366.45
681.73	365.05
682.06	363.77
682.40	362.56
682.74	361.41
683.08	360.11
683.42	358.84
683.75	357.44
684.09	355.98
684.43	354.67
684.77	353.46
685.10	352.20
685.44	350.99
685.78	349.75
686.12	348.44
686.45	347.18
686.79	346.04
687.13	344.92
687.46	343.74
687.80	342.58
688.14	341.21
688.48	340.05
688.81	338.83
689.15	337.70
689.49	336.39
689.82	335.18
690.16	333.90
690.50	332.90
690.83	331.76
691.17	330.62
691.51	329.61
691.84	328.64
692.18	327.50
692.52	326.43
692.85	325.27
693.19	324.31
693.52	323.26
693.86	322.19
694.20	321.16
694.53	320.05
694.87	318.90
695.21	317.98
695.54	317.02
695.88	316.00
696.21	315.01
696.55	314.17
696.88	313.27
697.22	312.37
697.56	311.50
697.89	310.63
698.23	309.80
698.56	308.78
698.90	307.94
699.23	307.18
699.57	306.33
699.90	305.56
700.24	304.62
700.58	303.87
700.91	303.17
701.25	302.42
701.58	301.92
701.92	301.25
702.25	300.52
702.59	299.59
702.92	298.87
703.26	298.06
703.59	297.40
703.93	296.80
704.26	296.10
704.60	295.30
704.93	294.53
705.26	293.86
705.60	293.30
705.93	292.58
706.27	292.00
706.60	291.46
706.94	290.91
707.27	290.31
707.61	289.75
707.94	289.21
708.27	288.49
708.61	287.69
708.94	287.08
709.28	286.44
709.61	285.89
709.94	285.32
710.28	284.74
710.61	284.07
710.95	283.40
711.28	282.99
711.61	282.39
711.95	281.93
712.28	281.25
712.61	280.72
712.95	280.24
713.28	279.63
713.61	278.98
713.95	278.36
714.28	277.84
714.61	277.21
714.95	276.66
715.28	276.18
715.61	275.66
715.95	275.14
716.28	274.66
716.61	274.28
716.95	273.81
717.28	273.40
717.61	272.88
717.94	272.28
718.28	271.59
718.61	271.13
718.94	270.72
719.27	270.38
719.61	269.87
719.94	269.20
720.27	268.58
720.60	268.19
720.94	267.60
721.27	267.17
721.60	266.71
721.93	266.11
722.27	265.67
722.60	265.22
722.93	264.75
723.26	264.28
723.59	263.82
723.93	263.45
724.26	263.07
724.59	262.67
724.92	262.35
725.25	261.97
725.59	261.60
725.92	261.14
726.25	260.72
726.58	260.35
726.91	260.20
727.24	259.93
727.57	259.56
727.91	259.31
728.24	258.95
728.57	258.69
728.90	258.42
729.23	258.07
729.56	257.84
729.89	257.52
730.22	257.19
730.55	256.93
730.89	256.65
731.22	256.30
731.55	255.92
731.88	255.60
732.21	255.34
732.54	255.03
732.87	254.62
733.20	254.38
733.53	254.15
733.86	253.81
734.19	253.60
734.52	253.20
734.85	253.06
735.18	252.85
735.51	252.53
735.84	252.28
736.17	252.06
736.50	251.69
736.83	251.72
737.16	251.56
737.49	251.21
737.82	250.82
738.15	250.56
738.48	250.45
738.81	250.25
739.14	250.07
739.47	249.84
739.80	249.78
740.13	249.59
740.46	249.33
740.79	249.06
741.12	248.88
741.45	248.81
741.78	248.51
742.11	248.31
742.44	248.14
742.77	247.85
743.10	247.72
743.43	247.53
743.75	247.23
744.08	247.18
744.41	246.96
744.74	246.83
745.07	246.66
745.40	246.54
745.73	246.40
746.06	246.19
746.39	246.05
746.71	245.84
747.04	245.53
747.37	245.40
747.70	245.32
748.03	245.04
748.36	244.87
748.68	244.68
749.01	244.48
749.34	244.39
749.67	244.45
750.00	244.26
750.33	244.31
750.65	244.11
750.98	243.80
751.31	243.80
751.64	243.68
751.97	243.63
752.29	243.36
752.62	243.20
752.95	243.02
753.28	242.83
753.60	242.54
753.93	242.54
754.26	242.35
754.59	242.10
754.91	242.01
755.24	241.77
755.57	241.66
755.90	241.46
756.22	241.16
756.55	240.91
756.88	240.76
757.20	240.48
757.53	240.23
757.86	240.07
758.19	239.87
758.51	239.69
758.84	239.38
759.17	239.23
759.49	239.11
759.82	239.02
760.15	239.00
760.47	239.01
760.80	238.78
761.13	238.79
761.45	238.71
761.78	238.59
762.11	238.52
762.43	238.36
762.76	238.32
763.08	238.25
763.41	238.21
763.74	238.24
764.06	238.08
764.39	238.07
764.71	238.00
765.04	237.89
765.37	237.76
765.69	237.70
766.02	237.55
766.34	237.42
766.67	237.25
767.00	237.13
767.32	237.18
767.65	237.23
767.97	237.10
768.30	236.99
768.62	236.82
768.95	236.73
769.27	236.61
769.60	236.37
769.92	236.30
770.25	236.02
770.57	235.68
770.90	235.65
771.22	235.34
771.55	235.20
771.87	235.10
772.20	235.06
772.52	235.22
772.85	235.41
773.17	235.33
773.50	235.24
773.82	235.15
774.15	234.88
774.47	234.70
774.80	234.60
775.12	234.46
775.45	234.45
775.77	234.34
776.09	234.30
776.42	234.39
776.74	234.40
777.07	234.37
777.39	234.36
777.72	234.22
778.04	234.37
778.36	234.32
778.69	234.21
779.01	234.15
779.33	233.81
779.66	233.52
779.98	233.40
780.31	233.45
780.63	233.42
780.95	233.40
781.28	233.40
781.60	233.32
781.92	233.34
782.25	233.24
782.57	233.20
782.89	233.26
783.22	233.14
783.54	233.03
783.86	233.07
784.19	233.07
784.51	233.13
784.83	233.02
785.16	233.04
785.48	233.02
785.80	232.98
786.12	233.02
786.45	233.04
786.77	233.00
787.09	232.86
787.42	232.77
787.74	232.84
788.06	232.85
788.38	232.80
788.71	232.74
789.03	232.75
789.35	232.82
789.67	232.69
789.99	232.66
790.32	232.60
790.64	232.62
790.96	232.65
791.28	232.55
791.61	232.51
791.93	232.51
792.25	232.40
792.57	232.47
792.89	232.39
793.21	232.32
793.54	232.29
793.86	232.25
794.18	232.22
794.50	231.99
794.82	231.92
795.14	231.80
795.47	231.71
795.79	231.74
796.11	231.57
796.43	231.49
796.75	231.48
797.07	231.51
797.39	231.41
797.71	231.20
798.04	231.19
798.36	231.10
798.68	231.04
799.00	231.11
799.32	230.97
799.64	230.92
799.96	230.88
800.28	230.88
800.60	230.85
800.92	230.88
801.24	230.92
801.56	230.85
801.89	230.82
802.21	230.90
802.53	230.84
802.85	230.82
803.17	230.91
803.49	230.80
803.81	230.71
804.13	230.64
804.45	230.72
804.77	230.64
805.09	230.66
805.41	230.63
805.73	230.57
806.05	230.57
806.37	230.60
806.69	230.51
807.01	230.46
807.33	230.40
807.65	230.19
807.97	230.25
808.28	230.27
808.60	230.28
808.92	230.25
809.24	230.22
809.56	230.17
809.88	230.11
810.20	230.18
810.52	230.23
810.84	230.17
811.16	230.10
811.48	230.17
811.80	230.23
812.12	230.20
812.43	230.20
812.75	230.15
813.07	230.06
813.39	230.16
813.71	230.11
814.03	230.23
814.35	230.36
814.67	230.17
814.98	230.08
815.30	230.11
815.62	229.93
815.94	229.93
816.26	230.04
816.58	229.99
816.89	229.96
817.21	229.92
817.53	229.93
817.85	229.93
818.17	229.90
818.48	229.82
818.80	229.79
819.12	229.80
819.44	229.79
819.76	229.72
820.07	229.74
820.39	229.78
820.71	229.72
821.03	229.75
821.34	229.88
821.66	229.95
821.98	230.00
822.30	230.05
822.61	230.06
822.93	230.02
823.25	229.99
823.57	230.00
823.88	230.02
824.20	230.09
824.52	230.14
824.83	230.11
825.15	230.05
825.47	230.03
825.79	230.04
826.10	230.05
826.42	230.13
826.74	230.15
827.05	230.18
827.37	230.09
827.69	230.05
828.00	230.02
828.32	229.93
828.64	229.90
828.95	230.07
829.27	230.04
829.58	230.02
829.90	230.03
830.22	229.97
830.53	229.76
830.85	229.67
831.17	229.55
831.48	229.54
831.80	229.49
832.11	229.50
832.43	229.49
832.75	229.46
833.06	229.57
833.38	229.41
833.69	229.45
834.01	229.52
834.32	229.49
834.64	229.48
834.96	229.58
835.27	229.51
835.59	229.42
835.90	229.42
836.22	229.43
836.53	229.42
836.85	229.38
837.16	229.77
837.48	229.80
837.79	229.92
838.11	229.92
838.42	229.95
838.74	229.96
839.05	229.88
839.37	229.87
839.68	229.69
840.00	229.60
840.31	229.53
840.63	229.50
840.94	229.40
841.26	229.30
841.57	229.18
841.88	229.19
842.20	229.15
842.51	228.99
842.83	228.90
843.14	229.01
843.46	229.02
843.77	228.81
844.08	228.80
844.40	228.71
844.71	228.67
845.03	228.68
845.34	228.62
845.65	228.52
845.97	228.42
846.28	228.57
846.60	228.66
846.91	228.55
847.22	228.44
847.54	228.49
847.85	228.56
848.16	228.50
848.48	228.45
848.79	228.53
849.10	228.57
849.42	228.61
849.73	228.49
850.04	228.44
850.36	228.29
850.67	228.26
850.98	228.21
851.30	228.20
851.61	228.29
851.92	228.41
852.23	228.55
852.55	228.63
852.86	228.61
853.17	228.59
853.49	228.71
853.80	228.80
854.11	228.98
854.42	228.89
854.74	228.93
855.05	228.91
855.36	228.79
855.67	228.88
855.99	228.87
856.30	229.16
856.61	229.20
856.92	229.20
857.23	229.25
857.55	229.20
857.86	229.19
858.17	229.05
858.48	228.92
858.79	228.96
859.11	228.98
859.42	228.94
859.73	228.96
860.04	228.95
860.35	228.85
860.66	228.62
860.98	228.69
861.29	228.71
861.60	228.73
861.91	228.70
862.22	228.60
862.53	228.58
862.84	228.28
863.16	228.32
863.47	228.37
863.78	228.26
864.09	228.27
864.40	228.34
864.71	228.38
865.02	228.47
865.33	228.37
865.64	228.39
865.95	228.28
866.27	228.38
866.58	228.33
866.89	228.50
867.20	228.57
867.51	228.60
867.82	228.56
868.13	228.60
868.44	228.61
868.75	228.71
869.06	228.75
869.37	228.70
869.68	228.62
869.99	228.66
870.30	228.82
870.61	228.85
870.92	228.85
871.23	228.81
871.54	228.84
871.85	228.91
872.16	228.87
872.47	228.83
872.78	228.74
873.09	228.78
873.40	228.73
873.71	228.64
874.02	228.63
874.33	228.62
874.64	228.58
874.95	228.58
875.26	228.49
875.56	228.54
875.87	228.57
876.18	228.50
876.49	228.67
876.80	228.49
877.11	228.38
877.42	228.32
877.73	228.49
878.04	228.31
878.35	228.30
878.66	228.26
878.96	228.28
879.27	228.26
879.58	228.22
879.89	228.09
880.20	228.16
880.51	228.01
880.82	228.03
881.12	228.01
881.43	227.96
881.74	228.03
882.05	227.83
882.36	227.82
882.67	227.81
882.97	227.61
883.28	227.58
883.59	227.65
883.90	227.67
884.21	227.61
884.51	227.58
884.82	227.59
885.13	227.57
885.44	227.55
885.74	227.59
886.05	227.58
886.36	227.62
886.67	227.50
886.98	227.66
887.28	227.63
887.59	227.64
887.90	227.74
888.20	227.77
888.51	227.91
888.82	227.84
889.13	227.87
889.43	228.07
889.74	228.12
890.05	228.16
890.35	228.03
890.66	227.99
890.97	228.03
891.28	227.99
891.58	228.00
891.89	228.00
892.20	227.89
892.50	227.83
892.81	227.85
893.12	227.93
893.42	227.90
893.73	227.99
894.04	228.00
894.34	227.94
894.65	227.95
894.95	227.90
895.26	227.97
895.57	228.17
895.87	227.95
896.18	227.93
896.48	227.91
896.79	228.01
897.10	228.08
897.40	228.14
897.71	228.10
898.01	228.11
898.32	228.24
898.63	228.25
898.93	228.37
899.24	228.29
899.54	228.38
899.85	228.41
900.15	228.36
900.46	228.37
900.76	228.52
901.07	228.45
901.38	228.54
901.68	228.62
901.99	228.54
902.29	228.54
902.60	228.67
902.90	228.70
903.21	228.79
903.51	228.74
903.82	228.82
904.12	228.96
904.43	229.04
904.73	228.98
905.03	229.07
905.34	229.21
905.64	229.26
905.95	229.27
906.25	229.22
906.56	229.30
906.86	229.26
907.17	229.22
907.47	229.26
907.77	229.20
908.08	229.15
908.38	229.13
908.69	229.11
908.99	229.08
909.30	229.10
909.60	229.11
909.90	229.13
910.21	229.11
910.51	229.04
910.81	228.94
911.12	228.95
911.42	228.92
911.73	228.75
912.03	228.79
912.33	228.71
912.64	228.66
912.94	228.63
913.24	228.64
913.55	228.45
913.85	228.41
914.15	228.39
914.46	228.38
914.76	228.25
915.06	228.30
915.37	228.27
915.67	228.23
915.97	228.19
916.27	228.17
916.58	228.14
916.88	228.17
917.18	228.16
917.49	228.28
917.79	228.26
918.09	228.16
918.39	228.28
918.70	228.23
919.00	228.19
919.30	228.18
919.60	228.13
919.91	228.17
920.21	228.16
920.51	228.11
920.81	228.10
921.12	228.23
921.42	228.11
921.72	228.08
922.02	227.98
922.32	227.97
922.63	227.90
922.93	227.95
923.23	227.90
923.53	227.98
923.83	227.88
924.13	227.90
924.44	227.96
924.74	227.91
925.04	228.00
925.34	228.10
925.64	228.05
925.94	228.12
926.24	228.19
926.55	228.04
926.85	228.08
927.15	228.09
927.45	228.13
927.75	228.17
928.05	228.13
928.35	228.21
928.65	228.23
928.95	228.33
929.26	228.21
929.56	228.18
929.86	228.23
930.16	228.14
930.46	228.19
930.76	228.24
931.06	228.12
931.36	228.18
931.66	228.20
931.96	228.21
932.26	228.26
932.56	228.35
932.86	228.53
933.16	228.56
933.46	228.52
933.76	228.44
934.06	228.53
934.36	228.73
934.66	228.78
934.96	228.80
935.26	228.84
935.56	228.93
935.86	228.94
936.16	228.82
936.46	228.86
936.76	228.84
937.06	228.86
937.36	228.90
937.66	228.77
937.96	228.81
938.26	228.83
938.56	228.86
938.86	228.85
939.16	228.90
939.46	228.94
939.76	229.03
940.06	229.11
940.35	229.13
940.65	229.05
940.95	229.06
941.25	229.00
941.55	228.78
941.85	228.72
942.15	228.75
942.45	228.80
942.75	228.82
943.04	228.82
943.34	228.76
943.64	228.81
943.94	228.90
944.24	228.88
944.54	228.91
944.84	228.76
945.13	228.73
945.43	228.70
945.73	228.68
946.03	228.64
946.33	228.59
946.62	228.52
946.92	228.41
947.22	228.40
947.52	228.40
947.82	228.52
948.11	228.46
948.41	228.46
948.71	228.40
949.01	228.39
949.31	228.32
949.60	228.42
949.90	228.38
950.20	228.29
950.50	228.26
950.79	228.27
951.09	228.27
951.39	228.20
951.69	228.18
951.98	228.23
952.28	228.28
952.58	228.19
952.87	228.19
953.17	228.29
953.47	228.20
953.76	228.19
954.06	228.19
954.36	228.18
954.66	228.16
954.95	228.24
955.25	228.24
955.55	228.26
955.84	228.13
956.14	228.24
956.44	228.29
956.73	228.25
957.03	228.14
957.32	228.28
957.62	228.39
957.92	228.32
958.21	228.20
958.51	228.38
958.81	228.40
959.10	228.44
959.40	228.50
959.69	228.53
959.99	228.59
960.29	228.56
960.58	228.51
960.88	228.56
961.17	228.48
961.47	228.54
961.76	228.56
962.06	228.67
962.36	228.61
962.65	228.51
962.95	228.47
963.24	228.59
963.54	228.53
963.83	228.48
964.13	228.50
964.42	228.53
964.72	228.34
965.01	228.38
965.31	228.33
965.60	228.30
965.90	228.41
966.19	228.42
966.49	228.46
966.78	228.57
967.08	228.41
967.37	228.52
967.67	228.47
967.96	228.43
968.26	228.28
968.55	228.24
968.85	228.25
969.14	228.39
969.43	228.24
969.73	228.19
970.02	228.17
970.32	228.22
970.61	228.26
970.91	228.17
971.20	228.20
971.49	228.17
971.79	228.16
972.08	228.13
972.38	228.00
972.67	227.96
972.96	227.94
973.26	228.06
973.55	228.03
973.85	228.04
974.14	228.13
974.43	228.22
974.73	228.21
975.02	228.23
975.31	228.12
975.61	228.16
975.90	228.17
976.19	228.05
976.49	227.97
976.78	227.99
977.07	228.04
977.37	228.01
977.66	227.98
977.95	227.89
978.24	227.84
978.54	227.91
978.83	227.84
979.12	227.73
979.42	227.60
979.71	227.64
980.00	227.64
980.29	227.58
980.59	227.59
980.88	227.57
981.17	227.50
981.46	227.52
981.76	227.50
982.05	227.56
982.34	227.67
982.63	227.64
982.93	227.60
983.22	227.70
983.51	227.70
983.80	227.79
984.09	227.91
984.39	227.91
984.68	227.83
984.97	227.91
985.26	228.02
985.55	228.09
985.85	227.94
986.14	227.96
986.43	228.02
986.72	228.03
987.01	228.03
987.30	228.09
987.59	228.08
987.89	228.14
988.18	228.11
988.47	228.09
988.76	228.05
989.05	228.02
989.34	227.90
989.63	228.01
989.92	228.00
990.22	227.84
990.51	227.83
990.80	227.90
991.09	227.94
991.38	227.94
991.67	227.96
991.96	227.95
992.25	228.02
992.54	228.04
992.83	227.97
993.12	227.95
993.41	227.93
993.70	227.93
993.99	228.03
994.28	227.96
994.58	227.98
994.87	228.02
995.16	228.03
995.45	228.06
995.74	228.00
996.03	227.99
996.32	228.08
996.61	228.03
996.90	228.02
997.19	228.00
997.48	227.87
997.77	227.89
998.06	227.87
998.34	227.80
998.63	227.76
998.92	227.72
999.21	227.76
999.50	227.84
999.79	227.86
1000.08	227.72
1000.37	227.78
1000.66	227.78
1000.95	227.80
1001.24	227.81
1001.53	227.89
1001.82	227.85
1002.11	227.85
1002.40	227.84
1002.68	227.96
1002.97	228.11
1003.26	228.17
1003.55	228.20
1003.84	228.23
1004.13	228.43
1004.42	228.40
1004.71	228.39
1004.99	228.44
1005.28	228.50
1005.57	228.47
1005.86	228.45
1006.15	228.54
1006.44	228.54
1006.72	228.52
1007.01	228.64
1007.30	228.67
1007.59	228.63
1007.88	228.67
1008.17	228.68
1008.45	228.69
1008.74	228.67
1009.03	228.63
1009.32	228.62
1009.60	228.75
1009.89	228.70
1010.18	228.65
1010.47	228.65
1010.76	228.66
1011.04	228.68
1011.33	228.62
1011.62	228.58
1011.91	228.66
1012.19	228.65
1012.48	228.55
1012.77	228.64
1013.05	228.69
1013.34	228.62
1013.63	228.65
1013.92	228.61
1014.20	228.59
1014.49	228.63
1014.78	228.58
1015.06	228.50
1015.35	228.44
1015.64	228.37
1015.92	228.42
1016.21	228.36
1016.50	228.29
1016.78	228.33
1017.07	228.43
1017.36	228.46
1017.64	228.51
1017.93	228.47
1018.22	228.42
1018.50	228.48
1018.79	228.40
1019.08	228.22
1019.36	228.23
1019.65	228.13
1019.93	228.20
1020.22	228.28
1020.51	228.21
1020.79	228.21
1021.08	228.00
1021.36	227.10
1021.65	228.40
1021.94	226.90
1022.22	227.80
1022.51	227.30
1022.79	229.90
1023.08	229.00
1023.36	227.80
1023.65	227.80
>>>>>End Processed Spectral Data<<<<<
