SpectraSuite Data File
++++++++++++++++++++++++++++++++++++
Date: Fri Feb 01 14:36:31 EST 2013
User: group
Dark Spectrum Present: No
Reference Spectrum Present: No
Number of Sampled Component Spectra: 1
Spectrometers: USB2E7196
Integration Time (usec): 70000 (USB2E7196)
Spectra Averaged: 10 (USB2E7196)
Boxcar Smoothing: 10 (USB2E7196)
Correct for Electrical Dark: No (USB2E7196)
Strobe/Lamp Enabled: No (USB2E7196)
Correct for Detector Non-linearity: No (USB2E7196)
Correct for Stray Light: No (USB2E7196)
Number of Pixels in Processed Spectrum: 2048
>>>>>Begin Processed Spectral Data<<<<<
339.09	0.00
339.48	214.50
339.86	219.30
340.24	219.50
340.63	221.30
341.01	225.00
341.39	223.50
341.78	224.80
342.16	226.90
342.54	227.20
342.93	214.90
343.31	225.76
343.69	226.50
344.07	226.95
344.46	227.45
344.84	227.82
345.22	228.00
345.60	228.22
345.99	228.37
346.37	228.48
346.75	228.57
347.13	228.68
347.52	228.71
347.90	228.76
348.28	228.79
348.66	228.81
349.05	228.78
349.43	228.92
349.81	229.01
350.19	229.00
350.57	229.10
350.96	229.21
351.34	229.29
351.72	229.29
352.10	229.34
352.48	229.36
352.87	229.43
353.25	229.44
353.63	229.53
354.01	229.66
354.39	229.72
354.77	229.75
355.15	229.91
355.54	230.02
355.92	230.12
356.30	230.26
356.68	230.50
357.06	230.51
357.44	230.42
357.82	230.41
358.20	230.53
358.58	230.54
358.97	230.59
359.35	230.66
359.73	230.71
360.11	230.73
360.49	230.73
360.87	230.71
361.25	230.76
361.63	230.88
362.01	230.91
362.39	230.89
362.77	230.95
363.15	230.94
363.53	230.96
363.91	230.98
364.29	230.96
364.67	230.69
365.05	230.70
365.43	230.79
365.81	230.88
366.19	230.90
366.57	230.95
366.95	230.93
367.33	230.87
367.71	230.98
368.09	230.90
368.47	230.83
368.85	230.81
369.23	230.84
369.61	230.67
369.99	230.65
370.37	230.60
370.75	230.70
371.13	230.55
371.51	230.50
371.89	230.43
372.27	230.37
372.65	230.42
373.03	230.28
373.41	230.13
373.78	229.94
374.16	229.74
374.54	229.61
374.92	229.50
375.30	229.36
375.68	229.06
376.06	229.14
376.44	229.08
376.82	228.97
377.19	228.87
377.57	228.79
377.95	228.56
378.33	228.45
378.71	228.17
379.09	228.14
379.47	228.05
379.84	227.91
380.22	227.80
380.60	227.60
380.98	227.65
381.36	227.52
381.73	227.38
382.11	227.32
382.49	227.29
382.87	227.20
383.25	227.20
383.62	227.35
384.00	227.20
384.38	227.14
384.76	227.13
385.13	227.09
385.51	226.96
385.89	227.01
386.27	227.02
386.64	226.96
387.02	226.87
387.40	226.82
387.78	226.79
388.15	226.74
388.53	226.77
388.91	226.65
389.29	226.64
389.66	226.70
390.04	226.62
390.42	226.54
390.79	226.56
391.17	226.58
391.55	226.52
391.92	226.43
392.30	226.47
392.68	226.38
393.05	226.40
393.43	226.52
393.81	226.58
394.18	226.64
394.56	226.63
394.94	226.67
395.31	226.76
395.69	226.89
396.06	226.98
396.44	226.99
396.82	226.99
397.19	227.13
397.57	227.22
397.95	227.47
398.32	227.50
398.70	227.60
399.07	227.71
399.45	227.65
399.82	227.82
400.20	227.99
400.58	228.21
400.95	228.33
401.33	228.47
401.70	228.71
402.08	228.82
402.45	229.00
402.83	229.16
403.20	229.25
403.58	229.40
403.95	229.59
404.33	229.89
404.71	230.21
405.08	230.55
405.46	230.76
405.83	230.94
406.21	231.22
406.58	231.53
406.96	231.72
407.33	232.06
407.70	232.40
408.08	232.86
408.45	233.18
408.83	233.49
409.20	233.85
409.58	234.14
409.95	234.58
410.33	235.14
410.70	235.59
411.08	236.17
411.45	236.65
411.82	237.24
412.20	237.89
412.57	238.69
412.95	239.23
413.32	239.98
413.69	240.78
414.07	241.65
414.44	242.56
414.82	243.50
415.19	244.55
415.56	245.62
415.94	246.62
416.31	247.87
416.68	249.08
417.06	250.51
417.43	251.86
417.81	253.42
418.18	255.01
418.55	256.80
418.93	258.52
419.30	260.40
419.67	262.26
420.04	264.24
420.42	266.27
420.79	268.68
421.16	271.05
421.54	273.50
421.91	275.99
422.28	278.64
422.66	281.42
423.03	284.19
423.40	286.98
423.77	290.02
424.15	293.00
424.52	296.30
424.89	299.80
425.26	303.00
425.64	306.18
426.01	309.70
426.38	313.19
426.75	316.89
427.13	320.69
427.50	324.69
427.87	328.97
428.24	333.11
428.61	336.95
428.99	341.34
429.36	346.13
429.73	350.92
430.10	355.49
430.47	360.26
430.85	365.35
431.22	370.64
431.59	376.10
431.96	381.52
432.33	387.38
432.70	392.96
433.08	399.73
433.45	405.98
433.82	412.24
434.19	419.35
434.56	426.10
434.93	432.57
435.30	439.07
435.68	446.03
436.05	452.91
436.42	460.05
436.79	466.49
437.16	473.13
437.53	480.29
437.90	487.51
438.27	494.54
438.64	501.59
439.01	508.20
439.38	514.23
439.75	520.18
440.13	526.73
440.50	533.09
440.87	538.40
441.24	543.77
441.61	549.63
441.98	553.90
442.35	558.98
442.72	564.24
443.09	569.41
443.46	572.80
443.83	575.26
444.20	577.33
444.57	580.38
444.94	582.33
445.31	584.20
445.68	585.87
446.05	586.98
446.42	587.07
446.79	587.16
447.16	587.05
447.53	587.02
447.90	585.17
448.27	583.34
448.64	580.32
449.01	578.64
449.37	574.65
449.74	570.93
450.11	566.40
450.48	561.29
450.85	555.95
451.22	551.23
451.59	546.93
451.96	542.97
452.33	537.04
452.70	531.80
453.07	525.30
453.43	518.94
453.80	512.77
454.17	506.70
454.54	500.99
454.91	494.78
455.28	488.62
455.65	483.00
456.02	477.17
456.38	472.26
456.75	465.98
457.12	460.79
457.49	455.55
457.86	450.52
458.23	446.12
458.59	441.24
458.96	436.39
459.33	432.09
459.70	427.67
460.07	424.32
460.43	420.24
460.80	416.40
461.17	412.89
461.54	409.20
461.91	405.91
462.27	402.30
462.64	399.30
463.01	395.95
463.38	392.77
463.74	389.56
464.11	386.65
464.48	384.10
464.85	381.39
465.21	379.28
465.58	377.05
465.95	374.44
466.32	372.24
466.68	370.05
467.05	367.66
467.42	365.43
467.78	362.91
468.15	360.59
468.52	358.96
468.88	356.82
469.25	354.87
469.62	353.13
469.98	351.50
470.35	349.90
470.72	348.48
471.08	346.64
471.45	345.13
471.82	343.70
472.18	342.01
472.55	340.65
472.92	339.24
473.28	337.95
473.65	336.57
474.02	335.31
474.38	334.28
474.75	333.49
475.11	332.39
475.48	331.51
475.85	330.77
476.21	329.90
476.58	329.26
476.94	328.71
477.31	328.00
477.67	327.26
478.04	326.69
478.41	326.09
478.77	325.98
479.14	325.50
479.50	325.19
479.87	324.88
480.23	324.77
480.60	324.53
480.96	324.32
481.33	324.39
481.69	324.54
482.06	324.42
482.42	324.20
482.79	324.16
483.15	324.28
483.52	324.58
483.88	324.73
484.25	324.82
484.61	325.07
484.98	325.33
485.34	325.84
485.71	326.19
486.07	326.74
486.44	326.98
486.80	327.62
487.17	328.10
487.53	328.85
487.90	329.62
488.26	330.39
488.62	331.05
488.99	331.70
489.35	332.22
489.72	333.07
490.08	334.10
490.44	334.95
490.81	336.02
491.17	336.88
491.54	337.81
491.90	338.78
492.26	339.90
492.63	341.06
492.99	342.07
493.36	343.13
493.72	344.38
494.08	345.63
494.45	346.98
494.81	348.34
495.17	349.67
495.54	350.94
495.90	352.31
496.26	353.66
496.63	355.08
496.99	356.58
497.35	358.11
497.72	359.38
498.08	360.90
498.44	362.27
498.80	363.79
499.17	365.12
499.53	366.58
499.89	367.94
500.26	369.30
500.62	370.67
500.98	372.12
501.34	373.43
501.71	374.93
502.07	376.10
502.43	377.43
502.79	378.77
503.16	380.08
503.52	381.30
503.88	382.50
504.24	383.66
504.60	384.85
504.97	385.78
505.33	387.04
505.69	388.30
506.05	389.43
506.41	390.25
506.78	391.27
507.14	392.32
507.50	393.18
507.86	394.19
508.22	395.03
508.59	395.83
508.95	396.58
509.31	397.13
509.67	397.92
510.03	398.55
510.39	399.20
510.75	399.64
511.12	400.09
511.48	400.63
511.84	401.12
512.20	401.51
512.56	402.01
512.92	402.44
513.28	402.68
513.64	402.74
514.00	403.06
514.37	403.36
514.73	403.50
515.09	403.84
515.45	403.89
515.81	404.09
516.17	404.15
516.53	404.34
516.89	404.44
517.25	404.59
517.61	404.64
517.97	404.61
518.33	404.88
518.69	405.00
519.05	405.13
519.41	405.25
519.77	405.57
520.13	405.77
520.49	405.86
520.85	406.03
521.21	406.57
521.57	406.90
521.93	407.29
522.29	407.75
522.65	408.04
523.01	408.45
523.37	408.59
523.73	409.00
524.09	409.46
524.45	410.01
524.81	410.48
525.17	411.16
525.53	411.84
525.89	412.53
526.25	413.48
526.61	414.20
526.97	415.23
527.33	415.99
527.68	417.26
528.04	418.22
528.40	419.40
528.76	420.55
529.12	421.77
529.48	423.09
529.84	424.25
530.20	425.61
530.56	427.30
530.91	429.22
531.27	431.07
531.63	432.73
531.99	434.73
532.35	436.60
532.71	438.55
533.07	440.57
533.42	442.82
533.78	444.88
534.14	447.30
534.50	449.60
534.86	451.99
535.21	454.18
535.57	456.91
535.93	459.38
536.29	462.10
536.65	464.90
537.00	467.66
537.36	470.70
537.72	473.71
538.08	476.63
538.44	479.56
538.79	482.60
539.15	485.81
539.51	488.87
539.87	492.29
540.22	495.58
540.58	499.24
540.94	502.68
541.29	506.23
541.65	509.60
542.01	513.38
542.37	517.19
542.72	520.70
543.08	524.38
543.44	528.24
543.79	531.79
544.15	535.70
544.51	539.65
544.87	543.33
545.22	547.13
545.58	550.94
545.94	555.05
546.29	559.14
546.65	562.92
547.01	566.74
547.36	570.49
547.72	574.46
548.07	578.33
548.43	582.15
548.79	586.14
549.14	590.10
549.50	593.86
549.86	597.58
550.21	601.94
550.57	606.06
550.92	610.09
551.28	614.30
551.64	618.26
551.99	622.38
552.35	626.60
552.70	630.80
553.06	635.08
553.41	639.14
553.77	643.31
554.13	647.52
554.48	651.79
554.84	655.88
555.19	659.99
555.55	664.15
555.90	668.27
556.26	672.15
556.61	676.38
556.97	680.49
557.32	684.91
557.68	688.79
558.03	692.63
558.39	696.64
558.74	700.78
559.10	704.88
559.45	708.74
559.81	712.74
560.16	716.67
560.52	720.63
560.87	724.78
561.23	728.43
561.58	732.70
561.94	736.60
562.29	740.54
562.64	744.34
563.00	748.08
563.35	751.95
563.71	756.00
564.06	759.76
564.42	763.40
564.77	766.91
565.12	770.65
565.48	774.66
565.83	778.20
566.19	781.59
566.54	785.10
566.89	788.47
567.25	792.04
567.60	795.64
567.96	799.02
568.31	802.09
568.66	805.45
569.02	808.43
569.37	811.30
569.72	814.46
570.08	817.49
570.43	820.34
570.78	822.91
571.14	825.55
571.49	828.11
571.84	830.94
572.20	833.54
572.55	836.02
572.90	838.09
573.26	840.79
573.61	842.88
573.96	845.03
574.31	847.32
574.67	849.05
575.02	850.63
575.37	852.19
575.72	853.65
576.08	855.10
576.43	856.75
576.78	858.24
577.13	859.87
577.49	861.29
577.84	862.81
578.19	864.12
578.54	865.42
578.90	866.60
579.25	867.39
579.60	868.33
579.95	869.13
580.30	869.89
580.66	870.17
581.01	870.84
581.36	871.35
581.71	871.99
582.06	872.74
582.42	873.36
582.77	873.99
583.12	874.77
583.47	875.38
583.82	875.92
584.17	876.53
584.53	876.56
584.88	876.88
585.23	876.94
585.58	877.43
585.93	877.26
586.28	877.90
586.63	878.09
586.98	878.29
587.34	878.40
587.69	878.41
588.04	878.44
588.39	878.83
588.74	878.36
589.09	878.20
589.44	877.57
589.79	877.41
590.14	877.23
590.49	876.67
590.84	876.20
591.19	875.67
591.54	874.75
591.89	874.07
592.25	873.51
592.60	872.50
592.95	871.38
593.30	870.80
593.65	869.58
594.00	868.50
594.35	867.89
594.70	866.54
595.05	865.51
595.40	864.60
595.75	863.06
596.10	862.36
596.45	861.22
596.80	860.45
597.15	859.19
597.50	858.01
597.85	856.96
598.19	856.32
598.54	854.98
598.89	854.00
599.24	853.17
599.59	851.64
599.94	850.75
600.29	849.50
600.64	848.07
600.99	846.50
601.34	845.29
601.69	843.15
602.04	842.00
602.39	840.81
602.74	839.36
603.08	838.21
603.43	836.93
603.78	835.27
604.13	833.72
604.48	832.07
604.83	830.51
605.18	829.02
605.53	826.55
605.87	824.60
606.22	822.94
606.57	821.03
606.92	819.49
607.27	817.71
607.62	816.20
607.96	814.52
608.31	812.75
608.66	810.80
609.01	809.07
609.36	806.90
609.70	804.50
610.05	802.06
610.40	799.87
610.75	797.59
611.10	795.24
611.44	792.60
611.79	790.36
612.14	787.95
612.49	785.28
612.83	782.93
613.18	780.47
613.53	778.02
613.88	775.26
614.22	772.56
614.57	769.54
614.92	766.75
615.27	764.16
615.61	761.30
615.96	758.77
616.31	756.28
616.65	754.22
617.00	751.89
617.35	749.66
617.70	746.80
618.04	743.78
618.39	741.32
618.74	738.87
619.08	736.28
619.43	733.59
619.78	731.01
620.12	728.86
620.47	726.47
620.82	723.86
621.16	721.47
621.51	719.27
621.85	717.15
622.20	714.46
622.55	711.87
622.89	709.51
623.24	707.11
623.59	704.79
623.93	702.16
624.28	699.60
624.62	697.21
624.97	695.12
625.32	693.21
625.66	690.95
626.01	688.71
626.35	686.35
626.70	683.85
627.04	681.69
627.39	678.93
627.73	676.58
628.08	674.11
628.43	671.38
628.77	668.58
629.12	665.99
629.46	663.66
629.81	660.81
630.15	658.16
630.50	655.49
630.84	652.64
631.19	649.74
631.53	647.16
631.88	644.05
632.22	641.12
632.57	638.49
632.91	635.69
633.26	633.04
633.60	630.18
633.95	627.63
634.29	624.94
634.64	622.46
634.98	619.69
635.32	617.17
635.67	614.96
636.01	612.50
636.36	609.86
636.70	607.40
637.05	605.47
637.39	603.19
637.73	600.85
638.08	598.64
638.42	596.64
638.77	594.36
639.11	592.24
639.45	589.81
639.80	587.15
640.14	584.79
640.49	582.37
640.83	580.14
641.17	577.86
641.52	575.48
641.86	573.10
642.20	570.92
642.55	568.56
642.89	565.95
643.23	563.60
643.58	561.66
643.92	559.33
644.26	556.84
644.61	554.64
644.95	552.31
645.29	549.70
645.64	547.03
645.98	544.72
646.32	542.42
646.66	539.94
647.01	537.78
647.35	535.44
647.69	533.12
648.04	531.02
648.38	528.50
648.72	525.93
649.06	523.48
649.41	520.94
649.75	518.64
650.09	516.46
650.43	514.03
650.78	511.29
651.12	508.78
651.46	506.48
651.80	504.23
652.14	501.89
652.49	499.69
652.83	497.51
653.17	495.05
653.51	492.71
653.85	490.76
654.20	488.40
654.54	485.93
654.88	483.59
655.22	481.04
655.56	478.76
655.90	476.57
656.25	474.36
656.59	472.19
656.93	470.00
657.27	467.88
657.61	465.63
657.95	463.70
658.29	461.56
658.64	459.38
658.98	457.04
659.32	454.80
659.66	452.60
660.00	450.30
660.34	448.19
660.68	446.06
661.02	443.95
661.36	441.89
661.70	440.04
662.05	438.21
662.39	436.48
662.73	434.60
663.07	432.83
663.41	430.96
663.75	429.22
664.09	427.36
664.43	425.53
664.77	423.64
665.11	421.72
665.45	420.24
665.79	418.52
666.13	416.83
666.47	415.18
666.81	413.58
667.15	411.95
667.49	410.27
667.83	408.87
668.17	407.20
668.51	405.61
668.85	403.97
669.19	402.49
669.53	400.80
669.87	399.18
670.21	397.49
670.55	395.98
670.89	394.51
671.23	393.10
671.57	391.67
671.91	390.41
672.25	388.93
672.58	387.36
672.92	385.88
673.26	384.47
673.60	383.02
673.94	381.71
674.28	380.56
674.62	379.42
674.96	377.99
675.30	376.87
675.64	375.61
675.97	374.41
676.31	372.93
676.65	371.74
676.99	370.63
677.33	369.32
677.67	368.12
678.01	366.66
678.34	365.38
678.68	364.08
679.02	362.89
679.36	361.79
679.70	360.48
680.04	359.24
680.37	358.04
680.71	356.79
681.05	355.68
681.39	354.52
681.73	353.22
682.06	352.23
682.40	351.07
682.74	349.91
683.08	348.83
683.42	347.66
683.75	346.50
684.09	345.30
684.43	344.26
684.77	343.15
685.10	342.16
685.44	341.01
685.78	339.96
686.12	338.95
686.45	337.76
686.79	336.78
687.13	335.80
687.46	334.71
687.80	333.62
688.14	332.43
688.48	331.24
688.81	330.19
689.15	328.97
689.49	327.63
689.82	326.47
690.16	325.35
690.50	324.46
690.83	323.48
691.17	322.38
691.51	321.53
691.84	320.60
692.18	319.61
692.52	318.62
692.85	317.60
693.19	316.53
693.52	315.57
693.86	314.47
694.20	313.45
694.53	312.48
694.87	311.69
695.21	310.86
695.54	309.94
695.88	308.87
696.21	307.90
696.55	307.16
696.88	306.38
697.22	305.54
697.56	304.65
697.89	303.69
698.23	302.87
698.56	301.92
698.90	301.00
699.23	300.09
699.57	299.29
699.90	298.41
700.24	297.53
700.58	296.74
700.91	296.09
701.25	295.49
701.58	294.96
701.92	294.26
702.25	293.41
702.59	292.69
702.92	292.16
703.26	291.48
703.59	290.83
703.93	290.35
704.26	289.81
704.60	289.24
704.93	288.66
705.26	288.20
705.60	287.63
705.93	287.09
706.27	286.56
706.60	286.02
706.94	285.54
707.27	285.09
707.61	284.49
707.94	283.91
708.27	283.27
708.61	282.69
708.94	282.15
709.28	281.68
709.61	281.22
709.94	280.74
710.28	280.27
710.61	279.80
710.95	279.10
711.28	278.58
711.61	277.98
711.95	277.49
712.28	276.87
712.61	276.38
712.95	275.86
713.28	275.51
713.61	274.96
713.95	274.39
714.28	273.88
714.61	273.52
714.95	273.10
715.28	272.59
715.61	272.02
715.95	271.52
716.28	271.03
716.61	270.65
716.95	270.23
717.28	269.94
717.61	269.40
717.94	269.00
718.28	268.55
718.61	268.15
718.94	267.72
719.27	267.45
719.61	266.99
719.94	266.70
720.27	266.20
720.60	265.90
720.94	265.57
721.27	265.28
721.60	265.01
721.93	264.65
722.27	264.37
722.60	264.12
722.93	263.75
723.26	263.46
723.59	262.99
723.93	262.57
724.26	262.09
724.59	261.68
724.92	261.35
725.25	260.99
725.59	260.63
725.92	260.34
726.25	259.90
726.58	259.72
726.91	259.32
727.24	259.01
727.57	258.76
727.91	258.37
728.24	258.01
728.57	257.56
728.90	257.25
729.23	256.84
729.56	256.60
729.89	256.34
730.22	256.05
730.55	255.81
730.89	255.51
731.22	255.26
731.55	255.02
731.88	254.69
732.21	254.36
732.54	254.02
732.87	253.71
733.20	253.44
733.53	253.02
733.86	252.69
734.19	252.32
734.52	251.94
734.85	251.86
735.18	251.57
735.51	251.34
735.84	251.08
736.17	250.87
736.50	250.52
736.83	250.42
737.16	250.14
737.49	249.90
737.82	249.67
738.15	249.52
738.48	249.30
738.81	249.06
739.14	248.89
739.47	248.65
739.80	248.50
740.13	248.26
740.46	248.08
740.79	247.87
741.12	247.75
741.45	247.51
741.78	247.20
742.11	246.92
742.44	246.73
742.77	246.58
743.10	246.39
743.43	246.10
743.75	245.73
744.08	245.72
744.41	245.47
744.74	245.29
745.07	244.90
745.40	244.76
745.73	244.70
746.06	244.48
746.39	244.35
746.71	244.12
747.04	243.97
747.37	243.80
747.70	243.74
748.03	243.55
748.36	243.43
748.68	243.29
749.01	243.16
749.34	242.94
749.67	242.82
750.00	242.63
750.33	242.58
750.65	242.46
750.98	242.08
751.31	241.96
751.64	241.80
751.97	241.84
752.29	241.67
752.62	241.34
752.95	241.11
753.28	241.06
753.60	240.88
753.93	240.70
754.26	240.55
754.59	240.38
754.91	240.30
755.24	240.08
755.57	240.01
755.90	239.96
756.22	239.85
756.55	239.62
756.88	239.57
757.20	239.44
757.53	239.36
757.86	239.29
758.19	239.19
758.51	239.08
758.84	238.90
759.17	238.78
759.49	238.68
759.82	238.72
760.15	238.60
760.47	238.46
760.80	238.42
761.13	238.43
761.45	238.30
761.78	238.14
762.11	238.17
762.43	238.04
762.76	237.88
763.08	237.85
763.41	237.84
763.74	237.66
764.06	237.51
764.39	237.43
764.71	237.29
765.04	237.13
765.37	237.06
765.69	236.98
766.02	236.90
766.34	236.86
766.67	236.76
767.00	236.66
767.32	236.60
767.65	236.51
767.97	236.44
768.30	236.32
768.62	236.26
768.95	236.01
769.27	235.90
769.60	235.89
769.92	235.83
770.25	235.64
770.57	235.54
770.90	235.43
771.22	235.23
771.55	235.09
771.87	235.06
772.20	234.90
772.52	235.01
772.85	235.16
773.17	235.08
773.50	234.96
773.82	234.85
774.15	234.81
774.47	234.57
774.80	234.39
775.12	234.44
775.45	234.37
775.77	234.26
776.09	234.15
776.42	234.02
776.74	233.99
777.07	233.89
777.39	233.78
777.72	233.63
778.04	233.66
778.36	233.65
778.69	233.63
779.01	233.68
779.33	233.39
779.66	233.12
779.98	233.03
780.31	233.01
780.63	233.00
780.95	232.96
781.28	233.00
781.60	232.95
781.92	232.81
782.25	232.76
782.57	232.86
782.89	232.76
783.22	232.74
783.54	232.61
783.86	232.57
784.19	232.54
784.51	232.60
784.83	232.49
785.16	232.43
785.48	232.33
785.80	232.20
786.12	232.29
786.45	232.24
786.77	232.20
787.09	232.14
787.42	232.10
787.74	232.01
788.06	232.01
788.38	232.00
788.71	231.90
789.03	231.89
789.35	231.83
789.67	231.83
789.99	231.75
790.32	231.67
790.64	231.65
790.96	231.80
791.28	231.74
791.61	231.75
791.93	231.73
792.25	231.70
792.57	231.83
792.89	231.70
793.21	231.74
793.54	231.76
793.86	231.66
794.18	231.66
794.50	231.74
794.82	231.69
795.14	231.65
795.47	231.71
795.79	231.61
796.11	231.69
796.43	231.68
796.75	231.63
797.07	231.58
797.39	231.63
797.71	231.40
798.04	231.40
798.36	231.39
798.68	231.43
799.00	231.46
799.32	231.36
799.64	231.40
799.96	231.33
800.28	231.40
800.60	231.32
800.92	231.19
801.24	231.03
801.56	231.13
801.89	231.08
802.21	231.07
802.53	231.07
802.85	231.06
803.17	231.07
803.49	231.00
803.81	231.10
804.13	231.05
804.45	231.01
804.77	231.03
805.09	230.95
805.41	230.82
805.73	230.74
806.05	230.66
806.37	230.56
806.69	230.52
807.01	230.44
807.33	230.46
807.65	230.45
807.97	230.47
808.28	230.32
808.60	230.27
808.92	230.14
809.24	230.20
809.56	230.01
809.88	229.95
810.20	229.93
810.52	229.78
810.84	229.70
811.16	229.80
811.48	229.77
811.80	229.81
812.12	229.76
812.43	229.68
812.75	229.75
813.07	229.52
813.39	229.51
813.71	229.32
814.03	229.39
814.35	229.41
814.67	229.39
814.98	229.35
815.30	229.29
815.62	229.26
815.94	229.10
816.26	229.12
816.58	229.15
816.89	229.25
817.21	229.23
817.53	229.20
817.85	229.07
818.17	228.94
818.48	228.84
818.80	228.91
819.12	229.00
819.44	228.86
819.76	229.02
820.07	229.01
820.39	229.13
820.71	229.07
821.03	229.04
821.34	228.97
821.66	228.90
821.98	229.02
822.30	229.04
822.61	229.12
822.93	229.10
823.25	229.06
823.57	229.01
823.88	229.10
824.20	229.06
824.52	229.14
824.83	229.20
825.15	229.21
825.47	229.25
825.79	229.21
826.10	229.21
826.42	229.10
826.74	229.07
827.05	229.00
827.37	228.96
827.69	228.98
828.00	229.03
828.32	229.13
828.64	229.10
828.95	229.20
829.27	229.21
829.58	229.16
829.90	229.17
830.22	229.12
830.53	229.04
830.85	229.11
831.17	229.10
831.48	229.10
831.80	229.11
832.11	229.02
832.43	229.00
832.75	229.02
833.06	229.18
833.38	229.13
833.69	229.14
834.01	229.18
834.32	229.04
834.64	229.10
834.96	229.03
835.27	228.95
835.59	228.91
835.90	228.86
836.22	228.85
836.53	228.80
836.85	228.83
837.16	229.04
837.48	228.96
837.79	228.90
838.11	228.88
838.42	228.83
838.74	228.90
839.05	228.88
839.37	228.83
839.68	228.78
840.00	228.83
840.31	228.90
840.63	228.90
840.94	229.05
841.26	229.03
841.57	229.04
841.88	229.08
842.20	229.10
842.51	229.11
842.83	229.11
843.14	229.28
843.46	229.23
843.77	229.16
844.08	229.24
844.40	229.25
844.71	229.26
845.03	229.25
845.34	229.22
845.65	229.22
845.97	229.20
846.28	229.10
846.60	229.10
846.91	229.02
847.22	228.99
847.54	228.99
847.85	228.89
848.16	228.85
848.48	228.90
848.79	228.92
849.10	228.89
849.42	228.89
849.73	228.78
850.04	228.80
850.36	228.68
850.67	228.64
850.98	228.65
851.30	228.63
851.61	228.65
851.92	228.63
852.23	228.72
852.55	228.80
852.86	228.81
853.17	228.86
853.49	228.84
853.80	228.95
854.11	228.86
854.42	228.98
854.74	229.08
855.05	228.98
855.36	228.84
855.67	228.85
855.99	228.84
856.30	229.00
856.61	229.00
856.92	229.05
857.23	229.13
857.55	229.14
857.86	229.13
858.17	229.11
858.48	229.05
858.79	229.00
859.11	228.94
859.42	229.04
859.73	228.96
860.04	228.99
860.35	228.90
860.66	228.85
860.98	228.73
861.29	228.71
861.60	228.70
861.91	228.74
862.22	228.70
862.53	228.73
862.84	228.58
863.16	228.59
863.47	228.50
863.78	228.45
864.09	228.38
864.40	228.43
864.71	228.46
865.02	228.44
865.33	228.46
865.64	228.43
865.95	228.47
866.27	228.66
866.58	228.63
866.89	228.67
867.20	228.73
867.51	228.71
867.82	228.67
868.13	228.75
868.44	228.62
868.75	228.69
869.06	228.65
869.37	228.71
869.68	228.67
869.99	228.70
870.30	228.69
870.61	228.67
870.92	228.53
871.23	228.51
871.54	228.62
871.85	228.66
872.16	228.78
872.47	228.63
872.78	228.41
873.09	228.37
873.40	228.26
873.71	228.25
874.02	228.23
874.33	228.20
874.64	228.11
874.95	228.17
875.26	228.15
875.56	228.09
875.87	227.89
876.18	227.83
876.49	228.00
876.80	227.92
877.11	227.97
877.42	228.09
877.73	228.08
878.04	227.98
878.35	227.95
878.66	227.94
878.96	227.98
879.27	228.01
879.58	228.07
879.89	228.14
880.20	228.18
880.51	228.19
880.82	228.18
881.12	228.25
881.43	228.26
881.74	228.07
882.05	228.10
882.36	228.13
882.67	228.22
882.97	228.00
883.28	228.05
883.59	228.04
883.90	228.00
884.21	228.04
884.51	228.00
884.82	227.95
885.13	227.97
885.44	227.88
885.74	227.86
886.05	227.87
886.36	227.83
886.67	227.87
886.98	228.02
887.28	228.08
887.59	228.04
887.90	228.08
888.20	228.20
888.51	228.27
888.82	228.34
889.13	228.30
889.43	228.54
889.74	228.55
890.05	228.53
890.35	228.50
890.66	228.56
890.97	228.59
891.28	228.60
891.58	228.51
891.89	228.68
892.20	228.63
892.50	228.58
892.81	228.56
893.12	228.50
893.42	228.41
893.73	228.44
894.04	228.40
894.34	228.43
894.65	228.40
894.95	228.42
895.26	228.37
895.57	228.46
895.87	228.27
896.18	228.28
896.48	228.25
896.79	228.30
897.10	228.30
897.40	228.32
897.71	228.29
898.01	228.32
898.32	228.23
898.63	228.31
898.93	228.34
899.24	228.30
899.54	228.36
899.85	228.44
900.15	228.33
900.46	228.35
900.76	228.36
901.07	228.41
901.38	228.42
901.68	228.55
901.99	228.50
902.29	228.44
902.60	228.40
902.90	228.41
903.21	228.44
903.51	228.44
903.82	228.45
904.12	228.44
904.43	228.43
904.73	228.47
905.03	228.46
905.34	228.65
905.64	228.75
905.95	228.66
906.25	228.54
906.56	228.54
906.86	228.63
907.17	228.56
907.47	228.53
907.77	228.45
908.08	228.38
908.38	228.43
908.69	228.48
908.99	228.52
909.30	228.57
909.60	228.51
909.90	228.43
910.21	228.44
910.51	228.40
910.81	228.46
911.12	228.37
911.42	228.48
911.73	228.32
912.03	228.24
912.33	228.30
912.64	228.34
912.94	228.30
913.24	228.22
913.55	228.20
913.85	228.17
914.15	228.24
914.46	228.22
914.76	228.07
915.06	228.06
915.37	227.99
915.67	228.00
915.97	228.00
916.27	227.91
916.58	227.89
916.88	227.94
917.18	227.88
917.49	228.01
917.79	227.82
918.09	227.83
918.39	227.91
918.70	227.84
919.00	227.75
919.30	227.88
919.60	227.84
919.91	227.80
920.21	227.86
920.51	227.80
920.81	227.81
921.12	227.82
921.42	227.82
921.72	227.83
922.02	227.86
922.32	227.82
922.63	227.92
922.93	227.94
923.23	227.95
923.53	227.88
923.83	227.85
924.13	227.89
924.44	227.83
924.74	227.81
925.04	227.89
925.34	227.88
925.64	227.75
925.94	227.78
926.24	227.99
926.55	228.03
926.85	228.12
927.15	228.09
927.45	228.13
927.75	228.10
928.05	228.20
928.35	228.15
928.65	228.24
928.95	228.23
929.26	228.21
929.56	228.27
929.86	228.41
930.16	228.41
930.46	228.36
930.76	228.41
931.06	228.38
931.36	228.37
931.66	228.41
931.96	228.53
932.26	228.59
932.56	228.51
932.86	228.50
933.16	228.47
933.46	228.52
933.76	228.50
934.06	228.51
934.36	228.51
934.66	228.41
934.96	228.39
935.26	228.33
935.56	228.42
935.86	228.35
936.16	228.21
936.46	228.18
936.76	228.21
937.06	228.13
937.36	228.16
937.66	228.21
937.96	228.30
938.26	228.26
938.56	228.19
938.86	228.15
939.16	228.13
939.46	228.11
939.76	228.08
940.06	228.13
940.35	228.14
940.65	228.09
940.95	228.20
941.25	228.22
941.55	228.27
941.85	228.24
942.15	228.20
942.45	228.23
942.75	228.20
943.04	228.22
943.34	228.29
943.64	228.31
943.94	228.21
944.24	228.19
944.54	228.15
944.84	228.09
945.13	228.02
945.43	228.00
945.73	228.03
946.03	227.97
946.33	227.95
946.62	227.93
946.92	227.90
947.22	227.89
947.52	227.89
947.82	227.97
948.11	227.88
948.41	227.93
948.71	227.91
949.01	227.94
949.31	227.90
949.60	227.81
949.90	227.78
950.20	227.70
950.50	227.65
950.79	227.67
951.09	227.76
951.39	227.80
951.69	227.77
951.98	227.72
952.28	227.83
952.58	227.74
952.87	227.72
953.17	227.80
953.47	227.80
953.76	227.80
954.06	227.73
954.36	227.69
954.66	227.67
954.95	227.74
955.25	227.77
955.55	227.84
955.84	227.88
956.14	227.93
956.44	228.08
956.73	228.03
957.03	228.06
957.32	228.05
957.62	228.10
957.92	228.09
958.21	228.13
958.51	228.27
958.81	228.34
959.10	228.36
959.40	228.31
959.69	228.30
959.99	228.30
960.29	228.35
960.58	228.40
960.88	228.46
961.17	228.43
961.47	228.38
961.76	228.34
962.06	228.42
962.36	228.29
962.65	228.26
962.95	228.37
963.24	228.23
963.54	228.29
963.83	228.22
964.13	228.25
964.42	228.23
964.72	228.02
965.01	228.08
965.31	228.09
965.60	228.05
965.90	228.13
966.19	228.04
966.49	227.96
966.78	227.85
967.08	227.88
967.37	227.84
967.67	227.85
967.96	227.86
968.26	227.80
968.55	227.95
968.85	227.93
969.14	227.89
969.43	228.03
969.73	227.97
970.02	228.05
970.32	228.06
970.61	228.09
970.91	228.04
971.20	228.04
971.49	228.09
971.79	228.11
972.08	228.05
972.38	228.09
972.67	227.99
972.96	228.10
973.26	227.99
973.55	228.11
973.85	228.08
974.14	228.03
974.43	228.06
974.73	227.97
975.02	227.91
975.31	227.90
975.61	227.82
975.90	227.85
976.19	227.72
976.49	227.78
976.78	227.82
977.07	227.91
977.37	227.89
977.66	227.85
977.95	227.85
978.24	227.90
978.54	227.95
978.83	227.97
979.12	228.03
979.42	228.23
979.71	228.16
980.00	228.23
980.29	228.48
980.59	228.49
980.88	228.52
981.17	228.51
981.46	228.57
981.76	228.60
982.05	228.61
982.34	228.66
982.63	228.72
982.93	228.59
983.22	228.65
983.51	228.70
983.80	228.74
984.09	228.73
984.39	228.66
984.68	228.56
984.97	228.69
985.26	228.70
985.55	228.58
985.85	228.57
986.14	228.57
986.43	228.43
986.72	228.42
987.01	228.39
987.30	228.41
987.59	228.32
987.89	228.37
988.18	228.31
988.47	228.41
988.76	228.30
989.05	228.31
989.34	228.27
989.63	228.26
989.92	228.25
990.22	228.28
990.51	228.13
990.80	228.20
991.09	228.28
991.38	228.17
991.67	228.12
991.96	228.10
992.25	228.12
992.54	228.10
992.83	228.03
993.12	228.04
993.41	228.08
993.70	228.31
993.99	228.29
994.28	228.35
994.58	228.33
994.87	228.24
995.16	228.24
995.45	228.24
995.74	228.14
996.03	228.14
996.32	228.18
996.61	228.31
996.90	228.41
997.19	228.33
997.48	228.37
997.77	228.38
998.06	228.32
998.34	228.20
998.63	228.19
998.92	228.26
999.21	228.30
999.50	228.29
999.79	228.06
1000.08	228.08
1000.37	228.15
1000.66	228.10
1000.95	228.14
1001.24	228.13
1001.53	228.12
1001.82	228.13
1002.11	228.10
1002.40	228.12
1002.68	228.12
1002.97	228.23
1003.26	228.18
1003.55	228.20
1003.84	228.16
1004.13	228.23
1004.42	228.34
1004.71	228.31
1004.99	228.23
1005.28	228.20
1005.57	228.18
1005.86	228.14
1006.15	228.10
1006.44	228.02
1006.72	227.94
1007.01	227.94
1007.30	227.92
1007.59	227.96
1007.88	227.93
1008.17	227.90
1008.45	227.83
1008.74	227.91
1009.03	227.80
1009.32	227.73
1009.60	227.64
1009.89	227.63
1010.18	227.66
1010.47	227.64
1010.76	227.59
1011.04	227.60
1011.33	227.64
1011.62	227.68
1011.91	227.81
1012.19	227.83
1012.48	227.84
1012.77	227.87
1013.05	228.01
1013.34	228.06
1013.63	228.03
1013.92	228.20
1014.20	228.14
1014.49	228.21
1014.78	228.12
1015.06	228.08
1015.35	228.07
1015.64	228.20
1015.92	228.34
1016.21	228.34
1016.50	228.30
1016.78	228.36
1017.07	228.35
1017.36	228.35
1017.64	228.36
1017.93	228.26
1018.22	228.28
1018.50	228.20
1018.79	228.17
1019.08	227.89
1019.36	227.91
1019.65	227.84
1019.93	227.82
1020.22	227.97
1020.51	227.97
1020.79	227.96
1021.08	228.80
1021.36	226.80
1021.65	226.80
1021.94	224.40
1022.22	228.30
1022.51	226.90
1022.79	229.80
1023.08	229.20
1023.36	229.80
1023.65	227.50
>>>>>End Processed Spectral Data<<<<<
