SpectraSuite Data File
++++++++++++++++++++++++++++++++++++
Date: Fri Feb 01 14:36:02 EST 2013
User: group
Dark Spectrum Present: No
Reference Spectrum Present: No
Number of Sampled Component Spectra: 1
Spectrometers: USB2E7196
Integration Time (usec): 70000 (USB2E7196)
Spectra Averaged: 10 (USB2E7196)
Boxcar Smoothing: 10 (USB2E7196)
Correct for Electrical Dark: No (USB2E7196)
Strobe/Lamp Enabled: No (USB2E7196)
Correct for Detector Non-linearity: No (USB2E7196)
Correct for Stray Light: No (USB2E7196)
Number of Pixels in Processed Spectrum: 2048
>>>>>Begin Processed Spectral Data<<<<<
339.09	0.00
339.48	215.60
339.86	219.90
340.24	222.30
340.63	220.70
341.01	226.70
341.39	223.70
341.78	225.50
342.16	226.40
342.54	227.80
342.93	215.37
343.31	226.20
343.69	226.83
344.07	227.14
344.46	227.40
344.84	227.82
345.22	227.86
345.60	228.11
345.99	228.29
346.37	228.40
346.75	228.36
347.13	228.37
347.52	228.40
347.90	228.50
348.28	228.48
348.66	228.51
349.05	228.40
349.43	228.32
349.81	228.32
350.19	228.28
350.57	228.30
350.96	228.24
351.34	228.40
351.72	228.33
352.10	228.39
352.48	228.50
352.87	228.55
353.25	228.62
353.63	228.72
354.01	228.68
354.39	228.76
354.77	228.92
355.15	229.04
355.54	229.08
355.92	229.06
356.30	229.23
356.68	229.35
357.06	229.49
357.44	229.51
357.82	229.65
358.20	229.76
358.58	229.68
358.97	229.77
359.35	229.69
359.73	229.90
360.11	229.94
360.49	229.94
360.87	229.82
361.25	229.87
361.63	229.86
362.01	229.93
362.39	229.96
362.77	229.97
363.15	230.03
363.53	230.11
363.91	230.18
364.29	230.23
364.67	230.19
365.05	230.15
365.43	230.31
365.81	230.22
366.19	230.21
366.57	230.42
366.95	230.47
367.33	230.49
367.71	230.43
368.09	230.55
368.47	230.59
368.85	230.65
369.23	230.65
369.61	230.53
369.99	230.58
370.37	230.48
370.75	230.56
371.13	230.44
371.51	230.37
371.89	230.32
372.27	230.19
372.65	230.08
373.03	229.99
373.41	229.87
373.78	229.85
374.16	229.73
374.54	229.59
374.92	229.51
375.30	229.49
375.68	229.37
376.06	229.30
376.44	229.12
376.82	229.02
377.19	228.92
377.57	229.00
377.95	228.88
378.33	228.80
378.71	228.63
379.09	228.61
379.47	228.58
379.84	228.40
380.22	228.26
380.60	228.13
380.98	228.10
381.36	228.10
381.73	227.99
382.11	227.92
382.49	227.86
382.87	227.77
383.25	227.71
383.62	227.79
384.00	227.58
384.38	227.60
384.76	227.63
385.13	227.68
385.51	227.47
385.89	227.35
386.27	227.34
386.64	227.18
387.02	227.09
387.40	226.93
387.78	226.99
388.15	227.00
388.53	226.96
388.91	226.96
389.29	226.86
389.66	226.90
390.04	226.85
390.42	226.90
390.79	226.89
391.17	226.81
391.55	226.71
391.92	226.81
392.30	226.85
392.68	226.78
393.05	226.69
393.43	226.79
393.81	226.86
394.18	226.82
394.56	226.90
394.94	226.95
395.31	227.02
395.69	227.18
396.06	227.24
396.44	227.30
396.82	227.27
397.19	227.47
397.57	227.45
397.95	227.60
398.32	227.70
398.70	227.80
399.07	227.96
399.45	228.08
399.82	228.15
400.20	228.26
400.58	228.39
400.95	228.56
401.33	228.73
401.70	228.96
402.08	229.20
402.45	229.36
402.83	229.67
403.20	229.89
403.58	229.98
403.95	230.15
404.33	230.37
404.71	230.61
405.08	230.92
405.46	231.25
405.83	231.53
406.21	231.76
406.58	232.03
406.96	232.31
407.33	232.57
407.70	233.00
408.08	233.55
408.45	234.06
408.83	234.46
409.20	234.78
409.58	235.18
409.95	235.64
410.33	236.21
410.70	236.64
411.08	237.26
411.45	237.92
411.82	238.64
412.20	239.32
412.57	240.20
412.95	240.70
413.32	241.47
413.69	242.37
414.07	243.16
414.44	244.10
414.82	245.08
415.19	246.37
415.56	247.48
415.94	248.55
416.31	249.92
416.68	251.30
417.06	252.99
417.43	254.60
417.81	256.29
418.18	258.00
418.55	259.86
418.93	261.82
419.30	263.87
419.67	266.16
420.04	268.35
420.42	270.73
420.79	273.55
421.16	276.38
421.54	279.10
421.91	282.07
422.28	285.12
422.66	288.28
423.03	291.21
423.40	294.50
423.77	297.90
424.15	301.44
424.52	305.00
424.89	308.77
425.26	312.42
425.64	316.12
426.01	320.24
426.38	324.38
426.75	328.56
427.13	332.87
427.50	337.15
427.87	342.07
428.24	346.63
428.61	350.96
428.99	355.77
429.36	361.20
429.73	366.40
430.10	371.61
430.47	377.12
430.85	382.75
431.22	388.36
431.59	394.61
431.96	400.32
432.33	407.02
432.70	413.47
433.08	420.81
433.45	427.81
433.82	434.58
434.19	442.27
434.56	449.81
434.93	456.89
435.30	464.16
435.68	471.92
436.05	479.93
436.42	487.86
436.79	495.07
437.16	502.56
437.53	510.52
437.90	518.49
438.27	526.15
438.64	534.27
439.01	541.79
439.38	548.46
439.75	554.94
440.13	562.33
440.50	569.46
440.87	575.33
441.24	581.52
441.61	588.17
441.98	593.31
442.35	599.16
442.72	605.21
443.09	611.04
443.46	614.85
443.83	617.28
444.20	619.50
444.57	622.85
444.94	624.78
445.31	626.88
445.68	629.05
446.05	630.45
446.42	630.47
446.79	630.80
447.16	630.74
447.53	631.05
447.90	629.02
448.27	626.82
448.64	623.61
449.01	621.52
449.37	617.19
449.74	612.82
450.11	607.58
450.48	601.78
450.85	595.77
451.22	590.82
451.59	586.10
451.96	581.95
452.33	575.41
452.70	569.87
453.07	562.83
453.43	555.48
453.80	548.52
454.17	541.69
454.54	535.05
454.91	527.96
455.28	521.07
455.65	514.67
456.02	508.25
456.38	502.59
456.75	495.46
457.12	489.72
457.49	483.99
457.86	478.23
458.23	473.29
458.59	467.91
458.96	462.34
459.33	457.66
459.70	452.54
460.07	448.69
460.43	443.97
460.80	439.56
461.17	435.62
461.54	431.74
461.91	428.10
462.27	424.16
462.64	420.95
463.01	417.33
463.38	413.70
463.74	410.08
464.11	407.17
464.48	404.34
464.85	401.12
465.21	398.73
465.58	396.29
465.95	393.44
466.32	390.96
466.68	388.51
467.05	385.83
467.42	383.30
467.78	380.64
468.15	378.11
468.52	376.34
468.88	374.04
469.25	371.63
469.62	369.76
469.98	367.98
470.35	366.05
470.72	364.35
471.08	362.54
471.45	361.01
471.82	359.23
472.18	357.56
472.55	356.38
472.92	354.66
473.28	353.25
473.65	351.85
474.02	350.40
474.38	349.15
474.75	348.10
475.11	346.89
475.48	345.98
475.85	345.20
476.21	344.25
476.58	343.46
476.94	342.93
477.31	342.07
477.67	341.36
478.04	340.74
478.41	340.21
478.77	340.00
479.14	339.47
479.50	339.23
479.87	338.88
480.23	338.62
480.60	338.47
480.96	338.30
481.33	338.39
481.69	338.37
482.06	338.37
482.42	338.30
482.79	338.31
483.15	338.54
483.52	338.86
483.88	339.09
484.25	339.33
484.61	339.57
484.98	340.00
485.34	340.53
485.71	341.08
486.07	341.60
486.44	341.89
486.80	342.50
487.17	343.08
487.53	343.94
487.90	344.87
488.26	345.82
488.62	346.75
488.99	347.54
489.35	348.50
489.72	349.49
490.08	350.71
490.44	351.85
490.81	352.94
491.17	353.96
491.54	355.31
491.90	356.57
492.26	358.00
492.63	359.45
492.99	360.81
493.36	362.20
493.72	363.70
494.08	365.35
494.45	367.10
494.81	368.94
495.17	370.78
495.54	372.40
495.90	374.20
496.26	375.83
496.63	377.60
496.99	379.53
497.35	381.40
497.72	383.40
498.08	385.45
498.44	387.38
498.80	389.57
499.17	391.72
499.53	393.65
499.89	395.63
500.26	397.66
500.62	399.62
500.98	401.78
501.34	403.77
501.71	405.71
502.07	407.61
502.43	409.39
502.79	411.20
503.16	413.05
503.52	414.80
503.88	416.70
504.24	418.60
504.60	420.54
504.97	422.49
505.33	424.17
505.69	426.04
506.05	427.86
506.41	429.29
506.78	430.70
507.14	432.54
507.50	434.17
507.86	435.51
508.22	436.90
508.59	438.06
508.95	439.41
509.31	440.87
509.67	442.13
510.03	443.37
510.39	444.52
510.75	445.94
511.12	447.11
511.48	448.23
511.84	449.30
512.20	450.13
512.56	450.92
512.92	451.68
513.28	452.34
513.64	452.97
514.00	453.74
514.37	454.36
514.73	454.66
515.09	455.22
515.45	455.91
515.81	456.46
516.17	457.30
516.53	457.85
516.89	458.05
517.25	458.54
517.61	459.11
517.97	459.43
518.33	459.60
518.69	459.97
519.05	460.29
519.41	460.58
519.77	461.12
520.13	461.58
520.49	461.77
520.85	462.06
521.21	462.45
521.57	462.91
521.93	463.34
522.29	463.98
522.65	464.26
523.01	464.79
523.37	465.28
523.73	465.60
524.09	466.08
524.45	466.75
524.81	467.24
525.17	467.90
525.53	468.69
525.89	469.50
526.25	470.33
526.61	470.97
526.97	471.83
527.33	472.44
527.68	473.33
528.04	474.62
528.40	475.65
528.76	476.87
529.12	478.16
529.48	479.40
529.84	480.52
530.20	481.96
530.56	483.38
530.91	485.04
531.27	486.67
531.63	488.35
531.99	489.99
532.35	491.55
532.71	493.15
533.07	494.91
533.42	496.81
533.78	498.63
534.14	500.80
534.50	502.77
534.86	505.05
535.21	507.32
535.57	509.69
535.93	512.00
536.29	514.29
536.65	516.63
537.00	518.91
537.36	521.64
537.72	524.18
538.08	526.74
538.44	529.32
538.79	532.10
539.15	534.76
539.51	537.74
539.87	540.65
540.22	543.49
540.58	546.82
540.94	550.00
541.29	552.99
541.65	556.23
542.01	559.61
542.37	562.90
542.72	566.06
543.08	569.36
543.44	572.76
543.79	576.11
544.15	579.56
544.51	583.27
544.87	586.92
545.22	590.52
545.58	594.03
545.94	597.34
546.29	600.85
546.65	604.44
547.01	607.94
547.36	611.88
547.72	615.80
548.07	619.21
548.43	622.87
548.79	626.77
549.14	630.36
549.50	633.96
549.86	637.59
550.21	641.21
550.57	644.89
550.92	648.79
551.28	652.40
551.64	656.02
551.99	660.05
552.35	663.51
552.70	667.25
553.06	671.25
553.41	675.48
553.77	679.51
554.13	683.41
554.48	687.58
554.84	691.52
555.19	695.38
555.55	699.40
555.90	702.92
556.26	706.80
556.61	710.59
556.97	714.36
557.32	718.08
557.68	722.12
558.03	726.00
558.39	729.68
558.74	733.77
559.10	737.76
559.45	741.35
559.81	745.36
560.16	749.14
560.52	752.66
560.87	756.34
561.23	759.78
561.58	763.44
561.94	766.77
562.29	770.09
562.64	773.54
563.00	776.80
563.35	780.56
563.71	783.93
564.06	787.44
564.42	790.82
564.77	794.53
565.12	797.92
565.48	801.36
565.83	804.76
566.19	808.09
566.54	811.22
566.89	814.20
567.25	817.32
567.60	820.75
567.96	824.14
568.31	827.16
568.66	830.18
569.02	833.00
569.37	835.65
569.72	838.49
570.08	840.98
570.43	843.71
570.78	846.37
571.14	848.71
571.49	850.94
571.84	853.87
572.20	855.90
572.55	857.96
572.90	859.67
573.26	861.84
573.61	863.83
573.96	865.74
574.31	867.53
574.67	868.93
575.02	869.98
575.37	871.17
575.72	872.08
576.08	873.60
576.43	875.08
576.78	876.80
577.13	878.01
577.49	879.41
577.84	880.39
578.19	881.32
578.54	882.36
578.90	883.45
579.25	883.70
579.60	884.35
579.95	885.01
580.30	885.57
580.66	885.80
581.01	886.10
581.36	886.62
581.71	887.27
582.06	887.70
582.42	888.11
582.77	888.33
583.12	888.67
583.47	888.72
583.82	888.79
584.17	888.74
584.53	888.97
584.88	889.07
585.23	889.29
585.58	888.88
585.93	889.14
586.28	889.20
586.63	889.45
586.98	889.66
587.34	889.40
587.69	889.46
588.04	889.43
588.39	889.45
588.74	888.91
589.09	888.39
589.44	887.98
589.79	887.57
590.14	887.36
590.49	887.09
590.84	886.42
591.19	886.01
591.54	885.00
591.89	883.78
592.25	883.04
592.60	881.78
592.95	880.89
593.30	879.59
593.65	878.26
594.00	876.81
594.35	875.79
594.70	874.54
595.05	873.41
595.40	871.94
595.75	870.23
596.10	869.12
596.45	867.96
596.80	866.91
597.15	865.70
597.50	864.31
597.85	863.23
598.19	861.94
598.54	860.75
598.89	859.51
599.24	858.39
599.59	856.88
599.94	855.67
600.29	854.40
600.64	852.96
600.99	851.30
601.34	849.77
601.69	847.64
602.04	846.23
602.39	844.81
602.74	843.51
603.08	842.09
603.43	840.48
603.78	838.84
604.13	837.02
604.48	835.21
604.83	833.37
605.18	831.16
605.53	829.36
605.87	826.92
606.22	825.01
606.57	823.16
606.92	820.99
607.27	819.31
607.62	817.62
607.96	815.85
608.31	814.31
608.66	812.41
609.01	810.31
609.36	808.02
609.70	805.30
610.05	802.66
610.40	800.46
610.75	798.07
611.10	795.52
611.44	792.67
611.79	790.47
612.14	787.85
612.49	785.26
612.83	782.25
613.18	779.88
613.53	777.14
613.88	774.22
614.22	771.75
614.57	768.72
614.92	765.72
615.27	762.81
615.61	759.97
615.96	757.20
616.31	754.89
616.65	752.58
617.00	750.15
617.35	747.71
617.70	745.02
618.04	742.26
618.39	739.73
618.74	737.70
619.08	734.86
619.43	732.44
619.78	729.87
620.12	727.48
620.47	724.63
620.82	722.02
621.16	719.58
621.51	717.15
621.85	714.81
622.20	712.16
622.55	709.51
622.89	706.98
623.24	704.56
623.59	701.94
623.93	699.39
624.28	697.03
624.62	694.65
624.97	692.22
625.32	689.71
625.66	687.24
626.01	684.61
626.35	681.97
626.70	679.36
627.04	677.16
627.39	674.79
627.73	672.50
628.08	670.14
628.43	667.52
628.77	664.88
629.12	662.19
629.46	659.67
629.81	657.02
630.15	654.23
630.50	651.39
630.84	648.35
631.19	645.29
631.53	642.51
631.88	639.64
632.22	636.75
632.57	634.26
632.91	631.43
633.26	628.63
633.60	625.99
633.95	623.34
634.29	620.72
634.64	618.18
634.98	615.62
635.32	613.21
635.67	611.06
636.01	608.53
636.36	605.81
636.70	603.50
637.05	600.99
637.39	598.66
637.73	596.54
638.08	594.82
638.42	592.95
638.77	590.55
639.11	588.08
639.45	585.80
639.80	583.38
640.14	581.00
640.49	578.60
640.83	576.34
641.17	573.97
641.52	571.38
641.86	568.91
642.20	566.57
642.55	564.13
642.89	561.51
643.23	559.10
643.58	557.01
643.92	554.46
644.26	552.40
644.61	550.39
644.95	548.02
645.29	545.18
645.64	542.50
645.98	540.12
646.32	537.86
646.66	535.37
647.01	532.98
647.35	530.63
647.69	528.43
648.04	526.33
648.38	523.96
648.72	521.57
649.06	519.14
649.41	516.78
649.75	514.26
650.09	511.96
650.43	509.48
650.78	506.92
651.12	504.56
651.46	502.16
651.80	499.65
652.14	497.30
652.49	495.26
652.83	493.00
653.17	490.67
653.51	488.50
653.85	486.40
654.20	484.20
654.54	481.88
654.88	479.26
655.22	476.72
655.56	474.53
655.90	472.40
656.25	470.40
656.59	468.17
656.93	466.09
657.27	464.04
657.61	462.03
657.95	460.21
658.29	458.19
658.64	456.03
658.98	453.96
659.32	451.82
659.66	449.81
660.00	447.81
660.34	445.65
660.68	443.65
661.02	441.57
661.36	439.54
661.70	437.75
662.05	436.04
662.39	434.30
662.73	432.41
663.07	430.62
663.41	428.60
663.75	426.74
664.09	424.96
664.43	423.15
664.77	421.34
665.11	419.45
665.45	417.78
665.79	416.22
666.13	414.39
666.47	412.61
666.81	410.74
667.15	408.94
667.49	407.47
667.83	405.90
668.17	404.33
668.51	402.58
668.85	400.90
669.19	399.57
669.53	398.04
669.87	396.56
670.21	395.15
670.55	393.75
670.89	392.48
671.23	391.10
671.57	389.63
671.91	388.42
672.25	387.02
672.58	385.68
672.92	384.23
673.26	382.86
673.60	381.50
673.94	380.31
674.28	379.21
674.62	378.06
674.96	376.72
675.30	375.49
675.64	374.29
675.97	373.18
676.31	371.87
676.65	370.47
676.99	369.27
677.33	367.85
677.67	366.61
678.01	365.25
678.34	363.97
678.68	362.69
679.02	361.21
679.36	359.99
679.70	358.76
680.04	357.59
680.37	356.31
680.71	355.27
681.05	354.02
681.39	352.79
681.73	351.56
682.06	350.43
682.40	349.29
682.74	348.20
683.08	347.11
683.42	345.93
683.75	344.95
684.09	343.76
684.43	342.73
684.77	341.60
685.10	340.53
685.44	339.55
685.78	338.49
686.12	337.47
686.45	336.40
686.79	335.33
687.13	334.23
687.46	333.17
687.80	332.11
688.14	331.02
688.48	329.88
688.81	328.70
689.15	327.71
689.49	326.60
689.82	325.55
690.16	324.36
690.50	323.37
690.83	322.46
691.17	321.43
691.51	320.48
691.84	319.51
692.18	318.47
692.52	317.35
692.85	316.40
693.19	315.47
693.52	314.50
693.86	313.47
694.20	312.59
694.53	311.70
694.87	310.74
695.21	309.81
695.54	309.08
695.88	308.16
696.21	307.15
696.55	306.25
696.88	305.33
697.22	304.51
697.56	303.58
697.89	302.50
698.23	301.78
698.56	300.84
698.90	300.07
699.23	299.29
699.57	298.48
699.90	297.59
700.24	296.86
700.58	296.08
700.91	295.33
701.25	294.62
701.58	294.03
701.92	293.34
702.25	292.63
702.59	291.91
702.92	291.40
703.26	290.68
703.59	290.11
703.93	289.73
704.26	289.19
704.60	288.60
704.93	288.04
705.26	287.28
705.60	286.71
705.93	286.19
706.27	285.68
706.60	285.23
706.94	284.70
707.27	284.07
707.61	283.54
707.94	283.10
708.27	282.43
708.61	281.81
708.94	281.31
709.28	280.89
709.61	280.45
709.94	279.91
710.28	279.60
710.61	279.05
710.95	278.47
711.28	277.93
711.61	277.38
711.95	276.91
712.28	276.38
712.61	275.84
712.95	275.30
713.28	274.89
713.61	274.24
713.95	273.80
714.28	273.31
714.61	272.81
714.95	272.38
715.28	271.90
715.61	271.45
715.95	271.04
716.28	270.55
716.61	270.04
716.95	269.56
717.28	269.04
717.61	268.57
717.94	267.94
718.28	267.45
718.61	267.10
718.94	266.78
719.27	266.47
719.61	266.19
719.94	265.83
720.27	265.20
720.60	264.87
720.94	264.61
721.27	264.35
721.60	264.01
721.93	263.63
722.27	263.41
722.60	263.06
722.93	262.59
723.26	262.31
723.59	261.82
723.93	261.50
724.26	261.14
724.59	260.82
724.92	260.73
725.25	260.47
725.59	260.13
725.92	259.81
726.25	259.63
726.58	259.28
726.91	258.99
727.24	258.86
727.57	258.60
727.91	258.08
728.24	257.66
728.57	257.41
728.90	257.20
729.23	256.84
729.56	256.71
729.89	256.43
730.22	256.04
730.55	255.86
730.89	255.45
731.22	255.17
731.55	254.85
731.88	254.39
732.21	253.98
732.54	253.61
732.87	253.23
733.20	252.85
733.53	252.64
733.86	252.32
734.19	251.95
734.52	251.62
734.85	251.53
735.18	251.21
735.51	251.00
735.84	250.63
736.17	250.36
736.50	250.00
736.83	249.91
737.16	249.66
737.49	249.44
737.82	249.30
738.15	249.10
738.48	248.87
738.81	248.72
739.14	248.67
739.47	248.46
739.80	248.30
740.13	248.06
740.46	247.81
740.79	247.55
741.12	247.30
741.45	247.13
741.78	246.91
742.11	246.86
742.44	246.60
742.77	246.53
743.10	246.39
743.43	246.23
743.75	245.88
744.08	245.98
744.41	245.73
744.74	245.55
745.07	245.40
745.40	245.28
745.73	245.13
746.06	244.76
746.39	244.64
746.71	244.38
747.04	244.24
747.37	244.07
747.70	243.96
748.03	243.91
748.36	243.80
748.68	243.59
749.01	243.40
749.34	243.23
749.67	243.00
750.00	242.91
750.33	242.80
750.65	242.73
750.98	242.30
751.31	242.20
751.64	242.01
751.97	241.99
752.29	241.82
752.62	241.63
752.95	241.52
753.28	241.42
753.60	241.42
753.93	241.40
754.26	241.29
754.59	241.16
754.91	241.05
755.24	240.96
755.57	240.86
755.90	240.81
756.22	240.72
756.55	240.62
756.88	240.42
757.20	240.16
757.53	240.02
757.86	240.00
758.19	239.96
758.51	239.88
758.84	239.62
759.17	239.62
759.49	239.56
759.82	239.69
760.15	239.61
760.47	239.48
760.80	239.31
761.13	239.22
761.45	239.11
761.78	238.91
762.11	238.81
762.43	238.75
762.76	238.60
763.08	238.50
763.41	238.31
763.74	238.23
764.06	238.30
764.39	238.17
764.71	238.01
765.04	237.82
765.37	237.75
765.69	237.63
766.02	237.45
766.34	237.21
766.67	237.09
767.00	237.08
767.32	237.06
767.65	236.95
767.97	236.87
768.30	236.79
768.62	236.74
768.95	236.61
769.27	236.40
769.60	236.36
769.92	236.25
770.25	236.19
770.57	236.08
770.90	235.80
771.22	235.61
771.55	235.54
771.87	235.49
772.20	235.41
772.52	235.55
772.85	235.67
773.17	235.60
773.50	235.46
773.82	235.30
774.15	235.01
774.47	234.88
774.80	234.79
775.12	234.71
775.45	234.57
775.77	234.51
776.09	234.47
776.42	234.30
776.74	234.23
777.07	234.14
777.39	234.00
777.72	233.95
778.04	234.01
778.36	233.91
778.69	233.83
779.01	233.78
779.33	233.50
779.66	233.31
779.98	233.29
780.31	233.15
780.63	233.13
780.95	233.20
781.28	233.10
781.60	232.99
781.92	232.91
782.25	232.88
782.57	232.81
782.89	232.79
783.22	232.72
783.54	232.67
783.86	232.61
784.19	232.57
784.51	232.52
784.83	232.37
785.16	232.27
785.48	232.24
785.80	232.15
786.12	232.17
786.45	232.07
786.77	232.10
787.09	232.11
787.42	232.03
787.74	231.96
788.06	231.89
788.38	231.90
788.71	231.85
789.03	231.76
789.35	231.80
789.67	231.75
789.99	231.65
790.32	231.54
790.64	231.60
790.96	231.79
791.28	231.77
791.61	231.80
791.93	231.85
792.25	231.80
792.57	231.91
792.89	231.78
793.21	231.84
793.54	231.72
793.86	231.63
794.18	231.57
794.50	231.57
794.82	231.69
795.14	231.61
795.47	231.63
795.79	231.75
796.11	231.62
796.43	231.57
796.75	231.66
797.07	231.75
797.39	231.71
797.71	231.48
798.04	231.51
798.36	231.46
798.68	231.50
799.00	231.49
799.32	231.44
799.64	231.49
799.96	231.46
800.28	231.60
800.60	231.56
800.92	231.56
801.24	231.53
801.56	231.54
801.89	231.63
802.21	231.69
802.53	231.62
802.85	231.60
803.17	231.71
803.49	231.66
803.81	231.65
804.13	231.54
804.45	231.54
804.77	231.50
805.09	231.51
805.41	231.39
805.73	231.27
806.05	231.10
806.37	231.07
806.69	231.00
807.01	230.89
807.33	230.88
807.65	230.77
807.97	230.71
808.28	230.60
808.60	230.46
808.92	230.44
809.24	230.51
809.56	230.44
809.88	230.39
810.20	230.33
810.52	230.26
810.84	230.18
811.16	230.09
811.48	229.93
811.80	229.94
812.12	229.97
812.43	230.03
812.75	230.05
813.07	230.00
813.39	229.89
813.71	229.64
814.03	229.61
814.35	229.58
814.67	229.45
814.98	229.35
815.30	229.37
815.62	229.16
815.94	228.96
816.26	229.02
816.58	228.84
816.89	228.85
817.21	228.73
817.53	228.72
817.85	228.77
818.17	228.85
818.48	228.76
818.80	228.80
819.12	228.68
819.44	228.61
819.76	228.43
820.07	228.42
820.39	228.44
820.71	228.45
821.03	228.41
821.34	228.42
821.66	228.44
821.98	228.31
822.30	228.41
822.61	228.53
822.93	228.46
823.25	228.46
823.57	228.44
823.88	228.51
824.20	228.56
824.52	228.54
824.83	228.49
825.15	228.33
825.47	228.25
825.79	228.33
826.10	228.32
826.42	228.40
826.74	228.49
827.05	228.67
827.37	228.66
827.69	228.70
828.00	228.67
828.32	228.69
828.64	228.77
828.95	228.77
829.27	228.62
829.58	228.64
829.90	228.75
830.22	228.75
830.53	228.70
830.85	228.59
831.17	228.69
831.48	228.76
831.80	228.89
832.11	228.83
832.43	228.80
832.75	228.84
833.06	228.94
833.38	228.96
833.69	228.93
834.01	228.95
834.32	229.05
834.64	229.13
834.96	229.11
835.27	229.11
835.59	229.16
835.90	229.27
836.22	229.19
836.53	229.17
836.85	229.20
837.16	229.36
837.48	229.46
837.79	229.47
838.11	229.48
838.42	229.52
838.74	229.52
839.05	229.59
839.37	229.57
839.68	229.57
840.00	229.55
840.31	229.60
840.63	229.67
840.94	229.61
841.26	229.62
841.57	229.74
841.88	229.89
842.20	229.80
842.51	229.75
842.83	229.87
843.14	230.10
843.46	230.06
843.77	230.05
844.08	230.06
844.40	229.90
844.71	229.83
845.03	229.82
845.34	229.94
845.65	229.94
845.97	229.97
846.28	230.00
846.60	230.02
846.91	229.93
847.22	229.84
847.54	229.87
847.85	229.87
848.16	229.78
848.48	229.66
848.79	229.78
849.10	229.91
849.42	229.90
849.73	229.62
850.04	229.60
850.36	229.48
850.67	229.50
850.98	229.58
851.30	229.59
851.61	229.52
851.92	229.47
852.23	229.45
852.55	229.41
852.86	229.33
853.17	229.23
853.49	229.22
853.80	229.19
854.11	229.12
854.42	229.13
854.74	229.14
855.05	229.04
855.36	228.96
855.67	228.82
855.99	228.67
856.30	228.85
856.61	228.79
856.92	228.79
857.23	228.73
857.55	228.65
857.86	228.61
858.17	228.62
858.48	228.46
858.79	228.42
859.11	228.40
859.42	228.36
859.73	228.35
860.04	228.29
860.35	228.24
860.66	228.18
860.98	228.11
861.29	228.09
861.60	228.10
861.91	228.07
862.22	227.99
862.53	228.00
862.84	227.77
863.16	227.84
863.47	227.82
863.78	227.74
864.09	227.78
864.40	227.74
864.71	227.82
865.02	227.85
865.33	227.77
865.64	227.68
865.95	227.77
866.27	227.76
866.58	227.79
866.89	227.88
867.20	227.95
867.51	228.02
867.82	227.94
868.13	227.99
868.44	227.91
868.75	227.92
869.06	227.97
869.37	228.11
869.68	228.03
869.99	227.99
870.30	228.20
870.61	228.18
870.92	228.20
871.23	228.07
871.54	228.10
871.85	228.26
872.16	228.39
872.47	228.19
872.78	228.25
873.09	228.28
873.40	228.24
873.71	228.19
874.02	228.14
874.33	228.19
874.64	228.26
874.95	228.20
875.26	228.26
875.56	228.23
875.87	228.08
876.18	228.15
876.49	228.46
876.80	228.41
877.11	228.43
877.42	228.53
877.73	228.63
878.04	228.75
878.35	228.75
878.66	228.69
878.96	228.78
879.27	228.80
879.58	228.83
879.89	228.90
880.20	228.96
880.51	229.08
880.82	229.15
881.12	229.10
881.43	229.24
881.74	229.23
882.05	229.31
882.36	229.38
882.67	229.40
882.97	229.14
883.28	229.07
883.59	229.13
883.90	229.05
884.21	229.12
884.51	229.00
884.82	228.92
885.13	228.99
885.44	229.00
885.74	228.95
886.05	228.95
886.36	228.92
886.67	228.92
886.98	228.88
887.28	228.84
887.59	228.82
887.90	228.81
888.20	228.81
888.51	228.85
888.82	228.85
889.13	228.77
889.43	228.88
889.74	228.80
890.05	228.77
890.35	228.86
890.66	228.65
890.97	228.70
891.28	228.63
891.58	228.61
891.89	228.68
892.20	228.61
892.50	228.57
892.81	228.60
893.12	228.68
893.42	228.61
893.73	228.53
894.04	228.53
894.34	228.48
894.65	228.34
894.95	228.20
895.26	228.19
895.57	228.28
895.87	228.16
896.18	228.26
896.48	228.18
896.79	228.15
897.10	228.23
897.40	228.19
897.71	228.24
898.01	228.19
898.32	228.20
898.63	228.17
898.93	228.16
899.24	228.10
899.54	227.94
899.85	227.85
900.15	227.84
900.46	227.86
900.76	227.90
901.07	228.02
901.38	228.05
901.68	227.98
901.99	227.89
902.29	227.86
902.60	227.85
902.90	227.91
903.21	227.87
903.51	227.80
903.82	227.76
904.12	227.71
904.43	227.69
904.73	227.62
905.03	227.57
905.34	227.80
905.64	227.74
905.95	227.75
906.25	227.69
906.56	227.76
906.86	227.73
907.17	227.74
907.47	227.69
907.77	227.63
908.08	227.70
908.38	227.73
908.69	227.84
908.99	227.81
909.30	227.75
909.60	227.74
909.90	227.78
910.21	227.88
910.51	227.86
910.81	227.82
911.12	227.85
911.42	227.99
911.73	227.68
912.03	227.73
912.33	227.90
912.64	228.06
912.94	227.97
913.24	228.03
913.55	227.95
913.85	227.89
914.15	227.98
914.46	228.04
914.76	228.00
915.06	227.91
915.37	227.94
915.67	228.07
915.97	228.14
916.27	228.20
916.58	228.23
916.88	228.28
917.18	228.35
917.49	228.47
917.79	228.45
918.09	228.60
918.39	228.70
918.70	228.67
919.00	228.71
919.30	228.92
919.60	228.82
919.91	228.85
920.21	228.95
920.51	228.98
920.81	229.02
921.12	229.10
921.42	229.12
921.72	229.16
922.02	229.11
922.32	229.20
922.63	229.22
922.93	229.18
923.23	229.28
923.53	229.19
923.83	229.00
924.13	229.06
924.44	229.05
924.74	229.06
925.04	229.00
925.34	228.94
925.64	228.70
925.94	228.64
926.24	228.81
926.55	228.88
926.85	228.86
927.15	228.75
927.45	228.64
927.75	228.58
928.05	228.59
928.35	228.56
928.65	228.49
928.95	228.45
929.26	228.47
929.56	228.44
929.86	228.53
930.16	228.59
930.46	228.54
930.76	228.51
931.06	228.30
931.36	228.25
931.66	228.25
931.96	228.35
932.26	228.36
932.56	228.21
932.86	228.10
933.16	228.07
933.46	228.06
933.76	228.11
934.06	228.09
934.36	228.13
934.66	228.10
934.96	227.96
935.26	227.94
935.56	227.90
935.86	227.73
936.16	227.73
936.46	227.62
936.76	227.49
937.06	227.38
937.36	227.43
937.66	227.41
937.96	227.44
938.26	227.35
938.56	227.29
938.86	227.21
939.16	227.32
939.46	227.37
939.76	227.30
940.06	227.22
940.35	227.27
940.65	227.10
940.95	227.13
941.25	227.04
941.55	226.98
941.85	226.92
942.15	227.03
942.45	227.01
942.75	227.14
943.04	227.24
943.34	227.31
943.64	227.26
943.94	227.35
944.24	227.32
944.54	227.38
944.84	227.44
945.13	227.60
945.43	227.48
945.73	227.43
946.03	227.47
946.33	227.54
946.62	227.46
946.92	227.51
947.22	227.49
947.52	227.63
947.82	227.70
948.11	227.78
948.41	227.68
948.71	227.68
949.01	227.70
949.31	227.79
949.60	227.89
949.90	228.05
950.20	228.04
950.50	228.04
950.79	228.10
951.09	228.19
951.39	228.16
951.69	228.27
951.98	228.26
952.28	228.25
952.58	228.30
952.87	228.48
953.17	228.57
953.47	228.65
953.76	228.80
954.06	228.86
954.36	228.85
954.66	228.87
954.95	228.87
955.25	228.84
955.55	228.83
955.84	228.74
956.14	228.75
956.44	228.87
956.73	228.89
957.03	228.89
957.32	228.83
957.62	228.88
957.92	228.94
958.21	229.07
958.51	229.41
958.81	229.42
959.10	229.43
959.40	229.46
959.69	229.54
959.99	229.47
960.29	229.44
960.58	229.43
960.88	229.62
961.17	229.75
961.47	229.73
961.76	229.72
962.06	229.82
962.36	229.80
962.65	229.70
962.95	229.67
963.24	229.61
963.54	229.61
963.83	229.50
964.13	229.46
964.42	229.38
964.72	229.14
965.01	229.11
965.31	228.96
965.60	228.84
965.90	228.88
966.19	228.79
966.49	228.80
966.78	228.79
967.08	228.70
967.37	228.63
967.67	228.55
967.96	228.45
968.26	228.38
968.55	228.39
968.85	228.28
969.14	228.31
969.43	228.34
969.73	228.31
970.02	228.33
970.32	228.33
970.61	228.30
970.91	228.12
971.20	228.19
971.49	228.22
971.79	228.18
972.08	227.91
972.38	227.84
972.67	227.67
972.96	227.61
973.26	227.51
973.55	227.48
973.85	227.46
974.14	227.49
974.43	227.45
974.73	227.32
975.02	227.34
975.31	227.33
975.61	227.20
975.90	227.11
976.19	226.96
976.49	226.78
976.78	226.75
977.07	226.78
977.37	226.68
977.66	226.67
977.95	226.76
978.24	226.80
978.54	226.87
978.83	227.01
979.12	227.12
979.42	227.04
979.71	227.04
980.00	227.00
980.29	226.97
980.59	227.00
980.88	227.04
981.17	227.05
981.46	226.88
981.76	226.95
982.05	227.09
982.34	227.24
982.63	227.35
982.93	227.40
983.22	227.39
983.51	227.39
983.80	227.42
984.09	227.48
984.39	227.44
984.68	227.50
984.97	227.54
985.26	227.47
985.55	227.68
985.85	227.77
986.14	227.89
986.43	227.96
986.72	227.91
987.01	228.02
987.30	228.07
987.59	228.16
987.89	228.19
988.18	228.27
988.47	228.29
988.76	228.33
989.05	228.28
989.34	228.37
989.63	228.47
989.92	228.53
990.22	228.53
990.51	228.70
990.80	228.70
991.09	228.63
991.38	228.74
991.67	228.72
991.96	228.60
992.25	228.70
992.54	228.74
992.83	228.71
993.12	228.65
993.41	228.80
993.70	228.99
993.99	229.08
994.28	229.10
994.58	229.15
994.87	229.17
995.16	229.22
995.45	229.25
995.74	229.30
996.03	229.30
996.32	229.32
996.61	229.36
996.90	229.32
997.19	229.30
997.48	229.28
997.77	229.16
998.06	229.25
998.34	229.10
998.63	229.08
998.92	229.29
999.21	229.29
999.50	229.20
999.79	229.11
1000.08	229.09
1000.37	229.04
1000.66	229.00
1000.95	229.02
1001.24	228.96
1001.53	228.96
1001.82	228.76
1002.11	228.65
1002.40	228.63
1002.68	228.66
1002.97	228.77
1003.26	228.76
1003.55	228.63
1003.84	228.67
1004.13	228.58
1004.42	228.61
1004.71	228.59
1004.99	228.48
1005.28	228.47
1005.57	228.43
1005.86	228.33
1006.15	228.33
1006.44	228.24
1006.72	228.13
1007.01	228.11
1007.30	228.09
1007.59	228.11
1007.88	228.20
1008.17	228.15
1008.45	228.07
1008.74	227.83
1009.03	227.79
1009.32	227.79
1009.60	227.77
1009.89	227.70
1010.18	227.57
1010.47	227.51
1010.76	227.50
1011.04	227.37
1011.33	227.34
1011.62	227.30
1011.91	227.30
1012.19	227.21
1012.48	227.21
1012.77	227.14
1013.05	227.10
1013.34	227.16
1013.63	227.05
1013.92	227.03
1014.20	227.05
1014.49	227.10
1014.78	227.18
1015.06	227.06
1015.35	227.11
1015.64	227.18
1015.92	227.22
1016.21	227.32
1016.50	227.32
1016.78	227.30
1017.07	227.34
1017.36	227.36
1017.64	227.25
1017.93	227.21
1018.22	227.31
1018.50	227.35
1018.79	227.40
1019.08	227.38
1019.36	227.41
1019.65	227.48
1019.93	227.53
1020.22	227.54
1020.51	227.65
1020.79	227.67
1021.08	229.40
1021.36	227.80
1021.65	226.60
1021.94	227.50
1022.22	228.80
1022.51	228.00
1022.79	229.10
1023.08	227.10
1023.36	231.20
1023.65	228.40
>>>>>End Processed Spectral Data<<<<<
