SpectraSuite Data File
++++++++++++++++++++++++++++++++++++
Date: Fri Feb 01 14:35:49 EST 2013
User: group
Dark Spectrum Present: No
Reference Spectrum Present: No
Number of Sampled Component Spectra: 1
Spectrometers: USB2E7196
Integration Time (usec): 70000 (USB2E7196)
Spectra Averaged: 10 (USB2E7196)
Boxcar Smoothing: 10 (USB2E7196)
Correct for Electrical Dark: No (USB2E7196)
Strobe/Lamp Enabled: No (USB2E7196)
Correct for Detector Non-linearity: No (USB2E7196)
Correct for Stray Light: No (USB2E7196)
Number of Pixels in Processed Spectrum: 2048
>>>>>Begin Processed Spectral Data<<<<<
339.09	0.00
339.48	216.90
339.86	216.00
340.24	218.50
340.63	220.80
341.01	224.70
341.39	221.00
341.78	224.50
342.16	226.10
342.54	225.90
342.93	214.39
343.31	225.25
343.69	225.70
344.07	226.19
344.46	226.64
344.84	227.07
345.22	227.16
345.60	227.51
345.99	227.63
346.37	227.71
346.75	227.79
347.13	227.84
347.52	227.82
347.90	227.93
348.28	227.95
348.66	228.20
349.05	228.13
349.43	228.16
349.81	228.07
350.19	228.13
350.57	228.11
350.96	228.19
351.34	228.25
351.72	228.34
352.10	228.47
352.48	228.47
352.87	228.55
353.25	228.69
353.63	228.71
354.01	228.79
354.39	228.90
354.77	228.92
355.15	229.05
355.54	229.25
355.92	229.22
356.30	229.30
356.68	229.46
357.06	229.49
357.44	229.56
357.82	229.64
358.20	229.70
358.58	229.78
358.97	229.89
359.35	229.97
359.73	230.13
360.11	230.17
360.49	230.22
360.87	230.10
361.25	230.12
361.63	230.30
362.01	230.31
362.39	230.40
362.77	230.45
363.15	230.40
363.53	230.38
363.91	230.52
364.29	230.46
364.67	230.27
365.05	230.29
365.43	230.33
365.81	230.39
366.19	230.45
366.57	230.49
366.95	230.37
367.33	230.31
367.71	230.14
368.09	230.20
368.47	230.18
368.85	230.19
369.23	230.11
369.61	229.84
369.99	229.88
370.37	229.68
370.75	229.68
371.13	229.56
371.51	229.43
371.89	229.29
372.27	229.28
372.65	229.16
373.03	229.15
373.41	229.10
373.78	228.92
374.16	228.75
374.54	228.55
374.92	228.49
375.30	228.35
375.68	228.39
376.06	228.33
376.44	228.26
376.82	228.09
377.19	228.10
377.57	228.10
377.95	227.96
378.33	227.92
378.71	227.67
379.09	227.69
379.47	227.70
379.84	227.62
380.22	227.54
380.60	227.40
380.98	227.36
381.36	227.29
381.73	227.32
382.11	227.21
382.49	227.21
382.87	227.18
383.25	227.23
383.62	227.40
384.00	227.23
384.38	227.17
384.76	227.24
385.13	227.17
385.51	227.09
385.89	227.06
386.27	227.01
386.64	227.15
387.02	227.09
387.40	226.99
387.78	226.96
388.15	226.92
388.53	227.00
388.91	226.83
389.29	226.75
389.66	226.66
390.04	226.72
390.42	226.76
390.79	226.68
391.17	226.62
391.55	226.31
391.92	226.34
392.30	226.35
392.68	226.47
393.05	226.54
393.43	226.70
393.81	226.81
394.18	226.87
394.56	226.89
394.94	226.97
395.31	227.02
395.69	227.09
396.06	227.21
396.44	227.33
396.82	227.45
397.19	227.68
397.57	227.77
397.95	227.90
398.32	228.00
398.70	228.13
399.07	228.27
399.45	228.37
399.82	228.59
400.20	228.79
400.58	228.80
400.95	228.79
401.33	228.90
401.70	229.10
402.08	229.26
402.45	229.46
402.83	229.70
403.20	229.94
403.58	230.18
403.95	230.49
404.33	230.68
404.71	230.96
405.08	231.29
405.46	231.56
405.83	231.82
406.21	232.06
406.58	232.46
406.96	232.72
407.33	233.16
407.70	233.48
408.08	234.05
408.45	234.43
408.83	234.92
409.20	235.34
409.58	235.77
409.95	236.29
410.33	236.81
410.70	237.33
411.08	237.98
411.45	238.59
411.82	239.15
412.20	239.94
412.57	240.82
412.95	241.40
413.32	242.28
413.69	243.15
414.07	244.08
414.44	245.06
414.82	246.15
415.19	247.35
415.56	248.64
415.94	249.75
416.31	251.27
416.68	252.85
417.06	254.47
417.43	255.96
417.81	257.75
418.18	259.63
418.55	261.59
418.93	263.55
419.30	265.69
419.67	267.93
420.04	270.20
420.42	272.67
420.79	275.54
421.16	278.43
421.54	281.38
421.91	284.27
422.28	287.48
422.66	290.84
423.03	294.11
423.40	297.38
423.77	300.81
424.15	304.52
424.52	308.40
424.89	312.52
425.26	316.69
425.64	320.56
426.01	324.61
426.38	328.87
426.75	333.37
427.13	337.87
427.50	342.70
427.87	347.55
428.24	352.39
428.61	357.21
428.99	362.51
429.36	368.11
429.73	373.96
430.10	379.48
430.47	385.03
430.85	390.76
431.22	396.83
431.59	403.53
431.96	409.66
432.33	416.35
432.70	422.99
433.08	430.82
433.45	438.10
433.82	445.51
434.19	453.55
434.56	461.43
434.93	469.09
435.30	476.67
435.68	485.26
436.05	493.61
436.42	501.79
436.79	509.09
437.16	517.20
437.53	525.58
437.90	534.00
438.27	542.57
438.64	551.09
439.01	559.18
439.38	566.17
439.75	573.30
440.13	581.28
440.50	589.01
440.87	595.10
441.24	601.77
441.61	608.89
441.98	614.33
442.35	620.63
442.72	627.21
443.09	633.40
443.46	637.14
443.83	639.87
444.20	642.47
444.57	646.22
444.94	648.50
445.31	650.58
445.68	652.83
446.05	654.00
446.42	654.30
446.79	654.33
447.16	654.44
447.53	654.55
447.90	652.35
448.27	650.17
448.64	646.90
449.01	644.74
449.37	640.24
449.74	635.82
450.11	630.06
450.48	623.86
450.85	617.33
451.22	612.44
451.59	607.48
451.96	602.63
452.33	595.72
452.70	589.38
453.07	582.00
453.43	574.23
453.80	566.94
454.17	559.66
454.54	553.01
454.91	545.51
455.28	538.29
455.65	531.72
456.02	524.60
456.38	518.56
456.75	510.93
457.12	504.64
457.49	498.50
457.86	492.75
458.23	487.61
458.59	482.16
458.96	476.27
459.33	471.35
459.70	466.16
460.07	462.01
460.43	457.27
460.80	452.69
461.17	448.61
461.54	444.51
461.91	440.54
462.27	436.12
462.64	432.58
463.01	428.50
463.38	424.66
463.74	421.01
464.11	417.84
464.48	414.99
464.85	411.86
465.21	409.35
465.58	406.80
465.95	403.40
466.32	400.73
466.68	398.03
467.05	395.26
467.42	392.55
467.78	389.77
468.15	387.13
468.52	385.19
468.88	382.79
469.25	380.27
469.62	378.44
469.98	376.61
470.35	374.84
470.72	373.11
471.08	371.11
471.45	369.57
471.82	367.71
472.18	365.85
472.55	364.43
472.92	362.78
473.28	361.09
473.65	359.62
474.02	358.16
474.38	356.79
474.75	355.73
475.11	354.48
475.48	353.59
475.85	352.72
476.21	351.80
476.58	350.93
476.94	350.42
477.31	349.76
477.67	348.93
478.04	348.29
478.41	347.78
478.77	347.40
479.14	346.82
479.50	346.59
479.87	346.39
480.23	346.17
480.60	346.03
480.96	346.02
481.33	346.12
481.69	346.04
482.06	346.10
482.42	345.86
482.79	346.10
483.15	346.21
483.52	346.58
483.88	346.86
484.25	347.13
484.61	347.40
484.98	347.67
485.34	348.21
485.71	348.71
486.07	349.37
486.44	350.06
486.80	350.74
487.17	351.34
487.53	352.29
487.90	353.40
488.26	354.55
488.62	355.47
488.99	356.43
489.35	357.56
489.72	358.68
490.08	360.14
490.44	361.43
490.81	362.85
491.17	363.97
491.54	365.35
491.90	366.75
492.26	368.36
492.63	369.89
492.99	371.54
493.36	373.24
493.72	375.01
494.08	376.58
494.45	378.33
494.81	380.30
495.17	382.12
495.54	384.00
495.90	385.63
496.26	387.60
496.63	389.82
496.99	392.06
497.35	394.26
497.72	396.43
498.08	398.62
498.44	400.84
498.80	403.33
499.17	405.56
499.53	407.92
499.89	410.13
500.26	412.42
500.62	414.58
500.98	416.91
501.34	419.13
501.71	421.61
502.07	423.85
502.43	426.03
502.79	428.14
503.16	430.34
503.52	432.75
503.88	434.82
504.24	436.82
504.60	438.93
504.97	441.03
505.33	442.93
505.69	445.03
506.05	447.00
506.41	448.84
506.78	450.74
507.14	452.60
507.50	454.52
507.86	456.43
508.22	458.36
508.59	460.10
508.95	461.67
509.31	463.35
509.67	465.08
510.03	466.71
510.39	468.33
510.75	469.82
511.12	471.10
511.48	472.67
511.84	473.94
512.20	475.01
512.56	476.13
512.92	477.37
513.28	478.27
513.64	479.20
514.00	480.04
514.37	481.00
514.73	481.79
515.09	482.60
515.45	483.39
515.81	483.85
516.17	484.68
516.53	485.40
516.89	485.97
517.25	486.57
517.61	487.14
517.97	487.67
518.33	487.97
518.69	488.60
519.05	489.12
519.41	489.83
519.77	490.78
520.13	491.56
520.49	492.03
520.85	492.72
521.21	493.30
521.57	494.20
521.93	494.56
522.29	495.29
522.65	495.72
523.01	496.22
523.37	496.96
523.73	497.46
524.09	498.10
524.45	498.67
524.81	499.41
525.17	500.20
525.53	501.06
525.89	501.98
526.25	502.84
526.61	503.65
526.97	504.40
527.33	505.04
527.68	505.90
528.04	506.86
528.40	507.77
528.76	509.20
529.12	510.44
529.48	511.99
529.84	513.24
530.20	514.77
530.56	516.49
530.91	518.26
531.27	519.76
531.63	521.47
531.99	523.16
532.35	524.82
532.71	526.62
533.07	528.38
533.42	530.52
533.78	532.36
534.14	534.26
534.50	536.44
534.86	538.60
535.21	540.72
535.57	543.04
535.93	545.36
536.29	547.65
536.65	549.79
537.00	551.90
537.36	554.43
537.72	556.82
538.08	559.20
538.44	561.55
538.79	564.40
539.15	567.13
539.51	570.03
539.87	572.80
540.22	575.59
540.58	578.74
540.94	581.52
541.29	584.48
541.65	587.61
542.01	590.80
542.37	594.08
542.72	597.15
543.08	600.46
543.44	603.85
543.79	606.69
544.15	610.08
544.51	614.04
544.87	617.51
545.22	621.06
545.58	624.68
545.94	628.18
546.29	631.67
546.65	635.07
547.01	638.53
547.36	642.10
547.72	645.61
548.07	648.95
548.43	652.45
548.79	656.16
549.14	659.68
549.50	662.97
549.86	666.20
550.21	669.74
550.57	673.30
550.92	676.97
551.28	680.77
551.64	684.42
551.99	687.55
552.35	691.07
552.70	694.76
553.06	698.38
553.41	702.00
553.77	705.64
554.13	709.34
554.48	713.19
554.84	716.78
555.19	720.35
555.55	724.10
555.90	727.53
556.26	730.81
556.61	734.34
556.97	738.02
557.32	741.92
557.68	745.50
558.03	749.12
558.39	752.36
558.74	755.99
559.10	759.70
559.45	763.56
559.81	767.32
560.16	770.83
560.52	774.23
560.87	777.99
561.23	781.17
561.58	784.55
561.94	787.59
562.29	790.95
562.64	794.37
563.00	797.77
563.35	801.50
563.71	805.13
564.06	808.62
564.42	812.11
564.77	815.24
565.12	818.89
565.48	822.24
565.83	825.20
566.19	828.30
566.54	831.15
566.89	834.05
567.25	836.71
567.60	840.01
567.96	843.09
568.31	845.81
568.66	848.40
569.02	851.37
569.37	854.12
569.72	856.94
570.08	859.37
570.43	861.72
570.78	863.83
571.14	866.08
571.49	868.43
571.84	870.90
572.20	872.96
572.55	874.57
572.90	876.28
573.26	878.76
573.61	880.64
573.96	882.40
574.31	883.64
574.67	885.03
575.02	885.88
575.37	886.94
575.72	888.06
576.08	889.57
576.43	890.25
576.78	891.52
577.13	892.48
577.49	893.85
577.84	894.97
578.19	895.88
578.54	896.70
578.90	897.46
579.25	897.63
579.60	898.25
579.95	899.03
580.30	899.61
580.66	899.57
581.01	899.91
581.36	900.27
581.71	900.82
582.06	901.46
582.42	901.58
582.77	901.95
583.12	902.13
583.47	902.42
583.82	902.87
584.17	902.76
584.53	902.83
584.88	902.80
585.23	902.48
585.58	902.45
585.93	902.36
586.28	902.33
586.63	902.31
586.98	902.17
587.34	902.12
587.69	901.89
588.04	901.91
588.39	901.61
588.74	900.86
589.09	900.40
589.44	899.46
589.79	898.96
590.14	898.35
590.49	897.51
590.84	896.53
591.19	895.54
591.54	894.40
591.89	893.10
592.25	891.87
592.60	890.76
592.95	889.37
593.30	887.99
593.65	886.40
594.00	885.09
594.35	884.08
594.70	882.14
595.05	880.87
595.40	879.32
595.75	877.56
596.10	876.43
596.45	875.21
596.80	874.29
597.15	873.06
597.50	871.50
597.85	870.42
598.19	868.97
598.54	867.86
598.89	866.56
599.24	865.59
599.59	863.93
599.94	862.48
600.29	861.03
600.64	859.47
600.99	857.97
601.34	856.40
601.69	854.34
602.04	852.76
602.39	850.74
602.74	849.24
603.08	848.05
603.43	846.32
603.78	844.52
604.13	842.41
604.48	840.53
604.83	838.86
605.18	837.12
605.53	835.31
605.87	833.06
606.22	831.16
606.57	829.23
606.92	827.60
607.27	825.52
607.62	823.82
607.96	822.05
608.31	819.94
608.66	817.62
609.01	815.28
609.36	812.91
609.70	810.40
610.05	807.91
610.40	805.47
610.75	803.06
611.10	800.40
611.44	797.47
611.79	795.06
612.14	792.20
612.49	789.10
612.83	786.18
613.18	783.75
613.53	781.23
613.88	777.93
614.22	775.02
614.57	772.04
614.92	769.02
615.27	766.25
615.61	763.35
615.96	760.53
616.31	758.23
616.65	755.81
617.00	753.50
617.35	750.82
617.70	747.86
618.04	744.71
618.39	742.00
618.74	739.69
619.08	736.87
619.43	734.19
619.78	731.88
620.12	729.34
620.47	726.18
620.82	723.21
621.16	720.59
621.51	718.06
621.85	715.46
622.20	712.81
622.55	710.11
622.89	707.71
623.24	705.37
623.59	702.53
623.93	700.11
624.28	697.33
624.62	694.77
624.97	692.22
625.32	690.04
625.66	687.64
626.01	685.11
626.35	682.54
626.70	680.07
627.04	677.31
627.39	674.71
627.73	672.32
628.08	669.70
628.43	667.32
628.77	664.71
629.12	662.07
629.46	659.49
629.81	656.71
630.15	653.86
630.50	650.96
630.84	648.14
631.19	645.03
631.53	642.29
631.88	639.30
632.22	636.37
632.57	633.58
632.91	630.81
633.26	628.08
633.60	625.40
633.95	622.82
634.29	620.32
634.64	617.94
634.98	615.28
635.32	612.98
635.67	610.61
636.01	607.96
636.36	605.50
636.70	603.06
637.05	600.70
637.39	598.50
637.73	596.24
638.08	594.09
638.42	592.07
638.77	589.87
639.11	587.55
639.45	585.15
639.80	582.76
640.14	580.24
640.49	577.97
640.83	575.46
641.17	572.98
641.52	570.46
641.86	568.00
642.20	565.83
642.55	563.42
642.89	561.11
643.23	558.76
643.58	556.77
643.92	554.26
644.26	552.08
644.61	549.70
644.95	547.51
645.29	544.90
645.64	542.25
645.98	539.83
646.32	537.77
646.66	535.62
647.01	533.40
647.35	531.29
647.69	528.82
648.04	526.95
648.38	524.61
648.72	522.19
649.06	519.73
649.41	517.52
649.75	515.01
650.09	512.46
650.43	510.12
650.78	507.54
651.12	505.14
651.46	502.59
651.80	500.30
652.14	497.87
652.49	495.90
652.83	493.82
653.17	491.47
653.51	489.08
653.85	486.85
654.20	484.45
654.54	482.14
654.88	479.83
655.22	477.19
655.56	474.79
655.90	472.63
656.25	470.41
656.59	468.06
656.93	465.88
657.27	463.71
657.61	461.43
657.95	459.51
658.29	457.59
658.64	455.58
658.98	453.27
659.32	451.03
659.66	448.60
660.00	446.52
660.34	444.44
660.68	442.36
661.02	440.15
661.36	438.36
661.70	436.43
662.05	434.52
662.39	432.83
662.73	431.17
663.07	429.50
663.41	427.83
663.75	426.10
664.09	424.29
664.43	422.44
664.77	420.79
665.11	419.06
665.45	417.36
665.79	415.52
666.13	414.00
666.47	412.39
666.81	410.77
667.15	409.06
667.49	407.58
667.83	406.02
668.17	404.46
668.51	402.75
668.85	400.95
669.19	399.55
669.53	397.70
669.87	395.91
670.21	394.32
670.55	392.66
670.89	391.16
671.23	389.85
671.57	388.40
671.91	386.80
672.25	385.12
672.58	383.63
672.92	382.30
673.26	380.85
673.60	379.54
673.94	378.31
674.28	376.99
674.62	375.70
674.96	374.30
675.30	373.23
675.64	371.98
675.97	370.93
676.31	369.68
676.65	368.58
676.99	367.63
677.33	366.28
677.67	365.10
678.01	363.71
678.34	362.36
678.68	361.17
679.02	360.19
679.36	359.17
679.70	357.99
680.04	356.80
680.37	355.62
680.71	354.36
681.05	353.23
681.39	352.17
681.73	350.95
682.06	349.93
682.40	348.83
682.74	347.64
683.08	346.50
683.42	345.46
683.75	344.33
684.09	343.14
684.43	342.03
684.77	340.93
685.10	339.93
685.44	338.92
685.78	337.81
686.12	336.70
686.45	335.59
686.79	334.53
687.13	333.52
687.46	332.43
687.80	331.45
688.14	330.32
688.48	329.29
688.81	328.25
689.15	327.32
689.49	326.18
689.82	325.25
690.16	324.15
690.50	322.99
690.83	322.02
691.17	320.88
691.51	319.87
691.84	319.05
692.18	318.03
692.52	317.14
692.85	316.33
693.19	315.42
693.52	314.35
693.86	313.41
694.20	312.41
694.53	311.56
694.87	310.48
695.21	309.55
695.54	308.52
695.88	307.55
696.21	306.45
696.55	305.59
696.88	304.74
697.22	303.87
697.56	303.09
697.89	302.21
698.23	301.57
698.56	300.85
698.90	299.98
699.23	299.16
699.57	298.34
699.90	297.53
700.24	296.68
700.58	295.92
700.91	295.17
701.25	294.57
701.58	293.87
701.92	293.28
702.25	292.66
702.59	292.04
702.92	291.46
703.26	290.80
703.59	290.09
703.93	289.52
704.26	288.92
704.60	288.40
704.93	287.82
705.26	287.06
705.60	286.42
705.93	285.80
706.27	285.39
706.60	284.89
706.94	284.23
707.27	283.69
707.61	283.24
707.94	282.70
708.27	282.07
708.61	281.38
708.94	280.81
709.28	280.10
709.61	279.59
709.94	279.15
710.28	278.73
710.61	278.25
710.95	277.43
711.28	276.91
711.61	276.26
711.95	275.69
712.28	275.22
712.61	274.66
712.95	274.16
713.28	273.66
713.61	273.00
713.95	272.47
714.28	271.93
714.61	271.25
714.95	270.74
715.28	270.22
715.61	269.74
715.95	269.35
716.28	269.00
716.61	268.59
716.95	268.01
717.28	267.53
717.61	266.99
717.94	266.66
718.28	266.14
718.61	265.69
718.94	265.28
719.27	264.92
719.61	264.62
719.94	264.42
720.27	264.00
720.60	263.68
720.94	263.36
721.27	263.10
721.60	262.95
721.93	262.73
722.27	262.54
722.60	262.19
722.93	261.76
723.26	261.45
723.59	261.10
723.93	260.90
724.26	260.66
724.59	260.50
724.92	260.20
725.25	259.99
725.59	259.67
725.92	259.45
726.25	259.18
726.58	258.93
726.91	258.55
727.24	258.33
727.57	258.08
727.91	257.71
728.24	257.44
728.57	257.10
728.90	256.83
729.23	256.42
729.56	256.28
729.89	256.07
730.22	255.84
730.55	255.61
730.89	255.34
731.22	255.05
731.55	254.71
731.88	254.50
732.21	254.24
732.54	253.89
732.87	253.57
733.20	253.21
733.53	252.95
733.86	252.66
734.19	252.32
734.52	252.14
734.85	252.11
735.18	251.82
735.51	251.66
735.84	251.48
736.17	251.22
736.50	251.00
736.83	251.02
737.16	250.75
737.49	250.50
737.82	250.10
738.15	250.03
738.48	249.79
738.81	249.52
739.14	249.23
739.47	249.11
739.80	248.90
740.13	248.75
740.46	248.45
740.79	248.25
741.12	248.04
741.45	247.77
741.78	247.44
742.11	247.26
742.44	246.91
742.77	246.61
743.10	246.55
743.43	246.26
743.75	245.79
744.08	245.78
744.41	245.50
744.74	245.43
745.07	244.95
745.40	244.77
745.73	244.68
746.06	244.45
746.39	244.22
746.71	244.05
747.04	243.83
747.37	243.59
747.70	243.43
748.03	243.21
748.36	242.95
748.68	242.79
749.01	242.68
749.34	242.45
749.67	242.27
750.00	242.02
750.33	241.94
750.65	241.83
750.98	241.49
751.31	241.30
751.64	241.07
751.97	241.07
752.29	240.96
752.62	240.71
752.95	240.65
753.28	240.48
753.60	240.39
753.93	240.39
754.26	240.38
754.59	240.14
754.91	239.96
755.24	239.85
755.57	239.65
755.90	239.47
756.22	239.51
756.55	239.33
756.88	239.10
757.20	238.97
757.53	238.72
757.86	238.70
758.19	238.64
758.51	238.60
758.84	238.41
759.17	238.28
759.49	238.24
759.82	238.23
760.15	238.25
760.47	238.12
760.80	237.91
761.13	237.83
761.45	237.74
761.78	237.69
762.11	237.55
762.43	237.53
762.76	237.47
763.08	237.41
763.41	237.31
763.74	237.28
764.06	237.16
764.39	237.26
764.71	237.16
765.04	237.11
765.37	237.03
765.69	237.04
766.02	236.98
766.34	236.92
766.67	236.75
767.00	236.65
767.32	236.70
767.65	236.80
767.97	236.66
768.30	236.61
768.62	236.56
768.95	236.58
769.27	236.49
769.60	236.47
769.92	236.32
770.25	236.33
770.57	236.23
770.90	236.17
771.22	236.07
771.55	235.93
771.87	235.83
772.20	235.80
772.52	235.83
772.85	236.08
773.17	235.89
773.50	235.83
773.82	235.77
774.15	235.59
774.47	235.40
774.80	235.33
775.12	235.28
775.45	235.22
775.77	235.13
776.09	235.09
776.42	235.07
776.74	235.04
777.07	234.94
777.39	234.89
777.72	234.76
778.04	234.60
778.36	234.48
778.69	234.39
779.01	234.15
779.33	233.87
779.66	233.49
779.98	233.46
780.31	233.40
780.63	233.38
780.95	233.30
781.28	233.21
781.60	233.10
781.92	232.95
782.25	232.80
782.57	232.69
782.89	232.64
783.22	232.43
783.54	232.35
783.86	232.31
784.19	232.28
784.51	232.26
784.83	232.18
785.16	232.13
785.48	232.17
785.80	232.15
786.12	232.16
786.45	232.07
786.77	231.96
787.09	231.85
787.42	231.79
787.74	231.70
788.06	231.55
788.38	231.57
788.71	231.53
789.03	231.62
789.35	231.60
789.67	231.45
789.99	231.37
790.32	231.30
790.64	231.28
790.96	231.32
791.28	231.32
791.61	231.36
791.93	231.39
792.25	231.22
792.57	231.35
792.89	231.26
793.21	231.31
793.54	231.40
793.86	231.44
794.18	231.34
794.50	231.30
794.82	231.35
795.14	231.25
795.47	231.22
795.79	231.06
796.11	231.05
796.43	231.08
796.75	231.10
797.07	231.05
797.39	231.07
797.71	231.01
798.04	230.92
798.36	230.82
798.68	230.76
799.00	230.81
799.32	230.76
799.64	230.82
799.96	230.83
800.28	230.71
800.60	230.64
800.92	230.71
801.24	230.80
801.56	230.90
801.89	230.97
802.21	231.07
802.53	231.10
802.85	231.19
803.17	231.28
803.49	231.22
803.81	231.19
804.13	231.18
804.45	231.15
804.77	231.26
805.09	231.29
805.41	231.36
805.73	231.30
806.05	231.21
806.37	231.22
806.69	231.11
807.01	231.19
807.33	231.28
807.65	231.29
807.97	231.28
808.28	231.13
808.60	231.11
808.92	231.07
809.24	231.16
809.56	231.13
809.88	231.08
810.20	231.07
810.52	231.16
810.84	231.00
811.16	230.88
811.48	230.82
811.80	230.82
812.12	230.82
812.43	230.88
812.75	230.89
813.07	230.89
813.39	230.93
813.71	230.94
814.03	230.80
814.35	230.65
814.67	230.59
814.98	230.49
815.30	230.49
815.62	230.49
815.94	230.36
816.26	230.40
816.58	230.30
816.89	230.31
817.21	230.22
817.53	230.25
817.85	230.31
818.17	230.29
818.48	230.25
818.80	230.27
819.12	230.07
819.44	229.94
819.76	229.81
820.07	229.78
820.39	229.71
820.71	229.69
821.03	229.70
821.34	229.59
821.66	229.59
821.98	229.60
822.30	229.50
822.61	229.61
822.93	229.39
823.25	229.46
823.57	229.41
823.88	229.40
824.20	229.31
824.52	229.26
824.83	229.17
825.15	229.09
825.47	228.90
825.79	229.04
826.10	229.05
826.42	229.00
826.74	228.94
827.05	228.84
827.37	228.86
827.69	228.85
828.00	228.90
828.32	228.86
828.64	228.69
828.95	228.73
829.27	228.61
829.58	228.66
829.90	228.61
830.22	228.64
830.53	228.51
830.85	228.63
831.17	228.58
831.48	228.56
831.80	228.59
832.11	228.59
832.43	228.46
832.75	228.44
833.06	228.52
833.38	228.43
833.69	228.53
834.01	228.47
834.32	228.39
834.64	228.35
834.96	228.41
835.27	228.41
835.59	228.41
835.90	228.37
836.22	228.44
836.53	228.35
836.85	228.35
837.16	228.51
837.48	228.50
837.79	228.55
838.11	228.61
838.42	228.63
838.74	228.73
839.05	228.79
839.37	228.71
839.68	228.70
840.00	228.72
840.31	228.78
840.63	228.78
840.94	228.80
841.26	228.75
841.57	228.72
841.88	228.80
842.20	228.79
842.51	228.80
842.83	228.65
843.14	228.93
843.46	228.89
843.77	228.82
844.08	228.74
844.40	228.72
844.71	228.69
845.03	228.67
845.34	228.58
845.65	228.58
845.97	228.74
846.28	228.71
846.60	228.81
846.91	228.74
847.22	228.93
847.54	229.00
847.85	229.12
848.16	229.20
848.48	229.18
848.79	229.26
849.10	229.25
849.42	229.28
849.73	229.03
850.04	229.10
850.36	228.93
850.67	228.99
850.98	228.96
851.30	228.91
851.61	228.94
851.92	228.96
852.23	229.10
852.55	229.00
852.86	229.07
853.17	229.02
853.49	229.19
853.80	229.09
854.11	229.14
854.42	229.19
854.74	229.16
855.05	229.23
855.36	229.14
855.67	229.20
855.99	229.24
856.30	229.53
856.61	229.50
856.92	229.57
857.23	229.61
857.55	229.60
857.86	229.66
858.17	229.66
858.48	229.56
858.79	229.40
859.11	229.50
859.42	229.45
859.73	229.41
860.04	229.20
860.35	229.07
860.66	228.92
860.98	228.80
861.29	228.88
861.60	228.77
861.91	228.75
862.22	228.65
862.53	228.53
862.84	228.19
863.16	228.20
863.47	228.16
863.78	228.07
864.09	228.00
864.40	227.99
864.71	227.98
865.02	228.04
865.33	227.98
865.64	227.88
865.95	227.77
866.27	227.87
866.58	227.85
866.89	227.95
867.20	227.93
867.51	227.89
867.82	227.75
868.13	227.77
868.44	227.76
868.75	227.80
869.06	227.83
869.37	227.80
869.68	227.63
869.99	227.58
870.30	227.58
870.61	227.75
870.92	227.74
871.23	227.61
871.54	227.68
871.85	227.81
872.16	227.87
872.47	227.86
872.78	227.77
873.09	227.78
873.40	227.74
873.71	227.74
874.02	227.77
874.33	227.76
874.64	227.75
874.95	227.77
875.26	227.77
875.56	227.74
875.87	227.82
876.18	227.91
876.49	228.27
876.80	228.21
877.11	228.10
877.42	228.11
877.73	228.30
878.04	228.33
878.35	228.27
878.66	228.29
878.96	228.42
879.27	228.47
879.58	228.47
879.89	228.49
880.20	228.63
880.51	228.70
880.82	228.70
881.12	228.71
881.43	228.77
881.74	228.75
882.05	228.94
882.36	228.90
882.67	228.96
882.97	228.74
883.28	228.84
883.59	228.91
883.90	229.02
884.21	229.05
884.51	228.96
884.82	228.94
885.13	228.92
885.44	228.91
885.74	228.80
886.05	228.83
886.36	228.90
886.67	228.87
886.98	228.89
887.28	229.00
887.59	229.03
887.90	229.02
888.20	229.00
888.51	228.96
888.82	228.97
889.13	229.00
889.43	229.10
889.74	229.05
890.05	228.97
890.35	228.89
890.66	228.73
890.97	228.72
891.28	228.72
891.58	228.76
891.89	228.69
892.20	228.74
892.50	228.75
892.81	228.59
893.12	228.44
893.42	228.40
893.73	228.27
894.04	228.33
894.34	228.26
894.65	228.23
894.95	228.25
895.26	228.23
895.57	228.31
895.87	228.18
896.18	228.21
896.48	228.17
896.79	228.05
897.10	228.07
897.40	228.05
897.71	228.13
898.01	228.10
898.32	228.16
898.63	228.11
898.93	228.07
899.24	228.07
899.54	228.06
899.85	228.00
900.15	228.07
900.46	228.06
900.76	228.00
901.07	227.96
901.38	227.86
901.68	227.85
901.99	227.64
902.29	227.52
902.60	227.45
902.90	227.49
903.21	227.46
903.51	227.30
903.82	227.43
904.12	227.23
904.43	227.17
904.73	227.07
905.03	227.11
905.34	227.21
905.64	227.27
905.95	227.31
906.25	227.31
906.56	227.26
906.86	227.20
907.17	227.10
907.47	227.13
907.77	227.11
908.08	227.06
908.38	227.10
908.69	227.12
908.99	227.17
909.30	227.16
909.60	227.26
909.90	227.41
910.21	227.31
910.51	227.44
910.81	227.31
911.12	227.39
911.42	227.41
911.73	227.22
912.03	227.28
912.33	227.29
912.64	227.26
912.94	227.30
913.24	227.23
913.55	227.30
913.85	227.28
914.15	227.33
914.46	227.38
914.76	227.49
915.06	227.55
915.37	227.61
915.67	227.50
915.97	227.55
916.27	227.60
916.58	227.57
916.88	227.48
917.18	227.67
917.49	227.78
917.79	227.75
918.09	227.83
918.39	227.85
918.70	227.89
919.00	227.94
919.30	228.01
919.60	228.09
919.91	228.18
920.21	228.16
920.51	228.13
920.81	228.12
921.12	228.14
921.42	228.15
921.72	228.09
922.02	228.24
922.32	228.31
922.63	228.17
922.93	228.30
923.23	228.31
923.53	228.30
923.83	228.16
924.13	228.21
924.44	228.32
924.74	228.31
925.04	228.36
925.34	228.48
925.64	228.45
925.94	228.43
926.24	228.58
926.55	228.69
926.85	228.79
927.15	228.84
927.45	228.84
927.75	228.94
928.05	228.85
928.35	228.83
928.65	228.85
928.95	228.97
929.26	228.87
929.56	228.93
929.86	229.00
930.16	229.06
930.46	229.09
930.76	229.10
931.06	229.06
931.36	229.03
931.66	228.96
931.96	228.96
932.26	228.99
932.56	228.74
932.86	228.74
933.16	228.62
933.46	228.58
933.76	228.49
934.06	228.47
934.36	228.61
934.66	228.63
934.96	228.50
935.26	228.44
935.56	228.51
935.86	228.59
936.16	228.43
936.46	228.27
936.76	228.20
937.06	228.13
937.36	228.11
937.66	228.13
937.96	228.09
938.26	228.02
938.56	227.99
938.86	228.06
939.16	228.02
939.46	228.10
939.76	228.18
940.06	228.13
940.35	228.08
940.65	227.95
940.95	227.93
941.25	227.90
941.55	227.92
941.85	227.78
942.15	227.66
942.45	227.77
942.75	227.93
943.04	227.83
943.34	227.88
943.64	227.82
943.94	227.72
944.24	227.69
944.54	227.70
944.84	227.70
945.13	227.64
945.43	227.62
945.73	227.59
946.03	227.51
946.33	227.51
946.62	227.43
946.92	227.45
947.22	227.50
947.52	227.54
947.82	227.56
948.11	227.71
948.41	227.78
948.71	227.70
949.01	227.72
949.31	227.77
949.60	227.69
949.90	227.82
950.20	227.82
950.50	227.88
950.79	227.82
951.09	227.87
951.39	227.93
951.69	227.99
951.98	228.08
952.28	228.20
952.58	228.20
952.87	228.32
953.17	228.41
953.47	228.33
953.76	228.39
954.06	228.40
954.36	228.29
954.66	228.30
954.95	228.37
955.25	228.41
955.55	228.54
955.84	228.52
956.14	228.50
956.44	228.60
956.73	228.57
957.03	228.68
957.32	228.78
957.62	228.85
957.92	228.79
958.21	228.76
958.51	228.76
958.81	228.84
959.10	228.89
959.40	228.88
959.69	228.91
959.99	228.90
960.29	228.96
960.58	229.00
960.88	229.03
961.17	229.00
961.47	228.87
961.76	228.76
962.06	228.83
962.36	228.85
962.65	228.80
962.95	228.92
963.24	228.75
963.54	228.53
963.83	228.44
964.13	228.55
964.42	228.51
964.72	228.42
965.01	228.35
965.31	228.34
965.60	228.42
965.90	228.58
966.19	228.58
966.49	228.47
966.78	228.35
967.08	228.28
967.37	228.36
967.67	228.31
967.96	228.38
968.26	228.33
968.55	228.36
968.85	228.36
969.14	228.22
969.43	228.26
969.73	228.34
970.02	228.39
970.32	228.39
970.61	228.30
970.91	228.25
971.20	228.21
971.49	228.11
971.79	228.04
972.08	227.85
972.38	227.78
972.67	227.70
972.96	227.72
973.26	227.79
973.55	227.67
973.85	227.71
974.14	227.68
974.43	227.65
974.73	227.60
975.02	227.53
975.31	227.50
975.61	227.47
975.90	227.41
976.19	227.28
976.49	227.16
976.78	227.23
977.07	227.34
977.37	227.37
977.66	227.37
977.95	227.24
978.24	227.25
978.54	227.33
978.83	227.42
979.12	227.41
979.42	227.23
979.71	227.37
980.00	227.30
980.29	227.30
980.59	227.36
980.88	227.37
981.17	227.40
981.46	227.40
981.76	227.49
982.05	227.60
982.34	227.74
982.63	227.84
982.93	227.92
983.22	227.85
983.51	227.92
983.80	227.98
984.09	228.20
984.39	228.18
984.68	228.21
984.97	228.15
985.26	228.25
985.55	228.43
985.85	228.29
986.14	228.36
986.43	228.39
986.72	228.33
987.01	228.31
987.30	228.40
987.59	228.42
987.89	228.42
988.18	228.35
988.47	228.37
988.76	228.36
989.05	228.32
989.34	228.37
989.63	228.42
989.92	228.41
990.22	228.25
990.51	228.29
990.80	228.18
991.09	228.22
991.38	228.26
991.67	228.22
991.96	228.24
992.25	228.33
992.54	228.40
992.83	228.44
993.12	228.49
993.41	228.49
993.70	228.66
993.99	228.68
994.28	228.64
994.58	228.60
994.87	228.56
995.16	228.52
995.45	228.48
995.74	228.46
996.03	228.49
996.32	228.65
996.61	228.75
996.90	228.79
997.19	228.83
997.48	228.84
997.77	228.77
998.06	228.81
998.34	228.77
998.63	228.70
998.92	228.73
999.21	228.71
999.50	228.66
999.79	228.53
1000.08	228.56
1000.37	228.64
1000.66	228.63
1000.95	228.73
1001.24	228.73
1001.53	228.84
1001.82	228.71
1002.11	228.65
1002.40	228.58
1002.68	228.56
1002.97	228.77
1003.26	228.71
1003.55	228.70
1003.84	228.78
1004.13	228.81
1004.42	228.70
1004.71	228.74
1004.99	228.70
1005.28	228.81
1005.57	228.75
1005.86	228.66
1006.15	228.59
1006.44	228.54
1006.72	228.55
1007.01	228.48
1007.30	228.45
1007.59	228.40
1007.88	228.43
1008.17	228.44
1008.45	228.34
1008.74	228.29
1009.03	228.12
1009.32	228.08
1009.60	228.01
1009.89	228.03
1010.18	227.99
1010.47	228.00
1010.76	227.96
1011.04	227.92
1011.33	227.81
1011.62	227.86
1011.91	227.90
1012.19	227.94
1012.48	227.94
1012.77	227.81
1013.05	227.83
1013.34	227.79
1013.63	227.69
1013.92	227.68
1014.20	227.56
1014.49	227.53
1014.78	227.46
1015.06	227.43
1015.35	227.44
1015.64	227.45
1015.92	227.34
1016.21	227.31
1016.50	227.34
1016.78	227.41
1017.07	227.37
1017.36	227.42
1017.64	227.37
1017.93	227.40
1018.22	227.40
1018.50	227.43
1018.79	227.52
1019.08	227.48
1019.36	227.48
1019.65	227.55
1019.93	227.59
1020.22	227.61
1020.51	227.83
1020.79	227.80
1021.08	228.80
1021.36	228.30
1021.65	227.40
1021.94	228.50
1022.22	226.60
1022.51	228.30
1022.79	228.00
1023.08	226.20
1023.36	231.40
1023.65	226.40
>>>>>End Processed Spectral Data<<<<<
