SpectraSuite Data File
++++++++++++++++++++++++++++++++++++
Date: Fri Feb 01 14:42:07 EST 2013
User: group
Dark Spectrum Present: No
Reference Spectrum Present: No
Number of Sampled Component Spectra: 1
Spectrometers: USB2E7196
Integration Time (usec): 70000 (USB2E7196)
Spectra Averaged: 10 (USB2E7196)
Boxcar Smoothing: 10 (USB2E7196)
Correct for Electrical Dark: No (USB2E7196)
Strobe/Lamp Enabled: No (USB2E7196)
Correct for Detector Non-linearity: No (USB2E7196)
Correct for Stray Light: No (USB2E7196)
Number of Pixels in Processed Spectrum: 2048
>>>>>Begin Processed Spectral Data<<<<<
339.09	0.00
339.48	213.80
339.86	218.00
340.24	218.80
340.63	219.30
341.01	224.80
341.39	223.10
341.78	225.20
342.16	225.50
342.54	226.00
342.93	214.52
343.31	225.38
343.69	226.04
344.07	226.50
344.46	227.01
344.84	227.51
345.22	227.66
345.60	227.96
345.99	228.12
346.37	228.31
346.75	228.38
347.13	228.56
347.52	228.60
347.90	228.71
348.28	228.79
348.66	228.81
349.05	228.91
349.43	228.79
349.81	228.87
350.19	228.88
350.57	228.90
350.96	229.07
351.34	229.16
351.72	229.31
352.10	229.40
352.48	229.38
352.87	229.38
353.25	229.46
353.63	229.40
354.01	229.40
354.39	229.41
354.77	229.51
355.15	229.54
355.54	229.60
355.92	229.59
356.30	229.64
356.68	229.96
357.06	230.05
357.44	230.12
357.82	230.15
358.20	230.21
358.58	230.24
358.97	230.31
359.35	230.41
359.73	230.35
360.11	230.40
360.49	230.48
360.87	230.59
361.25	230.66
361.63	230.83
362.01	230.87
362.39	230.91
362.77	230.98
363.15	230.93
363.53	231.05
363.91	231.10
364.29	231.10
364.67	230.81
365.05	230.77
365.43	230.83
365.81	230.87
366.19	230.91
366.57	230.97
366.95	230.87
367.33	230.75
367.71	230.78
368.09	230.67
368.47	230.65
368.85	230.52
369.23	230.47
369.61	230.37
369.99	230.38
370.37	230.34
370.75	230.37
371.13	230.36
371.51	230.23
371.89	230.13
372.27	230.13
372.65	230.12
373.03	230.10
373.41	229.95
373.78	229.90
374.16	229.79
374.54	229.70
374.92	229.63
375.30	229.67
375.68	229.58
376.06	229.61
376.44	229.48
376.82	229.43
377.19	229.44
377.57	229.37
377.95	229.21
378.33	229.12
378.71	229.01
379.09	228.95
379.47	228.85
379.84	228.79
380.22	228.55
380.60	228.45
380.98	228.30
381.36	228.30
381.73	228.15
382.11	228.11
382.49	228.03
382.87	228.00
383.25	227.89
383.62	228.05
384.00	228.04
384.38	228.02
384.76	228.03
385.13	228.02
385.51	227.98
385.89	227.98
386.27	228.01
386.64	227.96
387.02	227.83
387.40	227.84
387.78	227.84
388.15	227.94
388.53	227.92
388.91	227.94
389.29	227.89
389.66	228.08
390.04	228.09
390.42	228.12
390.79	228.17
391.17	228.23
391.55	228.14
391.92	228.14
392.30	228.10
392.68	228.08
393.05	228.10
393.43	228.18
393.81	228.29
394.18	228.27
394.56	228.35
394.94	228.58
395.31	228.70
395.69	228.78
396.06	228.94
396.44	229.01
396.82	229.10
397.19	229.39
397.57	229.31
397.95	229.41
398.32	229.50
398.70	229.60
399.07	229.73
399.45	229.73
399.82	229.79
400.20	229.96
400.58	230.10
400.95	230.08
401.33	230.26
401.70	230.55
402.08	230.66
402.45	230.80
402.83	231.09
403.20	231.21
403.58	231.36
403.95	231.60
404.33	231.92
404.71	232.20
405.08	232.43
405.46	232.72
405.83	232.97
406.21	233.16
406.58	233.38
406.96	233.62
407.33	233.94
407.70	234.23
408.08	234.77
408.45	235.21
408.83	235.63
409.20	235.94
409.58	236.15
409.95	236.63
410.33	237.08
410.70	237.38
411.08	237.83
411.45	238.38
411.82	238.75
412.20	239.27
412.57	239.96
412.95	240.31
413.32	240.96
413.69	241.55
414.07	242.20
414.44	243.04
414.82	243.71
415.19	244.69
415.56	245.63
415.94	246.48
416.31	247.28
416.68	248.32
417.06	249.43
417.43	250.53
417.81	251.66
418.18	252.84
418.55	254.02
418.93	255.43
419.30	256.76
419.67	258.20
420.04	259.71
420.42	261.12
420.79	263.17
421.16	264.98
421.54	266.96
421.91	268.83
422.28	270.68
422.66	272.84
423.03	274.85
423.40	276.95
423.77	279.17
424.15	281.46
424.52	283.73
424.89	286.29
425.26	288.71
425.64	291.10
426.01	293.59
426.38	296.38
426.75	299.00
427.13	301.72
427.50	304.64
427.87	307.57
428.24	310.57
428.61	313.12
428.99	316.17
429.36	319.32
429.73	322.71
430.10	326.01
430.47	329.24
430.85	332.39
431.22	335.76
431.59	339.55
431.96	343.17
432.33	347.16
432.70	350.70
433.08	355.20
433.45	359.36
433.82	363.32
434.19	367.70
434.56	372.24
434.93	376.48
435.30	380.55
435.68	385.03
436.05	389.50
436.42	394.10
436.79	398.26
437.16	402.79
437.53	407.17
437.90	411.58
438.27	415.90
438.64	420.48
439.01	424.81
439.38	428.28
439.75	431.78
440.13	435.70
440.50	439.64
440.87	442.63
441.24	445.70
441.61	449.19
441.98	451.57
442.35	454.26
442.72	457.20
443.09	460.07
443.46	461.60
443.83	462.35
444.20	462.95
444.57	464.16
444.94	464.48
445.31	464.98
445.68	465.59
446.05	465.75
446.42	465.08
446.79	464.19
447.16	463.45
447.53	462.75
447.90	460.88
448.27	458.91
448.64	456.33
449.01	454.53
449.37	451.44
449.74	448.44
450.11	444.91
450.48	440.92
450.85	436.87
451.22	433.48
451.59	430.27
451.96	427.25
452.33	423.03
452.70	419.24
453.07	415.00
453.43	410.29
453.80	405.81
454.17	401.48
454.54	397.43
454.91	393.14
455.28	389.00
455.65	385.10
456.02	381.30
456.38	377.88
456.75	373.60
457.12	370.11
457.49	366.62
457.86	363.18
458.23	360.39
458.59	357.19
458.96	353.96
459.33	351.15
459.70	348.26
460.07	345.82
460.43	343.09
460.80	340.32
461.17	338.03
461.54	335.67
461.91	333.46
462.27	331.28
462.64	329.31
463.01	327.03
463.38	324.99
463.74	322.68
464.11	320.69
464.48	319.10
464.85	317.32
465.21	315.78
465.58	314.16
465.95	312.22
466.32	310.75
466.68	309.17
467.05	307.72
467.42	306.19
467.78	304.67
468.15	303.29
468.52	302.11
468.88	300.77
469.25	299.53
469.62	298.58
469.98	297.39
470.35	296.21
470.72	295.37
471.08	294.27
471.45	293.44
471.82	292.62
472.18	291.55
472.55	290.68
472.92	289.86
473.28	289.08
473.65	288.50
474.02	287.70
474.38	287.19
474.75	286.63
475.11	285.96
475.48	285.54
475.85	285.06
476.21	284.76
476.58	284.32
476.94	283.98
477.31	283.65
477.67	283.32
478.04	283.04
478.41	282.86
478.77	282.78
479.14	282.43
479.50	282.32
479.87	282.27
480.23	282.35
480.60	282.41
480.96	282.54
481.33	282.53
481.69	282.68
482.06	282.81
482.42	282.99
482.79	283.24
483.15	283.41
483.52	283.76
483.88	284.08
484.25	284.46
484.61	284.97
484.98	285.46
485.34	286.13
485.71	287.00
486.07	287.60
486.44	288.33
486.80	289.38
487.17	290.34
487.53	291.38
487.90	292.48
488.26	293.71
488.62	295.00
488.99	296.27
489.35	297.70
489.72	299.24
490.08	300.81
490.44	302.62
490.81	304.54
491.17	306.47
491.54	308.56
491.90	310.73
492.26	313.07
492.63	315.44
492.99	318.02
493.36	320.52
493.72	323.48
494.08	326.47
494.45	329.55
494.81	332.98
495.17	336.42
495.54	340.11
495.90	343.99
496.26	348.03
496.63	352.28
496.99	356.79
497.35	361.37
497.72	366.36
498.08	371.44
498.44	376.75
498.80	382.30
499.17	388.07
499.53	394.08
499.89	400.30
500.26	406.74
500.62	413.50
500.98	420.76
501.34	428.20
501.71	435.62
502.07	443.57
502.43	451.58
502.79	460.03
503.16	468.92
503.52	477.91
503.88	487.24
504.24	497.05
504.60	507.12
504.97	517.73
505.33	528.58
505.69	539.85
506.05	551.40
506.41	563.19
506.78	575.30
507.14	587.69
507.50	600.71
507.86	614.20
508.22	627.85
508.59	641.72
508.95	656.07
509.31	670.77
509.67	685.94
510.03	701.60
510.39	717.52
510.75	733.77
511.12	750.47
511.48	767.79
511.84	785.26
512.20	802.66
512.56	820.73
512.92	839.35
513.28	857.94
513.64	877.24
514.00	896.73
514.37	916.77
514.73	937.00
515.09	957.17
515.45	977.77
515.81	998.89
516.17	1020.55
516.53	1042.24
516.89	1064.18
517.25	1086.52
517.61	1108.51
517.97	1131.11
518.33	1153.27
518.69	1176.23
519.05	1199.12
519.41	1222.52
519.77	1247.03
520.13	1271.27
520.49	1295.13
520.85	1319.37
521.21	1343.70
521.57	1368.54
521.93	1392.41
522.29	1417.72
522.65	1442.77
523.01	1467.72
523.37	1492.18
523.73	1517.00
524.09	1542.12
524.45	1567.51
524.81	1592.69
525.17	1618.89
525.53	1644.92
525.89	1671.14
526.25	1697.23
526.61	1722.97
526.97	1748.91
527.33	1774.32
527.68	1800.00
528.04	1825.99
528.40	1852.24
528.76	1878.64
529.12	1904.71
529.48	1931.43
529.84	1956.80
530.20	1982.73
530.56	2009.97
530.91	2037.58
531.27	2064.16
531.63	2090.22
531.99	2116.50
532.35	2141.94
532.71	2166.52
533.07	2192.01
533.42	2217.22
533.78	2242.04
534.14	2267.40
534.50	2290.88
534.86	2315.28
535.21	2339.35
535.57	2364.33
535.93	2388.41
536.29	2411.99
536.65	2435.79
537.00	2458.66
537.36	2482.47
537.72	2505.08
538.08	2526.52
538.44	2547.56
538.79	2569.56
539.15	2590.65
539.51	2612.06
539.87	2634.41
540.22	2656.39
540.58	2677.98
540.94	2698.98
541.29	2719.50
541.65	2739.61
542.01	2761.55
542.37	2782.13
542.72	2801.52
543.08	2820.17
543.44	2839.60
543.79	2856.88
544.15	2874.77
544.51	2893.91
544.87	2911.59
545.22	2929.43
545.58	2946.65
545.94	2962.60
546.29	2978.59
546.65	2994.68
547.01	3010.52
547.36	3025.50
547.72	3039.93
548.07	3053.73
548.43	3067.59
548.79	3081.15
549.14	3094.04
549.50	3105.74
549.86	3117.53
550.21	3129.51
550.57	3141.72
550.92	3153.19
551.28	3164.94
551.64	3176.04
551.99	3187.00
552.35	3197.34
552.70	3207.38
553.06	3218.20
553.41	3229.60
553.77	3239.41
554.13	3249.45
554.48	3258.89
554.84	3267.90
555.19	3276.77
555.55	3285.15
555.90	3293.20
556.26	3301.41
556.61	3309.37
556.97	3317.50
557.32	3324.75
557.68	3332.37
558.03	3339.07
558.39	3345.10
558.74	3353.82
559.10	3360.52
559.45	3366.56
559.81	3374.30
560.16	3380.39
560.52	3385.24
560.87	3390.85
561.23	3395.15
561.58	3400.30
561.94	3404.45
562.29	3407.74
562.64	3411.48
563.00	3415.13
563.35	3419.90
563.71	3424.80
564.06	3429.77
564.42	3433.68
564.77	3437.58
565.12	3441.62
565.48	3445.43
565.83	3448.11
566.19	3449.11
566.54	3451.09
566.89	3452.30
567.25	3452.85
567.60	3455.19
567.96	3456.51
568.31	3456.58
568.66	3457.49
569.02	3458.05
569.37	3458.14
569.72	3459.60
570.08	3459.80
570.43	3460.23
570.78	3458.71
571.14	3456.54
571.49	3454.30
571.84	3453.83
572.20	3451.57
572.55	3448.78
572.90	3445.05
573.26	3442.70
573.61	3440.36
573.96	3437.30
574.31	3432.64
574.67	3427.38
575.02	3421.68
575.37	3417.40
575.72	3412.08
576.08	3407.42
576.43	3401.95
576.78	3396.97
577.13	3391.49
577.49	3386.60
577.84	3380.30
578.19	3374.93
578.54	3368.48
578.90	3361.81
579.25	3353.10
579.60	3345.88
579.95	3338.19
580.30	3330.42
580.66	3322.09
581.01	3313.76
581.36	3305.81
581.71	3299.65
582.06	3292.86
582.42	3284.88
582.77	3276.49
583.12	3268.40
583.47	3260.84
583.82	3253.33
584.17	3244.39
584.53	3235.70
584.88	3227.15
585.23	3218.70
585.58	3209.85
585.93	3201.77
586.28	3193.86
586.63	3186.05
586.98	3178.33
587.34	3170.37
587.69	3162.38
588.04	3154.73
588.39	3146.58
588.74	3136.39
589.09	3125.90
589.44	3115.09
589.79	3106.48
590.14	3097.96
590.49	3089.43
590.84	3079.13
591.19	3069.29
591.54	3058.90
591.89	3046.71
592.25	3035.90
592.60	3024.29
592.95	3013.06
593.30	3001.47
593.65	2989.59
594.00	2978.28
594.35	2966.86
594.70	2955.25
595.05	2944.39
595.40	2932.48
595.75	2920.02
596.10	2910.00
596.45	2900.52
596.80	2891.45
597.15	2880.86
597.50	2869.55
597.85	2859.03
598.19	2849.52
598.54	2838.79
598.89	2829.07
599.24	2820.99
599.59	2811.13
599.94	2801.32
600.29	2790.93
600.64	2781.21
600.99	2770.12
601.34	2759.51
601.69	2748.63
602.04	2738.47
602.39	2727.86
602.74	2718.57
603.08	2708.93
603.43	2698.99
603.78	2687.89
604.13	2676.96
604.48	2666.04
604.83	2655.02
605.18	2644.36
605.53	2631.97
605.87	2619.62
606.22	2608.50
606.57	2596.26
606.92	2584.38
607.27	2573.92
607.62	2563.75
607.96	2552.29
608.31	2542.09
608.66	2530.46
609.01	2518.40
609.36	2505.68
609.70	2492.28
610.05	2478.85
610.40	2466.80
610.75	2453.58
611.10	2440.88
611.44	2427.33
611.79	2415.56
612.14	2403.36
612.49	2389.58
612.83	2376.74
613.18	2364.39
613.53	2351.57
613.88	2338.40
614.22	2325.57
614.57	2312.37
614.92	2299.19
615.27	2286.94
615.61	2273.76
615.96	2261.62
616.31	2250.32
616.65	2239.36
617.00	2228.50
617.35	2216.80
617.70	2203.82
618.04	2191.46
618.39	2179.70
618.74	2168.41
619.08	2155.50
619.43	2143.89
619.78	2132.63
620.12	2121.22
620.47	2109.92
620.82	2097.80
621.16	2086.50
621.51	2075.16
621.85	2063.35
622.20	2050.62
622.55	2038.58
622.89	2027.52
623.24	2016.14
623.59	2004.67
623.93	1993.26
624.28	1981.55
624.62	1969.56
624.97	1958.93
625.32	1948.52
625.66	1937.45
626.01	1926.00
626.35	1914.51
626.70	1902.62
627.04	1891.36
627.39	1879.90
627.73	1868.36
628.08	1857.27
628.43	1846.11
628.77	1834.79
629.12	1822.94
629.46	1812.55
629.81	1800.90
630.15	1789.00
630.50	1777.31
630.84	1765.04
631.19	1752.36
631.53	1740.43
631.88	1728.92
632.22	1716.94
632.57	1705.46
632.91	1693.59
633.26	1682.25
633.60	1670.81
633.95	1659.51
634.29	1648.46
634.64	1638.08
634.98	1626.64
635.32	1616.23
635.67	1606.23
636.01	1595.82
636.36	1585.85
636.70	1575.50
637.05	1565.69
637.39	1556.23
637.73	1546.05
638.08	1536.88
638.42	1527.86
638.77	1518.39
639.11	1508.83
639.45	1499.04
639.80	1488.60
640.14	1479.03
640.49	1468.85
640.83	1459.13
641.17	1449.41
641.52	1439.50
641.86	1429.05
642.20	1419.73
642.55	1409.69
642.89	1399.42
643.23	1389.29
643.58	1380.22
643.92	1370.04
644.26	1360.30
644.61	1350.66
644.95	1341.19
645.29	1330.64
645.64	1319.95
645.98	1310.65
646.32	1301.16
646.66	1291.62
647.01	1282.43
647.35	1273.18
647.69	1263.91
648.04	1255.13
648.38	1245.40
648.72	1235.43
649.06	1225.82
649.41	1216.54
649.75	1206.99
650.09	1197.54
650.43	1188.11
650.78	1177.78
651.12	1168.79
651.46	1159.36
651.80	1150.02
652.14	1141.09
652.49	1132.28
652.83	1123.96
653.17	1114.31
653.51	1105.48
653.85	1096.54
654.20	1087.58
654.54	1078.15
654.88	1069.48
655.22	1060.10
655.56	1051.40
655.90	1043.00
656.25	1034.70
656.59	1026.21
656.93	1017.78
657.27	1009.45
657.61	1001.03
657.95	993.25
658.29	985.00
658.64	976.79
658.98	968.47
659.32	959.89
659.66	951.92
660.00	943.79
660.34	935.84
660.68	927.94
661.02	920.09
661.36	912.52
661.70	905.60
662.05	898.33
662.39	891.40
662.73	884.29
663.07	877.55
663.41	870.85
663.75	863.91
664.09	857.01
664.43	850.01
664.77	843.64
665.11	837.11
665.45	830.49
665.79	824.22
666.13	817.71
666.47	811.38
666.81	805.01
667.15	798.39
667.49	792.49
667.83	786.32
668.17	780.27
668.51	774.13
668.85	767.91
669.19	761.99
669.53	756.20
669.87	750.21
670.21	744.34
670.55	738.52
670.89	733.23
671.23	728.15
671.57	723.19
671.91	717.73
672.25	712.10
672.58	706.84
672.92	701.43
673.26	696.42
673.60	691.57
673.94	686.68
674.28	682.20
674.62	677.71
674.96	672.98
675.30	668.54
675.64	664.01
675.97	659.35
676.31	654.80
676.65	649.87
676.99	645.87
677.33	641.36
677.67	636.79
678.01	632.03
678.34	627.25
678.68	622.66
679.02	618.22
679.36	614.07
679.70	609.89
680.04	605.95
680.37	601.60
680.71	597.38
681.05	593.34
681.39	589.40
681.73	585.48
682.06	581.60
682.40	577.96
682.74	574.17
683.08	570.12
683.42	566.20
683.75	562.48
684.09	558.40
684.43	554.64
684.77	551.01
685.10	547.46
685.44	543.98
685.78	540.42
686.12	536.89
686.45	533.17
686.79	529.60
687.13	526.02
687.46	522.47
687.80	519.09
688.14	515.74
688.48	512.29
688.81	508.60
689.15	505.42
689.49	501.74
689.82	498.39
690.16	495.37
690.50	492.29
690.83	489.27
691.17	486.09
691.51	483.13
691.84	480.24
692.18	477.10
692.52	473.93
692.85	470.93
693.19	468.03
693.52	465.31
693.86	462.41
694.20	459.42
694.53	456.76
694.87	453.90
695.21	450.99
695.54	448.05
695.88	445.30
696.21	442.55
696.55	439.98
696.88	437.36
697.22	434.65
697.56	432.10
697.89	429.44
698.23	427.07
698.56	424.47
698.90	421.90
699.23	419.45
699.57	417.21
699.90	414.82
700.24	412.45
700.58	410.00
700.91	407.78
701.25	405.51
701.58	403.31
701.92	401.09
702.25	398.86
702.59	396.91
702.92	394.76
703.26	392.72
703.59	390.67
703.93	388.75
704.26	386.74
704.60	384.66
704.93	382.81
705.26	380.80
705.60	378.92
705.93	377.17
706.27	375.40
706.60	373.67
706.94	371.88
707.27	370.16
707.61	368.40
707.94	366.80
708.27	365.10
708.61	363.26
708.94	361.60
709.28	360.18
709.61	358.50
709.94	357.09
710.28	355.48
710.61	354.01
710.95	352.38
711.28	351.02
711.61	349.49
711.95	347.91
712.28	346.38
712.61	344.96
712.95	343.50
713.28	342.10
713.61	340.65
713.95	339.33
714.28	337.80
714.61	336.47
714.95	335.05
715.28	333.70
715.61	332.48
715.95	331.31
716.28	330.09
716.61	328.98
716.95	327.66
717.28	326.41
717.61	325.18
717.94	324.06
718.28	322.84
718.61	321.80
718.94	320.92
719.27	319.95
719.61	318.95
719.94	318.00
720.27	316.88
720.60	315.90
720.94	315.01
721.27	314.18
721.60	313.28
721.93	312.40
722.27	311.65
722.60	310.79
722.93	309.86
723.26	308.91
723.59	307.99
723.93	307.14
724.26	306.23
724.59	305.40
724.92	304.53
725.25	303.69
725.59	302.80
725.92	301.82
726.25	300.97
726.58	300.13
726.91	299.29
727.24	298.69
727.57	297.85
727.91	296.79
728.24	296.04
728.57	295.34
728.90	294.61
729.23	293.63
729.56	292.90
729.89	292.08
730.22	291.23
730.55	290.50
730.89	289.80
731.22	289.16
731.55	288.39
731.88	287.77
732.21	286.97
732.54	286.19
732.87	285.57
733.20	284.84
733.53	284.24
733.86	283.59
734.19	282.87
734.52	282.11
734.85	281.73
735.18	280.93
735.51	280.31
735.84	279.58
736.17	279.05
736.50	278.36
736.83	278.02
737.16	277.42
737.49	276.82
737.82	276.13
738.15	275.48
738.48	274.87
738.81	274.18
739.14	273.74
739.47	273.20
739.80	272.60
740.13	272.06
740.46	271.30
740.79	270.71
741.12	270.06
741.45	269.63
741.78	268.96
742.11	268.55
742.44	268.00
742.77	267.53
743.10	267.00
743.43	266.57
743.75	265.88
744.08	265.84
744.41	265.28
744.74	264.85
745.07	264.52
745.40	264.14
745.73	263.74
746.06	263.22
746.39	262.96
746.71	262.53
747.04	262.15
747.37	261.84
747.70	261.50
748.03	261.19
748.36	260.96
748.68	260.61
749.01	260.20
749.34	259.79
749.67	259.44
750.00	259.19
750.33	259.01
750.65	258.57
750.98	257.86
751.31	257.53
751.64	257.24
751.97	256.90
752.29	256.48
752.62	256.11
752.95	255.80
753.28	255.42
753.60	255.15
753.93	254.82
754.26	254.43
754.59	254.13
754.91	253.84
755.24	253.40
755.57	253.05
755.90	252.79
756.22	252.46
756.55	252.24
756.88	251.80
757.20	251.24
757.53	250.98
757.86	250.75
758.19	250.58
758.51	250.40
758.84	250.16
759.17	249.92
759.49	249.70
759.82	249.52
760.15	249.32
760.47	249.08
760.80	248.90
761.13	248.84
761.45	248.53
761.78	248.25
762.11	248.03
762.43	247.90
762.76	247.87
763.08	247.78
763.41	247.63
763.74	247.53
764.06	247.46
764.39	247.34
764.71	247.00
765.04	246.84
765.37	246.62
765.69	246.31
766.02	246.21
766.34	246.06
766.67	245.84
767.00	245.65
767.32	245.61
767.65	245.40
767.97	245.19
768.30	245.09
768.62	244.99
768.95	244.89
769.27	244.73
769.60	244.38
769.92	244.19
770.25	243.88
770.57	243.76
770.90	243.60
771.22	243.40
771.55	243.30
771.87	243.00
772.20	242.80
772.52	242.79
772.85	242.83
773.17	242.65
773.50	242.54
773.82	242.40
774.15	242.06
774.47	241.91
774.80	241.69
775.12	241.45
775.45	241.24
775.77	241.08
776.09	240.83
776.42	240.67
776.74	240.50
777.07	240.43
777.39	240.24
777.72	240.16
778.04	240.04
778.36	239.95
778.69	239.85
779.01	239.72
779.33	239.43
779.66	239.10
779.98	238.91
780.31	238.72
780.63	238.63
780.95	238.52
781.28	238.32
781.60	238.23
781.92	238.14
782.25	237.98
782.57	237.79
782.89	237.77
783.22	237.71
783.54	237.59
783.86	237.39
784.19	237.17
784.51	237.03
784.83	236.91
785.16	236.81
785.48	236.75
785.80	236.61
786.12	236.53
786.45	236.40
786.77	236.40
787.09	236.27
787.42	236.04
787.74	235.95
788.06	235.92
788.38	235.76
788.71	235.63
789.03	235.57
789.35	235.49
789.67	235.36
789.99	235.25
790.32	235.17
790.64	235.18
790.96	235.27
791.28	235.06
791.61	234.87
791.93	234.87
792.25	234.86
792.57	234.94
792.89	234.84
793.21	234.86
793.54	234.77
793.86	234.79
794.18	234.88
794.50	234.73
794.82	234.69
795.14	234.70
795.47	234.62
795.79	234.60
796.11	234.59
796.43	234.62
796.75	234.60
797.07	234.52
797.39	234.40
797.71	234.19
798.04	234.20
798.36	234.31
798.68	234.26
799.00	234.17
799.32	234.10
799.64	234.16
799.96	234.02
800.28	234.02
800.60	233.86
800.92	233.76
801.24	233.79
801.56	233.73
801.89	233.78
802.21	233.91
802.53	233.81
802.85	233.84
803.17	233.76
803.49	233.70
803.81	233.79
804.13	233.76
804.45	233.80
804.77	233.81
805.09	233.79
805.41	233.62
805.73	233.51
806.05	233.45
806.37	233.30
806.69	233.21
807.01	233.14
807.33	233.20
807.65	233.01
807.97	233.11
808.28	233.08
808.60	232.89
808.92	232.70
809.24	232.84
809.56	232.75
809.88	232.58
810.20	232.51
810.52	232.48
810.84	232.43
811.16	232.39
811.48	232.33
811.80	232.28
812.12	232.32
812.43	232.36
812.75	232.26
813.07	232.31
813.39	232.39
813.71	232.20
814.03	232.08
814.35	232.13
814.67	231.91
814.98	231.73
815.30	231.71
815.62	231.53
815.94	231.36
816.26	231.48
816.58	231.48
816.89	231.41
817.21	231.30
817.53	231.30
817.85	231.26
818.17	231.20
818.48	231.24
818.80	231.23
819.12	231.05
819.44	230.93
819.76	230.84
820.07	230.78
820.39	230.74
820.71	230.76
821.03	230.76
821.34	230.81
821.66	230.93
821.98	230.90
822.30	231.01
822.61	231.00
822.93	230.87
823.25	230.80
823.57	230.67
823.88	230.55
824.20	230.44
824.52	230.45
824.83	230.39
825.15	230.21
825.47	230.12
825.79	230.20
826.10	230.26
826.42	230.22
826.74	230.17
827.05	230.22
827.37	230.13
827.69	230.12
828.00	229.99
828.32	229.96
828.64	229.99
828.95	230.03
829.27	230.01
829.58	229.93
829.90	229.89
830.22	229.97
830.53	230.03
830.85	230.05
831.17	229.95
831.48	230.00
831.80	229.99
832.11	229.95
832.43	229.99
832.75	229.92
833.06	229.94
833.38	229.87
833.69	229.80
834.01	229.84
834.32	229.80
834.64	229.81
834.96	229.73
835.27	229.65
835.59	229.68
835.90	229.62
836.22	229.66
836.53	229.73
836.85	229.70
837.16	229.90
837.48	229.88
837.79	230.05
838.11	229.95
838.42	230.01
838.74	230.07
839.05	230.01
839.37	229.98
839.68	229.99
840.00	230.02
840.31	230.03
840.63	230.02
840.94	229.94
841.26	229.96
841.57	229.93
841.88	230.04
842.20	229.98
842.51	229.94
842.83	229.89
843.14	230.03
843.46	230.08
843.77	229.92
844.08	229.93
844.40	229.80
844.71	229.88
845.03	229.77
845.34	229.73
845.65	229.68
845.97	229.71
846.28	229.76
846.60	229.77
846.91	229.78
847.22	229.69
847.54	229.72
847.85	229.70
848.16	229.74
848.48	229.63
848.79	229.64
849.10	229.68
849.42	229.59
849.73	229.41
850.04	229.30
850.36	229.20
850.67	229.22
850.98	229.17
851.30	229.10
851.61	229.18
851.92	229.17
852.23	229.27
852.55	229.30
852.86	229.16
853.17	229.20
853.49	229.18
853.80	229.29
854.11	229.31
854.42	229.32
854.74	229.31
855.05	229.27
855.36	229.14
855.67	229.12
855.99	229.19
856.30	229.33
856.61	229.37
856.92	229.37
857.23	229.29
857.55	229.30
857.86	229.24
858.17	229.26
858.48	229.12
858.79	229.02
859.11	228.98
859.42	228.98
859.73	228.78
860.04	228.76
860.35	228.59
860.66	228.55
860.98	228.50
861.29	228.41
861.60	228.44
861.91	228.43
862.22	228.40
862.53	228.29
862.84	228.13
863.16	228.21
863.47	228.14
863.78	228.06
864.09	227.97
864.40	228.00
864.71	227.85
865.02	227.91
865.33	227.86
865.64	227.83
865.95	227.85
866.27	228.08
866.58	228.08
866.89	228.23
867.20	228.22
867.51	228.26
867.82	228.41
868.13	228.48
868.44	228.45
868.75	228.58
869.06	228.66
869.37	228.65
869.68	228.67
869.99	228.64
870.30	228.78
870.61	228.90
870.92	228.93
871.23	229.00
871.54	229.16
871.85	229.25
872.16	229.32
872.47	229.31
872.78	229.13
873.09	229.23
873.40	229.15
873.71	229.24
874.02	229.31
874.33	229.25
874.64	229.18
874.95	229.29
875.26	229.23
875.56	229.20
875.87	229.19
876.18	229.16
876.49	229.43
876.80	229.42
877.11	229.30
877.42	229.21
877.73	229.22
878.04	229.16
878.35	229.20
878.66	229.21
878.96	229.32
879.27	229.46
879.58	229.43
879.89	229.53
880.20	229.54
880.51	229.37
880.82	229.34
881.12	229.36
881.43	229.33
881.74	229.28
882.05	229.31
882.36	229.40
882.67	229.36
882.97	229.19
883.28	229.20
883.59	229.24
883.90	229.36
884.21	229.48
884.51	229.43
884.82	229.34
885.13	229.30
885.44	229.22
885.74	229.21
886.05	229.26
886.36	229.21
886.67	229.15
886.98	229.28
887.28	229.39
887.59	229.42
887.90	229.46
888.20	229.49
888.51	229.53
888.82	229.40
889.13	229.39
889.43	229.58
889.74	229.51
890.05	229.55
890.35	229.53
890.66	229.44
890.97	229.31
891.28	229.34
891.58	229.30
891.89	229.28
892.20	229.21
892.50	229.12
892.81	229.02
893.12	228.90
893.42	228.82
893.73	228.83
894.04	228.80
894.34	228.70
894.65	228.57
894.95	228.46
895.26	228.46
895.57	228.55
895.87	228.32
896.18	228.46
896.48	228.41
896.79	228.25
897.10	228.27
897.40	228.31
897.71	228.24
898.01	228.20
898.32	228.18
898.63	228.15
898.93	228.19
899.24	228.24
899.54	228.33
899.85	228.39
900.15	228.26
900.46	228.19
900.76	228.28
901.07	228.30
901.38	228.42
901.68	228.41
901.99	228.25
902.29	228.22
902.60	227.97
902.90	227.89
903.21	227.96
903.51	227.81
903.82	227.88
904.12	227.90
904.43	228.00
904.73	227.93
905.03	228.03
905.34	228.17
905.64	228.11
905.95	228.19
906.25	228.12
906.56	228.10
906.86	228.16
907.17	228.10
907.47	228.09
907.77	228.06
908.08	228.10
908.38	228.15
908.69	228.17
908.99	228.33
909.30	228.45
909.60	228.52
909.90	228.62
910.21	228.62
910.51	228.69
910.81	228.52
911.12	228.60
911.42	228.52
911.73	228.31
912.03	228.39
912.33	228.38
912.64	228.40
912.94	228.40
913.24	228.49
913.55	228.53
913.85	228.58
914.15	228.58
914.46	228.62
914.76	228.67
915.06	228.74
915.37	228.74
915.67	228.68
915.97	228.64
916.27	228.69
916.58	228.70
916.88	228.69
917.18	228.78
917.49	228.92
917.79	228.92
918.09	228.95
918.39	229.01
918.70	228.97
919.00	229.00
919.30	229.12
919.60	229.03
919.91	229.10
920.21	229.13
920.51	229.13
920.81	229.08
921.12	229.18
921.42	229.14
921.72	229.25
922.02	229.30
922.32	229.37
922.63	229.38
922.93	229.47
923.23	229.50
923.53	229.55
923.83	229.48
924.13	229.51
924.44	229.60
924.74	229.67
925.04	229.75
925.34	229.79
925.64	229.70
925.94	229.64
926.24	229.65
926.55	229.60
926.85	229.52
927.15	229.60
927.45	229.51
927.75	229.45
928.05	229.37
928.35	229.42
928.65	229.44
928.95	229.35
929.26	229.26
929.56	229.29
929.86	229.28
930.16	229.23
930.46	229.20
930.76	229.20
931.06	229.04
931.36	229.00
931.66	228.93
931.96	228.95
932.26	229.04
932.56	228.88
932.86	228.87
933.16	228.98
933.46	228.89
933.76	228.82
934.06	228.96
934.36	228.98
934.66	228.90
934.96	228.93
935.26	228.99
935.56	229.07
935.86	228.97
936.16	228.94
936.46	228.90
936.76	228.85
937.06	228.77
937.36	228.79
937.66	228.70
937.96	228.69
938.26	228.60
938.56	228.56
938.86	228.69
939.16	228.71
939.46	228.69
939.76	228.76
940.06	228.78
940.35	228.63
940.65	228.48
940.95	228.41
941.25	228.30
941.55	228.23
941.85	228.14
942.15	228.17
942.45	228.08
942.75	228.13
943.04	228.12
943.34	228.19
943.64	228.08
943.94	228.06
944.24	228.17
944.54	228.21
944.84	228.08
945.13	228.03
945.43	228.04
945.73	227.98
946.03	227.90
946.33	227.77
946.62	227.77
946.92	227.79
947.22	227.86
947.52	227.90
947.82	227.97
948.11	228.01
948.41	228.02
948.71	228.15
949.01	228.10
949.31	228.11
949.60	228.05
949.90	228.12
950.20	228.13
950.50	228.03
950.79	228.08
951.09	228.16
951.39	228.20
951.69	228.20
951.98	228.24
952.28	228.27
952.58	228.34
952.87	228.46
953.17	228.51
953.47	228.51
953.76	228.48
954.06	228.51
954.36	228.46
954.66	228.37
954.95	228.43
955.25	228.46
955.55	228.56
955.84	228.61
956.14	228.60
956.44	228.60
956.73	228.60
957.03	228.57
957.32	228.65
957.62	228.64
957.92	228.60
958.21	228.69
958.51	229.02
958.81	229.11
959.10	229.03
959.40	229.11
959.69	229.11
959.99	229.15
960.29	228.96
960.58	228.96
960.88	229.15
961.17	229.03
961.47	229.08
961.76	229.06
962.06	229.00
962.36	229.03
962.65	229.19
962.95	229.19
963.24	229.14
963.54	229.07
963.83	229.01
964.13	229.00
964.42	228.83
964.72	228.57
965.01	228.60
965.31	228.56
965.60	228.55
965.90	228.58
966.19	228.54
966.49	228.57
966.78	228.64
967.08	228.63
967.37	228.63
967.67	228.60
967.96	228.47
968.26	228.53
968.55	228.58
968.85	228.47
969.14	228.48
969.43	228.49
969.73	228.48
970.02	228.40
970.32	228.41
970.61	228.35
970.91	228.24
971.20	228.16
971.49	228.16
971.79	228.05
972.08	227.92
972.38	227.94
972.67	228.01
972.96	228.06
973.26	227.89
973.55	227.90
973.85	227.85
974.14	227.89
974.43	227.76
974.73	227.68
975.02	227.57
975.31	227.60
975.61	227.59
975.90	227.56
976.19	227.66
976.49	227.59
976.78	227.64
977.07	227.61
977.37	227.64
977.66	227.75
977.95	227.78
978.24	227.86
978.54	227.87
978.83	227.84
979.12	227.69
979.42	227.69
979.71	227.63
980.00	227.51
980.29	227.51
980.59	227.49
980.88	227.50
981.17	227.41
981.46	227.27
981.76	227.27
982.05	227.38
982.34	227.33
982.63	227.44
982.93	227.38
983.22	227.52
983.51	227.52
983.80	227.47
984.09	227.51
984.39	227.46
984.68	227.36
984.97	227.35
985.26	227.36
985.55	227.42
985.85	227.39
986.14	227.55
986.43	227.54
986.72	227.61
987.01	227.60
987.30	227.70
987.59	227.72
987.89	227.76
988.18	227.65
988.47	227.67
988.76	227.57
989.05	227.70
989.34	227.67
989.63	227.65
989.92	227.65
990.22	227.50
990.51	227.66
990.80	227.74
991.09	227.70
991.38	227.79
991.67	227.78
991.96	227.86
992.25	227.79
992.54	227.79
992.83	227.86
993.12	227.93
993.41	228.04
993.70	228.13
993.99	228.17
994.28	228.28
994.58	228.38
994.87	228.43
995.16	228.39
995.45	228.34
995.74	228.40
996.03	228.50
996.32	228.65
996.61	228.57
996.90	228.61
997.19	228.72
997.48	228.66
997.77	228.76
998.06	228.82
998.34	228.80
998.63	228.86
998.92	228.80
999.21	228.79
999.50	228.82
999.79	228.81
1000.08	228.82
1000.37	228.77
1000.66	228.70
1000.95	228.72
1001.24	228.77
1001.53	228.76
1001.82	228.76
1002.11	228.67
1002.40	228.66
1002.68	228.69
1002.97	228.78
1003.26	228.64
1003.55	228.72
1003.84	228.61
1004.13	228.63
1004.42	228.71
1004.71	228.68
1004.99	228.60
1005.28	228.56
1005.57	228.50
1005.86	228.58
1006.15	228.45
1006.44	228.32
1006.72	228.24
1007.01	228.16
1007.30	228.17
1007.59	228.18
1007.88	228.02
1008.17	227.97
1008.45	227.96
1008.74	227.90
1009.03	227.61
1009.32	227.60
1009.60	227.50
1009.89	227.48
1010.18	227.37
1010.47	227.26
1010.76	227.23
1011.04	227.30
1011.33	227.31
1011.62	227.34
1011.91	227.27
1012.19	227.30
1012.48	227.31
1012.77	227.42
1013.05	227.57
1013.34	227.49
1013.63	227.43
1013.92	227.51
1014.20	227.55
1014.49	227.56
1014.78	227.49
1015.06	227.53
1015.35	227.46
1015.64	227.41
1015.92	227.46
1016.21	227.46
1016.50	227.48
1016.78	227.46
1017.07	227.42
1017.36	227.38
1017.64	227.31
1017.93	227.27
1018.22	227.26
1018.50	227.28
1018.79	227.18
1019.08	227.28
1019.36	227.31
1019.65	227.36
1019.93	227.41
1020.22	227.45
1020.51	227.52
1020.79	227.61
1021.08	227.20
1021.36	226.40
1021.65	227.40
1021.94	231.00
1022.22	228.20
1022.51	227.80
1022.79	229.00
1023.08	228.80
1023.36	230.20
1023.65	228.60
>>>>>End Processed Spectral Data<<<<<
