SpectraSuite Data File
++++++++++++++++++++++++++++++++++++
Date: Fri Feb 01 14:40:43 EST 2013
User: group
Dark Spectrum Present: No
Reference Spectrum Present: No
Number of Sampled Component Spectra: 1
Spectrometers: USB2E7196
Integration Time (usec): 70000 (USB2E7196)
Spectra Averaged: 10 (USB2E7196)
Boxcar Smoothing: 10 (USB2E7196)
Correct for Electrical Dark: No (USB2E7196)
Strobe/Lamp Enabled: No (USB2E7196)
Correct for Detector Non-linearity: No (USB2E7196)
Correct for Stray Light: No (USB2E7196)
Number of Pixels in Processed Spectrum: 2048
>>>>>Begin Processed Spectral Data<<<<<
339.09	0.00
339.48	216.70
339.86	217.20
340.24	220.30
340.63	218.70
341.01	222.90
341.39	223.70
341.78	224.20
342.16	225.70
342.54	226.30
342.93	214.82
343.31	225.66
343.69	226.25
344.07	226.74
344.46	227.20
344.84	227.72
345.22	227.92
345.60	228.18
345.99	228.38
346.37	228.58
346.75	228.61
347.13	228.69
347.52	228.73
347.90	228.76
348.28	228.79
348.66	228.78
349.05	228.66
349.43	228.60
349.81	228.68
350.19	228.69
350.57	228.76
350.96	228.92
351.34	229.00
351.72	229.00
352.10	229.07
352.48	229.05
352.87	229.03
353.25	229.14
353.63	229.23
354.01	229.23
354.39	229.27
354.77	229.40
355.15	229.38
355.54	229.41
355.92	229.42
356.30	229.54
356.68	229.73
357.06	229.81
357.44	229.94
357.82	229.87
358.20	229.96
358.58	230.04
358.97	230.02
359.35	230.15
359.73	230.24
360.11	230.38
360.49	230.49
360.87	230.57
361.25	230.62
361.63	230.62
362.01	230.66
362.39	230.61
362.77	230.68
363.15	230.68
363.53	230.69
363.91	230.71
364.29	230.68
364.67	230.52
365.05	230.55
365.43	230.46
365.81	230.53
366.19	230.66
366.57	230.74
366.95	230.76
367.33	230.61
367.71	230.59
368.09	230.55
368.47	230.45
368.85	230.44
369.23	230.43
369.61	230.29
369.99	230.27
370.37	230.16
370.75	230.08
371.13	229.99
371.51	229.87
371.89	229.77
372.27	229.74
372.65	229.73
373.03	229.67
373.41	229.68
373.78	229.56
374.16	229.41
374.54	229.30
374.92	229.12
375.30	229.17
375.68	228.97
376.06	228.88
376.44	228.76
376.82	228.47
377.19	228.27
377.57	228.25
377.95	228.20
378.33	228.19
378.71	228.08
379.09	228.00
379.47	227.97
379.84	227.87
380.22	227.75
380.60	227.55
380.98	227.46
381.36	227.29
381.73	227.19
382.11	227.09
382.49	226.92
382.87	226.95
383.25	226.87
383.62	227.10
384.00	226.96
384.38	226.95
384.76	227.06
385.13	227.21
385.51	227.22
385.89	227.10
386.27	227.02
386.64	227.01
387.02	226.97
387.40	226.83
387.78	226.90
388.15	226.89
388.53	226.93
388.91	226.88
389.29	226.97
389.66	227.02
390.04	226.97
390.42	227.06
390.79	227.08
391.17	226.99
391.55	226.79
391.92	226.82
392.30	226.91
392.68	226.89
393.05	226.87
393.43	226.75
393.81	226.83
394.18	226.90
394.56	226.91
394.94	226.97
395.31	227.02
395.69	227.10
396.06	227.20
396.44	227.24
396.82	227.37
397.19	227.50
397.57	227.47
397.95	227.53
398.32	227.49
398.70	227.58
399.07	227.77
399.45	227.78
399.82	227.85
400.20	227.95
400.58	228.10
400.95	228.12
401.33	228.30
401.70	228.49
402.08	228.60
402.45	228.68
402.83	228.84
403.20	229.00
403.58	229.08
403.95	229.27
404.33	229.46
404.71	229.62
405.08	229.82
405.46	230.06
405.83	230.35
406.21	230.52
406.58	230.73
406.96	230.88
407.33	231.10
407.70	231.35
408.08	231.59
408.45	231.75
408.83	232.00
409.20	232.19
409.58	232.33
409.95	232.57
410.33	232.93
410.70	233.19
411.08	233.48
411.45	233.81
411.82	234.09
412.20	234.50
412.57	234.90
412.95	235.04
413.32	235.42
413.69	235.70
414.07	236.18
414.44	236.57
414.82	236.92
415.19	237.47
415.56	237.99
415.94	238.48
416.31	239.23
416.68	239.89
417.06	240.66
417.43	241.37
417.81	242.17
418.18	242.88
418.55	243.62
418.93	244.59
419.30	245.36
419.67	246.32
420.04	247.20
420.42	248.12
420.79	249.40
421.16	250.60
421.54	251.90
421.91	253.16
422.28	254.45
422.66	255.87
423.03	257.33
423.40	258.74
423.77	260.15
424.15	261.50
424.52	262.96
424.89	264.50
425.26	266.07
425.64	267.47
426.01	269.24
426.38	271.00
426.75	272.76
427.13	274.61
427.50	276.44
427.87	278.42
428.24	280.40
428.61	282.09
428.99	284.10
429.36	286.23
429.73	288.33
430.10	290.38
430.47	292.48
430.85	294.56
431.22	296.79
431.59	299.35
431.96	301.62
432.33	304.17
432.70	306.58
433.08	309.54
433.45	312.36
433.82	314.83
434.19	317.80
434.56	320.64
434.93	323.37
435.30	325.97
435.68	328.85
436.05	331.79
436.42	334.74
436.79	337.26
437.16	340.03
437.53	343.08
437.90	346.12
438.27	348.92
438.64	351.69
439.01	354.31
439.38	356.50
439.75	358.72
440.13	361.28
440.50	363.96
440.87	365.88
441.24	367.85
441.61	370.21
441.98	371.76
442.35	373.72
442.72	375.79
443.09	377.84
443.46	378.80
443.83	379.35
444.20	379.96
444.57	380.93
444.94	381.24
445.31	381.56
445.68	381.98
446.05	382.21
446.42	382.03
446.79	381.59
447.16	381.23
447.53	381.00
447.90	379.82
448.27	378.47
448.64	376.77
449.01	375.63
449.37	373.56
449.74	371.58
450.11	369.18
450.48	366.46
450.85	363.76
451.22	361.64
451.59	359.72
451.96	357.60
452.33	354.77
452.70	352.32
453.07	349.35
453.43	346.13
453.80	343.26
454.17	340.31
454.54	337.79
454.91	334.91
455.28	332.17
455.65	329.61
456.02	327.32
456.38	325.19
456.75	322.38
457.12	320.10
457.49	317.94
457.86	315.70
458.23	313.76
458.59	311.51
458.96	309.42
459.33	307.32
459.70	305.40
460.07	303.92
460.43	302.15
460.80	300.39
461.17	299.07
461.54	297.49
461.91	296.03
462.27	294.42
462.64	293.17
463.01	291.69
463.38	290.37
463.74	288.68
464.11	287.39
464.48	286.26
464.85	285.05
465.21	283.99
465.58	282.92
465.95	281.82
466.32	280.89
466.68	279.81
467.05	278.87
467.42	277.89
467.78	276.82
468.15	275.85
468.52	275.15
468.88	273.99
469.25	273.04
469.62	272.34
469.98	271.63
470.35	270.85
470.72	270.11
471.08	269.25
471.45	268.63
471.82	267.92
472.18	267.20
472.55	266.61
472.92	265.89
473.28	265.21
473.65	264.58
474.02	263.98
474.38	263.49
474.75	262.98
475.11	262.43
475.48	262.09
475.85	261.69
476.21	261.31
476.58	261.03
476.94	260.72
477.31	260.29
477.67	259.88
478.04	259.51
478.41	259.35
478.77	259.16
479.14	258.80
479.50	258.65
479.87	258.55
480.23	258.40
480.60	258.31
480.96	258.20
481.33	258.24
481.69	258.15
482.06	258.07
482.42	257.99
482.79	258.02
483.15	257.97
483.52	257.95
483.88	257.75
484.25	257.69
484.61	257.78
484.98	257.88
485.34	258.00
485.71	258.15
486.07	258.18
486.44	258.39
486.80	258.73
487.17	258.91
487.53	259.26
487.90	259.57
488.26	260.04
488.62	260.50
488.99	260.86
489.35	261.36
489.72	261.78
490.08	262.30
490.44	262.71
490.81	263.30
491.17	263.92
491.54	264.73
491.90	265.58
492.26	266.24
492.63	267.08
492.99	267.94
493.36	268.87
493.72	269.88
494.08	270.78
494.45	271.74
494.81	272.84
495.17	273.88
495.54	275.19
495.90	276.35
496.26	277.79
496.63	279.19
496.99	280.68
497.35	282.45
497.72	284.21
498.08	286.04
498.44	287.89
498.80	289.88
499.17	292.02
499.53	294.19
499.89	296.55
500.26	298.93
500.62	301.38
500.98	304.06
501.34	306.77
501.71	309.69
502.07	312.56
502.43	315.68
502.79	318.97
503.16	322.29
503.52	325.94
503.88	329.33
504.24	333.26
504.60	337.30
504.97	341.28
505.33	345.40
505.69	349.98
506.05	354.48
506.41	359.14
506.78	363.94
507.14	368.97
507.50	374.05
507.86	379.48
508.22	385.27
508.59	390.82
508.95	396.54
509.31	402.68
509.67	409.04
510.03	415.38
510.39	421.91
510.75	428.70
511.12	435.32
511.48	442.63
511.84	449.64
512.20	457.00
512.56	464.59
512.92	472.56
513.28	480.61
513.64	488.77
514.00	497.28
514.37	505.89
514.73	514.55
515.09	523.54
515.45	532.50
515.81	541.64
516.17	551.01
516.53	560.92
516.89	570.65
517.25	580.66
517.61	590.72
517.97	600.85
518.33	610.98
518.69	621.70
519.05	632.48
519.41	643.50
519.77	654.75
520.13	666.08
520.49	677.20
520.85	688.48
521.21	700.09
521.57	711.95
521.93	723.52
522.29	735.58
522.65	747.70
523.01	759.66
523.37	771.81
523.73	784.58
524.09	796.97
524.45	809.54
524.81	822.15
525.17	835.18
525.53	848.58
525.89	861.85
526.25	875.21
526.61	888.18
526.97	901.48
527.33	914.97
527.68	928.87
528.04	942.38
528.40	956.10
528.76	970.40
529.12	984.33
529.48	998.57
529.84	1012.25
530.20	1026.60
530.56	1041.54
530.91	1056.30
531.27	1070.64
531.63	1085.04
531.99	1099.50
532.35	1113.95
532.71	1128.43
533.07	1142.74
533.42	1157.26
533.78	1171.73
534.14	1186.47
534.50	1200.64
534.86	1214.91
535.21	1228.56
535.57	1243.57
535.93	1258.04
536.29	1271.84
536.65	1285.57
537.00	1299.54
537.36	1314.19
537.72	1327.79
538.08	1341.00
538.44	1354.16
538.79	1367.89
539.15	1381.27
539.51	1395.14
539.87	1408.97
540.22	1422.04
540.58	1435.43
540.94	1448.41
541.29	1461.23
541.65	1473.94
542.01	1487.40
542.37	1500.41
542.72	1513.30
543.08	1525.67
543.44	1538.28
543.79	1549.90
544.15	1562.30
544.51	1575.16
544.87	1586.99
545.22	1598.77
545.58	1610.55
545.94	1621.68
546.29	1632.66
546.65	1643.50
547.01	1654.15
547.36	1664.63
547.72	1675.40
548.07	1685.44
548.43	1695.96
548.79	1706.15
549.14	1716.00
549.50	1725.22
549.86	1734.16
550.21	1743.09
550.57	1752.25
550.92	1760.83
551.28	1770.20
551.64	1778.96
551.99	1787.07
552.35	1795.34
552.70	1803.70
553.06	1812.06
553.41	1820.94
553.77	1828.69
554.13	1836.96
554.48	1845.00
554.84	1852.40
555.19	1859.85
555.55	1867.34
555.90	1874.01
556.26	1880.64
556.61	1887.75
556.97	1894.13
557.32	1900.97
557.68	1908.14
558.03	1914.78
558.39	1921.30
558.74	1927.98
559.10	1934.26
559.45	1940.30
559.81	1946.69
560.16	1952.74
560.52	1958.26
560.87	1964.00
561.23	1969.36
561.58	1975.35
561.94	1980.15
562.29	1984.91
562.64	1989.70
563.00	1994.02
563.35	1999.74
563.71	2005.22
564.06	2010.04
564.42	2014.98
564.77	2019.70
565.12	2023.94
565.48	2027.96
565.83	2031.52
566.19	2035.20
566.54	2038.38
566.89	2041.45
567.25	2044.24
567.60	2047.77
567.96	2051.24
568.31	2053.97
568.66	2056.63
569.02	2059.01
569.37	2061.05
569.72	2063.67
570.08	2065.50
570.43	2067.48
570.78	2068.16
571.14	2068.89
571.49	2069.82
571.84	2071.88
572.20	2072.17
572.55	2072.65
572.90	2072.70
573.26	2073.45
573.61	2073.71
573.96	2073.88
574.31	2073.28
574.67	2072.36
575.02	2071.06
575.37	2069.78
575.72	2067.73
576.08	2066.91
576.43	2065.10
576.78	2064.06
577.13	2062.97
577.49	2061.83
577.84	2060.17
578.19	2058.79
578.54	2057.06
578.90	2054.84
579.25	2051.04
579.60	2048.36
579.95	2045.71
580.30	2042.75
580.66	2039.28
581.01	2035.48
581.36	2032.40
581.71	2029.56
582.06	2026.79
582.42	2023.30
582.77	2019.53
583.12	2016.22
583.47	2012.88
583.82	2009.41
584.17	2005.55
584.53	2001.80
584.88	1998.10
585.23	1994.50
585.58	1990.93
585.93	1987.26
586.28	1983.84
586.63	1981.00
586.98	1977.41
587.34	1973.26
587.69	1969.40
588.04	1966.28
588.39	1962.87
588.74	1958.15
589.09	1953.57
589.44	1948.80
589.79	1945.01
590.14	1941.70
590.49	1937.63
590.84	1932.53
591.19	1928.04
591.54	1922.69
591.89	1916.35
592.25	1911.34
592.60	1905.60
592.95	1899.49
593.30	1893.30
593.65	1887.19
594.00	1880.74
594.35	1875.53
594.70	1869.77
595.05	1864.68
595.40	1858.20
595.75	1852.07
596.10	1846.38
596.45	1841.54
596.80	1836.41
597.15	1830.68
597.50	1824.26
597.85	1818.82
598.19	1813.74
598.54	1808.37
598.89	1803.55
599.24	1799.60
599.59	1794.07
599.94	1789.35
600.29	1784.12
600.64	1778.70
600.99	1772.53
601.34	1767.56
601.69	1761.70
602.04	1756.01
602.39	1749.87
602.74	1744.86
603.08	1739.92
603.43	1734.76
603.78	1728.77
604.13	1722.88
604.48	1716.77
604.83	1711.12
605.18	1705.51
605.53	1698.88
605.87	1692.04
606.22	1685.86
606.57	1678.78
606.92	1671.81
607.27	1665.96
607.62	1659.91
607.96	1654.02
608.31	1648.52
608.66	1641.89
609.01	1635.20
609.36	1628.28
609.70	1620.61
610.05	1613.03
610.40	1605.83
610.75	1598.77
611.10	1591.40
611.44	1583.33
611.79	1576.47
612.14	1569.03
612.49	1560.72
612.83	1553.27
613.18	1545.87
613.53	1538.42
613.88	1530.85
614.22	1523.62
614.57	1515.38
614.92	1507.97
615.27	1500.58
615.61	1492.99
615.96	1485.43
616.31	1478.30
616.65	1472.31
617.00	1465.93
617.35	1459.14
617.70	1451.64
618.04	1444.20
618.39	1437.20
618.74	1431.02
619.08	1423.57
619.43	1416.53
619.78	1410.14
620.12	1403.80
620.47	1396.90
620.82	1389.75
621.16	1382.92
621.51	1376.47
621.85	1369.61
622.20	1362.18
622.55	1355.45
622.89	1348.88
623.24	1342.20
623.59	1335.69
623.93	1328.22
624.28	1321.52
624.62	1314.88
624.97	1308.40
625.32	1302.51
625.66	1296.01
626.01	1289.17
626.35	1282.34
626.70	1275.88
627.04	1269.24
627.39	1261.85
627.73	1255.06
628.08	1248.44
628.43	1241.88
628.77	1234.98
629.12	1227.88
629.46	1221.05
629.81	1213.81
630.15	1206.30
630.50	1198.99
630.84	1191.26
631.19	1183.78
631.53	1176.85
631.88	1169.29
632.22	1161.92
632.57	1154.50
632.91	1147.00
633.26	1139.72
633.60	1132.47
633.95	1125.16
634.29	1118.20
634.64	1111.80
634.98	1104.65
635.32	1098.12
635.67	1091.70
636.01	1085.36
636.36	1079.05
636.70	1072.85
637.05	1066.57
637.39	1060.71
637.73	1054.83
638.08	1049.48
638.42	1044.03
638.77	1037.97
639.11	1032.11
639.45	1026.12
639.80	1019.83
640.14	1013.76
640.49	1008.09
640.83	1002.61
641.17	997.00
641.52	991.10
641.86	984.84
642.20	979.62
642.55	973.69
642.89	967.57
643.23	961.06
643.58	955.38
643.92	949.37
644.26	943.56
644.61	938.00
644.95	931.95
645.29	925.35
645.64	919.15
645.98	912.96
646.32	907.35
646.66	901.67
647.01	895.78
647.35	890.55
647.69	884.97
648.04	879.27
648.38	873.34
648.72	867.02
649.06	861.46
649.41	855.64
649.75	849.52
650.09	843.68
650.43	838.07
650.78	832.17
651.12	826.42
651.46	820.79
651.80	815.21
652.14	809.90
652.49	804.65
652.83	799.43
653.17	793.89
653.51	788.23
653.85	782.54
654.20	777.10
654.54	771.29
654.88	765.61
655.22	759.80
655.56	754.40
655.90	749.50
656.25	744.25
656.59	739.00
656.93	733.99
657.27	729.17
657.61	723.96
657.95	719.12
658.29	714.36
658.64	709.23
658.98	703.92
659.32	698.66
659.66	693.78
660.00	688.69
660.34	684.06
660.68	679.19
661.02	674.40
661.36	669.98
661.70	665.62
662.05	661.32
662.39	657.35
662.73	653.03
663.07	648.88
663.41	644.68
663.75	640.40
664.09	636.19
664.43	631.82
664.77	627.93
665.11	623.84
665.45	619.75
665.79	615.92
666.13	611.83
666.47	608.15
666.81	603.94
667.15	599.96
667.49	596.10
667.83	592.56
668.17	588.84
668.51	584.84
668.85	580.99
669.19	577.24
669.53	573.28
669.87	569.53
670.21	565.78
670.55	562.29
670.89	558.92
671.23	555.57
671.57	552.22
671.91	548.90
672.25	545.47
672.58	542.24
672.92	538.88
673.26	535.77
673.60	532.58
673.94	529.49
674.28	526.55
674.62	523.63
674.96	520.50
675.30	517.74
675.64	514.79
675.97	511.86
676.31	509.00
676.65	506.17
676.99	503.50
677.33	500.60
677.67	497.67
678.01	494.73
678.34	491.85
678.68	488.92
679.02	485.98
679.36	483.24
679.70	480.32
680.04	477.38
680.37	474.63
680.71	471.85
681.05	469.45
681.39	466.87
681.73	464.31
682.06	461.74
682.40	459.22
682.74	456.95
683.08	454.61
683.42	451.95
683.75	449.48
684.09	446.83
684.43	444.33
684.77	441.86
685.10	439.45
685.44	437.20
685.78	434.99
686.12	432.69
686.45	430.40
686.79	428.40
687.13	426.31
687.46	424.05
687.80	421.90
688.14	419.69
688.48	417.56
688.81	415.32
689.15	413.27
689.49	411.04
689.82	408.89
690.16	406.70
690.50	404.91
690.83	403.00
691.17	401.00
691.51	399.16
691.84	397.39
692.18	395.52
692.52	393.55
692.85	391.65
693.19	389.94
693.52	388.10
693.86	386.01
694.20	384.33
694.53	382.61
694.87	380.80
695.21	378.95
695.54	377.00
695.88	375.25
696.21	373.61
696.55	371.91
696.88	370.23
697.22	368.59
697.56	366.92
697.89	365.23
698.23	363.72
698.56	362.16
698.90	360.57
699.23	358.89
699.57	357.22
699.90	355.61
700.24	353.99
700.58	352.52
700.91	351.02
701.25	349.54
701.58	348.30
701.92	346.99
702.25	345.69
702.59	344.51
702.92	343.19
703.26	341.69
703.59	340.49
703.93	339.40
704.26	338.00
704.60	336.67
704.93	335.33
705.26	334.10
705.60	332.85
705.93	331.74
706.27	330.62
706.60	329.63
706.94	328.58
707.27	327.49
707.61	326.26
707.94	325.28
708.27	324.09
708.61	322.67
708.94	321.56
709.28	320.46
709.61	319.35
709.94	318.28
710.28	317.24
710.61	316.13
710.95	314.83
711.28	314.00
711.61	312.95
711.95	312.08
712.28	310.94
712.61	309.87
712.95	308.67
713.28	307.71
713.61	306.69
713.95	305.67
714.28	304.69
714.61	303.77
714.95	302.86
715.28	301.83
715.61	300.88
715.95	299.90
716.28	299.01
716.61	298.16
716.95	297.25
717.28	296.49
717.61	295.60
717.94	294.75
718.28	293.80
718.61	292.92
718.94	291.99
719.27	291.21
719.61	290.46
719.94	289.81
720.27	288.94
720.60	288.07
720.94	287.43
721.27	286.81
721.60	286.08
721.93	285.42
722.27	284.93
722.60	284.37
722.93	283.63
723.26	282.89
723.59	282.20
723.93	281.60
724.26	280.86
724.59	280.22
724.92	279.75
725.25	279.14
725.59	278.66
725.92	278.20
726.25	277.63
726.58	277.02
726.91	276.46
727.24	276.00
727.57	275.55
727.91	275.06
728.24	274.51
728.57	273.95
728.90	273.30
729.23	272.69
729.56	272.32
729.89	271.93
730.22	271.46
730.55	270.89
730.89	270.48
731.22	269.97
731.55	269.41
731.88	268.83
732.21	268.47
732.54	267.94
732.87	267.42
733.20	267.12
733.53	266.82
733.86	266.43
734.19	265.98
734.52	265.57
734.85	265.27
735.18	264.79
735.51	264.52
735.84	264.17
736.17	263.74
736.50	263.27
736.83	263.19
737.16	262.90
737.49	262.55
737.82	262.19
738.15	262.00
738.48	261.78
738.81	261.53
739.14	261.12
739.47	260.85
739.80	260.61
740.13	260.27
740.46	259.91
740.79	259.64
741.12	259.39
741.45	259.06
741.78	258.58
742.11	258.37
742.44	258.04
742.77	257.80
743.10	257.51
743.43	257.22
743.75	256.72
744.08	256.68
744.41	256.48
744.74	256.10
745.07	255.80
745.40	255.58
745.73	255.31
746.06	255.18
746.39	254.91
746.71	254.65
747.04	254.30
747.37	254.05
747.70	253.62
748.03	253.32
748.36	253.19
748.68	252.98
749.01	252.64
749.34	252.34
749.67	252.10
750.00	251.99
750.33	251.72
750.65	251.40
750.98	250.77
751.31	250.55
751.64	250.36
751.97	250.16
752.29	249.88
752.62	249.60
752.95	249.20
753.28	248.84
753.60	248.55
753.93	248.30
754.26	248.06
754.59	247.91
754.91	247.70
755.24	247.34
755.57	247.18
755.90	246.89
756.22	246.64
756.55	246.42
756.88	246.10
757.20	245.85
757.53	245.61
757.86	245.44
758.19	245.20
758.51	244.96
758.84	244.68
759.17	244.47
759.49	244.21
759.82	244.04
760.15	243.86
760.47	243.59
760.80	243.45
761.13	243.24
761.45	243.01
761.78	242.80
762.11	242.70
762.43	242.45
762.76	242.29
763.08	242.16
763.41	241.84
763.74	241.64
764.06	241.58
764.39	241.36
764.71	241.23
765.04	241.04
765.37	240.91
765.69	240.74
766.02	240.55
766.34	240.39
766.67	240.26
767.00	240.24
767.32	240.34
767.65	240.21
767.97	240.17
768.30	239.96
768.62	239.80
768.95	239.55
769.27	239.28
769.60	239.12
769.92	239.03
770.25	238.90
770.57	238.78
770.90	238.49
771.22	238.49
771.55	238.35
771.87	238.27
772.20	238.05
772.52	238.16
772.85	238.39
773.17	238.43
773.50	238.30
773.82	238.16
774.15	237.91
774.47	237.74
774.80	237.52
775.12	237.54
775.45	237.48
775.77	237.32
776.09	237.34
776.42	237.32
776.74	237.28
777.07	237.27
777.39	237.21
777.72	237.15
778.04	237.01
778.36	236.90
778.69	236.78
779.01	236.79
779.33	236.50
779.66	236.14
779.98	235.91
780.31	235.83
780.63	235.85
780.95	235.75
781.28	235.60
781.60	235.51
781.92	235.51
782.25	235.38
782.57	235.44
782.89	235.38
783.22	235.31
783.54	235.17
783.86	235.09
784.19	234.97
784.51	235.09
784.83	235.06
785.16	235.04
785.48	235.09
785.80	235.00
786.12	235.02
786.45	234.98
786.77	234.98
787.09	234.90
787.42	234.74
787.74	234.75
788.06	234.78
788.38	234.79
788.71	234.60
789.03	234.63
789.35	234.58
789.67	234.43
789.99	234.34
790.32	234.29
790.64	234.22
790.96	234.31
791.28	234.10
791.61	234.09
791.93	234.10
792.25	233.93
792.57	234.02
792.89	233.85
793.21	233.86
793.54	233.78
793.86	233.67
794.18	233.68
794.50	233.57
794.82	233.41
795.14	233.36
795.47	233.31
795.79	233.30
796.11	233.22
796.43	233.26
796.75	233.19
797.07	233.12
797.39	233.20
797.71	233.06
798.04	233.01
798.36	232.93
798.68	232.80
799.00	232.76
799.32	232.61
799.64	232.67
799.96	232.59
800.28	232.59
800.60	232.59
800.92	232.49
801.24	232.43
801.56	232.48
801.89	232.36
802.21	232.38
802.53	232.21
802.85	232.15
803.17	232.15
803.49	232.14
803.81	232.02
804.13	231.91
804.45	231.76
804.77	231.78
805.09	231.66
805.41	231.62
805.73	231.57
806.05	231.52
806.37	231.41
806.69	231.36
807.01	231.34
807.33	231.33
807.65	231.24
807.97	231.21
808.28	231.12
808.60	231.15
808.92	231.10
809.24	231.13
809.56	231.16
809.88	231.06
810.20	231.05
810.52	231.15
810.84	231.05
811.16	231.04
811.48	230.90
811.80	230.90
812.12	230.81
812.43	230.81
812.75	230.79
813.07	230.70
813.39	230.63
813.71	230.52
814.03	230.50
814.35	230.57
814.67	230.50
814.98	230.44
815.30	230.43
815.62	230.40
815.94	230.36
816.26	230.38
816.58	230.26
816.89	230.18
817.21	230.08
817.53	230.12
817.85	230.19
818.17	230.14
818.48	230.02
818.80	230.12
819.12	230.02
819.44	229.99
819.76	230.06
820.07	230.07
820.39	230.06
820.71	230.02
821.03	229.93
821.34	229.97
821.66	230.05
821.98	230.06
822.30	230.09
822.61	230.17
822.93	230.00
823.25	230.04
823.57	229.99
823.88	229.96
824.20	229.95
824.52	230.00
824.83	230.15
825.15	230.24
825.47	230.18
825.79	230.19
826.10	230.16
826.42	230.13
826.74	230.13
827.05	230.20
827.37	230.22
827.69	230.34
828.00	230.34
828.32	230.31
828.64	230.32
828.95	230.34
829.27	230.20
829.58	230.26
829.90	230.38
830.22	230.50
830.53	230.48
830.85	230.44
831.17	230.39
831.48	230.26
831.80	230.21
832.11	230.20
832.43	230.21
832.75	230.24
833.06	230.31
833.38	230.29
833.69	230.21
834.01	230.13
834.32	229.99
834.64	229.96
834.96	230.05
835.27	229.92
835.59	229.88
835.90	229.84
836.22	229.90
836.53	229.70
836.85	229.51
837.16	229.76
837.48	229.74
837.79	229.82
838.11	229.88
838.42	229.93
838.74	229.97
839.05	229.90
839.37	229.81
839.68	229.61
840.00	229.57
840.31	229.62
840.63	229.62
840.94	229.64
841.26	229.61
841.57	229.49
841.88	229.51
842.20	229.56
842.51	229.52
842.83	229.40
843.14	229.72
843.46	229.78
843.77	229.76
844.08	229.72
844.40	229.53
844.71	229.46
845.03	229.32
845.34	229.36
845.65	229.49
845.97	229.51
846.28	229.57
846.60	229.59
846.91	229.54
847.22	229.51
847.54	229.40
847.85	229.37
848.16	229.40
848.48	229.33
848.79	229.31
849.10	229.32
849.42	229.34
849.73	229.06
850.04	228.97
850.36	228.70
850.67	228.75
850.98	228.69
851.30	228.72
851.61	228.77
851.92	228.74
852.23	228.77
852.55	228.78
852.86	228.72
853.17	228.73
853.49	228.74
853.80	228.82
854.11	228.96
854.42	228.99
854.74	228.94
855.05	228.90
855.36	228.84
855.67	228.90
855.99	228.91
856.30	229.15
856.61	229.35
856.92	229.44
857.23	229.41
857.55	229.43
857.86	229.48
858.17	229.52
858.48	229.41
858.79	229.30
859.11	229.38
859.42	229.41
859.73	229.36
860.04	229.43
860.35	229.35
860.66	229.25
860.98	229.27
861.29	229.25
861.60	229.26
861.91	229.32
862.22	229.27
862.53	229.22
862.84	229.02
863.16	229.02
863.47	228.99
863.78	229.04
864.09	229.18
864.40	229.10
864.71	229.11
865.02	229.19
865.33	229.14
865.64	229.13
865.95	229.20
866.27	229.24
866.58	229.20
866.89	229.24
867.20	229.27
867.51	229.20
867.82	229.22
868.13	229.38
868.44	229.29
868.75	229.34
869.06	229.40
869.37	229.41
869.68	229.28
869.99	229.32
870.30	229.31
870.61	229.22
870.92	229.19
871.23	229.19
871.54	229.20
871.85	229.23
872.16	229.20
872.47	229.16
872.78	229.10
873.09	229.13
873.40	229.18
873.71	229.17
874.02	229.25
874.33	229.25
874.64	229.19
874.95	229.21
875.26	229.15
875.56	229.15
875.87	229.13
876.18	229.12
876.49	229.23
876.80	229.21
877.11	229.25
877.42	229.27
877.73	229.24
878.04	229.11
878.35	229.12
878.66	229.08
878.96	229.00
879.27	228.99
879.58	228.97
879.89	228.86
880.20	228.90
880.51	228.79
880.82	228.73
881.12	228.64
881.43	228.55
881.74	228.53
882.05	228.42
882.36	228.39
882.67	228.45
882.97	228.28
883.28	228.19
883.59	228.11
883.90	228.18
884.21	228.22
884.51	228.26
884.82	228.18
885.13	228.11
885.44	228.05
885.74	228.14
886.05	228.06
886.36	228.08
886.67	227.95
886.98	228.12
887.28	228.13
887.59	228.16
887.90	228.13
888.20	228.06
888.51	228.17
888.82	228.05
889.13	227.97
889.43	228.14
889.74	228.16
890.05	228.04
890.35	227.94
890.66	227.86
890.97	227.80
891.28	227.86
891.58	227.94
891.89	228.01
892.20	227.82
892.50	227.78
892.81	227.70
893.12	227.73
893.42	227.55
893.73	227.61
894.04	227.66
894.34	227.66
894.65	227.70
894.95	227.62
895.26	227.76
895.57	227.95
895.87	227.80
896.18	227.82
896.48	227.93
896.79	228.00
897.10	228.01
897.40	228.12
897.71	228.19
898.01	228.18
898.32	228.30
898.63	228.34
898.93	228.38
899.24	228.41
899.54	228.44
899.85	228.47
900.15	228.41
900.46	228.45
900.76	228.56
901.07	228.54
901.38	228.57
901.68	228.56
901.99	228.39
902.29	228.40
902.60	228.40
902.90	228.41
903.21	228.36
903.51	228.36
903.82	228.37
904.12	228.31
904.43	228.36
904.73	228.30
905.03	228.34
905.34	228.58
905.64	228.61
905.95	228.62
906.25	228.64
906.56	228.67
906.86	228.68
907.17	228.73
907.47	228.77
907.77	228.72
908.08	228.72
908.38	228.72
908.69	228.77
908.99	228.82
909.30	228.82
909.60	228.90
909.90	228.87
910.21	228.83
910.51	228.94
910.81	228.88
911.12	228.91
911.42	229.03
911.73	228.84
912.03	228.90
912.33	229.00
912.64	229.05
912.94	229.02
913.24	228.95
913.55	228.90
913.85	228.88
914.15	229.07
914.46	229.06
914.76	229.10
915.06	229.10
915.37	229.12
915.67	229.20
915.97	229.23
916.27	229.33
916.58	229.31
916.88	229.21
917.18	229.32
917.49	229.37
917.79	229.30
918.09	229.26
918.39	229.25
918.70	229.26
919.00	229.19
919.30	229.26
919.60	229.29
919.91	229.27
920.21	229.35
920.51	229.22
920.81	229.28
921.12	229.22
921.42	229.25
921.72	229.26
922.02	229.21
922.32	229.12
922.63	229.03
922.93	229.23
923.23	229.19
923.53	229.13
923.83	229.09
924.13	229.08
924.44	229.11
924.74	229.19
925.04	229.17
925.34	229.25
925.64	229.21
925.94	229.20
926.24	229.29
926.55	229.16
926.85	229.17
927.15	229.22
927.45	229.20
927.75	229.18
928.05	229.10
928.35	229.06
928.65	229.16
928.95	229.15
929.26	228.96
929.56	229.03
929.86	229.00
930.16	228.92
930.46	228.90
930.76	228.90
931.06	228.82
931.36	228.71
931.66	228.68
931.96	228.61
932.26	228.55
932.56	228.50
932.86	228.52
933.16	228.50
933.46	228.40
933.76	228.45
934.06	228.38
934.36	228.46
934.66	228.49
934.96	228.38
935.26	228.46
935.56	228.42
935.86	228.38
936.16	228.30
936.46	228.31
936.76	228.29
937.06	228.22
937.36	228.13
937.66	228.13
937.96	228.06
938.26	228.08
938.56	228.11
938.86	228.07
939.16	228.06
939.46	227.96
939.76	227.96
940.06	227.85
940.35	227.81
940.65	227.59
940.95	227.60
941.25	227.54
941.55	227.47
941.85	227.51
942.15	227.44
942.45	227.47
942.75	227.50
943.04	227.50
943.34	227.52
943.64	227.46
943.94	227.50
944.24	227.42
944.54	227.40
944.84	227.27
945.13	227.23
945.43	227.26
945.73	227.35
946.03	227.33
946.33	227.28
946.62	227.28
946.92	227.42
947.22	227.41
947.52	227.42
947.82	227.35
948.11	227.31
948.41	227.34
948.71	227.32
949.01	227.20
949.31	227.18
949.60	227.23
949.90	227.24
950.20	227.23
950.50	227.42
950.79	227.44
951.09	227.55
951.39	227.53
951.69	227.56
951.98	227.57
952.28	227.50
952.58	227.68
952.87	227.64
953.17	227.63
953.47	227.64
953.76	227.65
954.06	227.70
954.36	227.80
954.66	227.83
954.95	227.89
955.25	228.03
955.55	227.99
955.84	227.94
956.14	227.97
956.44	228.00
956.73	227.99
957.03	228.09
957.32	228.13
957.62	228.14
957.92	228.17
958.21	228.16
958.51	228.43
958.81	228.52
959.10	228.53
959.40	228.59
959.69	228.57
959.99	228.57
960.29	228.60
960.58	228.56
960.88	228.58
961.17	228.60
961.47	228.63
961.76	228.61
962.06	228.78
962.36	228.86
962.65	228.76
962.95	228.70
963.24	228.66
963.54	228.65
963.83	228.65
964.13	228.61
964.42	228.53
964.72	228.43
965.01	228.32
965.31	228.30
965.60	228.19
965.90	228.28
966.19	228.37
966.49	228.42
966.78	228.31
967.08	228.29
967.37	228.25
967.67	228.21
967.96	228.33
968.26	228.17
968.55	228.24
968.85	228.23
969.14	228.25
969.43	228.29
969.73	228.32
970.02	228.45
970.32	228.52
970.61	228.55
970.91	228.50
971.20	228.48
971.49	228.46
971.79	228.56
972.08	228.47
972.38	228.42
972.67	228.35
972.96	228.39
973.26	228.33
973.55	228.39
973.85	228.27
974.14	228.23
974.43	228.20
974.73	228.02
975.02	228.11
975.31	228.10
975.61	227.95
975.90	227.90
976.19	227.78
976.49	227.71
976.78	227.71
977.07	227.60
977.37	227.54
977.66	227.59
977.95	227.53
978.24	227.45
978.54	227.42
978.83	227.37
979.12	227.41
979.42	227.45
979.71	227.40
980.00	227.43
980.29	227.36
980.59	227.42
980.88	227.59
981.17	227.53
981.46	227.51
981.76	227.53
982.05	227.54
982.34	227.53
982.63	227.49
982.93	227.46
983.22	227.57
983.51	227.62
983.80	227.70
984.09	227.74
984.39	227.78
984.68	227.76
984.97	227.86
985.26	227.80
985.55	227.81
985.85	227.83
986.14	227.86
986.43	228.03
986.72	227.93
987.01	227.81
987.30	227.82
987.59	227.84
987.89	227.88
988.18	227.93
988.47	228.04
988.76	228.11
989.05	228.26
989.34	228.31
989.63	228.39
989.92	228.38
990.22	228.43
990.51	228.57
990.80	228.67
991.09	228.70
991.38	228.81
991.67	228.85
991.96	228.87
992.25	228.93
992.54	228.94
992.83	229.08
993.12	229.18
993.41	229.31
993.70	229.34
993.99	229.42
994.28	229.52
994.58	229.54
994.87	229.60
995.16	229.55
995.45	229.55
995.74	229.54
996.03	229.58
996.32	229.66
996.61	229.65
996.90	229.68
997.19	229.74
997.48	229.76
997.77	229.79
998.06	229.81
998.34	229.86
998.63	229.88
998.92	229.96
999.21	229.98
999.50	229.92
999.79	229.97
1000.08	229.92
1000.37	229.87
1000.66	229.89
1000.95	229.93
1001.24	229.90
1001.53	229.87
1001.82	229.87
1002.11	229.87
1002.40	229.82
1002.68	229.92
1002.97	230.05
1003.26	229.97
1003.55	229.98
1003.84	229.91
1004.13	230.00
1004.42	229.96
1004.71	229.78
1004.99	229.75
1005.28	229.75
1005.57	229.76
1005.86	229.76
1006.15	229.81
1006.44	229.76
1006.72	229.70
1007.01	229.58
1007.30	229.53
1007.59	229.51
1007.88	229.40
1008.17	229.37
1008.45	229.21
1008.74	228.97
1009.03	228.82
1009.32	228.76
1009.60	228.70
1009.89	228.77
1010.18	228.67
1010.47	228.58
1010.76	228.66
1011.04	228.53
1011.33	228.58
1011.62	228.52
1011.91	228.40
1012.19	228.34
1012.48	228.35
1012.77	228.34
1013.05	228.47
1013.34	228.57
1013.63	228.48
1013.92	228.48
1014.20	228.46
1014.49	228.55
1014.78	228.56
1015.06	228.36
1015.35	228.29
1015.64	228.28
1015.92	228.19
1016.21	228.09
1016.50	228.06
1016.78	228.08
1017.07	228.08
1017.36	227.91
1017.64	227.94
1017.93	228.00
1018.22	227.94
1018.50	227.84
1018.79	227.78
1019.08	227.74
1019.36	227.64
1019.65	227.68
1019.93	227.70
1020.22	227.67
1020.51	227.65
1020.79	227.68
1021.08	227.30
1021.36	227.10
1021.65	227.60
1021.94	229.70
1022.22	227.20
1022.51	227.60
1022.79	227.30
1023.08	228.40
1023.36	228.50
1023.65	227.40
>>>>>End Processed Spectral Data<<<<<
