SpectraSuite Data File
++++++++++++++++++++++++++++++++++++
Date: Fri Feb 01 14:39:03 EST 2013
User: group
Dark Spectrum Present: No
Reference Spectrum Present: No
Number of Sampled Component Spectra: 1
Spectrometers: USB2E7196
Integration Time (usec): 70000 (USB2E7196)
Spectra Averaged: 10 (USB2E7196)
Boxcar Smoothing: 10 (USB2E7196)
Correct for Electrical Dark: No (USB2E7196)
Strobe/Lamp Enabled: No (USB2E7196)
Correct for Detector Non-linearity: No (USB2E7196)
Correct for Stray Light: No (USB2E7196)
Number of Pixels in Processed Spectrum: 2048
>>>>>Begin Processed Spectral Data<<<<<
339.09	0.00
339.48	214.10
339.86	216.90
340.24	220.10
340.63	218.40
341.01	224.10
341.39	221.60
341.78	225.60
342.16	224.30
342.54	226.30
342.93	214.30
343.31	225.22
343.69	225.87
344.07	226.25
344.46	226.60
344.84	227.07
345.22	227.25
345.60	227.58
345.99	227.67
346.37	227.88
346.75	227.98
347.13	228.08
347.52	228.10
347.90	228.21
348.28	228.18
348.66	228.27
349.05	228.24
349.43	228.18
349.81	228.21
350.19	228.23
350.57	228.25
350.96	228.29
351.34	228.26
351.72	228.33
352.10	228.53
352.48	228.52
352.87	228.64
353.25	228.70
353.63	228.64
354.01	228.76
354.39	228.82
354.77	228.80
355.15	228.90
355.54	228.96
355.92	228.94
356.30	229.06
356.68	229.21
357.06	229.21
357.44	229.23
357.82	229.21
358.20	229.34
358.58	229.45
358.97	229.39
359.35	229.48
359.73	229.55
360.11	229.44
360.49	229.62
360.87	229.62
361.25	229.63
361.63	229.85
362.01	229.82
362.39	229.80
362.77	229.89
363.15	229.85
363.53	229.80
363.91	229.77
364.29	229.77
364.67	229.50
365.05	229.56
365.43	229.57
365.81	229.65
366.19	229.80
366.57	229.81
366.95	229.83
367.33	229.86
367.71	229.80
368.09	229.87
368.47	229.88
368.85	229.83
369.23	229.93
369.61	229.73
369.99	229.77
370.37	229.79
370.75	229.84
371.13	229.73
371.51	229.71
371.89	229.74
372.27	229.55
372.65	229.61
373.03	229.63
373.41	229.46
373.78	229.34
374.16	229.10
374.54	228.94
374.92	228.90
375.30	228.70
375.68	228.60
376.06	228.58
376.44	228.44
376.82	228.31
377.19	228.09
377.57	227.96
377.95	227.78
378.33	227.70
378.71	227.49
379.09	227.62
379.47	227.49
379.84	227.41
380.22	227.48
380.60	227.35
380.98	227.12
381.36	227.15
381.73	227.18
382.11	227.11
382.49	227.03
382.87	226.93
383.25	226.92
383.62	227.10
384.00	227.07
384.38	226.99
384.76	227.00
385.13	227.13
385.51	227.24
385.89	227.18
386.27	227.16
386.64	227.17
387.02	227.10
387.40	227.10
387.78	227.03
388.15	226.94
388.53	226.82
388.91	226.87
389.29	226.89
389.66	226.74
390.04	226.71
390.42	226.83
390.79	226.94
391.17	226.91
391.55	226.76
391.92	226.65
392.30	226.72
392.68	226.78
393.05	226.75
393.43	226.75
393.81	226.82
394.18	226.77
394.56	226.74
394.94	226.80
395.31	226.86
395.69	226.97
396.06	227.04
396.44	227.13
396.82	227.25
397.19	227.34
397.57	227.42
397.95	227.57
398.32	227.59
398.70	227.54
399.07	227.76
399.45	227.80
399.82	227.90
400.20	227.91
400.58	227.96
400.95	227.95
401.33	227.97
401.70	228.22
402.08	228.33
402.45	228.44
402.83	228.54
403.20	228.67
403.58	228.71
403.95	228.91
404.33	229.08
404.71	229.19
405.08	229.54
405.46	229.69
405.83	229.81
406.21	229.98
406.58	230.17
406.96	230.20
407.33	230.39
407.70	230.62
408.08	231.00
408.45	231.19
408.83	231.46
409.20	231.78
409.58	231.90
409.95	232.20
410.33	232.49
410.70	232.59
411.08	232.84
411.45	233.17
411.82	233.50
412.20	233.97
412.57	234.46
412.95	234.52
413.32	235.11
413.69	235.53
414.07	235.90
414.44	236.37
414.82	236.84
415.19	237.38
415.56	237.87
415.94	238.33
416.31	239.00
416.68	239.71
417.06	240.43
417.43	241.23
417.81	242.03
418.18	242.88
418.55	243.87
418.93	244.79
419.30	245.68
419.67	246.61
420.04	247.59
420.42	248.53
420.79	250.01
421.16	251.14
421.54	252.57
421.91	254.00
422.28	255.34
422.66	256.90
423.03	258.46
423.40	259.99
423.77	261.56
424.15	263.15
424.52	264.84
424.89	266.69
425.26	268.43
425.64	270.06
426.01	271.82
426.38	273.75
426.75	275.83
427.13	278.00
427.50	280.23
427.87	282.47
428.24	284.75
428.61	286.73
428.99	289.10
429.36	291.45
429.73	293.91
430.10	296.42
430.47	298.92
430.85	301.42
431.22	304.20
431.59	307.12
431.96	309.73
432.33	312.71
432.70	315.63
433.08	319.05
433.45	322.26
433.82	325.70
434.19	329.34
434.56	332.81
434.93	336.00
435.30	339.08
435.68	342.59
436.05	346.08
436.42	349.60
436.79	352.85
437.16	356.27
437.53	359.84
437.90	363.37
438.27	366.72
438.64	370.40
439.01	373.86
439.38	376.79
439.75	379.75
440.13	382.94
440.50	385.97
440.87	388.64
441.24	391.29
441.61	394.07
441.98	396.16
442.35	398.56
442.72	401.09
443.09	403.67
443.46	405.23
443.83	406.33
444.20	407.17
444.57	408.33
444.94	409.00
445.31	409.69
445.68	410.61
446.05	411.12
446.42	410.89
446.79	410.54
447.16	410.31
447.53	410.30
447.90	409.28
448.27	408.15
448.64	406.22
449.01	405.20
449.37	403.09
449.74	400.97
450.11	398.47
450.48	395.67
450.85	392.91
451.22	390.38
451.59	387.98
451.96	385.87
452.33	383.07
452.70	380.39
453.07	377.12
453.43	373.45
453.80	370.20
454.17	367.05
454.54	363.99
454.91	360.73
455.28	357.55
455.65	354.44
456.02	351.55
456.38	349.03
456.75	345.67
457.12	342.85
457.49	340.07
457.86	337.41
458.23	335.17
458.59	332.50
458.96	330.11
459.33	327.90
459.70	325.63
460.07	323.68
460.43	321.44
460.80	319.40
461.17	317.67
461.54	315.79
461.91	313.87
462.27	312.08
462.64	310.46
463.01	308.68
463.38	307.09
463.74	305.29
464.11	303.65
464.48	302.41
464.85	301.06
465.21	299.92
465.58	298.69
465.95	297.30
466.32	296.13
466.68	294.84
467.05	293.48
467.42	292.15
467.78	290.86
468.15	289.70
468.52	288.75
468.88	287.55
469.25	286.39
469.62	285.48
469.98	284.53
470.35	283.67
470.72	282.78
471.08	281.89
471.45	281.07
471.82	280.43
472.18	279.52
472.55	278.72
472.92	277.90
473.28	277.19
473.65	276.51
474.02	275.87
474.38	275.30
474.75	274.87
475.11	274.29
475.48	273.70
475.85	273.22
476.21	272.74
476.58	272.35
476.94	272.01
477.31	271.77
477.67	271.44
478.04	270.97
478.41	270.60
478.77	270.34
479.14	269.98
479.50	269.57
479.87	269.28
480.23	268.96
480.60	268.65
480.96	268.30
481.33	268.04
481.69	267.84
482.06	267.53
482.42	267.48
482.79	267.36
483.15	267.24
483.52	267.14
483.88	267.07
484.25	266.87
484.61	266.72
484.98	266.48
485.34	266.43
485.71	266.42
486.07	266.48
486.44	266.38
486.80	266.45
487.17	266.57
487.53	266.67
487.90	266.90
488.26	267.14
488.62	267.36
488.99	267.44
489.35	267.56
489.72	267.70
490.08	267.79
490.44	267.84
490.81	268.00
491.17	268.30
491.54	268.43
491.90	268.63
492.26	268.87
492.63	269.27
492.99	269.40
493.36	269.77
493.72	269.93
494.08	270.13
494.45	270.37
494.81	270.60
495.17	270.84
495.54	271.13
495.90	271.37
496.26	271.74
496.63	272.15
496.99	272.45
497.35	272.83
497.72	273.21
498.08	273.62
498.44	274.12
498.80	274.46
499.17	275.00
499.53	275.40
499.89	275.88
500.26	276.22
500.62	276.70
500.98	277.08
501.34	277.59
501.71	278.22
502.07	278.77
502.43	279.32
502.79	279.84
503.16	280.34
503.52	280.92
503.88	281.38
504.24	281.98
504.60	282.61
504.97	283.30
505.33	283.81
505.69	284.56
506.05	285.17
506.41	285.95
506.78	286.42
507.14	287.16
507.50	288.02
507.86	288.93
508.22	289.86
508.59	290.73
508.95	291.76
509.31	292.72
509.67	293.80
510.03	294.97
510.39	296.14
510.75	297.30
511.12	298.53
511.48	299.90
511.84	301.17
512.20	302.59
512.56	304.00
512.92	305.61
513.28	307.17
513.64	308.66
514.00	310.20
514.37	312.07
514.73	314.05
515.09	315.90
515.45	317.73
515.81	319.75
516.17	321.94
516.53	324.06
516.89	326.34
517.25	328.54
517.61	331.00
517.97	333.51
518.33	336.17
518.69	338.91
519.05	341.52
519.41	344.44
519.77	347.57
520.13	350.56
520.49	353.70
520.85	356.90
521.21	360.40
521.57	363.92
521.93	367.34
522.29	371.01
522.65	374.64
523.01	378.25
523.37	381.80
523.73	385.56
524.09	389.49
524.45	393.45
524.81	397.67
525.17	401.84
525.53	406.20
525.89	410.70
526.25	415.24
526.61	419.91
526.97	424.44
527.33	429.01
527.68	434.06
528.04	438.79
528.40	443.89
528.76	449.10
529.12	454.26
529.48	459.60
529.84	464.82
530.20	470.41
530.56	476.25
530.91	482.26
531.27	488.27
531.63	493.86
531.99	499.65
532.35	505.52
532.71	511.37
533.07	517.46
533.42	523.47
533.78	529.27
534.14	535.40
534.50	541.80
534.86	548.16
535.21	554.49
535.57	561.23
535.93	567.61
536.29	574.05
536.65	580.52
537.00	587.05
537.36	593.62
537.72	600.16
538.08	606.79
538.44	613.53
538.79	620.24
539.15	627.21
539.51	634.03
539.87	641.05
540.22	648.10
540.58	654.99
540.94	661.80
541.29	668.75
541.65	675.68
542.01	682.85
542.37	689.92
542.72	696.85
543.08	703.78
543.44	710.81
543.79	717.47
544.15	724.67
544.51	731.98
544.87	739.12
545.22	745.75
545.58	752.57
545.94	759.24
546.29	765.68
546.65	772.54
547.01	779.19
547.36	785.89
547.72	792.39
548.07	799.09
548.43	805.85
548.79	812.74
549.14	819.00
549.50	825.12
549.86	831.36
550.21	837.54
550.57	843.76
550.92	850.10
551.28	856.58
551.64	862.63
551.99	868.61
552.35	874.70
552.70	881.33
553.06	887.63
553.41	893.89
553.77	900.18
554.13	906.27
554.48	912.67
554.84	918.40
555.19	924.36
555.55	929.99
555.90	935.32
556.26	940.92
556.61	946.74
556.97	952.19
557.32	957.90
557.68	963.21
558.03	968.64
558.39	973.93
558.74	979.50
559.10	984.87
559.45	990.13
559.81	995.48
560.16	1000.41
560.52	1005.19
560.87	1010.31
561.23	1015.19
561.58	1020.30
561.94	1024.71
562.29	1029.55
562.64	1033.96
563.00	1038.48
563.35	1043.89
563.71	1048.86
564.06	1053.94
564.42	1058.96
564.77	1063.67
565.12	1068.80
565.48	1073.40
565.83	1077.68
566.19	1081.81
566.54	1085.64
566.89	1089.59
567.25	1093.40
567.60	1097.67
567.96	1102.05
568.31	1105.53
568.66	1109.17
569.02	1112.67
569.37	1116.18
569.72	1119.45
570.08	1122.85
570.43	1126.38
570.78	1128.83
571.14	1131.33
571.49	1134.17
571.84	1137.00
572.20	1139.08
572.55	1141.10
572.90	1143.23
573.26	1145.33
573.61	1147.57
573.96	1149.81
574.31	1151.56
574.67	1153.19
575.02	1154.25
575.37	1155.23
575.72	1156.11
576.08	1157.65
576.43	1158.64
576.78	1159.79
577.13	1161.20
577.49	1162.54
577.84	1163.41
578.19	1164.33
578.54	1165.06
578.90	1165.45
579.25	1165.65
579.60	1166.22
579.95	1166.34
580.30	1166.87
580.66	1167.12
581.01	1166.97
581.36	1167.17
581.71	1167.71
582.06	1167.69
582.42	1167.71
582.77	1167.98
583.12	1168.13
583.47	1167.87
583.82	1168.01
584.17	1167.51
584.53	1166.95
584.88	1166.33
585.23	1165.99
585.58	1165.70
585.93	1165.64
586.28	1165.41
586.63	1165.03
586.98	1164.70
587.34	1164.53
587.69	1163.85
588.04	1163.21
588.39	1162.51
588.74	1161.11
589.09	1159.97
589.44	1158.71
589.79	1157.84
590.14	1156.70
590.49	1155.82
590.84	1154.78
591.19	1153.34
591.54	1151.92
591.89	1149.90
592.25	1148.23
592.60	1145.89
592.95	1143.92
593.30	1141.48
593.65	1139.18
594.00	1137.21
594.35	1135.33
594.70	1132.93
595.05	1130.85
595.40	1128.87
595.75	1126.59
596.10	1124.83
596.45	1122.69
596.80	1120.97
597.15	1119.07
597.50	1116.91
597.85	1114.60
598.19	1112.15
598.54	1110.00
598.89	1108.26
599.24	1106.95
599.59	1104.97
599.94	1103.40
600.29	1101.22
600.64	1098.76
600.99	1096.10
601.34	1093.54
601.69	1090.70
602.04	1088.83
602.39	1086.35
602.74	1084.20
603.08	1082.10
603.43	1080.21
603.78	1077.81
604.13	1075.55
604.48	1072.71
604.83	1069.87
605.18	1067.34
605.53	1064.68
605.87	1061.63
606.22	1058.94
606.57	1055.85
606.92	1053.04
607.27	1050.34
607.62	1047.80
607.96	1045.47
608.31	1043.20
608.66	1040.21
609.01	1037.31
609.36	1033.42
609.70	1029.90
610.05	1026.34
610.40	1023.08
610.75	1019.04
611.10	1015.42
611.44	1011.50
611.79	1008.27
612.14	1004.74
612.49	1000.80
612.83	996.84
613.18	993.18
613.53	989.51
613.88	985.62
614.22	981.82
614.57	977.68
614.92	973.84
615.27	970.12
615.61	965.93
615.96	962.25
616.31	958.79
616.65	955.72
617.00	952.30
617.35	948.52
617.70	944.41
618.04	940.69
618.39	937.22
618.74	933.87
619.08	929.72
619.43	926.05
619.78	922.77
620.12	919.45
620.47	916.02
620.82	912.23
621.16	908.63
621.51	905.14
621.85	901.75
622.20	897.78
622.55	894.00
622.89	890.74
623.24	887.47
623.59	883.70
623.93	880.30
624.28	876.60
624.62	873.20
624.97	869.90
625.32	866.66
625.66	863.13
626.01	859.47
626.35	856.21
626.70	852.70
627.04	849.20
627.39	845.48
627.73	841.63
628.08	838.01
628.43	834.32
628.77	830.52
629.12	826.64
629.46	823.30
629.81	819.59
630.15	815.67
630.50	811.69
630.84	807.67
631.19	803.45
631.53	799.72
631.88	795.71
632.22	791.68
632.57	788.00
632.91	784.11
633.26	780.29
633.60	776.19
633.95	772.64
634.29	768.87
634.64	765.35
634.98	761.74
635.32	758.04
635.67	754.95
636.01	751.68
636.36	748.15
636.70	744.67
637.05	741.33
637.39	737.88
637.73	734.47
638.08	731.50
638.42	728.41
638.77	725.18
639.11	721.92
639.45	718.86
639.80	715.37
640.14	711.99
640.49	708.55
640.83	705.45
641.17	702.09
641.52	698.61
641.86	695.19
642.20	692.09
642.55	689.09
642.89	685.71
643.23	682.22
643.58	679.23
643.92	675.74
644.26	672.44
644.61	669.38
644.95	666.11
645.29	662.40
645.64	658.80
645.98	655.54
646.32	652.30
646.66	648.91
647.01	645.66
647.35	642.42
647.69	639.27
648.04	636.26
648.38	632.84
648.72	629.36
649.06	626.07
649.41	622.67
649.75	618.95
650.09	615.27
650.43	611.86
650.78	608.03
651.12	604.59
651.46	601.29
651.80	597.91
652.14	594.70
652.49	591.85
652.83	588.94
653.17	585.47
653.51	582.01
653.85	578.77
654.20	575.59
654.54	572.37
654.88	569.20
655.22	565.44
655.56	562.26
655.90	559.46
656.25	556.34
656.59	553.18
656.93	550.49
657.27	547.71
657.61	544.61
657.95	542.05
658.29	539.27
658.64	536.07
658.98	532.96
659.32	529.82
659.66	526.65
660.00	523.51
660.34	520.75
660.68	518.03
661.02	515.23
661.36	512.39
661.70	509.54
662.05	506.82
662.39	504.51
662.73	501.84
663.07	499.25
663.41	496.67
663.75	494.20
664.09	491.49
664.43	488.71
664.77	486.48
665.11	483.86
665.45	481.43
665.79	479.38
666.13	477.11
666.47	474.77
666.81	472.57
667.15	470.16
667.49	467.72
667.83	465.54
668.17	463.24
668.51	460.84
668.85	458.60
669.19	456.46
669.53	454.12
669.87	451.90
670.21	449.82
670.55	447.83
670.89	445.94
671.23	443.84
671.57	441.83
671.91	439.83
672.25	437.91
672.58	436.00
672.92	433.77
673.26	431.81
673.60	429.98
673.94	427.91
674.28	426.17
674.62	424.59
674.96	422.62
675.30	420.84
675.64	419.04
675.97	417.37
676.31	415.67
676.65	414.08
676.99	412.60
677.33	410.72
677.67	408.91
678.01	406.88
678.34	405.17
678.68	403.61
679.02	401.76
679.36	400.07
679.70	398.27
680.04	396.75
680.37	395.01
680.71	393.47
681.05	392.03
681.39	390.58
681.73	388.88
682.06	387.50
682.40	386.11
682.74	384.77
683.08	383.28
683.42	381.70
683.75	380.24
684.09	378.57
684.43	377.10
684.77	375.58
685.10	374.19
685.44	372.76
685.78	371.25
686.12	369.90
686.45	368.45
686.79	367.01
687.13	365.71
687.46	364.39
687.80	362.89
688.14	361.47
688.48	360.13
688.81	358.77
689.15	357.37
689.49	356.02
689.82	354.60
690.16	353.23
690.50	351.93
690.83	350.50
691.17	349.12
691.51	347.77
691.84	346.59
692.18	345.36
692.52	344.12
692.85	342.94
693.19	341.63
693.52	340.35
693.86	339.28
694.20	337.81
694.53	336.68
694.87	335.49
695.21	334.22
695.54	332.80
695.88	331.51
696.21	330.32
696.55	329.03
696.88	327.82
697.22	326.70
697.56	325.43
697.89	324.31
698.23	323.29
698.56	322.22
698.90	321.02
699.23	319.83
699.57	318.65
699.90	317.43
700.24	316.33
700.58	315.27
700.91	314.11
701.25	313.29
701.58	312.34
701.92	311.44
702.25	310.50
702.59	309.65
702.92	308.65
703.26	307.66
703.59	306.74
703.93	305.87
704.26	304.89
704.60	304.16
704.93	303.27
705.26	302.32
705.60	301.53
705.93	300.92
706.27	300.27
706.60	299.56
706.94	298.86
707.27	298.08
707.61	297.40
707.94	296.61
708.27	295.62
708.61	294.79
708.94	293.96
709.28	293.22
709.61	292.46
709.94	291.89
710.28	291.18
710.61	290.52
710.95	289.81
711.28	289.25
711.61	288.48
711.95	287.88
712.28	287.22
712.61	286.53
712.95	285.70
713.28	285.09
713.61	284.44
713.95	283.74
714.28	283.18
714.61	282.51
714.95	281.88
715.28	281.31
715.61	280.59
715.95	280.04
716.28	279.44
716.61	278.90
716.95	278.25
717.28	277.75
717.61	277.18
717.94	276.65
718.28	276.06
718.61	275.63
718.94	275.12
719.27	274.70
719.61	274.21
719.94	273.78
720.27	273.10
720.60	272.59
720.94	272.17
721.27	271.72
721.60	271.34
721.93	271.07
722.27	270.77
722.60	270.50
722.93	270.09
723.26	269.72
723.59	269.28
723.93	269.00
724.26	268.57
724.59	268.25
724.92	267.89
725.25	267.47
725.59	267.04
725.92	266.58
726.25	266.17
726.58	265.81
726.91	265.46
727.24	265.20
727.57	264.91
727.91	264.60
728.24	264.21
728.57	263.72
728.90	263.29
729.23	262.80
729.56	262.42
729.89	262.07
730.22	261.79
730.55	261.41
730.89	260.99
731.22	260.71
731.55	260.25
731.88	259.85
732.21	259.49
732.54	259.06
732.87	258.76
733.20	258.30
733.53	257.91
733.86	257.55
734.19	257.15
734.52	256.74
734.85	256.39
735.18	255.97
735.51	255.77
735.84	255.43
736.17	255.28
736.50	254.93
736.83	254.94
737.16	254.61
737.49	254.28
737.82	254.07
738.15	253.67
738.48	253.35
738.81	253.09
739.14	252.81
739.47	252.65
739.80	252.30
740.13	252.20
740.46	251.92
740.79	251.60
741.12	251.30
741.45	251.13
741.78	250.79
742.11	250.67
742.44	250.45
742.77	250.13
743.10	249.74
743.43	249.54
743.75	248.98
744.08	248.87
744.41	248.71
744.74	248.39
745.07	248.30
745.40	248.13
745.73	247.96
746.06	247.76
746.39	247.42
746.71	247.20
747.04	247.00
747.37	246.84
747.70	246.75
748.03	246.60
748.36	246.47
748.68	246.31
749.01	245.96
749.34	245.70
749.67	245.63
750.00	245.47
750.33	245.30
750.65	245.17
750.98	244.70
751.31	244.53
751.64	244.34
751.97	244.13
752.29	243.95
752.62	243.73
752.95	243.49
753.28	243.41
753.60	243.27
753.93	243.08
754.26	242.90
754.59	242.69
754.91	242.51
755.24	242.26
755.57	242.13
755.90	242.13
756.22	241.96
756.55	241.70
756.88	241.53
757.20	241.30
757.53	241.07
757.86	241.02
758.19	240.85
758.51	240.72
758.84	240.56
759.17	240.45
759.49	240.38
759.82	240.42
760.15	240.26
760.47	240.16
760.80	239.99
761.13	239.91
761.45	239.75
761.78	239.63
762.11	239.53
762.43	239.46
762.76	239.30
763.08	239.22
763.41	239.13
763.74	239.05
764.06	238.89
764.39	238.89
764.71	238.77
765.04	238.60
765.37	238.50
765.69	238.43
766.02	238.40
766.34	238.30
766.67	238.18
767.00	238.14
767.32	238.17
767.65	238.21
767.97	238.07
768.30	238.02
768.62	237.87
768.95	237.77
769.27	237.60
769.60	237.52
769.92	237.29
770.25	237.30
770.57	237.17
770.90	237.00
771.22	236.79
771.55	236.71
771.87	236.68
772.20	236.58
772.52	236.56
772.85	236.55
773.17	236.40
773.50	236.19
773.82	236.00
774.15	235.88
774.47	235.57
774.80	235.52
775.12	235.38
775.45	235.39
775.77	235.25
776.09	235.16
776.42	235.18
776.74	235.22
777.07	235.01
777.39	234.98
777.72	234.92
778.04	234.82
778.36	234.79
778.69	234.70
779.01	234.64
779.33	234.39
779.66	234.17
779.98	234.21
780.31	234.15
780.63	234.17
780.95	234.03
781.28	234.07
781.60	233.88
781.92	233.78
782.25	233.74
782.57	233.70
782.89	233.61
783.22	233.47
783.54	233.46
783.86	233.47
784.19	233.43
784.51	233.53
784.83	233.52
785.16	233.40
785.48	233.39
785.80	233.38
786.12	233.45
786.45	233.32
786.77	233.19
787.09	233.12
787.42	233.02
787.74	233.04
788.06	233.00
788.38	232.96
788.71	233.00
789.03	232.86
789.35	232.84
789.67	232.85
789.99	232.83
790.32	232.77
790.64	232.68
790.96	232.83
791.28	232.67
791.61	232.65
791.93	232.63
792.25	232.55
792.57	232.69
792.89	232.62
793.21	232.65
793.54	232.62
793.86	232.65
794.18	232.62
794.50	232.54
794.82	232.46
795.14	232.55
795.47	232.42
795.79	232.47
796.11	232.39
796.43	232.31
796.75	232.25
797.07	232.22
797.39	232.23
797.71	231.98
798.04	231.89
798.36	231.83
798.68	231.81
799.00	231.84
799.32	231.64
799.64	231.64
799.96	231.66
800.28	231.69
800.60	231.65
800.92	231.62
801.24	231.59
801.56	231.62
801.89	231.54
802.21	231.68
802.53	231.64
802.85	231.71
803.17	231.85
803.49	231.78
803.81	231.75
804.13	231.70
804.45	231.76
804.77	231.84
805.09	231.82
805.41	231.74
805.73	231.70
806.05	231.68
806.37	231.69
806.69	231.60
807.01	231.52
807.33	231.53
807.65	231.60
807.97	231.67
808.28	231.66
808.60	231.59
808.92	231.43
809.24	231.38
809.56	231.26
809.88	231.13
810.20	231.05
810.52	230.95
810.84	230.90
811.16	230.80
811.48	230.71
811.80	230.77
812.12	230.79
812.43	230.75
812.75	230.68
813.07	230.42
813.39	230.38
813.71	230.28
814.03	230.20
814.35	230.08
814.67	229.95
814.98	229.80
815.30	229.78
815.62	229.66
815.94	229.53
816.26	229.65
816.58	229.59
816.89	229.64
817.21	229.61
817.53	229.61
817.85	229.52
818.17	229.47
818.48	229.40
818.80	229.36
819.12	229.25
819.44	229.20
819.76	229.31
820.07	229.31
820.39	229.34
820.71	229.27
821.03	229.20
821.34	229.11
821.66	229.00
821.98	228.98
822.30	229.00
822.61	229.05
822.93	228.89
823.25	228.87
823.57	228.78
823.88	228.86
824.20	228.74
824.52	228.86
824.83	228.89
825.15	228.83
825.47	228.81
825.79	228.93
826.10	228.87
826.42	228.85
826.74	228.87
827.05	228.75
827.37	228.80
827.69	228.82
828.00	228.86
828.32	229.01
828.64	228.96
828.95	229.12
829.27	229.21
829.58	229.22
829.90	229.25
830.22	229.38
830.53	229.31
830.85	229.35
831.17	229.21
831.48	229.31
831.80	229.26
832.11	229.33
832.43	229.20
832.75	229.23
833.06	229.31
833.38	229.27
833.69	229.35
834.01	229.34
834.32	229.33
834.64	229.32
834.96	229.38
835.27	229.44
835.59	229.35
835.90	229.36
836.22	229.37
836.53	229.36
836.85	229.31
837.16	229.50
837.48	229.55
837.79	229.72
838.11	229.64
838.42	229.75
838.74	229.74
839.05	229.84
839.37	229.90
839.68	229.81
840.00	229.87
840.31	229.98
840.63	229.95
840.94	229.99
841.26	229.95
841.57	229.92
841.88	230.00
842.20	230.04
842.51	229.99
842.83	229.93
843.14	230.10
843.46	230.14
843.77	230.02
844.08	230.11
844.40	229.98
844.71	229.99
845.03	229.96
845.34	229.94
845.65	229.94
845.97	229.95
846.28	230.00
846.60	230.00
846.91	229.88
847.22	229.93
847.54	229.87
847.85	229.91
848.16	229.79
848.48	229.68
848.79	229.66
849.10	229.67
849.42	229.70
849.73	229.46
850.04	229.34
850.36	229.27
850.67	229.20
850.98	229.23
851.30	229.25
851.61	229.14
851.92	229.11
852.23	229.11
852.55	229.03
852.86	228.89
853.17	228.89
853.49	228.89
853.80	228.94
854.11	228.97
854.42	228.94
854.74	228.95
855.05	229.03
855.36	228.97
855.67	228.95
855.99	228.94
856.30	229.18
856.61	229.05
856.92	229.03
857.23	228.97
857.55	228.96
857.86	228.97
858.17	229.04
858.48	228.92
858.79	228.87
859.11	228.98
859.42	228.97
859.73	228.88
860.04	228.81
860.35	228.74
860.66	228.59
860.98	228.64
861.29	228.66
861.60	228.56
861.91	228.62
862.22	228.60
862.53	228.65
862.84	228.46
863.16	228.50
863.47	228.47
863.78	228.50
864.09	228.51
864.40	228.37
864.71	228.36
865.02	228.45
865.33	228.35
865.64	228.22
865.95	228.37
866.27	228.54
866.58	228.60
866.89	228.59
867.20	228.67
867.51	228.64
867.82	228.65
868.13	228.77
868.44	228.66
868.75	228.70
869.06	228.63
869.37	228.61
869.68	228.63
869.99	228.63
870.30	228.65
870.61	228.69
870.92	228.80
871.23	228.82
871.54	228.90
871.85	228.99
872.16	229.06
872.47	229.00
872.78	228.87
873.09	228.98
873.40	229.01
873.71	229.06
874.02	229.08
874.33	229.01
874.64	229.01
874.95	229.10
875.26	229.06
875.56	229.06
875.87	229.16
876.18	229.26
876.49	229.42
876.80	229.30
877.11	229.25
877.42	229.23
877.73	229.19
878.04	229.12
878.35	229.15
878.66	229.29
878.96	229.30
879.27	229.26
879.58	229.30
879.89	229.30
880.20	229.27
880.51	229.23
880.82	229.32
881.12	229.28
881.43	229.31
881.74	229.37
882.05	229.42
882.36	229.27
882.67	229.25
882.97	229.19
883.28	229.37
883.59	229.38
883.90	229.39
884.21	229.55
884.51	229.51
884.82	229.57
885.13	229.47
885.44	229.44
885.74	229.39
886.05	229.22
886.36	229.16
886.67	229.08
886.98	229.24
887.28	229.25
887.59	229.23
887.90	229.22
888.20	229.05
888.51	229.00
888.82	229.02
889.13	229.04
889.43	229.08
889.74	228.98
890.05	228.96
890.35	228.93
890.66	228.83
890.97	228.82
891.28	228.75
891.58	228.66
891.89	228.70
892.20	228.73
892.50	228.69
892.81	228.60
893.12	228.60
893.42	228.35
893.73	228.26
894.04	228.17
894.34	228.12
894.65	228.21
894.95	228.13
895.26	228.05
895.57	228.17
895.87	228.05
896.18	228.05
896.48	228.00
896.79	227.94
897.10	227.99
897.40	227.93
897.71	227.94
898.01	227.89
898.32	227.79
898.63	227.71
898.93	227.70
899.24	227.69
899.54	227.75
899.85	227.77
900.15	227.76
900.46	227.77
900.76	227.77
901.07	227.71
901.38	227.77
901.68	227.85
901.99	227.78
902.29	227.72
902.60	227.62
902.90	227.67
903.21	227.65
903.51	227.55
903.82	227.57
904.12	227.49
904.43	227.53
904.73	227.52
905.03	227.57
905.34	227.80
905.64	227.90
905.95	227.97
906.25	228.00
906.56	227.92
906.86	227.90
907.17	227.86
907.47	227.90
907.77	227.89
908.08	227.79
908.38	227.65
908.69	227.71
908.99	227.78
909.30	227.81
909.60	227.86
909.90	227.79
910.21	227.77
910.51	227.88
910.81	227.90
911.12	228.04
911.42	228.05
911.73	227.90
912.03	227.87
912.33	227.82
912.64	227.86
912.94	227.96
913.24	228.02
913.55	228.10
913.85	228.13
914.15	228.20
914.46	228.24
914.76	228.34
915.06	228.30
915.37	228.22
915.67	228.20
915.97	228.10
916.27	228.14
916.58	228.21
916.88	228.14
917.18	228.18
917.49	228.22
917.79	228.30
918.09	228.29
918.39	228.29
918.70	228.34
919.00	228.38
919.30	228.45
919.60	228.46
919.91	228.41
920.21	228.33
920.51	228.16
920.81	228.31
921.12	228.33
921.42	228.30
921.72	228.38
922.02	228.39
922.32	228.50
922.63	228.52
922.93	228.63
923.23	228.64
923.53	228.48
923.83	228.39
924.13	228.44
924.44	228.43
924.74	228.51
925.04	228.52
925.34	228.48
925.64	228.52
925.94	228.41
926.24	228.49
926.55	228.51
926.85	228.56
927.15	228.50
927.45	228.46
927.75	228.54
928.05	228.56
928.35	228.46
928.65	228.59
928.95	228.60
929.26	228.47
929.56	228.36
929.86	228.51
930.16	228.42
930.46	228.28
930.76	228.30
931.06	228.18
931.36	228.12
931.66	228.12
931.96	228.00
932.26	228.00
932.56	227.85
932.86	227.89
933.16	227.98
933.46	227.90
933.76	227.77
934.06	227.71
934.36	227.74
934.66	227.70
934.96	227.54
935.26	227.57
935.56	227.53
935.86	227.63
936.16	227.46
936.46	227.42
936.76	227.44
937.06	227.41
937.36	227.39
937.66	227.38
937.96	227.42
938.26	227.40
938.56	227.40
938.86	227.48
939.16	227.51
939.46	227.49
939.76	227.53
940.06	227.57
940.35	227.52
940.65	227.49
940.95	227.56
941.25	227.46
941.55	227.40
941.85	227.41
942.15	227.52
942.45	227.62
942.75	227.68
943.04	227.75
943.34	227.75
943.64	227.84
943.94	227.86
944.24	227.89
944.54	227.90
944.84	228.00
945.13	227.98
945.43	227.90
945.73	227.90
946.03	227.86
946.33	227.84
946.62	228.04
946.92	228.04
947.22	228.10
947.52	228.29
947.82	228.36
948.11	228.46
948.41	228.39
948.71	228.46
949.01	228.46
949.31	228.47
949.60	228.51
949.90	228.50
950.20	228.48
950.50	228.39
950.79	228.40
951.09	228.49
951.39	228.44
951.69	228.49
951.98	228.57
952.28	228.68
952.58	228.78
952.87	228.70
953.17	228.70
953.47	228.69
953.76	228.65
954.06	228.58
954.36	228.39
954.66	228.44
954.95	228.40
955.25	228.44
955.55	228.46
955.84	228.40
956.14	228.47
956.44	228.52
956.73	228.49
957.03	228.52
957.32	228.48
957.62	228.53
957.92	228.58
958.21	228.51
958.51	228.63
958.81	228.66
959.10	228.67
959.40	228.74
959.69	228.77
959.99	228.70
960.29	228.77
960.58	228.91
960.88	228.89
961.17	228.87
961.47	228.99
961.76	228.87
962.06	228.94
962.36	228.90
962.65	228.89
962.95	228.96
963.24	228.85
963.54	228.87
963.83	228.89
964.13	228.88
964.42	228.79
964.72	228.62
965.01	228.59
965.31	228.52
965.60	228.46
965.90	228.55
966.19	228.55
966.49	228.46
966.78	228.41
967.08	228.41
967.37	228.46
967.67	228.32
967.96	228.42
968.26	228.35
968.55	228.28
968.85	228.21
969.14	228.20
969.43	228.27
969.73	228.20
970.02	228.16
970.32	228.08
970.61	228.08
970.91	228.00
971.20	228.01
971.49	227.95
971.79	228.03
972.08	227.82
972.38	227.83
972.67	227.77
972.96	227.76
973.26	227.71
973.55	227.77
973.85	227.79
974.14	227.80
974.43	227.73
974.73	227.74
975.02	227.84
975.31	227.78
975.61	227.76
975.90	227.73
976.19	227.76
976.49	227.79
976.78	227.75
977.07	227.91
977.37	227.83
977.66	228.00
977.95	227.90
978.24	227.94
978.54	228.02
978.83	228.10
979.12	228.13
979.42	228.10
979.71	228.03
980.00	227.94
980.29	227.93
980.59	227.99
980.88	228.03
981.17	227.92
981.46	228.03
981.76	227.99
982.05	228.15
982.34	228.14
982.63	228.21
982.93	228.32
983.22	228.36
983.51	228.41
983.80	228.44
984.09	228.57
984.39	228.56
984.68	228.52
984.97	228.65
985.26	228.62
985.55	228.72
985.85	228.65
986.14	228.87
986.43	228.91
986.72	229.04
987.01	229.01
987.30	229.10
987.59	229.07
987.89	229.10
988.18	229.00
988.47	229.10
988.76	229.06
989.05	229.19
989.34	229.13
989.63	229.26
989.92	229.17
990.22	229.07
990.51	229.05
990.80	229.16
991.09	229.10
991.38	229.12
991.67	229.13
991.96	229.26
992.25	229.18
992.54	229.21
992.83	229.15
993.12	229.18
993.41	229.13
993.70	229.08
993.99	229.10
994.28	229.19
994.58	229.10
994.87	229.02
995.16	228.90
995.45	228.79
995.74	228.68
996.03	228.75
996.32	228.81
996.61	228.97
996.90	228.88
997.19	228.82
997.48	228.78
997.77	228.84
998.06	228.90
998.34	228.85
998.63	228.79
998.92	228.74
999.21	228.68
999.50	228.71
999.79	228.73
1000.08	228.67
1000.37	228.59
1000.66	228.60
1000.95	228.74
1001.24	228.70
1001.53	228.79
1001.82	228.74
1002.11	228.70
1002.40	228.67
1002.68	228.61
1002.97	228.72
1003.26	228.76
1003.55	228.78
1003.84	228.60
1004.13	228.51
1004.42	228.46
1004.71	228.42
1004.99	228.43
1005.28	228.48
1005.57	228.44
1005.86	228.34
1006.15	228.40
1006.44	228.38
1006.72	228.34
1007.01	228.26
1007.30	228.23
1007.59	228.09
1007.88	228.01
1008.17	227.88
1008.45	227.80
1008.74	227.64
1009.03	227.52
1009.32	227.51
1009.60	227.46
1009.89	227.43
1010.18	227.36
1010.47	227.35
1010.76	227.34
1011.04	227.33
1011.33	227.40
1011.62	227.30
1011.91	227.47
1012.19	227.47
1012.48	227.38
1012.77	227.33
1013.05	227.45
1013.34	227.49
1013.63	227.47
1013.92	227.60
1014.20	227.66
1014.49	227.69
1014.78	227.78
1015.06	227.73
1015.35	227.52
1015.64	227.61
1015.92	227.73
1016.21	227.71
1016.50	227.76
1016.78	227.74
1017.07	227.77
1017.36	227.64
1017.64	227.72
1017.93	227.62
1018.22	227.54
1018.50	227.66
1018.79	227.72
1019.08	227.61
1019.36	227.55
1019.65	227.65
1019.93	227.57
1020.22	227.57
1020.51	227.66
1020.79	227.68
1021.08	226.60
1021.36	228.90
1021.65	228.10
1021.94	228.20
1022.22	226.50
1022.51	228.20
1022.79	226.50
1023.08	228.00
1023.36	229.80
1023.65	228.20
>>>>>End Processed Spectral Data<<<<<
