SpectraSuite Data File
++++++++++++++++++++++++++++++++++++
Date: Fri Feb 01 14:37:57 EST 2013
User: group
Dark Spectrum Present: No
Reference Spectrum Present: No
Number of Sampled Component Spectra: 1
Spectrometers: USB2E7196
Integration Time (usec): 70000 (USB2E7196)
Spectra Averaged: 10 (USB2E7196)
Boxcar Smoothing: 10 (USB2E7196)
Correct for Electrical Dark: No (USB2E7196)
Strobe/Lamp Enabled: No (USB2E7196)
Correct for Detector Non-linearity: No (USB2E7196)
Correct for Stray Light: No (USB2E7196)
Number of Pixels in Processed Spectrum: 2048
>>>>>Begin Processed Spectral Data<<<<<
339.09	0.00
339.48	216.70
339.86	218.50
340.24	219.00
340.63	219.80
341.01	223.50
341.39	223.90
341.78	224.90
342.16	225.10
342.54	226.90
342.93	214.51
343.31	225.25
343.69	225.71
344.07	226.19
344.46	226.60
344.84	227.00
345.22	227.22
345.60	227.38
345.99	227.50
346.37	227.65
346.75	227.68
347.13	227.84
347.52	227.92
347.90	227.99
348.28	228.06
348.66	228.04
349.05	227.95
349.43	227.98
349.81	228.00
350.19	227.98
350.57	228.00
350.96	228.07
351.34	228.24
351.72	228.35
352.10	228.30
352.48	228.39
352.87	228.41
353.25	228.45
353.63	228.50
354.01	228.62
354.39	228.67
354.77	228.67
355.15	228.71
355.54	228.67
355.92	228.71
356.30	228.73
356.68	229.00
357.06	229.16
357.44	229.22
357.82	229.24
358.20	229.35
358.58	229.36
358.97	229.39
359.35	229.42
359.73	229.48
360.11	229.62
360.49	229.59
360.87	229.63
361.25	229.62
361.63	229.86
362.01	229.78
362.39	229.80
362.77	229.84
363.15	229.84
363.53	229.89
363.91	229.94
364.29	229.90
364.67	229.73
365.05	229.72
365.43	229.74
365.81	229.78
366.19	229.79
366.57	229.91
366.95	229.90
367.33	229.88
367.71	229.91
368.09	229.85
368.47	229.83
368.85	229.76
369.23	229.82
369.61	229.57
369.99	229.66
370.37	229.60
370.75	229.67
371.13	229.53
371.51	229.51
371.89	229.37
372.27	229.37
372.65	229.33
373.03	229.11
373.41	229.14
373.78	229.04
374.16	228.86
374.54	228.59
374.92	228.41
375.30	228.32
375.68	228.20
376.06	228.14
376.44	228.16
376.82	228.12
377.19	227.97
377.57	227.92
377.95	227.80
378.33	227.73
378.71	227.47
379.09	227.41
379.47	227.32
379.84	227.22
380.22	227.13
380.60	226.95
380.98	226.96
381.36	226.74
381.73	226.68
382.11	226.68
382.49	226.72
382.87	226.67
383.25	226.63
383.62	226.76
384.00	226.65
384.38	226.45
384.76	226.43
385.13	226.41
385.51	226.41
385.89	226.35
386.27	226.27
386.64	226.35
387.02	226.36
387.40	226.25
387.78	226.29
388.15	226.20
388.53	226.16
388.91	226.09
389.29	226.08
389.66	226.10
390.04	226.01
390.42	226.04
390.79	226.03
391.17	226.01
391.55	225.76
391.92	225.80
392.30	225.87
392.68	225.89
393.05	225.92
393.43	225.91
393.81	225.94
394.18	225.95
394.56	225.99
394.94	226.06
395.31	226.11
395.69	226.22
396.06	226.38
396.44	226.49
396.82	226.54
397.19	226.68
397.57	226.70
397.95	226.84
398.32	226.87
398.70	227.06
399.07	227.19
399.45	227.32
399.82	227.47
400.20	227.48
400.58	227.56
400.95	227.60
401.33	227.79
401.70	228.05
402.08	228.18
402.45	228.39
402.83	228.52
403.20	228.66
403.58	228.77
403.95	228.89
404.33	229.10
404.71	229.37
405.08	229.78
405.46	230.00
405.83	230.13
406.21	230.30
406.58	230.54
406.96	230.66
407.33	230.92
407.70	231.12
408.08	231.63
408.45	231.91
408.83	232.33
409.20	232.49
409.58	232.73
409.95	233.10
410.33	233.33
410.70	233.73
411.08	234.24
411.45	234.63
411.82	235.14
412.20	235.67
412.57	236.13
412.95	236.35
413.32	236.96
413.69	237.63
414.07	238.28
414.44	238.88
414.82	239.60
415.19	240.41
415.56	241.20
415.94	241.89
416.31	242.75
416.68	243.55
417.06	244.69
417.43	245.58
417.81	246.68
418.18	247.87
418.55	248.96
418.93	250.10
419.30	251.49
419.67	252.71
420.04	254.09
420.42	255.51
420.79	257.24
421.16	258.84
421.54	260.55
421.91	262.23
422.28	264.06
422.66	265.99
423.03	267.83
423.40	269.78
423.77	271.82
424.15	273.90
424.52	276.15
424.89	278.63
425.26	280.90
425.64	283.07
426.01	285.51
426.38	288.06
426.75	290.58
427.13	293.14
427.50	296.04
427.87	298.98
428.24	301.87
428.61	304.69
428.99	307.78
429.36	311.05
429.73	314.49
430.10	317.75
430.47	320.98
430.85	324.33
431.22	328.00
431.59	331.97
431.96	335.64
432.33	339.62
432.70	343.38
433.08	348.02
433.45	352.31
433.82	356.51
434.19	361.50
434.56	366.35
434.93	370.69
435.30	374.90
435.68	379.65
436.05	384.42
436.42	389.01
436.79	393.24
437.16	397.79
437.53	402.54
437.90	407.21
438.27	412.00
438.64	416.87
439.01	421.43
439.38	425.38
439.75	429.21
440.13	433.75
440.50	437.87
440.87	441.36
441.24	444.83
441.61	448.89
441.98	451.53
442.35	454.90
442.72	458.50
443.09	462.29
443.46	464.25
443.83	465.75
444.20	467.18
444.57	469.20
444.94	470.21
445.31	471.38
445.68	472.72
446.05	473.43
446.42	473.44
446.79	473.21
447.16	472.90
447.53	472.96
447.90	471.47
448.27	470.08
448.64	467.89
449.01	466.81
449.37	463.91
449.74	461.27
450.11	457.94
450.48	454.25
450.85	450.25
451.22	447.28
451.59	444.34
451.96	441.52
452.33	437.38
452.70	433.95
453.07	429.45
453.43	424.82
453.80	420.48
454.17	416.21
454.54	412.35
454.91	408.09
455.28	403.90
455.65	400.04
456.02	396.26
456.38	392.93
456.75	388.52
457.12	385.00
457.49	381.34
457.86	377.77
458.23	374.86
458.59	371.50
458.96	368.26
459.33	365.17
459.70	362.16
460.07	359.90
460.43	356.99
460.80	354.29
461.17	351.90
461.54	349.45
461.91	347.21
462.27	344.62
462.64	342.54
463.01	340.20
463.38	337.92
463.74	335.60
464.11	333.55
464.48	331.86
464.85	330.04
465.21	328.65
465.58	327.12
465.95	325.27
466.32	323.66
466.68	321.95
467.05	320.37
467.42	318.73
467.78	316.96
468.15	315.45
468.52	314.29
468.88	312.86
469.25	311.43
469.62	310.26
469.98	309.06
470.35	308.04
470.72	306.90
471.08	305.74
471.45	304.74
471.82	303.76
472.18	302.48
472.55	301.53
472.92	300.44
473.28	299.45
473.65	298.44
474.02	297.60
474.38	296.83
474.75	296.17
475.11	295.25
475.48	294.58
475.85	293.87
476.21	293.34
476.58	292.83
476.94	292.32
477.31	291.62
477.67	291.09
478.04	290.52
478.41	290.24
478.77	290.06
479.14	289.64
479.50	289.21
479.87	288.96
480.23	288.66
480.60	288.40
480.96	288.18
481.33	288.08
481.69	287.94
482.06	287.73
482.42	287.51
482.79	287.43
483.15	287.43
483.52	287.49
483.88	287.27
484.25	287.07
484.61	287.12
484.98	287.11
485.34	287.13
485.71	287.27
486.07	287.30
486.44	287.22
486.80	287.38
487.17	287.52
487.53	287.86
487.90	288.02
488.26	288.28
488.62	288.64
488.99	289.01
489.35	289.28
489.72	289.59
490.08	289.98
490.44	290.30
490.81	290.65
491.17	290.98
491.54	291.52
491.90	291.94
492.26	292.43
492.63	292.97
492.99	293.49
493.36	293.94
493.72	294.40
494.08	294.87
494.45	295.32
494.81	295.97
495.17	296.46
495.54	297.06
495.90	297.69
496.26	298.05
496.63	298.40
496.99	298.91
497.35	299.42
497.72	299.89
498.08	300.52
498.44	301.08
498.80	301.67
499.17	302.14
499.53	302.73
499.89	303.10
500.26	303.52
500.62	304.09
500.98	304.54
501.34	305.07
501.71	305.52
502.07	305.86
502.43	306.17
502.79	306.32
503.16	306.70
503.52	306.97
503.88	307.36
504.24	307.66
504.60	307.91
504.97	308.23
505.33	308.53
505.69	308.90
506.05	308.97
506.41	309.23
506.78	309.40
507.14	309.61
507.50	309.91
507.86	310.24
508.22	310.35
508.59	310.48
508.95	310.59
509.31	310.87
509.67	311.10
510.03	311.30
510.39	311.67
510.75	311.81
511.12	312.00
511.48	312.21
511.84	312.42
512.20	312.67
512.56	312.75
512.92	313.08
513.28	313.15
513.64	313.35
514.00	313.66
514.37	313.91
514.73	314.15
515.09	314.40
515.45	314.57
515.81	314.88
516.17	315.24
516.53	315.58
516.89	315.90
517.25	316.50
517.61	317.06
517.97	317.65
518.33	318.28
518.69	318.95
519.05	319.68
519.41	320.43
519.77	321.29
520.13	322.23
520.49	323.08
520.85	324.00
521.21	325.15
521.57	326.14
521.93	327.30
522.29	328.61
522.65	329.75
523.01	331.21
523.37	332.49
523.73	333.91
524.09	335.54
524.45	337.19
524.81	338.94
525.17	340.63
525.53	342.42
525.89	344.35
526.25	346.28
526.61	348.26
526.97	350.45
527.33	352.64
527.68	355.14
528.04	357.50
528.40	360.12
528.76	362.69
529.12	365.33
529.48	368.17
529.84	371.02
530.20	374.16
530.56	377.24
530.91	380.58
531.27	383.90
531.63	387.00
531.99	390.31
532.35	393.62
532.71	397.09
533.07	400.73
533.42	404.35
533.78	408.08
534.14	412.00
534.50	415.75
534.86	419.73
535.21	423.44
535.57	427.55
535.93	431.65
536.29	436.00
536.65	440.26
537.00	444.42
537.36	448.62
537.72	453.13
538.08	457.40
538.44	461.82
538.79	466.23
539.15	470.80
539.51	475.43
539.87	480.11
540.22	484.98
540.58	489.81
540.94	494.58
541.29	499.52
541.65	504.29
542.01	509.46
542.37	514.59
542.72	519.85
543.08	524.86
543.44	530.10
543.79	535.10
544.15	540.33
544.51	545.65
544.87	550.99
545.22	555.86
545.58	561.25
545.94	566.37
546.29	571.71
546.65	577.04
547.01	582.36
547.36	587.69
547.72	592.69
548.07	597.82
548.43	602.99
548.79	608.12
549.14	613.43
549.50	618.56
549.86	623.63
550.21	628.60
550.57	633.69
550.92	638.75
551.28	643.86
551.64	648.88
551.99	654.05
552.35	659.29
552.70	664.49
553.06	669.53
553.41	674.66
553.77	679.78
554.13	684.87
554.48	689.92
554.84	695.01
555.19	700.08
555.55	705.35
555.90	710.58
556.26	715.65
556.61	720.65
556.97	725.49
557.32	730.43
557.68	735.42
558.03	740.39
558.39	745.22
558.74	750.00
559.10	754.92
559.45	759.65
559.81	764.60
560.16	769.36
560.52	774.09
560.87	778.84
561.23	783.44
561.58	788.45
561.94	792.95
562.29	797.25
562.64	801.68
563.00	805.92
563.35	810.23
563.71	814.86
564.06	819.56
564.42	824.04
564.77	828.43
565.12	832.91
565.48	837.58
565.83	841.75
566.19	845.93
566.54	849.81
566.89	853.69
567.25	857.40
567.60	861.54
567.96	865.37
568.31	869.25
568.66	872.83
569.02	876.05
569.37	879.37
569.72	882.81
570.08	886.07
570.43	889.26
570.78	892.62
571.14	895.32
571.49	897.89
571.84	901.03
572.20	903.79
572.55	906.33
572.90	908.58
573.26	911.17
573.61	913.76
573.96	916.11
574.31	918.40
574.67	920.12
575.02	921.91
575.37	923.85
575.72	925.63
576.08	927.56
576.43	929.57
576.78	931.42
577.13	933.27
577.49	935.01
577.84	936.30
578.19	937.57
578.54	938.73
578.90	939.99
579.25	940.82
579.60	941.74
579.95	942.41
580.30	943.03
580.66	943.70
581.01	944.43
581.36	945.51
581.71	946.56
582.06	947.70
582.42	948.19
582.77	948.65
583.12	948.80
583.47	949.22
583.82	949.60
584.17	950.00
584.53	950.39
584.88	950.75
585.23	951.26
585.58	951.61
585.93	951.91
586.28	952.40
586.63	952.91
586.98	953.09
587.34	953.70
587.69	953.98
588.04	954.17
588.39	954.38
588.74	953.64
589.09	952.95
589.44	952.21
589.79	952.23
590.14	952.09
590.49	951.75
590.84	951.44
591.19	951.06
591.54	950.16
591.89	948.89
592.25	948.23
592.60	946.93
592.95	945.80
593.30	945.02
593.65	943.48
594.00	942.06
594.35	941.43
594.70	939.63
595.05	938.48
595.40	937.18
595.75	935.52
596.10	934.69
596.45	933.73
596.80	932.90
597.15	931.70
597.50	930.26
597.85	929.46
598.19	928.36
598.54	926.95
598.89	925.85
599.24	925.04
599.59	923.75
599.94	922.99
600.29	921.71
600.64	920.18
600.99	918.96
601.34	917.32
601.69	915.01
602.04	913.63
602.39	912.17
602.74	910.69
603.08	909.49
603.43	908.28
603.78	906.79
604.13	905.08
604.48	903.15
604.83	901.62
605.18	900.02
605.53	897.61
605.87	895.42
606.22	893.74
606.57	891.89
606.92	889.75
607.27	887.52
607.62	885.72
607.96	883.90
608.31	882.06
608.66	880.29
609.01	878.33
609.36	876.14
609.70	873.41
610.05	870.76
610.40	868.16
610.75	865.31
611.10	862.65
611.44	859.60
611.79	857.27
612.14	854.75
612.49	851.57
612.83	849.04
613.18	846.37
613.53	843.50
613.88	840.15
614.22	837.27
614.57	834.22
614.92	831.15
615.27	828.39
615.61	825.26
615.96	822.23
616.31	819.59
616.65	817.20
617.00	814.78
617.35	812.34
617.70	809.39
618.04	806.26
618.39	803.46
618.74	801.16
619.08	798.14
619.43	795.15
619.78	792.38
620.12	789.49
620.47	786.90
620.82	784.04
621.16	781.67
621.51	779.18
621.85	776.75
622.20	773.97
622.55	771.22
622.89	768.53
623.24	766.01
623.59	763.37
623.93	760.78
624.28	758.09
624.62	755.43
624.97	753.00
625.32	750.66
625.66	747.92
626.01	744.85
626.35	742.05
626.70	739.24
627.04	736.77
627.39	733.92
627.73	730.93
628.08	728.16
628.43	725.30
628.77	722.34
629.12	719.33
629.46	716.50
629.81	713.26
630.15	710.25
630.50	707.14
630.84	704.14
631.19	700.69
631.53	697.59
631.88	694.16
632.22	690.55
632.57	687.57
632.91	684.46
633.26	681.60
633.60	678.40
633.95	675.51
634.29	672.27
634.64	669.72
634.98	666.66
635.32	663.91
635.67	661.27
636.01	658.70
636.36	655.92
636.70	653.05
637.05	650.44
637.39	647.83
637.73	645.13
638.08	642.63
638.42	640.32
638.77	637.75
639.11	635.25
639.45	633.10
639.80	630.31
640.14	627.79
640.49	625.20
640.83	622.82
641.17	620.03
641.52	617.53
641.86	614.56
642.20	612.17
642.55	609.56
642.89	606.51
643.23	603.62
643.58	601.22
643.92	598.58
644.26	595.88
644.61	593.32
644.95	590.83
645.29	587.83
645.64	584.95
645.98	582.23
646.32	579.72
646.66	576.87
647.01	574.30
647.35	571.51
647.69	568.94
648.04	566.53
648.38	564.10
648.72	561.30
649.06	558.66
649.41	556.03
649.75	553.25
650.09	550.68
650.43	547.98
650.78	545.10
651.12	542.56
651.46	540.08
651.80	537.52
652.14	534.79
652.49	532.26
652.83	529.88
653.17	527.14
653.51	524.23
653.85	521.81
654.20	519.18
654.54	516.63
654.88	514.03
655.22	511.08
655.56	508.40
655.90	506.12
656.25	503.86
656.59	501.47
656.93	499.12
657.27	496.80
657.61	494.39
657.95	492.20
658.29	489.75
658.64	487.27
658.98	484.73
659.32	482.21
659.66	479.98
660.00	477.35
660.34	475.16
660.68	473.12
661.02	470.72
661.36	468.47
661.70	466.22
662.05	464.04
662.39	462.12
662.73	460.10
663.07	457.97
663.41	456.03
663.75	453.94
664.09	451.78
664.43	449.75
664.77	447.85
665.11	445.67
665.45	443.83
665.79	442.01
666.13	439.84
666.47	437.79
666.81	435.82
667.15	433.92
667.49	432.03
667.83	430.03
668.17	428.05
668.51	426.11
668.85	424.30
669.19	422.44
669.53	420.55
669.87	418.59
670.21	416.80
670.55	414.73
670.89	413.01
671.23	411.34
671.57	409.74
671.91	407.80
672.25	406.18
672.58	404.45
672.92	402.54
673.26	401.06
673.60	399.52
673.94	397.84
674.28	396.37
674.62	394.90
674.96	393.38
675.30	392.05
675.64	390.61
675.97	389.24
676.31	387.86
676.65	386.42
676.99	385.02
677.33	383.41
677.67	382.04
678.01	380.40
678.34	379.03
678.68	377.52
679.02	376.27
679.36	374.84
679.70	373.47
680.04	372.16
680.37	370.85
680.71	369.58
681.05	368.19
681.39	366.93
681.73	365.62
682.06	364.48
682.40	363.28
682.74	362.07
683.08	360.79
683.42	359.47
683.75	358.23
684.09	356.96
684.43	355.76
684.77	354.52
685.10	353.35
685.44	351.98
685.78	350.81
686.12	349.54
686.45	348.31
686.79	347.08
687.13	346.04
687.46	344.93
687.80	343.93
688.14	342.77
688.48	341.62
688.81	340.44
689.15	339.31
689.49	338.07
689.82	336.97
690.16	335.80
690.50	334.60
690.83	333.39
691.17	332.12
691.51	331.02
691.84	329.99
692.18	328.89
692.52	327.90
692.85	326.73
693.19	325.83
693.52	324.87
693.86	323.73
694.20	322.68
694.53	321.69
694.87	320.56
695.21	319.65
695.54	318.56
695.88	317.57
696.21	316.54
696.55	315.60
696.88	314.57
697.22	313.55
697.56	312.69
697.89	311.87
698.23	311.16
698.56	310.24
698.90	309.27
699.23	308.42
699.57	307.55
699.90	306.76
700.24	305.80
700.58	304.97
700.91	304.23
701.25	303.56
701.58	302.75
701.92	301.97
702.25	301.11
702.59	300.26
702.92	299.40
703.26	298.51
703.59	297.71
703.93	297.17
704.26	296.41
704.60	295.80
704.93	294.98
705.26	294.12
705.60	293.49
705.93	292.89
706.27	292.28
706.60	291.64
706.94	290.98
707.27	290.20
707.61	289.49
707.94	288.86
708.27	288.14
708.61	287.44
708.94	286.81
709.28	286.13
709.61	285.56
709.94	285.07
710.28	284.58
710.61	283.99
710.95	283.11
711.28	282.60
711.61	281.86
711.95	281.34
712.28	280.76
712.61	280.12
712.95	279.60
713.28	279.00
713.61	278.25
713.95	277.60
714.28	277.08
714.61	276.51
714.95	275.94
715.28	275.27
715.61	274.70
715.95	274.19
716.28	273.61
716.61	273.17
716.95	272.61
717.28	272.07
717.61	271.67
717.94	271.33
718.28	270.71
718.61	270.26
718.94	269.71
719.27	269.30
719.61	268.95
719.94	268.40
720.27	267.90
720.60	267.53
720.94	267.11
721.27	266.75
721.60	266.40
721.93	266.06
722.27	265.68
722.60	265.23
722.93	264.77
723.26	264.50
723.59	264.04
723.93	263.64
724.26	263.21
724.59	262.70
724.92	262.30
725.25	262.04
725.59	261.66
725.92	261.30
726.25	260.94
726.58	260.54
726.91	260.20
727.24	259.85
727.57	259.42
727.91	259.12
728.24	258.83
728.57	258.48
728.90	258.08
729.23	257.71
729.56	257.47
729.89	257.25
730.22	256.87
730.55	256.55
730.89	256.24
731.22	256.07
731.55	255.81
731.88	255.49
732.21	255.22
732.54	254.96
732.87	254.78
733.20	254.53
733.53	254.28
733.86	254.03
734.19	253.81
734.52	253.67
734.85	253.54
735.18	253.27
735.51	253.05
735.84	252.80
736.17	252.61
736.50	252.27
736.83	252.19
737.16	252.00
737.49	251.77
737.82	251.64
738.15	251.43
738.48	251.15
738.81	250.93
739.14	250.63
739.47	250.46
739.80	250.26
740.13	250.06
740.46	249.82
740.79	249.72
741.12	249.40
741.45	249.17
741.78	248.89
742.11	248.75
742.44	248.53
742.77	248.32
743.10	248.15
743.43	248.05
743.75	247.64
744.08	247.68
744.41	247.44
744.74	247.30
745.07	247.08
745.40	246.94
745.73	246.79
746.06	246.68
746.39	246.49
746.71	246.26
747.04	246.03
747.37	245.80
747.70	245.51
748.03	245.35
748.36	245.28
748.68	244.99
749.01	244.71
749.34	244.53
749.67	244.41
750.00	244.20
750.33	244.16
750.65	243.90
750.98	243.52
751.31	243.37
751.64	243.07
751.97	242.90
752.29	242.76
752.62	242.56
752.95	242.37
753.28	242.21
753.60	241.97
753.93	241.78
754.26	241.70
754.59	241.55
754.91	241.43
755.24	241.17
755.57	241.02
755.90	240.80
756.22	240.63
756.55	240.47
756.88	240.34
757.20	240.01
757.53	239.90
757.86	239.77
758.19	239.64
758.51	239.54
758.84	239.35
759.17	239.15
759.49	239.02
759.82	238.98
760.15	238.88
760.47	238.76
760.80	238.57
761.13	238.47
761.45	238.33
761.78	238.19
762.11	238.22
762.43	238.08
762.76	238.08
763.08	238.01
763.41	237.84
763.74	237.73
764.06	237.63
764.39	237.50
764.71	237.40
765.04	237.33
765.37	237.29
765.69	237.13
766.02	237.05
766.34	236.96
766.67	236.78
767.00	236.63
767.32	236.66
767.65	236.79
767.97	236.68
768.30	236.59
768.62	236.52
768.95	236.29
769.27	236.29
769.60	236.23
769.92	235.95
770.25	235.96
770.57	235.87
770.90	235.80
771.22	235.67
771.55	235.56
771.87	235.56
772.20	235.44
772.52	235.62
772.85	235.79
773.17	235.76
773.50	235.66
773.82	235.53
774.15	235.34
774.47	235.13
774.80	235.03
775.12	234.93
775.45	234.94
775.77	234.91
776.09	234.84
776.42	234.73
776.74	234.83
777.07	234.73
777.39	234.59
777.72	234.51
778.04	234.53
778.36	234.45
778.69	234.30
779.01	234.24
779.33	234.00
779.66	233.76
779.98	233.57
780.31	233.50
780.63	233.59
780.95	233.58
781.28	233.52
781.60	233.52
781.92	233.48
782.25	233.43
782.57	233.40
782.89	233.39
783.22	233.30
783.54	233.21
783.86	233.09
784.19	233.07
784.51	233.10
784.83	233.00
785.16	233.01
785.48	233.02
785.80	232.94
786.12	232.92
786.45	232.88
786.77	232.90
787.09	232.86
787.42	232.80
787.74	232.69
788.06	232.71
788.38	232.52
788.71	232.49
789.03	232.36
789.35	232.32
789.67	232.22
789.99	232.26
790.32	232.25
790.64	232.36
790.96	232.45
791.28	232.37
791.61	232.36
791.93	232.28
792.25	232.23
792.57	232.36
792.89	232.27
793.21	232.28
793.54	232.20
793.86	232.14
794.18	231.99
794.50	231.95
794.82	231.82
795.14	231.85
795.47	231.72
795.79	231.67
796.11	231.64
796.43	231.55
796.75	231.45
797.07	231.41
797.39	231.37
797.71	231.27
798.04	231.06
798.36	231.05
798.68	231.06
799.00	230.97
799.32	230.81
799.64	230.82
799.96	230.71
800.28	230.80
800.60	230.77
800.92	230.79
801.24	230.79
801.56	230.80
801.89	230.78
802.21	230.84
802.53	230.91
802.85	230.87
803.17	230.94
803.49	230.89
803.81	230.76
804.13	230.72
804.45	230.57
804.77	230.75
805.09	230.70
805.41	230.62
805.73	230.62
806.05	230.48
806.37	230.46
806.69	230.44
807.01	230.29
807.33	230.37
807.65	230.37
807.97	230.42
808.28	230.40
808.60	230.36
808.92	230.36
809.24	230.38
809.56	230.37
809.88	230.27
810.20	230.28
810.52	230.41
810.84	230.35
811.16	230.35
811.48	230.30
811.80	230.45
812.12	230.44
812.43	230.39
812.75	230.48
813.07	230.47
813.39	230.44
813.71	230.48
814.03	230.44
814.35	230.39
814.67	230.31
814.98	230.28
815.30	230.35
815.62	230.28
815.94	230.22
816.26	230.30
816.58	230.37
816.89	230.35
817.21	230.31
817.53	230.25
817.85	230.29
818.17	230.25
818.48	230.15
818.80	230.28
819.12	230.37
819.44	230.29
819.76	230.18
820.07	230.22
820.39	230.24
820.71	230.20
821.03	230.26
821.34	230.21
821.66	230.28
821.98	230.27
822.30	230.33
822.61	230.39
822.93	230.28
823.25	230.28
823.57	230.33
823.88	230.35
824.20	230.39
824.52	230.43
824.83	230.45
825.15	230.37
825.47	230.29
825.79	230.21
826.10	230.25
826.42	230.24
826.74	230.30
827.05	230.20
827.37	230.13
827.69	230.15
828.00	230.18
828.32	230.12
828.64	230.08
828.95	230.10
829.27	230.10
829.58	230.04
829.90	230.07
830.22	230.02
830.53	229.99
830.85	229.93
831.17	229.87
831.48	229.84
831.80	229.89
832.11	229.79
832.43	229.67
832.75	229.64
833.06	229.80
833.38	229.68
833.69	229.74
834.01	229.80
834.32	229.70
834.64	229.67
834.96	229.69
835.27	229.69
835.59	229.66
835.90	229.47
836.22	229.44
836.53	229.37
836.85	229.39
837.16	229.57
837.48	229.53
837.79	229.49
838.11	229.45
838.42	229.35
838.74	229.31
839.05	229.43
839.37	229.37
839.68	229.25
840.00	229.22
840.31	229.22
840.63	229.21
840.94	229.25
841.26	229.30
841.57	229.28
841.88	229.29
842.20	229.20
842.51	229.27
842.83	229.30
843.14	229.40
843.46	229.36
843.77	229.16
844.08	229.21
844.40	229.14
844.71	229.21
845.03	229.23
845.34	229.22
845.65	229.16
845.97	229.18
846.28	229.10
846.60	229.11
846.91	229.00
847.22	229.04
847.54	228.89
847.85	228.80
848.16	228.84
848.48	228.78
848.79	228.87
849.10	228.97
849.42	229.07
849.73	228.94
850.04	228.87
850.36	228.82
850.67	228.79
850.98	228.85
851.30	228.86
851.61	228.80
851.92	228.92
852.23	228.97
852.55	228.92
852.86	228.94
853.17	228.94
853.49	229.06
853.80	229.12
854.11	229.28
854.42	229.32
854.74	229.30
855.05	229.30
855.36	229.20
855.67	228.99
855.99	228.96
856.30	229.20
856.61	229.27
856.92	229.26
857.23	229.29
857.55	229.21
857.86	229.16
858.17	229.36
858.48	229.28
858.79	229.25
859.11	229.31
859.42	229.42
859.73	229.36
860.04	229.30
860.35	229.24
860.66	229.20
860.98	229.18
861.29	229.23
861.60	229.22
861.91	229.34
862.22	229.40
862.53	229.29
862.84	229.00
863.16	229.00
863.47	229.00
863.78	228.99
864.09	229.10
864.40	229.07
864.71	229.04
865.02	229.03
865.33	229.01
865.64	229.03
865.95	228.97
866.27	229.21
866.58	229.26
866.89	229.28
867.20	229.16
867.51	229.17
867.82	229.14
868.13	229.14
868.44	228.98
868.75	228.96
869.06	228.92
869.37	228.95
869.68	228.89
869.99	228.90
870.30	228.98
870.61	228.95
870.92	228.97
871.23	228.88
871.54	228.92
871.85	229.04
872.16	228.97
872.47	229.00
872.78	228.80
873.09	228.79
873.40	228.68
873.71	228.76
874.02	228.79
874.33	228.78
874.64	228.72
874.95	228.77
875.26	228.80
875.56	228.82
875.87	228.74
876.18	228.80
876.49	228.90
876.80	228.78
877.11	228.66
877.42	228.64
877.73	228.69
878.04	228.59
878.35	228.53
878.66	228.66
878.96	228.63
879.27	228.52
879.58	228.51
879.89	228.43
880.20	228.34
880.51	228.28
880.82	228.20
881.12	228.20
881.43	228.20
881.74	228.16
882.05	228.08
882.36	228.19
882.67	228.09
882.97	228.00
883.28	227.95
883.59	227.99
883.90	227.93
884.21	227.93
884.51	227.92
884.82	227.93
885.13	227.93
885.44	227.86
885.74	228.01
886.05	227.91
886.36	227.93
886.67	228.02
886.98	228.13
887.28	228.19
887.59	228.19
887.90	228.20
888.20	228.18
888.51	228.40
888.82	228.35
889.13	228.31
889.43	228.42
889.74	228.45
890.05	228.58
890.35	228.63
890.66	228.50
890.97	228.55
891.28	228.49
891.58	228.44
891.89	228.43
892.20	228.40
892.50	228.42
892.81	228.50
893.12	228.48
893.42	228.39
893.73	228.34
894.04	228.41
894.34	228.44
894.65	228.54
894.95	228.48
895.26	228.50
895.57	228.70
895.87	228.65
896.18	228.70
896.48	228.60
896.79	228.59
897.10	228.67
897.40	228.70
897.71	228.74
898.01	228.74
898.32	228.73
898.63	228.74
898.93	228.83
899.24	228.83
899.54	228.84
899.85	228.87
900.15	228.90
900.46	228.85
900.76	228.92
901.07	228.88
901.38	228.82
901.68	228.88
901.99	228.83
902.29	228.78
902.60	228.85
902.90	228.94
903.21	228.92
903.51	228.97
903.82	229.05
904.12	229.04
904.43	228.99
904.73	229.04
905.03	229.01
905.34	229.21
905.64	229.13
905.95	229.15
906.25	229.06
906.56	229.11
906.86	229.16
907.17	229.09
907.47	229.06
907.77	228.99
908.08	228.93
908.38	228.95
908.69	228.97
908.99	228.86
909.30	228.70
909.60	228.70
909.90	228.60
910.21	228.47
910.51	228.44
910.81	228.42
911.12	228.32
911.42	228.31
911.73	228.06
912.03	228.07
912.33	228.01
912.64	228.00
912.94	227.86
913.24	227.76
913.55	227.69
913.85	227.65
914.15	227.70
914.46	227.64
914.76	227.60
915.06	227.49
915.37	227.42
915.67	227.39
915.97	227.40
916.27	227.37
916.58	227.32
916.88	227.22
917.18	227.20
917.49	227.40
917.79	227.30
918.09	227.25
918.39	227.31
918.70	227.31
919.00	227.31
919.30	227.41
919.60	227.45
919.91	227.37
920.21	227.42
920.51	227.43
920.81	227.45
921.12	227.39
921.42	227.30
921.72	227.47
922.02	227.69
922.32	227.63
922.63	227.65
922.93	227.80
923.23	227.84
923.53	227.87
923.83	227.69
924.13	227.79
924.44	227.78
924.74	227.81
925.04	227.90
925.34	227.94
925.64	227.88
925.94	227.87
926.24	227.98
926.55	227.90
926.85	227.92
927.15	227.87
927.45	227.90
927.75	228.04
928.05	227.94
928.35	227.92
928.65	228.01
928.95	228.10
929.26	228.12
929.56	228.21
929.86	228.25
930.16	228.32
930.46	228.25
930.76	228.33
931.06	228.20
931.36	228.10
931.66	228.15
931.96	228.29
932.26	228.33
932.56	228.35
932.86	228.45
933.16	228.50
933.46	228.55
933.76	228.59
934.06	228.64
934.36	228.81
934.66	228.75
934.96	228.71
935.26	228.73
935.56	228.69
935.86	228.56
936.16	228.50
936.46	228.49
936.76	228.52
937.06	228.52
937.36	228.63
937.66	228.75
937.96	228.72
938.26	228.67
938.56	228.63
938.86	228.64
939.16	228.74
939.46	228.79
939.76	228.82
940.06	228.76
940.35	228.80
940.65	228.68
940.95	228.71
941.25	228.70
941.55	228.68
941.85	228.64
942.15	228.77
942.45	228.87
942.75	228.88
943.04	228.95
943.34	229.00
943.64	228.97
943.94	228.94
944.24	229.01
944.54	229.07
944.84	229.10
945.13	229.09
945.43	228.96
945.73	228.90
946.03	228.95
946.33	228.94
946.62	228.86
946.92	228.80
947.22	228.81
947.52	228.88
947.82	228.88
948.11	228.92
948.41	228.82
948.71	228.77
949.01	228.71
949.31	228.65
949.60	228.59
949.90	228.72
950.20	228.66
950.50	228.64
950.79	228.51
951.09	228.61
951.39	228.54
951.69	228.48
951.98	228.49
952.28	228.45
952.58	228.43
952.87	228.34
953.17	228.29
953.47	228.24
953.76	228.11
954.06	228.08
954.36	228.08
954.66	228.08
954.95	228.06
955.25	228.15
955.55	228.18
955.84	228.24
956.14	228.17
956.44	228.12
956.73	227.98
957.03	228.00
957.32	227.82
957.62	227.88
957.92	227.97
958.21	227.89
958.51	227.97
958.81	227.95
959.10	228.00
959.40	228.06
959.69	228.11
959.99	228.16
960.29	228.14
960.58	227.92
960.88	227.92
961.17	227.88
961.47	227.89
961.76	227.77
962.06	227.68
962.36	227.61
962.65	227.68
962.95	227.61
963.24	227.56
963.54	227.62
963.83	227.55
964.13	227.49
964.42	227.41
964.72	227.29
965.01	227.37
965.31	227.38
965.60	227.26
965.90	227.35
966.19	227.34
966.49	227.29
966.78	227.43
967.08	227.48
967.37	227.58
967.67	227.55
967.96	227.68
968.26	227.67
968.55	227.69
968.85	227.60
969.14	227.75
969.43	227.74
969.73	227.74
970.02	227.83
970.32	227.76
970.61	227.86
970.91	227.92
971.20	227.81
971.49	227.82
971.79	227.92
972.08	227.82
972.38	227.76
972.67	227.85
972.96	227.90
973.26	227.90
973.55	227.94
973.85	227.88
974.14	227.90
974.43	227.94
974.73	227.95
975.02	227.96
975.31	228.00
975.61	228.06
975.90	228.06
976.19	228.06
976.49	228.14
976.78	228.16
977.07	228.09
977.37	228.21
977.66	228.28
977.95	228.33
978.24	228.34
978.54	228.45
978.83	228.44
979.12	228.38
979.42	228.48
979.71	228.51
980.00	228.55
980.29	228.56
980.59	228.58
980.88	228.59
981.17	228.62
981.46	228.50
981.76	228.52
982.05	228.65
982.34	228.75
982.63	228.79
982.93	228.77
983.22	228.95
983.51	228.85
983.80	228.85
984.09	228.86
984.39	228.92
984.68	228.92
984.97	228.80
985.26	228.79
985.55	228.72
985.85	228.67
986.14	228.71
986.43	228.68
986.72	228.68
987.01	228.62
987.30	228.76
987.59	228.80
987.89	228.82
988.18	228.68
988.47	228.52
988.76	228.55
989.05	228.45
989.34	228.31
989.63	228.38
989.92	228.33
990.22	228.35
990.51	228.27
990.80	228.21
991.09	228.30
991.38	228.40
991.67	228.40
991.96	228.39
992.25	228.35
992.54	228.32
992.83	228.34
993.12	228.32
993.41	228.20
993.70	228.27
993.99	228.17
994.28	228.20
994.58	228.21
994.87	228.11
995.16	228.18
995.45	228.13
995.74	228.11
996.03	228.05
996.32	227.93
996.61	227.99
996.90	228.03
997.19	228.00
997.48	227.93
997.77	227.87
998.06	227.86
998.34	227.72
998.63	227.73
998.92	227.66
999.21	227.80
999.50	227.89
999.79	227.77
1000.08	227.74
1000.37	227.66
1000.66	227.57
1000.95	227.61
1001.24	227.63
1001.53	227.63
1001.82	227.63
1002.11	227.74
1002.40	227.86
1002.68	227.84
1002.97	227.96
1003.26	227.94
1003.55	227.94
1003.84	227.98
1004.13	227.95
1004.42	228.08
1004.71	228.02
1004.99	228.10
1005.28	228.10
1005.57	228.09
1005.86	228.12
1006.15	228.21
1006.44	228.29
1006.72	228.40
1007.01	228.43
1007.30	228.41
1007.59	228.44
1007.88	228.29
1008.17	228.33
1008.45	228.17
1008.74	228.17
1009.03	228.04
1009.32	228.10
1009.60	228.12
1009.89	228.07
1010.18	228.03
1010.47	227.99
1010.76	228.08
1011.04	228.02
1011.33	228.18
1011.62	228.05
1011.91	228.10
1012.19	228.13
1012.48	228.16
1012.77	228.14
1013.05	228.17
1013.34	228.20
1013.63	228.21
1013.92	228.28
1014.20	228.30
1014.49	228.32
1014.78	228.32
1015.06	228.32
1015.35	228.35
1015.64	228.39
1015.92	228.47
1016.21	228.49
1016.50	228.64
1016.78	228.60
1017.07	228.64
1017.36	228.34
1017.64	228.30
1017.93	228.31
1018.22	228.30
1018.50	228.24
1018.79	228.23
1019.08	228.16
1019.36	228.19
1019.65	228.20
1019.93	228.26
1020.22	228.22
1020.51	228.50
1020.79	228.45
1021.08	228.90
1021.36	227.30
1021.65	227.80
1021.94	227.90
1022.22	228.90
1022.51	228.10
1022.79	227.90
1023.08	228.90
1023.36	232.60
1023.65	227.80
>>>>>End Processed Spectral Data<<<<<
