SpectraSuite Data File
++++++++++++++++++++++++++++++++++++
Date: Fri Feb 01 14:41:21 EST 2013
User: group
Dark Spectrum Present: No
Reference Spectrum Present: No
Number of Sampled Component Spectra: 1
Spectrometers: USB2E7196
Integration Time (usec): 70000 (USB2E7196)
Spectra Averaged: 10 (USB2E7196)
Boxcar Smoothing: 10 (USB2E7196)
Correct for Electrical Dark: No (USB2E7196)
Strobe/Lamp Enabled: No (USB2E7196)
Correct for Detector Non-linearity: No (USB2E7196)
Correct for Stray Light: No (USB2E7196)
Number of Pixels in Processed Spectrum: 2048
>>>>>Begin Processed Spectral Data<<<<<
339.09	0.00
339.48	215.30
339.86	217.60
340.24	219.90
340.63	221.10
341.01	223.20
341.39	222.90
341.78	224.30
342.16	227.00
342.54	226.70
342.93	214.72
343.31	225.49
343.69	226.12
344.07	226.57
344.46	226.94
344.84	227.30
345.22	227.47
345.60	227.80
345.99	227.99
346.37	228.17
346.75	228.19
347.13	228.21
347.52	228.21
347.90	228.28
348.28	228.20
348.66	228.30
349.05	228.13
349.43	228.28
349.81	228.30
350.19	228.37
350.57	228.56
350.96	228.60
351.34	228.76
351.72	228.82
352.10	228.94
352.48	228.91
352.87	228.91
353.25	229.03
353.63	229.02
354.01	229.13
354.39	229.09
354.77	229.26
355.15	229.39
355.54	229.43
355.92	229.52
356.30	229.73
356.68	229.83
357.06	229.98
357.44	230.00
357.82	229.94
358.20	229.94
358.58	229.90
358.97	229.94
359.35	230.01
359.73	230.16
360.11	230.23
360.49	230.37
360.87	230.41
361.25	230.40
361.63	230.57
362.01	230.59
362.39	230.55
362.77	230.52
363.15	230.45
363.53	230.43
363.91	230.41
364.29	230.36
364.67	230.29
365.05	230.39
365.43	230.43
365.81	230.54
366.19	230.67
366.57	230.80
366.95	230.86
367.33	230.84
367.71	230.75
368.09	230.75
368.47	230.81
368.85	230.84
369.23	230.95
369.61	230.77
369.99	230.74
370.37	230.85
370.75	230.90
371.13	230.94
371.51	230.94
371.89	230.97
372.27	230.96
372.65	230.83
373.03	230.80
373.41	230.73
373.78	230.76
374.16	230.52
374.54	230.30
374.92	230.24
375.30	230.12
375.68	230.00
376.06	229.94
376.44	229.82
376.82	229.83
377.19	229.68
377.57	229.56
377.95	229.55
378.33	229.37
378.71	229.24
379.09	229.18
379.47	229.03
379.84	228.77
380.22	228.59
380.60	228.63
380.98	228.39
381.36	228.28
381.73	228.02
382.11	228.06
382.49	228.08
382.87	227.95
383.25	227.95
383.62	228.07
384.00	227.90
384.38	227.89
384.76	227.79
385.13	227.99
385.51	227.92
385.89	227.86
386.27	227.85
386.64	227.77
387.02	227.76
387.40	227.77
387.78	227.91
388.15	227.92
388.53	227.81
388.91	227.85
389.29	227.80
389.66	227.76
390.04	227.70
390.42	227.66
390.79	227.65
391.17	227.58
391.55	227.43
391.92	227.49
392.30	227.55
392.68	227.51
393.05	227.47
393.43	227.50
393.81	227.51
394.18	227.53
394.56	227.62
394.94	227.63
395.31	227.69
395.69	227.81
396.06	227.96
396.44	228.10
396.82	228.23
397.19	228.43
397.57	228.58
397.95	228.58
398.32	228.63
398.70	228.70
399.07	228.89
399.45	228.93
399.82	228.99
400.20	228.92
400.58	229.05
400.95	229.00
401.33	229.29
401.70	229.54
402.08	229.60
402.45	229.76
402.83	230.02
403.20	230.16
403.58	230.26
403.95	230.40
404.33	230.62
404.71	230.79
405.08	231.10
405.46	231.25
405.83	231.55
406.21	231.70
406.58	232.00
406.96	232.22
407.33	232.42
407.70	232.79
408.08	233.20
408.45	233.54
408.83	233.90
409.20	234.06
409.58	234.23
409.95	234.64
410.33	235.00
410.70	235.24
411.08	235.60
411.45	235.96
411.82	236.29
412.20	236.61
412.57	237.10
412.95	237.33
413.32	237.93
413.69	238.40
414.07	239.00
414.44	239.64
414.82	240.27
415.19	240.97
415.56	241.71
415.94	242.48
416.31	243.16
416.68	243.87
417.06	244.82
417.43	245.57
417.81	246.43
418.18	247.30
418.55	248.24
418.93	249.36
419.30	250.43
419.67	251.59
420.04	252.73
420.42	253.90
420.79	255.28
421.16	256.62
421.54	258.03
421.91	259.49
422.28	260.88
422.66	262.42
423.03	264.14
423.40	265.64
423.77	267.23
424.15	268.98
424.52	270.82
424.89	272.60
425.26	274.55
425.64	276.48
426.01	278.44
426.38	280.60
426.75	282.64
427.13	284.73
427.50	286.95
427.87	289.29
428.24	291.62
428.61	293.72
428.99	296.16
429.36	298.80
429.73	301.23
430.10	303.70
430.47	306.25
430.85	308.72
431.22	311.43
431.59	314.39
431.96	317.06
432.33	320.07
432.70	322.90
433.08	326.34
433.45	329.35
433.82	332.47
434.19	335.93
434.56	339.25
434.93	342.53
435.30	345.70
435.68	349.09
436.05	352.41
436.42	355.84
436.79	358.81
437.16	362.10
437.53	365.65
437.90	368.95
438.27	372.23
438.64	375.52
439.01	378.58
439.38	381.29
439.75	383.93
440.13	386.86
440.50	389.74
440.87	391.96
441.24	394.35
441.61	396.91
441.98	398.67
442.35	400.92
442.72	403.14
443.09	405.15
443.46	406.46
443.83	407.13
444.20	407.75
444.57	408.70
444.94	408.89
445.31	409.18
445.68	409.70
446.05	409.74
446.42	409.29
446.79	408.96
447.16	408.30
447.53	407.87
447.90	406.52
448.27	405.17
448.64	403.12
449.01	401.80
449.37	399.40
449.74	397.10
450.11	394.26
450.48	391.09
450.85	388.17
451.22	385.50
451.59	383.04
451.96	380.67
452.33	377.53
452.70	374.80
453.07	371.35
453.43	367.78
453.80	364.44
454.17	361.29
454.54	358.07
454.91	354.68
455.28	351.45
455.65	348.40
456.02	345.36
456.38	342.81
456.75	339.49
457.12	336.82
457.49	334.00
457.86	331.37
458.23	329.15
458.59	326.53
458.96	323.87
459.33	321.49
459.70	319.16
460.07	317.14
460.43	314.90
460.80	312.87
461.17	311.07
461.54	309.12
461.91	307.20
462.27	305.42
462.64	303.87
463.01	302.12
463.38	300.48
463.74	298.70
464.11	297.10
464.48	295.75
464.85	294.28
465.21	293.23
465.58	292.02
465.95	290.72
466.32	289.69
466.68	288.68
467.05	287.68
467.42	286.68
467.78	285.51
468.15	284.41
468.52	283.56
468.88	282.46
469.25	281.41
469.62	280.76
469.98	279.73
470.35	278.92
470.72	278.21
471.08	277.35
471.45	276.70
471.82	276.04
472.18	275.24
472.55	274.66
472.92	273.88
473.28	273.21
473.65	272.43
474.02	271.76
474.38	271.14
474.75	270.59
475.11	269.90
475.48	269.63
475.85	269.21
476.21	268.79
476.58	268.42
476.94	268.11
477.31	267.60
477.67	267.22
478.04	266.88
478.41	266.61
478.77	266.47
479.14	266.22
479.50	266.11
479.87	266.05
480.23	265.87
480.60	265.79
480.96	265.69
481.33	265.79
481.69	265.70
482.06	265.63
482.42	265.71
482.79	265.90
483.15	265.99
483.52	266.21
483.88	266.36
484.25	266.57
484.61	266.91
484.98	267.26
485.34	267.67
485.71	268.15
486.07	268.60
486.44	268.85
486.80	269.30
487.17	269.80
487.53	270.40
487.90	271.09
488.26	271.80
488.62	272.61
488.99	273.27
489.35	274.07
489.72	275.02
490.08	275.90
490.44	276.87
490.81	277.96
491.17	278.96
491.54	280.30
491.90	281.64
492.26	282.95
492.63	284.53
492.99	286.07
493.36	287.77
493.72	289.49
494.08	291.48
494.45	293.49
494.81	295.55
495.17	297.76
495.54	300.08
495.90	302.44
496.26	304.94
496.63	307.56
496.99	310.38
497.35	313.39
497.72	316.33
498.08	319.51
498.44	322.92
498.80	326.53
499.17	330.06
499.53	333.75
499.89	337.76
500.26	341.85
500.62	346.16
500.98	350.65
501.34	355.22
501.71	360.10
502.07	365.18
502.43	370.26
502.79	375.50
503.16	381.10
503.52	386.95
503.88	393.05
504.24	399.55
504.60	406.16
504.97	412.90
505.33	419.99
505.69	427.30
506.05	434.69
506.41	442.40
506.78	450.48
507.14	458.59
507.50	467.16
507.86	475.89
508.22	485.03
508.59	494.21
508.95	503.92
509.31	513.78
509.67	523.93
510.03	534.45
510.39	544.95
510.75	555.83
511.12	566.98
511.48	578.13
511.84	589.72
512.20	601.49
512.56	613.67
512.92	626.39
513.28	639.19
513.64	652.18
514.00	665.45
514.37	678.81
514.73	692.67
515.09	706.44
515.45	720.55
515.81	734.94
516.17	749.85
516.53	764.84
516.89	779.92
517.25	794.97
517.61	810.40
517.97	826.13
518.33	841.48
518.69	857.39
519.05	873.76
519.41	890.36
519.77	907.23
520.13	924.22
520.49	941.04
520.85	958.26
521.21	975.55
521.57	993.34
521.93	1010.59
522.29	1028.40
522.65	1046.10
523.01	1063.69
523.37	1081.05
523.73	1099.02
524.09	1117.03
524.45	1135.47
524.81	1154.40
525.17	1173.77
525.53	1192.86
525.89	1212.22
526.25	1231.33
526.61	1250.27
526.97	1269.10
527.33	1288.44
527.68	1307.70
528.04	1327.04
528.40	1346.27
528.76	1366.18
529.12	1385.63
529.48	1405.78
529.84	1425.25
530.20	1445.41
530.56	1466.15
530.91	1487.28
531.27	1507.76
531.63	1527.67
531.99	1547.44
532.35	1566.89
532.71	1585.38
533.07	1604.73
533.42	1624.00
533.78	1643.35
534.14	1662.83
534.50	1681.79
534.86	1700.99
535.21	1719.32
535.57	1738.75
535.93	1757.71
536.29	1776.00
536.65	1794.28
537.00	1812.56
537.36	1831.21
537.72	1848.75
538.08	1866.18
538.44	1883.21
538.79	1900.16
539.15	1916.79
539.51	1934.39
539.87	1951.93
540.22	1969.20
540.58	1986.64
540.94	2003.78
541.29	2020.20
541.65	2036.47
542.01	2053.74
542.37	2069.82
542.72	2085.81
543.08	2101.04
543.44	2116.53
543.79	2131.43
544.15	2146.44
544.51	2161.60
544.87	2176.31
545.22	2191.19
545.58	2204.96
545.94	2218.46
546.29	2231.79
546.65	2245.58
547.01	2258.16
547.36	2270.44
547.72	2282.99
548.07	2294.69
548.43	2306.53
548.79	2318.42
549.14	2329.62
549.50	2339.84
549.86	2350.18
550.21	2360.94
550.57	2371.32
550.92	2381.69
551.28	2391.05
551.64	2401.09
551.99	2410.69
552.35	2419.97
552.70	2429.38
553.06	2439.33
553.41	2448.81
553.77	2457.60
554.13	2466.97
554.48	2475.93
554.84	2484.11
555.19	2492.36
555.55	2500.08
555.90	2507.33
556.26	2514.94
556.61	2522.54
556.97	2529.60
557.32	2537.35
557.68	2544.60
558.03	2551.79
558.39	2558.33
558.74	2566.36
559.10	2572.86
559.45	2579.07
559.81	2586.33
560.16	2591.71
560.52	2597.07
560.87	2602.92
561.23	2608.27
561.58	2613.09
561.94	2617.61
562.29	2621.62
562.64	2625.66
563.00	2630.15
563.35	2635.73
563.71	2640.67
564.06	2645.66
564.42	2650.65
564.77	2654.50
565.12	2658.61
565.48	2662.11
565.83	2665.22
566.19	2667.92
566.54	2670.66
566.89	2672.80
567.25	2674.52
567.60	2677.59
567.96	2679.76
568.31	2681.13
568.66	2682.95
569.02	2685.23
569.37	2686.41
569.72	2689.00
570.08	2690.16
570.43	2691.47
570.78	2691.43
571.14	2690.82
571.49	2690.63
571.84	2691.32
572.20	2690.50
572.55	2689.58
572.90	2688.43
573.26	2687.72
573.61	2686.53
573.96	2685.16
574.31	2682.94
574.67	2679.61
575.02	2676.40
575.37	2673.88
575.72	2670.76
576.08	2668.30
576.43	2664.13
576.78	2661.04
577.13	2657.75
577.49	2655.26
577.84	2651.43
578.19	2647.85
578.54	2644.01
578.90	2639.50
579.25	2633.56
579.60	2629.00
579.95	2624.25
580.30	2618.97
580.66	2613.54
581.01	2608.40
581.36	2603.55
581.71	2599.46
582.06	2594.84
582.42	2589.88
582.77	2584.25
583.12	2578.56
583.47	2572.83
583.82	2568.13
584.17	2562.50
584.53	2556.51
584.88	2550.60
585.23	2544.85
585.58	2538.95
585.93	2533.42
586.28	2528.08
586.63	2523.06
586.98	2517.22
587.34	2511.52
587.69	2505.74
588.04	2500.03
588.39	2494.11
588.74	2486.11
589.09	2478.87
589.44	2471.83
589.79	2465.76
590.14	2459.93
590.49	2453.59
590.84	2446.84
591.19	2440.12
591.54	2432.01
591.89	2423.56
592.25	2415.76
592.60	2407.46
592.95	2398.50
593.30	2389.91
593.65	2381.26
594.00	2372.40
594.35	2364.60
594.70	2356.38
595.05	2348.52
595.40	2340.09
595.75	2330.98
596.10	2324.01
596.45	2317.00
596.80	2309.90
597.15	2301.73
597.50	2293.05
597.85	2285.73
598.19	2278.29
598.54	2270.37
598.89	2263.19
599.24	2256.77
599.59	2249.18
599.94	2242.27
600.29	2235.39
600.64	2228.08
600.99	2219.56
601.34	2212.03
601.69	2203.95
602.04	2196.03
602.39	2188.24
602.74	2181.02
603.08	2174.32
603.43	2167.09
603.78	2158.94
604.13	2150.20
604.48	2141.94
604.83	2133.66
605.18	2125.31
605.53	2115.74
605.87	2106.05
606.22	2098.19
606.57	2088.95
606.92	2080.35
607.27	2071.79
607.62	2063.92
607.96	2055.67
608.31	2047.88
608.66	2038.85
609.01	2029.48
609.36	2020.04
609.70	2010.04
610.05	1999.67
610.40	1989.94
610.75	1979.57
611.10	1969.66
611.44	1959.70
611.79	1950.25
612.14	1940.68
612.49	1930.25
612.83	1920.55
613.18	1910.85
613.53	1900.61
613.88	1890.83
614.22	1880.48
614.57	1870.12
614.92	1859.90
615.27	1850.20
615.61	1840.36
615.96	1830.49
616.31	1821.55
616.65	1812.40
617.00	1803.48
617.35	1794.53
617.70	1784.57
618.04	1775.07
618.39	1765.67
618.74	1757.10
619.08	1747.32
619.43	1738.03
619.78	1729.64
620.12	1720.70
620.47	1711.75
620.82	1702.49
621.16	1693.56
621.51	1684.96
621.85	1675.75
622.20	1666.03
622.55	1656.50
622.89	1647.67
623.24	1639.14
623.59	1630.39
623.93	1621.73
624.28	1612.65
624.62	1603.67
624.97	1595.23
625.32	1586.68
625.66	1578.07
626.01	1568.98
626.35	1560.17
626.70	1551.31
627.04	1542.13
627.39	1533.11
627.73	1524.37
628.08	1515.69
628.43	1506.75
628.77	1497.61
629.12	1488.87
629.46	1480.00
629.81	1470.67
630.15	1461.58
630.50	1452.28
630.84	1442.50
631.19	1432.54
631.53	1423.41
631.88	1414.00
632.22	1404.43
632.57	1395.71
632.91	1386.40
633.26	1377.16
633.60	1367.96
633.95	1359.23
634.29	1350.57
634.64	1342.34
634.98	1333.62
635.32	1325.35
635.67	1317.53
636.01	1309.65
636.36	1301.23
636.70	1293.48
637.05	1286.01
637.39	1277.85
637.73	1269.94
638.08	1262.60
638.42	1255.60
638.77	1248.06
639.11	1240.54
639.45	1233.04
639.80	1224.92
640.14	1217.20
640.49	1209.70
640.83	1202.27
641.17	1194.30
641.52	1186.45
641.86	1178.57
642.20	1171.25
642.55	1163.14
642.89	1155.24
643.23	1147.15
643.58	1140.03
643.92	1132.14
644.26	1124.22
644.61	1116.98
644.95	1109.43
645.29	1101.23
645.64	1093.04
645.98	1085.54
646.32	1078.06
646.66	1070.36
647.01	1062.90
647.35	1055.60
647.69	1048.15
648.04	1041.38
648.38	1034.19
648.72	1026.77
649.06	1019.26
649.41	1011.64
649.75	1004.22
650.09	996.59
650.43	989.31
650.78	981.18
651.12	973.62
651.46	966.70
651.80	959.52
652.14	952.79
652.49	945.84
652.83	939.20
653.17	931.73
653.51	924.60
653.85	917.75
654.20	910.71
654.54	903.29
654.88	896.39
655.22	888.44
655.56	881.28
655.90	874.65
656.25	868.40
656.59	861.98
656.93	855.50
657.27	849.09
657.61	842.35
657.95	836.73
658.29	830.67
658.64	824.01
658.98	817.53
659.32	810.80
659.66	804.70
660.00	798.24
660.34	792.30
660.68	786.25
661.02	780.10
661.36	774.56
661.70	768.93
662.05	763.51
662.39	758.51
662.73	753.18
663.07	747.54
663.41	741.89
663.75	736.40
664.09	731.27
664.43	725.91
664.77	721.01
665.11	715.91
665.45	710.90
665.79	705.96
666.13	700.95
666.47	696.04
666.81	690.87
667.15	685.90
667.49	680.96
667.83	676.17
668.17	671.50
668.51	666.25
668.85	661.52
669.19	657.12
669.53	652.72
669.87	647.94
670.21	643.60
670.55	639.16
670.89	634.80
671.23	630.90
671.57	626.49
671.91	622.07
672.25	617.84
672.58	613.61
672.92	609.45
673.26	605.35
673.60	601.36
673.94	597.71
674.28	593.97
674.62	590.49
674.96	586.85
675.30	583.24
675.64	579.78
675.97	576.30
676.31	572.39
676.65	568.52
676.99	565.36
677.33	561.65
677.67	558.03
678.01	554.41
678.34	550.36
678.68	547.01
679.02	543.60
679.36	539.98
679.70	536.71
680.04	533.38
680.37	529.90
680.71	526.74
681.05	523.71
681.39	520.57
681.73	517.43
682.06	514.40
682.40	511.37
682.74	508.24
683.08	505.38
683.42	502.25
683.75	499.42
684.09	496.06
684.43	493.01
684.77	490.05
685.10	487.26
685.44	484.37
685.78	481.70
686.12	479.11
686.45	476.26
686.79	473.31
687.13	470.66
687.46	468.06
687.80	465.17
688.14	462.29
688.48	459.65
688.81	456.80
689.15	454.13
689.49	451.32
689.82	448.86
690.16	446.03
690.50	443.67
690.83	440.90
691.17	438.42
691.51	436.09
691.84	433.82
692.18	431.34
692.52	428.95
692.85	426.40
693.19	423.90
693.52	421.58
693.86	419.40
694.20	417.08
694.53	414.81
694.87	412.70
695.21	410.49
695.54	408.23
695.88	405.92
696.21	403.70
696.55	401.76
696.88	399.74
697.22	397.83
697.56	395.80
697.89	393.76
698.23	391.82
698.56	389.69
698.90	387.69
699.23	385.50
699.57	383.55
699.90	381.70
700.24	379.84
700.58	377.89
700.91	375.93
701.25	374.07
701.58	372.24
701.92	370.45
702.25	368.61
702.59	366.93
702.92	365.32
703.26	363.66
703.59	361.89
703.93	360.27
704.26	358.66
704.60	356.88
704.93	355.33
705.26	353.84
705.60	352.39
705.93	350.85
706.27	349.70
706.60	348.40
706.94	346.98
707.27	345.60
707.61	344.26
707.94	343.04
708.27	341.52
708.61	340.14
708.94	338.87
709.28	337.59
709.61	336.18
709.94	335.11
710.28	333.95
710.61	332.68
710.95	331.32
711.28	330.03
711.61	328.88
711.95	327.73
712.28	326.44
712.61	325.18
712.95	324.04
713.28	322.88
713.61	321.70
713.95	320.51
714.28	319.38
714.61	318.26
714.95	317.07
715.28	316.04
715.61	315.05
715.95	314.04
716.28	313.08
716.61	312.15
716.95	310.95
717.28	309.80
717.61	309.00
717.94	308.06
718.28	307.06
718.61	306.17
718.94	305.30
719.27	304.48
719.61	303.70
719.94	302.89
720.27	301.80
720.60	300.90
720.94	300.05
721.27	299.25
721.60	298.50
721.93	297.72
722.27	297.02
722.60	296.20
722.93	295.23
723.26	294.42
723.59	293.72
723.93	293.05
724.26	292.42
724.59	291.62
724.92	290.94
725.25	290.32
725.59	289.61
725.92	288.95
726.25	288.25
726.58	287.66
726.91	287.03
727.24	286.57
727.57	285.97
727.91	285.38
728.24	284.82
728.57	284.25
728.90	283.58
729.23	282.89
729.56	282.35
729.89	281.94
730.22	281.34
730.55	280.70
730.89	280.14
731.22	279.53
731.55	278.91
731.88	278.28
732.21	277.71
732.54	276.99
732.87	276.25
733.20	275.71
733.53	275.19
733.86	274.66
734.19	274.01
734.52	273.59
734.85	273.07
735.18	272.46
735.51	271.95
735.84	271.55
736.17	271.16
736.50	270.58
736.83	270.20
737.16	269.70
737.49	269.20
737.82	268.60
738.15	268.14
738.48	267.63
738.81	267.26
739.14	266.72
739.47	266.38
739.80	265.93
740.13	265.56
740.46	264.90
740.79	264.30
741.12	263.97
741.45	263.40
741.78	263.04
742.11	262.62
742.44	262.20
742.77	261.82
743.10	261.45
743.43	261.02
743.75	260.48
744.08	260.34
744.41	259.93
744.74	259.66
745.07	259.20
745.40	258.95
745.73	258.56
746.06	258.26
746.39	257.98
746.71	257.76
747.04	257.37
747.37	257.19
747.70	256.95
748.03	256.58
748.36	256.42
748.68	256.07
749.01	255.76
749.34	255.40
749.67	255.08
750.00	254.75
750.33	254.60
750.65	254.27
750.98	253.77
751.31	253.48
751.64	253.19
751.97	253.08
752.29	252.77
752.62	252.37
752.95	252.01
753.28	251.74
753.60	251.43
753.93	251.19
754.26	250.81
754.59	250.49
754.91	250.33
755.24	249.97
755.57	249.68
755.90	249.45
756.22	249.32
756.55	249.10
756.88	248.75
757.20	248.30
757.53	248.04
757.86	247.83
758.19	247.70
758.51	247.50
758.84	247.25
759.17	247.05
759.49	246.94
759.82	246.92
760.15	246.66
760.47	246.44
760.80	246.32
761.13	246.32
761.45	246.16
761.78	245.84
762.11	245.63
762.43	245.41
762.76	245.18
763.08	244.84
763.41	244.70
763.74	244.61
764.06	244.60
764.39	244.44
764.71	244.34
765.04	244.07
765.37	243.85
765.69	243.62
766.02	243.49
766.34	243.38
766.67	243.13
767.00	243.14
767.32	243.11
767.65	243.00
767.97	242.71
768.30	242.53
768.62	242.51
768.95	242.36
769.27	242.25
769.60	242.08
769.92	241.96
770.25	241.70
770.57	241.49
770.90	241.22
771.22	241.05
771.55	240.86
771.87	240.80
772.20	240.67
772.52	240.70
772.85	240.70
773.17	240.39
773.50	240.22
773.82	240.01
774.15	239.78
774.47	239.43
774.80	239.35
775.12	239.08
775.45	238.86
775.77	238.70
776.09	238.60
776.42	238.54
776.74	238.42
777.07	238.26
777.39	238.11
777.72	237.94
778.04	237.88
778.36	237.65
778.69	237.50
779.01	237.34
779.33	236.95
779.66	236.67
779.98	236.66
780.31	236.47
780.63	236.40
780.95	236.30
781.28	236.31
781.60	236.29
781.92	236.29
782.25	236.14
782.57	236.13
782.89	236.00
783.22	235.90
783.54	235.85
783.86	235.82
784.19	235.72
784.51	235.69
784.83	235.49
785.16	235.38
785.48	235.24
785.80	235.09
786.12	235.08
786.45	235.00
786.77	234.94
787.09	234.92
787.42	234.75
787.74	234.74
788.06	234.60
788.38	234.40
788.71	234.38
789.03	234.37
789.35	234.31
789.67	234.29
789.99	234.19
790.32	234.15
790.64	234.14
790.96	234.28
791.28	234.18
791.61	234.20
791.93	234.16
792.25	234.15
792.57	234.34
792.89	234.28
793.21	234.21
793.54	234.18
793.86	234.14
794.18	234.16
794.50	234.00
794.82	234.03
795.14	234.02
795.47	233.99
795.79	233.86
796.11	233.78
796.43	233.68
796.75	233.65
797.07	233.59
797.39	233.40
797.71	233.25
798.04	233.39
798.36	233.37
798.68	233.49
799.00	233.43
799.32	233.33
799.64	233.28
799.96	233.23
800.28	233.23
800.60	233.15
800.92	233.11
801.24	233.10
801.56	233.04
801.89	232.98
802.21	232.95
802.53	232.95
802.85	232.92
803.17	232.96
803.49	232.87
803.81	232.80
804.13	232.84
804.45	232.68
804.77	232.62
805.09	232.64
805.41	232.54
805.73	232.60
806.05	232.48
806.37	232.53
806.69	232.56
807.01	232.51
807.33	232.45
807.65	232.39
807.97	232.58
808.28	232.46
808.60	232.54
808.92	232.39
809.24	232.51
809.56	232.51
809.88	232.36
810.20	232.34
810.52	232.42
810.84	232.36
811.16	232.43
811.48	232.33
811.80	232.32
812.12	232.19
812.43	232.10
812.75	232.10
813.07	232.00
813.39	231.90
813.71	231.82
814.03	231.83
814.35	231.85
814.67	231.59
814.98	231.62
815.30	231.47
815.62	231.43
815.94	231.22
816.26	231.25
816.58	231.26
816.89	231.21
817.21	231.05
817.53	231.09
817.85	231.01
818.17	230.95
818.48	230.81
818.80	230.89
819.12	230.85
819.44	230.81
819.76	230.77
820.07	230.71
820.39	230.73
820.71	230.77
821.03	230.73
821.34	230.82
821.66	230.79
821.98	230.84
822.30	230.91
822.61	231.02
822.93	230.90
823.25	230.96
823.57	230.98
823.88	230.94
824.20	230.90
824.52	230.98
824.83	230.95
825.15	230.98
825.47	230.93
825.79	230.91
826.10	230.82
826.42	230.77
826.74	230.77
827.05	230.72
827.37	230.71
827.69	230.63
828.00	230.48
828.32	230.37
828.64	230.29
828.95	230.22
829.27	230.15
829.58	230.08
829.90	230.00
830.22	230.06
830.53	230.04
830.85	230.05
831.17	229.87
831.48	229.93
831.80	229.77
832.11	229.74
832.43	229.79
832.75	229.75
833.06	229.84
833.38	229.80
833.69	229.77
834.01	229.62
834.32	229.61
834.64	229.54
834.96	229.69
835.27	229.65
835.59	229.75
835.90	229.68
836.22	229.65
836.53	229.66
836.85	229.52
837.16	229.60
837.48	229.53
837.79	229.69
838.11	229.64
838.42	229.78
838.74	229.71
839.05	229.69
839.37	229.80
839.68	229.65
840.00	229.71
840.31	229.62
840.63	229.73
840.94	229.71
841.26	229.84
841.57	229.82
841.88	229.94
842.20	229.87
842.51	229.90
842.83	229.98
843.14	230.15
843.46	230.20
843.77	230.18
844.08	230.16
844.40	230.07
844.71	230.00
845.03	229.92
845.34	229.92
845.65	229.75
845.97	229.69
846.28	229.89
846.60	229.89
846.91	229.99
847.22	229.94
847.54	229.97
847.85	229.97
848.16	229.90
848.48	229.85
848.79	229.86
849.10	229.80
849.42	229.73
849.73	229.50
850.04	229.46
850.36	229.49
850.67	229.49
850.98	229.40
851.30	229.45
851.61	229.40
851.92	229.46
852.23	229.53
852.55	229.59
852.86	229.52
853.17	229.52
853.49	229.49
853.80	229.54
854.11	229.47
854.42	229.42
854.74	229.40
855.05	229.31
855.36	229.21
855.67	229.20
855.99	229.13
856.30	229.24
856.61	229.20
856.92	229.06
857.23	228.99
857.55	229.04
857.86	228.94
858.17	228.98
858.48	228.93
858.79	228.88
859.11	228.73
859.42	228.63
859.73	228.53
860.04	228.49
860.35	228.41
860.66	228.32
860.98	228.26
861.29	228.22
861.60	228.19
861.91	228.19
862.22	228.23
862.53	228.23
862.84	228.06
863.16	228.15
863.47	228.11
863.78	228.16
864.09	228.11
864.40	228.07
864.71	228.03
865.02	228.05
865.33	228.04
865.64	228.04
865.95	228.10
866.27	228.30
866.58	228.28
866.89	228.22
867.20	228.29
867.51	228.30
867.82	228.31
868.13	228.39
868.44	228.44
868.75	228.42
869.06	228.47
869.37	228.57
869.68	228.53
869.99	228.60
870.30	228.60
870.61	228.59
870.92	228.60
871.23	228.66
871.54	228.74
871.85	228.84
872.16	228.88
872.47	228.80
872.78	228.59
873.09	228.63
873.40	228.73
873.71	228.80
874.02	228.83
874.33	228.80
874.64	228.80
874.95	228.85
875.26	228.77
875.56	228.79
875.87	228.71
876.18	228.66
876.49	228.91
876.80	228.90
877.11	228.91
877.42	229.07
877.73	229.08
878.04	228.98
878.35	228.90
878.66	228.98
878.96	229.07
879.27	229.02
879.58	229.06
879.89	228.94
880.20	229.03
880.51	229.10
880.82	229.17
881.12	229.14
881.43	229.07
881.74	229.12
882.05	229.11
882.36	229.23
882.67	229.30
882.97	229.11
883.28	229.05
883.59	229.20
883.90	229.19
884.21	229.28
884.51	229.31
884.82	229.31
885.13	229.35
885.44	229.35
885.74	229.40
886.05	229.40
886.36	229.53
886.67	229.49
886.98	229.55
887.28	229.63
887.59	229.68
887.90	229.66
888.20	229.74
888.51	229.77
888.82	229.70
889.13	229.62
889.43	229.70
889.74	229.81
890.05	229.71
890.35	229.60
890.66	229.54
890.97	229.44
891.28	229.41
891.58	229.29
891.89	229.12
892.20	229.12
892.50	229.01
892.81	228.93
893.12	228.89
893.42	228.79
893.73	228.73
894.04	228.65
894.34	228.66
894.65	228.59
894.95	228.54
895.26	228.52
895.57	228.70
895.87	228.47
896.18	228.48
896.48	228.47
896.79	228.42
897.10	228.33
897.40	228.40
897.71	228.51
898.01	228.58
898.32	228.70
898.63	228.62
898.93	228.79
899.24	228.79
899.54	228.69
899.85	228.60
900.15	228.59
900.46	228.56
900.76	228.58
901.07	228.60
901.38	228.71
901.68	228.80
901.99	228.59
902.29	228.67
902.60	228.70
902.90	228.73
903.21	228.82
903.51	228.83
903.82	228.87
904.12	228.87
904.43	228.83
904.73	228.82
905.03	228.90
905.34	228.86
905.64	228.92
905.95	228.97
906.25	229.08
906.56	228.98
906.86	229.00
907.17	228.95
907.47	228.91
907.77	228.73
908.08	228.68
908.38	228.76
908.69	228.67
908.99	228.59
909.30	228.55
909.60	228.63
909.90	228.72
910.21	228.64
910.51	228.68
910.81	228.75
911.12	228.75
911.42	228.72
911.73	228.65
912.03	228.72
912.33	228.81
912.64	228.75
912.94	228.78
913.24	228.75
913.55	228.80
913.85	228.75
914.15	228.90
914.46	228.90
914.76	228.84
915.06	228.93
915.37	228.88
915.67	228.94
915.97	228.96
916.27	228.87
916.58	228.90
916.88	228.78
917.18	228.68
917.49	228.86
917.79	228.85
918.09	228.87
918.39	228.77
918.70	228.70
919.00	228.70
919.30	228.83
919.60	228.94
919.91	228.96
920.21	229.08
920.51	229.01
920.81	229.05
921.12	229.18
921.42	229.09
921.72	229.20
922.02	229.14
922.32	229.06
922.63	229.10
922.93	229.26
923.23	229.27
923.53	229.24
923.83	229.06
924.13	229.10
924.44	229.02
924.74	229.14
925.04	229.13
925.34	229.20
925.64	229.11
925.94	229.05
926.24	229.10
926.55	229.03
926.85	229.02
927.15	228.96
927.45	228.93
927.75	229.03
928.05	228.99
928.35	228.98
928.65	229.04
928.95	229.00
929.26	228.79
929.56	228.87
929.86	229.02
930.16	229.04
930.46	229.03
930.76	229.09
931.06	228.88
931.36	228.80
931.66	228.67
931.96	228.62
932.26	228.64
932.56	228.54
932.86	228.57
933.16	228.48
933.46	228.55
933.76	228.50
934.06	228.53
934.36	228.64
934.66	228.69
934.96	228.54
935.26	228.53
935.56	228.73
935.86	228.68
936.16	228.61
936.46	228.58
936.76	228.53
937.06	228.53
937.36	228.73
937.66	228.77
937.96	228.80
938.26	228.83
938.56	228.82
938.86	228.82
939.16	228.84
939.46	228.98
939.76	228.98
940.06	229.00
940.35	228.87
940.65	228.68
940.95	228.67
941.25	228.88
941.55	228.84
941.85	228.73
942.15	228.83
942.45	228.85
942.75	228.93
943.04	229.05
943.34	229.00
943.64	228.92
943.94	228.91
944.24	228.99
944.54	229.02
944.84	228.95
945.13	229.08
945.43	229.07
945.73	229.02
946.03	228.89
946.33	228.90
946.62	228.96
946.92	229.01
947.22	229.07
947.52	229.00
947.82	229.15
948.11	229.15
948.41	229.03
948.71	228.97
949.01	228.96
949.31	228.93
949.60	228.97
949.90	228.91
950.20	228.93
950.50	228.88
950.79	228.90
951.09	228.98
951.39	228.86
951.69	228.72
951.98	228.86
952.28	228.90
952.58	228.84
952.87	228.90
953.17	228.86
953.47	228.83
953.76	228.79
954.06	228.70
954.36	228.72
954.66	228.73
954.95	228.83
955.25	228.89
955.55	228.88
955.84	228.96
956.14	229.00
956.44	229.02
956.73	228.98
957.03	228.97
957.32	228.99
957.62	228.96
957.92	229.05
958.21	228.95
958.51	229.14
958.81	229.20
959.10	229.30
959.40	229.37
959.69	229.21
959.99	229.21
960.29	229.22
960.58	229.10
960.88	229.18
961.17	229.14
961.47	229.11
961.76	229.05
962.06	228.95
962.36	229.00
962.65	229.06
962.95	229.06
963.24	229.04
963.54	229.00
963.83	229.06
964.13	229.10
964.42	228.93
964.72	228.82
965.01	228.81
965.31	228.62
965.60	228.57
965.90	228.76
966.19	228.70
966.49	228.59
966.78	228.69
967.08	228.60
967.37	228.48
967.67	228.35
967.96	228.33
968.26	228.42
968.55	228.41
968.85	228.31
969.14	228.30
969.43	228.25
969.73	228.24
970.02	228.21
970.32	228.20
970.61	228.29
970.91	228.19
971.20	228.01
971.49	228.09
971.79	228.15
972.08	227.98
972.38	228.00
972.67	228.03
972.96	228.05
973.26	228.04
973.55	228.18
973.85	228.12
974.14	228.14
974.43	228.07
974.73	228.04
975.02	227.99
975.31	228.00
975.61	228.06
975.90	227.98
976.19	228.01
976.49	228.00
976.78	227.96
977.07	228.05
977.37	228.12
977.66	228.07
977.95	227.96
978.24	228.05
978.54	228.13
978.83	228.16
979.12	228.13
979.42	228.07
979.71	228.09
980.00	228.13
980.29	228.15
980.59	228.17
980.88	228.18
981.17	228.16
981.46	228.12
981.76	228.02
982.05	228.08
982.34	228.12
982.63	228.17
982.93	228.29
983.22	228.36
983.51	228.45
983.80	228.50
984.09	228.53
984.39	228.52
984.68	228.45
984.97	228.47
985.26	228.43
985.55	228.47
985.85	228.35
986.14	228.40
986.43	228.45
986.72	228.39
987.01	228.30
987.30	228.31
987.59	228.34
987.89	228.36
988.18	228.30
988.47	228.25
988.76	228.11
989.05	228.03
989.34	227.90
989.63	228.06
989.92	228.06
990.22	228.09
990.51	228.02
990.80	228.02
991.09	228.07
991.38	228.12
991.67	228.21
991.96	228.23
992.25	228.22
992.54	228.19
992.83	228.25
993.12	228.24
993.41	228.17
993.70	228.37
993.99	228.46
994.28	228.47
994.58	228.48
994.87	228.49
995.16	228.46
995.45	228.41
995.74	228.13
996.03	228.12
996.32	228.15
996.61	228.20
996.90	228.24
997.19	228.21
997.48	228.22
997.77	228.17
998.06	228.19
998.34	228.19
998.63	228.11
998.92	228.12
999.21	228.07
999.50	228.20
999.79	228.10
1000.08	228.04
1000.37	228.09
1000.66	227.99
1000.95	228.04
1001.24	228.14
1001.53	228.20
1001.82	228.20
1002.11	228.09
1002.40	227.97
1002.68	227.95
1002.97	227.96
1003.26	227.89
1003.55	227.80
1003.84	227.80
1004.13	227.70
1004.42	227.65
1004.71	227.70
1004.99	227.71
1005.28	227.81
1005.57	227.81
1005.86	227.62
1006.15	227.69
1006.44	227.63
1006.72	227.60
1007.01	227.60
1007.30	227.54
1007.59	227.47
1007.88	227.50
1008.17	227.56
1008.45	227.62
1008.74	227.55
1009.03	227.54
1009.32	227.53
1009.60	227.49
1009.89	227.46
1010.18	227.56
1010.47	227.64
1010.76	227.63
1011.04	227.61
1011.33	227.69
1011.62	227.73
1011.91	227.82
1012.19	227.81
1012.48	227.85
1012.77	227.89
1013.05	227.94
1013.34	227.90
1013.63	227.96
1013.92	228.07
1014.20	228.11
1014.49	228.10
1014.78	228.22
1015.06	228.15
1015.35	228.13
1015.64	228.24
1015.92	228.27
1016.21	228.24
1016.50	228.21
1016.78	228.29
1017.07	228.26
1017.36	228.14
1017.64	228.05
1017.93	227.98
1018.22	227.92
1018.50	227.96
1018.79	228.05
1019.08	227.99
1019.36	227.99
1019.65	227.96
1019.93	228.06
1020.22	228.10
1020.51	228.25
1020.79	228.15
1021.08	227.70
1021.36	228.20
1021.65	228.80
1021.94	227.90
1022.22	227.30
1022.51	227.50
1022.79	231.20
1023.08	229.10
1023.36	231.10
1023.65	226.60
>>>>>End Processed Spectral Data<<<<<
