SpectraSuite Data File
++++++++++++++++++++++++++++++++++++
Date: Fri Feb 01 14:38:27 EST 2013
User: group
Dark Spectrum Present: No
Reference Spectrum Present: No
Number of Sampled Component Spectra: 1
Spectrometers: USB2E7196
Integration Time (usec): 70000 (USB2E7196)
Spectra Averaged: 10 (USB2E7196)
Boxcar Smoothing: 10 (USB2E7196)
Correct for Electrical Dark: No (USB2E7196)
Strobe/Lamp Enabled: No (USB2E7196)
Correct for Detector Non-linearity: No (USB2E7196)
Correct for Stray Light: No (USB2E7196)
Number of Pixels in Processed Spectrum: 2048
>>>>>Begin Processed Spectral Data<<<<<
339.09	0.00
339.48	214.90
339.86	217.00
340.24	221.10
340.63	220.30
341.01	224.10
341.39	222.70
341.78	226.00
342.16	225.00
342.54	225.70
342.93	214.60
343.31	225.50
343.69	226.00
344.07	226.45
344.46	226.86
344.84	227.16
345.22	227.35
345.60	227.65
345.99	227.82
346.37	227.88
346.75	227.98
347.13	227.92
347.52	228.10
347.90	228.24
348.28	228.30
348.66	228.38
349.05	228.34
349.43	228.41
349.81	228.47
350.19	228.44
350.57	228.48
350.96	228.52
351.34	228.45
351.72	228.66
352.10	228.83
352.48	228.74
352.87	228.90
353.25	229.00
353.63	229.06
354.01	229.08
354.39	229.28
354.77	229.29
355.15	229.47
355.54	229.35
355.92	229.31
356.30	229.33
356.68	229.61
357.06	229.59
357.44	229.60
357.82	229.67
358.20	229.79
358.58	229.82
358.97	229.90
359.35	230.12
359.73	230.20
360.11	230.27
360.49	230.39
360.87	230.40
361.25	230.48
361.63	230.54
362.01	230.57
362.39	230.48
362.77	230.57
363.15	230.56
363.53	230.59
363.91	230.62
364.29	230.52
364.67	230.28
365.05	230.44
365.43	230.42
365.81	230.45
366.19	230.43
366.57	230.58
366.95	230.53
367.33	230.41
367.71	230.28
368.09	230.22
368.47	230.17
368.85	230.09
369.23	229.96
369.61	229.77
369.99	229.75
370.37	229.84
370.75	229.80
371.13	229.65
371.51	229.60
371.89	229.50
372.27	229.50
372.65	229.49
373.03	229.35
373.41	229.27
373.78	229.19
374.16	229.01
374.54	228.79
374.92	228.63
375.30	228.50
375.68	228.48
376.06	228.32
376.44	228.18
376.82	228.12
377.19	228.09
377.57	228.01
377.95	227.87
378.33	227.72
378.71	227.52
379.09	227.56
379.47	227.52
379.84	227.40
380.22	227.26
380.60	227.09
380.98	227.09
381.36	227.05
381.73	226.88
382.11	226.90
382.49	226.81
382.87	226.70
383.25	226.64
383.62	226.75
384.00	226.61
384.38	226.51
384.76	226.51
385.13	226.51
385.51	226.58
385.89	226.44
386.27	226.43
386.64	226.38
387.02	226.30
387.40	226.22
387.78	226.21
388.15	226.15
388.53	226.00
388.91	225.83
389.29	225.70
389.66	225.72
390.04	225.67
390.42	225.80
390.79	225.85
391.17	225.84
391.55	225.66
391.92	225.75
392.30	225.87
392.68	225.77
393.05	225.72
393.43	225.69
393.81	225.80
394.18	225.72
394.56	225.79
394.94	225.87
395.31	225.99
395.69	226.04
396.06	226.17
396.44	226.33
396.82	226.46
397.19	226.69
397.57	226.73
397.95	226.85
398.32	226.86
398.70	226.99
399.07	227.19
399.45	227.25
399.82	227.35
400.20	227.46
400.58	227.50
400.95	227.53
401.33	227.64
401.70	227.93
402.08	228.11
402.45	228.30
402.83	228.45
403.20	228.45
403.58	228.67
403.95	228.84
404.33	229.04
404.71	229.22
405.08	229.59
405.46	229.80
405.83	229.95
406.21	230.08
406.58	230.27
406.96	230.44
407.33	230.64
407.70	230.88
408.08	231.24
408.45	231.62
408.83	231.93
409.20	232.18
409.58	232.20
409.95	232.58
410.33	232.80
410.70	233.06
411.08	233.51
411.45	233.86
411.82	234.16
412.20	234.55
412.57	234.96
412.95	235.04
413.32	235.42
413.69	235.89
414.07	236.39
414.44	236.80
414.82	237.33
415.19	238.07
415.56	238.69
415.94	239.34
416.31	240.10
416.68	240.90
417.06	241.67
417.43	242.56
417.81	243.38
418.18	244.46
418.55	245.45
418.93	246.49
419.30	247.53
419.67	248.80
420.04	250.10
420.42	251.48
420.79	253.10
421.16	254.53
421.54	256.15
421.91	257.70
422.28	259.35
422.66	261.10
423.03	262.81
423.40	264.60
423.77	266.33
424.15	268.11
424.52	270.00
424.89	272.29
425.26	274.29
425.64	276.14
426.01	278.20
426.38	280.48
426.75	282.82
427.13	285.21
427.50	287.57
427.87	290.03
428.24	292.46
428.61	294.77
428.99	297.56
429.36	300.36
429.73	303.15
430.10	306.00
430.47	308.80
430.85	311.79
431.22	314.87
431.59	318.31
431.96	321.37
432.33	324.90
432.70	328.10
433.08	332.00
433.45	335.73
433.82	339.56
434.19	343.72
434.56	347.64
434.93	351.50
435.30	355.19
435.68	359.32
436.05	363.55
436.42	367.58
436.79	371.32
437.16	375.28
437.53	379.57
437.90	383.69
438.27	387.77
438.64	391.75
439.01	395.69
439.38	399.06
439.75	402.67
440.13	406.51
440.50	410.23
440.87	413.30
441.24	416.44
441.61	419.81
441.98	422.16
442.35	425.25
442.72	428.21
443.09	431.40
443.46	433.50
443.83	434.63
444.20	435.68
444.57	437.30
444.94	438.15
445.31	439.14
445.68	440.31
446.05	440.98
446.42	441.00
446.79	440.86
447.16	440.65
447.53	440.65
447.90	439.53
448.27	438.39
448.64	436.67
449.01	435.66
449.37	433.30
449.74	431.05
450.11	428.09
450.48	424.90
450.85	421.51
451.22	418.55
451.59	416.02
451.96	413.78
452.33	410.28
452.70	407.28
453.07	403.36
453.43	399.48
453.80	395.67
454.17	392.01
454.54	388.55
454.91	384.81
455.28	381.10
455.65	377.62
456.02	374.28
456.38	371.20
456.75	367.36
457.12	364.04
457.49	360.85
457.86	357.71
458.23	355.13
458.59	352.33
458.96	349.39
459.33	346.73
459.70	344.04
460.07	341.87
460.43	339.32
460.80	337.03
461.17	334.86
461.54	332.64
461.91	330.61
462.27	328.60
462.64	326.72
463.01	324.70
463.38	322.77
463.74	320.56
464.11	318.91
464.48	317.41
464.85	315.74
465.21	314.40
465.58	313.15
465.95	311.43
466.32	309.98
466.68	308.46
467.05	307.01
467.42	305.56
467.78	304.12
468.15	302.70
468.52	301.53
468.88	299.96
469.25	298.77
469.62	297.65
469.98	296.45
470.35	295.46
470.72	294.42
471.08	293.19
471.45	292.37
471.82	291.26
472.18	290.20
472.55	289.53
472.92	288.66
473.28	287.75
473.65	286.95
474.02	286.00
474.38	285.41
474.75	284.70
475.11	283.95
475.48	283.39
475.85	282.87
476.21	282.40
476.58	281.99
476.94	281.48
477.31	280.98
477.67	280.47
478.04	279.89
478.41	279.54
478.77	279.34
479.14	278.86
479.50	278.53
479.87	278.28
480.23	278.00
480.60	277.76
480.96	277.56
481.33	277.47
481.69	277.32
482.06	277.20
482.42	277.08
482.79	277.00
483.15	276.91
483.52	276.77
483.88	276.60
484.25	276.53
484.61	276.53
484.98	276.44
485.34	276.43
485.71	276.48
486.07	276.45
486.44	276.29
486.80	276.32
487.17	276.38
487.53	276.56
487.90	276.58
488.26	276.80
488.62	277.00
488.99	277.02
489.35	277.19
489.72	277.26
490.08	277.49
490.44	277.67
490.81	278.03
491.17	278.21
491.54	278.55
491.90	278.81
492.26	279.02
492.63	279.39
492.99	279.76
493.36	280.09
493.72	280.40
494.08	280.87
494.45	281.24
494.81	281.83
495.17	282.04
495.54	282.42
495.90	282.74
496.26	282.99
496.63	283.38
496.99	283.87
497.35	284.33
497.72	284.70
498.08	285.05
498.44	285.30
498.80	285.91
499.17	286.16
499.53	286.65
499.89	287.05
500.26	287.46
500.62	287.80
500.98	288.21
501.34	288.62
501.71	289.04
502.07	289.43
502.43	289.57
502.79	290.05
503.16	290.37
503.52	290.73
503.88	290.94
504.24	291.31
504.60	291.72
504.97	292.08
505.33	292.37
505.69	292.85
506.05	293.23
506.41	293.53
506.78	293.95
507.14	294.16
507.50	294.49
507.86	294.86
508.22	295.29
508.59	295.72
508.95	296.21
509.31	296.70
509.67	297.25
510.03	297.74
510.39	298.19
510.75	298.74
511.12	299.20
511.48	299.87
511.84	300.48
512.20	300.90
512.56	301.52
512.92	302.30
513.28	302.75
513.64	303.34
514.00	303.97
514.37	304.75
514.73	305.52
515.09	306.41
515.45	307.16
515.81	308.10
516.17	309.00
516.53	309.90
516.89	310.82
517.25	311.89
517.61	313.19
517.97	314.40
518.33	315.69
518.69	317.11
519.05	318.61
519.41	320.15
519.77	321.81
520.13	323.44
520.49	325.24
520.85	327.14
521.21	329.16
521.57	331.17
521.93	333.11
522.29	335.33
522.65	337.41
523.01	339.73
523.37	341.93
523.73	344.50
524.09	346.96
524.45	349.36
524.81	351.88
525.17	354.63
525.53	357.49
525.89	360.54
526.25	363.47
526.61	366.36
526.97	369.32
527.33	372.69
527.68	376.14
528.04	379.31
528.40	382.78
528.76	386.27
529.12	390.00
529.48	393.85
529.84	397.41
530.20	401.38
530.56	405.45
530.91	409.65
531.27	413.75
531.63	418.11
531.99	422.53
532.35	427.09
532.71	431.33
533.07	435.78
533.42	440.30
533.78	445.02
534.14	449.70
534.50	454.45
534.86	459.21
535.21	463.90
535.57	468.98
535.93	474.04
536.29	479.00
536.65	484.25
537.00	489.35
537.36	494.91
537.72	500.06
538.08	505.26
538.44	510.62
538.79	515.97
539.15	521.40
539.51	527.05
539.87	532.58
540.22	538.10
540.58	544.01
540.94	549.80
541.29	555.72
541.65	561.55
542.01	567.73
542.37	573.59
542.72	579.40
543.08	585.24
543.44	591.08
543.79	596.96
544.15	602.89
544.51	608.99
544.87	615.10
545.22	621.19
545.58	627.17
545.94	633.08
546.29	638.89
546.65	644.78
547.01	650.74
547.36	656.52
547.72	662.54
548.07	668.17
548.43	673.79
548.79	679.53
549.14	685.07
549.50	690.59
549.86	696.22
550.21	702.10
550.57	707.93
550.92	713.75
551.28	719.65
551.64	725.10
551.99	730.55
552.35	735.73
552.70	741.31
553.06	746.99
553.41	752.64
553.77	758.39
554.13	763.91
554.48	769.47
554.84	775.01
555.19	780.34
555.55	786.06
555.90	791.46
556.26	796.30
556.61	801.98
556.97	807.04
557.32	812.22
557.68	817.21
558.03	822.34
558.39	827.34
558.74	832.51
559.10	837.48
559.45	842.51
559.81	847.86
560.16	852.68
560.52	857.51
560.87	862.36
561.23	866.96
561.58	871.98
561.94	876.40
562.29	880.95
562.64	885.60
563.00	889.82
563.35	894.59
563.71	899.80
564.06	904.38
564.42	909.04
564.77	913.49
565.12	918.01
565.48	922.25
565.83	926.78
566.19	930.80
566.54	935.05
566.89	939.01
567.25	942.75
567.60	946.94
567.96	950.65
568.31	954.19
568.66	958.00
569.02	961.22
569.37	964.57
569.72	968.24
570.08	971.60
570.43	975.01
570.78	977.68
571.14	980.04
571.49	982.80
571.84	985.91
572.20	988.81
572.55	991.17
572.90	993.67
573.26	996.03
573.61	998.38
573.96	1000.25
574.31	1002.26
574.67	1004.05
575.02	1005.73
575.37	1007.75
575.72	1009.24
576.08	1010.83
576.43	1012.32
576.78	1014.02
577.13	1015.47
577.49	1016.87
577.84	1018.07
578.19	1019.46
578.54	1020.90
578.90	1021.65
579.25	1022.30
579.60	1023.14
579.95	1024.10
580.30	1024.61
580.66	1024.90
581.01	1025.35
581.36	1025.97
581.71	1026.84
582.06	1027.46
582.42	1027.75
582.77	1028.12
583.12	1028.73
583.47	1029.05
583.82	1029.37
584.17	1029.33
584.53	1029.39
584.88	1029.54
585.23	1029.59
585.58	1029.86
585.93	1029.67
586.28	1030.20
586.63	1030.16
586.98	1029.97
587.34	1029.73
587.69	1029.77
588.04	1029.95
588.39	1029.89
588.74	1029.59
589.09	1028.58
589.44	1027.76
589.79	1027.18
590.14	1026.73
590.49	1026.02
590.84	1025.15
591.19	1024.62
591.54	1023.74
591.89	1022.37
592.25	1021.39
592.60	1019.97
592.95	1018.10
593.30	1016.92
593.65	1015.20
594.00	1013.90
594.35	1012.80
594.70	1011.05
595.05	1009.63
595.40	1007.83
595.75	1005.90
596.10	1004.58
596.45	1003.60
596.80	1002.43
597.15	1001.37
597.50	999.64
597.85	998.11
598.19	996.88
598.54	995.53
598.89	994.18
599.24	993.19
599.59	991.48
599.94	989.93
600.29	988.47
600.64	986.68
600.99	984.92
601.34	983.34
601.69	981.25
602.04	979.69
602.39	977.77
602.74	976.36
603.08	974.65
603.43	972.97
603.78	971.15
604.13	969.34
604.48	967.25
604.83	965.46
605.18	963.47
605.53	960.71
605.87	957.88
606.22	955.69
606.57	952.93
606.92	950.50
607.27	948.51
607.62	946.61
607.96	944.50
608.31	942.45
608.66	939.76
609.01	936.93
609.36	934.22
609.70	931.39
610.05	927.99
610.40	925.32
610.75	922.19
611.10	918.83
611.44	915.53
611.79	912.79
612.14	909.60
612.49	906.33
612.83	903.40
613.18	900.40
613.53	897.40
613.88	894.30
614.22	891.28
614.57	887.93
614.92	884.71
615.27	881.53
615.61	878.28
615.96	875.01
616.31	872.30
616.65	869.72
617.00	866.76
617.35	864.06
617.70	860.95
618.04	857.68
618.39	854.76
618.74	851.75
619.08	848.16
619.43	845.25
619.78	842.25
620.12	839.42
620.47	836.48
620.82	833.17
621.16	830.12
621.51	827.29
621.85	824.18
622.20	820.90
622.55	817.91
622.89	814.60
623.24	811.64
623.59	808.45
623.93	805.18
624.28	802.37
624.62	799.38
624.97	796.50
625.32	793.74
625.66	790.89
626.01	787.90
626.35	784.95
626.70	781.59
627.04	778.94
627.39	775.93
627.73	772.78
628.08	769.80
628.43	766.64
628.77	763.38
629.12	760.36
629.46	757.20
629.81	753.71
630.15	750.31
630.50	747.04
630.84	743.56
631.19	740.18
631.53	736.60
631.88	732.99
632.22	729.51
632.57	726.27
632.91	722.87
633.26	719.79
633.60	716.35
633.95	713.12
634.29	709.70
634.64	706.65
634.98	703.54
635.32	700.68
635.67	697.89
636.01	694.80
636.36	691.57
636.70	688.63
637.05	685.72
637.39	683.17
637.73	680.28
638.08	677.84
638.42	675.20
638.77	672.33
639.11	669.52
639.45	666.57
639.80	663.44
640.14	660.53
640.49	657.65
640.83	654.90
641.17	652.10
641.52	649.12
641.86	645.95
642.20	643.12
642.55	640.10
642.89	637.12
643.23	634.31
643.58	631.73
643.92	628.84
644.26	626.07
644.61	623.27
644.95	620.53
645.29	617.10
645.64	613.85
645.98	610.99
646.32	608.09
646.66	605.15
647.01	602.38
647.35	599.35
647.69	596.21
648.04	593.45
648.38	590.41
648.72	587.46
649.06	584.59
649.41	581.57
649.75	578.30
650.09	575.19
650.43	571.98
650.78	568.70
651.12	565.61
651.46	562.80
651.80	560.04
652.14	556.99
652.49	554.39
652.83	551.70
653.17	548.70
653.51	545.77
653.85	543.10
654.20	540.19
654.54	537.48
654.88	534.84
655.22	531.92
655.56	529.07
655.90	526.30
656.25	523.61
656.59	520.95
656.93	518.38
657.27	515.95
657.61	513.13
657.95	510.68
658.29	508.31
658.64	505.88
658.98	503.05
659.32	500.50
659.66	497.90
660.00	495.38
660.34	492.98
660.68	490.52
661.02	487.88
661.36	485.59
661.70	483.18
662.05	480.90
662.39	478.50
662.73	476.39
663.07	474.24
663.41	472.00
663.75	469.88
664.09	467.64
664.43	465.21
664.77	463.20
665.11	461.01
665.45	458.90
665.79	456.44
666.13	454.30
666.47	452.27
666.81	450.17
667.15	448.05
667.49	446.13
667.83	444.41
668.17	442.32
668.51	440.32
668.85	438.31
669.19	436.41
669.53	434.69
669.87	432.58
670.21	430.69
670.55	428.71
670.89	426.82
671.23	425.20
671.57	423.54
671.91	421.81
672.25	419.98
672.58	418.20
672.92	416.47
673.26	414.81
673.60	412.98
673.94	411.37
674.28	409.83
674.62	408.14
674.96	406.25
675.30	404.89
675.64	403.17
675.97	401.71
676.31	399.89
676.65	398.11
676.99	396.75
677.33	395.13
677.67	393.68
678.01	392.05
678.34	390.40
678.68	388.98
679.02	387.42
679.36	386.01
679.70	384.49
680.04	383.14
680.37	381.44
680.71	379.99
681.05	378.58
681.39	377.16
681.73	375.70
682.06	374.38
682.40	372.92
682.74	371.53
683.08	370.09
683.42	368.82
683.75	367.47
684.09	366.09
684.43	364.64
684.77	363.20
685.10	361.88
685.44	360.57
685.78	359.14
686.12	357.81
686.45	356.49
686.79	355.12
687.13	353.77
687.46	352.49
687.80	351.17
688.14	349.75
688.48	348.36
688.81	347.13
689.15	346.00
689.49	344.60
689.82	343.46
690.16	342.33
690.50	341.02
690.83	339.86
691.17	338.60
691.51	337.37
691.84	336.25
692.18	334.94
692.52	333.69
692.85	332.46
693.19	331.30
693.52	330.04
693.86	328.94
694.20	327.75
694.53	326.80
694.87	325.70
695.21	324.70
695.54	323.57
695.88	322.43
696.21	321.13
696.55	320.25
696.88	319.18
697.22	318.00
697.56	317.01
697.89	316.00
698.23	314.96
698.56	313.96
698.90	313.01
699.23	312.03
699.57	310.99
699.90	309.88
700.24	308.88
700.58	308.01
700.91	307.00
701.25	306.15
701.58	305.33
701.92	304.44
702.25	303.54
702.59	302.66
702.92	301.90
703.26	301.13
703.59	300.24
703.93	299.55
704.26	298.94
704.60	298.20
704.93	297.40
705.26	296.62
705.60	295.96
705.93	295.23
706.27	294.58
706.60	294.09
706.94	293.61
707.27	293.01
707.61	292.30
707.94	291.70
708.27	291.00
708.61	290.20
708.94	289.62
709.28	289.06
709.61	288.49
709.94	287.78
710.28	287.16
710.61	286.60
710.95	285.78
711.28	285.06
711.61	284.46
711.95	283.80
712.28	283.22
712.61	282.63
712.95	282.07
713.28	281.63
713.61	280.93
713.95	280.27
714.28	279.67
714.61	279.12
714.95	278.53
715.28	277.97
715.61	277.33
715.95	276.76
716.28	276.22
716.61	275.70
716.95	275.11
717.28	274.70
717.61	274.24
717.94	273.80
718.28	273.28
718.61	272.73
718.94	272.23
719.27	271.75
719.61	271.27
719.94	270.72
720.27	270.15
720.60	269.66
720.94	269.33
721.27	268.95
721.60	268.66
721.93	268.21
722.27	267.89
722.60	267.53
722.93	267.16
723.26	266.69
723.59	266.30
723.93	266.04
724.26	265.59
724.59	265.04
724.92	264.70
725.25	264.34
725.59	263.95
725.92	263.64
726.25	263.29
726.58	262.90
726.91	262.56
727.24	262.17
727.57	261.80
727.91	261.31
728.24	261.09
728.57	260.63
728.90	260.42
729.23	259.89
729.56	259.73
729.89	259.36
730.22	258.97
730.55	258.60
730.89	258.19
731.22	257.79
731.55	257.50
731.88	257.16
732.21	256.77
732.54	256.38
732.87	256.05
733.20	255.75
733.53	255.39
733.86	255.09
734.19	254.80
734.52	254.62
734.85	254.45
735.18	254.03
735.51	253.76
735.84	253.28
736.17	253.02
736.50	252.47
736.83	252.47
737.16	252.20
737.49	251.95
737.82	251.65
738.15	251.46
738.48	251.23
738.81	250.86
739.14	250.60
739.47	250.47
739.80	250.34
740.13	250.10
740.46	249.87
740.79	249.52
741.12	249.30
741.45	248.94
741.78	248.60
742.11	248.40
742.44	248.02
742.77	247.81
743.10	247.66
743.43	247.42
743.75	246.90
744.08	246.95
744.41	246.74
744.74	246.51
745.07	246.30
745.40	246.06
745.73	245.91
746.06	245.81
746.39	245.64
746.71	245.30
747.04	245.02
747.37	244.88
747.70	244.79
748.03	244.65
748.36	244.50
748.68	244.37
749.01	244.16
749.34	244.06
749.67	244.03
750.00	243.86
750.33	243.90
750.65	243.84
750.98	243.40
751.31	243.23
751.64	243.07
751.97	242.96
752.29	242.82
752.62	242.68
752.95	242.52
753.28	242.33
753.60	242.30
753.93	242.18
754.26	241.98
754.59	241.81
754.91	241.69
755.24	241.63
755.57	241.50
755.90	241.37
756.22	241.28
756.55	241.07
756.88	240.90
757.20	240.77
757.53	240.58
757.86	240.55
758.19	240.53
758.51	240.48
758.84	240.31
759.17	240.18
759.49	240.14
759.82	240.11
760.15	240.06
760.47	239.93
760.80	239.90
761.13	239.84
761.45	239.77
761.78	239.62
762.11	239.54
762.43	239.49
762.76	239.45
763.08	239.39
763.41	239.24
763.74	239.13
764.06	239.00
764.39	238.92
764.71	238.81
765.04	238.66
765.37	238.54
765.69	238.49
766.02	238.44
766.34	238.29
766.67	238.12
767.00	237.97
767.32	237.96
767.65	237.93
767.97	237.88
768.30	237.85
768.62	237.80
768.95	237.70
769.27	237.52
769.60	237.41
769.92	237.32
770.25	237.21
770.57	237.10
770.90	236.99
771.22	236.80
771.55	236.64
771.87	236.53
772.20	236.39
772.52	236.32
772.85	236.41
773.17	236.31
773.50	236.15
773.82	236.03
774.15	235.77
774.47	235.63
774.80	235.46
775.12	235.27
775.45	235.13
775.77	234.94
776.09	234.83
776.42	234.59
776.74	234.60
777.07	234.58
777.39	234.47
777.72	234.33
778.04	234.27
778.36	234.19
778.69	234.08
779.01	234.03
779.33	233.77
779.66	233.42
779.98	233.27
780.31	233.10
780.63	233.15
780.95	233.15
781.28	232.91
781.60	232.79
781.92	232.70
782.25	232.55
782.57	232.49
782.89	232.44
783.22	232.35
783.54	232.23
783.86	232.04
784.19	232.07
784.51	231.99
784.83	231.93
785.16	231.88
785.48	231.82
785.80	231.73
786.12	231.65
786.45	231.57
786.77	231.53
787.09	231.49
787.42	231.30
787.74	231.12
788.06	231.09
788.38	231.01
788.71	230.93
789.03	230.91
789.35	230.88
789.67	230.79
789.99	230.89
790.32	230.68
790.64	230.78
790.96	230.80
791.28	230.68
791.61	230.58
791.93	230.53
792.25	230.45
792.57	230.60
792.89	230.70
793.21	230.75
793.54	230.72
793.86	230.70
794.18	230.70
794.50	230.80
794.82	230.91
795.14	231.06
795.47	231.12
795.79	231.14
796.11	231.09
796.43	231.20
796.75	231.19
797.07	231.28
797.39	231.29
797.71	231.30
798.04	231.37
798.36	231.50
798.68	231.67
799.00	231.79
799.32	231.76
799.64	231.74
799.96	231.70
800.28	231.89
800.60	231.99
800.92	232.00
801.24	232.09
801.56	232.03
801.89	232.04
802.21	232.07
802.53	232.10
802.85	232.22
803.17	232.32
803.49	232.35
803.81	232.36
804.13	232.43
804.45	232.36
804.77	232.47
805.09	232.43
805.41	232.24
805.73	232.20
806.05	232.12
806.37	232.13
806.69	232.17
807.01	232.05
807.33	232.04
807.65	232.04
807.97	232.02
808.28	232.00
808.60	231.89
808.92	231.80
809.24	231.89
809.56	231.79
809.88	231.62
810.20	231.63
810.52	231.60
810.84	231.51
811.16	231.51
811.48	231.44
811.80	231.51
812.12	231.55
812.43	231.50
812.75	231.51
813.07	231.39
813.39	231.29
813.71	231.23
814.03	231.24
814.35	231.13
814.67	230.97
814.98	230.88
815.30	230.89
815.62	230.85
815.94	230.65
816.26	230.63
816.58	230.55
816.89	230.47
817.21	230.35
817.53	230.24
817.85	230.10
818.17	230.00
818.48	229.74
818.80	229.65
819.12	229.58
819.44	229.49
819.76	229.57
820.07	229.64
820.39	229.52
820.71	229.32
821.03	229.27
821.34	229.31
821.66	229.34
821.98	229.30
822.30	229.21
822.61	229.20
822.93	229.17
823.25	229.19
823.57	229.13
823.88	229.15
824.20	229.15
824.52	229.21
824.83	229.15
825.15	229.11
825.47	229.06
825.79	229.02
826.10	228.87
826.42	228.76
826.74	228.61
827.05	228.61
827.37	228.60
827.69	228.68
828.00	228.55
828.32	228.52
828.64	228.50
828.95	228.66
829.27	228.64
829.58	228.60
829.90	228.47
830.22	228.50
830.53	228.54
830.85	228.48
831.17	228.37
831.48	228.43
831.80	228.58
832.11	228.58
832.43	228.59
832.75	228.57
833.06	228.73
833.38	228.68
833.69	228.72
834.01	228.80
834.32	228.77
834.64	228.90
834.96	228.90
835.27	228.87
835.59	228.67
835.90	228.68
836.22	228.73
836.53	228.82
836.85	228.75
837.16	228.93
837.48	228.99
837.79	229.14
838.11	229.21
838.42	229.15
838.74	229.31
839.05	229.37
839.37	229.50
839.68	229.40
840.00	229.59
840.31	229.64
840.63	229.62
840.94	229.67
841.26	229.65
841.57	229.78
841.88	229.83
842.20	230.10
842.51	230.06
842.83	230.01
843.14	230.20
843.46	230.22
843.77	230.08
844.08	230.20
844.40	230.10
844.71	229.99
845.03	229.96
845.34	229.82
845.65	229.80
845.97	229.78
846.28	229.83
846.60	229.76
846.91	229.72
847.22	229.79
847.54	229.68
847.85	229.73
848.16	229.70
848.48	229.70
848.79	229.68
849.10	229.78
849.42	229.79
849.73	229.58
850.04	229.60
850.36	229.53
850.67	229.39
850.98	229.33
851.30	229.40
851.61	229.36
851.92	229.42
852.23	229.50
852.55	229.54
852.86	229.59
853.17	229.67
853.49	229.66
853.80	229.60
854.11	229.64
854.42	229.60
854.74	229.45
855.05	229.41
855.36	229.23
855.67	229.21
855.99	229.13
856.30	229.27
856.61	229.17
856.92	229.08
857.23	229.04
857.55	229.05
857.86	229.06
858.17	229.09
858.48	229.05
858.79	228.95
859.11	228.80
859.42	228.64
859.73	228.50
860.04	228.48
860.35	228.39
860.66	228.30
860.98	228.27
861.29	228.35
861.60	228.27
861.91	228.35
862.22	228.19
862.53	228.13
862.84	227.85
863.16	227.95
863.47	227.89
863.78	227.81
864.09	227.87
864.40	227.85
864.71	227.84
865.02	227.71
865.33	227.73
865.64	227.67
865.95	227.61
866.27	227.77
866.58	227.71
866.89	227.70
867.20	227.78
867.51	227.64
867.82	227.58
868.13	227.63
868.44	227.50
868.75	227.52
869.06	227.67
869.37	227.78
869.68	227.66
869.99	227.71
870.30	227.77
870.61	227.67
870.92	227.51
871.23	227.50
871.54	227.68
871.85	227.71
872.16	227.81
872.47	227.87
872.78	227.65
873.09	227.72
873.40	227.80
873.71	227.78
874.02	227.84
874.33	227.84
874.64	227.80
874.95	227.83
875.26	227.94
875.56	227.95
875.87	227.93
876.18	227.94
876.49	228.21
876.80	228.22
877.11	228.30
877.42	228.38
877.73	228.41
878.04	228.40
878.35	228.45
878.66	228.56
878.96	228.57
879.27	228.64
879.58	228.68
879.89	228.68
880.20	228.71
880.51	228.71
880.82	228.70
881.12	228.76
881.43	228.79
881.74	228.75
882.05	228.63
882.36	228.71
882.67	228.82
882.97	228.66
883.28	228.69
883.59	228.64
883.90	228.70
884.21	228.75
884.51	228.69
884.82	228.65
885.13	228.64
885.44	228.74
885.74	228.81
886.05	228.74
886.36	228.71
886.67	228.66
886.98	228.84
887.28	228.87
887.59	228.87
887.90	228.96
888.20	229.00
888.51	229.10
888.82	229.10
889.13	229.09
889.43	229.25
889.74	229.32
890.05	229.31
890.35	229.34
890.66	229.30
890.97	229.32
891.28	229.21
891.58	229.10
891.89	229.04
892.20	229.02
892.50	229.02
892.81	229.02
893.12	229.06
893.42	228.97
893.73	228.98
894.04	229.01
894.34	228.92
894.65	228.90
894.95	228.89
895.26	228.83
895.57	228.87
895.87	228.60
896.18	228.58
896.48	228.60
896.79	228.51
897.10	228.52
897.40	228.46
897.71	228.53
898.01	228.55
898.32	228.64
898.63	228.60
898.93	228.52
899.24	228.50
899.54	228.48
899.85	228.38
900.15	228.37
900.46	228.31
900.76	228.27
901.07	228.10
901.38	228.07
901.68	228.02
901.99	227.97
902.29	227.98
902.60	227.82
902.90	227.86
903.21	227.80
903.51	227.71
903.82	227.75
904.12	227.66
904.43	227.59
904.73	227.48
905.03	227.42
905.34	227.65
905.64	227.65
905.95	227.56
906.25	227.57
906.56	227.51
906.86	227.46
907.17	227.43
907.47	227.51
907.77	227.43
908.08	227.41
908.38	227.29
908.69	227.37
908.99	227.51
909.30	227.40
909.60	227.52
909.90	227.59
910.21	227.55
910.51	227.62
910.81	227.68
911.12	227.64
911.42	227.81
911.73	227.60
912.03	227.64
912.33	227.71
912.64	227.77
912.94	227.81
913.24	227.94
913.55	228.05
913.85	228.15
914.15	228.26
914.46	228.25
914.76	228.37
915.06	228.45
915.37	228.45
915.67	228.54
915.97	228.50
916.27	228.41
916.58	228.50
916.88	228.45
917.18	228.57
917.49	228.84
917.79	228.77
918.09	228.90
918.39	228.93
918.70	229.04
919.00	229.05
919.30	229.09
919.60	229.01
919.91	229.03
920.21	229.03
920.51	229.04
920.81	229.22
921.12	229.21
921.42	229.21
921.72	229.21
922.02	229.07
922.32	229.09
922.63	229.22
922.93	229.16
923.23	229.29
923.53	229.27
923.83	229.02
924.13	229.06
924.44	229.01
924.74	229.06
925.04	229.02
925.34	228.96
925.64	228.95
925.94	228.89
926.24	228.92
926.55	228.83
926.85	228.88
927.15	228.85
927.45	228.89
927.75	228.78
928.05	228.73
928.35	228.81
928.65	228.90
928.95	228.84
929.26	228.80
929.56	228.80
929.86	228.62
930.16	228.65
930.46	228.58
930.76	228.58
931.06	228.49
931.36	228.40
931.66	228.47
931.96	228.40
932.26	228.40
932.56	228.34
932.86	228.34
933.16	228.28
933.46	228.17
933.76	228.10
934.06	228.13
934.36	228.13
934.66	228.08
934.96	227.99
935.26	227.97
935.56	228.03
935.86	227.92
936.16	227.95
936.46	227.95
936.76	227.99
937.06	227.93
937.36	227.84
937.66	227.88
937.96	227.87
938.26	227.87
938.56	227.89
938.86	227.90
939.16	227.86
939.46	227.86
939.76	227.84
940.06	227.80
940.35	227.71
940.65	227.69
940.95	227.77
941.25	227.79
941.55	227.73
941.85	227.75
942.15	227.82
942.45	227.93
942.75	227.94
943.04	227.94
943.34	228.00
943.64	228.07
943.94	228.10
944.24	228.05
944.54	228.03
944.84	228.07
945.13	228.02
945.43	228.03
945.73	227.99
946.03	227.98
946.33	228.04
946.62	228.03
946.92	228.05
947.22	228.05
947.52	228.00
947.82	228.06
948.11	227.98
948.41	227.89
948.71	227.90
949.01	227.82
949.31	227.75
949.60	227.76
949.90	227.83
950.20	227.69
950.50	227.75
950.79	227.72
951.09	227.67
951.39	227.63
951.69	227.73
951.98	227.92
952.28	227.91
952.58	227.80
952.87	227.90
953.17	228.03
953.47	228.10
953.76	228.12
954.06	228.11
954.36	228.20
954.66	228.20
954.95	228.26
955.25	228.43
955.55	228.48
955.84	228.44
956.14	228.36
956.44	228.46
956.73	228.48
957.03	228.65
957.32	228.70
957.62	228.73
957.92	228.66
958.21	228.60
958.51	228.84
958.81	228.85
959.10	228.76
959.40	228.65
959.69	228.52
959.99	228.48
960.29	228.52
960.58	228.41
960.88	228.43
961.17	228.35
961.47	228.25
961.76	228.28
962.06	228.20
962.36	228.18
962.65	228.22
962.95	228.17
963.24	228.04
963.54	228.00
963.83	228.05
964.13	228.11
964.42	228.00
964.72	227.84
965.01	227.81
965.31	227.87
965.60	227.76
965.90	227.95
966.19	227.97
966.49	227.95
966.78	228.04
967.08	228.03
967.37	227.94
967.67	227.99
967.96	227.89
968.26	228.00
968.55	228.09
968.85	228.02
969.14	227.98
969.43	227.96
969.73	227.97
970.02	227.85
970.32	227.75
970.61	227.72
970.91	227.69
971.20	227.73
971.49	227.63
971.79	227.70
972.08	227.44
972.38	227.39
972.67	227.29
972.96	227.26
973.26	227.23
973.55	227.29
973.85	227.20
974.14	227.28
974.43	227.24
974.73	227.11
975.02	227.11
975.31	227.15
975.61	227.17
975.90	227.20
976.19	227.19
976.49	227.26
976.78	227.22
977.07	227.19
977.37	227.20
977.66	227.19
977.95	227.15
978.24	227.17
978.54	227.32
978.83	227.41
979.12	227.30
979.42	227.37
979.71	227.38
980.00	227.27
980.29	227.30
980.59	227.27
980.88	227.32
981.17	227.34
981.46	227.33
981.76	227.37
982.05	227.39
982.34	227.45
982.63	227.45
982.93	227.50
983.22	227.62
983.51	227.60
983.80	227.68
984.09	227.72
984.39	227.83
984.68	227.70
984.97	227.68
985.26	227.66
985.55	227.62
985.85	227.70
986.14	227.77
986.43	227.73
986.72	227.72
987.01	227.70
987.30	227.71
987.59	227.71
987.89	227.58
988.18	227.53
988.47	227.52
988.76	227.46
989.05	227.38
989.34	227.22
989.63	227.31
989.92	227.35
990.22	227.35
990.51	227.35
990.80	227.44
991.09	227.58
991.38	227.73
991.67	227.75
991.96	227.78
992.25	227.73
992.54	227.81
992.83	227.80
993.12	227.92
993.41	227.85
993.70	227.94
993.99	228.03
994.28	228.09
994.58	228.16
994.87	228.19
995.16	228.28
995.45	228.38
995.74	228.21
996.03	228.25
996.32	228.26
996.61	228.40
996.90	228.33
997.19	228.22
997.48	228.23
997.77	228.15
998.06	228.05
998.34	228.23
998.63	228.21
998.92	228.34
999.21	228.24
999.50	228.39
999.79	228.36
1000.08	228.47
1000.37	228.50
1000.66	228.39
1000.95	228.44
1001.24	228.50
1001.53	228.57
1001.82	228.72
1002.11	228.72
1002.40	228.75
1002.68	228.73
1002.97	228.88
1003.26	228.86
1003.55	228.85
1003.84	228.91
1004.13	228.97
1004.42	228.86
1004.71	228.79
1004.99	228.73
1005.28	228.83
1005.57	228.75
1005.86	228.62
1006.15	228.63
1006.44	228.56
1006.72	228.62
1007.01	228.63
1007.30	228.58
1007.59	228.50
1007.88	228.46
1008.17	228.45
1008.45	228.34
1008.74	228.13
1009.03	228.01
1009.32	227.95
1009.60	227.92
1009.89	227.91
1010.18	227.79
1010.47	227.72
1010.76	227.77
1011.04	227.73
1011.33	227.84
1011.62	227.85
1011.91	227.90
1012.19	227.87
1012.48	227.84
1012.77	227.82
1013.05	227.88
1013.34	227.83
1013.63	227.86
1013.92	227.89
1014.20	227.77
1014.49	227.88
1014.78	227.91
1015.06	227.95
1015.35	228.03
1015.64	228.09
1015.92	228.12
1016.21	228.19
1016.50	228.22
1016.78	228.16
1017.07	228.25
1017.36	228.13
1017.64	228.12
1017.93	228.24
1018.22	228.24
1018.50	228.32
1018.79	228.38
1019.08	228.27
1019.36	228.33
1019.65	228.30
1019.93	228.34
1020.22	228.44
1020.51	228.51
1020.79	228.50
1021.08	229.10
1021.36	229.10
1021.65	228.50
1021.94	227.80
1022.22	228.40
1022.51	227.80
1022.79	229.10
1023.08	228.20
1023.36	230.30
1023.65	226.60
>>>>>End Processed Spectral Data<<<<<
