SpectraSuite Data File
++++++++++++++++++++++++++++++++++++
Date: Fri Feb 01 14:37:15 EST 2013
User: group
Dark Spectrum Present: No
Reference Spectrum Present: No
Number of Sampled Component Spectra: 1
Spectrometers: USB2E7196
Integration Time (usec): 70000 (USB2E7196)
Spectra Averaged: 10 (USB2E7196)
Boxcar Smoothing: 10 (USB2E7196)
Correct for Electrical Dark: No (USB2E7196)
Strobe/Lamp Enabled: No (USB2E7196)
Correct for Detector Non-linearity: No (USB2E7196)
Correct for Stray Light: No (USB2E7196)
Number of Pixels in Processed Spectrum: 2048
>>>>>Begin Processed Spectral Data<<<<<
339.09	0.00
339.48	216.50
339.86	216.80
340.24	218.10
340.63	221.60
341.01	224.40
341.39	223.40
341.78	223.60
342.16	225.50
342.54	227.10
342.93	214.56
343.31	225.47
343.69	225.97
344.07	226.47
344.46	226.94
344.84	227.21
345.22	227.34
345.60	227.58
345.99	227.80
346.37	227.97
346.75	228.06
347.13	228.09
347.52	228.19
347.90	228.26
348.28	228.26
348.66	228.32
349.05	228.37
349.43	228.43
349.81	228.51
350.19	228.55
350.57	228.63
350.96	228.67
351.34	228.61
351.72	228.73
352.10	228.82
352.48	228.85
352.87	229.02
353.25	229.15
353.63	229.21
354.01	229.30
354.39	229.41
354.77	229.40
355.15	229.60
355.54	229.68
355.92	229.72
356.30	229.78
356.68	229.96
357.06	230.07
357.44	229.97
357.82	229.93
358.20	230.04
358.58	230.10
358.97	230.12
359.35	230.29
359.73	230.33
360.11	230.42
360.49	230.42
360.87	230.46
361.25	230.50
361.63	230.61
362.01	230.61
362.39	230.50
362.77	230.62
363.15	230.57
363.53	230.47
363.91	230.42
364.29	230.48
364.67	230.29
365.05	230.21
365.43	230.26
365.81	230.31
366.19	230.35
366.57	230.38
366.95	230.48
367.33	230.41
367.71	230.38
368.09	230.34
368.47	230.33
368.85	230.23
369.23	230.20
369.61	230.12
369.99	230.13
370.37	230.11
370.75	230.10
371.13	230.04
371.51	230.11
371.89	230.05
372.27	229.90
372.65	229.83
373.03	229.73
373.41	229.72
373.78	229.71
374.16	229.57
374.54	229.40
374.92	229.25
375.30	229.10
375.68	228.91
376.06	228.93
376.44	228.93
376.82	228.87
377.19	228.77
377.57	228.63
377.95	228.46
378.33	228.47
378.71	228.26
379.09	228.19
379.47	227.97
379.84	227.89
380.22	227.85
380.60	227.71
380.98	227.64
381.36	227.50
381.73	227.37
382.11	227.36
382.49	227.26
382.87	227.16
383.25	227.13
383.62	227.32
384.00	227.12
384.38	226.99
384.76	226.89
385.13	226.83
385.51	226.90
385.89	226.92
386.27	226.79
386.64	226.86
387.02	226.78
387.40	226.81
387.78	226.90
388.15	226.81
388.53	226.77
388.91	226.71
389.29	226.70
389.66	226.71
390.04	226.69
390.42	226.70
390.79	226.78
391.17	226.74
391.55	226.58
391.92	226.57
392.30	226.57
392.68	226.61
393.05	226.74
393.43	226.65
393.81	226.66
394.18	226.68
394.56	226.66
394.94	226.81
395.31	226.87
395.69	226.85
396.06	227.04
396.44	227.16
396.82	227.28
397.19	227.44
397.57	227.50
397.95	227.57
398.32	227.64
398.70	227.74
399.07	227.85
399.45	227.95
399.82	228.01
400.20	228.16
400.58	228.26
400.95	228.20
401.33	228.39
401.70	228.61
402.08	228.79
402.45	228.83
402.83	229.04
403.20	229.09
403.58	229.24
403.95	229.38
404.33	229.53
404.71	229.73
405.08	230.01
405.46	230.18
405.83	230.45
406.21	230.67
406.58	230.92
406.96	231.15
407.33	231.44
407.70	231.73
408.08	232.21
408.45	232.47
408.83	232.90
409.20	233.11
409.58	233.31
409.95	233.79
410.33	234.30
410.70	234.43
411.08	235.03
411.45	235.43
411.82	235.93
412.20	236.52
412.57	237.20
412.95	237.67
413.32	238.32
413.69	238.88
414.07	239.58
414.44	240.25
414.82	241.01
415.19	241.86
415.56	242.85
415.94	243.62
416.31	244.65
416.68	245.69
417.06	247.00
417.43	248.20
417.81	249.42
418.18	250.90
418.55	252.51
418.93	254.10
419.30	255.73
419.67	257.37
420.04	259.04
420.42	260.64
420.79	262.62
421.16	264.65
421.54	266.86
421.91	269.14
422.28	271.42
422.66	273.91
423.03	276.26
423.40	278.70
423.77	281.27
424.15	283.81
424.52	286.49
424.89	289.39
425.26	292.33
425.64	294.96
426.01	297.76
426.38	300.85
426.75	303.89
427.13	307.11
427.50	310.43
427.87	313.92
428.24	317.61
428.61	321.05
428.99	324.82
429.36	328.73
429.73	332.73
430.10	336.53
430.47	340.51
430.85	344.66
431.22	349.02
431.59	353.86
431.96	358.46
432.33	363.30
432.70	367.95
433.08	373.50
433.45	378.84
433.82	384.04
434.19	389.99
434.56	395.58
434.93	400.93
435.30	406.35
435.68	412.36
436.05	418.03
436.42	423.87
436.79	429.18
437.16	435.02
437.53	440.89
437.90	446.91
438.27	452.76
438.64	458.75
439.01	464.46
439.38	469.29
439.75	474.00
440.13	479.64
440.50	484.80
440.87	488.99
441.24	493.48
441.61	498.47
441.98	501.91
442.35	506.03
442.72	510.48
443.09	514.85
443.46	517.48
443.83	519.45
444.20	521.10
444.57	523.50
444.94	524.62
445.31	526.02
445.68	527.51
446.05	528.33
446.42	528.35
446.79	528.16
447.16	527.93
447.53	528.09
447.90	526.46
448.27	524.96
448.64	522.40
449.01	520.87
449.37	517.58
449.74	514.41
450.11	510.66
450.48	506.26
450.85	501.71
451.22	498.07
451.59	494.41
451.96	491.07
452.33	486.13
452.70	481.95
453.07	476.77
453.43	471.29
453.80	466.06
454.17	460.81
454.54	456.03
454.91	450.83
455.28	445.72
455.65	441.02
456.02	436.22
456.38	432.20
456.75	426.91
457.12	422.45
457.49	418.04
457.86	413.82
458.23	410.20
458.59	406.12
458.96	401.90
459.33	398.30
459.70	394.58
460.07	391.73
460.43	388.28
460.80	384.95
461.17	382.03
461.54	379.06
461.91	376.29
462.27	373.29
462.64	370.75
463.01	367.92
463.38	365.15
463.74	362.40
464.11	360.02
464.48	357.94
464.85	355.54
465.21	353.81
465.58	351.91
465.95	349.59
466.32	347.80
466.68	345.88
467.05	344.13
467.42	342.23
467.78	340.24
468.15	338.31
468.52	336.89
468.88	335.10
469.25	333.42
469.62	332.06
469.98	330.60
470.35	329.30
470.72	327.98
471.08	326.65
471.45	325.44
471.82	324.29
472.18	322.81
472.55	322.00
472.92	320.73
473.28	319.60
473.65	318.52
474.02	317.34
474.38	316.49
474.75	315.56
475.11	314.64
475.48	313.92
475.85	313.31
476.21	312.70
476.58	312.04
476.94	311.62
477.31	311.02
477.67	310.40
478.04	309.77
478.41	309.26
478.77	308.86
479.14	308.49
479.50	308.03
479.87	307.79
480.23	307.46
480.60	307.13
480.96	306.87
481.33	306.77
481.69	306.59
482.06	306.37
482.42	306.23
482.79	306.09
483.15	305.93
483.52	305.88
483.88	305.82
484.25	305.86
484.61	305.84
484.98	306.05
485.34	306.32
485.71	306.61
486.07	307.07
486.44	307.22
486.80	307.47
487.17	307.80
487.53	308.25
487.90	308.65
488.26	309.20
488.62	309.74
488.99	310.12
489.35	310.63
489.72	311.20
490.08	311.64
490.44	312.24
490.81	312.86
491.17	313.50
491.54	314.05
491.90	314.70
492.26	315.39
492.63	316.00
492.99	316.63
493.36	317.35
493.72	317.92
494.08	318.69
494.45	319.53
494.81	320.38
495.17	321.09
495.54	321.91
495.90	322.71
496.26	323.40
496.63	324.30
496.99	325.18
497.35	326.10
497.72	327.13
498.08	328.00
498.44	328.81
498.80	329.83
499.17	330.77
499.53	331.63
499.89	332.54
500.26	333.29
500.62	334.12
500.98	334.97
501.34	335.92
501.71	336.77
502.07	337.53
502.43	338.18
502.79	338.88
503.16	339.64
503.52	340.32
503.88	341.00
504.24	341.63
504.60	342.31
504.97	342.96
505.33	343.40
505.69	344.08
506.05	344.65
506.41	344.96
506.78	345.30
507.14	345.74
507.50	346.21
507.86	346.79
508.22	347.23
508.59	347.62
508.95	347.98
509.31	348.37
509.67	348.65
510.03	348.95
510.39	349.15
510.75	349.23
511.12	349.41
511.48	349.64
511.84	349.75
512.20	349.76
512.56	349.78
512.92	350.09
513.28	350.18
513.64	350.27
514.00	350.38
514.37	350.51
514.73	350.60
515.09	350.53
515.45	350.50
515.81	350.47
516.17	350.38
516.53	350.38
516.89	350.25
517.25	350.36
517.61	350.54
517.97	350.88
518.33	351.05
518.69	351.24
519.05	351.43
519.41	351.84
519.77	352.34
520.13	352.70
520.49	352.87
520.85	353.20
521.21	353.66
521.57	354.21
521.93	354.50
522.29	355.02
522.65	355.71
523.01	356.15
523.37	356.80
523.73	357.60
524.09	358.34
524.45	359.24
524.81	360.00
525.17	360.88
525.53	361.70
525.89	362.74
526.25	363.95
526.61	364.97
526.97	366.22
527.33	367.41
527.68	368.99
528.04	370.46
528.40	371.93
528.76	373.62
529.12	375.26
529.48	377.17
529.84	379.05
530.20	380.93
530.56	383.16
530.91	385.28
531.27	387.38
531.63	389.62
531.99	392.00
532.35	394.47
532.71	396.80
533.07	399.36
533.42	402.01
533.78	404.52
534.14	407.51
534.50	410.27
534.86	413.32
535.21	415.88
535.57	419.01
535.93	422.13
536.29	425.21
536.65	428.57
537.00	431.82
537.36	435.23
537.72	438.64
538.08	441.97
538.44	445.51
538.79	449.23
539.15	452.77
539.51	456.30
539.87	460.10
540.22	464.17
540.58	468.27
540.94	472.20
541.29	476.21
541.65	480.07
542.01	484.23
542.37	488.21
542.72	492.54
543.08	496.66
543.44	500.93
543.79	505.07
544.15	509.21
544.51	513.77
544.87	517.96
545.22	522.24
545.58	526.93
545.94	531.22
546.29	535.49
546.65	540.13
547.01	544.59
547.36	549.19
547.72	553.60
548.07	558.15
548.43	562.70
548.79	567.21
549.14	571.57
549.50	575.99
549.86	580.40
550.21	585.05
550.57	589.80
550.92	594.43
551.28	599.13
551.64	603.80
551.99	608.44
552.35	613.21
552.70	618.00
553.06	622.50
553.41	627.29
553.77	632.17
554.13	636.90
554.48	641.62
554.84	646.33
555.19	650.90
555.55	655.40
555.90	659.91
556.26	664.40
556.61	669.19
556.97	673.82
557.32	678.41
557.68	682.69
558.03	687.11
558.39	691.60
558.74	696.21
559.10	700.57
559.45	704.86
559.81	709.52
560.16	713.74
560.52	718.29
560.87	722.84
561.23	726.78
561.58	730.94
561.94	735.05
562.29	739.01
562.64	743.00
563.00	746.93
563.35	751.38
563.71	755.82
564.06	759.96
564.42	763.85
564.77	767.93
565.12	772.24
565.48	776.34
565.83	780.07
566.19	783.80
566.54	787.69
566.89	791.40
567.25	794.81
567.60	798.73
567.96	802.31
568.31	805.78
568.66	809.40
569.02	812.80
569.37	816.29
569.72	819.47
570.08	822.75
570.43	825.97
570.78	828.89
571.14	831.78
571.49	834.86
571.84	838.19
572.20	840.95
572.55	843.66
572.90	845.94
573.26	848.85
573.61	851.30
573.96	853.72
574.31	855.76
574.67	857.68
575.02	859.47
575.37	861.32
575.72	863.01
576.08	865.07
576.43	866.80
576.78	868.49
577.13	870.24
577.49	871.99
577.84	873.53
578.19	875.24
578.54	876.44
578.90	877.36
579.25	878.09
579.60	879.29
579.95	879.84
580.30	881.03
580.66	881.75
581.01	882.61
581.36	883.26
581.71	884.35
582.06	885.43
582.42	886.09
582.77	886.84
583.12	887.16
583.47	887.72
583.82	888.50
584.17	888.93
584.53	889.18
584.88	889.44
585.23	889.82
585.58	889.83
585.93	890.15
586.28	890.82
586.63	891.09
586.98	891.22
587.34	891.81
587.69	891.87
588.04	891.96
588.39	892.12
588.74	891.80
589.09	891.68
589.44	890.96
589.79	891.18
590.14	890.92
590.49	890.95
590.84	890.57
591.19	890.07
591.54	889.49
591.89	888.85
592.25	888.38
592.60	887.61
592.95	886.62
593.30	885.80
593.65	884.72
594.00	883.98
594.35	883.53
594.70	882.38
595.05	881.50
595.40	880.34
595.75	879.15
596.10	878.38
596.45	877.45
596.80	876.95
597.15	875.80
597.50	874.57
597.85	873.76
598.19	872.74
598.54	871.66
598.89	870.77
599.24	870.22
599.59	869.05
599.94	868.07
600.29	867.08
600.64	865.72
600.99	864.27
601.34	862.90
601.69	861.06
602.04	859.90
602.39	858.41
602.74	857.35
603.08	856.03
603.43	854.97
603.78	853.51
604.13	851.84
604.48	850.14
604.83	848.81
605.18	847.13
605.53	845.30
605.87	843.18
606.22	841.61
606.57	839.49
606.92	837.62
607.27	835.98
607.62	834.26
607.96	832.97
608.31	831.43
608.66	829.51
609.01	827.42
609.36	825.30
609.70	823.00
610.05	820.40
610.40	818.14
610.75	815.79
611.10	813.60
611.44	811.15
611.79	809.01
612.14	806.55
612.49	803.53
612.83	800.87
613.18	798.66
613.53	795.97
613.88	793.29
614.22	790.81
614.57	787.76
614.92	785.21
615.27	782.61
615.61	779.94
615.96	777.29
616.31	774.85
616.65	772.50
617.00	770.23
617.35	768.11
617.70	765.59
618.04	762.45
618.39	759.71
618.74	757.35
619.08	754.57
619.43	751.99
619.78	749.83
620.12	747.47
620.47	744.75
620.82	742.00
621.16	739.48
621.51	736.74
621.85	734.19
622.20	731.37
622.55	728.46
622.89	725.92
623.24	723.41
623.59	720.96
623.93	718.36
624.28	715.40
624.62	712.75
624.97	710.57
625.32	708.43
625.66	706.00
626.01	703.59
626.35	700.93
626.70	698.26
627.04	695.75
627.39	692.92
627.73	690.50
628.08	688.10
628.43	685.60
628.77	683.31
629.12	680.93
629.46	678.40
629.81	675.67
630.15	673.05
630.50	670.30
630.84	667.48
631.19	664.42
631.53	662.02
631.88	659.05
632.22	655.84
632.57	653.18
632.91	650.17
633.26	647.19
633.60	644.58
633.95	641.90
634.29	639.44
634.64	637.08
634.98	634.64
635.32	632.02
635.67	629.76
636.01	627.22
636.36	624.49
636.70	622.13
637.05	619.63
637.39	617.20
637.73	614.86
638.08	612.65
638.42	610.52
638.77	608.10
639.11	605.64
639.45	603.25
639.80	600.89
640.14	598.53
640.49	596.39
640.83	593.87
641.17	591.49
641.52	588.85
641.86	586.46
642.20	583.67
642.55	581.20
642.89	578.56
643.23	575.80
643.58	573.63
643.92	571.10
644.26	568.77
644.61	566.33
644.95	563.96
645.29	561.19
645.64	558.68
645.98	556.19
646.32	553.90
646.66	551.50
647.01	549.08
647.35	546.73
647.69	544.17
648.04	542.00
648.38	539.64
648.72	537.06
649.06	534.73
649.41	532.41
649.75	529.98
650.09	527.33
650.43	525.08
650.78	522.50
651.12	519.98
651.46	517.60
651.80	515.21
652.14	512.84
652.49	510.78
652.83	508.31
653.17	505.81
653.51	503.53
653.85	501.19
654.20	498.65
654.54	496.12
654.88	493.73
655.22	491.10
655.56	488.53
655.90	486.40
656.25	483.98
656.59	481.70
656.93	479.40
657.27	477.47
657.61	475.20
657.95	472.96
658.29	470.90
658.64	468.71
658.98	466.39
659.32	464.02
659.66	461.67
660.00	459.47
660.34	457.27
660.68	455.00
661.02	452.81
661.36	450.79
661.70	448.79
662.05	446.81
662.39	445.10
662.73	443.38
663.07	441.38
663.41	439.44
663.75	437.47
664.09	435.60
664.43	433.52
664.77	431.78
665.11	429.93
665.45	428.02
665.79	426.12
666.13	424.39
666.47	422.61
666.81	420.68
667.15	418.91
667.49	417.12
667.83	415.53
668.17	413.82
668.51	412.16
668.85	410.53
669.19	408.88
669.53	407.05
669.87	405.12
670.21	403.43
670.55	401.66
670.89	400.15
671.23	398.59
671.57	396.98
671.91	395.27
672.25	393.80
672.58	392.20
672.92	390.76
673.26	389.27
673.60	387.93
673.94	386.63
674.28	385.39
674.62	384.22
674.96	382.64
675.30	381.45
675.64	380.08
675.97	378.77
676.31	377.60
676.65	376.20
676.99	375.02
677.33	373.56
677.67	372.37
678.01	371.00
678.34	369.68
678.68	368.46
679.02	367.15
679.36	365.70
679.70	364.46
680.04	363.19
680.37	361.85
680.71	360.50
681.05	359.34
681.39	358.13
681.73	356.94
682.06	355.90
682.40	354.62
682.74	353.39
683.08	352.22
683.42	350.90
683.75	349.80
684.09	348.59
684.43	347.61
684.77	346.42
685.10	345.33
685.44	344.18
685.78	343.16
686.12	342.20
686.45	341.23
686.79	340.25
687.13	339.15
687.46	338.13
687.80	337.19
688.14	336.00
688.48	334.89
688.81	333.77
689.15	332.67
689.49	331.61
689.82	330.59
690.16	329.47
690.50	328.46
690.83	327.56
691.17	326.71
691.51	325.68
691.84	324.80
692.18	323.81
692.52	322.85
692.85	321.79
693.19	320.80
693.52	319.86
693.86	318.81
694.20	317.97
694.53	316.99
694.87	316.00
695.21	315.03
695.54	314.06
695.88	313.14
696.21	312.19
696.55	311.26
696.88	310.29
697.22	309.50
697.56	308.52
697.89	307.49
698.23	306.61
698.56	305.83
698.90	304.81
699.23	303.96
699.57	303.15
699.90	302.35
700.24	301.48
700.58	300.70
700.91	299.94
701.25	299.17
701.58	298.52
701.92	297.64
702.25	296.98
702.59	296.19
702.92	295.50
703.26	294.88
703.59	294.20
703.93	293.62
704.26	292.81
704.60	292.28
704.93	291.56
705.26	290.74
705.60	290.08
705.93	289.71
706.27	289.08
706.60	288.49
706.94	287.86
707.27	287.22
707.61	286.55
707.94	285.85
708.27	285.10
708.61	284.32
708.94	283.82
709.28	283.35
709.61	282.88
709.94	282.36
710.28	281.67
710.61	281.04
710.95	280.42
711.28	280.00
711.61	279.40
711.95	278.99
712.28	278.39
712.61	277.75
712.95	277.14
713.28	276.54
713.61	276.01
713.95	275.47
714.28	274.89
714.61	274.35
714.95	273.88
715.28	273.27
715.61	272.75
715.95	272.12
716.28	271.52
716.61	270.93
716.95	270.30
717.28	269.84
717.61	269.36
717.94	268.86
718.28	268.33
718.61	267.72
718.94	267.23
719.27	266.91
719.61	266.56
719.94	266.02
720.27	265.51
720.60	265.02
720.94	264.66
721.27	264.29
721.60	263.88
721.93	263.57
722.27	263.32
722.60	263.01
722.93	262.72
723.26	262.26
723.59	261.87
723.93	261.57
724.26	261.18
724.59	260.79
724.92	260.46
725.25	260.16
725.59	259.89
725.92	259.58
726.25	259.10
726.58	258.80
726.91	258.47
727.24	258.28
727.57	258.02
727.91	257.56
728.24	257.41
728.57	257.14
728.90	256.81
729.23	256.46
729.56	256.30
729.89	256.01
730.22	255.78
730.55	255.44
730.89	255.08
731.22	254.95
731.55	254.72
731.88	254.50
732.21	254.18
732.54	254.02
732.87	253.73
733.20	253.60
733.53	253.37
733.86	253.20
734.19	252.86
734.52	252.64
734.85	252.65
735.18	252.23
735.51	252.09
735.84	251.83
736.17	251.67
736.50	251.29
736.83	251.27
737.16	251.13
737.49	251.06
737.82	250.99
738.15	250.87
738.48	250.80
738.81	250.60
739.14	250.30
739.47	250.01
739.80	249.87
740.13	249.63
740.46	249.40
740.79	249.18
741.12	249.11
741.45	248.91
741.78	248.62
742.11	248.57
742.44	248.35
742.77	248.17
743.10	247.96
743.43	247.87
743.75	247.54
744.08	247.63
744.41	247.39
744.74	247.13
745.07	246.88
745.40	246.49
745.73	246.44
746.06	246.33
746.39	246.19
746.71	245.97
747.04	245.80
747.37	245.68
747.70	245.52
748.03	245.22
748.36	244.98
748.68	244.84
749.01	244.67
749.34	244.51
749.67	244.35
750.00	244.20
750.33	244.02
750.65	243.85
750.98	243.35
751.31	243.17
751.64	243.03
751.97	242.89
752.29	242.93
752.62	242.57
752.95	242.46
753.28	242.20
753.60	242.00
753.93	241.83
754.26	241.51
754.59	241.26
754.91	241.12
755.24	240.98
755.57	240.76
755.90	240.50
756.22	240.20
756.55	240.08
756.88	239.87
757.20	239.61
757.53	239.39
757.86	239.24
758.19	239.12
758.51	238.94
758.84	238.65
759.17	238.35
759.49	238.23
759.82	238.10
760.15	238.09
760.47	237.88
760.80	237.70
761.13	237.67
761.45	237.61
761.78	237.55
762.11	237.50
762.43	237.36
762.76	237.24
763.08	237.24
763.41	237.10
763.74	237.04
764.06	236.82
764.39	236.68
764.71	236.50
765.04	236.46
765.37	236.29
765.69	236.24
766.02	236.24
766.34	236.09
766.67	235.99
767.00	235.88
767.32	235.92
767.65	235.91
767.97	235.74
768.30	235.63
768.62	235.50
768.95	235.32
769.27	235.28
769.60	235.29
769.92	235.10
770.25	234.98
770.57	234.88
770.90	234.90
771.22	234.86
771.55	234.95
771.87	234.81
772.20	234.80
772.52	234.93
772.85	234.97
773.17	234.89
773.50	234.82
773.82	234.75
774.15	234.79
774.47	234.67
774.80	234.74
775.12	234.75
775.45	234.81
775.77	234.84
776.09	234.79
776.42	234.73
776.74	234.82
777.07	234.80
777.39	234.78
777.72	234.83
778.04	234.79
778.36	234.70
778.69	234.80
779.01	234.80
779.33	234.54
779.66	234.37
779.98	234.35
780.31	234.42
780.63	234.50
780.95	234.35
781.28	234.27
781.60	234.20
781.92	234.14
782.25	234.06
782.57	234.01
782.89	233.93
783.22	233.90
783.54	233.78
783.86	233.79
784.19	233.74
784.51	233.74
784.83	233.77
785.16	233.72
785.48	233.62
785.80	233.58
786.12	233.60
786.45	233.55
786.77	233.67
787.09	233.55
787.42	233.45
787.74	233.50
788.06	233.56
788.38	233.41
788.71	233.32
789.03	233.20
789.35	233.25
789.67	233.20
789.99	233.13
790.32	233.15
790.64	233.10
790.96	233.25
791.28	233.12
791.61	233.00
791.93	232.89
792.25	232.80
792.57	232.91
792.89	232.77
793.21	232.79
793.54	232.67
793.86	232.60
794.18	232.51
794.50	232.43
794.82	232.32
795.14	232.28
795.47	232.21
795.79	232.26
796.11	232.10
796.43	232.12
796.75	232.09
797.07	231.97
797.39	231.89
797.71	231.69
798.04	231.61
798.36	231.57
798.68	231.48
799.00	231.48
799.32	231.20
799.64	231.20
799.96	231.06
800.28	230.97
800.60	230.90
800.92	230.89
801.24	230.77
801.56	230.72
801.89	230.70
802.21	230.59
802.53	230.54
802.85	230.52
803.17	230.55
803.49	230.39
803.81	230.35
804.13	230.27
804.45	230.18
804.77	230.17
805.09	230.17
805.41	230.15
805.73	230.11
806.05	230.09
806.37	229.99
806.69	229.86
807.01	229.86
807.33	229.77
807.65	229.61
807.97	229.60
808.28	229.55
808.60	229.56
808.92	229.66
809.24	229.65
809.56	229.58
809.88	229.45
810.20	229.48
810.52	229.50
810.84	229.49
811.16	229.38
811.48	229.24
811.80	229.28
812.12	229.32
812.43	229.38
812.75	229.39
813.07	229.44
813.39	229.64
813.71	229.65
814.03	229.64
814.35	229.66
814.67	229.67
814.98	229.63
815.30	229.64
815.62	229.57
815.94	229.47
816.26	229.54
816.58	229.57
816.89	229.73
817.21	229.67
817.53	229.86
817.85	230.05
818.17	230.20
818.48	230.14
818.80	230.18
819.12	230.13
819.44	230.20
819.76	230.29
820.07	230.21
820.39	230.17
820.71	230.32
821.03	230.40
821.34	230.30
821.66	230.47
821.98	230.55
822.30	230.57
822.61	230.74
822.93	230.68
823.25	230.69
823.57	230.63
823.88	230.72
824.20	230.60
824.52	230.66
824.83	230.69
825.15	230.72
825.47	230.76
825.79	230.82
826.10	230.79
826.42	230.68
826.74	230.71
827.05	230.70
827.37	230.63
827.69	230.68
828.00	230.76
828.32	230.65
828.64	230.58
828.95	230.67
829.27	230.60
829.58	230.66
829.90	230.59
830.22	230.52
830.53	230.43
830.85	230.31
831.17	230.16
831.48	230.05
831.80	229.95
832.11	229.80
832.43	229.64
832.75	229.67
833.06	229.67
833.38	229.64
833.69	229.66
834.01	229.58
834.32	229.40
834.64	229.34
834.96	229.36
835.27	229.33
835.59	229.26
835.90	229.10
836.22	229.00
836.53	228.93
836.85	228.85
837.16	229.05
837.48	229.06
837.79	229.06
838.11	229.04
838.42	228.98
838.74	228.99
839.05	228.90
839.37	228.80
839.68	228.69
840.00	228.67
840.31	228.56
840.63	228.58
840.94	228.60
841.26	228.57
841.57	228.50
841.88	228.50
842.20	228.40
842.51	228.38
842.83	228.30
843.14	228.50
843.46	228.49
843.77	228.33
844.08	228.30
844.40	228.20
844.71	228.21
845.03	228.21
845.34	228.14
845.65	228.16
845.97	228.12
846.28	228.10
846.60	228.11
846.91	228.16
847.22	228.11
847.54	228.09
847.85	228.14
848.16	228.11
848.48	227.98
848.79	228.09
849.10	228.10
849.42	228.14
849.73	228.03
850.04	228.16
850.36	228.06
850.67	228.10
850.98	228.12
851.30	228.20
851.61	228.20
851.92	228.35
852.23	228.47
852.55	228.50
852.86	228.66
853.17	228.61
853.49	228.68
853.80	228.80
854.11	228.92
854.42	228.92
854.74	228.98
855.05	229.11
855.36	229.09
855.67	229.11
855.99	229.18
856.30	229.47
856.61	229.40
856.92	229.50
857.23	229.60
857.55	229.62
857.86	229.65
858.17	229.75
858.48	229.72
858.79	229.77
859.11	229.84
859.42	229.79
859.73	229.89
860.04	229.86
860.35	229.76
860.66	229.71
860.98	229.76
861.29	229.86
861.60	229.90
861.91	229.90
862.22	229.92
862.53	229.95
862.84	229.66
863.16	229.60
863.47	229.47
863.78	229.46
864.09	229.54
864.40	229.53
864.71	229.51
865.02	229.56
865.33	229.47
865.64	229.43
865.95	229.47
866.27	229.56
866.58	229.55
866.89	229.55
867.20	229.42
867.51	229.40
867.82	229.36
868.13	229.35
868.44	229.33
868.75	229.31
869.06	229.28
869.37	229.19
869.68	229.20
869.99	229.28
870.30	229.20
870.61	229.15
870.92	229.02
871.23	229.01
871.54	228.96
871.85	228.91
872.16	228.86
872.47	228.80
872.78	228.58
873.09	228.57
873.40	228.60
873.71	228.62
874.02	228.51
874.33	228.43
874.64	228.26
874.95	228.22
875.26	228.13
875.56	228.04
875.87	228.16
876.18	228.13
876.49	228.34
876.80	228.34
877.11	228.11
877.42	228.12
877.73	228.09
878.04	227.92
878.35	227.92
878.66	227.97
878.96	227.88
879.27	227.85
879.58	227.79
879.89	227.49
880.20	227.54
880.51	227.56
880.82	227.53
881.12	227.64
881.43	227.63
881.74	227.66
882.05	227.62
882.36	227.50
882.67	227.42
882.97	227.09
883.28	227.00
883.59	227.09
883.90	227.12
884.21	227.08
884.51	227.13
884.82	227.14
885.13	227.09
885.44	227.16
885.74	227.16
886.05	227.27
886.36	227.43
886.67	227.43
886.98	227.49
887.28	227.50
887.59	227.53
887.90	227.47
888.20	227.49
888.51	227.53
888.82	227.50
889.13	227.51
889.43	227.73
889.74	227.84
890.05	227.84
890.35	227.81
890.66	227.78
890.97	227.80
891.28	227.80
891.58	227.81
891.89	227.88
892.20	227.91
892.50	227.83
892.81	227.91
893.12	227.97
893.42	227.96
893.73	227.93
894.04	227.92
894.34	227.92
894.65	227.94
894.95	227.87
895.26	227.93
895.57	228.12
895.87	227.90
896.18	227.86
896.48	227.92
896.79	227.94
897.10	228.08
897.40	228.14
897.71	228.11
898.01	228.18
898.32	228.21
898.63	228.21
898.93	228.36
899.24	228.40
899.54	228.32
899.85	228.40
900.15	228.60
900.46	228.64
900.76	228.74
901.07	228.81
901.38	228.83
901.68	228.95
901.99	228.86
902.29	228.92
902.60	229.00
902.90	228.99
903.21	228.96
903.51	228.98
903.82	229.02
904.12	229.07
904.43	229.07
904.73	229.02
905.03	229.15
905.34	229.28
905.64	229.23
905.95	229.20
906.25	229.20
906.56	229.03
906.86	228.97
907.17	229.00
907.47	228.98
907.77	229.11
908.08	229.00
908.38	229.04
908.69	229.09
908.99	229.14
909.30	229.11
909.60	229.10
909.90	229.10
910.21	229.06
910.51	229.05
910.81	229.06
911.12	229.00
911.42	228.86
911.73	228.65
912.03	228.71
912.33	228.79
912.64	228.70
912.94	228.67
913.24	228.65
913.55	228.63
913.85	228.52
914.15	228.50
914.46	228.42
914.76	228.35
915.06	228.32
915.37	228.20
915.67	228.25
915.97	228.20
916.27	228.06
916.58	227.91
916.88	227.87
917.18	227.74
917.49	227.89
917.79	227.96
918.09	228.01
918.39	227.99
918.70	228.07
919.00	228.10
919.30	228.20
919.60	228.20
919.91	228.18
920.21	228.17
920.51	228.11
920.81	228.17
921.12	228.13
921.42	228.05
921.72	228.00
922.02	228.03
922.32	228.07
922.63	228.12
922.93	228.34
923.23	228.37
923.53	228.41
923.83	228.23
924.13	228.20
924.44	228.13
924.74	228.20
925.04	228.14
925.34	228.05
925.64	227.95
925.94	227.99
926.24	227.99
926.55	228.01
926.85	227.99
927.15	228.07
927.45	228.16
927.75	228.20
928.05	228.32
928.35	228.22
928.65	228.32
928.95	228.37
929.26	228.30
929.56	228.29
929.86	228.29
930.16	228.37
930.46	228.36
930.76	228.39
931.06	228.34
931.36	228.31
931.66	228.40
931.96	228.51
932.26	228.53
932.56	228.57
932.86	228.66
933.16	228.77
933.46	228.72
933.76	228.70
934.06	228.71
934.36	228.67
934.66	228.81
934.96	228.76
935.26	228.71
935.56	228.69
935.86	228.71
936.16	228.80
936.46	228.86
936.76	228.80
937.06	228.76
937.36	228.81
937.66	228.80
937.96	228.80
938.26	228.80
938.56	228.81
938.86	228.83
939.16	228.85
939.46	228.82
939.76	228.84
940.06	228.86
940.35	228.92
940.65	228.89
940.95	228.85
941.25	228.88
941.55	228.91
941.85	228.92
942.15	228.96
942.45	228.92
942.75	228.78
943.04	228.85
943.34	228.93
943.64	228.81
943.94	228.75
944.24	228.78
944.54	228.63
944.84	228.61
945.13	228.58
945.43	228.52
945.73	228.60
946.03	228.51
946.33	228.40
946.62	228.35
946.92	228.40
947.22	228.34
947.52	228.31
947.82	228.20
948.11	228.22
948.41	228.07
948.71	228.11
949.01	228.17
949.31	228.14
949.60	228.00
949.90	228.08
950.20	228.14
950.50	228.14
950.79	228.12
951.09	228.06
951.39	227.95
951.69	227.90
951.98	227.87
952.28	227.84
952.58	227.85
952.87	227.83
953.17	227.79
953.47	227.76
953.76	227.66
954.06	227.65
954.36	227.60
954.66	227.61
954.95	227.57
955.25	227.51
955.55	227.59
955.84	227.60
956.14	227.53
956.44	227.45
956.73	227.29
957.03	227.35
957.32	227.30
957.62	227.36
957.92	227.40
958.21	227.30
958.51	227.53
958.81	227.57
959.10	227.45
959.40	227.56
959.69	227.58
959.99	227.60
960.29	227.59
960.58	227.50
960.88	227.61
961.17	227.65
961.47	227.68
961.76	227.56
962.06	227.48
962.36	227.42
962.65	227.49
962.95	227.48
963.24	227.39
963.54	227.42
963.83	227.27
964.13	227.19
964.42	227.07
964.72	227.03
965.01	227.14
965.31	227.26
965.60	227.14
965.90	227.18
966.19	227.20
966.49	227.29
966.78	227.34
967.08	227.23
967.37	227.12
967.67	227.13
967.96	227.15
968.26	227.32
968.55	227.43
968.85	227.41
969.14	227.50
969.43	227.64
969.73	227.70
970.02	227.78
970.32	227.86
970.61	227.96
970.91	227.89
971.20	227.75
971.49	227.80
971.79	227.80
972.08	227.70
972.38	227.74
972.67	227.74
972.96	227.82
973.26	227.75
973.55	227.86
973.85	227.89
974.14	227.94
974.43	227.87
974.73	227.80
975.02	227.86
975.31	227.93
975.61	227.87
975.90	227.83
976.19	227.93
976.49	228.04
976.78	228.01
977.07	227.98
977.37	228.04
977.66	228.02
977.95	228.09
978.24	228.15
978.54	228.17
978.83	228.11
979.12	228.20
979.42	228.27
979.71	228.26
980.00	228.23
980.29	228.22
980.59	228.29
980.88	228.39
981.17	228.43
981.46	228.41
981.76	228.48
982.05	228.43
982.34	228.44
982.63	228.40
982.93	228.42
983.22	228.51
983.51	228.56
983.80	228.59
984.09	228.61
984.39	228.52
984.68	228.60
984.97	228.63
985.26	228.56
985.55	228.77
985.85	228.76
986.14	228.80
986.43	228.90
986.72	228.80
987.01	228.67
987.30	228.62
987.59	228.60
987.89	228.58
988.18	228.66
988.47	228.59
988.76	228.63
989.05	228.62
989.34	228.55
989.63	228.53
989.92	228.40
990.22	228.40
990.51	228.42
990.80	228.32
991.09	228.24
991.38	228.17
991.67	228.00
991.96	227.93
992.25	227.90
992.54	227.80
992.83	227.81
993.12	227.78
993.41	227.82
993.70	227.91
993.99	227.91
994.28	227.88
994.58	227.92
994.87	227.79
995.16	227.76
995.45	227.73
995.74	227.65
996.03	227.70
996.32	227.73
996.61	227.83
996.90	227.89
997.19	227.91
997.48	228.03
997.77	227.98
998.06	228.00
998.34	227.97
998.63	227.96
998.92	227.94
999.21	227.97
999.50	227.87
999.79	227.75
1000.08	227.67
1000.37	227.71
1000.66	227.67
1000.95	227.74
1001.24	227.71
1001.53	227.71
1001.82	227.85
1002.11	227.89
1002.40	227.77
1002.68	227.79
1002.97	227.84
1003.26	228.00
1003.55	227.76
1003.84	227.81
1004.13	227.79
1004.42	227.84
1004.71	227.80
1004.99	227.87
1005.28	228.00
1005.57	228.01
1005.86	227.92
1006.15	227.91
1006.44	227.92
1006.72	228.03
1007.01	227.93
1007.30	227.99
1007.59	227.98
1007.88	227.90
1008.17	227.91
1008.45	228.10
1008.74	227.99
1009.03	227.99
1009.32	227.91
1009.60	227.98
1009.89	228.08
1010.18	228.08
1010.47	228.03
1010.76	227.99
1011.04	227.98
1011.33	228.02
1011.62	228.01
1011.91	228.15
1012.19	228.20
1012.48	228.12
1012.77	228.02
1013.05	228.06
1013.34	228.02
1013.63	228.13
1013.92	228.13
1014.20	228.14
1014.49	228.02
1014.78	228.05
1015.06	227.98
1015.35	227.92
1015.64	228.06
1015.92	228.02
1016.21	228.09
1016.50	228.09
1016.78	228.15
1017.07	228.12
1017.36	228.02
1017.64	228.08
1017.93	228.08
1018.22	228.09
1018.50	228.13
1018.79	228.15
1019.08	228.20
1019.36	228.36
1019.65	228.25
1019.93	228.23
1020.22	228.24
1020.51	228.26
1020.79	228.36
1021.08	227.10
1021.36	228.60
1021.65	228.20
1021.94	228.60
1022.22	230.20
1022.51	227.30
1022.79	228.00
1023.08	228.50
1023.36	228.90
1023.65	229.40
>>>>>End Processed Spectral Data<<<<<
