SpectraSuite Data File
++++++++++++++++++++++++++++++++++++
Date: Fri Feb 01 14:41:34 EST 2013
User: group
Dark Spectrum Present: No
Reference Spectrum Present: No
Number of Sampled Component Spectra: 1
Spectrometers: USB2E7196
Integration Time (usec): 70000 (USB2E7196)
Spectra Averaged: 10 (USB2E7196)
Boxcar Smoothing: 10 (USB2E7196)
Correct for Electrical Dark: No (USB2E7196)
Strobe/Lamp Enabled: No (USB2E7196)
Correct for Detector Non-linearity: No (USB2E7196)
Correct for Stray Light: No (USB2E7196)
Number of Pixels in Processed Spectrum: 2048
>>>>>Begin Processed Spectral Data<<<<<
339.09	0.00
339.48	215.80
339.86	218.70
340.24	218.60
340.63	220.70
341.01	225.10
341.39	224.30
341.78	225.30
342.16	226.70
342.54	227.00
342.93	214.91
343.31	225.73
343.69	226.30
344.07	226.70
344.46	227.16
344.84	227.55
345.22	227.70
345.60	227.90
345.99	228.03
346.37	228.18
346.75	228.27
347.13	228.27
347.52	228.24
347.90	228.38
348.28	228.49
348.66	228.51
349.05	228.53
349.43	228.60
349.81	228.75
350.19	228.80
350.57	228.76
350.96	228.92
351.34	229.09
351.72	229.18
352.10	229.24
352.48	229.29
352.87	229.31
353.25	229.35
353.63	229.44
354.01	229.60
354.39	229.71
354.77	229.66
355.15	229.71
355.54	229.88
355.92	229.88
356.30	229.87
356.68	230.13
357.06	230.22
357.44	230.27
357.82	230.33
358.20	230.41
358.58	230.46
358.97	230.53
359.35	230.57
359.73	230.68
360.11	230.78
360.49	230.84
360.87	230.91
361.25	231.07
361.63	231.13
362.01	231.14
362.39	231.18
362.77	231.37
363.15	231.46
363.53	231.50
363.91	231.56
364.29	231.67
364.67	231.56
365.05	231.53
365.43	231.56
365.81	231.48
366.19	231.61
366.57	231.69
366.95	231.62
367.33	231.62
367.71	231.56
368.09	231.52
368.47	231.48
368.85	231.35
369.23	231.31
369.61	231.22
369.99	231.17
370.37	231.07
370.75	231.07
371.13	230.93
371.51	230.84
371.89	230.75
372.27	230.58
372.65	230.44
373.03	230.40
373.41	230.33
373.78	230.38
374.16	230.17
374.54	230.07
374.92	229.99
375.30	229.82
375.68	229.66
376.06	229.68
376.44	229.56
376.82	229.49
377.19	229.37
377.57	229.33
377.95	229.11
378.33	229.05
378.71	228.85
379.09	228.86
379.47	228.78
379.84	228.58
380.22	228.46
380.60	228.39
380.98	228.30
381.36	228.27
381.73	228.04
382.11	228.00
382.49	227.80
382.87	227.61
383.25	227.54
383.62	227.74
384.00	227.65
384.38	227.73
384.76	227.90
385.13	227.93
385.51	227.86
385.89	227.91
386.27	227.79
386.64	227.80
387.02	227.69
387.40	227.61
387.78	227.64
388.15	227.68
388.53	227.71
388.91	227.75
389.29	227.64
389.66	227.71
390.04	227.66
390.42	227.89
390.79	227.97
391.17	228.02
391.55	227.83
391.92	227.73
392.30	227.62
392.68	227.46
393.05	227.43
393.43	227.38
393.81	227.40
394.18	227.39
394.56	227.40
394.94	227.48
395.31	227.54
395.69	227.75
396.06	227.93
396.44	228.01
396.82	227.98
397.19	228.12
397.57	228.19
397.95	228.33
398.32	228.26
398.70	228.42
399.07	228.59
399.45	228.69
399.82	228.92
400.20	229.11
400.58	229.31
400.95	229.44
401.33	229.62
401.70	229.91
402.08	230.14
402.45	230.39
402.83	230.59
403.20	230.73
403.58	230.85
403.95	230.97
404.33	231.04
404.71	231.32
405.08	231.55
405.46	231.76
405.83	231.89
406.21	232.12
406.58	232.36
406.96	232.51
407.33	232.75
407.70	232.98
408.08	233.34
408.45	233.75
408.83	233.96
409.20	234.30
409.58	234.50
409.95	234.84
410.33	235.06
410.70	235.35
411.08	235.76
411.45	236.16
411.82	236.62
412.20	237.10
412.57	237.61
412.95	238.01
413.32	238.51
413.69	239.02
414.07	239.60
414.44	240.08
414.82	240.69
415.19	241.40
415.56	242.07
415.94	242.61
416.31	243.33
416.68	244.11
417.06	244.96
417.43	245.89
417.81	246.92
418.18	247.93
418.55	249.01
418.93	250.10
419.30	251.20
419.67	252.32
420.04	253.67
420.42	254.84
420.79	256.38
421.16	257.91
421.54	259.61
421.91	261.06
422.28	262.72
422.66	264.43
423.03	266.12
423.40	267.84
423.77	269.70
424.15	271.43
424.52	273.44
424.89	275.61
425.26	277.53
425.64	279.35
426.01	281.47
426.38	283.53
426.75	285.76
427.13	287.92
427.50	290.20
427.87	292.43
428.24	294.90
428.61	297.08
428.99	299.61
429.36	302.23
429.73	305.04
430.10	307.66
430.47	310.35
430.85	313.04
431.22	315.98
431.59	319.10
431.96	322.15
432.33	325.29
432.70	328.46
433.08	332.17
433.45	335.62
433.82	338.99
434.19	342.87
434.56	346.51
434.93	350.13
435.30	353.61
435.68	357.53
436.05	361.24
436.42	364.90
436.79	368.04
437.16	371.48
437.53	375.24
437.90	379.08
438.27	382.70
438.64	386.50
439.01	389.80
439.38	392.88
439.75	395.73
440.13	398.98
440.50	401.87
440.87	404.14
441.24	406.68
441.61	409.46
441.98	411.46
442.35	413.55
442.72	415.88
443.09	418.33
443.46	419.57
443.83	420.44
444.20	421.15
444.57	422.37
444.94	422.82
445.31	423.09
445.68	423.54
446.05	423.55
446.42	422.96
446.79	422.46
447.16	421.70
447.53	421.28
447.90	419.80
448.27	418.39
448.64	416.32
449.01	414.71
449.37	412.10
449.74	409.57
450.11	406.83
450.48	403.52
450.85	400.02
451.22	397.19
451.59	394.46
451.96	391.83
452.33	388.43
452.70	385.23
453.07	381.40
453.43	377.58
453.80	373.95
454.17	370.43
454.54	367.08
454.91	363.54
455.28	359.97
455.65	356.64
456.02	353.44
456.38	350.62
456.75	347.20
457.12	344.25
457.49	341.25
457.86	338.36
458.23	335.92
458.59	333.29
458.96	330.49
459.33	327.94
459.70	325.42
460.07	323.32
460.43	321.15
460.80	319.18
461.17	317.30
461.54	315.39
461.91	313.56
462.27	311.71
462.64	310.00
463.01	308.14
463.38	306.41
463.74	304.55
464.11	302.99
464.48	301.69
464.85	300.21
465.21	299.06
465.58	297.83
465.95	296.43
466.32	295.16
466.68	293.81
467.05	292.63
467.42	291.39
467.78	290.08
468.15	288.92
468.52	287.99
468.88	286.55
469.25	285.41
469.62	284.52
469.98	283.55
470.35	282.73
470.72	281.86
471.08	280.98
471.45	280.07
471.82	279.30
472.18	278.34
472.55	277.75
472.92	276.92
473.28	276.13
473.65	275.38
474.02	274.74
474.38	274.43
474.75	273.89
475.11	273.37
475.48	273.06
475.85	272.65
476.21	272.08
476.58	271.75
476.94	271.40
477.31	271.03
477.67	270.61
478.04	270.30
478.41	270.19
478.77	270.11
479.14	270.00
479.50	269.91
479.87	269.80
480.23	269.70
480.60	269.71
480.96	269.79
481.33	269.94
481.69	270.10
482.06	270.17
482.42	270.30
482.79	270.45
483.15	270.55
483.52	270.75
483.88	271.03
484.25	271.37
484.61	271.75
484.98	272.07
485.34	272.60
485.71	273.14
486.07	273.61
486.44	274.00
486.80	274.47
487.17	275.07
487.53	275.85
487.90	276.66
488.26	277.60
488.62	278.43
488.99	279.20
489.35	280.06
489.72	281.16
490.08	282.41
490.44	283.60
490.81	284.95
491.17	286.26
491.54	287.80
491.90	289.25
492.26	290.81
492.63	292.48
492.99	294.20
493.36	295.92
493.72	297.96
494.08	300.00
494.45	302.38
494.81	304.77
495.17	307.21
495.54	309.76
495.90	312.45
496.26	315.50
496.63	318.70
496.99	321.94
497.35	325.10
497.72	328.48
498.08	332.17
498.44	336.04
498.80	340.19
499.17	344.33
499.53	348.73
499.89	353.34
500.26	358.26
500.62	363.08
500.98	368.31
501.34	373.68
501.71	379.48
502.07	385.16
502.43	391.13
502.79	397.34
503.16	403.90
503.52	410.53
503.88	417.34
504.24	424.50
504.60	432.00
504.97	439.68
505.33	447.59
505.69	455.91
506.05	464.43
506.41	473.08
506.78	482.05
507.14	491.41
507.50	501.10
507.86	511.00
508.22	521.48
508.59	531.83
508.95	542.58
509.31	553.64
509.67	565.19
510.03	576.90
510.39	588.91
510.75	601.06
511.12	613.64
511.48	626.57
511.84	639.66
512.20	652.98
512.56	666.92
512.92	680.95
513.28	695.40
513.64	710.01
514.00	724.62
514.37	739.78
514.73	755.16
515.09	770.33
515.45	786.10
515.81	802.07
516.17	818.72
516.53	835.62
516.89	852.57
517.25	869.58
517.61	886.94
517.97	904.14
518.33	921.86
518.69	939.58
519.05	957.58
519.41	975.94
519.77	994.86
520.13	1013.66
520.49	1032.50
520.85	1051.15
521.21	1070.07
521.57	1090.07
521.93	1109.30
522.29	1129.29
522.65	1149.11
523.01	1168.93
523.37	1188.45
523.73	1208.65
524.09	1228.34
524.45	1248.62
524.81	1268.93
525.17	1289.54
525.53	1311.02
525.89	1331.88
526.25	1352.81
526.61	1373.42
526.97	1394.67
527.33	1415.12
527.68	1436.37
528.04	1457.27
528.40	1478.89
528.76	1500.92
529.12	1521.93
529.48	1543.66
529.84	1564.33
530.20	1586.10
530.56	1608.32
530.91	1630.89
531.27	1652.46
531.63	1674.06
531.99	1695.57
532.35	1716.72
532.71	1737.34
533.07	1758.31
533.42	1778.77
533.78	1800.18
534.14	1821.32
534.50	1841.26
534.86	1861.79
535.21	1881.52
535.57	1902.60
535.93	1922.46
536.29	1942.09
536.65	1962.46
537.00	1982.27
537.36	2002.16
537.72	2021.37
538.08	2040.18
538.44	2058.47
538.79	2077.36
539.15	2095.75
539.51	2114.29
539.87	2133.16
540.22	2152.20
540.58	2170.72
540.94	2189.10
541.29	2206.32
541.65	2223.69
542.01	2241.87
542.37	2259.89
542.72	2276.76
543.08	2293.19
543.44	2309.83
543.79	2325.38
544.15	2340.98
544.51	2357.06
544.87	2372.82
545.22	2388.54
545.58	2402.73
545.94	2416.42
546.29	2430.63
546.65	2444.74
547.01	2458.18
547.36	2471.49
547.72	2484.32
548.07	2496.01
548.43	2508.06
548.79	2519.95
549.14	2531.67
549.50	2542.38
549.86	2552.47
550.21	2563.90
550.57	2574.65
550.92	2585.34
551.28	2595.43
551.64	2605.33
551.99	2615.24
552.35	2624.89
552.70	2634.44
553.06	2644.47
553.41	2654.77
553.77	2663.78
554.13	2673.07
554.48	2681.98
554.84	2690.03
555.19	2698.43
555.55	2706.85
555.90	2714.75
556.26	2722.87
556.61	2730.80
556.97	2738.11
557.32	2745.73
557.68	2752.40
558.03	2759.64
558.39	2766.67
558.74	2774.72
559.10	2781.30
559.45	2787.44
559.81	2794.70
560.16	2800.30
560.52	2805.70
560.87	2811.82
561.23	2816.59
561.58	2821.46
561.94	2826.33
562.29	2830.74
562.64	2834.82
563.00	2839.35
563.35	2844.91
563.71	2850.25
564.06	2855.02
564.42	2859.21
564.77	2864.24
565.12	2868.91
565.48	2872.36
565.83	2875.20
566.19	2877.76
566.54	2880.37
566.89	2882.88
567.25	2884.66
567.60	2888.06
567.96	2890.84
568.31	2892.10
568.66	2893.73
569.02	2895.17
569.37	2895.88
569.72	2897.79
570.08	2898.58
570.43	2899.31
570.78	2898.71
571.14	2897.00
571.49	2896.13
571.84	2897.28
572.20	2895.90
572.55	2894.17
572.90	2892.56
573.26	2891.61
573.61	2890.28
573.96	2888.67
574.31	2885.62
574.67	2881.95
575.02	2877.90
575.37	2874.65
575.72	2870.65
576.08	2867.70
576.43	2863.79
576.78	2860.46
577.13	2856.87
577.49	2853.16
577.84	2849.09
578.19	2844.66
578.54	2840.35
578.90	2835.17
579.25	2828.60
579.60	2822.94
579.95	2817.37
580.30	2811.98
580.66	2805.50
581.01	2798.85
581.36	2792.76
581.71	2787.92
582.06	2782.54
582.42	2775.94
582.77	2769.48
583.12	2763.81
583.47	2757.96
583.82	2752.31
584.17	2745.80
584.53	2739.05
584.88	2732.66
585.23	2725.53
585.58	2719.66
585.93	2713.04
586.28	2707.34
586.63	2701.56
586.98	2695.42
587.34	2689.30
587.69	2682.71
588.04	2676.57
588.39	2670.47
588.74	2662.68
589.09	2654.55
589.44	2646.12
589.79	2639.15
590.14	2632.18
590.49	2624.69
590.84	2616.30
591.19	2608.43
591.54	2600.09
591.89	2590.59
592.25	2582.05
592.60	2573.29
592.95	2563.46
593.30	2554.68
593.65	2545.17
594.00	2535.19
594.35	2526.42
594.70	2516.52
595.05	2507.30
595.40	2497.73
595.75	2487.87
596.10	2479.76
596.45	2472.08
596.80	2465.13
597.15	2456.89
597.50	2447.50
597.85	2439.24
598.19	2431.43
598.54	2423.01
598.89	2415.04
599.24	2407.97
599.59	2399.69
599.94	2391.84
600.29	2383.85
600.64	2375.18
600.99	2365.73
601.34	2358.06
601.69	2348.75
602.04	2340.55
602.39	2332.15
602.74	2324.49
603.08	2316.85
603.43	2308.53
603.78	2299.60
604.13	2290.29
604.48	2281.00
604.83	2272.34
605.18	2263.39
605.53	2253.20
605.87	2243.02
606.22	2233.59
606.57	2223.72
606.92	2213.90
607.27	2205.16
607.62	2196.66
607.96	2188.15
608.31	2180.42
608.66	2170.08
609.01	2160.11
609.36	2149.76
609.70	2138.80
610.05	2127.61
610.40	2116.90
610.75	2106.18
611.10	2094.87
611.44	2083.20
611.79	2073.03
612.14	2062.55
612.49	2050.84
612.83	2040.25
613.18	2029.90
613.53	2019.57
613.88	2008.38
614.22	1998.20
614.57	1986.68
614.92	1975.45
615.27	1965.43
615.61	1954.08
615.96	1943.90
616.31	1934.19
616.65	1925.51
617.00	1916.21
617.35	1906.64
617.70	1896.76
618.04	1886.48
618.39	1876.83
618.74	1868.17
619.08	1857.60
619.43	1847.93
619.78	1838.77
620.12	1829.08
620.47	1819.45
620.82	1809.01
621.16	1799.73
621.51	1790.06
621.85	1780.44
622.20	1770.11
622.55	1759.55
622.89	1750.17
623.24	1740.96
623.59	1731.54
623.93	1721.58
624.28	1711.78
624.62	1701.99
624.97	1692.06
625.32	1682.96
625.66	1673.57
626.01	1663.66
626.35	1654.32
626.70	1644.46
627.04	1635.20
627.39	1625.72
627.73	1616.03
628.08	1606.66
628.43	1597.23
628.77	1587.57
629.12	1577.62
629.46	1568.32
629.81	1558.17
630.15	1547.95
630.50	1537.69
630.84	1527.10
631.19	1516.33
631.53	1506.40
631.88	1496.12
632.22	1486.00
632.57	1476.42
632.91	1466.80
633.26	1456.99
633.60	1447.04
633.95	1437.63
634.29	1428.14
634.64	1419.28
634.98	1409.82
635.32	1400.80
635.67	1392.10
636.01	1383.50
636.36	1374.88
636.70	1366.27
637.05	1358.08
637.39	1350.04
637.73	1341.82
638.08	1334.30
638.42	1326.85
638.77	1318.54
639.11	1310.31
639.45	1302.01
639.80	1293.19
640.14	1284.71
640.49	1276.33
640.83	1268.38
641.17	1260.10
641.52	1251.82
641.86	1243.18
642.20	1235.37
642.55	1227.04
642.89	1218.78
643.23	1210.00
643.58	1202.33
643.92	1194.06
644.26	1185.79
644.61	1177.54
644.95	1169.77
645.29	1160.81
645.64	1151.74
645.98	1143.65
646.32	1135.96
646.66	1127.82
647.01	1119.87
647.35	1112.03
647.69	1104.47
648.04	1097.34
648.38	1089.24
648.72	1080.91
649.06	1072.73
649.41	1064.95
649.75	1056.72
650.09	1048.57
650.43	1040.91
650.78	1032.22
651.12	1024.37
651.46	1016.87
651.80	1009.31
652.14	1001.59
652.49	994.37
652.83	987.28
653.17	979.72
653.51	972.00
653.85	964.64
654.20	957.29
654.54	949.73
654.88	941.92
655.22	933.91
655.56	926.33
655.90	919.37
656.25	912.27
656.59	904.89
656.93	898.26
657.27	891.32
657.61	884.11
657.95	877.68
658.29	871.16
658.64	864.06
658.98	856.95
659.32	849.71
659.66	843.06
660.00	836.44
660.34	830.09
660.68	823.71
661.02	817.38
661.36	811.33
661.70	805.19
662.05	799.56
662.39	793.78
662.73	788.06
663.07	782.17
663.41	776.65
663.75	770.90
664.09	765.12
664.43	759.41
664.77	754.04
665.11	748.64
665.45	743.02
665.79	737.69
666.13	732.27
666.47	727.08
666.81	721.56
667.15	716.15
667.49	710.80
667.83	705.84
668.17	700.82
668.51	695.37
668.85	690.18
669.19	684.92
669.53	679.78
669.87	674.59
670.21	669.84
670.55	665.07
670.89	660.69
671.23	656.22
671.57	651.60
671.91	646.92
672.25	642.11
672.58	637.55
672.92	633.23
673.26	629.16
673.60	625.03
673.94	620.87
674.28	616.86
674.62	612.78
674.96	608.34
675.30	604.38
675.64	600.43
675.97	596.48
676.31	592.76
676.65	588.99
676.99	585.60
677.33	581.63
677.67	577.64
678.01	573.69
678.34	569.68
678.68	566.15
679.02	562.55
679.36	559.08
679.70	555.36
680.04	551.58
680.37	547.70
680.71	543.88
681.05	540.50
681.39	537.10
681.73	533.65
682.06	530.63
682.40	527.36
682.74	524.21
683.08	521.14
683.42	517.73
683.75	514.50
684.09	510.92
684.43	507.78
684.77	504.89
685.10	501.77
685.44	498.86
685.78	495.71
686.12	492.67
686.45	489.54
686.79	486.77
687.13	483.92
687.46	481.14
687.80	478.43
688.14	475.49
688.48	472.72
688.81	469.85
689.15	467.01
689.49	464.08
689.82	461.35
690.16	458.56
690.50	455.97
690.83	453.33
691.17	450.88
691.51	448.28
691.84	445.61
692.18	443.05
692.52	440.46
692.85	437.94
693.19	435.49
693.52	433.07
693.86	430.51
694.20	428.04
694.53	425.59
694.87	423.17
695.21	420.86
695.54	418.55
695.88	416.26
696.21	413.90
696.55	411.85
696.88	409.52
697.22	407.46
697.56	405.34
697.89	403.14
698.23	400.95
698.56	398.80
698.90	396.72
699.23	394.52
699.57	392.49
699.90	390.44
700.24	388.37
700.58	386.29
700.91	384.44
701.25	382.73
701.58	380.96
701.92	379.11
702.25	377.22
702.59	375.33
702.92	373.53
703.26	371.70
703.59	369.94
703.93	368.40
704.26	366.50
704.60	364.75
704.93	363.15
705.26	361.65
705.60	360.15
705.93	358.60
706.27	357.22
706.60	355.69
706.94	354.20
707.27	352.69
707.61	351.31
707.94	349.87
708.27	348.27
708.61	346.79
708.94	345.38
709.28	344.01
709.61	342.69
709.94	341.44
710.28	340.20
710.61	338.76
710.95	337.21
711.28	336.08
711.61	334.70
711.95	333.31
712.28	331.96
712.61	330.51
712.95	329.20
713.28	328.01
713.61	326.83
713.95	325.61
714.28	324.38
714.61	323.16
714.95	321.99
715.28	320.74
715.61	319.44
715.95	318.18
716.28	317.07
716.61	315.89
716.95	314.74
717.28	313.71
717.61	312.78
717.94	311.81
718.28	310.64
718.61	309.63
718.94	308.58
719.27	307.59
719.61	306.70
719.94	305.73
720.27	304.67
720.60	303.70
720.94	302.79
721.27	301.93
721.60	301.10
721.93	300.27
722.27	299.59
722.60	298.92
722.93	298.16
723.26	297.39
723.59	296.51
723.93	295.73
724.26	294.95
724.59	294.05
724.92	293.23
725.25	292.44
725.59	291.75
725.92	291.09
726.25	290.34
726.58	289.66
726.91	289.03
727.24	288.32
727.57	287.78
727.91	287.01
728.24	286.33
728.57	285.73
728.90	285.04
729.23	284.32
729.56	283.77
729.89	283.17
730.22	282.47
730.55	282.05
730.89	281.40
731.22	280.86
731.55	280.31
731.88	279.82
732.21	279.20
732.54	278.65
732.87	278.07
733.20	277.70
733.53	277.10
733.86	276.66
734.19	276.13
734.52	275.51
734.85	275.16
735.18	274.78
735.51	274.21
735.84	273.69
736.17	273.20
736.50	272.67
736.83	272.39
737.16	272.01
737.49	271.54
737.82	271.24
738.15	270.62
738.48	270.08
738.81	269.69
739.14	269.27
739.47	268.79
739.80	268.40
740.13	267.82
740.46	267.48
740.79	266.96
741.12	266.63
741.45	266.28
741.78	265.82
742.11	265.38
742.44	264.94
742.77	264.49
743.10	264.09
743.43	263.60
743.75	263.10
744.08	262.93
744.41	262.53
744.74	261.98
745.07	261.66
745.40	261.48
745.73	261.08
746.06	260.76
746.39	260.40
746.71	259.99
747.04	259.70
747.37	259.25
747.70	258.94
748.03	258.51
748.36	258.14
748.68	257.74
749.01	257.30
749.34	257.01
749.67	256.70
750.00	256.35
750.33	256.20
750.65	255.81
750.98	255.19
751.31	254.76
751.64	254.52
751.97	254.33
752.29	253.87
752.62	253.43
752.95	253.08
753.28	252.72
753.60	252.47
753.93	252.12
754.26	251.97
754.59	251.54
754.91	251.24
755.24	250.89
755.57	250.61
755.90	250.45
756.22	250.17
756.55	249.84
756.88	249.53
757.20	249.11
757.53	248.85
757.86	248.59
758.19	248.46
758.51	248.27
758.84	247.90
759.17	247.79
759.49	247.61
759.82	247.43
760.15	247.25
760.47	247.00
760.80	246.77
761.13	246.56
761.45	246.43
761.78	246.25
762.11	246.05
762.43	245.81
762.76	245.56
763.08	245.34
763.41	245.19
763.74	245.00
764.06	244.69
764.39	244.48
764.71	244.28
765.04	244.00
765.37	243.81
765.69	243.64
766.02	243.35
766.34	243.16
766.67	243.00
767.00	242.85
767.32	242.77
767.65	242.63
767.97	242.35
768.30	242.21
768.62	242.03
768.95	241.87
769.27	241.66
769.60	241.46
769.92	241.34
770.25	241.16
770.57	241.02
770.90	240.99
771.22	240.77
771.55	240.77
771.87	240.70
772.20	240.49
772.52	240.56
772.85	240.59
773.17	240.44
773.50	240.24
773.82	240.05
774.15	239.82
774.47	239.65
774.80	239.47
775.12	239.29
775.45	239.24
775.77	239.21
776.09	239.20
776.42	239.21
776.74	239.08
777.07	239.05
777.39	239.04
777.72	238.96
778.04	238.99
778.36	238.73
778.69	238.61
779.01	238.56
779.33	238.31
779.66	238.12
779.98	238.07
780.31	238.09
780.63	238.17
780.95	238.15
781.28	238.11
781.60	238.10
781.92	238.07
782.25	238.00
782.57	237.91
782.89	237.87
783.22	237.71
783.54	237.69
783.86	237.69
784.19	237.48
784.51	237.39
784.83	237.33
785.16	237.43
785.48	237.25
785.80	237.10
786.12	236.93
786.45	236.88
786.77	236.77
787.09	236.64
787.42	236.44
787.74	236.37
788.06	236.29
788.38	236.20
788.71	236.08
789.03	235.95
789.35	235.90
789.67	235.74
789.99	235.69
790.32	235.44
790.64	235.23
790.96	235.33
791.28	235.27
791.61	235.11
791.93	234.93
792.25	234.90
792.57	235.08
792.89	234.97
793.21	234.80
793.54	234.72
793.86	234.62
794.18	234.70
794.50	234.52
794.82	234.51
795.14	234.51
795.47	234.53
795.79	234.41
796.11	234.29
796.43	234.21
796.75	234.09
797.07	234.10
797.39	234.06
797.71	233.89
798.04	233.71
798.36	233.72
798.68	233.60
799.00	233.55
799.32	233.30
799.64	233.43
799.96	233.35
800.28	233.30
800.60	233.25
800.92	233.07
801.24	233.07
801.56	232.91
801.89	232.81
802.21	232.80
802.53	232.71
802.85	232.65
803.17	232.63
803.49	232.49
803.81	232.45
804.13	232.47
804.45	232.38
804.77	232.35
805.09	232.32
805.41	232.28
805.73	232.23
806.05	232.10
806.37	231.90
806.69	231.93
807.01	231.95
807.33	231.89
807.65	231.72
807.97	231.68
808.28	231.66
808.60	231.64
808.92	231.51
809.24	231.65
809.56	231.66
809.88	231.61
810.20	231.60
810.52	231.57
810.84	231.39
811.16	231.41
811.48	231.40
811.80	231.29
812.12	231.20
812.43	231.26
812.75	231.38
813.07	231.24
813.39	231.21
813.71	231.20
814.03	231.16
814.35	231.21
814.67	231.15
814.98	231.11
815.30	231.02
815.62	230.98
815.94	230.77
816.26	230.71
816.58	230.63
816.89	230.63
817.21	230.62
817.53	230.65
817.85	230.56
818.17	230.57
818.48	230.51
818.80	230.63
819.12	230.54
819.44	230.33
819.76	230.44
820.07	230.50
820.39	230.30
820.71	230.26
821.03	230.23
821.34	230.28
821.66	230.24
821.98	230.29
822.30	230.30
822.61	230.44
822.93	230.43
823.25	230.44
823.57	230.51
823.88	230.50
824.20	230.56
824.52	230.65
824.83	230.54
825.15	230.51
825.47	230.46
825.79	230.45
826.10	230.56
826.42	230.54
826.74	230.60
827.05	230.74
827.37	230.88
827.69	230.81
828.00	230.78
828.32	230.90
828.64	230.91
828.95	230.89
829.27	230.85
829.58	230.85
829.90	230.90
830.22	230.90
830.53	230.75
830.85	230.68
831.17	230.60
831.48	230.58
831.80	230.58
832.11	230.64
832.43	230.58
832.75	230.44
833.06	230.47
833.38	230.35
833.69	230.37
834.01	230.30
834.32	230.28
834.64	230.26
834.96	230.15
835.27	230.04
835.59	229.99
835.90	229.90
836.22	229.81
836.53	229.70
836.85	229.55
837.16	229.75
837.48	229.73
837.79	229.78
838.11	229.93
838.42	229.92
838.74	229.77
839.05	229.73
839.37	229.81
839.68	229.69
840.00	229.60
840.31	229.45
840.63	229.33
840.94	229.29
841.26	229.20
841.57	229.22
841.88	229.23
842.20	229.17
842.51	229.10
842.83	229.18
843.14	229.34
843.46	229.33
843.77	229.28
844.08	229.26
844.40	229.18
844.71	229.08
845.03	229.07
845.34	229.09
845.65	229.06
845.97	228.95
846.28	228.95
846.60	228.81
846.91	228.84
847.22	228.76
847.54	228.80
847.85	228.84
848.16	228.82
848.48	228.79
848.79	228.91
849.10	228.96
849.42	228.86
849.73	228.71
850.04	228.79
850.36	228.69
850.67	228.71
850.98	228.67
851.30	228.59
851.61	228.47
851.92	228.47
852.23	228.56
852.55	228.63
852.86	228.54
853.17	228.70
853.49	228.77
853.80	228.90
854.11	228.95
854.42	229.00
854.74	228.94
855.05	228.96
855.36	228.85
855.67	228.96
855.99	229.05
856.30	229.24
856.61	229.24
856.92	229.36
857.23	229.32
857.55	229.36
857.86	229.47
858.17	229.68
858.48	229.70
858.79	229.69
859.11	229.69
859.42	229.81
859.73	229.75
860.04	229.70
860.35	229.71
860.66	229.74
860.98	229.80
861.29	229.85
861.60	229.82
861.91	229.91
862.22	229.86
862.53	229.98
862.84	229.74
863.16	229.81
863.47	229.70
863.78	229.74
864.09	229.87
864.40	229.83
864.71	229.84
865.02	229.86
865.33	229.81
865.64	229.85
865.95	229.85
866.27	229.99
866.58	230.09
866.89	230.07
867.20	230.00
867.51	229.90
867.82	229.91
868.13	230.02
868.44	229.98
868.75	230.06
869.06	229.86
869.37	229.96
869.68	229.91
869.99	229.96
870.30	230.07
870.61	230.01
870.92	230.04
871.23	229.91
871.54	229.90
871.85	230.00
872.16	230.00
872.47	230.00
872.78	229.85
873.09	229.75
873.40	229.70
873.71	229.74
874.02	229.75
874.33	229.70
874.64	229.68
874.95	229.79
875.26	229.58
875.56	229.48
875.87	229.50
876.18	229.49
876.49	229.60
876.80	229.48
877.11	229.37
877.42	229.39
877.73	229.41
878.04	229.42
878.35	229.37
878.66	229.39
878.96	229.37
879.27	229.40
879.58	229.34
879.89	229.26
880.20	229.26
880.51	229.24
880.82	229.17
881.12	229.08
881.43	228.83
881.74	228.83
882.05	228.90
882.36	228.80
882.67	228.60
882.97	228.33
883.28	228.24
883.59	228.22
883.90	228.14
884.21	228.10
884.51	227.96
884.82	227.80
885.13	227.73
885.44	227.70
885.74	227.61
886.05	227.59
886.36	227.73
886.67	227.60
886.98	227.59
887.28	227.58
887.59	227.60
887.90	227.56
888.20	227.53
888.51	227.49
888.82	227.50
889.13	227.70
889.43	227.93
889.74	227.91
890.05	227.86
890.35	227.84
890.66	227.77
890.97	227.77
891.28	227.89
891.58	227.82
891.89	227.81
892.20	227.81
892.50	227.79
892.81	227.65
893.12	227.64
893.42	227.57
893.73	227.70
894.04	227.68
894.34	227.71
894.65	227.79
894.95	227.80
895.26	227.81
895.57	227.74
895.87	227.62
896.18	227.72
896.48	227.77
896.79	227.83
897.10	227.90
897.40	228.01
897.71	227.93
898.01	227.96
898.32	228.04
898.63	228.08
898.93	228.20
899.24	228.26
899.54	228.31
899.85	228.46
900.15	228.35
900.46	228.48
900.76	228.61
901.07	228.54
901.38	228.70
901.68	228.76
901.99	228.85
902.29	228.87
902.60	228.93
902.90	228.96
903.21	228.92
903.51	229.02
903.82	229.11
904.12	229.25
904.43	229.30
904.73	229.35
905.03	229.42
905.34	229.53
905.64	229.60
905.95	229.73
906.25	229.64
906.56	229.80
906.86	229.72
907.17	229.75
907.47	229.83
907.77	229.78
908.08	229.75
908.38	229.83
908.69	229.85
908.99	229.88
909.30	229.93
909.60	229.99
909.90	230.00
910.21	229.87
910.51	229.89
910.81	229.97
911.12	229.95
911.42	229.94
911.73	229.85
912.03	229.78
912.33	229.72
912.64	229.80
912.94	229.80
913.24	229.72
913.55	229.68
913.85	229.63
914.15	229.63
914.46	229.63
914.76	229.48
915.06	229.51
915.37	229.40
915.67	229.41
915.97	229.30
916.27	229.18
916.58	229.20
916.88	229.10
917.18	229.05
917.49	229.12
917.79	229.13
918.09	229.07
918.39	229.17
918.70	229.17
919.00	229.12
919.30	229.05
919.60	229.01
919.91	228.87
920.21	228.85
920.51	228.74
920.81	228.63
921.12	228.67
921.42	228.55
921.72	228.56
922.02	228.40
922.32	228.45
922.63	228.46
922.93	228.41
923.23	228.37
923.53	228.25
923.83	228.11
924.13	228.05
924.44	228.09
924.74	228.07
925.04	228.04
925.34	227.99
925.64	227.90
925.94	227.98
926.24	228.11
926.55	228.08
926.85	228.10
927.15	228.13
927.45	228.05
927.75	228.10
928.05	228.10
928.35	228.14
928.65	228.26
928.95	228.15
929.26	228.24
929.56	228.23
929.86	228.37
930.16	228.34
930.46	228.33
930.76	228.30
931.06	228.27
931.36	228.26
931.66	228.36
931.96	228.38
932.26	228.28
932.56	228.14
932.86	228.10
933.16	228.25
933.46	228.23
933.76	228.27
934.06	228.22
934.36	228.24
934.66	228.32
934.96	228.24
935.26	228.37
935.56	228.28
935.86	228.32
936.16	228.26
936.46	228.26
936.76	228.29
937.06	228.20
937.36	228.23
937.66	228.30
937.96	228.23
938.26	228.29
938.56	228.44
938.86	228.57
939.16	228.76
939.46	228.73
939.76	228.81
940.06	228.87
940.35	228.88
940.65	228.86
940.95	228.85
941.25	228.77
941.55	228.74
941.85	228.76
942.15	228.88
942.45	228.92
942.75	228.90
943.04	228.88
943.34	229.00
943.64	228.95
943.94	228.96
944.24	229.00
944.54	228.87
944.84	228.84
945.13	228.85
945.43	228.76
945.73	228.76
946.03	228.80
946.33	228.69
946.62	228.70
946.92	228.63
947.22	228.63
947.52	228.79
947.82	228.80
948.11	228.85
948.41	228.81
948.71	228.75
949.01	228.75
949.31	228.77
949.60	228.73
949.90	228.82
950.20	228.81
950.50	228.74
950.79	228.86
951.09	228.92
951.39	228.79
951.69	228.75
951.98	228.74
952.28	228.62
952.58	228.72
952.87	228.68
953.17	228.72
953.47	228.67
953.76	228.61
954.06	228.60
954.36	228.45
954.66	228.31
954.95	228.37
955.25	228.42
955.55	228.39
955.84	228.37
956.14	228.35
956.44	228.24
956.73	228.23
957.03	228.23
957.32	228.21
957.62	228.32
957.92	228.36
958.21	228.34
958.51	228.55
958.81	228.41
959.10	228.42
959.40	228.44
959.69	228.43
959.99	228.50
960.29	228.44
960.58	228.47
960.88	228.56
961.17	228.55
961.47	228.51
961.76	228.48
962.06	228.43
962.36	228.38
962.65	228.41
962.95	228.50
963.24	228.47
963.54	228.38
963.83	228.34
964.13	228.30
964.42	228.27
964.72	228.13
965.01	228.15
965.31	228.18
965.60	228.06
965.90	228.25
966.19	228.07
966.49	228.24
966.78	228.23
967.08	228.30
967.37	228.17
967.67	228.20
967.96	228.27
968.26	228.26
968.55	228.26
968.85	228.29
969.14	228.14
969.43	228.09
969.73	228.13
970.02	228.20
970.32	228.21
970.61	228.19
970.91	228.13
971.20	228.19
971.49	228.24
971.79	228.35
972.08	228.13
972.38	228.11
972.67	228.00
972.96	228.05
973.26	227.96
973.55	228.20
973.85	228.17
974.14	228.24
974.43	228.30
974.73	228.30
975.02	228.24
975.31	228.40
975.61	228.44
975.90	228.41
976.19	228.31
976.49	228.36
976.78	228.41
977.07	228.53
977.37	228.52
977.66	228.51
977.95	228.50
978.24	228.66
978.54	228.81
978.83	228.82
979.12	228.80
979.42	228.86
979.71	228.71
980.00	228.73
980.29	228.76
980.59	228.73
980.88	228.75
981.17	228.76
981.46	228.75
981.76	228.79
982.05	228.86
982.34	228.88
982.63	228.91
982.93	228.90
983.22	228.79
983.51	228.80
983.80	228.78
984.09	228.80
984.39	228.62
984.68	228.54
984.97	228.52
985.26	228.59
985.55	228.59
985.85	228.54
986.14	228.56
986.43	228.42
986.72	228.47
987.01	228.47
987.30	228.56
987.59	228.56
987.89	228.49
988.18	228.47
988.47	228.46
988.76	228.39
989.05	228.45
989.34	228.49
989.63	228.42
989.92	228.41
990.22	228.38
990.51	228.50
990.80	228.49
991.09	228.43
991.38	228.34
991.67	228.33
991.96	228.30
992.25	228.35
992.54	228.35
992.83	228.18
993.12	228.01
993.41	227.93
993.70	227.97
993.99	228.02
994.28	227.95
994.58	227.92
994.87	227.85
995.16	227.68
995.45	227.68
995.74	227.68
996.03	227.64
996.32	227.60
996.61	227.60
996.90	227.62
997.19	227.65
997.48	227.64
997.77	227.60
998.06	227.60
998.34	227.48
998.63	227.50
998.92	227.53
999.21	227.66
999.50	227.63
999.79	227.48
1000.08	227.40
1000.37	227.39
1000.66	227.37
1000.95	227.40
1001.24	227.44
1001.53	227.43
1001.82	227.49
1002.11	227.58
1002.40	227.61
1002.68	227.61
1002.97	227.72
1003.26	227.73
1003.55	227.78
1003.84	227.83
1004.13	227.96
1004.42	227.93
1004.71	227.94
1004.99	227.99
1005.28	228.05
1005.57	228.12
1005.86	228.14
1006.15	228.20
1006.44	228.22
1006.72	228.37
1007.01	228.35
1007.30	228.41
1007.59	228.39
1007.88	228.38
1008.17	228.44
1008.45	228.39
1008.74	228.37
1009.03	228.30
1009.32	228.30
1009.60	228.27
1009.89	228.23
1010.18	228.17
1010.47	228.18
1010.76	228.24
1011.04	228.42
1011.33	228.44
1011.62	228.41
1011.91	228.51
1012.19	228.49
1012.48	228.51
1012.77	228.51
1013.05	228.77
1013.34	228.83
1013.63	228.85
1013.92	228.90
1014.20	228.76
1014.49	228.85
1014.78	228.81
1015.06	228.73
1015.35	228.90
1015.64	229.00
1015.92	229.06
1016.21	229.08
1016.50	229.14
1016.78	229.15
1017.07	229.06
1017.36	228.96
1017.64	228.95
1017.93	228.93
1018.22	228.94
1018.50	229.02
1018.79	228.92
1019.08	228.76
1019.36	228.73
1019.65	228.63
1019.93	228.58
1020.22	228.59
1020.51	228.57
1020.79	228.62
1021.08	228.30
1021.36	230.10
1021.65	227.50
1021.94	229.20
1022.22	229.40
1022.51	226.60
1022.79	228.20
1023.08	227.80
1023.36	228.40
1023.65	228.70
>>>>>End Processed Spectral Data<<<<<
