SpectraSuite Data File
++++++++++++++++++++++++++++++++++++
Date: Fri Feb 01 14:34:10 EST 2013
User: group
Dark Spectrum Present: No
Reference Spectrum Present: No
Number of Sampled Component Spectra: 1
Spectrometers: USB2E7196
Integration Time (usec): 70000 (USB2E7196)
Spectra Averaged: 10 (USB2E7196)
Boxcar Smoothing: 10 (USB2E7196)
Correct for Electrical Dark: No (USB2E7196)
Strobe/Lamp Enabled: No (USB2E7196)
Correct for Detector Non-linearity: No (USB2E7196)
Correct for Stray Light: No (USB2E7196)
Number of Pixels in Processed Spectrum: 2048
>>>>>Begin Processed Spectral Data<<<<<
339.09	0.00
339.48	216.80
339.86	218.40
340.24	221.70
340.63	219.80
341.01	224.20
341.39	222.70
341.78	223.90
342.16	225.90
342.54	226.00
342.93	215.01
343.31	225.83
343.69	226.30
344.07	226.68
344.46	227.02
344.84	227.49
345.22	227.78
345.60	228.07
345.99	228.28
346.37	228.46
346.75	228.61
347.13	228.68
347.52	228.83
347.90	228.91
348.28	228.96
348.66	229.00
349.05	228.96
349.43	229.00
349.81	229.00
350.19	229.00
350.57	228.98
350.96	229.03
351.34	229.09
351.72	229.23
352.10	229.38
352.48	229.44
352.87	229.38
353.25	229.36
353.63	229.36
354.01	229.44
354.39	229.54
354.77	229.65
355.15	229.75
355.54	229.71
355.92	229.70
356.30	229.75
356.68	230.00
357.06	230.05
357.44	230.02
357.82	230.17
358.20	230.16
358.58	230.29
358.97	230.33
359.35	230.53
359.73	230.66
360.11	230.69
360.49	230.64
360.87	230.80
361.25	230.92
361.63	231.06
362.01	231.08
362.39	230.99
362.77	230.94
363.15	230.98
363.53	231.02
363.91	231.05
364.29	230.99
364.67	230.77
365.05	230.88
365.43	231.00
365.81	230.94
366.19	231.09
366.57	231.04
366.95	231.03
367.33	230.92
367.71	230.77
368.09	230.84
368.47	230.86
368.85	230.78
369.23	230.65
369.61	230.59
369.99	230.68
370.37	230.69
370.75	230.73
371.13	230.62
371.51	230.43
371.89	230.36
372.27	230.38
372.65	230.40
373.03	230.29
373.41	230.14
373.78	230.04
374.16	229.92
374.54	229.77
374.92	229.69
375.30	229.55
375.68	229.47
376.06	229.38
376.44	229.35
376.82	229.23
377.19	229.19
377.57	229.05
377.95	228.84
378.33	228.75
378.71	228.52
379.09	228.42
379.47	228.55
379.84	228.48
380.22	228.33
380.60	228.27
380.98	228.14
381.36	228.06
381.73	228.03
382.11	227.93
382.49	227.86
382.87	227.67
383.25	227.60
383.62	227.83
384.00	227.66
384.38	227.50
384.76	227.53
385.13	227.52
385.51	227.45
385.89	227.32
386.27	227.25
386.64	227.32
387.02	227.25
387.40	227.08
387.78	226.99
388.15	226.97
388.53	226.85
388.91	226.78
389.29	226.81
389.66	226.90
390.04	226.94
390.42	227.06
390.79	227.02
391.17	227.03
391.55	226.77
391.92	226.78
392.30	226.96
392.68	226.98
393.05	226.96
393.43	227.04
393.81	227.15
394.18	227.13
394.56	227.10
394.94	227.22
395.31	227.36
395.69	227.59
396.06	227.64
396.44	227.72
396.82	227.79
397.19	227.96
397.57	227.91
397.95	227.94
398.32	227.98
398.70	228.20
399.07	228.40
399.45	228.54
399.82	228.65
400.20	228.75
400.58	228.80
400.95	228.95
401.33	229.15
401.70	229.38
402.08	229.61
402.45	229.90
402.83	230.24
403.20	230.46
403.58	230.65
403.95	230.97
404.33	231.29
404.71	231.59
405.08	232.02
405.46	232.40
405.83	232.85
406.21	233.18
406.58	233.60
406.96	234.07
407.33	234.55
407.70	235.13
408.08	235.71
408.45	236.31
408.83	236.93
409.20	237.48
409.58	238.09
409.95	238.83
410.33	239.64
410.70	240.30
411.08	241.10
411.45	241.96
411.82	242.81
412.20	243.90
412.57	245.20
412.95	246.22
413.32	247.50
413.69	248.80
414.07	250.21
414.44	251.73
414.82	253.17
415.19	254.98
415.56	256.82
415.94	258.77
416.31	260.98
416.68	263.20
417.06	265.52
417.43	267.89
417.81	270.52
418.18	273.08
418.55	275.90
418.93	278.85
419.30	281.91
419.67	285.24
420.04	288.54
420.42	292.09
420.79	296.06
421.16	300.14
421.54	304.24
421.91	308.59
422.28	313.08
422.66	317.91
423.03	322.47
423.40	327.20
423.77	332.27
424.15	337.24
424.52	342.53
424.89	348.49
425.26	354.17
425.64	359.48
426.01	365.43
426.38	371.83
426.75	378.10
427.13	384.67
427.50	391.41
427.87	398.50
428.24	405.41
428.61	412.33
428.99	419.70
429.36	428.04
429.73	435.99
430.10	444.00
430.47	452.03
430.85	460.45
431.22	469.29
431.59	478.59
431.96	487.70
432.33	497.59
432.70	507.28
433.08	518.53
433.45	529.15
433.82	539.52
434.19	551.13
434.56	562.54
434.93	573.40
435.30	584.47
435.68	596.52
436.05	608.59
436.42	620.22
436.79	630.92
437.16	642.27
437.53	654.33
437.90	666.35
438.27	678.15
438.64	690.51
439.01	702.06
439.38	712.06
439.75	722.03
440.13	733.43
440.50	744.25
440.87	753.18
441.24	762.52
441.61	773.13
441.98	780.72
442.35	789.98
442.72	798.97
443.09	807.75
443.46	813.53
443.83	817.59
444.20	821.54
444.57	826.72
444.94	829.73
445.31	833.03
445.68	836.00
446.05	838.22
446.42	838.35
446.79	838.34
447.16	838.52
447.53	838.92
447.90	835.88
448.27	832.70
448.64	827.61
449.01	824.50
449.37	817.78
449.74	811.48
450.11	803.38
450.48	794.79
450.85	785.79
451.22	778.25
451.59	770.99
451.96	763.95
452.33	754.30
452.70	745.57
453.07	734.90
453.43	724.00
453.80	713.28
454.17	702.97
454.54	693.19
454.91	682.49
455.28	672.09
455.65	662.43
456.02	652.43
456.38	644.30
456.75	633.73
457.12	624.84
457.49	615.97
457.86	607.43
458.23	600.16
458.59	591.93
458.96	583.57
459.33	576.26
459.70	568.78
460.07	562.92
460.43	556.03
460.80	549.31
461.17	543.63
461.54	537.88
461.91	532.20
462.27	526.49
462.64	521.69
463.01	516.11
463.38	510.67
463.74	505.55
464.11	500.77
464.48	496.78
464.85	492.30
465.21	488.78
465.58	485.16
465.95	480.69
466.32	477.11
466.68	473.50
467.05	469.78
467.42	466.32
467.78	462.40
468.15	458.90
468.52	456.37
468.88	453.01
469.25	449.93
469.62	447.61
469.98	444.80
470.35	442.06
470.72	439.74
471.08	437.31
471.45	435.00
471.82	432.66
472.18	429.96
472.55	428.18
472.92	426.00
473.28	424.02
473.65	422.07
474.02	420.22
474.38	418.44
474.75	417.06
475.11	415.50
475.48	414.27
475.85	413.22
476.21	412.13
476.58	411.05
476.94	410.25
477.31	409.24
477.67	408.47
478.04	407.94
478.41	407.36
478.77	406.88
479.14	406.28
479.50	406.18
479.87	406.22
480.23	406.10
480.60	405.98
480.96	405.87
481.33	406.20
481.69	406.26
482.06	406.54
482.42	406.70
482.79	406.80
483.15	407.44
483.52	408.13
483.88	408.60
484.25	409.31
484.61	409.93
484.98	410.62
485.34	411.65
485.71	412.96
486.07	414.19
486.44	415.41
486.80	417.07
487.17	418.50
487.53	420.20
487.90	422.00
488.26	423.98
488.62	425.90
488.99	427.78
489.35	429.99
489.72	432.29
490.08	434.69
490.44	437.20
490.81	439.74
491.17	442.40
491.54	445.39
491.90	448.18
492.26	451.27
492.63	454.53
492.99	457.52
493.36	460.48
493.72	463.95
494.08	467.38
494.45	471.02
494.81	474.70
495.17	478.49
495.54	482.25
495.90	486.28
496.26	490.48
496.63	494.88
496.99	499.18
497.35	503.55
497.72	508.05
498.08	512.72
498.44	517.33
498.80	522.23
499.17	526.92
499.53	531.89
499.89	536.60
500.26	541.45
500.62	546.66
500.98	551.98
501.34	557.03
501.71	562.31
502.07	567.51
502.43	572.70
502.79	577.98
503.16	583.27
503.52	588.65
503.88	593.88
504.24	599.18
504.60	604.74
504.97	610.33
505.33	615.81
505.69	621.55
506.05	627.14
506.41	632.16
506.78	637.42
507.14	642.62
507.50	647.94
507.86	653.30
508.22	658.46
508.59	663.47
508.95	668.70
509.31	673.99
509.67	679.21
510.03	684.45
510.39	689.24
510.75	694.50
511.12	699.43
511.48	704.41
511.84	709.33
512.20	714.08
512.56	718.82
512.92	723.49
513.28	728.09
513.64	732.39
514.00	736.92
514.37	741.43
514.73	745.77
515.09	750.13
515.45	754.21
515.81	758.20
516.17	762.43
516.53	766.52
516.89	770.34
517.25	773.78
517.61	777.58
517.97	781.20
518.33	784.32
518.69	787.50
519.05	791.04
519.41	794.42
519.77	797.72
520.13	801.06
520.49	804.03
520.85	806.83
521.21	809.79
521.57	813.12
521.93	815.77
522.29	818.79
522.65	821.65
523.01	824.51
523.37	827.16
523.73	829.60
524.09	831.98
524.45	834.33
524.81	837.23
525.17	839.83
525.53	842.52
525.89	845.12
526.25	848.04
526.61	850.25
526.97	852.43
527.33	854.93
527.68	857.21
528.04	859.69
528.40	862.28
528.76	864.99
529.12	867.21
529.48	869.97
529.84	872.11
530.20	874.54
530.56	877.16
530.91	880.38
531.27	882.95
531.63	885.36
531.99	888.21
532.35	890.37
532.71	892.58
533.07	895.11
533.42	897.66
533.78	899.88
534.14	902.32
534.50	904.62
534.86	906.91
535.21	909.06
535.57	911.60
535.93	914.05
536.29	916.53
536.65	918.95
537.00	921.24
537.36	923.75
537.72	925.92
538.08	927.97
538.44	929.98
538.79	932.51
539.15	934.77
539.51	937.04
539.87	939.72
540.22	942.14
540.58	944.82
540.94	947.10
541.29	949.31
541.65	951.92
542.01	954.93
542.37	957.40
542.72	960.05
543.08	962.39
543.44	964.58
543.79	966.41
544.15	968.92
544.51	971.48
544.87	974.25
545.22	976.90
545.58	979.51
545.94	981.37
546.29	983.70
546.65	986.29
547.01	988.20
547.36	990.25
547.72	992.46
548.07	994.29
548.43	996.36
548.79	998.55
549.14	1000.57
549.50	1002.16
549.86	1004.18
550.21	1006.00
550.57	1008.23
550.92	1010.72
551.28	1012.85
551.64	1014.67
551.99	1016.70
552.35	1018.47
552.70	1020.48
553.06	1022.48
553.41	1024.96
553.77	1026.73
554.13	1028.64
554.48	1030.83
554.84	1033.00
555.19	1035.00
555.55	1037.11
555.90	1039.34
556.26	1041.33
556.61	1043.40
556.97	1045.31
557.32	1047.34
557.68	1049.21
558.03	1050.99
558.39	1052.48
558.74	1054.76
559.10	1056.49
559.45	1058.18
559.81	1060.49
560.16	1062.00
560.52	1063.84
560.87	1065.80
561.23	1067.59
561.58	1069.39
561.94	1071.09
562.29	1072.49
562.64	1074.13
563.00	1075.82
563.35	1077.68
563.71	1079.79
564.06	1081.24
564.42	1083.05
564.77	1084.38
565.12	1086.20
565.48	1087.87
565.83	1089.16
566.19	1090.64
566.54	1092.05
566.89	1093.46
567.25	1094.58
567.60	1096.34
567.96	1097.58
568.31	1098.44
568.66	1099.53
569.02	1100.57
569.37	1101.59
569.72	1102.68
570.08	1103.32
570.43	1104.13
570.78	1104.64
571.14	1104.94
571.49	1105.67
571.84	1106.26
572.20	1106.43
572.55	1106.72
572.90	1106.70
573.26	1107.08
573.61	1106.87
573.96	1106.94
574.31	1106.52
574.67	1105.93
575.02	1105.43
575.37	1104.95
575.72	1104.13
576.08	1103.48
576.43	1102.79
576.78	1102.09
577.13	1101.55
577.49	1101.14
577.84	1099.94
578.19	1099.14
578.54	1098.32
578.90	1097.26
579.25	1095.80
579.60	1094.81
579.95	1093.44
580.30	1092.22
580.66	1090.60
581.01	1089.04
581.36	1087.59
581.71	1086.25
582.06	1084.74
582.42	1082.94
582.77	1081.20
583.12	1080.10
583.47	1078.76
583.82	1077.42
584.17	1075.60
584.53	1073.85
584.88	1072.02
585.23	1070.50
585.58	1068.74
585.93	1067.04
586.28	1065.45
586.63	1064.03
586.98	1062.48
587.34	1060.98
587.69	1059.19
588.04	1057.61
588.39	1056.03
588.74	1053.91
589.09	1052.02
589.44	1049.80
589.79	1048.13
590.14	1046.48
590.49	1044.13
590.84	1041.90
591.19	1039.56
591.54	1037.30
591.89	1034.45
592.25	1032.29
592.60	1029.63
592.95	1026.64
593.30	1023.67
593.65	1020.90
594.00	1018.04
594.35	1015.83
594.70	1012.57
595.05	1009.74
595.40	1007.08
595.75	1004.14
596.10	1001.71
596.45	999.10
596.80	996.88
597.15	994.31
597.50	991.30
597.85	988.47
598.19	985.90
598.54	983.39
598.89	980.80
599.24	978.64
599.59	975.95
599.94	973.71
600.29	971.25
600.64	968.63
600.99	965.70
601.34	963.13
601.69	959.80
602.04	957.20
602.39	954.53
602.74	951.69
603.08	949.13
603.43	946.51
603.78	943.72
604.13	940.73
604.48	937.70
604.83	934.86
605.18	932.42
605.53	929.31
605.87	925.64
606.22	922.67
606.57	919.34
606.92	916.20
607.27	913.06
607.62	910.34
607.96	907.21
608.31	904.15
608.66	900.71
609.01	897.29
609.36	893.72
609.70	890.15
610.05	886.52
610.40	883.26
610.75	879.45
611.10	875.80
611.44	871.71
611.79	868.22
612.14	864.61
612.49	860.33
612.83	856.50
613.18	853.02
613.53	849.42
613.88	845.76
614.22	841.85
614.57	838.03
614.92	834.23
615.27	830.78
615.61	827.06
615.96	823.51
616.31	820.37
616.65	817.52
617.00	814.18
617.35	811.12
617.70	807.24
618.04	803.62
618.39	800.24
618.74	797.14
619.08	793.29
619.43	789.98
619.78	786.87
620.12	783.48
620.47	780.19
620.82	776.77
621.16	773.00
621.51	769.64
621.85	766.32
622.20	762.72
622.55	759.38
622.89	756.17
623.24	752.92
623.59	749.40
623.93	745.90
624.28	742.64
624.62	739.06
624.97	735.87
625.32	732.66
625.66	729.36
626.01	726.22
626.35	723.12
626.70	719.77
627.04	716.65
627.39	713.31
627.73	710.20
628.08	707.15
628.43	704.33
628.77	701.09
629.12	697.70
629.46	694.51
629.81	690.97
630.15	687.47
630.50	684.04
630.84	680.54
631.19	677.10
631.53	673.67
631.88	670.34
632.22	666.85
632.57	663.80
632.91	660.47
633.26	657.00
633.60	653.61
633.95	650.33
634.29	647.00
634.64	644.24
634.98	640.96
635.32	638.07
635.67	635.31
636.01	632.41
636.36	629.66
636.70	626.89
637.05	624.14
637.39	621.46
637.73	618.83
638.08	616.35
638.42	613.77
638.77	611.33
639.11	608.65
639.45	606.27
639.80	603.58
640.14	600.96
640.49	598.56
640.83	595.96
641.17	593.57
641.52	591.12
641.86	588.32
642.20	585.95
642.55	583.03
642.89	580.12
643.23	577.59
643.58	575.07
643.92	572.17
644.26	569.60
644.61	567.34
644.95	564.80
645.29	562.05
645.64	559.16
645.98	556.47
646.32	553.90
646.66	551.17
647.01	548.43
647.35	546.01
647.69	543.47
648.04	541.20
648.38	538.39
648.72	535.62
649.06	532.91
649.41	530.43
649.75	527.67
650.09	525.11
650.43	522.27
650.78	519.42
651.12	517.08
651.46	514.62
651.80	512.02
652.14	509.59
652.49	507.27
652.83	505.11
653.17	502.47
653.51	500.12
653.85	497.61
654.20	495.20
654.54	492.56
654.88	490.13
655.22	487.50
655.56	485.14
655.90	482.83
656.25	480.59
656.59	478.08
656.93	475.94
657.27	473.79
657.61	471.66
657.95	469.53
658.29	467.36
658.64	465.23
658.98	462.79
659.32	460.51
659.66	458.24
660.00	456.02
660.34	453.93
660.68	451.66
661.02	449.65
661.36	447.69
661.70	445.74
662.05	443.78
662.39	442.02
662.73	440.12
663.07	438.39
663.41	436.55
663.75	434.55
664.09	432.60
664.43	430.60
664.77	428.70
665.11	426.91
665.45	425.00
665.79	422.99
666.13	421.08
666.47	419.19
666.81	417.42
667.15	415.55
667.49	413.80
667.83	412.07
668.17	410.20
668.51	408.38
668.85	406.62
669.19	404.81
669.53	402.94
669.87	401.12
670.21	399.27
670.55	397.68
670.89	396.33
671.23	394.84
671.57	393.43
671.91	391.90
672.25	390.24
672.58	388.74
672.92	387.24
673.26	385.98
673.60	384.65
673.94	383.23
674.28	381.86
674.62	380.56
674.96	379.11
675.30	377.83
675.64	376.51
675.97	375.10
676.31	373.89
676.65	372.52
676.99	371.39
677.33	370.10
677.67	368.81
678.01	367.42
678.34	366.04
678.68	364.63
679.02	363.34
679.36	362.20
679.70	360.91
680.04	359.62
680.37	358.29
680.71	356.96
681.05	355.73
681.39	354.54
681.73	353.33
682.06	352.20
682.40	351.14
682.74	349.94
683.08	349.00
683.42	347.80
683.75	346.77
684.09	345.54
684.43	344.38
684.77	343.14
685.10	341.95
685.44	340.93
685.78	339.84
686.12	338.86
686.45	337.61
686.79	336.53
687.13	335.68
687.46	334.59
687.80	333.49
688.14	332.44
688.48	331.46
688.81	330.42
689.15	329.50
689.49	328.34
689.82	327.34
690.16	326.34
690.50	325.28
690.83	324.14
691.17	323.11
691.51	322.20
691.84	321.35
692.18	320.48
692.52	319.47
692.85	318.54
693.19	317.64
693.52	316.92
693.86	316.00
694.20	314.94
694.53	314.14
694.87	313.29
695.21	312.30
695.54	311.31
695.88	310.30
696.21	309.16
696.55	308.43
696.88	307.56
697.22	306.61
697.56	305.86
697.89	305.18
698.23	304.40
698.56	303.61
698.90	302.84
699.23	301.90
699.57	301.20
699.90	300.38
700.24	299.48
700.58	298.58
700.91	297.91
701.25	297.30
701.58	296.58
701.92	295.89
702.25	295.21
702.59	294.61
702.92	294.04
703.26	293.67
703.59	292.94
703.93	292.52
704.26	291.81
704.60	291.04
704.93	290.27
705.26	289.60
705.60	289.07
705.93	288.37
706.27	287.85
706.60	287.25
706.94	286.73
707.27	286.00
707.61	285.47
707.94	284.82
708.27	284.01
708.61	283.40
708.94	282.81
709.28	282.24
709.61	281.63
709.94	280.99
710.28	280.36
710.61	279.83
710.95	279.07
711.28	278.59
711.61	278.04
711.95	277.48
712.28	276.82
712.61	276.17
712.95	275.60
713.28	275.06
713.61	274.45
713.95	273.85
714.28	273.42
714.61	272.93
714.95	272.31
715.28	271.78
715.61	271.18
715.95	270.70
716.28	270.21
716.61	269.62
716.95	269.18
717.28	268.65
717.61	268.16
717.94	267.68
718.28	267.17
718.61	266.72
718.94	266.33
719.27	265.93
719.61	265.53
719.94	265.18
720.27	264.63
720.60	264.19
720.94	263.87
721.27	263.46
721.60	263.01
721.93	262.67
722.27	262.48
722.60	262.10
722.93	261.70
723.26	261.31
723.59	261.05
723.93	260.84
724.26	260.45
724.59	260.08
724.92	259.86
725.25	259.57
725.59	259.33
725.92	259.01
726.25	258.76
726.58	258.56
726.91	258.26
727.24	258.07
727.57	257.84
727.91	257.41
728.24	257.29
728.57	257.02
728.90	256.81
729.23	256.43
729.56	256.26
729.89	255.94
730.22	255.71
730.55	255.40
730.89	255.10
731.22	254.93
731.55	254.59
731.88	254.20
732.21	253.86
732.54	253.61
732.87	253.50
733.20	253.34
733.53	253.06
733.86	252.95
734.19	252.66
734.52	252.48
734.85	252.52
735.18	252.28
735.51	252.14
735.84	251.87
736.17	251.70
736.50	251.50
736.83	251.55
737.16	251.36
737.49	251.24
737.82	250.93
738.15	250.71
738.48	250.63
738.81	250.46
739.14	250.29
739.47	250.11
739.80	249.78
740.13	249.56
740.46	249.30
740.79	248.93
741.12	248.78
741.45	248.54
741.78	248.25
742.11	248.11
742.44	247.86
742.77	247.74
743.10	247.61
743.43	247.38
743.75	246.96
744.08	246.96
744.41	246.65
744.74	246.44
745.07	246.23
745.40	246.03
745.73	245.92
746.06	245.69
746.39	245.54
746.71	245.45
747.04	245.20
747.37	244.99
747.70	244.84
748.03	244.62
748.36	244.43
748.68	244.13
749.01	243.86
749.34	243.63
749.67	243.44
750.00	243.31
750.33	243.25
750.65	243.13
750.98	242.73
751.31	242.62
751.64	242.55
751.97	242.49
752.29	242.36
752.62	242.17
752.95	242.00
753.28	241.73
753.60	241.50
753.93	241.36
754.26	241.20
754.59	241.08
754.91	240.93
755.24	240.74
755.57	240.63
755.90	240.49
756.22	240.35
756.55	240.20
756.88	239.98
757.20	239.71
757.53	239.60
757.86	239.47
758.19	239.30
758.51	239.15
758.84	238.90
759.17	238.71
759.49	238.51
759.82	238.56
760.15	238.49
760.47	238.43
760.80	238.43
761.13	238.41
761.45	238.22
761.78	238.10
762.11	237.93
762.43	237.81
762.76	237.72
763.08	237.58
763.41	237.50
763.74	237.38
764.06	237.29
764.39	237.10
764.71	237.01
765.04	236.96
765.37	236.90
765.69	236.82
766.02	236.76
766.34	236.73
766.67	236.55
767.00	236.44
767.32	236.40
767.65	236.40
767.97	236.27
768.30	236.23
768.62	236.17
768.95	236.20
769.27	236.01
769.60	235.86
769.92	235.83
770.25	235.70
770.57	235.47
770.90	235.41
771.22	235.31
771.55	235.30
771.87	235.32
772.20	235.17
772.52	235.34
772.85	235.52
773.17	235.42
773.50	235.38
773.82	235.35
774.15	235.11
774.47	234.96
774.80	234.81
775.12	234.76
775.45	234.70
775.77	234.57
776.09	234.70
776.42	234.77
776.74	234.72
777.07	234.75
777.39	234.98
777.72	234.87
778.04	234.82
778.36	234.69
778.69	234.54
779.01	234.57
779.33	234.27
779.66	233.91
779.98	233.83
780.31	233.80
780.63	233.86
780.95	233.97
781.28	233.93
781.60	233.90
781.92	233.80
782.25	233.67
782.57	233.75
782.89	233.67
783.22	233.57
783.54	233.49
783.86	233.28
784.19	233.12
784.51	233.20
784.83	233.18
785.16	233.14
785.48	233.11
785.80	233.05
786.12	232.98
786.45	233.00
786.77	233.00
787.09	232.93
787.42	232.83
787.74	232.82
788.06	232.66
788.38	232.64
788.71	232.63
789.03	232.81
789.35	232.80
789.67	232.71
789.99	232.76
790.32	232.72
790.64	232.88
790.96	232.99
791.28	232.78
791.61	232.81
791.93	232.70
792.25	232.67
792.57	232.73
792.89	232.70
793.21	232.66
793.54	232.50
793.86	232.48
794.18	232.41
794.50	232.26
794.82	232.22
795.14	232.30
795.47	232.30
795.79	232.11
796.11	231.99
796.43	231.96
796.75	231.80
797.07	231.80
797.39	231.68
797.71	231.50
798.04	231.54
798.36	231.41
798.68	231.51
799.00	231.42
799.32	231.33
799.64	231.39
799.96	231.33
800.28	231.54
800.60	231.47
800.92	231.30
801.24	231.35
801.56	231.39
801.89	231.20
802.21	231.14
802.53	231.07
802.85	231.14
803.17	231.24
803.49	231.28
803.81	231.20
804.13	231.27
804.45	231.21
804.77	231.15
805.09	231.21
805.41	231.23
805.73	231.17
806.05	231.13
806.37	230.97
806.69	230.89
807.01	230.64
807.33	230.63
807.65	230.57
807.97	230.56
808.28	230.40
808.60	230.41
808.92	230.36
809.24	230.53
809.56	230.35
809.88	230.21
810.20	230.17
810.52	230.22
810.84	230.16
811.16	230.17
811.48	230.27
811.80	230.24
812.12	230.06
812.43	230.17
812.75	230.05
813.07	229.99
813.39	230.08
813.71	230.17
814.03	230.06
814.35	230.24
814.67	230.14
814.98	230.13
815.30	230.18
815.62	230.19
815.94	230.10
816.26	230.25
816.58	230.20
816.89	230.17
817.21	230.13
817.53	229.98
817.85	229.92
818.17	229.86
818.48	229.82
818.80	229.90
819.12	229.80
819.44	229.79
819.76	229.89
820.07	229.88
820.39	229.84
820.71	229.84
821.03	229.74
821.34	229.69
821.66	229.81
821.98	229.86
822.30	229.86
822.61	229.94
822.93	229.89
823.25	229.83
823.57	229.78
823.88	229.90
824.20	230.00
824.52	230.07
824.83	230.00
825.15	229.98
825.47	229.97
825.79	230.00
826.10	230.08
826.42	230.07
826.74	230.11
827.05	230.16
827.37	230.11
827.69	230.09
828.00	230.20
828.32	230.18
828.64	230.08
828.95	230.14
829.27	230.04
829.58	230.04
829.90	230.15
830.22	230.17
830.53	229.97
830.85	229.91
831.17	229.83
831.48	229.79
831.80	229.71
832.11	229.69
832.43	229.68
832.75	229.58
833.06	229.71
833.38	229.55
833.69	229.45
834.01	229.53
834.32	229.57
834.64	229.40
834.96	229.38
835.27	229.27
835.59	229.24
835.90	229.21
836.22	229.18
836.53	229.12
836.85	229.10
837.16	229.35
837.48	229.29
837.79	229.32
838.11	229.29
838.42	229.45
838.74	229.42
839.05	229.42
839.37	229.50
839.68	229.35
840.00	229.32
840.31	229.38
840.63	229.39
840.94	229.44
841.26	229.47
841.57	229.49
841.88	229.61
842.20	229.51
842.51	229.38
842.83	229.33
843.14	229.48
843.46	229.41
843.77	229.19
844.08	229.23
844.40	229.16
844.71	229.16
845.03	229.08
845.34	229.03
845.65	229.00
845.97	228.86
846.28	228.87
846.60	229.02
846.91	229.01
847.22	228.99
847.54	228.95
847.85	228.99
848.16	228.95
848.48	228.90
848.79	229.00
849.10	229.14
849.42	229.24
849.73	229.06
850.04	229.19
850.36	229.18
850.67	229.16
850.98	229.15
851.30	229.20
851.61	229.20
851.92	229.22
852.23	229.27
852.55	229.39
852.86	229.42
853.17	229.29
853.49	229.22
853.80	229.20
854.11	229.15
854.42	229.20
854.74	229.14
855.05	229.16
855.36	229.01
855.67	228.99
855.99	228.90
856.30	229.08
856.61	228.98
856.92	228.99
857.23	229.00
857.55	228.93
857.86	228.95
858.17	228.93
858.48	228.97
858.79	228.85
859.11	228.75
859.42	228.70
859.73	228.75
860.04	228.80
860.35	228.74
860.66	228.67
860.98	228.54
861.29	228.61
861.60	228.51
861.91	228.58
862.22	228.44
862.53	228.34
862.84	228.10
863.16	228.17
863.47	228.14
863.78	228.13
864.09	228.29
864.40	228.23
864.71	228.25
865.02	228.23
865.33	228.33
865.64	228.37
865.95	228.46
866.27	228.51
866.58	228.38
866.89	228.41
867.20	228.50
867.51	228.59
867.82	228.59
868.13	228.61
868.44	228.58
868.75	228.69
869.06	228.81
869.37	228.84
869.68	228.79
869.99	228.79
870.30	228.88
870.61	228.90
870.92	228.86
871.23	228.81
871.54	228.87
871.85	229.00
872.16	229.08
872.47	228.97
872.78	228.83
873.09	228.95
873.40	228.88
873.71	228.91
874.02	228.86
874.33	228.76
874.64	228.71
874.95	228.74
875.26	228.68
875.56	228.62
875.87	228.58
876.18	228.61
876.49	228.80
876.80	228.78
877.11	228.67
877.42	228.74
877.73	228.76
878.04	228.74
878.35	228.61
878.66	228.55
878.96	228.47
879.27	228.54
879.58	228.56
879.89	228.64
880.20	228.65
880.51	228.62
880.82	228.68
881.12	228.78
881.43	228.79
881.74	228.72
882.05	228.74
882.36	228.80
882.67	228.79
882.97	228.60
883.28	228.61
883.59	228.70
883.90	228.74
884.21	228.76
884.51	228.70
884.82	228.66
885.13	228.62
885.44	228.70
885.74	228.70
886.05	228.65
886.36	228.69
886.67	228.65
886.98	228.80
887.28	228.84
887.59	228.80
887.90	228.87
888.20	229.01
888.51	228.99
888.82	228.96
889.13	228.90
889.43	229.02
889.74	228.98
890.05	228.85
890.35	228.78
890.66	228.76
890.97	228.66
891.28	228.55
891.58	228.61
891.89	228.60
892.20	228.56
892.50	228.55
892.81	228.61
893.12	228.55
893.42	228.48
893.73	228.41
894.04	228.41
894.34	228.37
894.65	228.38
894.95	228.35
895.26	228.35
895.57	228.46
895.87	228.26
896.18	228.19
896.48	228.23
896.79	228.24
897.10	228.21
897.40	228.30
897.71	228.42
898.01	228.41
898.32	228.49
898.63	228.47
898.93	228.43
899.24	228.29
899.54	228.30
899.85	228.24
900.15	228.31
900.46	228.29
900.76	228.27
901.07	228.17
901.38	228.16
901.68	228.20
901.99	228.19
902.29	228.20
902.60	228.27
902.90	228.27
903.21	228.22
903.51	228.24
903.82	228.22
904.12	228.18
904.43	228.13
904.73	228.04
905.03	228.12
905.34	228.26
905.64	228.28
905.95	228.38
906.25	228.36
906.56	228.27
906.86	228.27
907.17	228.18
907.47	228.18
907.77	228.23
908.08	228.21
908.38	228.15
908.69	228.27
908.99	228.27
909.30	228.20
909.60	228.32
909.90	228.30
910.21	228.44
910.51	228.52
910.81	228.58
911.12	228.58
911.42	228.66
911.73	228.56
912.03	228.56
912.33	228.50
912.64	228.50
912.94	228.55
913.24	228.70
913.55	228.81
913.85	228.80
914.15	228.79
914.46	228.84
914.76	228.90
915.06	228.94
915.37	228.95
915.67	229.00
915.97	228.92
916.27	228.84
916.58	228.81
916.88	228.80
917.18	228.86
917.49	229.02
917.79	228.87
918.09	228.96
918.39	229.04
918.70	229.02
919.00	229.08
919.30	229.26
919.60	229.02
919.91	228.91
920.21	228.95
920.51	228.95
920.81	228.90
921.12	228.80
921.42	228.69
921.72	228.68
922.02	228.76
922.32	228.81
922.63	228.92
922.93	228.96
923.23	228.84
923.53	228.78
923.83	228.70
924.13	228.69
924.44	228.55
924.74	228.59
925.04	228.61
925.34	228.60
925.64	228.42
925.94	228.45
926.24	228.53
926.55	228.58
926.85	228.58
927.15	228.59
927.45	228.60
927.75	228.62
928.05	228.58
928.35	228.60
928.65	228.60
928.95	228.55
929.26	228.45
929.56	228.51
929.86	228.44
930.16	228.42
930.46	228.41
930.76	228.43
931.06	228.39
931.36	228.45
931.66	228.44
931.96	228.48
932.26	228.53
932.56	228.54
932.86	228.46
933.16	228.46
933.46	228.42
933.76	228.46
934.06	228.46
934.36	228.49
934.66	228.45
934.96	228.41
935.26	228.41
935.56	228.31
935.86	228.30
936.16	228.33
936.46	228.30
936.76	228.39
937.06	228.33
937.36	228.27
937.66	228.35
937.96	228.33
938.26	228.27
938.56	228.31
938.86	228.26
939.16	228.30
939.46	228.31
939.76	228.32
940.06	228.21
940.35	228.07
940.65	228.04
940.95	227.89
941.25	227.75
941.55	227.76
941.85	227.90
942.15	227.91
942.45	227.91
942.75	227.90
943.04	227.89
943.34	228.03
943.64	228.08
943.94	227.90
944.24	227.87
944.54	227.91
944.84	228.00
945.13	228.02
945.43	227.99
945.73	228.05
946.03	228.02
946.33	228.15
946.62	228.26
946.92	228.20
947.22	228.33
947.52	228.44
947.82	228.51
948.11	228.47
948.41	228.47
948.71	228.40
949.01	228.42
949.31	228.40
949.60	228.36
949.90	228.26
950.20	228.37
950.50	228.36
950.79	228.34
951.09	228.24
951.39	228.31
951.69	228.30
951.98	228.32
952.28	228.46
952.58	228.42
952.87	228.30
953.17	228.46
953.47	228.45
953.76	228.46
954.06	228.43
954.36	228.36
954.66	228.33
954.95	228.39
955.25	228.40
955.55	228.46
955.84	228.50
956.14	228.60
956.44	228.64
956.73	228.62
957.03	228.65
957.32	228.55
957.62	228.46
957.92	228.52
958.21	228.56
958.51	228.66
958.81	228.70
959.10	228.80
959.40	228.81
959.69	228.81
959.99	228.90
960.29	228.86
960.58	228.95
960.88	229.08
961.17	229.17
961.47	229.15
961.76	229.15
962.06	229.03
962.36	228.98
962.65	228.85
962.95	228.80
963.24	228.74
963.54	228.88
963.83	228.92
964.13	229.00
964.42	228.90
964.72	228.84
965.01	228.81
965.31	228.80
965.60	228.72
965.90	228.83
966.19	228.77
966.49	228.77
966.78	228.72
967.08	228.60
967.37	228.59
967.67	228.54
967.96	228.48
968.26	228.54
968.55	228.52
968.85	228.52
969.14	228.58
969.43	228.58
969.73	228.53
970.02	228.48
970.32	228.41
970.61	228.32
970.91	228.18
971.20	228.21
971.49	228.29
971.79	228.26
972.08	228.07
972.38	228.14
972.67	228.09
972.96	228.22
973.26	228.28
973.55	228.32
973.85	228.36
974.14	228.36
974.43	228.34
974.73	228.36
975.02	228.33
975.31	228.32
975.61	228.33
975.90	228.29
976.19	228.27
976.49	228.25
976.78	228.26
977.07	228.22
977.37	228.13
977.66	228.07
977.95	228.08
978.24	228.24
978.54	228.14
978.83	228.17
979.12	228.04
979.42	227.95
979.71	227.82
980.00	227.86
980.29	227.90
980.59	227.88
980.88	227.87
981.17	227.85
981.46	227.86
981.76	227.80
982.05	227.85
982.34	227.89
982.63	227.81
982.93	227.85
983.22	227.91
983.51	227.98
983.80	227.94
984.09	228.02
984.39	227.90
984.68	227.92
984.97	227.96
985.26	228.05
985.55	228.10
985.85	228.16
986.14	228.20
986.43	228.18
986.72	228.27
987.01	228.29
987.30	228.31
987.59	228.38
987.89	228.56
988.18	228.53
988.47	228.51
988.76	228.57
989.05	228.52
989.34	228.55
989.63	228.50
989.92	228.51
990.22	228.52
990.51	228.57
990.80	228.62
991.09	228.65
991.38	228.64
991.67	228.59
991.96	228.50
992.25	228.42
992.54	228.46
992.83	228.40
993.12	228.42
993.41	228.51
993.70	228.54
993.99	228.50
994.28	228.60
994.58	228.64
994.87	228.69
995.16	228.71
995.45	228.77
995.74	228.83
996.03	228.86
996.32	228.84
996.61	228.81
996.90	228.76
997.19	228.70
997.48	228.63
997.77	228.66
998.06	228.80
998.34	228.73
998.63	228.73
998.92	228.81
999.21	228.76
999.50	228.71
999.79	228.69
1000.08	228.67
1000.37	228.61
1000.66	228.66
1000.95	228.68
1001.24	228.78
1001.53	228.59
1001.82	228.60
1002.11	228.52
1002.40	228.46
1002.68	228.49
1002.97	228.54
1003.26	228.50
1003.55	228.48
1003.84	228.46
1004.13	228.46
1004.42	228.52
1004.71	228.47
1004.99	228.41
1005.28	228.40
1005.57	228.38
1005.86	228.32
1006.15	228.24
1006.44	228.16
1006.72	228.08
1007.01	228.01
1007.30	227.96
1007.59	228.07
1007.88	228.06
1008.17	228.10
1008.45	228.21
1008.74	228.19
1009.03	228.17
1009.32	228.20
1009.60	228.27
1009.89	228.31
1010.18	228.21
1010.47	228.10
1010.76	228.06
1011.04	228.04
1011.33	228.07
1011.62	228.04
1011.91	228.05
1012.19	228.03
1012.48	228.06
1012.77	228.06
1013.05	228.15
1013.34	228.15
1013.63	228.19
1013.92	228.13
1014.20	228.18
1014.49	228.20
1014.78	228.17
1015.06	228.09
1015.35	228.11
1015.64	228.12
1015.92	228.10
1016.21	228.11
1016.50	228.25
1016.78	228.30
1017.07	228.32
1017.36	228.19
1017.64	228.19
1017.93	228.19
1018.22	228.21
1018.50	228.17
1018.79	228.25
1019.08	228.11
1019.36	228.09
1019.65	228.05
1019.93	228.13
1020.22	228.19
1020.51	228.22
1020.79	228.30
1021.08	227.20
1021.36	226.70
1021.65	229.70
1021.94	227.60
1022.22	227.70
1022.51	228.50
1022.79	229.00
1023.08	229.60
1023.36	231.40
1023.65	228.80
>>>>>End Processed Spectral Data<<<<<
