SpectraSuite Data File
++++++++++++++++++++++++++++++++++++
Date: Fri Feb 01 14:37:52 EST 2013
User: group
Dark Spectrum Present: No
Reference Spectrum Present: No
Number of Sampled Component Spectra: 1
Spectrometers: USB2E7196
Integration Time (usec): 70000 (USB2E7196)
Spectra Averaged: 10 (USB2E7196)
Boxcar Smoothing: 10 (USB2E7196)
Correct for Electrical Dark: No (USB2E7196)
Strobe/Lamp Enabled: No (USB2E7196)
Correct for Detector Non-linearity: No (USB2E7196)
Correct for Stray Light: No (USB2E7196)
Number of Pixels in Processed Spectrum: 2048
>>>>>Begin Processed Spectral Data<<<<<
339.09	0.00
339.48	218.00
339.86	216.80
340.24	218.20
340.63	219.80
341.01	224.50
341.39	222.10
341.78	225.00
342.16	226.80
342.54	226.30
342.93	214.71
343.31	225.52
343.69	225.94
344.07	226.44
344.46	226.97
344.84	227.30
345.22	227.37
345.60	227.75
345.99	227.89
346.37	228.00
346.75	228.14
347.13	228.10
347.52	228.19
347.90	228.23
348.28	228.22
348.66	228.21
349.05	228.08
349.43	228.21
349.81	228.19
350.19	228.17
350.57	228.26
350.96	228.40
351.34	228.43
351.72	228.51
352.10	228.57
352.48	228.52
352.87	228.59
353.25	228.72
353.63	228.68
354.01	228.70
354.39	228.72
354.77	228.76
355.15	229.06
355.54	229.11
355.92	229.05
356.30	229.09
356.68	229.24
357.06	229.34
357.44	229.30
357.82	229.30
358.20	229.46
358.58	229.51
358.97	229.55
359.35	229.74
359.73	229.88
360.11	229.86
360.49	229.93
360.87	230.04
361.25	230.13
361.63	230.19
362.01	230.34
362.39	230.33
362.77	230.33
363.15	230.30
363.53	230.22
363.91	230.39
364.29	230.41
364.67	230.28
365.05	230.35
365.43	230.39
365.81	230.52
366.19	230.50
366.57	230.47
366.95	230.38
367.33	230.26
367.71	230.20
368.09	230.43
368.47	230.44
368.85	230.31
369.23	230.33
369.61	230.28
369.99	230.29
370.37	230.37
370.75	230.45
371.13	230.26
371.51	230.28
371.89	230.20
372.27	230.17
372.65	230.17
373.03	230.04
373.41	229.91
373.78	229.85
374.16	229.87
374.54	229.70
374.92	229.65
375.30	229.71
375.68	229.59
376.06	229.45
376.44	229.40
376.82	229.43
377.19	229.35
377.57	229.27
377.95	229.01
378.33	228.86
378.71	228.70
379.09	228.70
379.47	228.61
379.84	228.50
380.22	228.40
380.60	228.22
380.98	228.15
381.36	228.17
381.73	228.09
382.11	227.93
382.49	227.90
382.87	227.81
383.25	227.65
383.62	227.74
384.00	227.52
384.38	227.39
384.76	227.36
385.13	227.36
385.51	227.21
385.89	227.17
386.27	227.10
386.64	227.00
387.02	226.97
387.40	226.86
387.78	226.74
388.15	226.63
388.53	226.61
388.91	226.63
389.29	226.53
389.66	226.42
390.04	226.35
390.42	226.53
390.79	226.50
391.17	226.42
391.55	226.24
391.92	226.19
392.30	226.20
392.68	226.11
393.05	226.02
393.43	226.16
393.81	226.20
394.18	226.14
394.56	226.17
394.94	226.25
395.31	226.21
395.69	226.36
396.06	226.50
396.44	226.59
396.82	226.55
397.19	226.68
397.57	226.73
397.95	226.74
398.32	226.54
398.70	226.56
399.07	226.67
399.45	226.76
399.82	226.90
400.20	226.97
400.58	227.00
400.95	227.02
401.33	227.07
401.70	227.28
402.08	227.43
402.45	227.65
402.83	227.70
403.20	227.87
403.58	227.97
403.95	228.15
404.33	228.33
404.71	228.43
405.08	228.62
405.46	228.89
405.83	229.18
406.21	229.47
406.58	229.76
406.96	229.93
407.33	230.28
407.70	230.56
408.08	231.04
408.45	231.44
408.83	231.84
409.20	232.16
409.58	232.29
409.95	232.72
410.33	232.96
410.70	233.35
411.08	233.84
411.45	234.29
411.82	234.74
412.20	235.33
412.57	235.93
412.95	236.43
413.32	236.83
413.69	237.40
414.07	238.02
414.44	238.65
414.82	239.44
415.19	240.11
415.56	240.80
415.94	241.43
416.31	242.29
416.68	243.18
417.06	244.18
417.43	245.20
417.81	246.34
418.18	247.63
418.55	248.84
418.93	250.11
419.30	251.48
419.67	252.80
420.04	254.13
420.42	255.67
420.79	257.38
421.16	259.30
421.54	261.13
421.91	262.90
422.28	264.76
422.66	266.72
423.03	268.73
423.40	270.86
423.77	273.11
424.15	275.36
424.52	277.74
424.89	280.15
425.26	282.69
425.64	284.91
426.01	287.32
426.38	289.90
426.75	292.40
427.13	295.03
427.50	297.96
427.87	300.93
428.24	303.99
428.61	306.79
428.99	309.97
429.36	313.34
429.73	316.82
430.10	320.26
430.47	323.74
430.85	327.24
431.22	330.84
431.59	334.69
431.96	338.42
432.33	342.56
432.70	346.59
433.08	351.21
433.45	355.39
433.82	359.60
434.19	364.43
434.56	369.32
434.93	373.73
435.30	378.19
435.68	383.11
436.05	388.01
436.42	392.85
436.79	397.08
437.16	401.92
437.53	406.66
437.90	411.48
438.27	416.40
438.64	421.41
439.01	426.22
439.38	430.31
439.75	434.08
440.13	438.48
440.50	442.85
440.87	446.28
441.24	450.28
441.61	454.58
441.98	457.51
442.35	461.02
442.72	464.78
443.09	468.19
443.46	470.32
443.83	471.86
444.20	473.14
444.57	475.15
444.94	476.03
445.31	477.20
445.68	478.45
446.05	479.03
446.42	478.98
446.79	478.74
447.16	478.58
447.53	478.80
447.90	477.30
448.27	475.86
448.64	473.68
449.01	472.11
449.37	469.18
449.74	466.31
450.11	463.01
450.48	459.33
450.85	455.45
451.22	452.29
451.59	449.13
451.96	446.29
452.33	442.15
452.70	438.34
453.07	434.00
453.43	429.38
453.80	425.00
454.17	420.57
454.54	416.50
454.91	412.14
455.28	407.71
455.65	403.83
456.02	399.93
456.38	396.52
456.75	392.30
457.12	388.60
457.49	385.15
457.86	381.53
458.23	378.31
458.59	374.95
458.96	371.52
459.33	368.44
459.70	365.50
460.07	363.09
460.43	360.36
460.80	357.59
461.17	355.15
461.54	352.49
461.91	350.08
462.27	347.69
462.64	345.51
463.01	343.27
463.38	340.92
463.74	338.44
464.11	336.59
464.48	334.68
464.85	332.86
465.21	331.29
465.58	329.78
465.95	327.96
466.32	326.51
466.68	324.84
467.05	323.30
467.42	321.55
467.78	319.97
468.15	318.46
468.52	317.36
468.88	315.71
469.25	314.26
469.62	313.30
469.98	312.01
470.35	310.83
470.72	309.63
471.08	308.42
471.45	307.47
471.82	306.20
472.18	305.06
472.55	304.07
472.92	303.26
473.28	302.19
473.65	301.26
474.02	300.30
474.38	299.51
474.75	298.82
475.11	298.00
475.48	297.32
475.85	296.68
476.21	295.99
476.58	295.40
476.94	295.06
477.31	294.37
477.67	293.89
478.04	293.44
478.41	293.14
478.77	292.91
479.14	292.52
479.50	292.21
479.87	292.06
480.23	291.76
480.60	291.30
480.96	291.07
481.33	290.96
481.69	290.86
482.06	290.67
482.42	290.45
482.79	290.34
483.15	290.20
483.52	290.17
483.88	290.02
484.25	290.07
484.61	290.09
484.98	290.05
485.34	290.12
485.71	290.24
486.07	290.29
486.44	290.30
486.80	290.41
487.17	290.59
487.53	290.70
487.90	291.10
488.26	291.44
488.62	291.73
488.99	292.02
489.35	292.26
489.72	292.75
490.08	293.02
490.44	293.40
490.81	293.76
491.17	294.05
491.54	294.37
491.90	294.73
492.26	295.05
492.63	295.61
492.99	296.03
493.36	296.35
493.72	296.84
494.08	297.30
494.45	297.83
494.81	298.43
495.17	298.96
495.54	299.34
495.90	299.80
496.26	300.22
496.63	300.65
496.99	301.16
497.35	301.63
497.72	302.13
498.08	302.66
498.44	303.22
498.80	303.86
499.17	304.49
499.53	305.09
499.89	305.68
500.26	306.10
500.62	306.58
500.98	307.20
501.34	307.55
501.71	307.99
502.07	308.31
502.43	308.72
502.79	309.10
503.16	309.47
503.52	309.87
503.88	310.25
504.24	310.70
504.60	311.15
504.97	311.38
505.33	311.75
505.69	312.27
506.05	312.39
506.41	312.64
506.78	312.83
507.14	313.00
507.50	313.18
507.86	313.48
508.22	313.63
508.59	313.74
508.95	313.99
509.31	314.29
509.67	314.46
510.03	314.64
510.39	314.71
510.75	314.94
511.12	315.15
511.48	315.44
511.84	315.36
512.20	315.31
512.56	315.51
512.92	315.72
513.28	315.77
513.64	316.09
514.00	316.25
514.37	316.48
514.73	316.78
515.09	317.05
515.45	317.11
515.81	317.44
516.17	317.77
516.53	318.12
516.89	318.44
517.25	318.83
517.61	319.26
517.97	319.88
518.33	320.38
518.69	320.87
519.05	321.46
519.41	322.32
519.77	323.26
520.13	324.07
520.49	324.69
520.85	325.47
521.21	326.50
521.57	327.49
521.93	328.44
522.29	329.58
522.65	330.67
523.01	332.04
523.37	333.25
523.73	334.72
524.09	336.25
524.45	337.74
524.81	339.41
525.17	341.11
525.53	342.67
525.89	344.44
526.25	346.30
526.61	348.12
526.97	350.12
527.33	352.08
527.68	354.50
528.04	357.04
528.40	359.38
528.76	361.70
529.12	364.21
529.48	366.80
529.84	369.40
530.20	372.17
530.56	375.00
530.91	378.17
531.27	381.16
531.63	384.35
531.99	387.61
532.35	390.73
532.71	394.10
533.07	397.75
533.42	401.28
533.78	404.79
534.14	408.49
534.50	412.16
534.86	415.98
535.21	419.53
535.57	423.50
535.93	427.48
536.29	431.63
536.65	435.80
537.00	440.01
537.36	444.23
537.72	448.43
538.08	452.73
538.44	457.05
538.79	461.55
539.15	465.88
539.51	470.43
539.87	475.10
540.22	479.76
540.58	484.43
540.94	488.96
541.29	493.74
541.65	498.59
542.01	503.55
542.37	508.49
542.72	513.46
543.08	518.12
543.44	523.29
543.79	528.19
544.15	533.23
544.51	538.58
544.87	543.96
545.22	549.29
545.58	554.55
545.94	559.57
546.29	564.61
546.65	569.62
547.01	574.67
547.36	579.98
547.72	584.85
548.07	589.87
548.43	595.30
548.79	600.29
549.14	605.23
549.50	610.08
549.86	615.06
550.21	620.08
550.57	625.55
550.92	630.60
551.28	635.75
551.64	640.74
551.99	645.58
552.35	650.35
552.70	655.23
553.06	660.41
553.41	665.59
553.77	670.89
554.13	676.13
554.48	681.36
554.84	686.26
555.19	691.41
555.55	696.49
555.90	701.39
556.26	706.67
556.61	711.86
556.97	716.83
557.32	721.87
557.68	726.62
558.03	731.13
558.39	735.90
558.74	740.50
559.10	745.35
559.45	750.21
559.81	755.19
560.16	759.95
560.52	764.41
560.87	769.04
561.23	773.33
561.58	777.77
561.94	782.11
562.29	786.63
562.64	790.90
563.00	795.18
563.35	799.73
563.71	804.10
564.06	808.59
564.42	812.96
564.77	817.25
565.12	821.77
565.48	826.06
565.83	830.11
566.19	834.32
566.54	838.09
566.89	841.80
567.25	845.61
567.60	849.78
567.96	853.70
568.31	857.45
568.66	861.18
569.02	864.88
569.37	868.30
569.72	871.76
570.08	875.18
570.43	878.48
570.78	881.40
571.14	884.18
571.49	887.08
571.84	890.23
572.20	893.04
572.55	895.54
572.90	898.20
573.26	900.90
573.61	903.37
573.96	906.05
574.31	908.13
574.67	909.97
575.02	911.59
575.37	913.49
575.72	914.93
576.08	916.76
576.43	918.56
576.78	920.23
577.13	922.00
577.49	923.59
577.84	925.27
578.19	926.72
578.54	928.20
578.90	929.20
579.25	930.00
579.60	930.90
579.95	932.04
580.30	932.75
580.66	933.48
581.01	934.10
581.36	935.09
581.71	936.30
582.06	937.23
582.42	938.02
582.77	938.49
583.12	939.00
583.47	939.36
583.82	939.76
584.17	940.27
584.53	940.33
584.88	940.73
585.23	941.10
585.58	941.36
585.93	941.50
586.28	941.81
586.63	942.30
586.98	942.69
587.34	942.94
587.69	943.08
588.04	943.12
588.39	943.59
588.74	943.00
589.09	942.57
589.44	942.01
589.79	941.63
590.14	941.60
590.49	941.62
590.84	941.18
591.19	940.75
591.54	939.75
591.89	938.81
592.25	938.07
592.60	936.87
592.95	935.88
593.30	935.04
593.65	933.95
594.00	932.76
594.35	931.90
594.70	930.37
595.05	929.34
595.40	928.13
595.75	926.39
596.10	925.30
596.45	924.43
596.80	923.59
597.15	922.57
597.50	921.10
597.85	919.86
598.19	918.81
598.54	917.60
598.89	916.73
599.24	915.89
599.59	914.64
599.94	913.52
600.29	912.32
600.64	910.78
600.99	909.24
601.34	907.82
601.69	905.81
602.04	904.60
602.39	903.17
602.74	901.85
603.08	900.62
603.43	899.35
603.78	897.70
604.13	895.95
604.48	894.13
604.83	892.45
605.18	890.84
605.53	888.87
605.87	886.61
606.22	884.72
606.57	882.66
606.92	880.80
607.27	878.84
607.62	876.97
607.96	875.38
608.31	873.48
608.66	871.40
609.01	869.36
609.36	866.88
609.70	864.18
610.05	861.44
610.40	859.17
610.75	856.62
611.10	854.02
611.44	851.30
611.79	848.92
612.14	846.21
612.49	843.04
612.83	840.26
613.18	837.41
613.53	834.70
613.88	831.72
614.22	828.84
614.57	825.71
614.92	822.80
615.27	820.10
615.61	817.16
615.96	814.66
616.31	812.05
616.65	809.95
617.00	807.67
617.35	805.20
617.70	802.25
618.04	799.25
618.39	796.45
618.74	793.83
619.08	790.80
619.43	788.37
619.78	786.07
620.12	783.49
620.47	781.21
620.82	778.53
621.16	775.97
621.51	773.37
621.85	771.10
622.20	768.36
622.55	765.40
622.89	762.91
623.24	760.09
623.59	757.49
623.93	754.44
624.28	751.69
624.62	749.15
624.97	746.80
625.32	744.42
625.66	741.98
626.01	739.51
626.35	737.05
626.70	734.05
627.04	731.11
627.39	728.38
627.73	725.60
628.08	722.76
628.43	720.25
628.77	717.51
629.12	714.46
629.46	711.47
629.81	708.28
630.15	705.15
630.50	701.91
630.84	698.70
631.19	695.62
631.53	692.62
631.88	689.52
632.22	686.20
632.57	683.21
632.91	680.19
633.26	677.25
633.60	673.93
633.95	671.24
634.29	668.37
634.64	665.52
634.98	662.44
635.32	659.74
635.67	657.10
636.01	654.45
636.36	651.63
636.70	649.11
637.05	646.64
637.39	644.31
637.73	641.71
638.08	639.31
638.42	636.99
638.77	634.54
639.11	631.82
639.45	629.09
639.80	626.49
640.14	623.87
640.49	620.90
640.83	618.45
641.17	615.76
641.52	613.26
641.86	610.60
642.20	608.13
642.55	605.47
642.89	602.43
643.23	599.52
643.58	597.26
643.92	594.49
644.26	591.82
644.61	589.14
644.95	586.61
645.29	583.72
645.64	580.65
645.98	577.76
646.32	575.20
646.66	572.60
647.01	569.87
647.35	567.20
647.69	564.72
648.04	562.31
648.38	559.41
648.72	556.58
649.06	553.63
649.41	550.89
649.75	548.09
650.09	545.55
650.43	542.93
650.78	540.13
651.12	537.45
651.46	534.98
651.80	532.25
652.14	529.82
652.49	527.46
652.83	525.10
653.17	522.55
653.51	519.95
653.85	517.59
654.20	514.98
654.54	512.25
654.88	509.68
655.22	506.94
655.56	504.56
655.90	502.35
656.25	500.26
656.59	497.92
656.93	495.75
657.27	493.53
657.61	491.01
657.95	488.69
658.29	486.50
658.64	484.10
658.98	481.84
659.32	479.33
659.66	476.95
660.00	474.71
660.34	472.59
660.68	470.35
661.02	468.11
661.36	466.11
661.70	464.18
662.05	462.29
662.39	460.43
662.73	458.48
663.07	456.47
663.41	454.51
663.75	452.56
664.09	450.47
664.43	448.30
664.77	446.41
665.11	444.62
665.45	442.57
665.79	440.73
666.13	438.74
666.47	436.85
666.81	434.97
667.15	432.97
667.49	431.03
667.83	429.23
668.17	427.25
668.51	425.30
668.85	423.38
669.19	421.59
669.53	419.67
669.87	417.86
670.21	416.01
670.55	414.20
670.89	412.67
671.23	411.00
671.57	409.44
671.91	407.96
672.25	406.18
672.58	404.74
672.92	403.04
673.26	401.70
673.60	400.25
673.94	398.58
674.28	397.22
674.62	395.84
674.96	394.22
675.30	392.80
675.64	391.25
675.97	389.92
676.31	388.41
676.65	386.96
676.99	385.53
677.33	383.94
677.67	382.52
678.01	380.79
678.34	379.28
678.68	377.79
679.02	376.30
679.36	374.93
679.70	373.40
680.04	371.98
680.37	370.46
680.71	369.02
681.05	367.85
681.39	366.48
681.73	365.06
682.06	363.96
682.40	362.61
682.74	361.46
683.08	360.05
683.42	358.65
683.75	357.39
684.09	355.98
684.43	354.80
684.77	353.39
685.10	352.23
685.44	350.96
685.78	349.66
686.12	348.28
686.45	347.05
686.79	345.82
687.13	344.64
687.46	343.31
687.80	342.06
688.14	340.71
688.48	339.43
688.81	338.21
689.15	336.90
689.49	335.77
689.82	334.68
690.16	333.52
690.50	332.41
690.83	331.37
691.17	330.36
691.51	329.20
691.84	328.11
692.18	327.05
692.52	325.98
692.85	325.09
693.19	324.19
693.52	323.09
693.86	322.14
694.20	321.06
694.53	320.09
694.87	319.05
695.21	318.15
695.54	317.20
695.88	316.11
696.21	315.10
696.55	314.12
696.88	312.97
697.22	312.00
697.56	311.14
697.89	310.24
698.23	309.35
698.56	308.64
698.90	307.92
699.23	307.00
699.57	306.18
699.90	305.23
700.24	304.32
700.58	303.46
700.91	302.54
701.25	301.88
701.58	301.21
701.92	300.53
702.25	299.78
702.59	299.02
702.92	298.38
703.26	297.67
703.59	297.00
703.93	296.62
704.26	295.93
704.60	295.27
704.93	294.45
705.26	293.67
705.60	292.90
705.93	292.22
706.27	291.68
706.60	291.14
706.94	290.57
707.27	289.97
707.61	289.31
707.94	288.80
708.27	288.11
708.61	287.45
708.94	286.80
709.28	286.21
709.61	285.63
709.94	285.10
710.28	284.58
710.61	283.97
710.95	283.20
711.28	282.81
711.61	282.14
711.95	281.71
712.28	281.22
712.61	280.64
712.95	280.21
713.28	279.73
713.61	279.16
713.95	278.64
714.28	278.05
714.61	277.51
714.95	276.96
715.28	276.43
715.61	275.92
715.95	275.44
716.28	274.87
716.61	274.36
716.95	273.82
717.28	273.25
717.61	272.80
717.94	272.30
718.28	271.52
718.61	271.06
718.94	270.50
719.27	270.07
719.61	269.66
719.94	269.10
720.27	268.50
720.60	267.91
720.94	267.48
721.27	267.07
721.60	266.70
721.93	266.22
722.27	265.81
722.60	265.38
722.93	264.90
723.26	264.47
723.59	264.05
723.93	263.73
724.26	263.38
724.59	262.93
724.92	262.50
725.25	262.23
725.59	261.89
725.92	261.53
726.25	261.14
726.58	260.66
726.91	260.28
727.24	260.09
727.57	259.79
727.91	259.38
728.24	259.06
728.57	258.59
728.90	258.20
729.23	257.81
729.56	257.43
729.89	257.16
730.22	256.84
730.55	256.60
730.89	256.29
731.22	255.89
731.55	255.56
731.88	255.32
732.21	255.00
732.54	254.60
732.87	254.30
733.20	253.89
733.53	253.75
733.86	253.46
734.19	253.07
734.52	252.77
734.85	252.52
735.18	252.12
735.51	252.06
735.84	251.98
736.17	251.84
736.50	251.62
736.83	251.62
737.16	251.41
737.49	251.19
737.82	250.84
738.15	250.77
738.48	250.55
738.81	250.23
739.14	250.01
739.47	249.77
739.80	249.70
740.13	249.70
740.46	249.42
740.79	249.23
741.12	249.00
741.45	248.82
741.78	248.67
742.11	248.57
742.44	248.24
742.77	247.96
743.10	247.72
743.43	247.44
743.75	246.89
744.08	246.93
744.41	246.78
744.74	246.59
745.07	246.36
745.40	246.25
745.73	246.19
746.06	245.94
746.39	246.03
746.71	245.67
747.04	245.42
747.37	245.25
747.70	245.06
748.03	244.85
748.36	244.71
748.68	244.53
749.01	244.32
749.34	244.27
749.67	244.16
750.00	244.10
750.33	244.16
750.65	244.15
750.98	243.76
751.31	243.44
751.64	243.41
751.97	243.33
752.29	243.10
752.62	242.84
752.95	242.80
753.28	242.51
753.60	242.37
753.93	242.35
754.26	242.24
754.59	242.04
754.91	241.93
755.24	241.85
755.57	241.60
755.90	241.47
756.22	241.27
756.55	241.10
756.88	240.95
757.20	240.76
757.53	240.48
757.86	240.40
758.19	240.49
758.51	240.36
758.84	240.20
759.17	240.10
759.49	240.08
759.82	240.04
760.15	239.93
760.47	239.82
760.80	239.55
761.13	239.44
761.45	239.33
761.78	239.21
762.11	239.11
762.43	238.97
762.76	238.91
763.08	238.80
763.41	238.72
763.74	238.56
764.06	238.40
764.39	238.40
764.71	238.24
765.04	237.98
765.37	237.78
765.69	237.61
766.02	237.47
766.34	237.36
766.67	237.16
767.00	237.05
767.32	237.13
767.65	237.13
767.97	237.14
768.30	237.00
768.62	236.85
768.95	236.75
769.27	236.71
769.60	236.65
769.92	236.53
770.25	236.39
770.57	236.17
770.90	236.03
771.22	235.98
771.55	235.82
771.87	235.80
772.20	235.72
772.52	235.81
772.85	235.96
773.17	235.80
773.50	235.64
773.82	235.57
774.15	235.33
774.47	235.26
774.80	235.03
775.12	235.10
775.45	235.06
775.77	234.92
776.09	234.83
776.42	234.75
776.74	234.73
777.07	234.58
777.39	234.57
777.72	234.45
778.04	234.34
778.36	234.37
778.69	234.36
779.01	234.20
779.33	233.80
779.66	233.55
779.98	233.50
780.31	233.54
780.63	233.52
780.95	233.51
781.28	233.31
781.60	233.27
781.92	233.14
782.25	233.15
782.57	233.16
782.89	233.14
783.22	232.94
783.54	232.95
783.86	232.96
784.19	232.92
784.51	232.98
784.83	232.90
785.16	232.90
785.48	232.80
785.80	232.84
786.12	232.94
786.45	232.90
786.77	232.93
787.09	232.92
787.42	232.80
787.74	232.80
788.06	232.82
788.38	232.68
788.71	232.65
789.03	232.60
789.35	232.56
789.67	232.53
789.99	232.68
790.32	232.61
790.64	232.53
790.96	232.68
791.28	232.62
791.61	232.59
791.93	232.46
792.25	232.38
792.57	232.50
792.89	232.51
793.21	232.51
793.54	232.38
793.86	232.30
794.18	232.33
794.50	232.10
794.82	232.05
795.14	232.13
795.47	232.03
795.79	232.07
796.11	232.00
796.43	231.82
796.75	231.70
797.07	231.59
797.39	231.63
797.71	231.36
798.04	231.34
798.36	231.41
798.68	231.51
799.00	231.50
799.32	231.40
799.64	231.39
799.96	231.23
800.28	231.32
800.60	231.29
800.92	231.20
801.24	231.28
801.56	231.20
801.89	231.20
802.21	231.20
802.53	231.09
802.85	231.09
803.17	231.17
803.49	231.13
803.81	231.12
804.13	231.12
804.45	231.15
804.77	231.14
805.09	230.95
805.41	230.81
805.73	230.76
806.05	230.66
806.37	230.59
806.69	230.68
807.01	230.55
807.33	230.47
807.65	230.43
807.97	230.46
808.28	230.46
808.60	230.47
808.92	230.47
809.24	230.50
809.56	230.37
809.88	230.34
810.20	230.22
810.52	230.41
810.84	230.19
811.16	230.13
811.48	230.08
811.80	230.18
812.12	230.09
812.43	230.01
812.75	229.90
813.07	229.90
813.39	229.77
813.71	229.66
814.03	229.66
814.35	229.64
814.67	229.58
814.98	229.53
815.30	229.45
815.62	229.35
815.94	229.19
816.26	229.20
816.58	229.10
816.89	229.08
817.21	228.80
817.53	228.82
817.85	228.77
818.17	228.66
818.48	228.54
818.80	228.56
819.12	228.52
819.44	228.57
819.76	228.49
820.07	228.42
820.39	228.49
820.71	228.42
821.03	228.30
821.34	228.23
821.66	228.20
821.98	228.21
822.30	228.15
822.61	228.34
822.93	228.32
823.25	228.28
823.57	228.39
823.88	228.50
824.20	228.56
824.52	228.56
824.83	228.67
825.15	228.66
825.47	228.65
825.79	228.69
826.10	228.62
826.42	228.61
826.74	228.76
827.05	228.66
827.37	228.71
827.69	228.77
828.00	228.75
828.32	228.76
828.64	228.64
828.95	228.85
829.27	228.67
829.58	228.70
829.90	228.78
830.22	228.84
830.53	228.80
830.85	228.80
831.17	228.91
831.48	228.83
831.80	228.78
832.11	228.79
832.43	228.81
832.75	228.85
833.06	228.95
833.38	228.91
833.69	229.02
834.01	229.05
834.32	229.10
834.64	229.14
834.96	229.14
835.27	229.19
835.59	229.10
835.90	229.20
836.22	229.18
836.53	229.20
836.85	229.11
837.16	229.31
837.48	229.34
837.79	229.31
838.11	229.36
838.42	229.48
838.74	229.49
839.05	229.51
839.37	229.57
839.68	229.41
840.00	229.34
840.31	229.28
840.63	229.29
840.94	229.29
841.26	229.31
841.57	229.34
841.88	229.34
842.20	229.32
842.51	229.23
842.83	229.17
843.14	229.35
843.46	229.36
843.77	229.08
844.08	229.07
844.40	229.02
844.71	229.00
845.03	228.87
845.34	228.90
845.65	228.84
845.97	228.85
846.28	228.92
846.60	228.96
846.91	228.97
847.22	228.90
847.54	228.88
847.85	228.81
848.16	228.78
848.48	228.70
848.79	228.77
849.10	228.78
849.42	228.90
849.73	228.70
850.04	228.71
850.36	228.75
850.67	228.63
850.98	228.55
851.30	228.55
851.61	228.56
851.92	228.54
852.23	228.57
852.55	228.53
852.86	228.58
853.17	228.55
853.49	228.56
853.80	228.61
854.11	228.59
854.42	228.60
854.74	228.60
855.05	228.66
855.36	228.60
855.67	228.60
855.99	228.51
856.30	228.73
856.61	228.59
856.92	228.60
857.23	228.67
857.55	228.72
857.86	228.64
858.17	228.65
858.48	228.68
858.79	228.66
859.11	228.77
859.42	228.63
859.73	228.64
860.04	228.66
860.35	228.59
860.66	228.58
860.98	228.57
861.29	228.50
861.60	228.47
861.91	228.41
862.22	228.38
862.53	228.34
862.84	228.01
863.16	228.17
863.47	228.04
863.78	228.03
864.09	227.98
864.40	228.02
864.71	227.98
865.02	227.87
865.33	227.80
865.64	227.63
865.95	227.68
866.27	227.72
866.58	227.75
866.89	227.80
867.20	227.84
867.51	227.82
867.82	227.87
868.13	227.95
868.44	228.01
868.75	228.11
869.06	228.17
869.37	228.31
869.68	228.24
869.99	228.39
870.30	228.38
870.61	228.42
870.92	228.55
871.23	228.60
871.54	228.70
871.85	228.69
872.16	228.64
872.47	228.69
872.78	228.51
873.09	228.46
873.40	228.45
873.71	228.40
874.02	228.43
874.33	228.41
874.64	228.40
874.95	228.48
875.26	228.36
875.56	228.32
875.87	228.29
876.18	228.30
876.49	228.43
876.80	228.38
877.11	228.39
877.42	228.29
877.73	228.20
878.04	228.09
878.35	228.20
878.66	228.31
878.96	228.32
879.27	228.46
879.58	228.51
879.89	228.52
880.20	228.60
880.51	228.70
880.82	228.72
881.12	228.71
881.43	228.65
881.74	228.68
882.05	228.70
882.36	228.75
882.67	228.73
882.97	228.50
883.28	228.56
883.59	228.47
883.90	228.45
884.21	228.53
884.51	228.66
884.82	228.59
885.13	228.62
885.44	228.62
885.74	228.69
886.05	228.56
886.36	228.49
886.67	228.44
886.98	228.41
887.28	228.40
887.59	228.30
887.90	228.29
888.20	228.30
888.51	228.36
888.82	228.26
889.13	228.31
889.43	228.46
889.74	228.47
890.05	228.57
890.35	228.54
890.66	228.59
890.97	228.50
891.28	228.50
891.58	228.46
891.89	228.39
892.20	228.27
892.50	228.28
892.81	228.29
893.12	228.21
893.42	228.21
893.73	228.14
894.04	228.27
894.34	228.19
894.65	228.13
894.95	228.07
895.26	228.10
895.57	228.20
895.87	228.06
896.18	228.03
896.48	227.92
896.79	227.96
897.10	227.92
897.40	227.97
897.71	227.99
898.01	227.99
898.32	228.05
898.63	228.06
898.93	228.09
899.24	228.16
899.54	228.15
899.85	228.02
900.15	228.02
900.46	227.94
900.76	227.91
901.07	227.88
901.38	227.83
901.68	227.82
901.99	227.75
902.29	227.75
902.60	227.82
902.90	227.84
903.21	227.84
903.51	227.80
903.82	227.81
904.12	227.81
904.43	227.85
904.73	227.83
905.03	227.89
905.34	228.07
905.64	228.09
905.95	228.17
906.25	228.20
906.56	228.30
906.86	228.36
907.17	228.40
907.47	228.40
907.77	228.46
908.08	228.45
908.38	228.42
908.69	228.48
908.99	228.45
909.30	228.52
909.60	228.55
909.90	228.60
910.21	228.56
910.51	228.47
910.81	228.53
911.12	228.52
911.42	228.50
911.73	228.37
912.03	228.30
912.33	228.39
912.64	228.40
912.94	228.40
913.24	228.39
913.55	228.35
913.85	228.39
914.15	228.42
914.46	228.42
914.76	228.41
915.06	228.46
915.37	228.38
915.67	228.40
915.97	228.46
916.27	228.47
916.58	228.51
916.88	228.61
917.18	228.57
917.49	228.73
917.79	228.79
918.09	228.83
918.39	228.92
918.70	228.92
919.00	228.92
919.30	228.99
919.60	228.96
919.91	228.94
920.21	228.97
920.51	228.85
920.81	228.81
921.12	228.73
921.42	228.57
921.72	228.65
922.02	228.64
922.32	228.56
922.63	228.53
922.93	228.55
923.23	228.42
923.53	228.36
923.83	228.26
924.13	228.27
924.44	228.33
924.74	228.27
925.04	228.23
925.34	228.23
925.64	228.11
925.94	228.04
926.24	228.13
926.55	228.15
926.85	228.20
927.15	228.29
927.45	228.40
927.75	228.38
928.05	228.38
928.35	228.38
928.65	228.46
928.95	228.51
929.26	228.40
929.56	228.55
929.86	228.61
930.16	228.52
930.46	228.41
930.76	228.36
931.06	228.16
931.36	227.98
931.66	228.00
931.96	227.98
932.26	228.01
932.56	228.05
932.86	228.03
933.16	228.04
933.46	227.96
933.76	227.83
934.06	227.91
934.36	228.00
934.66	227.92
934.96	227.79
935.26	227.76
935.56	227.84
935.86	227.72
936.16	227.64
936.46	227.63
936.76	227.63
937.06	227.52
937.36	227.70
937.66	227.75
937.96	227.70
938.26	227.72
938.56	227.77
938.86	227.68
939.16	227.65
939.46	227.70
939.76	227.69
940.06	227.73
940.35	227.79
940.65	227.60
940.95	227.65
941.25	227.64
941.55	227.66
941.85	227.59
942.15	227.69
942.45	227.77
942.75	227.84
943.04	227.95
943.34	228.10
943.64	228.10
943.94	228.20
944.24	228.23
944.54	228.25
944.84	228.24
945.13	228.37
945.43	228.40
945.73	228.38
946.03	228.46
946.33	228.47
946.62	228.47
946.92	228.57
947.22	228.70
947.52	228.81
947.82	228.82
948.11	228.88
948.41	228.84
948.71	228.85
949.01	228.90
949.31	228.90
949.60	228.83
949.90	228.92
950.20	228.88
950.50	228.95
950.79	229.03
951.09	229.14
951.39	229.01
951.69	229.12
951.98	229.20
952.28	229.28
952.58	229.34
952.87	229.34
953.17	229.37
953.47	229.29
953.76	229.28
954.06	229.28
954.36	229.31
954.66	229.33
954.95	229.31
955.25	229.28
955.55	229.20
955.84	229.18
956.14	229.16
956.44	229.14
956.73	229.09
957.03	228.98
957.32	228.94
957.62	228.99
957.92	228.91
958.21	228.88
958.51	229.05
958.81	229.05
959.10	229.01
959.40	229.00
959.69	229.04
959.99	228.93
960.29	228.92
960.58	228.84
960.88	228.88
961.17	228.80
961.47	228.84
961.76	228.80
962.06	228.78
962.36	228.69
962.65	228.79
962.95	228.77
963.24	228.79
963.54	228.64
963.83	228.62
964.13	228.60
964.42	228.42
964.72	228.20
965.01	228.21
965.31	228.13
965.60	228.08
965.90	228.15
966.19	228.21
966.49	228.15
966.78	228.05
967.08	228.00
967.37	228.00
967.67	227.87
967.96	227.85
968.26	227.84
968.55	227.79
968.85	227.62
969.14	227.61
969.43	227.66
969.73	227.75
970.02	227.67
970.32	227.62
970.61	227.62
970.91	227.54
971.20	227.42
971.49	227.40
971.79	227.38
972.08	227.14
972.38	227.10
972.67	227.11
972.96	227.20
973.26	227.12
973.55	227.30
973.85	227.30
974.14	227.33
974.43	227.34
974.73	227.29
975.02	227.28
975.31	227.25
975.61	227.17
975.90	227.10
976.19	227.09
976.49	227.17
976.78	227.29
977.07	227.23
977.37	227.17
977.66	227.22
977.95	227.31
978.24	227.39
978.54	227.47
978.83	227.44
979.12	227.53
979.42	227.50
979.71	227.48
980.00	227.48
980.29	227.52
980.59	227.55
980.88	227.70
981.17	227.79
981.46	227.89
981.76	227.93
982.05	228.10
982.34	228.17
982.63	228.07
982.93	228.09
983.22	228.28
983.51	228.38
983.80	228.45
984.09	228.51
984.39	228.61
984.68	228.64
984.97	228.69
985.26	228.62
985.55	228.69
985.85	228.58
986.14	228.62
986.43	228.67
986.72	228.63
987.01	228.53
987.30	228.58
987.59	228.54
987.89	228.63
988.18	228.55
988.47	228.59
988.76	228.69
989.05	228.65
989.34	228.60
989.63	228.70
989.92	228.76
990.22	228.78
990.51	228.73
990.80	228.79
991.09	228.90
991.38	228.84
991.67	228.90
991.96	228.90
992.25	228.91
992.54	228.87
992.83	228.91
993.12	229.04
993.41	229.05
993.70	229.10
993.99	229.02
994.28	228.95
994.58	228.92
994.87	228.88
995.16	228.88
995.45	228.83
995.74	228.75
996.03	228.72
996.32	228.56
996.61	228.50
996.90	228.36
997.19	228.22
997.48	228.32
997.77	228.30
998.06	228.30
998.34	228.24
998.63	228.35
998.92	228.31
999.21	228.20
999.50	228.10
999.79	227.99
1000.08	228.10
1000.37	228.17
1000.66	228.12
1000.95	228.17
1001.24	228.18
1001.53	228.30
1001.82	228.27
1002.11	228.16
1002.40	228.19
1002.68	228.25
1002.97	228.37
1003.26	228.31
1003.55	228.33
1003.84	228.32
1004.13	228.39
1004.42	228.34
1004.71	228.22
1004.99	228.24
1005.28	228.40
1005.57	228.42
1005.86	228.41
1006.15	228.30
1006.44	228.21
1006.72	228.25
1007.01	228.25
1007.30	228.25
1007.59	228.06
1007.88	227.98
1008.17	228.00
1008.45	227.92
1008.74	227.84
1009.03	227.79
1009.32	227.82
1009.60	227.72
1009.89	227.72
1010.18	227.57
1010.47	227.54
1010.76	227.44
1011.04	227.40
1011.33	227.33
1011.62	227.35
1011.91	227.30
1012.19	227.25
1012.48	227.26
1012.77	227.21
1013.05	227.26
1013.34	227.24
1013.63	227.23
1013.92	227.29
1014.20	227.27
1014.49	227.32
1014.78	227.33
1015.06	227.25
1015.35	227.35
1015.64	227.40
1015.92	227.50
1016.21	227.52
1016.50	227.68
1016.78	227.78
1017.07	227.87
1017.36	227.86
1017.64	227.91
1017.93	228.01
1018.22	228.02
1018.50	228.12
1018.79	228.16
1019.08	228.10
1019.36	228.07
1019.65	228.19
1019.93	228.29
1020.22	228.31
1020.51	228.46
1020.79	228.52
1021.08	226.80
1021.36	229.10
1021.65	228.10
1021.94	228.90
1022.22	227.30
1022.51	228.70
1022.79	229.30
1023.08	227.90
1023.36	230.30
1023.65	228.60
>>>>>End Processed Spectral Data<<<<<
