SpectraSuite Data File
++++++++++++++++++++++++++++++++++++
Date: Fri Feb 01 14:37:40 EST 2013
User: group
Dark Spectrum Present: No
Reference Spectrum Present: No
Number of Sampled Component Spectra: 1
Spectrometers: USB2E7196
Integration Time (usec): 70000 (USB2E7196)
Spectra Averaged: 10 (USB2E7196)
Boxcar Smoothing: 10 (USB2E7196)
Correct for Electrical Dark: No (USB2E7196)
Strobe/Lamp Enabled: No (USB2E7196)
Correct for Detector Non-linearity: No (USB2E7196)
Correct for Stray Light: No (USB2E7196)
Number of Pixels in Processed Spectrum: 2048
>>>>>Begin Processed Spectral Data<<<<<
339.09	0.00
339.48	216.90
339.86	217.60
340.24	219.10
340.63	221.40
341.01	224.10
341.39	223.50
341.78	224.20
342.16	224.30
342.54	224.60
342.93	214.65
343.31	225.57
343.69	226.14
344.07	226.66
344.46	227.04
344.84	227.29
345.22	227.48
345.60	227.64
345.99	227.78
346.37	227.90
346.75	228.06
347.13	228.08
347.52	228.07
347.90	228.10
348.28	228.11
348.66	228.11
349.05	228.07
349.43	228.15
349.81	228.09
350.19	228.16
350.57	228.06
350.96	228.09
351.34	228.05
351.72	228.01
352.10	227.97
352.48	227.96
352.87	228.07
353.25	228.08
353.63	228.23
354.01	228.24
354.39	228.35
354.77	228.40
355.15	228.54
355.54	228.62
355.92	228.70
356.30	228.80
356.68	228.82
357.06	228.89
357.44	228.83
357.82	228.99
358.20	229.03
358.58	229.14
358.97	229.25
359.35	229.40
359.73	229.54
360.11	229.68
360.49	229.80
360.87	229.85
361.25	229.92
361.63	230.00
362.01	230.18
362.39	230.27
362.77	230.28
363.15	230.27
363.53	230.29
363.91	230.29
364.29	230.18
364.67	230.11
365.05	230.08
365.43	230.24
365.81	230.13
366.19	230.23
366.57	230.30
366.95	230.17
367.33	230.14
367.71	229.98
368.09	230.00
368.47	229.98
368.85	230.00
369.23	229.96
369.61	229.90
369.99	229.93
370.37	229.87
370.75	229.97
371.13	229.91
371.51	229.86
371.89	229.91
372.27	229.93
372.65	229.86
373.03	229.84
373.41	229.70
373.78	229.60
374.16	229.43
374.54	229.31
374.92	229.26
375.30	229.14
375.68	229.10
376.06	228.99
376.44	228.84
376.82	228.79
377.19	228.71
377.57	228.57
377.95	228.37
378.33	228.23
378.71	228.06
379.09	228.10
379.47	227.97
379.84	227.81
380.22	227.72
380.60	227.67
380.98	227.68
381.36	227.61
381.73	227.65
382.11	227.48
382.49	227.46
382.87	227.45
383.25	227.42
383.62	227.58
384.00	227.53
384.38	227.62
384.76	227.54
385.13	227.63
385.51	227.60
385.89	227.50
386.27	227.50
386.64	227.47
387.02	227.37
387.40	227.40
387.78	227.35
388.15	227.36
388.53	227.26
388.91	227.18
389.29	227.14
389.66	227.03
390.04	227.18
390.42	227.14
390.79	227.05
391.17	226.97
391.55	226.77
391.92	226.73
392.30	226.65
392.68	226.67
393.05	226.61
393.43	226.57
393.81	226.65
394.18	226.66
394.56	226.70
394.94	226.74
395.31	226.75
395.69	226.85
396.06	226.95
396.44	227.10
396.82	227.08
397.19	227.23
397.57	227.36
397.95	227.35
398.32	227.46
398.70	227.60
399.07	227.71
399.45	227.73
399.82	227.82
400.20	227.88
400.58	227.87
400.95	227.89
401.33	228.02
401.70	228.22
402.08	228.23
402.45	228.42
402.83	228.56
403.20	228.65
403.58	228.80
403.95	228.84
404.33	228.96
404.71	229.18
405.08	229.44
405.46	229.62
405.83	229.86
406.21	230.04
406.58	230.25
406.96	230.56
407.33	230.94
407.70	231.18
408.08	231.65
408.45	232.05
408.83	232.49
409.20	232.79
409.58	233.00
409.95	233.41
410.33	233.65
410.70	233.95
411.08	234.42
411.45	234.93
411.82	235.42
412.20	235.96
412.57	236.60
412.95	237.03
413.32	237.59
413.69	238.15
414.07	238.73
414.44	239.51
414.82	240.12
415.19	240.82
415.56	241.65
415.94	242.42
416.31	243.36
416.68	244.14
417.06	245.20
417.43	246.31
417.81	247.56
418.18	248.85
418.55	250.16
418.93	251.49
419.30	252.72
419.67	254.22
420.04	255.70
420.42	257.27
420.79	259.07
421.16	260.84
421.54	262.72
421.91	264.62
422.28	266.52
422.66	268.74
423.03	270.91
423.40	273.17
423.77	275.48
424.15	277.80
424.52	280.27
424.89	282.91
425.26	285.49
425.64	287.90
426.01	290.64
426.38	293.49
426.75	296.30
427.13	299.25
427.50	302.36
427.87	305.44
428.24	308.51
428.61	311.52
428.99	314.90
429.36	318.60
429.73	322.15
430.10	325.66
430.47	329.06
430.85	332.75
431.22	336.52
431.59	340.60
431.96	344.63
432.33	349.06
432.70	353.34
433.08	358.31
433.45	362.93
433.82	367.31
434.19	372.45
434.56	377.54
434.93	382.41
435.30	387.09
435.68	392.36
436.05	397.53
436.42	402.75
436.79	407.36
437.16	412.24
437.53	417.45
437.90	422.67
438.27	427.99
438.64	433.16
439.01	438.23
439.38	442.76
439.75	446.94
440.13	451.88
440.50	456.52
440.87	460.36
441.24	464.39
441.61	468.93
441.98	472.16
442.35	475.96
442.72	480.01
443.09	483.87
443.46	486.28
443.83	487.90
444.20	489.34
444.57	491.65
444.94	492.82
445.31	494.22
445.68	495.76
446.05	496.44
446.42	496.51
446.79	496.47
447.16	496.31
447.53	496.58
447.90	495.00
448.27	493.59
448.64	491.28
449.01	489.82
449.37	486.81
449.74	483.90
450.11	480.25
450.48	476.04
450.85	472.03
451.22	468.77
451.59	465.71
451.96	462.65
452.33	458.20
452.70	454.46
453.07	449.69
453.43	444.58
453.80	439.92
454.17	435.49
454.54	431.04
454.91	426.21
455.28	421.51
455.65	417.36
456.02	413.06
456.38	409.24
456.75	404.66
457.12	400.66
457.49	396.70
457.86	392.90
458.23	389.80
458.59	386.05
458.96	382.28
459.33	378.99
459.70	375.60
460.07	372.86
460.43	369.70
460.80	366.67
461.17	364.22
461.54	361.42
461.91	358.73
462.27	356.08
462.64	353.82
463.01	351.24
463.38	348.85
463.74	346.29
464.11	344.21
464.48	342.16
464.85	340.18
465.21	338.70
465.58	337.10
465.95	335.00
466.32	333.31
466.68	331.44
467.05	329.66
467.42	327.97
467.78	326.35
468.15	324.77
468.52	323.59
468.88	321.85
469.25	320.46
469.62	319.30
469.98	318.03
470.35	316.90
470.72	315.70
471.08	314.35
471.45	313.28
471.82	312.12
472.18	310.80
472.55	309.89
472.92	308.68
473.28	307.58
473.65	306.47
474.02	305.46
474.38	304.72
474.75	303.95
475.11	303.21
475.48	302.41
475.85	301.69
476.21	301.10
476.58	300.51
476.94	300.14
477.31	299.50
477.67	298.94
478.04	298.32
478.41	297.91
478.77	297.64
479.14	297.18
479.50	296.74
479.87	296.45
480.23	296.16
480.60	295.84
480.96	295.65
481.33	295.63
481.69	295.55
482.06	295.45
482.42	295.33
482.79	295.20
483.15	295.28
483.52	295.33
483.88	295.25
484.25	295.28
484.61	295.17
484.98	295.22
485.34	295.30
485.71	295.45
486.07	295.59
486.44	295.75
486.80	295.97
487.17	296.30
487.53	296.74
487.90	296.93
488.26	297.37
488.62	297.75
488.99	297.95
489.35	298.30
489.72	298.62
490.08	299.04
490.44	299.37
490.81	299.67
491.17	300.02
491.54	300.52
491.90	300.94
492.26	301.52
492.63	302.10
492.99	302.68
493.36	303.28
493.72	303.81
494.08	304.33
494.45	304.99
494.81	305.68
495.17	306.18
495.54	306.84
495.90	307.37
496.26	307.96
496.63	308.74
496.99	309.28
497.35	309.83
497.72	310.41
498.08	311.05
498.44	311.60
498.80	312.43
499.17	313.11
499.53	313.72
499.89	314.27
500.26	314.75
500.62	315.29
500.98	315.95
501.34	316.50
501.71	316.96
502.07	317.39
502.43	317.80
502.79	318.33
503.16	318.91
503.52	319.42
503.88	319.68
504.24	320.09
504.60	320.58
504.97	321.10
505.33	321.61
505.69	322.04
506.05	322.56
506.41	322.58
506.78	322.75
507.14	322.97
507.50	323.18
507.86	323.47
508.22	323.70
508.59	323.79
508.95	323.87
509.31	324.25
509.67	324.30
510.03	324.30
510.39	324.47
510.75	324.44
511.12	324.60
511.48	324.76
511.84	324.82
512.20	324.85
512.56	324.99
512.92	324.97
513.28	325.14
513.64	325.13
514.00	325.43
514.37	325.56
514.73	325.78
515.09	325.91
515.45	326.07
515.81	326.22
516.17	326.38
516.53	326.63
516.89	326.68
517.25	327.12
517.61	327.63
517.97	327.96
518.33	328.37
518.69	328.66
519.05	329.35
519.41	329.79
519.77	330.50
520.13	330.96
520.49	331.57
520.85	332.15
521.21	332.97
521.57	333.76
521.93	334.58
522.29	335.40
522.65	336.22
523.01	337.11
523.37	338.07
523.73	339.29
524.09	340.49
524.45	341.63
524.81	342.90
525.17	344.25
525.53	345.70
525.89	347.22
526.25	348.90
526.61	350.32
526.97	352.15
527.33	353.80
527.68	355.91
528.04	357.92
528.40	359.82
528.76	361.80
529.12	363.99
529.48	366.20
529.84	368.46
530.20	371.06
530.56	373.72
530.91	376.50
531.27	379.08
531.63	381.80
531.99	384.71
532.35	387.59
532.71	390.34
533.07	393.35
533.42	396.74
533.78	399.82
534.14	403.20
534.50	406.43
534.86	409.93
535.21	413.03
535.57	416.65
535.93	420.47
536.29	424.20
536.65	427.90
537.00	431.69
537.36	435.66
537.72	439.70
538.08	443.59
538.44	447.62
538.79	451.62
539.15	455.86
539.51	460.12
539.87	464.28
540.22	468.80
540.58	473.34
540.94	477.50
541.29	481.86
541.65	486.30
542.01	490.99
542.37	495.70
542.72	500.56
543.08	505.06
543.44	509.77
543.79	514.53
544.15	519.31
544.51	524.25
544.87	529.10
545.22	533.90
545.58	538.77
545.94	543.50
546.29	548.50
546.65	553.39
547.01	558.19
547.36	563.28
547.72	568.10
548.07	572.80
548.43	577.70
548.79	582.84
549.14	587.61
549.50	592.38
549.86	597.04
550.21	601.88
550.57	607.00
550.92	611.93
551.28	616.76
551.64	621.61
551.99	626.43
552.35	631.36
552.70	636.30
553.06	641.53
553.41	646.54
553.77	651.47
554.13	656.28
554.48	661.33
554.84	666.25
555.19	671.16
555.55	676.30
555.90	681.07
556.26	685.65
556.61	690.64
556.97	695.42
557.32	700.36
557.68	705.09
558.03	709.90
558.39	714.34
558.74	719.38
559.10	724.22
559.45	729.10
559.81	733.83
560.16	738.13
560.52	742.35
560.87	746.84
561.23	751.28
561.58	755.81
561.94	760.33
562.29	764.60
562.64	768.81
563.00	772.89
563.35	777.38
563.71	781.95
564.06	786.20
564.42	790.22
564.77	794.25
565.12	798.50
565.48	802.41
565.83	806.46
566.19	810.19
566.54	813.81
566.89	817.72
567.25	821.45
567.60	825.60
567.96	829.44
568.31	833.08
568.66	836.78
569.02	840.45
569.37	843.60
569.72	846.93
570.08	850.24
570.43	853.60
570.78	856.50
571.14	859.28
571.49	862.06
571.84	865.50
572.20	868.34
572.55	871.11
572.90	873.68
573.26	876.57
573.61	879.10
573.96	881.63
574.31	883.76
574.67	885.47
575.02	886.99
575.37	888.92
575.72	890.65
576.08	892.44
576.43	894.16
576.78	896.00
577.13	897.73
577.49	899.34
577.84	900.93
578.19	902.65
578.54	904.15
578.90	905.65
579.25	906.62
579.60	907.63
579.95	908.53
580.30	909.60
580.66	910.24
581.01	911.06
581.36	911.90
581.71	912.53
582.06	913.76
582.42	914.62
582.77	915.27
583.12	915.93
583.47	916.54
583.82	917.17
584.17	917.58
584.53	918.17
584.88	918.67
585.23	918.99
585.58	919.22
585.93	919.36
586.28	919.44
586.63	919.86
586.98	920.02
587.34	920.43
587.69	920.54
588.04	920.77
588.39	920.96
588.74	920.81
589.09	920.64
589.44	920.03
589.79	919.93
590.14	919.90
590.49	919.53
590.84	919.02
591.19	918.58
591.54	917.80
591.89	916.60
592.25	916.10
592.60	914.95
592.95	913.97
593.30	912.92
593.65	912.11
594.00	910.97
594.35	910.54
594.70	909.23
595.05	908.16
595.40	907.10
595.75	905.73
596.10	904.70
596.45	903.68
596.80	903.11
597.15	902.34
597.50	901.00
597.85	900.34
598.19	899.40
598.54	898.25
598.89	897.18
599.24	896.30
599.59	894.93
599.94	894.13
600.29	892.87
600.64	891.84
600.99	890.28
601.34	888.99
601.69	887.29
602.04	886.05
602.39	884.28
602.74	883.06
603.08	881.90
603.43	880.87
603.78	879.50
604.13	877.50
604.48	875.70
604.83	874.05
605.18	872.14
605.53	870.13
605.87	867.97
606.22	866.37
606.57	864.58
606.92	862.68
607.27	860.62
607.62	859.16
607.96	857.33
608.31	856.01
608.66	854.04
609.01	851.90
609.36	849.53
609.70	847.35
610.05	844.63
610.40	842.20
610.75	839.15
611.10	836.65
611.44	834.35
611.79	831.76
612.14	829.19
612.49	826.17
612.83	823.56
613.18	821.25
613.53	818.70
613.88	815.89
614.22	813.21
614.57	810.57
614.92	807.60
615.27	804.96
615.61	802.03
615.96	799.15
616.31	796.52
616.65	794.57
617.00	792.32
617.35	789.88
617.70	787.24
618.04	784.64
618.39	781.93
618.74	779.41
619.08	776.58
619.43	774.20
619.78	771.87
620.12	769.36
620.47	766.47
620.82	763.29
621.16	760.95
621.51	758.51
621.85	755.85
622.20	752.72
622.55	750.05
622.89	747.23
623.24	744.59
623.59	741.90
623.93	738.83
624.28	736.01
624.62	733.38
624.97	730.67
625.32	728.38
625.66	725.91
626.01	723.24
626.35	720.64
626.70	717.76
627.04	715.17
627.39	712.38
627.73	709.62
628.08	707.21
628.43	704.23
628.77	701.33
629.12	698.48
629.46	695.94
629.81	693.04
630.15	690.11
630.50	687.33
630.84	684.44
631.19	681.27
631.53	678.40
631.88	675.37
632.22	672.10
632.57	669.10
632.91	665.97
633.26	663.03
633.60	660.22
633.95	657.42
634.29	654.64
634.64	652.13
634.98	649.49
635.32	646.82
635.67	644.47
636.01	641.96
636.36	639.21
636.70	637.05
637.05	634.60
637.39	632.14
637.73	629.49
638.08	627.21
638.42	624.98
638.77	622.64
639.11	620.26
639.45	618.06
639.80	615.65
640.14	613.43
640.49	611.02
640.83	608.69
641.17	606.17
641.52	603.71
641.86	601.00
642.20	598.78
642.55	596.27
642.89	593.62
643.23	590.89
643.58	588.77
643.92	585.73
644.26	583.10
644.61	580.65
644.95	578.26
645.29	575.30
645.64	572.61
645.98	570.08
646.32	567.71
646.66	565.20
647.01	562.47
647.35	559.94
647.69	557.47
648.04	555.04
648.38	552.77
648.72	549.97
649.06	547.42
649.41	544.63
649.75	541.89
650.09	539.26
650.43	536.78
650.78	534.04
651.12	531.67
651.46	529.35
651.80	526.96
652.14	524.37
652.49	522.20
652.83	519.93
653.17	517.39
653.51	514.61
653.85	512.07
654.20	509.70
654.54	507.10
654.88	504.49
655.22	501.61
655.56	498.86
655.90	496.69
656.25	494.30
656.59	491.97
656.93	489.80
657.27	487.65
657.61	485.03
657.95	482.66
658.29	480.42
658.64	477.87
658.98	475.38
659.32	473.02
659.66	470.63
660.00	468.26
660.34	465.99
660.68	463.90
661.02	461.65
661.36	459.58
661.70	457.32
662.05	455.53
662.39	453.74
662.73	451.81
663.07	449.80
663.41	447.75
663.75	445.69
664.09	443.67
664.43	441.67
664.77	439.87
665.11	438.04
665.45	436.06
665.79	434.19
666.13	432.20
666.47	430.34
666.81	428.48
667.15	426.40
667.49	424.44
667.83	422.70
668.17	421.00
668.51	419.02
668.85	417.37
669.19	415.42
669.53	413.68
669.87	411.77
670.21	410.00
670.55	408.33
670.89	406.73
671.23	405.11
671.57	403.40
671.91	401.88
672.25	400.20
672.58	398.51
672.92	397.05
673.26	395.63
673.60	394.09
673.94	392.53
674.28	391.21
674.62	390.03
674.96	388.47
675.30	386.95
675.64	385.59
675.97	384.17
676.31	382.74
676.65	381.38
676.99	380.13
677.33	378.62
677.67	377.26
678.01	375.83
678.34	374.40
678.68	373.04
679.02	371.70
679.36	370.42
679.70	369.34
680.04	367.94
680.37	366.59
680.71	365.43
681.05	364.32
681.39	363.18
681.73	361.90
682.06	360.73
682.40	359.60
682.74	358.52
683.08	357.40
683.42	356.09
683.75	354.92
684.09	353.72
684.43	352.56
684.77	351.34
685.10	350.21
685.44	349.05
685.78	347.85
686.12	346.60
686.45	345.48
686.79	344.27
687.13	343.19
687.46	342.10
687.80	340.87
688.14	339.60
688.48	338.52
688.81	337.33
689.15	336.17
689.49	335.04
689.82	333.89
690.16	332.77
690.50	331.66
690.83	330.44
691.17	329.25
691.51	328.28
691.84	327.21
692.18	326.18
692.52	325.18
692.85	324.12
693.19	323.27
693.52	322.32
693.86	321.12
694.20	320.11
694.53	319.19
694.87	318.24
695.21	317.21
695.54	316.09
695.88	315.04
696.21	314.01
696.55	313.00
696.88	312.05
697.22	311.02
697.56	310.20
697.89	309.31
698.23	308.62
698.56	307.73
698.90	306.90
699.23	305.89
699.57	304.90
699.90	304.03
700.24	303.16
700.58	302.22
700.91	301.58
701.25	300.70
701.58	299.90
701.92	299.10
702.25	298.47
702.59	297.77
702.92	296.98
703.26	296.19
703.59	295.50
703.93	294.82
704.26	294.14
704.60	293.40
704.93	292.71
705.26	291.85
705.60	291.13
705.93	290.41
706.27	289.98
706.60	289.40
706.94	288.82
707.27	288.17
707.61	287.46
707.94	286.77
708.27	286.06
708.61	285.31
708.94	284.64
709.28	283.80
709.61	283.12
709.94	282.59
710.28	282.16
710.61	281.57
710.95	280.78
711.28	280.24
711.61	279.66
711.95	279.11
712.28	278.49
712.61	277.87
712.95	277.52
713.28	276.98
713.61	276.40
713.95	275.73
714.28	275.12
714.61	274.53
714.95	274.13
715.28	273.71
715.61	273.23
715.95	272.69
716.28	272.43
716.61	271.94
716.95	271.41
717.28	270.85
717.61	270.39
717.94	269.99
718.28	269.49
718.61	269.01
718.94	268.59
719.27	268.26
719.61	267.83
719.94	267.23
720.27	266.71
720.60	266.38
720.94	266.19
721.27	265.80
721.60	265.53
721.93	265.12
722.27	264.84
722.60	264.48
722.93	264.12
723.26	263.73
723.59	263.36
723.93	263.04
724.26	262.71
724.59	262.33
724.92	262.03
725.25	261.73
725.59	261.32
725.92	261.07
726.25	260.72
726.58	260.41
726.91	260.19
727.24	259.90
727.57	259.60
727.91	259.25
728.24	258.98
728.57	258.72
728.90	258.45
729.23	258.14
729.56	257.98
729.89	257.87
730.22	257.53
730.55	257.30
730.89	257.03
731.22	256.80
731.55	256.61
731.88	256.41
732.21	256.14
732.54	255.98
732.87	255.70
733.20	255.41
733.53	255.20
733.86	254.97
734.19	254.64
734.52	254.35
734.85	254.09
735.18	253.83
735.51	253.59
735.84	253.24
736.17	252.98
736.50	252.61
736.83	252.58
737.16	252.38
737.49	252.11
737.82	251.72
738.15	251.45
738.48	251.04
738.81	250.71
739.14	250.42
739.47	250.06
739.80	249.70
740.13	249.51
740.46	249.29
740.79	248.94
741.12	248.80
741.45	248.63
741.78	248.39
742.11	248.23
742.44	247.95
742.77	247.75
743.10	247.49
743.43	247.29
743.75	246.75
744.08	246.68
744.41	246.45
744.74	246.27
745.07	246.08
745.40	246.07
745.73	245.90
746.06	245.75
746.39	245.64
746.71	245.45
747.04	245.25
747.37	245.01
747.70	244.83
748.03	244.52
748.36	244.27
748.68	244.14
749.01	243.83
749.34	243.58
749.67	243.30
750.00	243.14
750.33	243.06
750.65	242.89
750.98	242.48
751.31	242.41
751.64	242.32
751.97	242.23
752.29	241.96
752.62	241.75
752.95	241.48
753.28	241.30
753.60	241.15
753.93	241.06
754.26	240.84
754.59	240.59
754.91	240.47
755.24	240.33
755.57	240.18
755.90	240.11
756.22	240.01
756.55	239.92
756.88	239.83
757.20	239.57
757.53	239.40
757.86	239.31
758.19	239.16
758.51	239.02
758.84	238.79
759.17	238.65
759.49	238.58
759.82	238.73
760.15	238.70
760.47	238.56
760.80	238.40
761.13	238.38
761.45	238.27
761.78	238.24
762.11	238.22
762.43	238.00
762.76	237.88
763.08	237.81
763.41	237.80
763.74	237.69
764.06	237.60
764.39	237.57
764.71	237.40
765.04	237.22
765.37	237.04
765.69	236.97
766.02	236.93
766.34	236.78
766.67	236.57
767.00	236.52
767.32	236.62
767.65	236.69
767.97	236.63
768.30	236.62
768.62	236.42
768.95	236.26
769.27	236.23
769.60	236.15
769.92	236.08
770.25	235.94
770.57	235.72
770.90	235.65
771.22	235.54
771.55	235.57
771.87	235.56
772.20	235.55
772.52	235.64
772.85	235.91
773.17	235.89
773.50	235.81
773.82	235.63
774.15	235.45
774.47	235.18
774.80	235.09
775.12	235.04
775.45	235.03
775.77	235.00
776.09	234.97
776.42	234.92
776.74	234.93
777.07	234.90
777.39	234.97
777.72	234.90
778.04	234.89
778.36	234.84
778.69	234.71
779.01	234.72
779.33	234.51
779.66	234.00
779.98	233.87
780.31	233.65
780.63	233.71
780.95	233.67
781.28	233.63
781.60	233.53
781.92	233.41
782.25	233.26
782.57	233.13
782.89	233.09
783.22	232.96
783.54	232.76
783.86	232.61
784.19	232.38
784.51	232.43
784.83	232.20
785.16	232.16
785.48	232.21
785.80	232.03
786.12	231.95
786.45	232.01
786.77	231.95
787.09	231.98
787.42	231.82
787.74	231.78
788.06	231.74
788.38	231.68
788.71	231.70
789.03	231.76
789.35	231.80
789.67	231.75
789.99	231.73
790.32	231.71
790.64	231.72
790.96	231.86
791.28	231.60
791.61	231.62
791.93	231.53
792.25	231.40
792.57	231.48
792.89	231.49
793.21	231.42
793.54	231.46
793.86	231.45
794.18	231.40
794.50	231.28
794.82	231.30
795.14	231.33
795.47	231.25
795.79	231.22
796.11	231.15
796.43	231.05
796.75	231.01
797.07	230.93
797.39	231.01
797.71	230.84
798.04	230.88
798.36	230.90
798.68	230.92
799.00	230.90
799.32	230.83
799.64	230.83
799.96	230.81
800.28	230.77
800.60	230.80
800.92	230.88
801.24	230.88
801.56	230.90
801.89	230.88
802.21	230.90
802.53	230.86
802.85	230.80
803.17	230.89
803.49	230.93
803.81	231.03
804.13	230.94
804.45	231.00
804.77	231.03
805.09	231.04
805.41	231.03
805.73	231.10
806.05	231.10
806.37	231.04
806.69	231.00
807.01	231.00
807.33	230.94
807.65	230.84
807.97	230.94
808.28	230.86
808.60	230.82
808.92	230.85
809.24	230.96
809.56	231.00
809.88	231.04
810.20	231.01
810.52	231.02
810.84	231.03
811.16	230.99
811.48	230.96
811.80	230.98
812.12	230.85
812.43	230.77
812.75	230.80
813.07	230.74
813.39	230.73
813.71	230.70
814.03	230.60
814.35	230.57
814.67	230.48
814.98	230.45
815.30	230.44
815.62	230.35
815.94	230.11
816.26	230.09
816.58	229.95
816.89	229.93
817.21	229.76
817.53	229.81
817.85	229.82
818.17	229.81
818.48	229.62
818.80	229.70
819.12	229.65
819.44	229.56
819.76	229.52
820.07	229.54
820.39	229.47
820.71	229.47
821.03	229.48
821.34	229.50
821.66	229.51
821.98	229.39
822.30	229.41
822.61	229.60
822.93	229.54
823.25	229.49
823.57	229.43
823.88	229.50
824.20	229.22
824.52	229.19
824.83	229.08
825.15	229.09
825.47	228.97
825.79	228.96
826.10	228.82
826.42	228.77
826.74	228.77
827.05	228.80
827.37	228.94
827.69	228.94
828.00	228.87
828.32	228.81
828.64	228.90
828.95	229.03
829.27	228.86
829.58	228.93
829.90	228.93
830.22	228.88
830.53	228.74
830.85	228.88
831.17	228.83
831.48	228.84
831.80	228.80
832.11	228.86
832.43	229.00
832.75	229.14
833.06	229.30
833.38	229.20
833.69	229.14
834.01	229.02
834.32	228.93
834.64	228.87
834.96	228.88
835.27	228.83
835.59	228.69
835.90	228.83
836.22	228.68
836.53	228.72
836.85	228.77
837.16	229.17
837.48	229.10
837.79	229.25
838.11	229.36
838.42	229.49
838.74	229.52
839.05	229.32
839.37	229.25
839.68	229.21
840.00	229.26
840.31	229.37
840.63	229.40
840.94	229.37
841.26	229.39
841.57	229.49
841.88	229.57
842.20	229.65
842.51	229.61
842.83	229.66
843.14	229.80
843.46	229.91
843.77	229.76
844.08	229.84
844.40	229.79
844.71	229.76
845.03	229.58
845.34	229.59
845.65	229.72
845.97	229.81
846.28	229.77
846.60	229.76
846.91	229.62
847.22	229.55
847.54	229.69
847.85	229.73
848.16	229.54
848.48	229.45
848.79	229.50
849.10	229.49
849.42	229.52
849.73	229.29
850.04	229.18
850.36	229.09
850.67	229.10
850.98	229.03
851.30	229.12
851.61	229.22
851.92	229.15
852.23	229.11
852.55	229.07
852.86	228.99
853.17	229.04
853.49	229.18
853.80	229.16
854.11	229.13
854.42	229.10
854.74	229.19
855.05	229.24
855.36	228.97
855.67	228.95
855.99	228.92
856.30	229.12
856.61	229.06
856.92	228.97
857.23	228.91
857.55	228.85
857.86	228.59
858.17	228.54
858.48	228.47
858.79	228.34
859.11	228.30
859.42	228.28
859.73	228.19
860.04	228.10
860.35	227.98
860.66	227.82
860.98	227.77
861.29	227.70
861.60	227.65
861.91	227.78
862.22	227.68
862.53	227.56
862.84	227.41
863.16	227.41
863.47	227.42
863.78	227.35
864.09	227.35
864.40	227.44
864.71	227.45
865.02	227.47
865.33	227.45
865.64	227.44
865.95	227.45
866.27	227.55
866.58	227.49
866.89	227.59
867.20	227.57
867.51	227.65
867.82	227.60
868.13	227.58
868.44	227.53
868.75	227.54
869.06	227.53
869.37	227.43
869.68	227.51
869.99	227.53
870.30	227.61
870.61	227.76
870.92	227.71
871.23	227.76
871.54	227.76
871.85	227.97
872.16	227.96
872.47	227.98
872.78	227.91
873.09	227.93
873.40	227.88
873.71	227.88
874.02	227.81
874.33	227.93
874.64	227.84
874.95	227.89
875.26	227.92
875.56	228.01
875.87	228.15
876.18	228.12
876.49	228.32
876.80	228.30
877.11	228.23
877.42	228.33
877.73	228.28
878.04	228.43
878.35	228.37
878.66	228.39
878.96	228.34
879.27	228.37
879.58	228.43
879.89	228.54
880.20	228.86
880.51	228.84
880.82	228.81
881.12	228.84
881.43	228.90
881.74	228.84
882.05	228.83
882.36	228.80
882.67	228.73
882.97	228.54
883.28	228.52
883.59	228.51
883.90	228.54
884.21	228.63
884.51	228.55
884.82	228.53
885.13	228.60
885.44	228.65
885.74	228.63
886.05	228.55
886.36	228.57
886.67	228.35
886.98	228.57
887.28	228.59
887.59	228.69
887.90	228.56
888.20	228.68
888.51	228.80
888.82	228.70
889.13	228.76
889.43	228.89
889.74	228.95
890.05	228.89
890.35	228.83
890.66	228.82
890.97	228.80
891.28	228.77
891.58	228.79
891.89	228.76
892.20	228.74
892.50	228.79
892.81	228.81
893.12	228.80
893.42	228.73
893.73	228.71
894.04	228.72
894.34	228.72
894.65	228.69
894.95	228.64
895.26	228.68
895.57	228.75
895.87	228.55
896.18	228.51
896.48	228.50
896.79	228.45
897.10	228.40
897.40	228.37
897.71	228.31
898.01	228.20
898.32	228.22
898.63	228.22
898.93	228.21
899.24	228.11
899.54	228.08
899.85	227.96
900.15	228.04
900.46	228.00
900.76	228.07
901.07	228.02
901.38	227.92
901.68	227.96
901.99	227.77
902.29	227.75
902.60	227.70
902.90	227.73
903.21	227.80
903.51	227.84
903.82	227.82
904.12	227.83
904.43	227.84
904.73	227.80
905.03	227.89
905.34	228.00
905.64	227.96
905.95	227.99
906.25	227.95
906.56	227.77
906.86	227.83
907.17	227.80
907.47	227.81
907.77	227.79
908.08	227.74
908.38	227.84
908.69	227.84
908.99	227.84
909.30	227.88
909.60	227.85
909.90	227.82
910.21	227.83
910.51	227.89
910.81	227.94
911.12	228.03
911.42	228.01
911.73	227.93
912.03	227.99
912.33	228.04
912.64	228.13
912.94	228.14
913.24	228.11
913.55	228.10
913.85	228.08
914.15	228.21
914.46	228.26
914.76	228.20
915.06	228.20
915.37	228.28
915.67	228.25
915.97	228.35
916.27	228.34
916.58	228.35
916.88	228.37
917.18	228.36
917.49	228.52
917.79	228.54
918.09	228.50
918.39	228.57
918.70	228.56
919.00	228.61
919.30	228.72
919.60	228.75
919.91	228.90
920.21	229.00
920.51	228.94
920.81	228.99
921.12	229.12
921.42	229.27
921.72	229.29
922.02	229.35
922.32	229.31
922.63	229.42
922.93	229.43
923.23	229.45
923.53	229.44
923.83	229.28
924.13	229.26
924.44	229.28
924.74	229.28
925.04	229.38
925.34	229.39
925.64	229.30
925.94	229.22
926.24	229.24
926.55	229.13
926.85	229.12
927.15	229.09
927.45	229.07
927.75	229.05
928.05	229.10
928.35	229.07
928.65	229.16
928.95	229.12
929.26	229.12
929.56	229.15
929.86	229.09
930.16	229.07
930.46	229.09
930.76	229.16
931.06	229.15
931.36	229.05
931.66	229.01
931.96	229.05
932.26	229.07
932.56	228.97
932.86	228.95
933.16	228.91
933.46	228.85
933.76	228.82
934.06	228.81
934.36	228.76
934.66	228.65
934.96	228.48
935.26	228.49
935.56	228.52
935.86	228.45
936.16	228.48
936.46	228.42
936.76	228.27
937.06	228.19
937.36	228.17
937.66	228.11
937.96	228.03
938.26	227.96
938.56	227.97
938.86	227.90
939.16	228.03
939.46	228.06
939.76	228.03
940.06	227.98
940.35	227.95
940.65	227.78
940.95	227.81
941.25	227.78
941.55	227.72
941.85	227.68
942.15	227.65
942.45	227.69
942.75	227.63
943.04	227.74
943.34	227.67
943.64	227.52
943.94	227.54
944.24	227.57
944.54	227.65
944.84	227.61
945.13	227.63
945.43	227.50
945.73	227.54
946.03	227.59
946.33	227.51
946.62	227.48
946.92	227.69
947.22	227.74
947.52	227.81
947.82	227.77
948.11	227.67
948.41	227.65
948.71	227.55
949.01	227.61
949.31	227.52
949.60	227.52
949.90	227.70
950.20	227.68
950.50	227.65
950.79	227.53
951.09	227.59
951.39	227.59
951.69	227.60
951.98	227.58
952.28	227.53
952.58	227.54
952.87	227.56
953.17	227.49
953.47	227.50
953.76	227.50
954.06	227.53
954.36	227.65
954.66	227.66
954.95	227.82
955.25	227.86
955.55	227.94
955.84	227.95
956.14	227.92
956.44	228.02
956.73	228.00
957.03	228.10
957.32	228.17
957.62	228.18
957.92	228.22
958.21	228.14
958.51	228.40
958.81	228.46
959.10	228.53
959.40	228.59
959.69	228.53
959.99	228.53
960.29	228.52
960.58	228.49
960.88	228.59
961.17	228.57
961.47	228.60
961.76	228.63
962.06	228.63
962.36	228.53
962.65	228.43
962.95	228.49
963.24	228.42
963.54	228.32
963.83	228.27
964.13	228.23
964.42	228.23
964.72	228.07
965.01	228.10
965.31	228.04
965.60	227.98
965.90	228.16
966.19	228.18
966.49	228.21
966.78	228.19
967.08	228.10
967.37	227.99
967.67	227.89
967.96	227.85
968.26	227.80
968.55	227.92
968.85	227.96
969.14	228.01
969.43	228.10
969.73	228.10
970.02	228.07
970.32	228.13
970.61	228.13
970.91	228.02
971.20	227.90
971.49	227.85
971.79	227.79
972.08	227.61
972.38	227.59
972.67	227.55
972.96	227.60
973.26	227.52
973.55	227.55
973.85	227.59
974.14	227.52
974.43	227.50
974.73	227.43
975.02	227.40
975.31	227.34
975.61	227.26
975.90	227.29
976.19	227.30
976.49	227.25
976.78	227.25
977.07	227.15
977.37	227.22
977.66	227.28
977.95	227.34
978.24	227.38
978.54	227.35
978.83	227.24
979.12	227.09
979.42	227.17
979.71	227.19
980.00	227.18
980.29	227.23
980.59	227.24
980.88	227.27
981.17	227.23
981.46	227.20
981.76	227.20
982.05	227.15
982.34	227.14
982.63	227.16
982.93	227.19
983.22	227.35
983.51	227.38
983.80	227.44
984.09	227.36
984.39	227.37
984.68	227.48
984.97	227.54
985.26	227.61
985.55	227.64
985.85	227.62
986.14	227.69
986.43	227.78
986.72	227.91
987.01	227.95
987.30	227.96
987.59	227.97
987.89	227.93
988.18	227.91
988.47	227.93
988.76	227.96
989.05	227.97
989.34	227.97
989.63	228.07
989.92	228.00
990.22	228.07
990.51	228.04
990.80	227.89
991.09	227.96
991.38	228.10
991.67	228.16
991.96	228.24
992.25	228.24
992.54	228.09
992.83	227.96
993.12	227.82
993.41	227.97
993.70	228.04
993.99	228.14
994.28	228.26
994.58	228.36
994.87	228.32
995.16	228.28
995.45	228.28
995.74	228.21
996.03	228.30
996.32	228.40
996.61	228.35
996.90	228.40
997.19	228.34
997.48	228.27
997.77	228.20
998.06	228.11
998.34	228.09
998.63	228.20
998.92	228.40
999.21	228.53
999.50	228.47
999.79	228.51
1000.08	228.57
1000.37	228.44
1000.66	228.30
1000.95	228.36
1001.24	228.47
1001.53	228.53
1001.82	228.54
1002.11	228.40
1002.40	228.37
1002.68	228.57
1002.97	228.77
1003.26	228.78
1003.55	228.76
1003.84	228.79
1004.13	228.94
1004.42	228.96
1004.71	228.90
1004.99	228.79
1005.28	228.81
1005.57	228.78
1005.86	228.67
1006.15	228.61
1006.44	228.67
1006.72	228.81
1007.01	228.74
1007.30	228.75
1007.59	228.70
1007.88	228.51
1008.17	228.62
1008.45	228.47
1008.74	228.33
1009.03	228.10
1009.32	228.12
1009.60	228.10
1009.89	228.08
1010.18	227.98
1010.47	227.96
1010.76	227.91
1011.04	227.91
1011.33	227.88
1011.62	227.91
1011.91	227.86
1012.19	227.82
1012.48	227.84
1012.77	227.73
1013.05	227.78
1013.34	227.64
1013.63	227.58
1013.92	227.76
1014.20	227.57
1014.49	227.62
1014.78	227.68
1015.06	227.63
1015.35	227.60
1015.64	227.60
1015.92	227.58
1016.21	227.54
1016.50	227.52
1016.78	227.49
1017.07	227.49
1017.36	227.47
1017.64	227.42
1017.93	227.55
1018.22	227.52
1018.50	227.47
1018.79	227.57
1019.08	227.48
1019.36	227.65
1019.65	227.71
1019.93	227.73
1020.22	227.96
1020.51	228.05
1020.79	227.97
1021.08	226.90
1021.36	227.50
1021.65	229.00
1021.94	226.90
1022.22	229.50
1022.51	228.50
1022.79	228.90
1023.08	230.10
1023.36	229.40
1023.65	227.40
>>>>>End Processed Spectral Data<<<<<
