SpectraSuite Data File
++++++++++++++++++++++++++++++++++++
Date: Fri Feb 01 14:42:06 EST 2013
User: group
Dark Spectrum Present: No
Reference Spectrum Present: No
Number of Sampled Component Spectra: 1
Spectrometers: USB2E7196
Integration Time (usec): 70000 (USB2E7196)
Spectra Averaged: 10 (USB2E7196)
Boxcar Smoothing: 10 (USB2E7196)
Correct for Electrical Dark: No (USB2E7196)
Strobe/Lamp Enabled: No (USB2E7196)
Correct for Detector Non-linearity: No (USB2E7196)
Correct for Stray Light: No (USB2E7196)
Number of Pixels in Processed Spectrum: 2048
>>>>>Begin Processed Spectral Data<<<<<
339.09	0.00
339.48	216.10
339.86	218.50
340.24	220.90
340.63	221.30
341.01	224.90
341.39	220.60
341.78	224.30
342.16	225.80
342.54	228.70
342.93	214.52
343.31	225.41
343.69	225.92
344.07	226.31
344.46	226.65
344.84	227.07
345.22	227.21
345.60	227.60
345.99	227.71
346.37	227.86
346.75	227.79
347.13	227.87
347.52	227.86
347.90	228.01
348.28	228.10
348.66	228.18
349.05	228.17
349.43	228.31
349.81	228.37
350.19	228.48
350.57	228.65
350.96	228.80
351.34	228.74
351.72	228.86
352.10	228.97
352.48	229.07
352.87	229.08
353.25	229.20
353.63	229.23
354.01	229.43
354.39	229.48
354.77	229.60
355.15	229.70
355.54	229.78
355.92	229.77
356.30	229.86
356.68	230.05
357.06	230.18
357.44	230.19
357.82	230.23
358.20	230.31
358.58	230.39
358.97	230.31
359.35	230.52
359.73	230.64
360.11	230.70
360.49	230.64
360.87	230.70
361.25	230.78
361.63	230.94
362.01	230.89
362.39	230.98
362.77	231.07
363.15	231.09
363.53	231.21
363.91	231.29
364.29	231.30
364.67	231.18
365.05	231.16
365.43	231.27
365.81	231.36
366.19	231.46
366.57	231.53
366.95	231.57
367.33	231.57
367.71	231.47
368.09	231.49
368.47	231.51
368.85	231.44
369.23	231.37
369.61	231.18
369.99	231.25
370.37	231.19
370.75	231.15
371.13	231.07
371.51	230.83
371.89	230.74
372.27	230.63
372.65	230.60
373.03	230.51
373.41	230.34
373.78	230.24
374.16	229.99
374.54	229.90
374.92	229.85
375.30	229.64
375.68	229.61
376.06	229.57
376.44	229.49
376.82	229.51
377.19	229.49
377.57	229.42
377.95	229.31
378.33	229.20
378.71	229.17
379.09	229.09
379.47	229.20
379.84	229.18
380.22	229.26
380.60	229.17
380.98	229.09
381.36	229.05
381.73	228.91
382.11	228.94
382.49	228.77
382.87	228.65
383.25	228.75
383.62	228.86
384.00	228.80
384.38	228.88
384.76	228.77
385.13	228.77
385.51	228.73
385.89	228.62
386.27	228.53
386.64	228.38
387.02	228.41
387.40	228.27
387.78	228.22
388.15	228.14
388.53	227.99
388.91	227.94
389.29	227.86
389.66	227.82
390.04	227.77
390.42	227.81
390.79	227.81
391.17	227.76
391.55	227.60
391.92	227.57
392.30	227.58
392.68	227.52
393.05	227.50
393.43	227.56
393.81	227.52
394.18	227.57
394.56	227.56
394.94	227.59
395.31	227.60
395.69	227.75
396.06	227.70
396.44	227.79
396.82	227.81
397.19	228.03
397.57	228.16
397.95	228.23
398.32	228.31
398.70	228.43
399.07	228.61
399.45	228.61
399.82	228.66
400.20	228.72
400.58	228.88
400.95	228.96
401.33	229.15
401.70	229.42
402.08	229.59
402.45	229.82
402.83	229.96
403.20	230.20
403.58	230.27
403.95	230.51
404.33	230.85
404.71	231.10
405.08	231.40
405.46	231.58
405.83	231.87
406.21	232.05
406.58	232.36
406.96	232.51
407.33	232.91
407.70	233.32
408.08	233.70
408.45	233.99
408.83	234.42
409.20	234.78
409.58	235.11
409.95	235.57
410.33	236.04
410.70	236.49
411.08	236.87
411.45	237.30
411.82	237.82
412.20	238.23
412.57	238.98
412.95	239.36
413.32	240.01
413.69	240.65
414.07	241.34
414.44	242.00
414.82	242.81
415.19	243.59
415.56	244.48
415.94	245.44
416.31	246.52
416.68	247.37
417.06	248.43
417.43	249.59
417.81	250.78
418.18	251.97
418.55	253.20
418.93	254.68
419.30	256.12
419.67	257.58
420.04	259.13
420.42	260.54
420.79	262.51
421.16	264.35
421.54	266.28
421.91	268.20
422.28	270.18
422.66	272.21
423.03	274.25
423.40	276.28
423.77	278.45
424.15	280.69
424.52	283.20
424.89	285.78
425.26	288.11
425.64	290.38
426.01	292.79
426.38	295.45
426.75	298.09
427.13	301.01
427.50	303.90
427.87	306.87
428.24	309.79
428.61	312.51
428.99	315.58
429.36	318.79
429.73	322.08
430.10	325.31
430.47	328.51
430.85	331.89
431.22	335.41
431.59	339.19
431.96	342.64
432.33	346.43
432.70	350.02
433.08	354.63
433.45	358.77
433.82	362.95
434.19	367.40
434.56	371.89
434.93	375.88
435.30	379.93
435.68	384.40
436.05	388.82
436.42	393.31
436.79	397.29
437.16	401.54
437.53	405.96
437.90	410.47
438.27	414.75
438.64	419.22
439.01	423.33
439.38	426.70
439.75	430.05
440.13	433.95
440.50	437.60
440.87	440.16
441.24	443.21
441.61	446.50
441.98	448.80
442.35	451.57
442.72	454.52
443.09	457.48
443.46	459.14
443.83	460.05
444.20	460.61
444.57	461.66
444.94	461.92
445.31	462.51
445.68	462.97
446.05	463.09
446.42	462.29
446.79	461.44
447.16	460.79
447.53	460.27
447.90	458.43
448.27	456.76
448.64	454.37
449.01	452.50
449.37	449.35
449.74	446.37
450.11	442.72
450.48	438.87
450.85	434.62
451.22	431.20
451.59	428.17
451.96	425.10
452.33	421.20
452.70	417.69
453.07	413.09
453.43	408.33
453.80	403.91
454.17	399.77
454.54	395.71
454.91	391.35
455.28	387.30
455.65	383.43
456.02	379.64
456.38	376.28
456.75	372.08
457.12	368.56
457.49	365.16
457.86	361.80
458.23	358.79
458.59	355.61
458.96	352.32
459.33	349.12
459.70	346.19
460.07	343.77
460.43	340.92
460.80	338.44
461.17	336.14
461.54	333.81
461.91	331.57
462.27	329.29
462.64	327.30
463.01	325.00
463.38	322.81
463.74	320.51
464.11	318.58
464.48	317.09
464.85	315.35
465.21	313.96
465.58	312.44
465.95	310.70
466.32	309.21
466.68	307.68
467.05	306.32
467.42	304.90
467.78	303.45
468.15	302.08
468.52	300.91
468.88	299.68
469.25	298.46
469.62	297.45
469.98	296.42
470.35	295.36
470.72	294.46
471.08	293.49
471.45	292.66
471.82	291.82
472.18	290.72
472.55	289.83
472.92	288.91
473.28	288.03
473.65	287.29
474.02	286.52
474.38	285.90
474.75	285.43
475.11	284.90
475.48	284.40
475.85	283.98
476.21	283.55
476.58	283.19
476.94	282.81
477.31	282.50
477.67	282.20
478.04	281.86
478.41	281.67
478.77	281.63
479.14	281.35
479.50	281.34
479.87	281.40
480.23	281.65
480.60	281.72
480.96	281.79
481.33	281.89
481.69	282.19
482.06	282.45
482.42	282.72
482.79	282.80
483.15	283.10
483.52	283.54
483.88	283.86
484.25	284.28
484.61	284.81
484.98	285.23
485.34	285.93
485.71	286.77
486.07	287.45
486.44	288.09
486.80	288.98
487.17	289.79
487.53	290.70
487.90	291.74
488.26	292.92
488.62	294.25
488.99	295.44
489.35	296.76
489.72	298.06
490.08	299.52
490.44	301.30
490.81	302.99
491.17	304.77
491.54	306.85
491.90	308.93
492.26	311.08
492.63	313.57
492.99	316.08
493.36	318.73
493.72	321.56
494.08	324.41
494.45	327.43
494.81	330.78
495.17	334.32
495.54	337.99
495.90	341.65
496.26	345.54
496.63	349.86
496.99	354.16
497.35	358.90
497.72	363.67
498.08	368.54
498.44	373.80
498.80	379.53
499.17	385.15
499.53	391.03
499.89	397.46
500.26	403.75
500.62	410.43
500.98	417.44
501.34	424.93
501.71	432.66
502.07	440.36
502.43	448.33
502.79	456.53
503.16	465.10
503.52	474.12
503.88	483.46
504.24	492.92
504.60	503.00
504.97	513.26
505.33	523.98
505.69	535.34
506.05	546.69
506.41	557.78
506.78	569.91
507.14	582.45
507.50	595.03
507.86	608.26
508.22	621.60
508.59	635.45
508.95	649.40
509.31	663.87
509.67	678.99
510.03	694.47
510.39	710.31
510.75	726.50
511.12	742.79
511.48	759.57
511.84	776.81
512.20	794.22
512.56	812.10
512.92	830.51
513.28	848.77
513.64	867.67
514.00	886.89
514.37	906.80
514.73	926.70
515.09	946.72
515.45	967.46
515.81	988.15
516.17	1009.31
516.53	1031.01
516.89	1052.46
517.25	1074.36
517.61	1096.47
517.97	1118.39
518.33	1140.90
518.69	1163.74
519.05	1187.00
519.41	1210.83
519.77	1234.80
520.13	1258.72
520.49	1282.35
520.85	1306.66
521.21	1330.89
521.57	1356.17
521.93	1379.54
522.29	1404.45
522.65	1428.82
523.01	1452.89
523.37	1477.63
523.73	1502.37
524.09	1526.78
524.45	1552.25
524.81	1577.52
525.17	1603.48
525.53	1629.56
525.89	1654.96
526.25	1680.90
526.61	1706.07
526.97	1731.36
527.33	1756.54
527.68	1782.22
528.04	1807.74
528.40	1833.61
528.76	1859.78
529.12	1885.08
529.48	1911.74
529.84	1936.86
530.20	1963.40
530.56	1990.36
530.91	2017.28
531.27	2043.56
531.63	2069.66
531.99	2095.32
532.35	2120.57
532.71	2144.66
533.07	2169.84
533.42	2195.24
533.78	2220.09
534.14	2245.32
534.50	2269.24
534.86	2293.73
535.21	2317.42
535.57	2342.77
535.93	2366.83
536.29	2390.25
536.65	2413.67
537.00	2436.80
537.36	2460.50
537.72	2483.22
538.08	2504.91
538.44	2526.23
538.79	2547.93
539.15	2569.10
539.51	2590.91
539.87	2613.12
540.22	2635.41
540.58	2656.98
540.94	2677.81
541.29	2697.99
541.65	2717.32
542.01	2738.36
542.37	2758.25
542.72	2778.31
543.08	2796.63
543.44	2815.30
543.79	2832.84
544.15	2850.89
544.51	2869.63
544.87	2887.22
545.22	2904.32
545.58	2921.41
545.94	2937.32
546.29	2953.28
546.65	2969.30
547.01	2984.20
547.36	2999.05
547.72	3013.32
548.07	3027.47
548.43	3040.73
548.79	3054.35
549.14	3067.88
549.50	3080.04
549.86	3091.90
550.21	3103.40
550.57	3115.56
550.92	3126.92
551.28	3138.44
551.64	3149.90
551.99	3159.92
552.35	3170.46
552.70	3181.08
553.06	3191.88
553.41	3202.96
553.77	3213.03
554.13	3222.98
554.48	3232.55
554.84	3241.14
555.19	3249.60
555.55	3257.94
555.90	3265.83
556.26	3274.13
556.61	3282.31
556.97	3289.26
557.32	3297.09
557.68	3304.75
558.03	3311.69
558.39	3318.52
558.74	3326.51
559.10	3333.10
559.45	3339.90
559.81	3347.04
560.16	3352.44
560.52	3357.78
560.87	3363.47
561.23	3367.62
561.58	3373.22
561.94	3377.58
562.29	3381.18
562.64	3384.97
563.00	3388.77
563.35	3394.27
563.71	3399.01
564.06	3403.60
564.42	3408.22
564.77	3412.10
565.12	3415.90
565.48	3419.17
565.83	3421.87
566.19	3424.39
566.54	3425.71
566.89	3427.38
567.25	3428.30
567.60	3430.90
567.96	3432.35
568.31	3433.14
568.66	3434.63
569.02	3435.17
569.37	3435.74
569.72	3436.60
570.08	3436.91
570.43	3436.94
570.78	3435.44
571.14	3432.95
571.49	3431.07
571.84	3430.31
572.20	3427.32
572.55	3424.33
572.90	3420.91
573.26	3418.81
573.61	3415.56
573.96	3413.10
574.31	3408.38
574.67	3402.98
575.02	3397.74
575.37	3393.03
575.72	3387.19
576.08	3382.21
576.43	3376.45
576.78	3371.17
577.13	3366.71
577.49	3361.76
577.84	3355.17
578.19	3349.65
578.54	3343.58
578.90	3336.60
579.25	3328.33
579.60	3321.92
579.95	3314.56
580.30	3307.49
580.66	3299.10
581.01	3290.95
581.36	3283.33
581.71	3277.30
582.06	3270.40
582.42	3262.18
582.77	3253.62
583.12	3245.70
583.47	3238.17
583.82	3230.40
584.17	3221.68
584.53	3212.77
584.88	3204.42
585.23	3196.50
585.58	3187.63
585.93	3179.55
586.28	3171.71
586.63	3164.24
586.98	3156.55
587.34	3148.63
587.69	3140.39
588.04	3132.44
588.39	3124.49
588.74	3114.30
589.09	3103.48
589.44	3093.35
589.79	3084.98
590.14	3077.09
590.49	3068.08
590.84	3057.87
591.19	3048.75
591.54	3037.80
591.89	3026.35
592.25	3015.82
592.60	3004.25
592.95	2993.13
593.30	2981.89
593.65	2970.27
594.00	2958.80
594.35	2948.26
594.70	2936.26
595.05	2925.67
595.40	2913.97
595.75	2902.22
596.10	2892.53
596.45	2882.88
596.80	2873.67
597.15	2862.95
597.50	2851.77
597.85	2841.44
598.19	2831.64
598.54	2820.72
598.89	2811.79
599.24	2803.06
599.59	2793.01
599.94	2783.57
600.29	2773.47
600.64	2763.31
600.99	2751.89
601.34	2741.98
601.69	2730.13
602.04	2720.51
602.39	2709.56
602.74	2699.74
603.08	2689.90
603.43	2679.92
603.78	2669.46
604.13	2658.74
604.48	2647.70
604.83	2636.59
605.18	2626.11
605.53	2614.16
605.87	2601.66
606.22	2590.67
606.57	2578.52
606.92	2566.80
607.27	2556.10
607.62	2546.30
607.96	2535.44
608.31	2525.95
608.66	2513.57
609.01	2501.74
609.36	2489.14
609.70	2476.22
610.05	2463.60
610.40	2450.93
610.75	2437.99
611.10	2425.10
611.44	2411.37
611.79	2399.12
612.14	2386.52
612.49	2372.60
612.83	2360.11
613.18	2348.07
613.53	2335.16
613.88	2322.61
614.22	2310.62
614.57	2296.86
614.92	2283.30
615.27	2271.13
615.61	2257.92
615.96	2245.80
616.31	2234.10
616.65	2223.40
617.00	2212.20
617.35	2200.56
617.70	2188.38
618.04	2175.75
618.39	2163.95
618.74	2152.93
619.08	2140.72
619.43	2129.34
619.78	2118.53
620.12	2106.88
620.47	2095.32
620.82	2083.60
621.16	2072.28
621.51	2060.09
621.85	2048.82
622.20	2036.52
622.55	2024.63
622.89	2013.71
623.24	2002.62
623.59	1991.62
623.93	1979.98
624.28	1968.83
624.62	1957.00
624.97	1946.32
625.32	1936.03
625.66	1925.22
626.01	1914.00
626.35	1903.06
626.70	1891.29
627.04	1880.23
627.39	1869.00
627.73	1857.66
628.08	1846.76
628.43	1835.52
628.77	1824.64
629.12	1813.77
629.46	1802.96
629.81	1791.21
630.15	1779.08
630.50	1767.32
630.84	1755.12
631.19	1742.90
631.53	1731.01
631.88	1719.65
632.22	1707.50
632.57	1696.36
632.91	1684.71
633.26	1673.08
633.60	1661.21
633.95	1650.40
634.29	1639.35
634.64	1628.71
634.98	1617.93
635.32	1607.47
635.67	1597.03
636.01	1586.53
636.36	1575.48
636.70	1565.57
637.05	1555.85
637.39	1546.42
637.73	1536.85
638.08	1527.85
638.42	1518.79
638.77	1509.24
639.11	1499.33
639.45	1490.07
639.80	1479.92
640.14	1470.32
640.49	1460.93
640.83	1451.54
641.17	1441.87
641.52	1432.00
641.86	1422.08
642.20	1412.51
642.55	1402.42
642.89	1392.58
643.23	1382.62
643.58	1373.52
643.92	1363.54
644.26	1353.68
644.61	1344.18
644.95	1334.84
645.29	1324.43
645.64	1314.26
645.98	1304.80
646.32	1295.62
646.66	1285.70
647.01	1276.00
647.35	1266.57
647.69	1256.92
648.04	1247.87
648.38	1238.03
648.72	1228.46
649.06	1218.84
649.41	1209.66
649.75	1199.93
650.09	1190.34
650.43	1180.95
650.78	1171.30
651.12	1161.66
651.46	1152.66
651.80	1143.45
652.14	1134.00
652.49	1125.25
652.83	1116.57
653.17	1107.15
653.51	1098.02
653.85	1089.22
654.20	1080.12
654.54	1070.89
654.88	1061.83
655.22	1052.60
655.56	1043.72
655.90	1035.16
656.25	1027.02
656.59	1018.89
656.93	1010.78
657.27	1002.99
657.61	994.50
657.95	987.05
658.29	979.46
658.64	971.17
658.98	963.07
659.32	954.81
659.66	947.05
660.00	939.08
660.34	931.35
660.68	923.77
661.02	916.10
661.36	909.07
661.70	902.09
662.05	895.32
662.39	888.59
662.73	881.57
663.07	874.76
663.41	867.75
663.75	860.52
664.09	853.85
664.43	847.12
664.77	840.89
665.11	833.98
665.45	827.40
665.79	820.96
666.13	814.40
666.47	808.23
666.81	801.71
667.15	795.10
667.49	788.89
667.83	782.81
668.17	776.64
668.51	770.07
668.85	763.91
669.19	758.19
669.53	752.31
669.87	746.65
670.21	741.01
670.55	735.54
670.89	730.14
671.23	724.72
671.57	719.24
671.91	713.87
672.25	708.63
672.58	703.23
672.92	698.12
673.26	693.33
673.60	688.43
673.94	683.54
674.28	678.94
674.62	674.55
674.96	669.93
675.30	665.52
675.64	661.03
675.97	656.45
676.31	651.73
676.65	647.05
676.99	642.86
677.33	638.27
677.67	633.72
678.01	628.98
678.34	624.50
678.68	619.98
679.02	615.50
679.36	611.20
679.70	607.05
680.04	602.85
680.37	598.50
680.71	594.23
681.05	590.51
681.39	586.39
681.73	582.38
682.06	578.44
682.40	574.68
682.74	571.05
683.08	567.12
683.42	563.09
683.75	559.36
684.09	555.27
684.43	551.51
684.77	547.94
685.10	544.46
685.44	540.90
685.78	537.46
686.12	534.01
686.45	530.52
686.79	527.07
687.13	523.71
687.46	520.09
687.80	516.72
688.14	513.05
688.48	510.04
688.81	506.46
689.15	503.12
689.49	499.70
689.82	496.50
690.16	493.51
690.50	490.68
690.83	487.75
691.17	484.69
691.51	481.74
691.84	478.60
692.18	475.39
692.52	472.36
692.85	469.31
693.19	466.34
693.52	463.32
693.86	460.30
694.20	457.36
694.53	454.65
694.87	451.91
695.21	449.00
695.54	446.15
695.88	443.50
696.21	440.80
696.55	438.18
696.88	435.51
697.22	432.78
697.56	430.21
697.89	427.58
698.23	425.15
698.56	422.62
698.90	420.15
699.23	417.66
699.57	415.16
699.90	412.65
700.24	410.20
700.58	407.95
700.91	405.67
701.25	403.51
701.58	401.41
701.92	399.22
702.25	397.20
702.59	395.12
702.92	393.15
703.26	391.19
703.59	389.18
703.93	387.40
704.26	385.46
704.60	383.46
704.93	381.50
705.26	379.75
705.60	377.94
705.93	376.31
706.27	374.80
706.60	373.20
706.94	371.62
707.27	369.82
707.61	368.10
707.94	366.50
708.27	364.71
708.61	362.94
708.94	361.27
709.28	359.74
709.61	358.12
709.94	356.54
710.28	354.90
710.61	353.48
710.95	351.67
711.28	350.25
711.61	348.77
711.95	347.41
712.28	345.82
712.61	344.34
712.95	342.76
713.28	341.29
713.61	339.77
713.95	338.41
714.28	337.18
714.61	335.85
714.95	334.55
715.28	333.20
715.61	331.92
715.95	330.74
716.28	329.48
716.61	328.28
716.95	327.07
717.28	325.96
717.61	324.70
717.94	323.54
718.28	322.23
718.61	321.07
718.94	319.81
719.27	318.75
719.61	317.62
719.94	316.73
720.27	315.59
720.60	314.59
720.94	313.57
721.27	312.57
721.60	311.72
721.93	310.69
722.27	309.88
722.60	309.04
722.93	308.00
723.26	307.05
723.59	306.04
723.93	305.11
724.26	304.10
724.59	303.12
724.92	302.35
725.25	301.60
725.59	300.68
725.92	299.91
726.25	298.90
726.58	298.06
726.91	297.28
727.24	296.60
727.57	295.82
727.91	295.05
728.24	294.30
728.57	293.46
728.90	292.85
729.23	292.06
729.56	291.44
729.89	290.72
730.22	289.86
730.55	289.19
730.89	288.50
731.22	287.91
731.55	287.35
731.88	286.65
732.21	285.75
732.54	285.00
732.87	284.40
733.20	283.93
733.53	283.37
733.86	282.64
734.19	281.94
734.52	281.24
734.85	280.70
735.18	280.13
735.51	279.53
735.84	278.95
736.17	278.21
736.50	277.36
736.83	277.06
737.16	276.64
737.49	276.13
737.82	275.50
738.15	274.87
738.48	274.41
738.81	273.91
739.14	273.49
739.47	273.12
739.80	272.59
740.13	272.03
740.46	271.62
740.79	271.04
741.12	270.61
741.45	270.28
741.78	269.75
742.11	269.32
742.44	268.68
742.77	268.24
743.10	267.89
743.43	267.51
743.75	266.90
744.08	266.62
744.41	266.15
744.74	265.83
745.07	265.51
745.40	265.03
745.73	264.66
746.06	264.25
746.39	263.86
746.71	263.33
747.04	263.00
747.37	262.55
747.70	262.25
748.03	261.79
748.36	261.40
748.68	260.94
749.01	260.46
749.34	260.20
749.67	259.79
750.00	259.51
750.33	259.38
750.65	259.01
750.98	258.59
751.31	258.26
751.64	257.90
751.97	257.57
752.29	257.26
752.62	256.89
752.95	256.71
753.28	256.36
753.60	256.09
753.93	255.81
754.26	255.45
754.59	255.12
754.91	254.83
755.24	254.56
755.57	254.35
755.90	254.04
756.22	253.70
756.55	253.32
756.88	253.02
757.20	252.51
757.53	252.24
757.86	251.88
758.19	251.68
758.51	251.35
758.84	251.13
759.17	250.85
759.49	250.60
759.82	250.26
760.15	250.03
760.47	249.86
760.80	249.57
761.13	249.31
761.45	249.02
761.78	248.79
762.11	248.50
762.43	248.16
762.76	247.92
763.08	247.81
763.41	247.63
763.74	247.23
764.06	247.04
764.39	246.70
764.71	246.52
765.04	246.26
765.37	246.08
765.69	245.82
766.02	245.60
766.34	245.36
766.67	245.09
767.00	244.94
767.32	244.80
767.65	244.66
767.97	244.46
768.30	244.28
768.62	244.02
768.95	243.85
769.27	243.73
769.60	243.57
769.92	243.28
770.25	243.07
770.57	242.90
770.90	242.62
771.22	242.41
771.55	242.26
771.87	242.00
772.20	241.80
772.52	241.80
772.85	241.75
773.17	241.55
773.50	241.40
773.82	241.14
774.15	240.93
774.47	240.60
774.80	240.42
775.12	240.25
775.45	240.19
775.77	240.02
776.09	239.86
776.42	239.78
776.74	239.64
777.07	239.57
777.39	239.48
777.72	239.37
778.04	239.26
778.36	238.99
778.69	238.92
779.01	238.79
779.33	238.45
779.66	238.14
779.98	238.02
780.31	237.97
780.63	237.91
780.95	237.73
781.28	237.73
781.60	237.63
781.92	237.50
782.25	237.44
782.57	237.36
782.89	237.26
783.22	237.05
783.54	237.06
783.86	236.96
784.19	236.90
784.51	236.99
784.83	236.99
785.16	236.95
785.48	236.85
785.80	236.74
786.12	236.73
786.45	236.73
786.77	236.71
787.09	236.57
787.42	236.56
787.74	236.48
788.06	236.46
788.38	236.40
788.71	236.36
789.03	236.20
789.35	236.01
789.67	235.93
789.99	235.92
790.32	235.69
790.64	235.65
790.96	235.79
791.28	235.54
791.61	235.35
791.93	235.42
792.25	235.46
792.57	235.57
792.89	235.36
793.21	235.24
793.54	235.17
793.86	235.18
794.18	234.92
794.50	234.87
794.82	234.69
795.14	234.71
795.47	234.69
795.79	234.68
796.11	234.71
796.43	234.70
796.75	234.68
797.07	234.71
797.39	234.63
797.71	234.35
798.04	234.43
798.36	234.47
798.68	234.25
799.00	234.19
799.32	234.04
799.64	234.08
799.96	234.19
800.28	234.19
800.60	234.10
800.92	234.20
801.24	234.15
801.56	234.15
801.89	234.01
802.21	234.00
802.53	233.87
802.85	233.82
803.17	233.74
803.49	233.57
803.81	233.42
804.13	233.42
804.45	233.37
804.77	233.23
805.09	233.19
805.41	233.12
805.73	232.95
806.05	232.82
806.37	232.81
806.69	232.60
807.01	232.39
807.33	232.30
807.65	232.15
807.97	232.17
808.28	232.04
808.60	232.00
808.92	231.92
809.24	231.97
809.56	231.87
809.88	231.82
810.20	231.77
810.52	231.76
810.84	231.55
811.16	231.40
811.48	231.35
811.80	231.30
812.12	231.37
812.43	231.33
812.75	231.27
813.07	231.15
813.39	231.12
813.71	231.13
814.03	231.11
814.35	231.08
814.67	230.90
814.98	230.98
815.30	230.89
815.62	230.84
815.94	230.69
816.26	230.77
816.58	230.73
816.89	230.77
817.21	230.80
817.53	230.84
817.85	230.88
818.17	230.80
818.48	230.75
818.80	230.72
819.12	230.75
819.44	230.81
819.76	230.81
820.07	230.83
820.39	230.87
820.71	230.90
821.03	230.84
821.34	230.80
821.66	230.78
821.98	230.73
822.30	230.66
822.61	230.73
822.93	230.72
823.25	230.67
823.57	230.60
823.88	230.60
824.20	230.57
824.52	230.56
824.83	230.62
825.15	230.57
825.47	230.48
825.79	230.44
826.10	230.36
826.42	230.44
826.74	230.50
827.05	230.51
827.37	230.60
827.69	230.60
828.00	230.78
828.32	230.71
828.64	230.79
828.95	230.96
829.27	231.00
829.58	230.90
829.90	230.99
830.22	231.05
830.53	231.08
830.85	231.10
831.17	231.11
831.48	231.12
831.80	231.20
832.11	231.30
832.43	231.29
832.75	231.31
833.06	231.38
833.38	231.30
833.69	231.28
834.01	231.16
834.32	231.22
834.64	231.10
834.96	231.09
835.27	231.14
835.59	231.07
835.90	230.97
836.22	230.95
836.53	230.88
836.85	230.92
837.16	231.04
837.48	231.08
837.79	231.19
838.11	231.25
838.42	231.15
838.74	231.19
839.05	231.23
839.37	231.20
839.68	230.99
840.00	230.94
840.31	230.91
840.63	230.82
840.94	230.78
841.26	230.68
841.57	230.68
841.88	230.67
842.20	230.71
842.51	230.80
842.83	230.79
843.14	230.90
843.46	230.82
843.77	230.70
844.08	230.56
844.40	230.45
844.71	230.29
845.03	230.34
845.34	230.25
845.65	230.27
845.97	230.24
846.28	230.32
846.60	230.25
846.91	230.20
847.22	230.30
847.54	230.33
847.85	230.26
848.16	230.28
848.48	230.15
848.79	230.07
849.10	229.90
849.42	229.89
849.73	229.72
850.04	229.66
850.36	229.56
850.67	229.61
850.98	229.55
851.30	229.52
851.61	229.45
851.92	229.36
852.23	229.25
852.55	229.21
852.86	229.11
853.17	229.07
853.49	229.04
853.80	228.94
854.11	228.86
854.42	229.00
854.74	228.92
855.05	228.99
855.36	228.82
855.67	228.79
855.99	228.71
856.30	228.87
856.61	228.90
856.92	228.80
857.23	228.75
857.55	228.65
857.86	228.64
858.17	228.61
858.48	228.61
858.79	228.59
859.11	228.59
859.42	228.50
859.73	228.46
860.04	228.50
860.35	228.51
860.66	228.43
860.98	228.40
861.29	228.38
861.60	228.33
861.91	228.46
862.22	228.57
862.53	228.58
862.84	228.36
863.16	228.38
863.47	228.39
863.78	228.35
864.09	228.34
864.40	228.34
864.71	228.48
865.02	228.51
865.33	228.48
865.64	228.49
865.95	228.53
866.27	228.73
866.58	228.73
866.89	228.81
867.20	228.90
867.51	228.87
867.82	228.87
868.13	228.96
868.44	228.90
868.75	228.92
869.06	228.97
869.37	229.07
869.68	229.13
869.99	229.32
870.30	229.43
870.61	229.59
870.92	229.65
871.23	229.60
871.54	229.58
871.85	229.76
872.16	229.84
872.47	229.94
872.78	229.84
873.09	229.91
873.40	229.93
873.71	229.94
874.02	230.07
874.33	230.10
874.64	230.00
874.95	230.10
875.26	230.02
875.56	230.09
875.87	230.04
876.18	230.06
876.49	230.30
876.80	230.26
877.11	230.22
877.42	230.27
877.73	230.26
878.04	230.32
878.35	230.24
878.66	230.29
878.96	230.33
879.27	230.33
879.58	230.38
879.89	230.31
880.20	230.48
880.51	230.31
880.82	230.40
881.12	230.44
881.43	230.34
881.74	230.33
882.05	230.26
882.36	230.32
882.67	230.21
882.97	229.93
883.28	229.95
883.59	229.81
883.90	229.76
884.21	229.70
884.51	229.66
884.82	229.69
885.13	229.54
885.44	229.39
885.74	229.33
886.05	229.14
886.36	229.15
886.67	228.90
886.98	229.12
887.28	228.90
887.59	228.87
887.90	228.94
888.20	228.94
888.51	228.88
888.82	228.77
889.13	228.75
889.43	228.73
889.74	228.73
890.05	228.81
890.35	228.75
890.66	228.63
890.97	228.50
891.28	228.34
891.58	228.32
891.89	228.39
892.20	228.35
892.50	228.30
892.81	228.20
893.12	228.25
893.42	228.01
893.73	228.13
894.04	228.20
894.34	228.09
894.65	228.00
894.95	227.98
895.26	228.01
895.57	228.07
895.87	228.08
896.18	227.95
896.48	227.97
896.79	227.94
897.10	228.04
897.40	228.10
897.71	228.26
898.01	228.21
898.32	228.14
898.63	228.13
898.93	228.20
899.24	228.24
899.54	228.10
899.85	228.20
900.15	228.22
900.46	228.13
900.76	228.07
901.07	228.01
901.38	228.06
901.68	227.96
901.99	227.93
902.29	227.79
902.60	227.80
902.90	227.80
903.21	227.86
903.51	227.91
903.82	227.91
904.12	227.87
904.43	228.00
904.73	228.08
905.03	228.20
905.34	228.37
905.64	228.30
905.95	228.42
906.25	228.46
906.56	228.42
906.86	228.50
907.17	228.70
907.47	228.86
907.77	228.92
908.08	229.02
908.38	228.95
908.69	229.06
908.99	229.20
909.30	229.19
909.60	229.23
909.90	229.22
910.21	229.29
910.51	229.28
910.81	229.30
911.12	229.33
911.42	229.32
911.73	229.26
912.03	229.39
912.33	229.50
912.64	229.52
912.94	229.54
913.24	229.50
913.55	229.50
913.85	229.54
914.15	229.59
914.46	229.53
914.76	229.64
915.06	229.57
915.37	229.57
915.67	229.60
915.97	229.64
916.27	229.72
916.58	229.65
916.88	229.64
917.18	229.66
917.49	229.75
917.79	229.69
918.09	229.67
918.39	229.87
918.70	229.79
919.00	229.84
919.30	229.88
919.60	229.85
919.91	229.76
920.21	229.75
920.51	229.68
920.81	229.67
921.12	229.64
921.42	229.75
921.72	229.77
922.02	229.76
922.32	229.68
922.63	229.55
922.93	229.71
923.23	229.76
923.53	229.69
923.83	229.60
924.13	229.60
924.44	229.60
924.74	229.33
925.04	229.40
925.34	229.19
925.64	229.15
925.94	229.10
926.24	229.16
926.55	229.10
926.85	229.00
927.15	229.01
927.45	229.10
927.75	228.97
928.05	228.92
928.35	228.82
928.65	228.82
928.95	228.79
929.26	228.58
929.56	228.45
929.86	228.41
930.16	228.31
930.46	228.23
930.76	228.08
931.06	227.97
931.36	227.82
931.66	227.82
931.96	227.74
932.26	227.76
932.56	227.63
932.86	227.68
933.16	227.63
933.46	227.57
933.76	227.43
934.06	227.50
934.36	227.47
934.66	227.43
934.96	227.46
935.26	227.50
935.56	227.51
935.86	227.46
936.16	227.38
936.46	227.41
936.76	227.45
937.06	227.43
937.36	227.48
937.66	227.54
937.96	227.59
938.26	227.61
938.56	227.57
938.86	227.56
939.16	227.47
939.46	227.64
939.76	227.78
940.06	227.72
940.35	227.66
940.65	227.67
940.95	227.70
941.25	227.62
941.55	227.59
941.85	227.63
942.15	227.76
942.45	227.90
942.75	227.89
943.04	227.90
943.34	228.15
943.64	228.20
943.94	228.23
944.24	228.25
944.54	228.25
944.84	228.29
945.13	228.39
945.43	228.48
945.73	228.52
946.03	228.44
946.33	228.55
946.62	228.57
946.92	228.59
947.22	228.64
947.52	228.73
947.82	228.81
948.11	228.89
948.41	228.83
948.71	228.89
949.01	228.95
949.31	228.99
949.60	228.86
949.90	228.88
950.20	228.80
950.50	228.73
950.79	228.80
951.09	228.86
951.39	228.91
951.69	228.89
951.98	228.91
952.28	228.95
952.58	228.96
952.87	229.10
953.17	229.13
953.47	229.18
953.76	229.14
954.06	229.13
954.36	229.01
954.66	229.04
954.95	229.00
955.25	229.00
955.55	229.02
955.84	228.93
956.14	228.98
956.44	229.12
956.73	229.24
957.03	229.18
957.32	229.22
957.62	229.14
957.92	229.23
958.21	229.06
958.51	229.18
958.81	229.21
959.10	229.10
959.40	229.15
959.69	229.07
959.99	229.16
960.29	229.17
960.58	229.23
960.88	229.21
961.17	229.18
961.47	229.16
961.76	229.13
962.06	229.20
962.36	229.10
962.65	228.93
962.95	228.88
963.24	228.90
963.54	228.80
963.83	228.78
964.13	228.68
964.42	228.61
964.72	228.43
965.01	228.31
965.31	228.24
965.60	228.08
965.90	228.17
966.19	227.96
966.49	227.88
966.78	227.82
967.08	227.78
967.37	227.70
967.67	227.49
967.96	227.41
968.26	227.29
968.55	227.35
968.85	227.36
969.14	227.28
969.43	227.22
969.73	227.25
970.02	227.14
970.32	227.07
970.61	227.05
970.91	227.01
971.20	227.04
971.49	226.96
971.79	226.95
972.08	226.74
972.38	226.74
972.67	226.58
972.96	226.57
973.26	226.51
973.55	226.58
973.85	226.65
974.14	226.59
974.43	226.75
974.73	226.61
975.02	226.59
975.31	226.65
975.61	226.55
975.90	226.45
976.19	226.57
976.49	226.56
976.78	226.68
977.07	226.71
977.37	226.67
977.66	226.72
977.95	226.73
978.24	226.84
978.54	226.94
978.83	227.01
979.12	227.05
979.42	227.05
979.71	227.09
980.00	227.09
980.29	227.24
980.59	227.14
980.88	227.27
981.17	227.32
981.46	227.26
981.76	227.43
982.05	227.55
982.34	227.54
982.63	227.55
982.93	227.63
983.22	227.73
983.51	227.87
983.80	228.00
984.09	228.06
984.39	228.09
984.68	228.10
984.97	228.27
985.26	228.34
985.55	228.40
985.85	228.38
986.14	228.48
986.43	228.53
986.72	228.56
987.01	228.51
987.30	228.59
987.59	228.69
987.89	228.76
988.18	228.77
988.47	228.77
988.76	228.78
989.05	228.74
989.34	228.71
989.63	228.76
989.92	228.79
990.22	228.85
990.51	228.94
990.80	229.05
991.09	229.11
991.38	229.13
991.67	229.17
991.96	229.13
992.25	229.21
992.54	229.15
992.83	229.21
993.12	229.26
993.41	229.30
993.70	229.46
993.99	229.40
994.28	229.40
994.58	229.48
994.87	229.50
995.16	229.50
995.45	229.55
995.74	229.53
996.03	229.49
996.32	229.44
996.61	229.40
996.90	229.26
997.19	229.22
997.48	229.29
997.77	229.35
998.06	229.32
998.34	229.33
998.63	229.30
998.92	229.23
999.21	229.30
999.50	229.25
999.79	229.06
1000.08	229.01
1000.37	228.98
1000.66	228.79
1000.95	228.85
1001.24	228.90
1001.53	228.82
1001.82	228.66
1002.11	228.68
1002.40	228.69
1002.68	228.73
1002.97	228.90
1003.26	228.84
1003.55	228.75
1003.84	228.65
1004.13	228.74
1004.42	228.64
1004.71	228.62
1004.99	228.61
1005.28	228.57
1005.57	228.48
1005.86	228.46
1006.15	228.55
1006.44	228.51
1006.72	228.60
1007.01	228.53
1007.30	228.40
1007.59	228.36
1007.88	228.37
1008.17	228.31
1008.45	228.26
1008.74	228.15
1009.03	227.95
1009.32	227.90
1009.60	227.69
1009.89	227.66
1010.18	227.51
1010.47	227.58
1010.76	227.56
1011.04	227.68
1011.33	227.66
1011.62	227.62
1011.91	227.59
1012.19	227.49
1012.48	227.49
1012.77	227.52
1013.05	227.53
1013.34	227.57
1013.63	227.63
1013.92	227.64
1014.20	227.68
1014.49	227.75
1014.78	227.77
1015.06	227.66
1015.35	227.71
1015.64	227.85
1015.92	227.99
1016.21	227.98
1016.50	227.91
1016.78	227.93
1017.07	227.80
1017.36	227.77
1017.64	227.80
1017.93	227.90
1018.22	227.90
1018.50	227.85
1018.79	227.85
1019.08	227.78
1019.36	227.73
1019.65	227.74
1019.93	227.80
1020.22	227.75
1020.51	227.82
1020.79	227.84
1021.08	227.80
1021.36	227.10
1021.65	228.30
1021.94	226.60
1022.22	226.80
1022.51	228.80
1022.79	228.50
1023.08	228.20
1023.36	230.80
1023.65	228.40
>>>>>End Processed Spectral Data<<<<<
