SpectraSuite Data File
++++++++++++++++++++++++++++++++++++
Date: Fri Feb 01 14:37:48 EST 2013
User: group
Dark Spectrum Present: No
Reference Spectrum Present: No
Number of Sampled Component Spectra: 1
Spectrometers: USB2E7196
Integration Time (usec): 70000 (USB2E7196)
Spectra Averaged: 10 (USB2E7196)
Boxcar Smoothing: 10 (USB2E7196)
Correct for Electrical Dark: No (USB2E7196)
Strobe/Lamp Enabled: No (USB2E7196)
Correct for Detector Non-linearity: No (USB2E7196)
Correct for Stray Light: No (USB2E7196)
Number of Pixels in Processed Spectrum: 2048
>>>>>Begin Processed Spectral Data<<<<<
339.09	0.00
339.48	215.40
339.86	217.20
340.24	220.30
340.63	219.90
341.01	223.70
341.39	223.40
341.78	222.90
342.16	225.90
342.54	225.40
342.93	214.67
343.31	225.46
343.69	226.13
344.07	226.48
344.46	226.85
344.84	227.21
345.22	227.41
345.60	227.57
345.99	227.90
346.37	228.02
346.75	228.03
347.13	227.98
347.52	227.87
347.90	227.86
348.28	227.75
348.66	227.79
349.05	227.83
349.43	227.73
349.81	227.86
350.19	227.83
350.57	227.84
350.96	227.78
351.34	227.94
351.72	227.89
352.10	228.14
352.48	228.07
352.87	228.14
353.25	228.13
353.63	228.21
354.01	228.14
354.39	228.20
354.77	228.31
355.15	228.45
355.54	228.46
355.92	228.55
356.30	228.72
356.68	228.88
357.06	228.85
357.44	228.93
357.82	228.93
358.20	229.07
358.58	229.15
358.97	229.35
359.35	229.29
359.73	229.36
360.11	229.30
360.49	229.51
360.87	229.44
361.25	229.50
361.63	229.66
362.01	229.68
362.39	229.60
362.77	229.64
363.15	229.73
363.53	229.82
363.91	229.84
364.29	229.88
364.67	229.70
365.05	229.75
365.43	229.73
365.81	229.69
366.19	229.69
366.57	229.78
366.95	229.65
367.33	229.64
367.71	229.55
368.09	229.69
368.47	229.59
368.85	229.65
369.23	229.73
369.61	229.60
369.99	229.73
370.37	229.81
370.75	229.97
371.13	229.71
371.51	229.67
371.89	229.61
372.27	229.42
372.65	229.40
373.03	229.30
373.41	229.27
373.78	229.17
374.16	229.09
374.54	228.90
374.92	228.85
375.30	228.82
375.68	228.79
376.06	228.61
376.44	228.56
376.82	228.44
377.19	228.30
377.57	228.20
377.95	227.94
378.33	227.79
378.71	227.57
379.09	227.53
379.47	227.50
379.84	227.41
380.22	227.32
380.60	227.14
380.98	227.20
381.36	227.12
381.73	227.00
382.11	226.88
382.49	226.81
382.87	226.72
383.25	226.62
383.62	226.78
384.00	226.69
384.38	226.60
384.76	226.50
385.13	226.57
385.51	226.47
385.89	226.50
386.27	226.55
386.64	226.48
387.02	226.50
387.40	226.47
387.78	226.47
388.15	226.41
388.53	226.42
388.91	226.24
389.29	226.18
389.66	226.30
390.04	226.39
390.42	226.47
390.79	226.52
391.17	226.60
391.55	226.40
391.92	226.47
392.30	226.49
392.68	226.56
393.05	226.52
393.43	226.56
393.81	226.52
394.18	226.40
394.56	226.52
394.94	226.49
395.31	226.49
395.69	226.55
396.06	226.65
396.44	226.66
396.82	226.71
397.19	226.81
397.57	226.82
397.95	226.79
398.32	226.70
398.70	226.70
399.07	226.73
399.45	226.88
399.82	226.95
400.20	226.98
400.58	227.12
400.95	227.16
401.33	227.28
401.70	227.48
402.08	227.66
402.45	227.64
402.83	227.76
403.20	227.87
403.58	228.07
403.95	228.26
404.33	228.46
404.71	228.63
405.08	228.94
405.46	229.10
405.83	229.36
406.21	229.65
406.58	229.87
406.96	230.03
407.33	230.24
407.70	230.49
408.08	230.91
408.45	231.15
408.83	231.52
409.20	231.84
409.58	232.10
409.95	232.40
410.33	232.79
410.70	233.18
411.08	233.56
411.45	233.90
411.82	234.32
412.20	234.89
412.57	235.70
412.95	236.13
413.32	236.83
413.69	237.36
414.07	238.02
414.44	238.77
414.82	239.51
415.19	240.19
415.56	240.95
415.94	241.73
416.31	242.55
416.68	243.38
417.06	244.41
417.43	245.41
417.81	246.56
418.18	247.87
418.55	249.09
418.93	250.40
419.30	251.69
419.67	253.06
420.04	254.50
420.42	255.93
420.79	257.68
421.16	259.25
421.54	261.22
421.91	263.05
422.28	264.93
422.66	267.01
423.03	269.17
423.40	271.22
423.77	273.35
424.15	275.73
424.52	277.95
424.89	280.64
425.26	283.04
425.64	285.43
426.01	287.83
426.38	290.49
426.75	293.30
427.13	296.13
427.50	299.08
427.87	302.10
428.24	304.93
428.61	307.86
428.99	311.18
429.36	314.36
429.73	317.77
430.10	321.19
430.47	324.52
430.85	327.96
431.22	331.78
431.59	335.80
431.96	339.59
432.33	343.96
432.70	347.92
433.08	352.80
433.45	357.31
433.82	361.76
434.19	366.68
434.56	371.48
434.93	376.01
435.30	380.63
435.68	385.59
436.05	390.50
436.42	395.36
436.79	399.66
437.16	404.68
437.53	409.68
437.90	414.73
438.27	419.87
438.64	424.98
439.01	429.72
439.38	433.94
439.75	438.03
440.13	442.63
440.50	446.95
440.87	450.63
441.24	454.36
441.61	458.69
441.98	461.80
442.35	465.46
442.72	469.17
443.09	472.90
443.46	475.18
443.83	476.95
444.20	478.30
444.57	480.42
444.94	481.40
445.31	482.63
445.68	483.85
446.05	484.48
446.42	484.39
446.79	484.11
447.16	484.00
447.53	484.01
447.90	482.54
448.27	481.20
448.64	478.86
449.01	477.56
449.37	474.69
449.74	471.95
450.11	468.50
450.48	464.82
450.85	460.80
451.22	457.48
451.59	454.41
451.96	451.50
452.33	447.52
452.70	443.75
453.07	439.08
453.43	434.32
453.80	429.86
454.17	425.64
454.54	421.48
454.91	416.93
455.28	412.52
455.65	408.38
456.02	404.28
456.38	400.68
456.75	396.13
457.12	392.30
457.49	388.48
457.86	384.87
458.23	381.71
458.59	378.26
458.96	374.90
459.33	371.69
459.70	368.70
460.07	365.99
460.43	363.16
460.80	360.44
461.17	358.07
461.54	355.44
461.91	352.96
462.27	350.63
462.64	348.57
463.01	346.26
463.38	344.16
463.74	341.79
464.11	339.92
464.48	338.04
464.85	336.01
465.21	334.64
465.58	333.10
465.95	331.16
466.32	329.40
466.68	327.76
467.05	326.09
467.42	324.22
467.78	322.62
468.15	321.07
468.52	319.86
468.88	318.23
469.25	316.88
469.62	315.84
469.98	314.52
470.35	313.19
470.72	311.87
471.08	310.61
471.45	309.49
471.82	308.28
472.18	307.13
472.55	306.43
472.92	305.30
473.28	304.20
473.65	303.22
474.02	302.43
474.38	301.52
474.75	300.71
475.11	299.99
475.48	299.25
475.85	298.58
476.21	297.99
476.58	297.31
476.94	296.77
477.31	296.09
477.67	295.56
478.04	295.01
478.41	294.74
478.77	294.44
479.14	294.08
479.50	293.74
479.87	293.46
480.23	292.99
480.60	292.61
480.96	292.26
481.33	292.12
481.69	292.01
482.06	291.92
482.42	291.75
482.79	291.50
483.15	291.38
483.52	291.38
483.88	291.26
484.25	291.22
484.61	291.19
484.98	291.12
485.34	291.19
485.71	291.49
486.07	291.54
486.44	291.50
486.80	291.50
487.17	291.66
487.53	291.90
487.90	292.22
488.26	292.60
488.62	293.02
488.99	293.33
489.35	293.63
489.72	293.89
490.08	294.31
490.44	294.81
490.81	295.19
491.17	295.50
491.54	295.99
491.90	296.34
492.26	296.81
492.63	297.16
492.99	297.56
493.36	297.95
493.72	298.54
494.08	299.10
494.45	299.70
494.81	300.24
495.17	300.71
495.54	301.29
495.90	301.77
496.26	302.19
496.63	302.66
496.99	303.06
497.35	303.66
497.72	304.24
498.08	304.84
498.44	305.48
498.80	306.05
499.17	306.64
499.53	307.24
499.89	307.73
500.26	308.39
500.62	309.05
500.98	309.61
501.34	309.95
501.71	310.42
502.07	310.90
502.43	311.40
502.79	311.80
503.16	312.17
503.52	312.53
503.88	312.91
504.24	313.32
504.60	313.63
504.97	313.96
505.33	314.26
505.69	314.67
506.05	314.89
506.41	315.24
506.78	315.36
507.14	315.67
507.50	315.89
507.86	316.13
508.22	316.20
508.59	316.21
508.95	316.45
509.31	316.69
509.67	316.87
510.03	316.98
510.39	317.16
510.75	317.22
511.12	317.41
511.48	317.53
511.84	317.69
512.20	317.98
512.56	318.20
512.92	318.35
513.28	318.29
513.64	318.45
514.00	318.59
514.37	318.84
514.73	319.12
515.09	319.32
515.45	319.54
515.81	319.82
516.17	320.18
516.53	320.44
516.89	320.64
517.25	320.97
517.61	321.29
517.97	321.77
518.33	322.19
518.69	322.70
519.05	323.33
519.41	323.95
519.77	324.80
520.13	325.54
520.49	326.38
520.85	327.23
521.21	328.16
521.57	329.12
521.93	330.03
522.29	330.97
522.65	332.05
523.01	333.24
523.37	334.41
523.73	335.69
524.09	337.02
524.45	338.42
524.81	339.97
525.17	341.64
525.53	343.23
525.89	345.02
526.25	346.81
526.61	348.51
526.97	350.45
527.33	352.17
527.68	354.36
528.04	356.44
528.40	358.73
528.76	361.20
529.12	363.50
529.48	365.97
529.84	368.50
530.20	371.31
530.56	374.01
530.91	376.94
531.27	379.81
531.63	382.94
531.99	386.12
532.35	389.20
532.71	392.26
533.07	395.59
533.42	399.11
533.78	402.53
534.14	406.19
534.50	409.61
534.86	413.43
535.21	416.96
535.57	420.91
535.93	424.66
536.29	428.49
536.65	432.46
537.00	436.45
537.36	440.81
537.72	444.84
538.08	449.06
538.44	453.19
538.79	457.66
539.15	461.75
539.51	466.20
539.87	470.89
540.22	475.56
540.58	480.31
540.94	484.94
541.29	489.59
541.65	494.37
542.01	499.23
542.37	503.95
542.72	508.76
543.08	513.57
543.44	518.75
543.79	523.41
544.15	528.39
544.51	533.49
544.87	538.25
545.22	543.37
545.58	548.30
545.94	553.28
546.29	558.15
546.65	563.44
547.01	568.24
547.36	573.37
547.72	578.33
548.07	583.28
548.43	588.11
548.79	593.32
549.14	598.27
549.50	603.54
549.86	608.72
550.21	613.78
550.57	618.77
550.92	623.62
551.28	628.86
551.64	633.96
551.99	638.96
552.35	644.11
552.70	648.96
553.06	654.16
553.41	659.28
553.77	664.49
554.13	669.43
554.48	674.57
554.84	679.31
555.19	684.37
555.55	689.55
555.90	694.55
556.26	699.33
556.61	704.30
556.97	708.79
557.32	713.71
557.68	718.53
558.03	723.39
558.39	728.30
558.74	733.21
559.10	737.92
559.45	742.80
559.81	747.73
560.16	752.51
560.52	757.06
560.87	761.96
561.23	766.51
561.58	771.25
561.94	775.93
562.29	780.39
562.64	784.70
563.00	788.85
563.35	793.28
563.71	797.61
564.06	801.90
564.42	806.41
564.77	810.55
565.12	814.91
565.48	819.09
565.83	822.90
566.19	826.79
566.54	830.95
566.89	834.74
567.25	838.38
567.60	842.56
567.96	846.54
568.31	850.13
568.66	853.86
569.02	857.09
569.37	860.17
569.72	863.08
570.08	866.31
570.43	869.66
570.78	872.66
571.14	875.72
571.49	878.52
571.84	881.59
572.20	884.23
572.55	886.68
572.90	889.05
573.26	891.94
573.61	894.63
573.96	896.57
574.31	898.87
574.67	900.87
575.02	902.50
575.37	904.44
575.72	905.92
576.08	907.49
576.43	909.12
576.78	911.08
577.13	913.40
577.49	915.36
577.84	916.79
578.19	918.39
578.54	919.69
578.90	921.21
579.25	922.12
579.60	923.54
579.95	924.55
580.30	925.76
580.66	926.44
581.01	926.99
581.36	928.05
581.71	929.15
582.06	930.05
582.42	930.67
582.77	931.30
583.12	931.90
583.47	932.59
583.82	933.52
584.17	933.95
584.53	934.20
584.88	934.31
585.23	934.53
585.58	934.90
585.93	935.56
586.28	935.70
586.63	936.03
586.98	936.12
587.34	936.60
587.69	936.77
588.04	936.71
588.39	936.84
588.74	936.60
589.09	936.00
589.44	935.36
589.79	935.25
590.14	935.10
590.49	934.79
590.84	934.20
591.19	933.55
591.54	932.58
591.89	931.47
592.25	931.06
592.60	930.07
592.95	929.01
593.30	927.55
593.65	926.41
594.00	925.34
594.35	924.52
594.70	922.91
595.05	921.81
595.40	920.76
595.75	919.41
596.10	918.35
596.45	917.40
596.80	916.48
597.15	915.31
597.50	913.80
597.85	912.83
598.19	911.86
598.54	910.85
598.89	909.94
599.24	909.25
599.59	908.02
599.94	907.21
600.29	905.89
600.64	904.78
600.99	903.37
601.34	902.12
601.69	900.15
602.04	898.76
602.39	897.23
602.74	895.86
603.08	894.65
603.43	893.35
603.78	891.68
604.13	890.20
604.48	888.58
604.83	887.02
605.18	885.07
605.53	883.02
605.87	881.00
606.22	879.29
606.57	877.07
606.92	875.02
607.27	873.01
607.62	871.41
607.96	869.65
608.31	867.94
608.66	865.56
609.01	863.54
609.36	861.55
609.70	858.96
610.05	856.54
610.40	854.08
610.75	851.44
611.10	848.93
611.44	846.26
611.79	843.81
612.14	841.28
612.49	838.69
612.83	835.94
613.18	833.03
613.53	830.30
613.88	827.65
614.22	825.02
614.57	822.05
614.92	819.05
615.27	816.21
615.61	813.34
615.96	810.75
616.31	808.33
616.65	805.97
617.00	803.53
617.35	801.00
617.70	798.21
618.04	795.33
618.39	792.80
618.74	790.03
619.08	787.00
619.43	784.10
619.78	781.41
620.12	779.02
620.47	776.49
620.82	773.61
621.16	771.03
621.51	768.31
621.85	765.57
622.20	762.56
622.55	759.66
622.89	756.90
623.24	754.55
623.59	751.76
623.93	748.76
624.28	746.04
624.62	743.31
624.97	740.62
625.32	738.30
625.66	735.52
626.01	732.95
626.35	730.43
626.70	727.64
627.04	725.22
627.39	722.19
627.73	719.49
628.08	716.98
628.43	714.11
628.77	711.16
629.12	708.22
629.46	705.69
629.81	702.65
630.15	699.73
630.50	696.39
630.84	693.18
631.19	690.12
631.53	687.12
631.88	683.77
632.22	680.69
632.57	677.70
632.91	674.58
633.26	671.59
633.60	668.47
633.95	665.67
634.29	662.84
634.64	660.45
634.98	657.56
635.32	654.87
635.67	652.39
636.01	649.57
636.36	647.03
636.70	644.40
637.05	642.07
637.39	639.77
637.73	637.17
638.08	635.03
638.42	632.68
638.77	630.36
639.11	627.94
639.45	625.60
639.80	622.90
640.14	620.60
640.49	618.06
640.83	615.81
641.17	613.25
641.52	610.51
641.86	607.84
642.20	605.30
642.55	602.42
642.89	599.69
643.23	597.23
643.58	594.80
643.92	592.06
644.26	589.52
644.61	587.02
644.95	584.53
645.29	581.52
645.64	578.80
645.98	575.96
646.32	573.62
646.66	570.86
647.01	568.38
647.35	565.63
647.69	563.14
648.04	560.60
648.38	558.11
648.72	555.67
649.06	553.00
649.41	550.41
649.75	548.03
650.09	545.54
650.43	542.91
650.78	540.21
651.12	537.63
651.46	535.19
651.80	532.57
652.14	530.22
652.49	527.89
652.83	525.35
653.17	522.73
653.51	520.05
653.85	517.57
654.20	514.86
654.54	512.30
654.88	509.68
655.22	506.92
655.56	504.29
655.90	501.89
656.25	499.34
656.59	496.91
656.93	494.39
657.27	491.97
657.61	489.46
657.95	487.14
658.29	484.94
658.64	482.32
658.98	479.76
659.32	477.11
659.66	474.61
660.00	472.31
660.34	470.00
660.68	467.61
661.02	465.49
661.36	463.25
661.70	461.07
662.05	458.98
662.39	457.03
662.73	455.09
663.07	452.93
663.41	451.01
663.75	448.92
664.09	446.90
664.43	444.84
664.77	442.92
665.11	441.00
665.45	438.98
665.79	437.05
666.13	435.04
666.47	433.24
666.81	431.39
667.15	429.46
667.49	427.68
667.83	426.01
668.17	424.01
668.51	422.17
668.85	420.45
669.19	418.71
669.53	416.85
669.87	414.89
670.21	412.90
670.55	411.07
670.89	409.46
671.23	407.78
671.57	406.12
671.91	404.61
672.25	402.88
672.58	401.30
672.92	399.63
673.26	398.17
673.60	396.44
673.94	394.93
674.28	393.58
674.62	392.28
674.96	390.85
675.30	389.53
675.64	388.01
675.97	386.65
676.31	385.24
676.65	383.79
676.99	382.51
677.33	381.18
677.67	379.85
678.01	378.35
678.34	377.03
678.68	375.68
679.02	374.11
679.36	372.77
679.70	371.41
680.04	370.20
680.37	368.86
680.71	367.69
681.05	366.56
681.39	365.22
681.73	364.00
682.06	362.71
682.40	361.42
682.74	360.45
683.08	359.23
683.42	357.98
683.75	356.76
684.09	355.50
684.43	354.25
684.77	352.96
685.10	351.77
685.44	350.56
685.78	349.34
686.12	348.31
686.45	347.12
686.79	345.79
687.13	344.59
687.46	343.41
687.80	342.40
688.14	340.96
688.48	339.86
688.81	338.52
689.15	337.38
689.49	336.21
689.82	335.04
690.16	333.76
690.50	332.74
690.83	331.71
691.17	330.56
691.51	329.46
691.84	328.48
692.18	327.46
692.52	326.41
692.85	325.32
693.19	324.29
693.52	323.27
693.86	322.41
694.20	321.26
694.53	320.34
694.87	319.22
695.21	318.38
695.54	317.27
695.88	316.22
696.21	315.23
696.55	314.21
696.88	313.23
697.22	312.37
697.56	311.35
697.89	310.46
698.23	309.59
698.56	308.80
698.90	307.87
699.23	306.91
699.57	305.85
699.90	304.98
700.24	303.95
700.58	303.12
700.91	302.28
701.25	301.74
701.58	300.89
701.92	300.14
702.25	299.40
702.59	298.64
702.92	298.00
703.26	297.20
703.59	296.44
703.93	295.91
704.26	295.13
704.60	294.40
704.93	293.50
705.26	292.80
705.60	292.14
705.93	291.40
706.27	290.85
706.60	290.37
706.94	289.78
707.27	289.14
707.61	288.50
707.94	287.76
708.27	287.02
708.61	286.34
708.94	285.69
709.28	284.99
709.61	284.39
709.94	283.70
710.28	283.09
710.61	282.44
710.95	281.56
711.28	281.17
711.61	280.47
711.95	279.95
712.28	279.36
712.61	278.64
712.95	278.10
713.28	277.61
713.61	276.98
713.95	276.38
714.28	275.90
714.61	275.29
714.95	274.83
715.28	274.24
715.61	273.65
715.95	273.17
716.28	272.65
716.61	272.06
716.95	271.62
717.28	271.13
717.61	270.77
717.94	270.30
718.28	269.60
718.61	269.15
718.94	268.73
719.27	268.28
719.61	267.85
719.94	267.47
720.27	266.94
720.60	266.56
720.94	266.10
721.27	265.73
721.60	265.51
721.93	265.11
722.27	264.85
722.60	264.62
722.93	264.12
723.26	263.73
723.59	263.44
723.93	263.17
724.26	262.79
724.59	262.40
724.92	262.11
725.25	261.86
725.59	261.62
725.92	261.28
726.25	260.93
726.58	260.76
726.91	260.36
727.24	260.08
727.57	259.80
727.91	259.60
728.24	259.30
728.57	258.93
728.90	258.68
729.23	258.34
729.56	257.95
729.89	257.65
730.22	257.28
730.55	256.98
730.89	256.68
731.22	256.64
731.55	256.32
731.88	256.11
732.21	255.79
732.54	255.57
732.87	255.34
733.20	255.07
733.53	254.80
733.86	254.67
734.19	254.36
734.52	254.06
734.85	253.92
735.18	253.61
735.51	253.38
735.84	253.04
736.17	252.83
736.50	252.59
736.83	252.58
737.16	252.41
737.49	252.33
737.82	252.00
738.15	251.71
738.48	251.52
738.81	251.26
739.14	251.06
739.47	250.73
739.80	250.43
740.13	250.25
740.46	249.90
740.79	249.57
741.12	249.37
741.45	249.12
741.78	248.78
742.11	248.65
742.44	248.40
742.77	248.30
743.10	247.91
743.43	247.62
743.75	247.23
744.08	247.33
744.41	247.00
744.74	246.78
745.07	246.32
745.40	246.16
745.73	246.04
746.06	245.82
746.39	245.65
746.71	245.58
747.04	245.31
747.37	245.20
747.70	245.01
748.03	244.78
748.36	244.67
748.68	244.54
749.01	244.22
749.34	243.94
749.67	243.77
750.00	243.62
750.33	243.65
750.65	243.48
750.98	243.02
751.31	242.80
751.64	242.67
751.97	242.74
752.29	242.48
752.62	242.20
752.95	242.12
753.28	241.98
753.60	241.75
753.93	241.70
754.26	241.42
754.59	241.27
754.91	241.13
755.24	240.97
755.57	240.73
755.90	240.61
756.22	240.46
756.55	240.19
756.88	239.96
757.20	239.65
757.53	239.50
757.86	239.35
758.19	239.31
758.51	239.23
758.84	238.96
759.17	238.93
759.49	238.83
759.82	238.74
760.15	238.70
760.47	238.56
760.80	238.46
761.13	238.33
761.45	238.19
761.78	238.01
762.11	237.97
762.43	237.90
762.76	237.81
763.08	237.76
763.41	237.75
763.74	237.91
764.06	237.75
764.39	237.71
764.71	237.61
765.04	237.44
765.37	237.29
765.69	237.28
766.02	237.14
766.34	237.10
766.67	236.88
767.00	236.72
767.32	236.83
767.65	236.79
767.97	236.87
768.30	236.84
768.62	236.95
768.95	236.78
769.27	236.72
769.60	236.69
769.92	236.59
770.25	236.45
770.57	236.27
770.90	236.30
771.22	236.23
771.55	236.19
771.87	236.19
772.20	236.10
772.52	236.25
772.85	236.42
773.17	236.27
773.50	236.25
773.82	236.20
774.15	235.90
774.47	235.66
774.80	235.44
775.12	235.42
775.45	235.29
775.77	235.21
776.09	235.20
776.42	235.08
776.74	235.07
777.07	235.08
777.39	235.02
777.72	235.00
778.04	234.94
778.36	234.86
778.69	234.80
779.01	234.79
779.33	234.51
779.66	234.27
779.98	234.30
780.31	234.28
780.63	234.23
780.95	234.27
781.28	234.25
781.60	234.33
781.92	234.21
782.25	234.16
782.57	234.18
782.89	234.01
783.22	234.04
783.54	234.00
783.86	233.93
784.19	233.82
784.51	233.72
784.83	233.63
785.16	233.51
785.48	233.46
785.80	233.36
786.12	233.20
786.45	233.05
786.77	232.97
787.09	232.85
787.42	232.72
787.74	232.66
788.06	232.69
788.38	232.50
788.71	232.38
789.03	232.21
789.35	232.11
789.67	232.02
789.99	231.86
790.32	231.73
790.64	231.74
790.96	231.89
791.28	231.78
791.61	231.63
791.93	231.60
792.25	231.51
792.57	231.63
792.89	231.61
793.21	231.64
793.54	231.56
793.86	231.57
794.18	231.57
794.50	231.47
794.82	231.38
795.14	231.35
795.47	231.37
795.79	231.41
796.11	231.38
796.43	231.21
796.75	231.25
797.07	231.23
797.39	231.09
797.71	230.81
798.04	230.78
798.36	230.74
798.68	230.78
799.00	230.71
799.32	230.61
799.64	230.58
799.96	230.52
800.28	230.62
800.60	230.53
800.92	230.55
801.24	230.49
801.56	230.51
801.89	230.53
802.21	230.42
802.53	230.43
802.85	230.37
803.17	230.60
803.49	230.45
803.81	230.38
804.13	230.39
804.45	230.45
804.77	230.49
805.09	230.60
805.41	230.58
805.73	230.71
806.05	230.62
806.37	230.66
806.69	230.71
807.01	230.56
807.33	230.57
807.65	230.42
807.97	230.52
808.28	230.50
808.60	230.54
808.92	230.63
809.24	230.70
809.56	230.73
809.88	230.59
810.20	230.70
810.52	230.81
810.84	230.85
811.16	230.78
811.48	230.92
811.80	230.93
812.12	230.86
812.43	230.80
812.75	230.85
813.07	230.84
813.39	230.75
813.71	230.69
814.03	230.67
814.35	230.76
814.67	230.65
814.98	230.55
815.30	230.54
815.62	230.58
815.94	230.50
816.26	230.59
816.58	230.58
816.89	230.54
817.21	230.51
817.53	230.45
817.85	230.64
818.17	230.49
818.48	230.40
818.80	230.47
819.12	230.44
819.44	230.39
819.76	230.38
820.07	230.37
820.39	230.35
820.71	230.21
821.03	230.17
821.34	230.18
821.66	230.26
821.98	230.27
822.30	230.19
822.61	230.30
822.93	230.16
823.25	230.12
823.57	230.09
823.88	230.13
824.20	230.08
824.52	229.92
824.83	229.83
825.15	229.83
825.47	229.81
825.79	229.79
826.10	229.62
826.42	229.51
826.74	229.51
827.05	229.54
827.37	229.51
827.69	229.47
828.00	229.46
828.32	229.42
828.64	229.31
828.95	229.35
829.27	229.20
829.58	229.18
829.90	229.20
830.22	229.14
830.53	229.05
830.85	229.01
831.17	228.93
831.48	229.00
831.80	228.90
832.11	228.83
832.43	228.72
832.75	228.76
833.06	228.82
833.38	228.72
833.69	228.78
834.01	228.76
834.32	228.76
834.64	228.71
834.96	228.71
835.27	228.64
835.59	228.53
835.90	228.53
836.22	228.48
836.53	228.39
836.85	228.39
837.16	228.52
837.48	228.57
837.79	228.53
838.11	228.46
838.42	228.54
838.74	228.51
839.05	228.53
839.37	228.59
839.68	228.50
840.00	228.48
840.31	228.42
840.63	228.45
840.94	228.49
841.26	228.32
841.57	228.27
841.88	228.40
842.20	228.40
842.51	228.35
842.83	228.44
843.14	228.60
843.46	228.60
843.77	228.49
844.08	228.47
844.40	228.57
844.71	228.54
845.03	228.45
845.34	228.49
845.65	228.45
845.97	228.50
846.28	228.45
846.60	228.43
846.91	228.42
847.22	228.49
847.54	228.53
847.85	228.76
848.16	228.83
848.48	228.76
848.79	228.85
849.10	228.86
849.42	228.84
849.73	228.72
850.04	228.65
850.36	228.56
850.67	228.60
850.98	228.52
851.30	228.59
851.61	228.62
851.92	228.70
852.23	228.81
852.55	228.78
852.86	228.80
853.17	229.04
853.49	229.19
853.80	229.27
854.11	229.22
854.42	229.23
854.74	229.22
855.05	229.32
855.36	229.21
855.67	229.21
855.99	229.18
856.30	229.47
856.61	229.50
856.92	229.61
857.23	229.62
857.55	229.70
857.86	229.69
858.17	229.84
858.48	229.77
858.79	229.76
859.11	229.67
859.42	229.75
859.73	229.55
860.04	229.43
860.35	229.36
860.66	229.32
860.98	229.33
861.29	229.30
861.60	229.15
861.91	229.16
862.22	229.11
862.53	229.04
862.84	228.77
863.16	228.87
863.47	228.78
863.78	228.73
864.09	228.60
864.40	228.62
864.71	228.48
865.02	228.44
865.33	228.39
865.64	228.42
865.95	228.33
866.27	228.47
866.58	228.46
866.89	228.41
867.20	228.30
867.51	228.15
867.82	228.12
868.13	228.20
868.44	228.21
868.75	228.28
869.06	228.25
869.37	228.13
869.68	228.05
869.99	228.05
870.30	227.98
870.61	227.96
870.92	227.94
871.23	227.90
871.54	228.00
871.85	228.00
872.16	228.05
872.47	228.09
872.78	227.95
873.09	227.98
873.40	227.96
873.71	228.10
874.02	228.12
874.33	228.09
874.64	227.97
874.95	227.96
875.26	227.85
875.56	227.87
875.87	228.06
876.18	227.95
876.49	228.08
876.80	228.17
877.11	228.26
877.42	228.20
877.73	228.21
878.04	228.13
878.35	227.99
878.66	228.00
878.96	227.96
879.27	228.07
879.58	228.05
879.89	228.10
880.20	228.07
880.51	228.18
880.82	228.20
881.12	228.27
881.43	228.25
881.74	228.19
882.05	228.13
882.36	228.04
882.67	228.16
882.97	228.00
883.28	227.94
883.59	227.97
883.90	228.03
884.21	228.04
884.51	228.10
884.82	228.20
885.13	228.23
885.44	228.31
885.74	228.29
886.05	228.23
886.36	228.17
886.67	228.07
886.98	228.09
887.28	228.11
887.59	228.06
887.90	228.01
888.20	228.17
888.51	228.29
888.82	228.32
889.13	228.35
889.43	228.53
889.74	228.50
890.05	228.50
890.35	228.50
890.66	228.55
890.97	228.47
891.28	228.56
891.58	228.53
891.89	228.56
892.20	228.47
892.50	228.51
892.81	228.55
893.12	228.64
893.42	228.74
893.73	228.73
894.04	228.79
894.34	228.90
894.65	228.85
894.95	228.98
895.26	228.92
895.57	229.02
895.87	228.84
896.18	229.05
896.48	229.01
896.79	228.97
897.10	228.93
897.40	228.94
897.71	228.93
898.01	228.99
898.32	228.97
898.63	229.05
898.93	229.04
899.24	229.00
899.54	228.96
899.85	228.73
900.15	228.73
900.46	228.70
900.76	228.75
901.07	228.80
901.38	228.73
901.68	228.72
901.99	228.58
902.29	228.58
902.60	228.38
902.90	228.30
903.21	228.25
903.51	228.22
903.82	228.24
904.12	228.18
904.43	228.06
904.73	228.03
905.03	227.94
905.34	228.12
905.64	228.13
905.95	228.12
906.25	228.11
906.56	228.03
906.86	228.03
907.17	227.93
907.47	227.75
907.77	227.57
908.08	227.55
908.38	227.59
908.69	227.62
908.99	227.72
909.30	227.76
909.60	227.84
909.90	227.80
910.21	227.72
910.51	227.58
910.81	227.58
911.12	227.58
911.42	227.50
911.73	227.26
912.03	227.29
912.33	227.31
912.64	227.30
912.94	227.32
913.24	227.32
913.55	227.27
913.85	227.40
914.15	227.46
914.46	227.51
914.76	227.48
915.06	227.38
915.37	227.30
915.67	227.28
915.97	227.27
916.27	227.21
916.58	227.28
916.88	227.38
917.18	227.50
917.49	227.55
917.79	227.58
918.09	227.68
918.39	227.72
918.70	227.78
919.00	227.84
919.30	227.95
919.60	227.95
919.91	228.01
920.21	228.00
920.51	227.97
920.81	227.96
921.12	227.93
921.42	228.00
921.72	228.14
922.02	228.19
922.32	228.20
922.63	228.23
922.93	228.34
923.23	228.41
923.53	228.28
923.83	228.23
924.13	228.35
924.44	228.33
924.74	228.45
925.04	228.42
925.34	228.42
925.64	228.31
925.94	228.29
926.24	228.41
926.55	228.47
926.85	228.47
927.15	228.51
927.45	228.61
927.75	228.67
928.05	228.60
928.35	228.62
928.65	228.58
928.95	228.71
929.26	228.69
929.56	228.79
929.86	228.85
930.16	228.91
930.46	228.91
930.76	228.94
931.06	228.76
931.36	228.79
931.66	228.80
931.96	228.90
932.26	228.89
932.56	228.88
932.86	228.84
933.16	228.92
933.46	228.92
933.76	228.85
934.06	228.80
934.36	228.81
934.66	228.85
934.96	228.86
935.26	228.86
935.56	228.88
935.86	228.70
936.16	228.66
936.46	228.56
936.76	228.57
937.06	228.46
937.36	228.48
937.66	228.45
937.96	228.47
938.26	228.39
938.56	228.41
938.86	228.27
939.16	228.27
939.46	228.17
939.76	228.12
940.06	228.14
940.35	228.14
940.65	228.14
940.95	228.00
941.25	227.93
941.55	227.80
941.85	227.69
942.15	227.71
942.45	227.80
942.75	227.79
943.04	227.80
943.34	227.92
943.64	227.96
943.94	228.01
944.24	227.92
944.54	227.93
944.84	227.95
945.13	227.95
945.43	227.94
945.73	228.00
946.03	227.96
946.33	227.98
946.62	227.88
946.92	227.84
947.22	227.92
947.52	227.92
947.82	227.97
948.11	227.96
948.41	227.95
948.71	227.91
949.01	227.90
949.31	227.81
949.60	227.75
949.90	227.68
950.20	227.61
950.50	227.70
950.79	227.80
951.09	227.74
951.39	227.74
951.69	227.75
951.98	227.77
952.28	227.84
952.58	227.78
952.87	227.80
953.17	227.73
953.47	227.76
953.76	227.86
954.06	227.90
954.36	227.90
954.66	227.95
954.95	227.99
955.25	228.00
955.55	228.02
955.84	228.01
956.14	228.11
956.44	228.03
956.73	227.93
957.03	227.84
957.32	228.00
957.62	228.10
957.92	228.09
958.21	228.13
958.51	228.46
958.81	228.51
959.10	228.60
959.40	228.73
959.69	228.79
959.99	228.82
960.29	228.81
960.58	228.88
960.88	228.92
961.17	228.96
961.47	229.06
961.76	229.10
962.06	229.18
962.36	229.18
962.65	229.35
962.95	229.44
963.24	229.45
963.54	229.45
963.83	229.44
964.13	229.55
964.42	229.57
964.72	229.26
965.01	229.28
965.31	229.34
965.60	229.37
965.90	229.50
966.19	229.45
966.49	229.49
966.78	229.47
967.08	229.47
967.37	229.39
967.67	229.27
967.96	229.32
968.26	229.30
968.55	229.34
968.85	229.25
969.14	229.09
969.43	229.08
969.73	228.98
970.02	228.99
970.32	228.92
970.61	228.83
970.91	228.82
971.20	228.77
971.49	228.79
971.79	228.78
972.08	228.53
972.38	228.49
972.67	228.47
972.96	228.48
973.26	228.47
973.55	228.52
973.85	228.67
974.14	228.61
974.43	228.54
974.73	228.47
975.02	228.43
975.31	228.52
975.61	228.53
975.90	228.52
976.19	228.47
976.49	228.50
976.78	228.50
977.07	228.43
977.37	228.51
977.66	228.47
977.95	228.47
978.24	228.59
978.54	228.66
978.83	228.61
979.12	228.58
979.42	228.45
979.71	228.44
980.00	228.33
980.29	228.30
980.59	228.36
980.88	228.37
981.17	228.41
981.46	228.48
981.76	228.47
982.05	228.55
982.34	228.53
982.63	228.47
982.93	228.51
983.22	228.52
983.51	228.40
983.80	228.38
984.09	228.29
984.39	228.25
984.68	228.19
984.97	228.18
985.26	228.19
985.55	228.26
985.85	228.17
986.14	228.20
986.43	228.20
986.72	228.03
987.01	227.95
987.30	227.86
987.59	227.74
987.89	227.71
988.18	227.63
988.47	227.57
988.76	227.59
989.05	227.55
989.34	227.60
989.63	227.71
989.92	227.62
990.22	227.64
990.51	227.52
990.80	227.56
991.09	227.58
991.38	227.65
991.67	227.58
991.96	227.63
992.25	227.57
992.54	227.57
992.83	227.69
993.12	227.71
993.41	227.84
993.70	228.02
993.99	228.08
994.28	228.15
994.58	228.18
994.87	228.13
995.16	228.13
995.45	228.06
995.74	227.97
996.03	228.05
996.32	228.04
996.61	228.16
996.90	228.11
997.19	228.15
997.48	228.10
997.77	228.17
998.06	228.20
998.34	228.22
998.63	228.21
998.92	228.22
999.21	228.23
999.50	228.25
999.79	228.15
1000.08	228.13
1000.37	228.13
1000.66	228.18
1000.95	228.24
1001.24	228.33
1001.53	228.45
1001.82	228.46
1002.11	228.44
1002.40	228.45
1002.68	228.53
1002.97	228.65
1003.26	228.62
1003.55	228.58
1003.84	228.65
1004.13	228.69
1004.42	228.75
1004.71	228.76
1004.99	228.74
1005.28	228.72
1005.57	228.72
1005.86	228.71
1006.15	228.73
1006.44	228.65
1006.72	228.65
1007.01	228.66
1007.30	228.60
1007.59	228.60
1007.88	228.57
1008.17	228.57
1008.45	228.54
1008.74	228.45
1009.03	228.45
1009.32	228.42
1009.60	228.40
1009.89	228.27
1010.18	228.15
1010.47	228.08
1010.76	228.11
1011.04	228.09
1011.33	228.21
1011.62	228.09
1011.91	228.06
1012.19	228.02
1012.48	228.13
1012.77	228.12
1013.05	228.20
1013.34	228.12
1013.63	228.05
1013.92	228.06
1014.20	228.03
1014.49	228.02
1014.78	227.96
1015.06	227.84
1015.35	227.79
1015.64	227.88
1015.92	227.83
1016.21	227.77
1016.50	227.78
1016.78	227.77
1017.07	227.87
1017.36	227.76
1017.64	227.81
1017.93	227.84
1018.22	227.77
1018.50	227.67
1018.79	227.59
1019.08	227.48
1019.36	227.47
1019.65	227.47
1019.93	227.49
1020.22	227.56
1020.51	227.71
1020.79	227.67
1021.08	226.40
1021.36	227.40
1021.65	226.70
1021.94	228.30
1022.22	226.30
1022.51	227.70
1022.79	227.80
1023.08	229.20
1023.36	231.00
1023.65	226.40
>>>>>End Processed Spectral Data<<<<<
