SpectraSuite Data File
++++++++++++++++++++++++++++++++++++
Date: Fri Feb 01 14:34:03 EST 2013
User: group
Dark Spectrum Present: No
Reference Spectrum Present: No
Number of Sampled Component Spectra: 1
Spectrometers: USB2E7196
Integration Time (usec): 70000 (USB2E7196)
Spectra Averaged: 10 (USB2E7196)
Boxcar Smoothing: 10 (USB2E7196)
Correct for Electrical Dark: No (USB2E7196)
Strobe/Lamp Enabled: No (USB2E7196)
Correct for Detector Non-linearity: No (USB2E7196)
Correct for Stray Light: No (USB2E7196)
Number of Pixels in Processed Spectrum: 2048
>>>>>Begin Processed Spectral Data<<<<<
339.09	0.00
339.48	216.50
339.86	218.90
340.24	218.20
340.63	220.50
341.01	224.60
341.39	224.10
341.78	223.30
342.16	227.10
342.54	225.50
342.93	214.69
343.31	225.50
343.69	225.98
344.07	226.42
344.46	226.91
344.84	227.29
345.22	227.43
345.60	227.60
345.99	227.80
346.37	227.90
346.75	227.97
347.13	227.96
347.52	228.10
347.90	228.21
348.28	228.27
348.66	228.40
349.05	228.43
349.43	228.50
349.81	228.59
350.19	228.62
350.57	228.51
350.96	228.59
351.34	228.65
351.72	228.70
352.10	228.68
352.48	228.76
352.87	228.90
353.25	229.03
353.63	229.11
354.01	229.15
354.39	229.18
354.77	229.37
355.15	229.52
355.54	229.50
355.92	229.50
356.30	229.48
356.68	229.71
357.06	229.74
357.44	229.79
357.82	229.75
358.20	229.91
358.58	230.13
358.97	230.15
359.35	230.33
359.73	230.49
360.11	230.49
360.49	230.55
360.87	230.53
361.25	230.53
361.63	230.64
362.01	230.68
362.39	230.68
362.77	230.74
363.15	230.81
363.53	230.92
363.91	230.98
364.29	231.09
364.67	230.95
365.05	230.89
365.43	230.97
365.81	231.05
366.19	231.04
366.57	231.08
366.95	231.04
367.33	231.01
367.71	231.02
368.09	231.14
368.47	231.10
368.85	231.00
369.23	231.05
369.61	230.88
369.99	231.00
370.37	231.05
370.75	231.06
371.13	230.90
371.51	230.75
371.89	230.73
372.27	230.59
372.65	230.60
373.03	230.68
373.41	230.44
373.78	230.35
374.16	230.23
374.54	230.13
374.92	230.03
375.30	229.82
375.68	229.76
376.06	229.70
376.44	229.57
376.82	229.60
377.19	229.55
377.57	229.58
377.95	229.35
378.33	229.23
378.71	229.02
379.09	228.93
379.47	228.88
379.84	228.71
380.22	228.67
380.60	228.51
380.98	228.43
381.36	228.48
381.73	228.40
382.11	228.26
382.49	228.20
382.87	228.26
383.25	228.25
383.62	228.34
384.00	228.21
384.38	228.22
384.76	228.17
385.13	228.23
385.51	228.11
385.89	228.06
386.27	228.00
386.64	227.97
387.02	227.95
387.40	227.99
387.78	227.99
388.15	227.96
388.53	227.84
388.91	227.86
389.29	227.73
389.66	227.87
390.04	227.94
390.42	227.98
390.79	227.87
391.17	227.93
391.55	227.72
391.92	227.79
392.30	227.81
392.68	227.84
393.05	227.79
393.43	227.95
393.81	228.01
394.18	228.10
394.56	228.17
394.94	228.27
395.31	228.33
395.69	228.39
396.06	228.53
396.44	228.68
396.82	228.67
397.19	228.90
397.57	228.93
397.95	229.11
398.32	229.14
398.70	229.37
399.07	229.58
399.45	229.80
399.82	229.98
400.20	230.14
400.58	230.23
400.95	230.30
401.33	230.44
401.70	230.86
402.08	231.06
402.45	231.29
402.83	231.60
403.20	231.88
403.58	232.16
403.95	232.36
404.33	232.66
404.71	233.01
405.08	233.37
405.46	233.69
405.83	233.95
406.21	234.35
406.58	234.68
406.96	235.02
407.33	235.40
407.70	235.85
408.08	236.48
408.45	237.17
408.83	237.81
409.20	238.48
409.58	239.01
409.95	239.74
410.33	240.51
410.70	241.17
411.08	242.00
411.45	242.97
411.82	243.90
412.20	244.91
412.57	246.17
412.95	247.22
413.32	248.43
413.69	249.84
414.07	251.20
414.44	252.76
414.82	254.27
415.19	256.04
415.56	257.91
415.94	259.81
416.31	261.83
416.68	263.94
417.06	266.24
417.43	268.54
417.81	271.15
418.18	273.73
418.55	276.72
418.93	279.62
419.30	282.92
419.67	286.30
420.04	289.72
420.42	293.20
420.79	297.25
421.16	301.46
421.54	305.62
421.91	310.00
422.28	314.49
422.66	319.38
423.03	324.18
423.40	329.09
423.77	334.28
424.15	339.59
424.52	345.20
424.89	351.19
425.26	357.02
425.64	362.59
426.01	368.75
426.38	374.94
426.75	381.42
427.13	387.89
427.50	394.72
427.87	402.10
428.24	409.32
428.61	416.25
428.99	423.68
429.36	432.02
429.73	440.14
430.10	448.13
430.47	456.30
430.85	464.80
431.22	473.62
431.59	483.17
431.96	492.28
432.33	502.21
432.70	512.06
433.08	523.52
433.45	534.28
433.82	545.03
434.19	557.10
434.56	568.66
434.93	579.81
435.30	591.14
435.68	603.36
436.05	615.67
436.42	627.80
436.79	638.98
437.16	650.73
437.53	663.20
437.90	675.78
438.27	688.14
438.64	700.87
439.01	712.77
439.38	723.17
439.75	733.10
440.13	744.66
440.50	755.66
440.87	764.79
441.24	774.30
441.61	784.97
441.98	792.77
442.35	802.17
442.72	811.70
443.09	820.73
443.46	826.57
443.83	830.49
444.20	834.67
444.57	839.94
444.94	843.18
445.31	846.60
445.68	849.75
446.05	851.86
446.42	851.85
446.79	851.51
447.16	851.45
447.53	852.34
447.90	849.46
448.27	846.14
448.64	841.02
449.01	838.03
449.37	831.05
449.74	824.52
450.11	816.07
450.48	806.78
450.85	797.58
451.22	789.88
451.59	782.48
451.96	775.20
452.33	765.15
452.70	756.19
453.07	745.06
453.43	733.68
453.80	723.00
454.17	712.59
454.54	702.73
454.91	691.89
455.28	681.12
455.65	671.15
456.02	661.02
456.38	652.61
456.75	641.66
457.12	632.70
457.49	623.68
457.86	615.22
458.23	607.76
458.59	599.26
458.96	590.60
459.33	583.13
459.70	575.51
460.07	569.54
460.43	562.32
460.80	555.71
461.17	549.98
461.54	543.61
461.91	537.77
462.27	532.08
462.64	527.05
463.01	521.38
463.38	516.10
463.74	510.84
464.11	505.92
464.48	501.72
464.85	497.19
465.21	493.60
465.58	489.74
465.95	485.27
466.32	481.53
466.68	477.98
467.05	474.30
467.42	470.60
467.78	466.58
468.15	462.87
468.52	460.00
468.88	456.33
469.25	453.25
469.62	450.68
469.98	447.85
470.35	445.19
470.72	442.52
471.08	439.73
471.45	437.44
471.82	434.99
472.18	432.35
472.55	430.31
472.92	428.14
473.28	426.33
473.65	424.47
474.02	422.72
474.38	421.11
474.75	419.85
475.11	418.37
475.48	417.29
475.85	416.54
476.21	415.61
476.58	414.71
476.94	413.83
477.31	413.12
477.67	412.25
478.04	411.40
478.41	411.08
478.77	410.70
479.14	410.29
479.50	410.07
479.87	409.94
480.23	410.03
480.60	409.78
480.96	409.70
481.33	409.90
481.69	410.10
482.06	410.12
482.42	410.08
482.79	410.35
483.15	410.97
483.52	411.47
483.88	412.09
484.25	412.85
484.61	413.59
484.98	414.33
485.34	415.56
485.71	416.98
486.07	418.23
486.44	419.57
486.80	420.96
487.17	422.67
487.53	424.69
487.90	426.54
488.26	428.66
488.62	430.78
488.99	432.81
489.35	434.97
489.72	437.43
490.08	440.06
490.44	442.64
490.81	445.33
491.17	447.94
491.54	450.85
491.90	453.72
492.26	456.92
492.63	460.26
492.99	463.58
493.36	467.13
493.72	470.82
494.08	474.30
494.45	478.42
494.81	482.23
495.17	486.05
495.54	490.01
495.90	494.30
496.26	498.43
496.63	502.76
496.99	507.44
497.35	512.16
497.72	516.86
498.08	521.64
498.44	526.43
498.80	531.83
499.17	536.84
499.53	542.02
499.89	547.31
500.26	552.39
500.62	557.69
500.98	563.13
501.34	568.42
501.71	573.98
502.07	578.99
502.43	584.45
502.79	589.94
503.16	595.50
503.52	601.00
503.88	606.54
504.24	612.23
504.60	617.71
504.97	623.39
505.33	629.00
505.69	634.65
506.05	640.36
506.41	645.88
506.78	651.41
507.14	657.01
507.50	662.67
507.86	668.27
508.22	673.74
508.59	678.87
508.95	684.32
509.31	690.03
509.67	696.02
510.03	701.61
510.39	706.92
510.75	712.13
511.12	717.54
511.48	722.84
511.84	727.98
512.20	732.93
512.56	737.82
512.92	742.99
513.28	747.85
513.64	752.48
514.00	756.94
514.37	761.59
514.73	765.98
515.09	770.08
515.45	774.49
515.81	778.48
516.17	782.96
516.53	787.21
516.89	790.92
517.25	794.51
517.61	798.11
517.97	801.81
518.33	805.21
518.69	808.50
519.05	811.92
519.41	815.66
519.77	819.45
520.13	823.07
520.49	826.20
520.85	829.67
521.21	832.91
521.57	836.22
521.93	839.05
522.29	842.58
522.65	845.99
523.01	848.76
523.37	851.72
523.73	854.55
524.09	857.31
524.45	860.17
524.81	863.18
525.17	866.09
525.53	869.21
525.89	872.30
526.25	875.16
526.61	877.97
526.97	880.44
527.33	882.75
527.68	885.21
528.04	887.83
528.40	890.25
528.76	892.96
529.12	895.80
529.48	898.80
529.84	901.00
530.20	903.54
530.56	906.70
530.91	909.93
531.27	912.53
531.63	915.13
531.99	917.94
532.35	920.28
532.71	922.47
533.07	925.09
533.42	927.93
533.78	930.76
534.14	933.37
534.50	935.51
534.86	938.26
535.21	940.79
535.57	943.53
535.93	945.96
536.29	948.43
536.65	950.49
537.00	952.76
537.36	955.62
537.72	957.72
538.08	959.86
538.44	961.79
538.79	963.95
539.15	965.92
539.51	968.12
539.87	970.82
540.22	973.54
540.58	976.00
540.94	978.22
541.29	980.31
541.65	982.65
542.01	985.74
542.37	988.22
542.72	990.14
543.08	992.18
543.44	994.70
543.79	996.70
544.15	999.40
544.51	1002.23
544.87	1004.78
545.22	1007.57
545.58	1009.80
545.94	1011.96
546.29	1014.37
546.65	1017.01
547.01	1019.14
547.36	1021.11
547.72	1023.20
548.07	1025.23
548.43	1027.12
548.79	1029.12
549.14	1030.86
549.50	1032.47
549.86	1034.17
550.21	1036.35
550.57	1038.41
550.92	1040.40
551.28	1042.51
551.64	1044.28
551.99	1045.89
552.35	1047.48
552.70	1049.11
553.06	1051.01
553.41	1053.03
553.77	1055.02
554.13	1056.76
554.48	1058.57
554.84	1060.28
555.19	1062.18
555.55	1063.90
555.90	1065.78
556.26	1067.74
556.61	1069.51
556.97	1071.40
557.32	1073.20
557.68	1075.30
558.03	1077.19
558.39	1078.69
558.74	1080.62
559.10	1081.88
559.45	1083.43
559.81	1085.41
560.16	1086.90
560.52	1088.70
560.87	1090.34
561.23	1091.64
561.58	1093.17
561.94	1094.83
562.29	1096.37
562.64	1097.71
563.00	1099.21
563.35	1101.00
563.71	1102.48
564.06	1104.20
564.42	1105.49
564.77	1107.20
565.12	1108.39
565.48	1109.80
565.83	1110.91
566.19	1112.10
566.54	1113.64
566.89	1114.56
567.25	1115.20
567.60	1116.84
567.96	1117.93
568.31	1119.03
568.66	1119.90
569.02	1120.74
569.37	1121.40
569.72	1122.17
570.08	1123.04
570.43	1123.54
570.78	1123.72
571.14	1123.99
571.49	1124.41
571.84	1125.25
572.20	1125.14
572.55	1125.32
572.90	1125.12
573.26	1125.33
573.61	1125.21
573.96	1125.28
574.31	1125.02
574.67	1124.31
575.02	1123.32
575.37	1122.49
575.72	1121.28
576.08	1120.72
576.43	1119.84
576.78	1119.21
577.13	1118.72
577.49	1118.00
577.84	1117.01
578.19	1116.25
578.54	1115.38
578.90	1114.30
579.25	1112.52
579.60	1111.41
579.95	1109.82
580.30	1108.56
580.66	1107.05
581.01	1105.36
581.36	1103.79
581.71	1102.39
582.06	1101.11
582.42	1099.60
582.77	1098.15
583.12	1096.84
583.47	1095.38
583.82	1094.14
584.17	1092.25
584.53	1090.08
584.88	1088.21
585.23	1086.58
585.58	1084.82
585.93	1082.79
586.28	1081.02
586.63	1079.45
586.98	1077.47
587.34	1075.88
587.69	1073.99
588.04	1072.31
588.39	1070.71
588.74	1068.24
589.09	1066.12
589.44	1063.63
589.79	1061.65
590.14	1059.65
590.49	1057.34
590.84	1054.85
591.19	1052.63
591.54	1050.00
591.89	1047.20
592.25	1044.69
592.60	1041.60
592.95	1038.57
593.30	1035.67
593.65	1032.66
594.00	1029.65
594.35	1027.52
594.70	1024.40
595.05	1021.60
595.40	1018.13
595.75	1014.72
596.10	1012.38
596.45	1009.74
596.80	1007.51
597.15	1004.62
597.50	1001.53
597.85	999.08
598.19	996.46
598.54	993.66
598.89	990.78
599.24	988.76
599.59	985.80
599.94	983.40
600.29	980.55
600.64	977.86
600.99	974.87
601.34	972.17
601.69	968.31
602.04	965.16
602.39	962.00
602.74	959.58
603.08	957.08
603.43	954.01
603.78	951.10
604.13	947.89
604.48	944.70
604.83	941.77
605.18	938.67
605.53	935.09
605.87	931.52
606.22	929.02
606.57	925.26
606.92	922.16
607.27	919.28
607.62	916.45
607.96	913.69
608.31	910.48
608.66	906.90
609.01	903.74
609.36	900.42
609.70	896.59
610.05	892.93
610.40	889.37
610.75	885.85
611.10	882.07
611.44	878.19
611.79	874.81
612.14	871.09
612.49	866.81
612.83	863.40
613.18	859.63
613.53	855.77
613.88	851.91
614.22	847.98
614.57	843.84
614.92	839.74
615.27	835.82
615.61	832.16
615.96	828.47
616.31	825.04
616.65	822.10
617.00	819.24
617.35	816.00
617.70	812.18
618.04	808.25
618.39	804.59
618.74	801.14
619.08	797.17
619.43	793.49
619.78	790.56
620.12	786.86
620.47	783.45
620.82	779.49
621.16	776.27
621.51	773.08
621.85	769.50
622.20	766.28
622.55	762.75
622.89	759.32
623.24	756.25
623.59	753.06
623.93	749.74
624.28	746.40
624.62	743.10
624.97	740.02
625.32	737.20
625.66	734.18
626.01	731.13
626.35	727.94
626.70	724.61
627.04	721.24
627.39	718.17
627.73	715.07
628.08	712.30
628.43	709.23
628.77	705.91
629.12	702.87
629.46	699.54
629.81	696.12
630.15	692.75
630.50	689.36
630.84	685.77
631.19	681.89
631.53	678.42
631.88	674.85
632.22	671.29
632.57	668.01
632.91	664.74
633.26	661.50
633.60	658.34
633.95	655.47
634.29	652.43
634.64	649.68
634.98	646.39
635.32	643.45
635.67	640.67
636.01	637.76
636.36	634.63
636.70	631.86
637.05	629.16
637.39	626.76
637.73	624.04
638.08	621.69
638.42	619.32
638.77	616.59
639.11	613.79
639.45	611.45
639.80	608.56
640.14	605.90
640.49	603.08
640.83	600.57
641.17	597.76
641.52	595.11
641.86	592.08
642.20	589.60
642.55	586.63
642.89	583.92
643.23	581.26
643.58	579.00
643.92	576.15
644.26	573.65
644.61	571.00
644.95	568.24
645.29	564.96
645.64	562.02
645.98	559.29
646.32	556.77
646.66	553.99
647.01	551.28
647.35	548.60
647.69	546.16
648.04	543.83
648.38	541.05
648.72	538.11
649.06	535.40
649.41	532.80
649.75	530.25
650.09	527.36
650.43	524.63
650.78	521.52
651.12	518.94
651.46	516.34
651.80	513.63
652.14	511.35
652.49	509.09
652.83	506.70
653.17	504.11
653.51	501.53
653.85	499.05
654.20	496.54
654.54	493.87
654.88	491.12
655.22	488.33
655.56	485.76
655.90	483.43
656.25	481.17
656.59	478.68
656.93	476.43
657.27	474.26
657.61	471.91
657.95	469.86
658.29	467.67
658.64	465.30
658.98	463.02
659.32	460.59
659.66	458.42
660.00	456.34
660.34	454.24
660.68	452.13
661.02	449.89
661.36	447.82
661.70	445.89
662.05	444.10
662.39	442.14
662.73	440.44
663.07	438.64
663.41	436.72
663.75	434.90
664.09	432.94
664.43	430.96
664.77	429.34
665.11	427.49
665.45	425.55
665.79	423.58
666.13	421.67
666.47	419.93
666.81	418.06
667.15	416.16
667.49	414.48
667.83	412.89
668.17	411.05
668.51	409.30
668.85	407.51
669.19	405.76
669.53	403.95
669.87	402.20
670.21	400.64
670.55	398.97
670.89	397.49
671.23	395.78
671.57	394.23
671.91	392.64
672.25	391.20
672.58	389.70
672.92	388.36
673.26	387.09
673.60	385.66
673.94	384.37
674.28	382.99
674.62	381.53
674.96	380.03
675.30	378.92
675.64	377.60
675.97	376.22
676.31	375.02
676.65	373.79
676.99	372.62
677.33	371.16
677.67	369.95
678.01	368.49
678.34	367.34
678.68	366.14
679.02	364.79
679.36	363.41
679.70	362.27
680.04	360.96
680.37	359.53
680.71	358.24
681.05	356.89
681.39	355.66
681.73	354.60
682.06	353.63
682.40	352.33
682.74	351.23
683.08	350.30
683.42	349.06
683.75	347.96
684.09	346.65
684.43	345.45
684.77	344.31
685.10	343.29
685.44	342.14
685.78	341.08
686.12	339.98
686.45	338.79
686.79	337.60
687.13	336.61
687.46	335.61
687.80	334.52
688.14	333.61
688.48	332.60
688.81	331.40
689.15	330.33
689.49	329.36
689.82	328.24
690.16	327.04
690.50	326.02
690.83	324.98
691.17	324.02
691.51	323.14
691.84	322.24
692.18	321.14
692.52	320.04
692.85	318.91
693.19	317.88
693.52	317.06
693.86	316.20
694.20	315.13
694.53	314.17
694.87	313.12
695.21	312.13
695.54	311.21
695.88	310.24
696.21	309.00
696.55	308.11
696.88	307.19
697.22	306.25
697.56	305.35
697.89	304.41
698.23	303.51
698.56	302.53
698.90	301.68
699.23	300.83
699.57	300.15
699.90	299.32
700.24	298.53
700.58	297.71
700.91	296.90
701.25	296.31
701.58	295.68
701.92	295.04
702.25	294.28
702.59	293.60
702.92	292.99
703.26	292.45
703.59	291.77
703.93	291.27
704.26	290.70
704.60	290.03
704.93	289.33
705.26	288.66
705.60	288.11
705.93	287.41
706.27	286.87
706.60	286.33
706.94	285.70
707.27	285.04
707.61	284.54
707.94	283.89
708.27	283.16
708.61	282.43
708.94	281.93
709.28	281.21
709.61	280.54
709.94	279.96
710.28	279.49
710.61	278.94
710.95	278.21
711.28	277.85
711.61	277.25
711.95	276.87
712.28	276.38
712.61	275.84
712.95	275.31
713.28	274.83
713.61	274.22
713.95	273.76
714.28	273.32
714.61	272.73
714.95	272.39
715.28	272.00
715.61	271.46
715.95	270.95
716.28	270.60
716.61	270.20
716.95	269.84
717.28	269.39
717.61	268.97
717.94	268.70
718.28	268.15
718.61	267.88
718.94	267.49
719.27	267.07
719.61	266.73
719.94	266.36
720.27	265.91
720.60	265.55
720.94	265.23
721.27	264.92
721.60	264.67
721.93	264.30
722.27	263.99
722.60	263.73
722.93	263.45
723.26	263.15
723.59	262.81
723.93	262.41
724.26	262.05
724.59	261.73
724.92	261.40
725.25	261.12
725.59	260.70
725.92	260.34
726.25	260.01
726.58	259.73
726.91	259.49
727.24	259.21
727.57	258.95
727.91	258.60
728.24	258.36
728.57	257.93
728.90	257.59
729.23	257.17
729.56	256.96
729.89	256.60
730.22	256.34
730.55	256.08
730.89	255.81
731.22	255.53
731.55	255.25
731.88	254.92
732.21	254.55
732.54	254.26
732.87	253.88
733.20	253.73
733.53	253.44
733.86	253.16
734.19	252.87
734.52	252.57
734.85	252.53
735.18	252.11
735.51	251.93
735.84	251.69
736.17	251.55
736.50	251.21
736.83	251.20
737.16	250.92
737.49	250.63
737.82	250.31
738.15	250.03
738.48	249.69
738.81	249.43
739.14	249.13
739.47	248.94
739.80	248.84
740.13	248.55
740.46	248.40
740.79	248.03
741.12	247.80
741.45	247.59
741.78	247.34
742.11	247.24
742.44	246.97
742.77	246.91
743.10	246.68
743.43	246.43
743.75	246.04
744.08	246.07
744.41	245.86
744.74	245.72
745.07	245.55
745.40	245.47
745.73	245.40
746.06	245.20
746.39	245.04
746.71	244.83
747.04	244.61
747.37	244.28
747.70	244.30
748.03	244.12
748.36	244.01
748.68	243.79
749.01	243.52
749.34	243.33
749.67	243.02
750.00	242.88
750.33	242.90
750.65	242.63
750.98	242.34
751.31	242.23
751.64	242.08
751.97	242.04
752.29	241.87
752.62	241.68
752.95	241.65
753.28	241.50
753.60	241.42
753.93	241.36
754.26	241.29
754.59	241.04
754.91	240.89
755.24	240.69
755.57	240.55
755.90	240.47
756.22	240.35
756.55	240.17
756.88	240.02
757.20	239.84
757.53	239.70
757.86	239.53
758.19	239.47
758.51	239.37
758.84	239.16
759.17	239.19
759.49	238.90
759.82	238.83
760.15	238.73
760.47	238.60
760.80	238.45
761.13	238.43
761.45	238.33
761.78	238.33
762.11	238.25
762.43	238.10
762.76	238.06
763.08	237.99
763.41	237.98
763.74	237.92
764.06	237.77
764.39	237.75
764.71	237.64
765.04	237.60
765.37	237.48
765.69	237.45
766.02	237.25
766.34	237.31
766.67	237.15
767.00	237.10
767.32	237.10
767.65	237.18
767.97	236.94
768.30	236.89
768.62	236.75
768.95	236.73
769.27	236.68
769.60	236.59
769.92	236.52
770.25	236.48
770.57	236.43
770.90	236.34
771.22	236.24
771.55	236.17
771.87	236.05
772.20	236.00
772.52	236.01
772.85	236.15
773.17	236.19
773.50	236.13
773.82	236.05
774.15	235.81
774.47	235.55
774.80	235.44
775.12	235.30
775.45	235.19
775.77	235.03
776.09	234.86
776.42	234.78
776.74	234.77
777.07	234.65
777.39	234.44
777.72	234.34
778.04	234.27
778.36	234.14
778.69	234.08
779.01	233.97
779.33	233.81
779.66	233.50
779.98	233.24
780.31	233.13
780.63	233.09
780.95	233.10
781.28	233.08
781.60	233.07
781.92	232.99
782.25	232.92
782.57	232.90
782.89	232.91
783.22	232.78
783.54	232.69
783.86	232.52
784.19	232.47
784.51	232.51
784.83	232.42
785.16	232.46
785.48	232.44
785.80	232.52
786.12	232.45
786.45	232.46
786.77	232.45
787.09	232.43
787.42	232.32
787.74	232.23
788.06	232.15
788.38	232.21
788.71	232.21
789.03	232.17
789.35	232.14
789.67	231.91
789.99	231.89
790.32	231.79
790.64	231.84
790.96	232.03
791.28	231.93
791.61	231.90
791.93	231.75
792.25	231.60
792.57	231.68
792.89	231.53
793.21	231.52
793.54	231.42
793.86	231.42
794.18	231.36
794.50	231.30
794.82	231.23
795.14	231.15
795.47	231.15
795.79	231.21
796.11	231.12
796.43	231.28
796.75	231.29
797.07	231.29
797.39	231.30
797.71	231.08
798.04	231.00
798.36	231.02
798.68	231.13
799.00	231.20
799.32	231.03
799.64	231.17
799.96	231.18
800.28	231.28
800.60	231.26
800.92	231.26
801.24	231.25
801.56	231.30
801.89	231.27
802.21	231.39
802.53	231.33
802.85	231.41
803.17	231.47
803.49	231.40
803.81	231.36
804.13	231.33
804.45	231.29
804.77	231.42
805.09	231.42
805.41	231.32
805.73	231.23
806.05	231.22
806.37	231.14
806.69	231.10
807.01	231.03
807.33	230.99
807.65	230.96
807.97	231.08
808.28	231.10
808.60	231.10
808.92	230.90
809.24	231.00
809.56	230.89
809.88	230.80
810.20	230.86
810.52	230.97
810.84	230.89
811.16	230.90
811.48	230.82
811.80	230.96
812.12	230.90
812.43	230.97
812.75	230.89
813.07	230.92
813.39	230.80
813.71	230.82
814.03	230.77
814.35	230.79
814.67	230.64
814.98	230.60
815.30	230.46
815.62	230.45
815.94	230.38
816.26	230.53
816.58	230.43
816.89	230.42
817.21	230.30
817.53	230.34
817.85	230.33
818.17	230.24
818.48	230.12
818.80	230.23
819.12	230.18
819.44	230.17
819.76	230.04
820.07	230.07
820.39	229.98
820.71	229.97
821.03	229.93
821.34	229.92
821.66	229.88
821.98	229.99
822.30	229.98
822.61	229.97
822.93	229.75
823.25	229.80
823.57	229.79
823.88	229.79
824.20	229.71
824.52	229.84
824.83	229.89
825.15	229.77
825.47	229.62
825.79	229.60
826.10	229.59
826.42	229.61
826.74	229.62
827.05	229.66
827.37	229.68
827.69	229.60
828.00	229.63
828.32	229.61
828.64	229.56
828.95	229.59
829.27	229.51
829.58	229.56
829.90	229.61
830.22	229.60
830.53	229.56
830.85	229.52
831.17	229.30
831.48	229.28
831.80	229.28
832.11	229.30
832.43	229.30
832.75	229.23
833.06	229.31
833.38	229.15
833.69	229.13
834.01	229.10
834.32	229.25
834.64	229.20
834.96	229.25
835.27	229.24
835.59	229.23
835.90	229.12
836.22	229.04
836.53	228.91
836.85	228.91
837.16	229.05
837.48	229.10
837.79	229.19
838.11	229.14
838.42	229.11
838.74	229.15
839.05	229.07
839.37	229.06
839.68	228.91
840.00	229.07
840.31	229.06
840.63	229.00
840.94	228.86
841.26	228.81
841.57	228.70
841.88	228.78
842.20	228.82
842.51	228.92
842.83	228.99
843.14	229.19
843.46	229.18
843.77	229.10
844.08	229.05
844.40	228.96
844.71	228.89
845.03	228.98
845.34	228.87
845.65	228.85
845.97	228.86
846.28	228.97
846.60	228.96
846.91	228.94
847.22	228.94
847.54	229.03
847.85	229.06
848.16	229.09
848.48	229.06
848.79	229.07
849.10	229.04
849.42	229.03
849.73	228.85
850.04	228.75
850.36	228.70
850.67	228.72
850.98	228.78
851.30	228.80
851.61	228.74
851.92	228.89
852.23	228.95
852.55	228.92
852.86	228.80
853.17	228.74
853.49	228.75
853.80	228.83
854.11	228.79
854.42	228.83
854.74	228.90
855.05	228.94
855.36	228.89
855.67	228.88
855.99	228.94
856.30	229.17
856.61	229.26
856.92	229.24
857.23	229.30
857.55	229.23
857.86	229.19
858.17	229.21
858.48	229.10
858.79	229.10
859.11	229.16
859.42	229.21
859.73	229.20
860.04	229.22
860.35	229.28
860.66	229.20
860.98	229.15
861.29	229.03
861.60	228.80
861.91	228.78
862.22	228.83
862.53	228.85
862.84	228.59
863.16	228.57
863.47	228.57
863.78	228.41
864.09	228.52
864.40	228.67
864.71	228.71
865.02	228.82
865.33	228.84
865.64	228.82
865.95	228.80
866.27	228.95
866.58	228.91
866.89	228.84
867.20	228.88
867.51	228.93
867.82	229.01
868.13	229.21
868.44	229.17
868.75	229.16
869.06	229.03
869.37	229.12
869.68	229.13
869.99	229.15
870.30	229.32
870.61	229.30
870.92	229.13
871.23	229.15
871.54	229.12
871.85	229.12
872.16	229.15
872.47	229.08
872.78	228.95
873.09	228.93
873.40	228.93
873.71	228.92
874.02	228.84
874.33	228.80
874.64	228.73
874.95	228.87
875.26	228.83
875.56	228.86
875.87	228.84
876.18	228.90
876.49	229.10
876.80	229.05
877.11	228.99
877.42	229.10
877.73	229.06
878.04	229.03
878.35	229.01
878.66	229.00
878.96	229.10
879.27	229.20
879.58	229.28
879.89	229.23
880.20	229.36
880.51	229.38
880.82	229.36
881.12	229.34
881.43	229.30
881.74	229.32
882.05	229.28
882.36	229.24
882.67	229.19
882.97	229.05
883.28	228.88
883.59	228.92
883.90	228.93
884.21	228.93
884.51	228.92
884.82	228.99
885.13	228.99
885.44	228.89
885.74	228.79
886.05	228.76
886.36	228.74
886.67	228.60
886.98	228.71
887.28	228.76
887.59	228.74
887.90	228.63
888.20	228.52
888.51	228.57
888.82	228.54
889.13	228.49
889.43	228.49
889.74	228.58
890.05	228.48
890.35	228.45
890.66	228.40
890.97	228.32
891.28	228.19
891.58	228.13
891.89	228.10
892.20	228.12
892.50	228.05
892.81	228.11
893.12	228.09
893.42	227.94
893.73	227.95
894.04	227.89
894.34	227.98
894.65	228.09
894.95	228.08
895.26	228.11
895.57	228.16
895.87	227.99
896.18	227.97
896.48	228.04
896.79	228.10
897.10	228.04
897.40	228.09
897.71	228.12
898.01	228.11
898.32	228.17
898.63	228.17
898.93	228.20
899.24	228.08
899.54	228.08
899.85	228.07
900.15	228.05
900.46	228.12
900.76	228.07
901.07	228.04
901.38	228.01
901.68	228.04
901.99	228.03
902.29	228.17
902.60	228.22
902.90	228.21
903.21	228.17
903.51	228.22
903.82	228.30
904.12	228.32
904.43	228.40
904.73	228.47
905.03	228.35
905.34	228.51
905.64	228.56
905.95	228.60
906.25	228.64
906.56	228.66
906.86	228.68
907.17	228.64
907.47	228.61
907.77	228.63
908.08	228.52
908.38	228.51
908.69	228.50
908.99	228.56
909.30	228.60
909.60	228.51
909.90	228.50
910.21	228.37
910.51	228.41
910.81	228.32
911.12	228.29
911.42	228.35
911.73	228.20
912.03	228.27
912.33	228.30
912.64	228.30
912.94	228.21
913.24	228.22
913.55	228.27
913.85	228.24
914.15	228.25
914.46	228.34
914.76	228.35
915.06	228.33
915.37	228.29
915.67	228.32
915.97	228.44
916.27	228.37
916.58	228.48
916.88	228.45
917.18	228.48
917.49	228.59
917.79	228.52
918.09	228.60
918.39	228.65
918.70	228.60
919.00	228.58
919.30	228.64
919.60	228.55
919.91	228.48
920.21	228.55
920.51	228.56
920.81	228.56
921.12	228.57
921.42	228.51
921.72	228.50
922.02	228.48
922.32	228.43
922.63	228.58
922.93	228.65
923.23	228.63
923.53	228.76
923.83	228.70
924.13	228.76
924.44	228.71
924.74	228.70
925.04	228.73
925.34	228.74
925.64	228.64
925.94	228.73
926.24	228.76
926.55	228.68
926.85	228.61
927.15	228.59
927.45	228.63
927.75	228.63
928.05	228.70
928.35	228.60
928.65	228.70
928.95	228.70
929.26	228.57
929.56	228.65
929.86	228.54
930.16	228.43
930.46	228.46
930.76	228.44
931.06	228.39
931.36	228.34
931.66	228.44
931.96	228.51
932.26	228.49
932.56	228.52
932.86	228.50
933.16	228.51
933.46	228.47
933.76	228.40
934.06	228.48
934.36	228.51
934.66	228.50
934.96	228.35
935.26	228.34
935.56	228.42
935.86	228.37
936.16	228.40
936.46	228.47
936.76	228.50
937.06	228.46
937.36	228.50
937.66	228.48
937.96	228.46
938.26	228.36
938.56	228.39
938.86	228.43
939.16	228.52
939.46	228.61
939.76	228.62
940.06	228.63
940.35	228.55
940.65	228.35
940.95	228.42
941.25	228.51
941.55	228.47
941.85	228.51
942.15	228.57
942.45	228.66
942.75	228.70
943.04	228.65
943.34	228.77
943.64	228.77
943.94	228.88
944.24	228.90
944.54	229.01
944.84	228.92
945.13	228.88
945.43	228.90
945.73	228.94
946.03	228.90
946.33	228.83
946.62	228.92
946.92	229.07
947.22	229.10
947.52	229.11
947.82	229.11
948.11	229.02
948.41	228.96
948.71	228.85
949.01	228.78
949.31	228.83
949.60	228.82
949.90	228.83
950.20	228.83
950.50	228.90
950.79	228.82
951.09	228.98
951.39	229.00
951.69	228.98
951.98	228.95
952.28	229.02
952.58	229.10
952.87	229.01
953.17	229.00
953.47	228.87
953.76	228.82
954.06	228.77
954.36	228.72
954.66	228.71
954.95	228.73
955.25	228.68
955.55	228.60
955.84	228.45
956.14	228.37
956.44	228.32
956.73	228.25
957.03	228.24
957.32	228.21
957.62	228.20
957.92	228.18
958.21	228.22
958.51	228.39
958.81	228.42
959.10	228.49
959.40	228.41
959.69	228.44
959.99	228.57
960.29	228.61
960.58	228.58
960.88	228.60
961.17	228.58
961.47	228.59
961.76	228.57
962.06	228.63
962.36	228.68
962.65	228.71
962.95	228.62
963.24	228.65
963.54	228.58
963.83	228.56
964.13	228.56
964.42	228.45
964.72	228.30
965.01	228.28
965.31	228.21
965.60	228.21
965.90	228.40
966.19	228.29
966.49	228.34
966.78	228.31
967.08	228.35
967.37	228.34
967.67	228.40
967.96	228.40
968.26	228.41
968.55	228.37
968.85	228.29
969.14	228.35
969.43	228.28
969.73	228.32
970.02	228.34
970.32	228.32
970.61	228.32
970.91	228.27
971.20	228.17
971.49	228.10
971.79	228.26
972.08	228.10
972.38	228.13
972.67	228.04
972.96	228.08
973.26	228.03
973.55	228.13
973.85	228.08
974.14	228.19
974.43	228.26
974.73	228.29
975.02	228.24
975.31	228.20
975.61	228.26
975.90	228.27
976.19	228.14
976.49	228.18
976.78	228.20
977.07	228.16
977.37	228.25
977.66	228.34
977.95	228.21
978.24	228.28
978.54	228.24
978.83	228.30
979.12	228.32
979.42	228.36
979.71	228.31
980.00	228.37
980.29	228.32
980.59	228.24
980.88	228.35
981.17	228.45
981.46	228.46
981.76	228.48
982.05	228.48
982.34	228.60
982.63	228.62
982.93	228.65
983.22	228.67
983.51	228.70
983.80	228.72
984.09	228.68
984.39	228.65
984.68	228.76
984.97	228.70
985.26	228.73
985.55	228.74
985.85	228.64
986.14	228.65
986.43	228.69
986.72	228.76
987.01	228.70
987.30	228.68
987.59	228.64
987.89	228.70
988.18	228.66
988.47	228.57
988.76	228.58
989.05	228.50
989.34	228.56
989.63	228.65
989.92	228.59
990.22	228.63
990.51	228.57
990.80	228.55
991.09	228.55
991.38	228.49
991.67	228.35
991.96	228.48
992.25	228.48
992.54	228.37
992.83	228.24
993.12	228.11
993.41	228.10
993.70	228.18
993.99	228.17
994.28	228.24
994.58	228.26
994.87	228.19
995.16	228.15
995.45	228.01
995.74	227.85
996.03	227.85
996.32	227.90
996.61	227.92
996.90	227.85
997.19	227.82
997.48	227.88
997.77	227.87
998.06	227.75
998.34	227.69
998.63	227.68
998.92	227.69
999.21	227.77
999.50	227.73
999.79	227.62
1000.08	227.55
1000.37	227.47
1000.66	227.48
1000.95	227.50
1001.24	227.50
1001.53	227.60
1001.82	227.65
1002.11	227.66
1002.40	227.69
1002.68	227.74
1002.97	227.85
1003.26	227.77
1003.55	227.71
1003.84	227.75
1004.13	227.81
1004.42	227.93
1004.71	227.95
1004.99	227.94
1005.28	227.90
1005.57	227.89
1005.86	227.94
1006.15	227.92
1006.44	227.86
1006.72	227.91
1007.01	227.86
1007.30	227.88
1007.59	227.89
1007.88	227.88
1008.17	227.85
1008.45	227.67
1008.74	227.74
1009.03	227.70
1009.32	227.80
1009.60	227.76
1009.89	227.86
1010.18	227.83
1010.47	227.77
1010.76	227.76
1011.04	227.78
1011.33	227.91
1011.62	228.00
1011.91	227.98
1012.19	228.09
1012.48	228.16
1012.77	228.19
1013.05	228.37
1013.34	228.40
1013.63	228.45
1013.92	228.44
1014.20	228.54
1014.49	228.74
1014.78	228.58
1015.06	228.47
1015.35	228.59
1015.64	228.73
1015.92	228.73
1016.21	228.72
1016.50	228.64
1016.78	228.72
1017.07	228.80
1017.36	228.76
1017.64	228.74
1017.93	228.72
1018.22	228.62
1018.50	228.63
1018.79	228.58
1019.08	228.52
1019.36	228.52
1019.65	228.51
1019.93	228.57
1020.22	228.59
1020.51	228.60
1020.79	228.67
1021.08	227.40
1021.36	227.80
1021.65	227.90
1021.94	229.50
1022.22	227.80
1022.51	229.20
1022.79	229.20
1023.08	229.70
1023.36	230.90
1023.65	228.50
>>>>>End Processed Spectral Data<<<<<
