SpectraSuite Data File
++++++++++++++++++++++++++++++++++++
Date: Fri Feb 01 14:41:12 EST 2013
User: group
Dark Spectrum Present: No
Reference Spectrum Present: No
Number of Sampled Component Spectra: 1
Spectrometers: USB2E7196
Integration Time (usec): 70000 (USB2E7196)
Spectra Averaged: 10 (USB2E7196)
Boxcar Smoothing: 10 (USB2E7196)
Correct for Electrical Dark: No (USB2E7196)
Strobe/Lamp Enabled: No (USB2E7196)
Correct for Detector Non-linearity: No (USB2E7196)
Correct for Stray Light: No (USB2E7196)
Number of Pixels in Processed Spectrum: 2048
>>>>>Begin Processed Spectral Data<<<<<
339.09	0.00
339.48	215.70
339.86	218.20
340.24	220.50
340.63	219.30
341.01	222.90
341.39	223.50
341.78	224.70
342.16	227.00
342.54	227.60
342.93	214.62
343.31	225.50
343.69	226.04
344.07	226.39
344.46	226.68
344.84	227.07
345.22	227.22
345.60	227.43
345.99	227.59
346.37	227.74
346.75	227.74
347.13	227.83
347.52	227.84
347.90	227.86
348.28	227.86
348.66	227.92
349.05	228.04
349.43	228.06
349.81	228.01
350.19	228.01
350.57	228.10
350.96	228.12
351.34	228.10
351.72	228.22
352.10	228.30
352.48	228.38
352.87	228.38
353.25	228.47
353.63	228.50
354.01	228.50
354.39	228.45
354.77	228.53
355.15	228.60
355.54	228.62
355.92	228.62
356.30	228.66
356.68	228.79
357.06	228.80
357.44	228.85
357.82	228.86
358.20	228.91
358.58	228.90
358.97	228.93
359.35	229.10
359.73	229.15
360.11	229.26
360.49	229.30
360.87	229.39
361.25	229.45
361.63	229.49
362.01	229.57
362.39	229.54
362.77	229.46
363.15	229.50
363.53	229.53
363.91	229.58
364.29	229.62
364.67	229.50
365.05	229.50
365.43	229.53
365.81	229.61
366.19	229.80
366.57	229.80
366.95	229.86
367.33	229.80
367.71	229.72
368.09	229.66
368.47	229.68
368.85	229.71
369.23	229.76
369.61	229.74
369.99	229.79
370.37	229.84
370.75	230.03
371.13	230.00
371.51	229.88
371.89	229.73
372.27	229.63
372.65	229.66
373.03	229.52
373.41	229.55
373.78	229.46
374.16	229.23
374.54	229.20
374.92	229.09
375.30	228.98
375.68	228.92
376.06	228.94
376.44	228.83
376.82	228.66
377.19	228.59
377.57	228.57
377.95	228.41
378.33	228.34
378.71	228.18
379.09	228.02
379.47	228.00
379.84	227.98
380.22	228.01
380.60	227.87
380.98	227.87
381.36	227.73
381.73	227.65
382.11	227.56
382.49	227.51
382.87	227.42
383.25	227.32
383.62	227.50
384.00	227.44
384.38	227.47
384.76	227.64
385.13	227.70
385.51	227.70
385.89	227.62
386.27	227.46
386.64	227.45
387.02	227.50
387.40	227.49
387.78	227.53
388.15	227.46
388.53	227.34
388.91	227.28
389.29	227.24
389.66	227.26
390.04	227.30
390.42	227.41
390.79	227.31
391.17	227.37
391.55	227.14
391.92	227.05
392.30	227.05
392.68	226.84
393.05	226.78
393.43	226.70
393.81	226.78
394.18	226.80
394.56	226.82
394.94	226.84
395.31	226.77
395.69	226.93
396.06	226.94
396.44	227.07
396.82	227.18
397.19	227.34
397.57	227.42
397.95	227.61
398.32	227.50
398.70	227.70
399.07	227.78
399.45	227.88
399.82	228.02
400.20	228.11
400.58	228.30
400.95	228.36
401.33	228.52
401.70	228.73
402.08	228.96
402.45	229.13
402.83	229.29
403.20	229.67
403.58	229.73
403.95	229.95
404.33	230.14
404.71	230.30
405.08	230.57
405.46	230.69
405.83	230.73
406.21	230.98
406.58	231.15
406.96	231.35
407.33	231.58
407.70	231.81
408.08	232.10
408.45	232.32
408.83	232.66
409.20	232.83
409.58	233.02
409.95	233.33
410.33	233.55
410.70	233.88
411.08	234.04
411.45	234.36
411.82	234.70
412.20	235.05
412.57	235.61
412.95	235.84
413.32	236.32
413.69	236.78
414.07	237.13
414.44	237.70
414.82	238.35
415.19	238.95
415.56	239.64
415.94	240.36
416.31	241.10
416.68	241.79
417.06	242.63
417.43	243.47
417.81	244.37
418.18	245.34
418.55	246.29
418.93	247.36
419.30	248.30
419.67	249.34
420.04	250.44
420.42	251.58
420.79	253.10
421.16	254.44
421.54	255.85
421.91	257.38
422.28	258.69
422.66	260.24
423.03	261.89
423.40	263.39
423.77	264.81
424.15	266.35
424.52	268.05
424.89	269.95
425.26	271.68
425.64	273.39
426.01	275.20
426.38	277.21
426.75	279.18
427.13	281.15
427.50	283.30
427.87	285.50
428.24	287.59
428.61	289.51
428.99	291.81
429.36	294.23
429.73	296.66
430.10	299.07
430.47	301.37
430.85	303.75
431.22	306.47
431.59	309.36
431.96	312.11
432.33	314.80
432.70	317.65
433.08	320.89
433.45	323.97
433.82	326.81
434.19	330.09
434.56	333.23
434.93	336.42
435.30	339.59
435.68	342.87
436.05	346.11
436.42	349.30
436.79	352.20
437.16	355.38
437.53	358.70
437.90	362.01
438.27	365.20
438.64	368.32
439.01	371.34
439.38	373.90
439.75	376.43
440.13	379.53
440.50	382.11
440.87	384.33
441.24	386.50
441.61	389.29
441.98	391.07
442.35	393.15
442.72	395.37
443.09	397.37
443.46	398.49
443.83	399.20
444.20	399.69
444.57	400.69
444.94	400.94
445.31	401.24
445.68	401.66
446.05	401.75
446.42	401.27
446.79	400.80
447.16	400.32
447.53	399.83
447.90	398.44
448.27	397.08
448.64	395.18
449.01	393.88
449.37	391.49
449.74	389.16
450.11	386.66
450.48	383.81
450.85	380.73
451.22	378.34
451.59	375.95
451.96	373.78
452.33	370.70
452.70	367.92
453.07	364.61
453.43	361.22
453.80	357.89
454.17	354.90
454.54	351.76
454.91	348.52
455.28	345.53
455.65	342.63
456.02	339.88
456.38	337.33
456.75	334.20
457.12	331.50
457.49	329.10
457.86	326.44
458.23	324.24
458.59	321.90
458.96	319.47
459.33	317.25
459.70	315.04
460.07	313.33
460.43	311.34
460.80	309.41
461.17	307.66
461.54	305.89
461.91	304.13
462.27	302.44
462.64	300.90
463.01	299.17
463.38	297.66
463.74	295.88
464.11	294.49
464.48	293.37
464.85	292.05
465.21	290.82
465.58	289.80
465.95	288.32
466.32	287.20
466.68	286.08
467.05	285.06
467.42	283.96
467.78	282.75
468.15	281.61
468.52	280.68
468.88	279.50
469.25	278.55
469.62	277.78
469.98	276.93
470.35	276.16
470.72	275.41
471.08	274.48
471.45	273.81
471.82	273.17
472.18	272.21
472.55	271.52
472.92	270.80
473.28	270.07
473.65	269.55
474.02	268.94
474.38	268.39
474.75	267.97
475.11	267.51
475.48	266.97
475.85	266.63
476.21	266.21
476.58	266.00
476.94	265.76
477.31	265.42
477.67	265.10
478.04	264.87
478.41	264.59
478.77	264.57
479.14	264.44
479.50	264.22
479.87	264.20
480.23	264.18
480.60	264.03
480.96	263.97
481.33	264.07
481.69	264.10
482.06	264.18
482.42	264.18
482.79	264.16
483.15	264.30
483.52	264.50
483.88	264.69
484.25	264.88
484.61	265.09
484.98	265.40
485.34	265.64
485.71	265.95
486.07	266.42
486.44	266.57
486.80	266.89
487.17	267.33
487.53	267.78
487.90	268.25
488.26	268.98
488.62	269.73
488.99	270.19
489.35	270.92
489.72	271.57
490.08	272.29
490.44	273.12
490.81	274.12
491.17	275.00
491.54	276.11
491.90	277.24
492.26	278.30
492.63	279.51
492.99	280.91
493.36	282.20
493.72	283.70
494.08	285.49
494.45	287.25
494.81	289.11
495.17	291.03
495.54	292.97
495.90	294.95
496.26	297.03
496.63	299.41
496.99	301.80
497.35	304.46
497.72	307.31
498.08	310.30
498.44	313.21
498.80	316.57
499.17	319.81
499.53	323.07
499.89	326.76
500.26	330.34
500.62	334.15
500.98	338.50
501.34	342.72
501.71	347.00
502.07	351.51
502.43	356.23
502.79	361.05
503.16	366.18
503.52	371.43
503.88	376.89
504.24	382.40
504.60	388.27
504.97	394.30
505.33	400.49
505.69	407.03
506.05	413.60
506.41	420.25
506.78	427.33
507.14	434.78
507.50	442.43
507.86	450.34
508.22	458.42
508.59	466.26
508.95	474.69
509.31	483.32
509.67	492.32
510.03	501.57
510.39	511.14
510.75	521.01
511.12	530.99
511.48	541.17
511.84	551.77
512.20	562.43
512.56	573.52
512.92	584.70
513.28	596.19
513.64	608.30
514.00	620.27
514.37	632.61
514.73	644.98
515.09	657.21
515.45	670.12
515.81	683.07
516.17	696.62
516.53	710.45
516.89	724.40
517.25	738.01
517.61	752.03
517.97	766.30
518.33	780.52
518.69	795.08
519.05	810.18
519.41	825.50
519.77	841.17
520.13	856.68
520.49	872.05
520.85	887.88
521.21	903.48
521.57	919.83
521.93	935.97
522.29	952.20
522.65	968.66
523.01	984.80
523.37	1001.25
523.73	1017.55
524.09	1034.00
524.45	1050.62
524.81	1068.01
525.17	1085.66
525.53	1103.19
525.89	1120.82
526.25	1138.98
526.61	1156.21
526.97	1173.91
527.33	1191.52
527.68	1209.42
528.04	1227.43
528.40	1245.36
528.76	1263.64
529.12	1281.80
529.48	1299.99
529.84	1318.14
530.20	1336.90
530.56	1356.00
530.91	1375.08
531.27	1394.36
531.63	1412.89
531.99	1431.72
532.35	1450.00
532.71	1467.61
533.07	1486.01
533.42	1504.21
533.78	1521.88
534.14	1540.03
534.50	1557.22
534.86	1574.89
535.21	1592.36
535.57	1610.51
535.93	1627.95
536.29	1645.17
536.65	1662.79
537.00	1679.90
537.36	1697.45
537.72	1714.41
538.08	1730.91
538.44	1747.12
538.79	1763.50
539.15	1779.56
539.51	1796.35
539.87	1813.08
540.22	1829.90
540.58	1845.90
540.94	1862.03
541.29	1877.84
541.65	1893.36
542.01	1909.71
542.37	1925.36
542.72	1940.47
543.08	1955.28
543.44	1970.37
543.79	1984.35
544.15	1998.41
544.51	2013.10
544.87	2027.18
545.22	2040.89
545.58	2054.25
545.94	2067.24
546.29	2079.70
546.65	2092.66
547.01	2104.53
547.36	2116.62
547.72	2128.14
548.07	2139.82
548.43	2151.07
548.79	2162.19
549.14	2173.29
549.50	2183.35
549.86	2193.42
550.21	2203.58
550.57	2214.14
550.92	2224.02
551.28	2233.78
551.64	2243.35
551.99	2252.40
552.35	2261.48
552.70	2270.57
553.06	2279.97
553.41	2289.18
553.77	2297.95
554.13	2306.80
554.48	2315.29
554.84	2323.12
555.19	2331.41
555.55	2339.22
555.90	2346.52
556.26	2354.18
556.61	2361.23
556.97	2368.06
557.32	2375.28
557.68	2382.44
558.03	2388.85
558.39	2395.37
558.74	2402.74
559.10	2409.20
559.45	2415.40
559.81	2422.37
560.16	2428.02
560.52	2433.56
560.87	2439.75
561.23	2444.76
561.58	2450.06
561.94	2455.23
562.29	2460.00
562.64	2463.71
563.00	2467.75
563.35	2473.04
563.71	2477.87
564.06	2483.24
564.42	2488.33
564.77	2493.13
565.12	2497.70
565.48	2501.71
565.83	2504.99
566.19	2508.48
566.54	2511.01
566.89	2513.93
567.25	2516.51
567.60	2520.08
567.96	2522.53
568.31	2524.53
568.66	2527.25
569.02	2529.32
569.37	2530.26
569.72	2531.88
570.08	2533.36
570.43	2534.95
570.78	2535.76
571.14	2535.74
571.49	2535.58
571.84	2536.40
572.20	2535.70
572.55	2534.38
572.90	2533.24
573.26	2533.08
573.61	2532.01
573.96	2531.27
574.31	2529.10
574.67	2526.11
575.02	2523.45
575.37	2521.10
575.72	2518.08
576.08	2515.67
576.43	2513.15
576.78	2510.73
577.13	2508.48
577.49	2506.66
577.84	2504.05
578.19	2500.29
578.54	2496.79
578.90	2492.71
579.25	2488.04
579.60	2483.74
579.95	2479.76
580.30	2475.24
580.66	2469.74
581.01	2464.70
581.36	2459.91
581.71	2456.44
582.06	2452.40
582.42	2447.30
582.77	2442.35
583.12	2437.62
583.47	2432.76
583.82	2428.01
584.17	2422.84
584.53	2417.54
584.88	2412.23
585.23	2406.34
585.58	2401.30
585.93	2396.18
586.28	2391.82
586.63	2386.67
586.98	2381.57
587.34	2376.55
587.69	2371.22
588.04	2366.89
588.39	2361.90
588.74	2355.23
589.09	2348.65
589.44	2341.99
589.79	2336.25
590.14	2330.70
590.49	2324.18
590.84	2317.69
591.19	2310.70
591.54	2303.28
591.89	2295.20
592.25	2287.64
592.60	2279.96
592.95	2272.01
593.30	2264.54
593.65	2256.53
594.00	2249.00
594.35	2241.93
594.70	2233.66
595.05	2226.62
595.40	2218.34
595.75	2210.03
596.10	2203.63
596.45	2196.64
596.80	2190.16
597.15	2182.83
597.50	2175.21
597.85	2168.79
598.19	2161.81
598.54	2155.28
598.89	2149.49
599.24	2143.75
599.59	2136.78
599.94	2130.40
600.29	2123.53
600.64	2116.59
600.99	2108.71
601.34	2101.30
601.69	2093.69
602.04	2086.88
602.39	2079.00
602.74	2072.25
603.08	2066.14
603.43	2058.95
603.78	2051.52
604.13	2043.49
604.48	2035.79
604.83	2028.03
605.18	2019.96
605.53	2011.16
605.87	2002.13
606.22	1993.98
606.57	1985.20
606.92	1977.31
607.27	1969.60
607.62	1962.48
607.96	1954.57
608.31	1947.14
608.66	1938.89
609.01	1929.95
609.36	1920.92
609.70	1911.98
610.05	1902.83
610.40	1893.43
610.75	1884.40
611.10	1875.26
611.44	1866.18
611.79	1857.56
612.14	1848.50
612.49	1838.53
612.83	1829.82
613.18	1820.52
613.53	1811.47
613.88	1802.00
614.22	1792.70
614.57	1782.65
614.92	1772.99
615.27	1763.99
615.61	1754.81
615.96	1745.63
616.31	1737.39
616.65	1729.21
617.00	1720.88
617.35	1712.31
617.70	1703.41
618.04	1693.98
618.39	1685.16
618.74	1676.50
619.08	1667.45
619.43	1659.31
619.78	1651.38
620.12	1643.11
620.47	1634.57
620.82	1625.36
621.16	1617.03
621.51	1608.54
621.85	1600.27
622.20	1591.23
622.55	1582.27
622.89	1573.68
623.24	1565.54
623.59	1557.32
623.93	1549.00
624.28	1540.65
624.62	1531.70
624.97	1523.46
625.32	1515.66
625.66	1507.89
626.01	1499.54
626.35	1491.20
626.70	1482.35
627.04	1474.45
627.39	1465.62
627.73	1457.75
628.08	1449.78
628.43	1441.67
628.77	1433.37
629.12	1424.69
629.46	1416.21
629.81	1407.73
630.15	1398.74
630.50	1390.12
630.84	1380.78
631.19	1371.46
631.53	1362.51
631.88	1353.81
632.22	1344.70
632.57	1336.30
632.91	1327.41
633.26	1318.82
633.60	1310.26
633.95	1301.96
634.29	1293.32
634.64	1285.41
634.98	1276.86
635.32	1268.81
635.67	1261.12
636.01	1253.28
636.36	1245.40
636.70	1238.04
637.05	1230.22
637.39	1223.12
637.73	1215.71
638.08	1209.04
638.42	1202.41
638.77	1195.49
639.11	1188.20
639.45	1181.20
639.80	1173.65
640.14	1166.31
640.49	1159.10
640.83	1151.52
641.17	1144.20
641.52	1136.89
641.86	1129.29
642.20	1121.97
642.55	1114.83
642.89	1107.30
643.23	1099.86
643.58	1093.29
643.92	1085.95
644.26	1079.05
644.61	1072.09
644.95	1064.87
645.29	1056.93
645.64	1049.05
645.98	1041.77
646.32	1034.89
646.66	1027.55
647.01	1020.58
647.35	1013.50
647.69	1006.65
648.04	1000.09
648.38	992.90
648.72	985.50
649.06	978.72
649.41	972.07
649.75	964.67
650.09	957.76
650.43	950.55
650.78	943.19
651.12	936.06
651.46	929.13
651.80	922.24
652.14	915.40
652.49	908.89
652.83	902.58
653.17	895.66
653.51	889.06
653.85	882.60
654.20	875.93
654.54	869.17
654.88	862.42
655.22	855.43
655.56	849.03
655.90	843.07
656.25	836.82
656.59	830.46
656.93	824.45
657.27	818.30
657.61	812.21
657.95	806.44
658.29	800.69
658.64	794.59
658.98	788.59
659.32	782.44
659.66	776.52
660.00	770.61
660.34	764.85
660.68	758.76
661.02	753.00
661.36	747.75
661.70	742.47
662.05	737.29
662.39	732.27
662.73	727.14
663.07	722.16
663.41	717.04
663.75	711.88
664.09	706.77
664.43	701.90
664.77	697.11
665.11	692.21
665.45	687.27
665.79	682.55
666.13	677.79
666.47	673.24
666.81	668.58
667.15	663.64
667.49	659.13
667.83	655.01
668.17	650.59
668.51	645.73
668.85	641.25
669.19	637.08
669.53	632.66
669.87	628.07
670.21	623.58
670.55	619.50
670.89	615.52
671.23	611.58
671.57	607.43
671.91	603.50
672.25	599.42
672.58	595.70
672.92	591.97
673.26	588.19
673.60	584.44
673.94	580.57
674.28	577.27
674.62	574.03
674.96	570.57
675.30	567.17
675.64	563.62
675.97	560.13
676.31	556.51
676.65	553.20
676.99	550.08
677.33	546.66
677.67	543.18
678.01	539.80
678.34	536.44
678.68	533.09
679.02	529.70
679.36	526.50
679.70	523.26
680.04	519.84
680.37	516.68
680.71	513.59
681.05	510.59
681.39	507.63
681.73	504.42
682.06	501.52
682.40	498.82
682.74	496.03
683.08	493.24
683.42	490.30
683.75	487.45
684.09	484.58
684.43	481.68
684.77	478.79
685.10	476.13
685.44	473.30
685.78	470.67
686.12	468.16
686.45	465.43
686.79	462.80
687.13	460.50
687.46	457.60
687.80	454.83
688.14	452.22
688.48	449.70
688.81	447.24
689.15	444.64
689.49	441.86
689.82	439.35
690.16	436.78
690.50	434.46
690.83	432.08
691.17	429.63
691.51	427.31
691.84	425.15
692.18	422.64
692.52	420.25
692.85	417.92
693.19	415.63
693.52	413.39
693.86	411.00
694.20	408.66
694.53	406.69
694.87	404.59
695.21	402.54
695.54	400.38
695.88	398.16
696.21	396.10
696.55	394.07
696.88	391.95
697.22	389.84
697.56	387.89
697.89	386.00
698.23	384.03
698.56	382.01
698.90	380.12
699.23	378.26
699.57	376.59
699.90	374.79
700.24	372.95
700.58	371.10
700.91	369.45
701.25	367.76
701.58	366.12
701.92	364.50
702.25	362.81
702.59	361.14
702.92	359.48
703.26	357.86
703.59	356.25
703.93	354.95
704.26	353.43
704.60	351.78
704.93	350.26
705.26	348.91
705.60	347.72
705.93	346.09
706.27	344.82
706.60	343.47
706.94	342.15
707.27	340.54
707.61	339.21
707.94	337.95
708.27	336.51
708.61	335.10
708.94	333.80
709.28	332.50
709.61	331.41
709.94	330.21
710.28	328.93
710.61	327.73
710.95	326.30
711.28	325.33
711.61	324.20
711.95	322.92
712.28	321.63
712.61	320.48
712.95	319.54
713.28	318.55
713.61	317.29
713.95	316.22
714.28	315.38
714.61	314.45
714.95	313.44
715.28	312.53
715.61	311.49
715.95	310.60
716.28	309.76
716.61	308.68
716.95	307.84
717.28	306.95
717.61	306.01
717.94	305.18
718.28	304.13
718.61	303.13
718.94	302.36
719.27	301.59
719.61	300.79
719.94	300.00
720.27	298.94
720.60	298.29
720.94	297.44
721.27	296.78
721.60	296.03
721.93	295.34
722.27	294.61
722.60	293.89
722.93	293.08
723.26	292.35
723.59	291.60
723.93	290.89
724.26	290.20
724.59	289.61
724.92	288.98
725.25	288.47
725.59	287.87
725.92	287.20
726.25	286.54
726.58	285.80
726.91	285.19
727.24	284.50
727.57	283.80
727.91	283.17
728.24	282.47
728.57	281.81
728.90	281.16
729.23	280.48
729.56	280.02
729.89	279.57
730.22	278.88
730.55	278.31
730.89	277.74
731.22	277.14
731.55	276.44
731.88	275.86
732.21	275.27
732.54	274.73
732.87	274.27
733.20	273.84
733.53	273.31
733.86	272.72
734.19	272.30
734.52	271.75
734.85	271.35
735.18	270.86
735.51	270.31
735.84	269.77
736.17	269.28
736.50	268.88
736.83	268.43
737.16	268.00
737.49	267.51
737.82	267.04
738.15	266.52
738.48	266.07
738.81	265.67
739.14	265.15
739.47	264.74
739.80	264.28
740.13	263.79
740.46	263.40
740.79	262.88
741.12	262.59
741.45	262.24
741.78	261.78
742.11	261.50
742.44	261.17
742.77	260.76
743.10	260.33
743.43	259.78
743.75	259.23
744.08	259.05
744.41	258.73
744.74	258.49
745.07	258.19
745.40	257.96
745.73	257.62
746.06	257.41
746.39	257.06
746.71	256.78
747.04	256.47
747.37	256.10
747.70	255.88
748.03	255.50
748.36	255.21
748.68	254.84
749.01	254.42
749.34	254.12
749.67	253.83
750.00	253.58
750.33	253.53
750.65	253.40
750.98	252.99
751.31	252.80
751.64	252.38
751.97	252.23
752.29	251.99
752.62	251.69
752.95	251.25
753.28	251.00
753.60	250.63
753.93	250.41
754.26	250.26
754.59	249.99
754.91	249.71
755.24	249.50
755.57	249.20
755.90	249.04
756.22	248.85
756.55	248.73
756.88	248.57
757.20	248.20
757.53	247.80
757.86	247.59
758.19	247.35
758.51	247.22
758.84	246.94
759.17	246.67
759.49	246.45
759.82	246.50
760.15	246.35
760.47	246.22
760.80	245.97
761.13	245.77
761.45	245.59
761.78	245.35
762.11	245.22
762.43	245.11
762.76	244.83
763.08	244.59
763.41	244.41
763.74	244.14
764.06	243.98
764.39	243.95
764.71	243.79
765.04	243.62
765.37	243.43
765.69	243.27
766.02	243.10
766.34	242.93
766.67	242.65
767.00	242.48
767.32	242.51
767.65	242.47
767.97	242.24
768.30	242.15
768.62	242.11
768.95	242.01
769.27	241.85
769.60	241.75
769.92	241.60
770.25	241.39
770.57	241.24
770.90	240.99
771.22	240.74
771.55	240.56
771.87	240.40
772.20	240.17
772.52	240.14
772.85	240.29
773.17	240.20
773.50	240.02
773.82	239.82
774.15	239.49
774.47	239.17
774.80	239.00
775.12	238.84
775.45	238.64
775.77	238.42
776.09	238.33
776.42	238.15
776.74	238.06
777.07	237.90
777.39	237.85
777.72	237.73
778.04	237.58
778.36	237.43
778.69	237.23
779.01	237.11
779.33	236.88
779.66	236.47
779.98	236.30
780.31	236.17
780.63	236.20
780.95	236.09
781.28	235.99
781.60	235.96
781.92	235.86
782.25	235.73
782.57	235.51
782.89	235.39
783.22	235.28
783.54	235.18
783.86	235.12
784.19	234.99
784.51	235.03
784.83	235.05
785.16	235.07
785.48	235.02
785.80	235.07
786.12	235.04
786.45	235.04
786.77	235.09
787.09	235.01
787.42	234.90
787.74	234.95
788.06	234.91
788.38	234.87
788.71	234.78
789.03	234.74
789.35	234.78
789.67	234.67
789.99	234.73
790.32	234.69
790.64	234.69
790.96	234.82
791.28	234.77
791.61	234.59
791.93	234.48
792.25	234.43
792.57	234.53
792.89	234.40
793.21	234.40
793.54	234.33
793.86	234.26
794.18	234.25
794.50	234.20
794.82	234.22
795.14	234.17
795.47	234.16
795.79	234.21
796.11	234.20
796.43	234.16
796.75	234.05
797.07	234.05
797.39	233.99
797.71	233.83
798.04	233.74
798.36	233.82
798.68	233.77
799.00	233.78
799.32	233.63
799.64	233.73
799.96	233.70
800.28	233.78
800.60	233.77
800.92	233.77
801.24	233.79
801.56	233.79
801.89	233.83
802.21	233.82
802.53	233.70
802.85	233.72
803.17	233.83
803.49	233.84
803.81	233.74
804.13	233.67
804.45	233.71
804.77	233.71
805.09	233.63
805.41	233.65
805.73	233.62
806.05	233.55
806.37	233.37
806.69	233.23
807.01	233.07
807.33	233.12
807.65	232.99
807.97	232.89
808.28	232.79
808.60	232.76
808.92	232.72
809.24	232.71
809.56	232.59
809.88	232.49
810.20	232.40
810.52	232.44
810.84	232.40
811.16	232.20
811.48	232.19
811.80	232.23
812.12	232.23
812.43	232.17
812.75	232.12
813.07	232.15
813.39	232.25
813.71	232.25
814.03	232.07
814.35	232.10
814.67	232.03
814.98	231.97
815.30	231.80
815.62	231.64
815.94	231.59
816.26	231.67
816.58	231.55
816.89	231.53
817.21	231.39
817.53	231.40
817.85	231.37
818.17	231.31
818.48	231.11
818.80	231.06
819.12	231.03
819.44	230.98
819.76	230.93
820.07	230.77
820.39	230.71
820.71	230.72
821.03	230.63
821.34	230.53
821.66	230.50
821.98	230.50
822.30	230.51
822.61	230.58
822.93	230.37
823.25	230.40
823.57	230.32
823.88	230.40
824.20	230.38
824.52	230.37
824.83	230.32
825.15	230.38
825.47	230.30
825.79	230.21
826.10	230.14
826.42	230.14
826.74	230.20
827.05	230.11
827.37	230.13
827.69	230.10
828.00	230.21
828.32	230.23
828.64	230.22
828.95	230.29
829.27	230.26
829.58	230.36
829.90	230.41
830.22	230.35
830.53	230.21
830.85	230.16
831.17	230.19
831.48	230.12
831.80	230.16
832.11	230.17
832.43	230.14
832.75	230.21
833.06	230.24
833.38	230.10
833.69	230.16
834.01	230.15
834.32	230.22
834.64	230.15
834.96	230.17
835.27	230.15
835.59	230.19
835.90	230.10
836.22	230.04
836.53	230.00
836.85	230.08
837.16	230.42
837.48	230.47
837.79	230.43
838.11	230.51
838.42	230.42
838.74	230.42
839.05	230.48
839.37	230.43
839.68	230.35
840.00	230.45
840.31	230.48
840.63	230.42
840.94	230.31
841.26	230.29
841.57	230.24
841.88	230.22
842.20	230.13
842.51	230.14
842.83	230.07
843.14	230.02
843.46	230.12
843.77	229.80
844.08	229.71
844.40	229.74
844.71	229.58
845.03	229.60
845.34	229.54
845.65	229.56
845.97	229.59
846.28	229.63
846.60	229.59
846.91	229.40
847.22	229.42
847.54	229.46
847.85	229.42
848.16	229.33
848.48	229.36
848.79	229.44
849.10	229.42
849.42	229.48
849.73	229.40
850.04	229.25
850.36	229.20
850.67	229.24
850.98	229.21
851.30	229.30
851.61	229.34
851.92	229.30
852.23	229.32
852.55	229.29
852.86	229.26
853.17	229.20
853.49	229.20
853.80	229.26
854.11	229.17
854.42	229.18
854.74	229.25
855.05	229.09
855.36	228.87
855.67	228.79
855.99	228.70
856.30	228.96
856.61	228.90
856.92	228.91
857.23	228.78
857.55	228.66
857.86	228.59
858.17	228.53
858.48	228.60
858.79	228.50
859.11	228.39
859.42	228.30
859.73	228.19
860.04	228.23
860.35	228.10
860.66	228.00
860.98	228.04
861.29	228.02
861.60	228.12
861.91	228.24
862.22	228.23
862.53	228.20
862.84	228.01
863.16	228.10
863.47	228.05
863.78	228.17
864.09	228.28
864.40	228.28
864.71	228.30
865.02	228.19
865.33	228.20
865.64	228.21
865.95	228.25
866.27	228.43
866.58	228.48
866.89	228.47
867.20	228.52
867.51	228.48
867.82	228.53
868.13	228.55
868.44	228.50
868.75	228.58
869.06	228.68
869.37	228.69
869.68	228.60
869.99	228.66
870.30	228.63
870.61	228.58
870.92	228.57
871.23	228.53
871.54	228.68
871.85	228.80
872.16	228.93
872.47	228.94
872.78	228.93
873.09	229.00
873.40	228.94
873.71	229.09
874.02	229.07
874.33	228.97
874.64	228.96
874.95	228.97
875.26	228.87
875.56	228.86
875.87	228.95
876.18	228.94
876.49	229.13
876.80	229.11
877.11	229.17
877.42	229.24
877.73	229.29
878.04	229.19
878.35	229.14
878.66	229.14
878.96	229.12
879.27	229.07
879.58	229.07
879.89	229.10
880.20	229.07
880.51	229.19
880.82	229.30
881.12	229.33
881.43	229.38
881.74	229.33
882.05	229.29
882.36	229.18
882.67	229.28
882.97	229.06
883.28	229.07
883.59	228.94
883.90	228.90
884.21	228.86
884.51	228.89
884.82	228.80
885.13	228.78
885.44	228.80
885.74	228.87
886.05	228.81
886.36	228.89
886.67	228.90
886.98	228.91
887.28	228.92
887.59	228.94
887.90	228.95
888.20	229.00
888.51	229.14
888.82	229.13
889.13	229.11
889.43	229.30
889.74	229.36
890.05	229.38
890.35	229.38
890.66	229.36
890.97	229.26
891.28	229.29
891.58	229.17
891.89	229.14
892.20	229.03
892.50	228.97
892.81	228.93
893.12	228.83
893.42	228.67
893.73	228.60
894.04	228.53
894.34	228.41
894.65	228.43
894.95	228.40
895.26	228.35
895.57	228.44
895.87	228.22
896.18	228.17
896.48	228.19
896.79	228.18
897.10	228.21
897.40	228.30
897.71	228.19
898.01	228.19
898.32	228.14
898.63	228.16
898.93	228.18
899.24	228.20
899.54	228.15
899.85	228.17
900.15	228.10
900.46	228.13
900.76	228.18
901.07	228.14
901.38	228.00
901.68	227.97
901.99	227.87
902.29	227.90
902.60	227.89
902.90	227.80
903.21	227.75
903.51	227.75
903.82	227.79
904.12	227.94
904.43	227.92
904.73	227.97
905.03	227.95
905.34	228.11
905.64	228.07
905.95	228.16
906.25	228.21
906.56	228.18
906.86	228.15
907.17	228.18
907.47	228.30
907.77	228.39
908.08	228.47
908.38	228.52
908.69	228.55
908.99	228.61
909.30	228.80
909.60	228.91
909.90	228.91
910.21	228.85
910.51	228.87
910.81	229.00
911.12	229.10
911.42	229.18
911.73	229.10
912.03	229.19
912.33	229.19
912.64	229.16
912.94	229.27
913.24	229.31
913.55	229.36
913.85	229.32
914.15	229.34
914.46	229.43
914.76	229.41
915.06	229.42
915.37	229.44
915.67	229.37
915.97	229.40
916.27	229.39
916.58	229.48
916.88	229.54
917.18	229.47
917.49	229.54
917.79	229.52
918.09	229.65
918.39	229.74
918.70	229.87
919.00	229.84
919.30	229.91
919.60	229.85
919.91	229.82
920.21	229.80
920.51	229.78
920.81	229.78
921.12	229.76
921.42	229.73
921.72	229.79
922.02	229.80
922.32	229.77
922.63	229.73
922.93	229.87
923.23	229.80
923.53	229.76
923.83	229.60
924.13	229.58
924.44	229.46
924.74	229.30
925.04	229.27
925.34	229.23
925.64	229.15
925.94	229.06
926.24	229.13
926.55	229.14
926.85	229.15
927.15	228.98
927.45	229.00
927.75	228.92
928.05	228.78
928.35	228.81
928.65	228.86
928.95	228.90
929.26	228.67
929.56	228.67
929.86	228.60
930.16	228.65
930.46	228.60
930.76	228.54
931.06	228.57
931.36	228.44
931.66	228.51
931.96	228.42
932.26	228.52
932.56	228.46
932.86	228.40
933.16	228.33
933.46	228.28
933.76	228.20
934.06	228.29
934.36	228.42
934.66	228.33
934.96	228.28
935.26	228.22
935.56	228.24
935.86	228.20
936.16	228.22
936.46	228.16
936.76	228.18
937.06	228.19
937.36	228.09
937.66	228.03
937.96	228.03
938.26	228.09
938.56	228.03
938.86	227.96
939.16	228.04
939.46	228.09
939.76	228.30
940.06	228.19
940.35	228.20
940.65	228.08
940.95	228.13
941.25	228.11
941.55	228.03
941.85	228.10
942.15	228.10
942.45	228.26
942.75	228.11
943.04	228.13
943.34	228.16
943.64	228.17
943.94	228.25
944.24	228.25
944.54	228.27
944.84	228.33
945.13	228.30
945.43	228.28
945.73	228.35
946.03	228.28
946.33	228.38
946.62	228.38
946.92	228.35
947.22	228.37
947.52	228.40
947.82	228.45
948.11	228.44
948.41	228.50
948.71	228.39
949.01	228.55
949.31	228.59
949.60	228.57
949.90	228.71
950.20	228.72
950.50	228.75
950.79	228.79
951.09	228.85
951.39	228.95
951.69	229.01
951.98	228.99
952.28	228.98
952.58	229.05
952.87	228.95
953.17	229.09
953.47	229.10
953.76	229.09
954.06	229.18
954.36	229.14
954.66	229.14
954.95	229.21
955.25	229.26
955.55	229.25
955.84	229.29
956.14	229.30
956.44	229.27
956.73	229.19
957.03	229.10
957.32	229.05
957.62	229.03
957.92	228.98
958.21	229.01
958.51	229.12
958.81	229.10
959.10	229.14
959.40	229.16
959.69	229.16
959.99	229.08
960.29	229.02
960.58	228.97
960.88	228.90
961.17	228.87
961.47	228.86
961.76	228.84
962.06	228.78
962.36	228.70
962.65	228.70
962.95	228.80
963.24	228.87
963.54	228.88
963.83	228.80
964.13	228.82
964.42	228.70
964.72	228.71
965.01	228.69
965.31	228.64
965.60	228.48
965.90	228.61
966.19	228.64
966.49	228.64
966.78	228.55
967.08	228.63
967.37	228.64
967.67	228.60
967.96	228.57
968.26	228.57
968.55	228.54
968.85	228.47
969.14	228.38
969.43	228.32
969.73	228.19
970.02	228.17
970.32	228.03
970.61	228.03
970.91	227.90
971.20	227.90
971.49	227.90
971.79	227.89
972.08	227.65
972.38	227.58
972.67	227.56
972.96	227.61
973.26	227.43
973.55	227.41
973.85	227.36
974.14	227.28
974.43	227.20
974.73	227.26
975.02	227.33
975.31	227.38
975.61	227.34
975.90	227.46
976.19	227.50
976.49	227.57
976.78	227.54
977.07	227.53
977.37	227.50
977.66	227.50
977.95	227.52
978.24	227.58
978.54	227.70
978.83	227.66
979.12	227.60
979.42	227.67
979.71	227.69
980.00	227.72
980.29	227.80
980.59	227.85
980.88	227.90
981.17	227.88
981.46	227.76
981.76	227.97
982.05	228.00
982.34	228.07
982.63	228.10
982.93	228.05
983.22	228.13
983.51	228.16
983.80	228.24
984.09	228.30
984.39	228.28
984.68	228.32
984.97	228.36
985.26	228.35
985.55	228.45
985.85	228.40
986.14	228.43
986.43	228.44
986.72	228.50
987.01	228.50
987.30	228.50
987.59	228.52
987.89	228.43
988.18	228.37
988.47	228.36
988.76	228.33
989.05	228.43
989.34	228.41
989.63	228.49
989.92	228.43
990.22	228.36
990.51	228.45
990.80	228.37
991.09	228.45
991.38	228.62
991.67	228.67
991.96	228.76
992.25	228.79
992.54	228.80
992.83	228.76
993.12	228.56
993.41	228.62
993.70	228.82
993.99	228.81
994.28	228.89
994.58	228.81
994.87	228.83
995.16	228.83
995.45	228.91
995.74	228.91
996.03	228.92
996.32	229.01
996.61	229.04
996.90	229.10
997.19	229.05
997.48	229.06
997.77	228.92
998.06	228.81
998.34	228.75
998.63	228.76
998.92	228.78
999.21	228.82
999.50	228.78
999.79	228.73
1000.08	228.70
1000.37	228.58
1000.66	228.68
1000.95	228.73
1001.24	228.65
1001.53	228.67
1001.82	228.55
1002.11	228.68
1002.40	228.80
1002.68	228.76
1002.97	228.86
1003.26	228.75
1003.55	228.68
1003.84	228.79
1004.13	228.76
1004.42	228.71
1004.71	228.66
1004.99	228.57
1005.28	228.68
1005.57	228.63
1005.86	228.57
1006.15	228.53
1006.44	228.53
1006.72	228.48
1007.01	228.37
1007.30	228.45
1007.59	228.37
1007.88	228.38
1008.17	228.19
1008.45	228.00
1008.74	227.98
1009.03	227.92
1009.32	227.97
1009.60	227.93
1009.89	227.89
1010.18	227.92
1010.47	228.01
1010.76	227.95
1011.04	228.04
1011.33	228.10
1011.62	228.17
1011.91	228.09
1012.19	228.05
1012.48	228.04
1012.77	228.02
1013.05	228.25
1013.34	228.27
1013.63	228.21
1013.92	228.27
1014.20	228.34
1014.49	228.43
1014.78	228.39
1015.06	228.23
1015.35	228.25
1015.64	228.28
1015.92	228.24
1016.21	228.18
1016.50	228.15
1016.78	228.26
1017.07	228.24
1017.36	228.16
1017.64	228.10
1017.93	228.22
1018.22	228.27
1018.50	228.26
1018.79	228.25
1019.08	228.18
1019.36	228.15
1019.65	228.00
1019.93	228.04
1020.22	227.99
1020.51	228.09
1020.79	228.15
1021.08	227.90
1021.36	226.60
1021.65	227.90
1021.94	230.30
1022.22	227.90
1022.51	225.50
1022.79	229.60
1023.08	227.40
1023.36	231.50
1023.65	229.20
>>>>>End Processed Spectral Data<<<<<
