SpectraSuite Data File
++++++++++++++++++++++++++++++++++++
Date: Fri Feb 01 14:40:42 EST 2013
User: group
Dark Spectrum Present: No
Reference Spectrum Present: No
Number of Sampled Component Spectra: 1
Spectrometers: USB2E7196
Integration Time (usec): 70000 (USB2E7196)
Spectra Averaged: 10 (USB2E7196)
Boxcar Smoothing: 10 (USB2E7196)
Correct for Electrical Dark: No (USB2E7196)
Strobe/Lamp Enabled: No (USB2E7196)
Correct for Detector Non-linearity: No (USB2E7196)
Correct for Stray Light: No (USB2E7196)
Number of Pixels in Processed Spectrum: 2048
>>>>>Begin Processed Spectral Data<<<<<
339.09	0.00
339.48	217.00
339.86	217.00
340.24	217.50
340.63	220.20
341.01	225.50
341.39	220.90
341.78	223.60
342.16	223.10
342.54	225.50
342.93	214.06
343.31	224.81
343.69	225.26
344.07	225.71
344.46	226.16
344.84	226.52
345.22	226.68
345.60	227.00
345.99	227.21
346.37	227.43
346.75	227.51
347.13	227.58
347.52	227.70
347.90	227.81
348.28	227.83
348.66	227.85
349.05	227.80
349.43	227.86
349.81	227.90
350.19	227.88
350.57	227.86
350.96	227.97
351.34	228.10
351.72	228.19
352.10	228.40
352.48	228.57
352.87	228.73
353.25	228.83
353.63	228.90
354.01	228.97
354.39	229.04
354.77	229.15
355.15	229.23
355.54	229.21
355.92	229.19
356.30	229.33
356.68	229.56
357.06	229.64
357.44	229.63
357.82	229.76
358.20	229.87
358.58	229.98
358.97	230.05
359.35	230.25
359.73	230.44
360.11	230.40
360.49	230.40
360.87	230.26
361.25	230.28
361.63	230.37
362.01	230.43
362.39	230.53
362.77	230.55
363.15	230.64
363.53	230.78
363.91	230.89
364.29	230.82
364.67	230.66
365.05	230.63
365.43	230.64
365.81	230.72
366.19	230.83
366.57	230.83
366.95	230.84
367.33	230.74
367.71	230.68
368.09	230.70
368.47	230.71
368.85	230.78
369.23	230.75
369.61	230.66
369.99	230.72
370.37	230.67
370.75	230.86
371.13	230.74
371.51	230.70
371.89	230.60
372.27	230.60
372.65	230.58
373.03	230.59
373.41	230.60
373.78	230.41
374.16	230.38
374.54	230.25
374.92	230.14
375.30	230.04
375.68	229.93
376.06	229.84
376.44	229.76
376.82	229.71
377.19	229.53
377.57	229.48
377.95	229.21
378.33	229.12
378.71	228.78
379.09	228.78
379.47	228.58
379.84	228.43
380.22	228.35
380.60	228.19
380.98	228.01
381.36	227.95
381.73	227.86
382.11	227.69
382.49	227.68
382.87	227.60
383.25	227.54
383.62	227.71
384.00	227.60
384.38	227.45
384.76	227.49
385.13	227.55
385.51	227.48
385.89	227.47
386.27	227.42
386.64	227.37
387.02	227.34
387.40	227.29
387.78	227.30
388.15	227.20
388.53	227.26
388.91	227.21
389.29	227.09
389.66	227.15
390.04	227.14
390.42	227.07
390.79	227.21
391.17	227.18
391.55	226.85
391.92	226.88
392.30	226.97
392.68	226.82
393.05	226.85
393.43	226.90
393.81	226.90
394.18	226.79
394.56	226.79
394.94	226.80
395.31	226.88
395.69	227.04
396.06	227.17
396.44	227.16
396.82	227.23
397.19	227.44
397.57	227.45
397.95	227.56
398.32	227.59
398.70	227.53
399.07	227.69
399.45	227.84
399.82	227.87
400.20	227.98
400.58	228.10
400.95	228.10
401.33	228.21
401.70	228.50
402.08	228.80
402.45	229.03
402.83	229.18
403.20	229.37
403.58	229.35
403.95	229.42
404.33	229.56
404.71	229.76
405.08	230.00
405.46	230.31
405.83	230.49
406.21	230.64
406.58	230.83
406.96	230.99
407.33	231.24
407.70	231.40
408.08	231.70
408.45	231.88
408.83	232.09
409.20	232.22
409.58	232.34
409.95	232.50
410.33	232.80
410.70	233.00
411.08	233.18
411.45	233.51
411.82	233.79
412.20	234.18
412.57	234.62
412.95	234.79
413.32	234.96
413.69	235.30
414.07	235.76
414.44	236.24
414.82	236.65
415.19	237.14
415.56	237.71
415.94	238.14
416.31	238.89
416.68	239.67
417.06	240.45
417.43	241.03
417.81	241.80
418.18	242.56
418.55	243.45
418.93	244.34
419.30	245.25
419.67	246.23
420.04	247.18
420.42	248.22
420.79	249.41
421.16	250.62
421.54	251.80
421.91	253.06
422.28	254.28
422.66	255.63
423.03	257.02
423.40	258.41
423.77	259.87
424.15	261.16
424.52	262.58
424.89	264.21
425.26	265.83
425.64	267.26
426.01	268.80
426.38	270.39
426.75	272.20
427.13	273.89
427.50	275.66
427.87	277.65
428.24	279.51
428.61	281.30
428.99	283.35
429.36	285.43
429.73	287.63
430.10	289.67
430.47	291.81
430.85	293.85
431.22	296.07
431.59	298.51
431.96	300.85
432.33	303.32
432.70	305.81
433.08	308.76
433.45	311.49
433.82	314.13
434.19	317.04
434.56	319.88
434.93	322.67
435.30	325.46
435.68	328.26
436.05	331.13
436.42	334.00
436.79	336.46
437.16	339.18
437.53	342.14
437.90	345.12
438.27	347.97
438.64	350.89
439.01	353.70
439.38	356.05
439.75	358.35
440.13	361.03
440.50	363.34
440.87	365.24
441.24	367.41
441.61	369.82
441.98	371.55
442.35	373.34
442.72	375.31
443.09	377.11
443.46	378.13
443.83	378.63
444.20	379.19
444.57	380.13
444.94	380.52
445.31	380.74
445.68	381.20
446.05	381.26
446.42	381.01
446.79	380.46
447.16	379.92
447.53	379.60
447.90	378.32
448.27	377.21
448.64	375.60
449.01	374.32
449.37	372.28
449.74	370.27
450.11	368.17
450.48	365.54
450.85	363.03
451.22	361.02
451.59	358.95
451.96	356.93
452.33	354.24
452.70	351.80
453.07	348.88
453.43	345.71
453.80	342.87
454.17	339.99
454.54	337.44
454.91	334.59
455.28	331.80
455.65	329.29
456.02	326.90
456.38	324.70
456.75	321.86
457.12	319.53
457.49	317.24
457.86	314.86
458.23	313.06
458.59	310.99
458.96	308.84
459.33	307.04
459.70	305.14
460.07	303.58
460.43	301.84
460.80	300.08
461.17	298.75
461.54	297.13
461.91	295.74
462.27	294.19
462.64	292.91
463.01	291.51
463.38	290.15
463.74	288.59
464.11	287.12
464.48	286.03
464.85	284.79
465.21	283.81
465.58	282.82
465.95	281.56
466.32	280.44
466.68	279.35
467.05	278.24
467.42	277.19
467.78	276.19
468.15	275.18
468.52	274.50
468.88	273.32
469.25	272.45
469.62	271.74
469.98	270.94
470.35	270.25
470.72	269.49
471.08	268.69
471.45	268.05
471.82	267.63
472.18	266.88
472.55	266.34
472.92	265.64
473.28	264.98
473.65	264.32
474.02	263.81
474.38	263.29
474.75	262.84
475.11	262.35
475.48	262.00
475.85	261.64
476.21	261.21
476.58	260.93
476.94	260.59
477.31	260.14
477.67	259.85
478.04	259.53
478.41	259.25
478.77	259.17
479.14	258.81
479.50	258.50
479.87	258.40
480.23	258.24
480.60	258.05
480.96	257.96
481.33	258.03
481.69	257.93
482.06	257.80
482.42	257.81
482.79	257.79
483.15	257.79
483.52	257.85
483.88	257.90
484.25	257.90
484.61	258.01
484.98	258.10
485.34	258.29
485.71	258.39
486.07	258.57
486.44	258.56
486.80	258.70
487.17	258.91
487.53	259.20
487.90	259.49
488.26	259.94
488.62	260.35
488.99	260.76
489.35	261.10
489.72	261.59
490.08	262.05
490.44	262.58
490.81	263.06
491.17	263.56
491.54	264.25
491.90	264.97
492.26	265.63
492.63	266.31
492.99	266.96
493.36	267.98
493.72	268.98
494.08	269.96
494.45	271.06
494.81	272.15
495.17	273.33
495.54	274.53
495.90	275.67
496.26	277.01
496.63	278.35
496.99	279.98
497.35	281.64
497.72	283.31
498.08	285.08
498.44	287.04
498.80	289.00
499.17	290.95
499.53	293.03
499.89	295.34
500.26	297.64
500.62	300.10
500.98	302.60
501.34	305.25
501.71	308.09
502.07	311.10
502.43	314.16
502.79	317.29
503.16	320.55
503.52	323.98
503.88	327.31
504.24	330.94
504.60	334.57
504.97	338.38
505.33	342.40
505.69	346.76
506.05	351.22
506.41	355.80
506.78	360.62
507.14	365.40
507.50	370.43
507.86	375.81
508.22	381.30
508.59	386.69
508.95	392.40
509.31	398.29
509.67	404.21
510.03	410.40
510.39	416.81
510.75	423.56
511.12	430.41
511.48	437.36
511.84	444.49
512.20	451.95
512.56	459.64
512.92	467.69
513.28	475.54
513.64	483.48
514.00	491.67
514.37	499.98
514.73	508.70
515.09	517.55
515.45	526.31
515.81	535.39
516.17	544.88
516.53	554.46
516.89	564.00
517.25	573.82
517.61	583.61
517.97	593.61
518.33	603.48
518.69	613.50
519.05	624.34
519.41	634.94
519.77	645.94
520.13	657.16
520.49	667.83
520.85	679.06
521.21	690.46
521.57	702.35
521.93	713.97
522.29	726.01
522.65	737.73
523.01	749.62
523.37	761.45
523.73	773.53
524.09	785.67
524.45	798.16
524.81	810.93
525.17	823.96
525.53	836.98
525.89	850.02
526.25	863.57
526.61	876.39
526.97	889.76
527.33	902.90
527.68	916.24
528.04	929.85
528.40	943.39
528.76	957.28
529.12	970.82
529.48	984.88
529.84	998.20
530.20	1012.29
530.56	1026.99
530.91	1041.97
531.27	1056.46
531.63	1070.72
531.99	1084.85
532.35	1098.72
532.71	1112.50
533.07	1126.89
533.42	1141.41
533.78	1155.66
534.14	1170.05
534.50	1183.99
534.86	1198.43
535.21	1212.07
535.57	1226.44
535.93	1240.47
536.29	1254.61
536.65	1268.70
537.00	1282.29
537.36	1296.22
537.72	1309.74
538.08	1323.29
538.44	1336.03
538.79	1349.72
539.15	1363.10
539.51	1376.60
539.87	1390.14
540.22	1403.79
540.58	1417.04
540.94	1430.07
541.29	1442.96
541.65	1455.85
542.01	1469.00
542.37	1481.59
542.72	1494.47
543.08	1506.66
543.44	1519.47
543.79	1530.81
544.15	1542.71
544.51	1554.86
544.87	1567.34
545.22	1579.38
545.58	1590.44
545.94	1601.73
546.29	1612.37
546.65	1623.40
547.01	1634.35
547.36	1644.90
547.72	1655.00
548.07	1664.97
548.43	1674.96
548.79	1684.85
549.14	1694.02
549.50	1703.03
549.86	1712.41
550.21	1721.59
550.57	1730.89
550.92	1739.37
551.28	1748.26
551.64	1756.76
551.99	1765.27
552.35	1773.17
552.70	1781.14
553.06	1789.64
553.41	1797.85
553.77	1806.05
554.13	1813.92
554.48	1821.73
554.84	1829.21
555.19	1836.82
555.55	1844.19
555.90	1850.88
556.26	1857.88
556.61	1865.16
556.97	1871.80
557.32	1878.61
557.68	1884.84
558.03	1891.33
558.39	1897.66
558.74	1904.80
559.10	1911.24
559.45	1917.42
559.81	1923.85
560.16	1929.42
560.52	1934.81
560.87	1940.62
561.23	1945.25
561.58	1950.71
561.94	1955.75
562.29	1960.28
562.64	1965.03
563.00	1969.61
563.35	1975.24
563.71	1980.34
564.06	1985.33
564.42	1990.21
564.77	1994.20
565.12	1998.88
565.48	2002.91
565.83	2006.52
566.19	2009.83
566.54	2013.10
566.89	2016.18
567.25	2019.33
567.60	2023.01
567.96	2026.23
568.31	2028.56
568.66	2031.61
569.02	2034.25
569.37	2036.28
569.72	2038.81
570.08	2040.83
570.43	2042.84
570.78	2044.04
571.14	2044.80
571.49	2045.90
571.84	2047.76
572.20	2048.55
572.55	2049.21
572.90	2049.46
573.26	2050.42
573.61	2051.01
573.96	2050.93
574.31	2050.60
574.67	2049.46
575.02	2048.29
575.37	2047.75
575.72	2046.57
576.08	2045.97
576.43	2044.31
576.78	2043.04
577.13	2042.50
577.49	2041.58
577.84	2040.00
578.19	2038.20
578.54	2036.24
578.90	2033.92
579.25	2030.53
579.60	2028.44
579.95	2025.54
580.30	2022.84
580.66	2019.38
581.01	2015.90
581.36	2013.50
581.71	2010.59
582.06	2007.87
582.42	2004.88
582.77	2001.10
583.12	1997.92
583.47	1994.71
583.82	1991.80
584.17	1988.32
584.53	1984.38
584.88	1980.58
585.23	1977.16
585.58	1973.75
585.93	1970.18
586.28	1966.99
586.63	1964.42
586.98	1960.93
587.34	1957.34
587.69	1953.64
588.04	1950.31
588.39	1946.95
588.74	1941.82
589.09	1937.44
589.44	1932.93
589.79	1929.31
590.14	1925.52
590.49	1921.70
590.84	1916.87
591.19	1912.18
591.54	1906.55
591.89	1900.76
592.25	1895.80
592.60	1889.99
592.95	1884.27
593.30	1878.75
593.65	1872.88
594.00	1866.79
594.35	1861.18
594.70	1855.24
595.05	1849.47
595.40	1843.52
595.75	1837.19
596.10	1832.15
596.45	1827.09
596.80	1822.10
597.15	1816.21
597.50	1810.44
597.85	1804.90
598.19	1800.00
598.54	1794.41
598.89	1789.83
599.24	1785.61
599.59	1779.97
599.94	1774.98
600.29	1769.72
600.64	1764.60
600.99	1758.68
601.34	1753.02
601.69	1747.00
602.04	1741.61
602.39	1736.26
602.74	1731.25
603.08	1726.11
603.43	1720.90
603.78	1715.01
604.13	1709.17
604.48	1703.21
604.83	1697.08
605.18	1691.19
605.53	1684.06
605.87	1677.44
606.22	1671.40
606.57	1664.23
606.92	1658.18
607.27	1651.61
607.62	1645.76
607.96	1639.49
608.31	1633.77
608.66	1627.23
609.01	1620.39
609.36	1613.31
609.70	1605.96
610.05	1598.28
610.40	1590.95
610.75	1583.74
611.10	1576.70
611.44	1568.94
611.79	1561.89
612.14	1554.62
612.49	1546.46
612.83	1539.32
613.18	1531.91
613.53	1524.21
613.88	1516.88
614.22	1509.31
614.57	1501.83
614.92	1494.12
615.27	1486.83
615.61	1479.26
615.96	1472.27
616.31	1465.68
616.65	1459.74
617.00	1453.30
617.35	1446.44
617.70	1439.50
618.04	1432.12
618.39	1425.20
618.74	1418.62
619.08	1411.55
619.43	1404.89
619.78	1398.85
620.12	1391.89
620.47	1385.24
620.82	1378.39
621.16	1371.74
621.51	1364.99
621.85	1358.25
622.20	1351.07
622.55	1344.31
622.89	1337.64
623.24	1330.93
623.59	1324.47
623.93	1317.55
624.28	1310.68
624.62	1304.08
624.97	1297.67
625.32	1291.05
625.66	1284.72
626.01	1278.22
626.35	1271.50
626.70	1264.84
627.04	1258.23
627.39	1251.47
627.73	1244.91
628.08	1238.65
628.43	1232.07
628.77	1225.34
629.12	1218.47
629.46	1211.75
629.81	1204.50
630.15	1197.15
630.50	1189.99
630.84	1182.09
631.19	1174.50
631.53	1167.53
631.88	1160.40
632.22	1153.00
632.57	1146.16
632.91	1138.67
633.26	1131.58
633.60	1124.43
633.95	1117.37
634.29	1110.27
634.64	1104.13
634.98	1097.62
635.32	1091.38
635.67	1085.27
636.01	1079.02
636.36	1072.75
636.70	1066.67
637.05	1060.74
637.39	1054.99
637.73	1048.94
638.08	1043.99
638.42	1038.78
638.77	1032.96
639.11	1026.88
639.45	1021.00
639.80	1015.01
640.14	1009.20
640.49	1003.21
640.83	997.48
641.17	991.69
641.52	985.75
641.86	979.55
642.20	973.62
642.55	967.30
642.89	960.94
643.23	954.83
643.58	949.50
643.92	943.63
644.26	937.67
644.61	932.20
644.95	926.50
645.29	919.79
645.64	913.03
645.98	907.14
646.32	901.49
646.66	895.50
647.01	889.60
647.35	883.87
647.69	878.00
648.04	872.59
648.38	866.73
648.72	860.99
649.06	855.22
649.41	849.42
649.75	843.34
650.09	837.72
650.43	832.07
650.78	825.80
651.12	820.02
651.46	814.35
651.80	808.66
652.14	803.22
652.49	797.84
652.83	792.71
653.17	786.97
653.51	781.65
653.85	776.45
654.20	771.26
654.54	765.75
654.88	760.52
655.22	754.71
655.56	749.35
655.90	744.30
656.25	738.97
656.59	733.77
656.93	728.92
657.27	724.05
657.61	718.78
657.95	714.09
658.29	709.22
658.64	704.25
658.98	699.00
659.32	693.72
659.66	688.88
660.00	683.90
660.34	679.24
660.68	674.63
661.02	669.70
661.36	665.28
661.70	660.59
662.05	656.29
662.39	652.13
662.73	647.80
663.07	643.53
663.41	639.61
663.75	635.51
664.09	631.37
664.43	627.24
664.77	623.32
665.11	619.28
665.45	615.23
665.79	611.26
666.13	607.52
666.47	603.68
666.81	599.72
667.15	595.76
667.49	592.03
667.83	588.30
668.17	584.72
668.51	580.78
668.85	577.22
669.19	573.60
669.53	570.02
669.87	566.55
670.21	563.02
670.55	559.51
670.89	556.21
671.23	552.77
671.57	549.31
671.91	545.93
672.25	542.66
672.58	539.52
672.92	536.55
673.26	533.43
673.60	530.41
673.94	527.52
674.28	525.01
674.62	522.21
674.96	519.15
675.30	516.47
675.64	513.69
675.97	510.84
676.31	508.15
676.65	505.41
676.99	502.82
677.33	499.93
677.67	497.14
678.01	494.08
678.34	491.39
678.68	488.62
679.02	486.03
679.36	483.27
679.70	480.70
680.04	478.11
680.37	475.48
680.71	473.10
681.05	470.74
681.39	468.16
681.73	465.60
682.06	463.39
682.40	460.88
682.74	458.49
683.08	456.33
683.42	453.58
683.75	451.20
684.09	448.61
684.43	446.18
684.77	443.70
685.10	441.45
685.44	439.22
685.78	437.13
686.12	434.79
686.45	432.65
686.79	430.16
687.13	427.70
687.46	425.35
687.80	422.96
688.14	420.60
688.48	418.30
688.81	416.03
689.15	413.76
689.49	411.58
689.82	409.43
690.16	407.23
690.50	405.58
690.83	403.36
691.17	401.43
691.51	399.59
691.84	397.82
692.18	395.90
692.52	393.93
692.85	391.79
693.19	389.94
693.52	388.02
693.86	386.31
694.20	384.36
694.53	382.60
694.87	380.77
695.21	378.94
695.54	377.00
695.88	375.13
696.21	373.23
696.55	371.50
696.88	369.80
697.22	368.00
697.56	366.20
697.89	364.59
698.23	362.87
698.56	361.30
698.90	359.62
699.23	357.90
699.57	356.21
699.90	354.64
700.24	352.90
700.58	351.24
700.91	349.69
701.25	348.27
701.58	346.76
701.92	345.36
702.25	343.82
702.59	342.44
702.92	341.08
703.26	339.70
703.59	338.36
703.93	337.04
704.26	335.84
704.60	334.42
704.93	333.23
705.26	331.96
705.60	330.79
705.93	329.61
706.27	328.52
706.60	327.35
706.94	326.25
707.27	325.25
707.61	324.10
707.94	322.95
708.27	321.91
708.61	320.80
708.94	319.64
709.28	318.61
709.61	317.69
709.94	316.70
710.28	315.65
710.61	314.72
710.95	313.65
711.28	312.77
711.61	311.79
711.95	310.80
712.28	309.85
712.61	308.71
712.95	307.70
713.28	306.87
713.61	306.01
713.95	305.11
714.28	304.15
714.61	303.39
714.95	302.50
715.28	301.58
715.61	300.74
715.95	299.93
716.28	299.26
716.61	298.60
716.95	297.84
717.28	297.16
717.61	296.34
717.94	295.63
718.28	294.78
718.61	294.00
718.94	293.24
719.27	292.56
719.61	291.83
719.94	291.18
720.27	290.42
720.60	289.75
720.94	289.10
721.27	288.49
721.60	287.90
721.93	287.36
722.27	286.85
722.60	286.29
722.93	285.75
723.26	285.08
723.59	284.27
723.93	283.68
724.26	283.01
724.59	282.38
724.92	281.79
725.25	281.20
725.59	280.56
725.92	279.94
726.25	279.35
726.58	278.83
726.91	278.31
727.24	277.72
727.57	277.24
727.91	276.65
728.24	276.10
728.57	275.50
728.90	274.97
729.23	274.30
729.56	273.91
729.89	273.36
730.22	272.83
730.55	272.38
730.89	271.87
731.22	271.45
731.55	271.01
731.88	270.55
732.21	270.07
732.54	269.65
732.87	269.28
733.20	268.82
733.53	268.45
733.86	267.94
734.19	267.44
734.52	266.90
734.85	266.52
735.18	266.01
735.51	265.50
735.84	265.10
736.17	264.72
736.50	264.10
736.83	263.78
737.16	263.35
737.49	262.95
737.82	262.50
738.15	262.07
738.48	261.68
738.81	261.30
739.14	260.82
739.47	260.44
739.80	260.02
740.13	259.63
740.46	259.17
740.79	258.80
741.12	258.53
741.45	258.20
741.78	257.72
742.11	257.36
742.44	257.10
742.77	256.73
743.10	256.44
743.43	256.08
743.75	255.49
744.08	255.44
744.41	255.06
744.74	254.76
745.07	254.44
745.40	254.09
745.73	253.84
746.06	253.50
746.39	253.18
746.71	252.90
747.04	252.61
747.37	252.38
747.70	252.06
748.03	251.68
748.36	251.46
748.68	251.27
749.01	250.99
749.34	250.67
749.67	250.46
750.00	250.16
750.33	250.00
750.65	249.91
750.98	249.46
751.31	249.21
751.64	248.96
751.97	248.82
752.29	248.55
752.62	248.22
752.95	248.10
753.28	247.85
753.60	247.73
753.93	247.60
754.26	247.40
754.59	247.17
754.91	246.95
755.24	246.67
755.57	246.57
755.90	246.47
756.22	246.30
756.55	246.08
756.88	245.90
757.20	245.62
757.53	245.49
757.86	245.29
758.19	245.16
758.51	244.99
758.84	244.72
759.17	244.61
759.49	244.45
759.82	244.37
760.15	244.33
760.47	244.07
760.80	243.72
761.13	243.60
761.45	243.53
761.78	243.48
762.11	243.28
762.43	243.03
762.76	242.89
763.08	242.84
763.41	242.64
763.74	242.56
764.06	242.46
764.39	242.28
764.71	242.22
765.04	242.08
765.37	241.94
765.69	241.77
766.02	241.60
766.34	241.54
766.67	241.35
767.00	241.19
767.32	241.10
767.65	241.25
767.97	241.00
768.30	240.92
768.62	240.74
768.95	240.57
769.27	240.47
769.60	240.28
769.92	239.97
770.25	239.87
770.57	239.70
770.90	239.68
771.22	239.49
771.55	239.22
771.87	239.13
772.20	238.98
772.52	239.12
772.85	239.21
773.17	239.04
773.50	238.80
773.82	238.58
774.15	238.36
774.47	238.08
774.80	237.92
775.12	237.67
775.45	237.55
775.77	237.41
776.09	237.20
776.42	237.14
776.74	237.07
777.07	236.97
777.39	236.85
777.72	236.60
778.04	236.53
778.36	236.41
778.69	236.28
779.01	236.24
779.33	235.90
779.66	235.57
779.98	235.45
780.31	235.44
780.63	235.50
780.95	235.40
781.28	235.26
781.60	235.23
781.92	235.18
782.25	235.06
782.57	234.98
782.89	234.93
783.22	234.79
783.54	234.76
783.86	234.70
784.19	234.47
784.51	234.42
784.83	234.32
785.16	234.17
785.48	234.06
785.80	233.94
786.12	233.90
786.45	233.90
786.77	233.84
787.09	233.69
787.42	233.56
787.74	233.60
788.06	233.59
788.38	233.49
788.71	233.45
789.03	233.45
789.35	233.47
789.67	233.40
789.99	233.45
790.32	233.28
790.64	233.24
790.96	233.42
791.28	233.41
791.61	233.27
791.93	233.29
792.25	233.38
792.57	233.47
792.89	233.38
793.21	233.37
793.54	233.37
793.86	233.43
794.18	233.32
794.50	233.27
794.82	233.29
795.14	233.37
795.47	233.47
795.79	233.39
796.11	233.32
796.43	233.32
796.75	233.31
797.07	233.35
797.39	233.27
797.71	233.04
798.04	232.99
798.36	233.08
798.68	233.05
799.00	232.96
799.32	232.88
799.64	232.92
799.96	232.79
800.28	232.83
800.60	232.83
800.92	232.90
801.24	232.84
801.56	232.82
801.89	232.81
802.21	232.74
802.53	232.74
802.85	232.88
803.17	232.85
803.49	232.73
803.81	232.84
804.13	232.82
804.45	232.85
804.77	232.84
805.09	232.88
805.41	232.86
805.73	232.70
806.05	232.64
806.37	232.50
806.69	232.60
807.01	232.50
807.33	232.46
807.65	232.33
807.97	232.32
808.28	232.21
808.60	232.08
808.92	231.94
809.24	232.08
809.56	231.96
809.88	231.92
810.20	231.89
810.52	231.77
810.84	231.77
811.16	231.67
811.48	231.60
811.80	231.51
812.12	231.51
812.43	231.61
812.75	231.55
813.07	231.57
813.39	231.40
813.71	231.35
814.03	231.17
814.35	231.13
814.67	231.01
814.98	230.99
815.30	230.85
815.62	230.80
815.94	230.53
816.26	230.59
816.58	230.57
816.89	230.40
817.21	230.30
817.53	230.16
817.85	230.17
818.17	230.04
818.48	229.88
818.80	229.79
819.12	229.69
819.44	229.63
819.76	229.53
820.07	229.50
820.39	229.34
820.71	229.33
821.03	229.33
821.34	229.31
821.66	229.17
821.98	229.19
822.30	229.17
822.61	229.31
822.93	229.14
823.25	229.02
823.57	228.98
823.88	228.90
824.20	228.98
824.52	228.96
824.83	229.04
825.15	229.11
825.47	229.04
825.79	229.00
826.10	228.93
826.42	228.90
826.74	228.88
827.05	228.89
827.37	228.90
827.69	228.95
828.00	228.94
828.32	228.91
828.64	228.88
828.95	228.98
829.27	228.89
829.58	228.80
829.90	228.82
830.22	228.97
830.53	228.95
830.85	228.92
831.17	228.84
831.48	228.83
831.80	228.90
832.11	228.93
832.43	228.88
832.75	229.00
833.06	229.12
833.38	229.14
833.69	229.16
834.01	229.18
834.32	229.06
834.64	229.00
834.96	229.12
835.27	229.16
835.59	229.10
835.90	229.13
836.22	229.22
836.53	229.17
836.85	229.14
837.16	229.41
837.48	229.47
837.79	229.64
838.11	229.68
838.42	229.60
838.74	229.73
839.05	229.83
839.37	229.78
839.68	229.73
840.00	229.76
840.31	229.83
840.63	229.79
840.94	229.81
841.26	229.89
841.57	229.95
841.88	229.97
842.20	229.93
842.51	229.90
842.83	229.93
843.14	230.23
843.46	230.23
843.77	230.14
844.08	230.10
844.40	230.03
844.71	230.01
845.03	230.02
845.34	229.96
845.65	229.97
845.97	229.95
846.28	229.97
846.60	229.99
846.91	229.90
847.22	230.08
847.54	230.12
847.85	230.13
848.16	230.05
848.48	230.06
848.79	230.11
849.10	230.15
849.42	230.21
849.73	229.96
850.04	229.93
850.36	229.87
850.67	229.88
850.98	229.82
851.30	229.74
851.61	229.65
851.92	229.68
852.23	229.62
852.55	229.69
852.86	229.55
853.17	229.60
853.49	229.64
853.80	229.54
854.11	229.57
854.42	229.52
854.74	229.48
855.05	229.51
855.36	229.51
855.67	229.46
855.99	229.35
856.30	229.52
856.61	229.56
856.92	229.51
857.23	229.42
857.55	229.39
857.86	229.43
858.17	229.41
858.48	229.27
858.79	229.24
859.11	229.17
859.42	229.24
859.73	229.13
860.04	229.10
860.35	229.00
860.66	228.87
860.98	228.83
861.29	228.82
861.60	228.70
861.91	228.66
862.22	228.58
862.53	228.57
862.84	228.35
863.16	228.29
863.47	228.29
863.78	228.26
864.09	228.30
864.40	228.31
864.71	228.32
865.02	228.28
865.33	228.30
865.64	228.33
865.95	228.22
866.27	228.33
866.58	228.30
866.89	228.40
867.20	228.46
867.51	228.42
867.82	228.40
868.13	228.53
868.44	228.51
868.75	228.58
869.06	228.54
869.37	228.56
869.68	228.64
869.99	228.60
870.30	228.73
870.61	228.72
870.92	228.67
871.23	228.72
871.54	228.82
871.85	228.81
872.16	228.76
872.47	228.90
872.78	228.79
873.09	228.81
873.40	228.70
873.71	228.71
874.02	228.80
874.33	228.92
874.64	228.91
874.95	228.98
875.26	228.95
875.56	228.94
875.87	229.06
876.18	229.07
876.49	229.31
876.80	229.17
877.11	229.16
877.42	229.22
877.73	229.28
878.04	229.29
878.35	229.39
878.66	229.43
878.96	229.43
879.27	229.51
879.58	229.38
879.89	229.37
880.20	229.40
880.51	229.39
880.82	229.40
881.12	229.31
881.43	229.26
881.74	229.24
882.05	229.28
882.36	229.17
882.67	229.09
882.97	228.98
883.28	229.04
883.59	229.05
883.90	228.98
884.21	228.93
884.51	228.95
884.82	228.88
885.13	228.92
885.44	228.84
885.74	228.82
886.05	228.94
886.36	229.05
886.67	228.95
886.98	229.02
887.28	228.94
887.59	228.97
887.90	228.92
888.20	228.90
888.51	228.91
888.82	228.99
889.13	228.95
889.43	228.84
889.74	228.82
890.05	228.82
890.35	228.90
890.66	228.92
890.97	228.88
891.28	228.80
891.58	228.79
891.89	228.81
892.20	228.67
892.50	228.63
892.81	228.50
893.12	228.53
893.42	228.44
893.73	228.41
894.04	228.36
894.34	228.37
894.65	228.32
894.95	228.29
895.26	228.20
895.57	228.21
895.87	228.20
896.18	228.25
896.48	228.16
896.79	228.06
897.10	228.00
897.40	228.00
897.71	228.00
898.01	227.93
898.32	227.92
898.63	227.96
898.93	228.02
899.24	228.03
899.54	227.99
899.85	228.00
900.15	227.96
900.46	228.00
900.76	227.95
901.07	227.89
901.38	227.96
901.68	228.01
901.99	227.99
902.29	227.96
902.60	227.91
902.90	227.91
903.21	227.89
903.51	227.91
903.82	227.94
904.12	227.93
904.43	227.85
904.73	227.75
905.03	227.80
905.34	227.96
905.64	227.99
905.95	228.00
906.25	228.00
906.56	228.06
906.86	228.02
907.17	228.11
907.47	228.12
907.77	227.96
908.08	227.95
908.38	228.07
908.69	228.08
908.99	228.15
909.30	228.22
909.60	228.24
909.90	228.21
910.21	228.12
910.51	228.13
910.81	228.31
911.12	228.36
911.42	228.29
911.73	228.12
912.03	228.17
912.33	228.27
912.64	228.25
912.94	228.23
913.24	228.20
913.55	228.16
913.85	228.20
914.15	228.35
914.46	228.38
914.76	228.23
915.06	228.24
915.37	228.22
915.67	228.29
915.97	228.35
916.27	228.34
916.58	228.37
916.88	228.41
917.18	228.37
917.49	228.47
917.79	228.50
918.09	228.55
918.39	228.57
918.70	228.52
919.00	228.50
919.30	228.60
919.60	228.61
919.91	228.64
920.21	228.69
920.51	228.63
920.81	228.70
921.12	228.90
921.42	228.89
921.72	228.78
922.02	228.77
922.32	228.74
922.63	228.79
922.93	228.97
923.23	228.97
923.53	228.96
923.83	228.95
924.13	229.07
924.44	229.11
924.74	229.17
925.04	229.15
925.34	229.22
925.64	229.07
925.94	229.13
926.24	229.13
926.55	229.14
926.85	229.17
927.15	229.11
927.45	228.99
927.75	229.00
928.05	229.08
928.35	229.02
928.65	229.13
928.95	229.17
929.26	229.02
929.56	229.07
929.86	229.00
930.16	228.86
930.46	228.79
930.76	228.70
931.06	228.63
931.36	228.68
931.66	228.64
931.96	228.72
932.26	228.67
932.56	228.67
932.86	228.67
933.16	228.70
933.46	228.64
933.76	228.70
934.06	228.81
934.36	228.88
934.66	228.87
934.96	228.74
935.26	228.68
935.56	228.75
935.86	228.65
936.16	228.69
936.46	228.76
936.76	228.74
937.06	228.75
937.36	228.69
937.66	228.59
937.96	228.60
938.26	228.55
938.56	228.60
938.86	228.60
939.16	228.64
939.46	228.63
939.76	228.66
940.06	228.47
940.35	228.34
940.65	228.23
940.95	228.25
941.25	228.22
941.55	228.17
941.85	228.11
942.15	228.16
942.45	228.24
942.75	228.17
943.04	228.09
943.34	228.12
943.64	228.13
943.94	228.19
944.24	228.14
944.54	228.18
944.84	228.23
945.13	228.19
945.43	228.15
945.73	228.09
946.03	228.10
946.33	228.24
946.62	228.22
946.92	228.22
947.22	228.15
947.52	228.21
947.82	228.29
948.11	228.31
948.41	228.27
948.71	228.19
949.01	228.28
949.31	228.24
949.60	228.18
949.90	228.19
950.20	228.16
950.50	228.16
950.79	228.09
951.09	228.01
951.39	228.05
951.69	228.04
951.98	228.08
952.28	228.05
952.58	228.09
952.87	228.15
953.17	228.14
953.47	228.16
953.76	228.21
954.06	228.18
954.36	228.10
954.66	228.12
954.95	228.29
955.25	228.26
955.55	228.40
955.84	228.32
956.14	228.30
956.44	228.25
956.73	228.26
957.03	228.31
957.32	228.37
957.62	228.28
957.92	228.28
958.21	228.30
958.51	228.53
958.81	228.43
959.10	228.34
959.40	228.36
959.69	228.40
959.99	228.31
960.29	228.32
960.58	228.33
960.88	228.33
961.17	228.16
961.47	228.19
961.76	228.15
962.06	228.26
962.36	228.30
962.65	228.30
962.95	228.34
963.24	228.42
963.54	228.30
963.83	228.42
964.13	228.44
964.42	228.39
964.72	228.18
965.01	228.20
965.31	228.32
965.60	228.32
965.90	228.45
966.19	228.41
966.49	228.41
966.78	228.41
967.08	228.46
967.37	228.51
967.67	228.50
967.96	228.54
968.26	228.59
968.55	228.59
968.85	228.71
969.14	228.74
969.43	228.63
969.73	228.66
970.02	228.55
970.32	228.65
970.61	228.63
970.91	228.62
971.20	228.56
971.49	228.50
971.79	228.48
972.08	228.32
972.38	228.34
972.67	228.34
972.96	228.34
973.26	228.30
973.55	228.35
973.85	228.24
974.14	228.20
974.43	228.16
974.73	228.09
975.02	228.03
975.31	228.01
975.61	227.92
975.90	227.91
976.19	227.91
976.49	227.76
976.78	227.75
977.07	227.79
977.37	227.75
977.66	227.79
977.95	227.69
978.24	227.60
978.54	227.71
978.83	227.62
979.12	227.48
979.42	227.48
979.71	227.52
980.00	227.59
980.29	227.63
980.59	227.52
980.88	227.56
981.17	227.53
981.46	227.48
981.76	227.54
982.05	227.51
982.34	227.45
982.63	227.44
982.93	227.39
983.22	227.29
983.51	227.37
983.80	227.35
984.09	227.50
984.39	227.57
984.68	227.43
984.97	227.38
985.26	227.48
985.55	227.48
985.85	227.31
986.14	227.36
986.43	227.30
986.72	227.31
987.01	227.23
987.30	227.14
987.59	227.11
987.89	227.16
988.18	227.17
988.47	227.23
988.76	227.23
989.05	227.26
989.34	227.28
989.63	227.30
989.92	227.30
990.22	227.28
990.51	227.26
990.80	227.24
991.09	227.27
991.38	227.34
991.67	227.30
991.96	227.22
992.25	227.27
992.54	227.20
992.83	227.22
993.12	227.22
993.41	227.34
993.70	227.40
993.99	227.45
994.28	227.47
994.58	227.42
994.87	227.36
995.16	227.48
995.45	227.53
995.74	227.52
996.03	227.50
996.32	227.53
996.61	227.61
996.90	227.66
997.19	227.62
997.48	227.62
997.77	227.63
998.06	227.68
998.34	227.67
998.63	227.74
998.92	227.73
999.21	227.79
999.50	227.74
999.79	227.71
1000.08	227.73
1000.37	227.75
1000.66	227.90
1000.95	228.09
1001.24	227.94
1001.53	227.97
1001.82	227.99
1002.11	228.03
1002.40	228.09
1002.68	228.14
1002.97	228.28
1003.26	228.40
1003.55	228.43
1003.84	228.45
1004.13	228.51
1004.42	228.47
1004.71	228.54
1004.99	228.61
1005.28	228.70
1005.57	228.73
1005.86	228.73
1006.15	228.74
1006.44	228.66
1006.72	228.54
1007.01	228.43
1007.30	228.48
1007.59	228.51
1007.88	228.49
1008.17	228.41
1008.45	228.34
1008.74	228.16
1009.03	228.10
1009.32	228.15
1009.60	228.06
1009.89	228.02
1010.18	228.06
1010.47	227.91
1010.76	227.80
1011.04	227.71
1011.33	227.72
1011.62	227.71
1011.91	227.72
1012.19	227.60
1012.48	227.70
1012.77	227.81
1013.05	227.91
1013.34	227.87
1013.63	227.81
1013.92	227.80
1014.20	227.85
1014.49	227.83
1014.78	227.88
1015.06	227.81
1015.35	227.75
1015.64	227.71
1015.92	227.75
1016.21	227.64
1016.50	227.77
1016.78	227.88
1017.07	227.92
1017.36	227.90
1017.64	227.86
1017.93	227.85
1018.22	227.99
1018.50	227.90
1018.79	227.80
1019.08	227.68
1019.36	227.73
1019.65	227.68
1019.93	227.70
1020.22	227.67
1020.51	227.78
1020.79	227.78
1021.08	229.80
1021.36	226.50
1021.65	227.10
1021.94	227.30
1022.22	227.40
1022.51	227.50
1022.79	228.00
1023.08	227.60
1023.36	230.30
1023.65	227.40
>>>>>End Processed Spectral Data<<<<<
