SpectraSuite Data File
++++++++++++++++++++++++++++++++++++
Date: Fri Feb 01 14:41:37 EST 2013
User: group
Dark Spectrum Present: No
Reference Spectrum Present: No
Number of Sampled Component Spectra: 1
Spectrometers: USB2E7196
Integration Time (usec): 70000 (USB2E7196)
Spectra Averaged: 10 (USB2E7196)
Boxcar Smoothing: 10 (USB2E7196)
Correct for Electrical Dark: No (USB2E7196)
Strobe/Lamp Enabled: No (USB2E7196)
Correct for Detector Non-linearity: No (USB2E7196)
Correct for Stray Light: No (USB2E7196)
Number of Pixels in Processed Spectrum: 2048
>>>>>Begin Processed Spectral Data<<<<<
339.09	0.00
339.48	215.50
339.86	218.10
340.24	219.80
340.63	221.80
341.01	224.30
341.39	222.80
341.78	225.40
342.16	225.10
342.54	224.30
342.93	214.54
343.31	225.43
343.69	225.96
344.07	226.36
344.46	226.80
344.84	227.09
345.22	227.23
345.60	227.44
345.99	227.55
346.37	227.71
346.75	227.94
347.13	228.00
347.52	228.18
347.90	228.22
348.28	228.18
348.66	228.17
349.05	228.01
349.43	228.01
349.81	228.12
350.19	228.24
350.57	228.41
350.96	228.47
351.34	228.49
351.72	228.65
352.10	228.72
352.48	228.70
352.87	228.80
353.25	228.89
353.63	228.92
354.01	229.03
354.39	229.21
354.77	229.24
355.15	229.35
355.54	229.39
355.92	229.50
356.30	229.52
356.68	229.70
357.06	229.95
357.44	229.99
357.82	230.06
358.20	230.11
358.58	230.06
358.97	230.14
359.35	230.23
359.73	230.30
360.11	230.38
360.49	230.41
360.87	230.49
361.25	230.63
361.63	230.78
362.01	230.88
362.39	230.80
362.77	230.85
363.15	230.82
363.53	230.87
363.91	230.87
364.29	230.92
364.67	230.80
365.05	230.80
365.43	230.89
365.81	230.89
366.19	230.93
366.57	230.97
366.95	230.88
367.33	230.79
367.71	230.80
368.09	230.80
368.47	230.81
368.85	230.80
369.23	230.80
369.61	230.76
369.99	230.80
370.37	230.72
370.75	230.76
371.13	230.73
371.51	230.64
371.89	230.79
372.27	230.75
372.65	230.64
373.03	230.69
373.41	230.67
373.78	230.61
374.16	230.49
374.54	230.40
374.92	230.36
375.30	230.44
375.68	230.34
376.06	230.31
376.44	230.24
376.82	230.15
377.19	230.04
377.57	229.91
377.95	229.65
378.33	229.62
378.71	229.54
379.09	229.44
379.47	229.35
379.84	229.17
380.22	229.06
380.60	228.96
380.98	228.82
381.36	228.67
381.73	228.51
382.11	228.42
382.49	228.34
382.87	228.30
383.25	228.09
383.62	228.21
384.00	228.20
384.38	228.23
384.76	228.25
385.13	228.22
385.51	228.17
385.89	228.14
386.27	228.12
386.64	227.98
387.02	227.96
387.40	227.86
387.78	227.81
388.15	227.92
388.53	227.96
388.91	227.95
389.29	227.85
389.66	227.86
390.04	227.88
390.42	227.90
390.79	227.90
391.17	227.85
391.55	227.52
391.92	227.53
392.30	227.47
392.68	227.35
393.05	227.34
393.43	227.39
393.81	227.49
394.18	227.44
394.56	227.52
394.94	227.53
395.31	227.59
395.69	227.65
396.06	227.53
396.44	227.55
396.82	227.53
397.19	227.76
397.57	227.84
397.95	227.89
398.32	227.87
398.70	227.89
399.07	228.12
399.45	228.25
399.82	228.19
400.20	228.27
400.58	228.38
400.95	228.40
401.33	228.58
401.70	228.71
402.08	228.86
402.45	228.92
402.83	229.16
403.20	229.34
403.58	229.53
403.95	229.81
404.33	230.04
404.71	230.25
405.08	230.45
405.46	230.62
405.83	230.87
406.21	231.14
406.58	231.43
406.96	231.63
407.33	231.94
407.70	232.23
408.08	232.68
408.45	232.99
408.83	233.32
409.20	233.63
409.58	233.84
409.95	234.29
410.33	234.66
410.70	234.96
411.08	235.29
411.45	235.66
411.82	236.00
412.20	236.47
412.57	236.99
412.95	237.33
413.32	237.89
413.69	238.38
414.07	239.00
414.44	239.53
414.82	240.27
415.19	241.05
415.56	241.81
415.94	242.46
416.31	243.31
416.68	244.19
417.06	245.11
417.43	246.09
417.81	246.99
418.18	248.02
418.55	249.09
418.93	250.24
419.30	251.39
419.67	252.58
420.04	253.76
420.42	254.99
420.79	256.71
421.16	258.28
421.54	260.03
421.91	261.58
422.28	263.27
422.66	265.12
423.03	266.82
423.40	268.67
423.77	270.53
424.15	272.39
424.52	274.44
424.89	276.59
425.26	278.61
425.64	280.58
426.01	282.66
426.38	284.84
426.75	287.23
427.13	289.51
427.50	292.01
427.87	294.57
428.24	297.20
428.61	299.49
428.99	302.04
429.36	304.64
429.73	307.47
430.10	310.23
430.47	312.70
430.85	315.62
431.22	318.54
431.59	321.70
431.96	324.64
432.33	327.93
432.70	331.10
433.08	334.76
433.45	338.29
433.82	341.78
434.19	345.74
434.56	349.38
434.93	352.80
435.30	356.17
435.68	359.98
436.05	363.59
436.42	367.20
436.79	370.51
437.16	374.17
437.53	377.95
437.90	381.74
438.27	385.50
438.64	389.15
439.01	392.62
439.38	395.62
439.75	398.50
440.13	401.80
440.50	404.77
440.87	407.21
441.24	409.70
441.61	412.50
441.98	414.36
442.35	416.58
442.72	419.15
443.09	421.77
443.46	423.05
443.83	423.84
444.20	424.41
444.57	425.36
444.94	425.67
445.31	425.98
445.68	426.42
446.05	426.48
446.42	425.86
446.79	425.14
447.16	424.52
447.53	423.97
447.90	422.29
448.27	420.58
448.64	418.44
449.01	416.87
449.37	414.20
449.74	411.57
450.11	408.70
450.48	405.29
450.85	401.57
451.22	398.54
451.59	395.74
451.96	393.28
452.33	389.98
452.70	386.97
453.07	383.10
453.43	379.03
453.80	375.17
454.17	371.50
454.54	368.13
454.91	364.40
455.28	360.90
455.65	357.47
456.02	354.51
456.38	351.64
456.75	348.06
457.12	345.11
457.49	342.12
457.86	339.16
458.23	336.65
458.59	334.03
458.96	331.39
459.33	329.04
459.70	326.54
460.07	324.36
460.43	321.85
460.80	319.77
461.17	317.87
461.54	316.00
461.91	314.22
462.27	312.35
462.64	310.75
463.01	308.94
463.38	307.41
463.74	305.36
464.11	303.66
464.48	302.28
464.85	300.67
465.21	299.51
465.58	298.34
465.95	296.95
466.32	295.67
466.68	294.46
467.05	293.17
467.42	291.86
467.78	290.62
468.15	289.46
468.52	288.50
468.88	287.35
469.25	286.34
469.62	285.47
469.98	284.48
470.35	283.49
470.72	282.72
471.08	281.61
471.45	280.89
471.82	280.23
472.18	279.42
472.55	278.99
472.92	278.24
473.28	277.52
473.65	276.80
474.02	276.29
474.38	275.71
474.75	275.30
475.11	274.80
475.48	274.36
475.85	273.86
476.21	273.42
476.58	273.03
476.94	272.73
477.31	272.42
477.67	272.08
478.04	271.86
478.41	271.68
478.77	271.74
479.14	271.50
479.50	271.38
479.87	271.38
480.23	271.17
480.60	271.16
480.96	271.17
481.33	271.42
481.69	271.37
482.06	271.48
482.42	271.40
482.79	271.62
483.15	271.86
483.52	272.26
483.88	272.58
484.25	272.82
484.61	272.95
484.98	273.28
485.34	273.77
485.71	274.24
486.07	274.68
486.44	275.02
486.80	275.73
487.17	276.39
487.53	277.16
487.90	278.00
488.26	278.85
488.62	279.79
488.99	280.58
489.35	281.68
489.72	282.65
490.08	283.95
490.44	285.08
490.81	286.40
491.17	287.60
491.54	289.00
491.90	290.48
492.26	292.24
492.63	293.87
492.99	295.72
493.36	297.50
493.72	299.54
494.08	301.66
494.45	303.81
494.81	306.28
495.17	308.70
495.54	311.28
495.90	314.08
496.26	316.91
496.63	319.89
496.99	323.11
497.35	326.57
497.72	330.05
498.08	333.62
498.44	337.45
498.80	341.79
499.17	346.22
499.53	350.70
499.89	355.39
500.26	360.30
500.62	365.24
500.98	370.78
501.34	376.40
501.71	382.20
502.07	388.20
502.43	394.15
502.79	400.50
503.16	407.14
503.52	414.15
503.88	421.06
504.24	428.59
504.60	436.19
504.97	444.19
505.33	452.47
505.69	461.17
506.05	469.98
506.41	478.87
506.78	488.01
507.14	497.86
507.50	507.50
507.86	517.78
508.22	528.53
508.59	539.21
508.95	550.22
509.31	561.75
509.67	573.39
510.03	585.39
510.39	597.66
510.75	610.35
511.12	623.19
511.48	636.47
511.84	649.75
512.20	663.39
512.56	677.40
512.92	691.70
513.28	706.20
513.64	721.19
514.00	736.39
514.37	752.05
514.73	767.55
515.09	783.64
515.45	799.85
515.81	815.94
516.17	832.83
516.53	850.03
516.89	866.98
517.25	884.38
517.61	902.20
517.97	919.98
518.33	937.71
518.69	955.93
519.05	974.52
519.41	993.72
519.77	1013.29
520.13	1032.54
520.49	1051.46
520.85	1071.27
521.21	1090.85
521.57	1110.87
521.93	1130.17
522.29	1150.86
522.65	1170.90
523.01	1190.80
523.37	1211.02
523.73	1231.35
524.09	1251.52
524.45	1272.60
524.81	1293.63
525.17	1315.04
525.53	1336.86
525.89	1358.50
526.25	1380.27
526.61	1401.42
526.97	1422.70
527.33	1443.90
527.68	1465.82
528.04	1487.89
528.40	1509.68
528.76	1531.50
529.12	1553.15
529.48	1575.55
529.84	1596.12
530.20	1618.09
530.56	1640.94
530.91	1663.74
531.27	1685.77
531.63	1707.68
531.99	1729.34
532.35	1750.85
532.71	1771.72
533.07	1792.43
533.42	1813.27
533.78	1834.00
534.14	1855.21
534.50	1875.50
534.86	1896.00
535.21	1915.77
535.57	1936.55
535.93	1956.81
536.29	1977.39
536.65	1997.69
537.00	2017.66
537.36	2038.51
537.72	2057.82
538.08	2076.75
538.44	2095.14
538.79	2114.15
539.15	2132.63
539.51	2151.43
539.87	2170.50
540.22	2189.49
540.58	2208.95
540.94	2227.31
541.29	2245.18
541.65	2263.04
542.01	2281.28
542.37	2299.27
542.72	2316.86
543.08	2333.46
543.44	2350.29
543.79	2365.62
544.15	2381.75
544.51	2398.11
544.87	2413.34
545.22	2429.07
545.58	2443.91
545.94	2458.23
546.29	2472.45
546.65	2486.69
547.01	2500.55
547.36	2513.63
547.72	2526.40
548.07	2538.70
548.43	2551.11
548.79	2563.61
549.14	2575.68
549.50	2586.56
549.86	2597.07
550.21	2607.92
550.57	2618.94
550.92	2629.33
551.28	2639.77
551.64	2649.90
551.99	2659.70
552.35	2669.80
552.70	2679.76
553.06	2689.88
553.41	2700.01
553.77	2709.51
554.13	2719.12
554.48	2727.83
554.84	2736.59
555.19	2745.19
555.55	2753.14
555.90	2761.00
556.26	2768.56
556.61	2776.12
556.97	2783.79
557.32	2791.63
557.68	2798.90
558.03	2806.29
558.39	2812.96
558.74	2820.91
559.10	2827.50
559.45	2833.77
559.81	2841.00
560.16	2846.76
560.52	2852.16
560.87	2858.03
561.23	2862.76
561.58	2867.85
561.94	2872.81
562.29	2876.94
562.64	2881.16
563.00	2885.20
563.35	2890.43
563.71	2895.63
564.06	2900.59
564.42	2905.39
564.77	2909.48
565.12	2913.63
565.48	2917.01
565.83	2920.17
566.19	2922.93
566.54	2925.42
566.89	2927.02
567.25	2928.59
567.60	2931.55
567.96	2933.51
568.31	2934.85
568.66	2936.47
569.02	2937.58
569.37	2938.58
569.72	2940.09
570.08	2940.83
570.43	2941.68
570.78	2941.37
571.14	2940.37
571.49	2939.60
571.84	2939.82
572.20	2938.19
572.55	2936.42
572.90	2934.44
573.26	2933.48
573.61	2931.54
573.96	2929.08
574.31	2926.63
574.67	2922.67
575.02	2918.33
575.37	2915.18
575.72	2911.27
576.08	2908.02
576.43	2904.30
576.78	2900.60
577.13	2897.14
577.49	2893.39
577.84	2889.21
578.19	2884.94
578.54	2880.28
578.90	2874.77
579.25	2868.10
579.60	2862.48
579.95	2857.00
580.30	2850.77
580.66	2844.27
581.01	2837.59
581.36	2832.21
581.71	2827.25
582.06	2822.05
582.42	2816.24
582.77	2809.61
583.12	2803.21
583.47	2797.16
583.82	2791.32
584.17	2784.50
584.53	2777.41
584.88	2770.39
585.23	2763.06
585.58	2756.62
585.93	2750.04
586.28	2743.72
586.63	2737.66
586.98	2731.63
587.34	2725.33
587.69	2719.21
588.04	2712.52
588.39	2706.24
588.74	2697.69
589.09	2689.23
589.44	2680.59
589.79	2672.92
590.14	2665.83
590.49	2658.60
590.84	2650.54
591.19	2642.69
591.54	2633.49
591.89	2623.67
592.25	2615.11
592.60	2606.04
592.95	2596.11
593.30	2587.07
593.65	2577.30
594.00	2567.55
594.35	2558.86
594.70	2548.61
595.05	2539.41
595.40	2529.80
595.75	2519.80
596.10	2511.80
596.45	2503.69
596.80	2496.29
597.15	2488.28
597.50	2478.94
597.85	2470.40
598.19	2461.93
598.54	2453.50
598.89	2446.23
599.24	2439.30
599.59	2431.75
599.94	2423.93
600.29	2415.74
600.64	2406.80
600.99	2397.42
601.34	2388.89
601.69	2379.23
602.04	2370.91
602.39	2362.20
602.74	2354.22
603.08	2346.55
603.43	2338.08
603.78	2329.18
604.13	2319.91
604.48	2310.40
604.83	2301.53
605.18	2292.36
605.53	2282.65
605.87	2271.86
606.22	2262.00
606.57	2252.18
606.92	2242.14
607.27	2232.98
607.62	2224.31
607.96	2215.36
608.31	2207.31
608.66	2197.65
609.01	2187.67
609.36	2177.20
609.70	2166.08
610.05	2154.32
610.40	2143.52
610.75	2132.41
611.10	2121.55
611.44	2109.78
611.79	2099.56
612.14	2088.76
612.49	2077.04
612.83	2066.09
613.18	2055.62
613.53	2044.62
613.88	2033.19
614.22	2021.68
614.57	2010.28
614.92	1998.67
615.27	1988.15
615.61	1976.68
615.96	1965.99
616.31	1956.09
616.65	1947.01
617.00	1937.50
617.35	1928.13
617.70	1917.26
618.04	1906.79
618.39	1896.64
618.74	1887.17
619.08	1876.21
619.43	1866.52
619.78	1857.35
620.12	1847.49
620.47	1837.73
620.82	1827.52
621.16	1818.11
621.51	1808.81
621.85	1799.14
622.20	1788.90
622.55	1778.84
622.89	1769.59
623.24	1760.15
623.59	1750.77
623.93	1740.56
624.28	1730.69
624.62	1720.84
624.97	1711.92
625.32	1703.05
625.66	1693.71
626.01	1684.30
626.35	1674.54
626.70	1664.50
627.04	1655.10
627.39	1645.26
627.73	1635.19
628.08	1626.02
628.43	1616.05
628.77	1606.54
629.12	1596.62
629.46	1586.98
629.81	1576.42
630.15	1566.12
630.50	1555.87
630.84	1545.20
631.19	1534.80
631.53	1524.84
631.88	1514.84
632.22	1504.19
632.57	1494.33
632.91	1484.55
633.26	1474.30
633.60	1464.88
633.95	1455.61
634.29	1445.93
634.64	1436.80
634.98	1427.37
635.32	1418.37
635.67	1409.57
636.01	1400.05
636.36	1391.03
636.70	1382.64
637.05	1374.14
637.39	1365.87
637.73	1357.15
638.08	1349.25
638.42	1341.45
638.77	1333.08
639.11	1324.54
639.45	1316.51
639.80	1307.75
640.14	1299.15
640.49	1290.87
640.83	1282.20
641.17	1273.73
641.52	1265.26
641.86	1256.40
642.20	1248.41
642.55	1239.71
642.89	1231.52
643.23	1223.09
643.58	1215.30
643.92	1206.63
644.26	1198.30
644.61	1190.25
644.95	1182.40
645.29	1173.43
645.64	1164.60
645.98	1156.49
646.32	1148.60
646.66	1140.51
647.01	1132.29
647.35	1124.18
647.69	1116.46
648.04	1109.29
648.38	1101.08
648.72	1092.29
649.06	1084.33
649.41	1076.43
649.75	1068.10
650.09	1060.03
650.43	1052.27
650.78	1043.66
651.12	1035.98
651.46	1028.67
651.80	1020.61
652.14	1012.93
652.49	1005.46
652.83	998.25
653.17	990.44
653.51	982.72
653.85	975.03
654.20	967.59
654.54	959.95
654.88	952.13
655.22	943.80
655.56	936.24
655.90	929.57
656.25	922.69
656.59	915.30
656.93	908.52
657.27	901.39
657.61	894.15
657.95	887.59
658.29	880.79
658.64	873.47
658.98	866.24
659.32	858.92
659.66	852.34
660.00	845.53
660.34	839.04
660.68	832.45
661.02	825.74
661.36	819.67
661.70	813.59
662.05	807.97
662.39	802.23
662.73	796.30
663.07	790.53
663.41	784.66
663.75	778.96
664.09	773.25
664.43	767.42
664.77	761.97
665.11	756.21
665.45	750.42
665.79	744.89
666.13	739.51
666.47	734.20
666.81	728.39
667.15	722.59
667.49	717.34
667.83	712.30
668.17	707.13
668.51	701.53
668.85	696.31
669.19	690.97
669.53	685.83
669.87	680.62
670.21	675.46
670.55	670.27
670.89	665.46
671.23	660.72
671.57	656.04
671.91	651.33
672.25	646.68
672.58	642.10
672.92	637.71
673.26	633.57
673.60	629.30
673.94	625.25
674.28	621.40
674.62	617.35
674.96	613.07
675.30	609.07
675.64	605.25
675.97	601.23
676.31	597.33
676.65	593.53
676.99	590.00
677.33	586.01
677.67	582.09
678.01	578.22
678.34	574.37
678.68	570.60
679.02	566.75
679.36	563.17
679.70	559.58
680.04	555.78
680.37	552.06
680.71	548.50
681.05	545.06
681.39	541.58
681.73	538.03
682.06	534.80
682.40	531.78
682.74	528.38
683.08	524.88
683.42	521.41
683.75	518.27
684.09	514.86
684.43	511.71
684.77	508.83
685.10	505.60
685.44	502.38
685.78	499.39
686.12	496.41
686.45	493.35
686.79	490.23
687.13	487.32
687.46	484.12
687.80	481.18
688.14	478.15
688.48	475.17
688.81	472.27
689.15	469.46
689.49	466.51
689.82	463.60
690.16	461.04
690.50	458.57
690.83	455.77
691.17	453.00
691.51	450.48
691.84	447.88
692.18	445.45
692.52	442.96
692.85	440.42
693.19	437.98
693.52	435.70
693.86	433.39
694.20	430.88
694.53	428.66
694.87	426.17
695.21	423.70
695.54	421.40
695.88	418.77
696.21	416.13
696.55	413.74
696.88	411.53
697.22	409.20
697.56	407.06
697.89	404.85
698.23	402.71
698.56	400.49
698.90	398.33
699.23	395.90
699.57	393.87
699.90	391.70
700.24	389.60
700.58	387.31
700.91	385.32
701.25	383.66
701.58	381.77
701.92	380.01
702.25	378.25
702.59	376.41
702.92	374.89
703.26	373.25
703.59	371.41
703.93	369.94
704.26	368.36
704.60	366.50
704.93	364.80
705.26	363.05
705.60	361.47
705.93	359.89
706.27	358.62
706.60	357.12
706.94	355.62
707.27	353.99
707.61	352.60
707.94	351.11
708.27	349.50
708.61	347.80
708.94	346.21
709.28	344.80
709.61	343.48
709.94	342.10
710.28	340.91
710.61	339.70
710.95	338.17
711.28	336.90
711.61	335.48
711.95	334.03
712.28	332.75
712.61	331.32
712.95	329.96
713.28	328.69
713.61	327.35
713.95	326.06
714.28	324.94
714.61	323.74
714.95	322.60
715.28	321.39
715.61	320.40
715.95	319.33
716.28	318.22
716.61	317.01
716.95	315.89
717.28	314.75
717.61	313.54
717.94	312.45
718.28	311.15
718.61	310.25
718.94	309.32
719.27	308.44
719.61	307.62
719.94	306.70
720.27	305.66
720.60	304.74
720.94	303.89
721.27	303.03
721.60	302.07
721.93	301.14
722.27	300.36
722.60	299.56
722.93	298.78
723.26	298.10
723.59	297.32
723.93	296.62
724.26	295.82
724.59	295.23
724.92	294.56
725.25	293.86
725.59	293.13
725.92	292.40
726.25	291.64
726.58	290.94
726.91	290.26
727.24	289.58
727.57	288.88
727.91	288.18
728.24	287.56
728.57	286.95
728.90	286.41
729.23	285.53
729.56	285.03
729.89	284.47
730.22	283.70
730.55	283.01
730.89	282.33
731.22	281.63
731.55	280.92
731.88	280.29
732.21	279.77
732.54	279.10
732.87	278.54
733.20	278.00
733.53	277.41
733.86	276.91
734.19	276.32
734.52	275.90
734.85	275.44
735.18	274.96
735.51	274.55
735.84	273.99
736.17	273.61
736.50	272.99
736.83	272.66
737.16	272.13
737.49	271.73
737.82	271.22
738.15	270.90
738.48	270.45
738.81	269.97
739.14	269.49
739.47	269.08
739.80	268.60
740.13	268.25
740.46	267.74
740.79	267.23
741.12	266.78
741.45	266.37
741.78	265.97
742.11	265.51
742.44	265.01
742.77	264.60
743.10	264.23
743.43	263.72
743.75	263.15
744.08	263.07
744.41	262.81
744.74	262.44
745.07	261.99
745.40	261.67
745.73	261.30
746.06	260.88
746.39	260.52
746.71	260.14
747.04	259.73
747.37	259.50
747.70	259.13
748.03	258.79
748.36	258.44
748.68	257.86
749.01	257.41
749.34	257.05
749.67	256.69
750.00	256.31
750.33	256.12
750.65	255.68
750.98	255.11
751.31	254.61
751.64	254.36
751.97	254.09
752.29	253.71
752.62	253.39
752.95	253.10
753.28	252.74
753.60	252.40
753.93	252.16
754.26	251.73
754.59	251.39
754.91	251.10
755.24	250.77
755.57	250.59
755.90	250.37
756.22	250.08
756.55	249.70
756.88	249.34
757.20	248.97
757.53	248.75
757.86	248.48
758.19	248.30
758.51	248.00
758.84	247.72
759.17	247.50
759.49	247.29
759.82	247.24
760.15	247.06
760.47	246.87
760.80	246.55
761.13	246.48
761.45	246.34
761.78	246.15
762.11	245.84
762.43	245.59
762.76	245.30
763.08	245.07
763.41	244.99
763.74	244.88
764.06	244.64
764.39	244.45
764.71	244.24
765.04	244.00
765.37	243.79
765.69	243.60
766.02	243.38
766.34	243.22
766.67	243.02
767.00	242.81
767.32	242.70
767.65	242.66
767.97	242.43
768.30	242.29
768.62	242.17
768.95	242.06
769.27	241.95
769.60	241.89
769.92	241.75
770.25	241.58
770.57	241.40
770.90	241.32
771.22	241.20
771.55	241.15
771.87	241.01
772.20	240.89
772.52	240.93
772.85	241.09
773.17	240.89
773.50	240.61
773.82	240.62
774.15	240.52
774.47	240.29
774.80	240.12
775.12	239.97
775.45	239.76
775.77	239.64
776.09	239.61
776.42	239.49
776.74	239.46
777.07	239.35
777.39	239.32
777.72	239.18
778.04	239.10
778.36	238.92
778.69	238.81
779.01	238.74
779.33	238.49
779.66	238.12
779.98	238.04
780.31	237.99
780.63	237.89
780.95	237.80
781.28	237.62
781.60	237.63
781.92	237.62
782.25	237.59
782.57	237.50
782.89	237.35
783.22	237.37
783.54	237.21
783.86	237.15
784.19	237.02
784.51	236.98
784.83	236.90
785.16	236.83
785.48	236.84
785.80	236.86
786.12	236.79
786.45	236.70
786.77	236.75
787.09	236.70
787.42	236.61
787.74	236.49
788.06	236.51
788.38	236.40
788.71	236.27
789.03	236.25
789.35	236.22
789.67	236.13
789.99	235.94
790.32	235.81
790.64	235.77
790.96	235.89
791.28	235.80
791.61	235.70
791.93	235.55
792.25	235.49
792.57	235.47
792.89	235.30
793.21	235.22
793.54	235.03
793.86	234.90
794.18	234.85
794.50	234.74
794.82	234.71
795.14	234.71
795.47	234.67
795.79	234.57
796.11	234.45
796.43	234.45
796.75	234.43
797.07	234.45
797.39	234.34
797.71	234.16
798.04	234.04
798.36	233.96
798.68	233.91
799.00	233.78
799.32	233.62
799.64	233.62
799.96	233.63
800.28	233.49
800.60	233.39
800.92	233.32
801.24	233.30
801.56	233.25
801.89	233.13
802.21	233.00
802.53	232.89
802.85	232.80
803.17	232.81
803.49	232.65
803.81	232.59
804.13	232.58
804.45	232.42
804.77	232.40
805.09	232.36
805.41	232.39
805.73	232.30
806.05	232.11
806.37	232.11
806.69	232.00
807.01	232.01
807.33	232.01
807.65	231.88
807.97	231.83
808.28	231.76
808.60	231.73
808.92	231.72
809.24	231.85
809.56	231.88
809.88	231.78
810.20	231.80
810.52	231.70
810.84	231.61
811.16	231.61
811.48	231.65
811.80	231.67
812.12	231.63
812.43	231.62
812.75	231.67
813.07	231.62
813.39	231.56
813.71	231.48
814.03	231.50
814.35	231.52
814.67	231.57
814.98	231.52
815.30	231.44
815.62	231.47
815.94	231.30
816.26	231.30
816.58	231.21
816.89	231.18
817.21	231.14
817.53	231.13
817.85	231.12
818.17	231.05
818.48	231.00
818.80	230.89
819.12	230.89
819.44	230.90
819.76	230.93
820.07	230.96
820.39	231.09
820.71	231.06
821.03	231.07
821.34	231.00
821.66	231.09
821.98	231.11
822.30	231.19
822.61	231.27
822.93	231.24
823.25	231.25
823.57	231.24
823.88	231.33
824.20	231.36
824.52	231.48
824.83	231.44
825.15	231.35
825.47	231.46
825.79	231.54
826.10	231.42
826.42	231.35
826.74	231.43
827.05	231.42
827.37	231.42
827.69	231.36
828.00	231.30
828.32	231.20
828.64	231.15
828.95	231.12
829.27	231.04
829.58	231.02
829.90	230.92
830.22	230.98
830.53	230.84
830.85	230.72
831.17	230.53
831.48	230.59
831.80	230.66
832.11	230.58
832.43	230.44
832.75	230.50
833.06	230.62
833.38	230.45
833.69	230.41
834.01	230.34
834.32	230.39
834.64	230.34
834.96	230.33
835.27	230.36
835.59	230.22
835.90	230.12
836.22	230.09
836.53	230.16
836.85	230.07
837.16	230.30
837.48	230.25
837.79	230.28
838.11	230.20
838.42	230.14
838.74	230.05
839.05	230.04
839.37	230.06
839.68	229.81
840.00	229.90
840.31	229.82
840.63	229.85
840.94	229.71
841.26	229.71
841.57	229.61
841.88	229.53
842.20	229.52
842.51	229.58
842.83	229.56
843.14	229.64
843.46	229.65
843.77	229.46
844.08	229.41
844.40	229.43
844.71	229.32
845.03	229.24
845.34	229.22
845.65	229.20
845.97	229.09
846.28	229.12
846.60	229.00
846.91	228.97
847.22	228.83
847.54	228.85
847.85	228.77
848.16	228.80
848.48	228.77
848.79	228.83
849.10	228.79
849.42	228.74
849.73	228.61
850.04	228.50
850.36	228.41
850.67	228.52
850.98	228.47
851.30	228.55
851.61	228.56
851.92	228.60
852.23	228.63
852.55	228.65
852.86	228.50
853.17	228.55
853.49	228.49
853.80	228.60
854.11	228.60
854.42	228.71
854.74	228.63
855.05	228.63
855.36	228.48
855.67	228.45
855.99	228.51
856.30	228.78
856.61	228.88
856.92	228.90
857.23	228.96
857.55	228.94
857.86	229.01
858.17	229.05
858.48	229.09
858.79	229.06
859.11	229.10
859.42	229.29
859.73	229.29
860.04	229.39
860.35	229.29
860.66	229.31
860.98	229.34
861.29	229.42
861.60	229.49
861.91	229.61
862.22	229.63
862.53	229.64
862.84	229.38
863.16	229.45
863.47	229.45
863.78	229.42
864.09	229.43
864.40	229.43
864.71	229.51
865.02	229.52
865.33	229.51
865.64	229.47
865.95	229.51
866.27	229.67
866.58	229.67
866.89	229.77
867.20	229.76
867.51	229.70
867.82	229.65
868.13	229.70
868.44	229.64
868.75	229.80
869.06	229.76
869.37	229.82
869.68	229.73
869.99	229.81
870.30	229.82
870.61	229.87
870.92	229.81
871.23	229.75
871.54	229.79
871.85	229.86
872.16	229.96
872.47	229.83
872.78	229.73
873.09	229.74
873.40	229.71
873.71	229.72
874.02	229.77
874.33	229.82
874.64	229.68
874.95	229.73
875.26	229.61
875.56	229.54
875.87	229.43
876.18	229.45
876.49	229.63
876.80	229.63
877.11	229.60
877.42	229.49
877.73	229.42
878.04	229.30
878.35	229.26
878.66	229.13
878.96	229.14
879.27	229.05
879.58	229.04
879.89	228.98
880.20	228.97
880.51	228.89
880.82	228.85
881.12	228.87
881.43	228.72
881.74	228.58
882.05	228.67
882.36	228.78
882.67	228.76
882.97	228.53
883.28	228.55
883.59	228.44
883.90	228.51
884.21	228.56
884.51	228.58
884.82	228.53
885.13	228.52
885.44	228.59
885.74	228.59
886.05	228.60
886.36	228.58
886.67	228.51
886.98	228.55
887.28	228.59
887.59	228.58
887.90	228.60
888.20	228.60
888.51	228.54
888.82	228.38
889.13	228.32
889.43	228.51
889.74	228.48
890.05	228.57
890.35	228.49
890.66	228.49
890.97	228.55
891.28	228.50
891.58	228.57
891.89	228.49
892.20	228.50
892.50	228.50
892.81	228.58
893.12	228.69
893.42	228.74
893.73	228.75
894.04	228.84
894.34	228.92
894.65	229.03
894.95	229.10
895.26	229.17
895.57	229.31
895.87	229.08
896.18	229.06
896.48	229.07
896.79	229.16
897.10	229.15
897.40	229.10
897.71	229.17
898.01	229.10
898.32	229.10
898.63	229.17
898.93	229.20
899.24	229.25
899.54	229.22
899.85	229.20
900.15	229.24
900.46	229.23
900.76	229.20
901.07	229.19
901.38	229.19
901.68	229.25
901.99	229.18
902.29	229.23
902.60	229.23
902.90	229.25
903.21	229.31
903.51	229.21
903.82	229.25
904.12	229.28
904.43	229.41
904.73	229.46
905.03	229.40
905.34	229.62
905.64	229.47
905.95	229.43
906.25	229.35
906.56	229.37
906.86	229.39
907.17	229.36
907.47	229.36
907.77	229.31
908.08	229.21
908.38	229.19
908.69	229.23
908.99	229.26
909.30	229.30
909.60	229.23
909.90	229.30
910.21	229.29
910.51	229.22
910.81	229.16
911.12	229.12
911.42	229.13
911.73	228.88
912.03	228.95
912.33	228.99
912.64	228.98
912.94	228.87
913.24	228.69
913.55	228.70
913.85	228.64
914.15	228.69
914.46	228.72
914.76	228.70
915.06	228.63
915.37	228.64
915.67	228.56
915.97	228.42
916.27	228.40
916.58	228.41
916.88	228.39
917.18	228.23
917.49	228.34
917.79	228.28
918.09	228.35
918.39	228.39
918.70	228.35
919.00	228.28
919.30	228.34
919.60	228.41
919.91	228.47
920.21	228.50
920.51	228.37
920.81	228.34
921.12	228.32
921.42	228.32
921.72	228.20
922.02	228.27
922.32	228.40
922.63	228.36
922.93	228.42
923.23	228.45
923.53	228.53
923.83	228.27
924.13	228.42
924.44	228.33
924.74	228.27
925.04	228.24
925.34	228.32
925.64	228.30
925.94	228.35
926.24	228.37
926.55	228.34
926.85	228.37
927.15	228.40
927.45	228.52
927.75	228.47
928.05	228.51
928.35	228.48
928.65	228.51
928.95	228.56
929.26	228.48
929.56	228.51
929.86	228.54
930.16	228.74
930.46	228.65
930.76	228.64
931.06	228.60
931.36	228.60
931.66	228.65
931.96	228.62
932.26	228.54
932.56	228.55
932.86	228.51
933.16	228.52
933.46	228.51
933.76	228.51
934.06	228.65
934.36	228.67
934.66	228.63
934.96	228.65
935.26	228.66
935.56	228.70
935.86	228.66
936.16	228.63
936.46	228.59
936.76	228.59
937.06	228.61
937.36	228.60
937.66	228.64
937.96	228.64
938.26	228.68
938.56	228.75
938.86	228.73
939.16	228.90
939.46	228.97
939.76	228.94
940.06	228.91
940.35	228.81
940.65	228.76
940.95	228.80
941.25	228.76
941.55	228.74
941.85	228.70
942.15	228.69
942.45	228.69
942.75	228.70
943.04	228.60
943.34	228.59
943.64	228.63
943.94	228.62
944.24	228.60
944.54	228.59
944.84	228.50
945.13	228.36
945.43	228.18
945.73	228.16
946.03	228.16
946.33	228.13
946.62	227.99
946.92	228.05
947.22	228.10
947.52	228.10
947.82	228.10
948.11	228.12
948.41	228.09
948.71	228.00
949.01	228.00
949.31	228.01
949.60	228.00
949.90	227.99
950.20	227.92
950.50	227.82
950.79	227.74
951.09	227.76
951.39	227.85
951.69	227.83
951.98	227.85
952.28	227.83
952.58	227.76
952.87	227.85
953.17	227.79
953.47	227.68
953.76	227.55
954.06	227.45
954.36	227.33
954.66	227.30
954.95	227.40
955.25	227.38
955.55	227.38
955.84	227.37
956.14	227.35
956.44	227.40
956.73	227.30
957.03	227.42
957.32	227.41
957.62	227.38
957.92	227.54
958.21	227.48
958.51	227.62
958.81	227.65
959.10	227.64
959.40	227.70
959.69	227.70
959.99	227.77
960.29	227.81
960.58	227.86
960.88	228.01
961.17	228.01
961.47	228.03
961.76	228.01
962.06	227.95
962.36	227.87
962.65	227.84
962.95	227.97
963.24	227.77
963.54	227.80
963.83	227.83
964.13	227.84
964.42	227.79
964.72	227.62
965.01	227.60
965.31	227.65
965.60	227.62
965.90	227.83
966.19	227.76
966.49	227.93
966.78	227.93
967.08	227.92
967.37	227.97
967.67	228.03
967.96	228.23
968.26	228.36
968.55	228.47
968.85	228.56
969.14	228.56
969.43	228.74
969.73	228.67
970.02	228.63
970.32	228.57
970.61	228.68
970.91	228.80
971.20	228.86
971.49	228.87
971.79	228.90
972.08	228.69
972.38	228.85
972.67	228.83
972.96	228.90
973.26	228.98
973.55	229.08
973.85	229.02
974.14	228.92
974.43	228.97
974.73	229.02
975.02	229.00
975.31	229.05
975.61	229.04
975.90	229.11
976.19	229.16
976.49	229.21
976.78	229.26
977.07	229.31
977.37	229.39
977.66	229.36
977.95	229.35
978.24	229.47
978.54	229.43
978.83	229.30
979.12	229.26
979.42	229.16
979.71	229.14
980.00	229.12
980.29	229.05
980.59	228.96
980.88	228.89
981.17	228.84
981.46	228.74
981.76	228.79
982.05	228.84
982.34	228.87
982.63	228.87
982.93	228.75
983.22	228.71
983.51	228.67
983.80	228.70
984.09	228.67
984.39	228.55
984.68	228.54
984.97	228.45
985.26	228.54
985.55	228.58
985.85	228.48
986.14	228.47
986.43	228.52
986.72	228.38
987.01	228.36
987.30	228.34
987.59	228.44
987.89	228.35
988.18	228.29
988.47	228.17
988.76	228.13
989.05	228.15
989.34	227.98
989.63	227.99
989.92	227.89
990.22	227.86
990.51	227.81
990.80	227.78
991.09	227.83
991.38	227.78
991.67	227.58
991.96	227.38
992.25	227.48
992.54	227.41
992.83	227.60
993.12	227.52
993.41	227.45
993.70	227.40
993.99	227.43
994.28	227.38
994.58	227.44
994.87	227.37
995.16	227.30
995.45	227.40
995.74	227.26
996.03	227.35
996.32	227.39
996.61	227.41
996.90	227.38
997.19	227.44
997.48	227.42
997.77	227.51
998.06	227.60
998.34	227.54
998.63	227.58
998.92	227.43
999.21	227.46
999.50	227.57
999.79	227.57
1000.08	227.50
1000.37	227.62
1000.66	227.58
1000.95	227.67
1001.24	227.75
1001.53	227.77
1001.82	227.76
1002.11	227.72
1002.40	227.80
1002.68	227.94
1002.97	228.16
1003.26	228.11
1003.55	228.14
1003.84	228.22
1004.13	228.34
1004.42	228.29
1004.71	228.31
1004.99	228.41
1005.28	228.53
1005.57	228.59
1005.86	228.70
1006.15	228.82
1006.44	228.77
1006.72	228.84
1007.01	228.81
1007.30	228.89
1007.59	228.89
1007.88	228.90
1008.17	228.98
1008.45	229.02
1008.74	228.96
1009.03	228.84
1009.32	228.95
1009.60	228.90
1009.89	228.88
1010.18	228.88
1010.47	228.97
1010.76	228.98
1011.04	228.96
1011.33	228.92
1011.62	228.93
1011.91	228.88
1012.19	228.83
1012.48	228.86
1012.77	228.77
1013.05	228.80
1013.34	228.75
1013.63	228.80
1013.92	228.85
1014.20	228.80
1014.49	228.70
1014.78	228.70
1015.06	228.70
1015.35	228.69
1015.64	228.73
1015.92	228.72
1016.21	228.70
1016.50	228.57
1016.78	228.62
1017.07	228.66
1017.36	228.71
1017.64	228.70
1017.93	228.78
1018.22	228.71
1018.50	228.70
1018.79	228.74
1019.08	228.61
1019.36	228.61
1019.65	228.52
1019.93	228.61
1020.22	228.64
1020.51	228.71
1020.79	228.68
1021.08	226.80
1021.36	228.20
1021.65	228.00
1021.94	226.20
1022.22	229.40
1022.51	227.70
1022.79	229.80
1023.08	228.80
1023.36	230.00
1023.65	227.80
>>>>>End Processed Spectral Data<<<<<
