SpectraSuite Data File
++++++++++++++++++++++++++++++++++++
Date: Fri Feb 01 14:35:47 EST 2013
User: group
Dark Spectrum Present: No
Reference Spectrum Present: No
Number of Sampled Component Spectra: 1
Spectrometers: USB2E7196
Integration Time (usec): 70000 (USB2E7196)
Spectra Averaged: 10 (USB2E7196)
Boxcar Smoothing: 10 (USB2E7196)
Correct for Electrical Dark: No (USB2E7196)
Strobe/Lamp Enabled: No (USB2E7196)
Correct for Detector Non-linearity: No (USB2E7196)
Correct for Stray Light: No (USB2E7196)
Number of Pixels in Processed Spectrum: 2048
>>>>>Begin Processed Spectral Data<<<<<
339.09	0.00
339.48	217.50
339.86	219.90
340.24	218.50
340.63	220.70
341.01	225.20
341.39	224.30
341.78	224.30
342.16	225.20
342.54	226.40
342.93	214.72
343.31	225.57
343.69	226.10
344.07	226.55
344.46	227.03
344.84	227.44
345.22	227.50
345.60	227.64
345.99	227.88
346.37	228.03
346.75	228.11
347.13	228.18
347.52	228.22
347.90	228.29
348.28	228.28
348.66	228.43
349.05	228.50
349.43	228.50
349.81	228.51
350.19	228.44
350.57	228.39
350.96	228.50
351.34	228.50
351.72	228.43
352.10	228.49
352.48	228.55
352.87	228.50
353.25	228.64
353.63	228.80
354.01	228.86
354.39	228.80
354.77	228.77
355.15	228.86
355.54	228.89
355.92	228.90
356.30	228.98
356.68	229.13
357.06	229.11
357.44	229.20
357.82	229.29
358.20	229.46
358.58	229.46
358.97	229.47
359.35	229.58
359.73	229.67
360.11	229.60
360.49	229.50
360.87	229.59
361.25	229.70
361.63	229.68
362.01	229.72
362.39	229.85
362.77	230.00
363.15	230.04
363.53	230.07
363.91	230.13
364.29	230.12
364.67	229.90
365.05	229.94
365.43	229.88
365.81	229.87
366.19	229.86
366.57	230.02
366.95	230.07
367.33	230.00
367.71	229.97
368.09	230.06
368.47	230.11
368.85	229.96
369.23	229.90
369.61	229.87
369.99	229.77
370.37	229.77
370.75	229.81
371.13	229.66
371.51	229.62
371.89	229.49
372.27	229.38
372.65	229.41
373.03	229.35
373.41	229.34
373.78	229.31
374.16	229.13
374.54	228.94
374.92	228.81
375.30	228.86
375.68	228.81
376.06	228.65
376.44	228.54
376.82	228.62
377.19	228.51
377.57	228.41
377.95	228.31
378.33	228.17
378.71	227.95
379.09	227.93
379.47	227.81
379.84	227.84
380.22	227.78
380.60	227.64
380.98	227.51
381.36	227.42
381.73	227.23
382.11	227.29
382.49	227.23
382.87	227.15
383.25	227.11
383.62	227.35
384.00	227.35
384.38	227.36
384.76	227.30
385.13	227.29
385.51	227.22
385.89	227.15
386.27	227.06
386.64	227.06
387.02	227.07
387.40	227.07
387.78	226.97
388.15	226.96
388.53	226.92
388.91	226.91
389.29	226.97
389.66	227.00
390.04	226.98
390.42	226.94
390.79	227.00
391.17	226.86
391.55	226.49
391.92	226.47
392.30	226.47
392.68	226.42
393.05	226.49
393.43	226.61
393.81	226.71
394.18	226.79
394.56	226.86
394.94	226.96
395.31	226.93
395.69	227.06
396.06	227.18
396.44	227.29
396.82	227.44
397.19	227.62
397.57	227.72
397.95	227.64
398.32	227.74
398.70	227.84
399.07	228.05
399.45	228.20
399.82	228.30
400.20	228.42
400.58	228.54
400.95	228.62
401.33	228.69
401.70	228.90
402.08	229.01
402.45	229.21
402.83	229.36
403.20	229.61
403.58	229.77
403.95	229.91
404.33	230.04
404.71	230.30
405.08	230.57
405.46	230.80
405.83	231.20
406.21	231.55
406.58	231.85
406.96	232.19
407.33	232.52
407.70	232.94
408.08	233.57
408.45	234.10
408.83	234.57
409.20	234.99
409.58	235.30
409.95	235.97
410.33	236.51
410.70	237.10
411.08	237.75
411.45	238.40
411.82	239.12
412.20	240.06
412.57	240.92
412.95	241.54
413.32	242.46
413.69	243.37
414.07	244.28
414.44	245.36
414.82	246.39
415.19	247.68
415.56	248.94
415.94	250.12
416.31	251.49
416.68	252.93
417.06	254.68
417.43	256.47
417.81	258.34
418.18	260.19
418.55	262.26
418.93	264.44
419.30	266.55
419.67	268.80
420.04	271.08
420.42	273.62
420.79	276.56
421.16	279.29
421.54	282.30
421.91	285.44
422.28	288.63
422.66	292.00
423.03	295.33
423.40	298.71
423.77	302.37
424.15	306.03
424.52	309.86
424.89	314.07
425.26	318.09
425.64	321.89
426.01	326.10
426.38	330.39
426.75	334.80
427.13	339.37
427.50	344.29
427.87	349.29
428.24	354.16
428.61	358.96
428.99	364.32
429.36	370.03
429.73	375.60
430.10	381.05
430.47	386.67
430.85	392.58
431.22	398.78
431.59	405.31
431.96	411.57
432.33	418.47
432.70	425.04
433.08	432.91
433.45	440.35
433.82	447.68
434.19	456.09
434.56	464.13
434.93	471.74
435.30	479.35
435.68	487.87
436.05	496.36
436.42	504.48
436.79	511.93
437.16	519.84
437.53	528.36
437.90	537.00
438.27	545.37
438.64	554.09
439.01	562.11
439.38	569.20
439.75	576.21
440.13	584.29
440.50	591.75
440.87	597.89
441.24	604.34
441.61	611.61
441.98	616.90
442.35	623.12
442.72	629.80
443.09	636.16
443.46	640.21
443.83	643.15
444.20	645.85
444.57	649.71
444.94	651.95
445.31	654.15
445.68	656.08
446.05	657.60
446.42	657.41
446.79	657.30
447.16	657.39
447.53	657.66
447.90	655.45
448.27	653.55
448.64	650.07
449.01	648.06
449.37	643.22
449.74	638.56
450.11	632.97
450.48	626.48
450.85	620.00
451.22	614.65
451.59	609.29
451.96	604.37
452.33	597.37
452.70	591.16
453.07	583.50
453.43	575.89
453.80	568.35
454.17	561.23
454.54	554.57
454.91	546.87
455.28	539.62
455.65	532.79
456.02	525.64
456.38	519.68
456.75	512.16
457.12	505.99
457.49	499.85
457.86	493.66
458.23	488.70
458.59	482.93
458.96	476.77
459.33	471.56
459.70	466.30
460.07	462.17
460.43	457.41
460.80	452.91
461.17	448.81
461.54	444.66
461.91	440.68
462.27	436.43
462.64	433.10
463.01	429.10
463.38	425.30
463.74	421.55
464.11	418.30
464.48	415.21
464.85	412.10
465.21	409.71
465.58	407.16
465.95	403.92
466.32	401.28
466.68	398.76
467.05	396.23
467.42	393.73
467.78	390.91
468.15	388.14
468.52	386.34
468.88	383.83
469.25	381.40
469.62	379.60
469.98	377.59
470.35	375.68
470.72	373.90
471.08	372.12
471.45	370.60
471.82	368.97
472.18	367.13
472.55	365.65
472.92	363.92
473.28	362.50
473.65	361.04
474.02	359.70
474.38	358.58
474.75	357.55
475.11	356.39
475.48	355.47
475.85	354.77
476.21	353.77
476.58	353.04
476.94	352.45
477.31	351.76
477.67	351.22
478.04	350.63
478.41	350.22
478.77	349.85
479.14	349.31
479.50	348.93
479.87	348.84
480.23	348.68
480.60	348.25
480.96	348.06
481.33	348.14
481.69	348.04
482.06	347.95
482.42	347.79
482.79	347.78
483.15	347.94
483.52	348.31
483.88	348.49
484.25	348.92
484.61	349.30
484.98	349.57
485.34	350.17
485.71	350.67
486.07	351.22
486.44	351.70
486.80	352.45
487.17	353.11
487.53	353.90
487.90	354.89
488.26	356.12
488.62	357.18
488.99	358.14
489.35	359.22
489.72	360.40
490.08	361.66
490.44	362.96
490.81	364.35
491.17	365.53
491.54	367.03
491.90	368.18
492.26	369.68
492.63	371.32
492.99	372.70
493.36	374.38
493.72	376.32
494.08	378.06
494.45	379.82
494.81	381.81
495.17	383.80
495.54	385.72
495.90	387.60
496.26	389.73
496.63	391.84
496.99	394.05
497.35	396.41
497.72	398.71
498.08	400.99
498.44	403.09
498.80	405.48
499.17	407.70
499.53	410.20
499.89	412.49
500.26	414.62
500.62	416.92
500.98	419.41
501.34	421.48
501.71	423.80
502.07	426.15
502.43	428.43
502.79	430.43
503.16	432.71
503.52	434.88
503.88	436.86
504.24	439.09
504.60	441.32
504.97	443.34
505.33	445.26
505.69	447.33
506.05	449.58
506.41	451.57
506.78	453.46
507.14	455.31
507.50	457.32
507.86	459.32
508.22	461.03
508.59	462.55
508.95	464.42
509.31	466.30
509.67	468.01
510.03	469.72
510.39	471.51
510.75	473.06
511.12	474.58
511.48	476.12
511.84	477.33
512.20	478.41
512.56	479.71
512.92	481.17
513.28	482.44
513.64	483.43
514.00	484.40
514.37	485.65
514.73	486.67
515.09	487.34
515.45	488.23
515.81	489.24
516.17	490.16
516.53	490.79
516.89	491.25
517.25	491.84
517.61	492.40
517.97	493.12
518.33	493.39
518.69	493.98
519.05	494.50
519.41	495.28
519.77	496.07
520.13	496.67
520.49	497.02
520.85	497.50
521.21	498.09
521.57	498.72
521.93	499.02
522.29	499.61
522.65	500.41
523.01	500.82
523.37	501.13
523.73	501.58
524.09	502.08
524.45	502.95
524.81	503.68
525.17	504.44
525.53	505.13
525.89	505.99
526.25	506.80
526.61	507.57
526.97	508.51
527.33	509.38
527.68	510.41
528.04	511.40
528.40	512.28
528.76	513.30
529.12	514.60
529.48	515.92
529.84	517.00
530.20	518.35
530.56	520.15
530.91	521.92
531.27	523.53
531.63	525.17
531.99	526.66
532.35	528.38
532.71	530.06
533.07	531.94
533.42	534.11
533.78	536.02
534.14	538.09
534.50	540.05
534.86	542.03
535.21	543.80
535.57	546.12
535.93	548.56
536.29	551.09
536.65	553.48
537.00	555.80
537.36	558.32
537.72	560.77
538.08	563.17
538.44	565.60
538.79	568.45
539.15	571.18
539.51	574.13
539.87	577.15
540.22	580.13
540.58	583.14
540.94	586.08
541.29	589.15
541.65	592.13
542.01	595.11
542.37	598.37
542.72	601.52
543.08	604.86
543.44	608.13
543.79	611.10
544.15	614.12
544.51	617.83
544.87	621.34
545.22	624.82
545.58	628.22
545.94	631.61
546.29	634.90
546.65	638.45
547.01	641.61
547.36	644.71
547.72	648.09
548.07	651.36
548.43	654.65
548.79	658.09
549.14	661.53
549.50	665.19
549.86	668.45
550.21	672.31
550.57	675.76
550.92	679.23
551.28	682.92
551.64	686.64
551.99	690.22
552.35	693.88
552.70	697.39
553.06	701.05
553.41	704.80
553.77	708.57
554.13	712.31
554.48	716.12
554.84	720.02
555.19	723.69
555.55	727.57
555.90	731.23
556.26	735.25
556.61	739.01
556.97	742.46
557.32	746.32
557.68	749.67
558.03	753.26
558.39	756.70
558.74	760.40
559.10	764.09
559.45	767.47
559.81	771.08
560.16	774.68
560.52	778.00
560.87	781.62
561.23	784.94
561.58	788.41
561.94	791.74
562.29	794.98
562.64	798.14
563.00	801.32
563.35	805.04
563.71	808.50
564.06	811.73
564.42	815.10
564.77	818.32
565.12	821.78
565.48	825.20
565.83	828.50
566.19	831.70
566.54	834.62
566.89	837.50
567.25	840.38
567.60	843.54
567.96	846.70
568.31	849.69
568.66	852.35
569.02	854.85
569.37	857.51
569.72	859.93
570.08	862.43
570.43	865.00
570.78	867.07
571.14	868.79
571.49	871.18
571.84	873.78
572.20	876.02
572.55	877.80
572.90	879.65
573.26	881.75
573.61	883.44
573.96	885.29
574.31	886.90
574.67	888.19
575.02	889.40
575.37	890.57
575.72	891.49
576.08	892.94
576.43	894.06
576.78	895.21
577.13	896.52
577.49	897.84
577.84	898.71
578.19	899.67
578.54	900.50
578.90	901.30
579.25	901.33
579.60	901.63
579.95	902.35
580.30	902.72
580.66	902.97
581.01	903.11
581.36	903.17
581.71	903.39
582.06	904.03
582.42	903.87
582.77	904.05
583.12	904.10
583.47	903.97
583.82	904.15
584.17	903.94
584.53	904.08
584.88	903.67
585.23	903.51
585.58	903.36
585.93	903.22
586.28	903.00
586.63	903.04
586.98	902.95
587.34	902.77
587.69	902.34
588.04	902.03
588.39	901.99
588.74	901.20
589.09	900.69
589.44	899.78
589.79	899.40
590.14	898.84
590.49	898.29
590.84	897.62
591.19	896.95
591.54	895.96
591.89	894.26
592.25	893.75
592.60	892.50
592.95	891.03
593.30	889.82
593.65	888.36
594.00	886.77
594.35	885.95
594.70	884.25
595.05	883.06
595.40	881.27
595.75	879.47
596.10	878.66
596.45	877.43
596.80	876.01
597.15	874.73
597.50	872.88
597.85	871.46
598.19	870.22
598.54	869.01
598.89	867.62
599.24	866.89
599.59	865.22
599.94	863.75
600.29	862.56
600.64	861.08
600.99	859.34
601.34	857.68
601.69	855.23
602.04	853.64
602.39	851.75
602.74	850.50
603.08	849.03
603.43	847.18
603.78	845.41
604.13	843.64
604.48	841.70
604.83	840.17
605.18	838.41
605.53	836.10
605.87	833.60
606.22	831.96
606.57	829.60
606.92	827.56
607.27	825.69
607.62	823.70
607.96	821.55
608.31	819.64
608.66	817.59
609.01	815.55
609.36	813.16
609.70	810.51
610.05	807.89
610.40	805.38
610.75	802.93
611.10	800.27
611.44	797.48
611.79	794.97
612.14	792.29
612.49	789.40
612.83	786.70
613.18	783.97
613.53	781.24
613.88	778.57
614.22	775.79
614.57	772.81
614.92	769.79
615.27	767.10
615.61	764.23
615.96	761.54
616.31	758.89
616.65	756.62
617.00	754.26
617.35	751.63
617.70	748.73
618.04	745.90
618.39	743.30
618.74	740.90
619.08	738.04
619.43	735.29
619.78	732.56
620.12	730.10
620.47	727.57
620.82	724.75
621.16	722.00
621.51	719.48
621.85	716.94
622.20	714.20
622.55	711.52
622.89	709.01
623.24	706.41
623.59	703.92
623.93	701.30
624.28	698.79
624.62	696.35
624.97	694.04
625.32	691.40
625.66	689.09
626.01	686.64
626.35	684.20
626.70	681.62
627.04	679.07
627.39	676.15
627.73	673.70
628.08	671.06
628.43	668.48
628.77	665.70
629.12	663.00
629.46	660.14
629.81	657.30
630.15	654.57
630.50	651.81
630.84	649.00
631.19	645.80
631.53	642.90
631.88	639.88
632.22	636.82
632.57	634.11
632.91	631.14
633.26	628.48
633.60	625.53
633.95	623.10
634.29	620.57
634.64	618.43
634.98	615.46
635.32	612.88
635.67	610.38
636.01	607.85
636.36	605.46
636.70	603.47
637.05	601.19
637.39	598.75
637.73	596.48
638.08	594.20
638.42	592.25
638.77	589.91
639.11	587.45
639.45	585.22
639.80	582.70
640.14	580.35
640.49	577.93
640.83	575.74
641.17	573.35
641.52	571.03
641.86	568.40
642.20	566.33
642.55	564.04
642.89	561.70
643.23	559.31
643.58	557.00
643.92	554.35
644.26	551.95
644.61	549.68
644.95	547.34
645.29	544.67
645.64	542.14
645.98	540.00
646.32	537.75
646.66	535.48
647.01	533.27
647.35	531.01
647.69	528.68
648.04	526.51
648.38	524.14
648.72	521.45
649.06	519.10
649.41	516.61
649.75	514.14
650.09	511.81
650.43	509.40
650.78	506.80
651.12	504.68
651.46	502.44
651.80	500.28
652.14	497.97
652.49	495.97
652.83	493.75
653.17	491.29
653.51	488.93
653.85	486.66
654.20	484.30
654.54	481.78
654.88	479.23
655.22	476.80
655.56	474.31
655.90	472.45
656.25	470.35
656.59	468.44
656.93	466.36
657.27	464.29
657.61	461.96
657.95	459.88
658.29	457.72
658.64	455.56
658.98	453.18
659.32	450.93
659.66	448.66
660.00	446.60
660.34	444.53
660.68	442.58
661.02	440.47
661.36	438.77
661.70	437.00
662.05	435.18
662.39	433.65
662.73	431.94
663.07	430.16
663.41	428.20
663.75	426.20
664.09	424.49
664.43	422.62
664.77	421.02
665.11	419.41
665.45	417.54
665.79	415.98
666.13	414.40
666.47	412.81
666.81	411.32
667.15	409.50
667.49	407.89
667.83	406.33
668.17	404.69
668.51	402.89
668.85	401.23
669.19	399.85
669.53	397.90
669.87	396.26
670.21	394.61
670.55	393.13
670.89	391.88
671.23	390.40
671.57	388.87
671.91	387.50
672.25	385.93
672.58	384.59
672.92	383.02
673.26	381.67
673.60	380.31
673.94	378.81
674.28	377.62
674.62	376.37
674.96	375.13
675.30	373.92
675.64	372.77
675.97	371.60
676.31	370.30
676.65	369.23
676.99	368.12
677.33	366.80
677.67	365.58
678.01	364.10
678.34	362.91
678.68	361.72
679.02	360.29
679.36	359.11
679.70	357.97
680.04	356.73
680.37	355.42
680.71	354.18
681.05	353.14
681.39	351.88
681.73	350.67
682.06	349.64
682.40	348.55
682.74	347.33
683.08	346.22
683.42	345.11
683.75	343.98
684.09	342.78
684.43	341.64
684.77	340.57
685.10	339.32
685.44	338.13
685.78	336.93
686.12	336.05
686.45	334.98
686.79	333.90
687.13	333.05
687.46	331.94
687.80	330.95
688.14	329.79
688.48	328.79
688.81	327.73
689.15	326.60
689.49	325.59
689.82	324.62
690.16	323.50
690.50	322.52
690.83	321.54
691.17	320.70
691.51	319.85
691.84	318.89
692.18	318.06
692.52	317.10
692.85	316.33
693.19	315.46
693.52	314.54
693.86	313.57
694.20	312.56
694.53	311.71
694.87	310.77
695.21	309.88
695.54	308.99
695.88	308.10
696.21	307.13
696.55	306.33
696.88	305.40
697.22	304.56
697.56	303.72
697.89	302.85
698.23	301.93
698.56	300.98
698.90	300.22
699.23	299.41
699.57	298.63
699.90	297.84
700.24	297.07
700.58	296.29
700.91	295.54
701.25	294.83
701.58	294.23
701.92	293.60
702.25	292.87
702.59	292.23
702.92	291.60
703.26	291.05
703.59	290.33
703.93	289.96
704.26	289.41
704.60	288.67
704.93	288.06
705.26	287.40
705.60	286.90
705.93	286.31
706.27	285.80
706.60	285.28
706.94	284.80
707.27	284.07
707.61	283.54
707.94	283.03
708.27	282.47
708.61	281.89
708.94	281.39
709.28	280.95
709.61	280.43
709.94	280.00
710.28	279.39
710.61	278.84
710.95	278.03
711.28	277.57
711.61	277.15
711.95	276.66
712.28	276.08
712.61	275.54
712.95	275.07
713.28	274.61
713.61	274.14
713.95	273.53
714.28	273.15
714.61	272.74
714.95	272.26
715.28	271.64
715.61	271.17
715.95	270.73
716.28	270.38
716.61	269.88
716.95	269.41
717.28	268.93
717.61	268.50
717.94	268.00
718.28	267.50
718.61	267.07
718.94	266.57
719.27	266.36
719.61	266.04
719.94	265.58
720.27	265.10
720.60	264.64
720.94	264.26
721.27	263.81
721.60	263.43
721.93	263.13
722.27	262.96
722.60	262.60
722.93	262.13
723.26	261.65
723.59	261.31
723.93	260.92
724.26	260.62
724.59	260.31
724.92	260.13
725.25	259.77
725.59	259.51
725.92	259.32
726.25	258.88
726.58	258.52
726.91	258.22
727.24	257.93
727.57	257.62
727.91	257.22
728.24	256.93
728.57	256.60
728.90	256.30
729.23	255.88
729.56	255.75
729.89	255.53
730.22	255.24
730.55	254.91
730.89	254.69
731.22	254.44
731.55	254.17
731.88	253.89
732.21	253.59
732.54	253.21
732.87	252.87
733.20	252.60
733.53	252.31
733.86	252.01
734.19	251.67
734.52	251.52
734.85	251.53
735.18	251.38
735.51	251.19
735.84	250.88
736.17	250.71
736.50	250.34
736.83	250.37
737.16	250.14
737.49	249.83
737.82	249.51
738.15	249.32
738.48	249.03
738.81	248.90
739.14	248.69
739.47	248.42
739.80	248.25
740.13	248.12
740.46	247.91
740.79	247.66
741.12	247.46
741.45	247.10
741.78	246.77
742.11	246.60
742.44	246.37
742.77	246.21
743.10	246.00
743.43	245.77
743.75	245.34
744.08	245.47
744.41	245.42
744.74	245.26
745.07	245.11
745.40	245.05
745.73	244.88
746.06	244.74
746.39	244.71
746.71	244.52
747.04	244.36
747.37	244.23
747.70	244.18
748.03	244.01
748.36	243.90
748.68	243.76
749.01	243.53
749.34	243.40
749.67	243.33
750.00	243.26
750.33	243.25
750.65	243.14
750.98	242.72
751.31	242.61
751.64	242.48
751.97	242.40
752.29	242.25
752.62	242.08
752.95	242.04
753.28	241.84
753.60	241.70
753.93	241.58
754.26	241.39
754.59	241.23
754.91	241.17
755.24	241.08
755.57	240.94
755.90	240.89
756.22	240.75
756.55	240.64
756.88	240.55
757.20	240.27
757.53	240.13
757.86	239.98
758.19	239.89
758.51	239.80
758.84	239.58
759.17	239.52
759.49	239.41
759.82	239.44
760.15	239.32
760.47	239.17
760.80	239.02
761.13	239.10
761.45	239.12
761.78	239.04
762.11	239.02
762.43	239.00
762.76	238.90
763.08	238.87
763.41	238.71
763.74	238.52
764.06	238.46
764.39	238.36
764.71	238.31
765.04	238.19
765.37	238.06
765.69	237.94
766.02	237.79
766.34	237.62
766.67	237.30
767.00	237.30
767.32	237.42
767.65	237.45
767.97	237.27
768.30	237.13
768.62	237.07
768.95	236.94
769.27	236.90
769.60	236.81
769.92	236.66
770.25	236.49
770.57	236.34
770.90	236.21
771.22	236.02
771.55	235.89
771.87	235.86
772.20	235.75
772.52	235.82
772.85	235.99
773.17	235.84
773.50	235.73
773.82	235.47
774.15	235.17
774.47	234.88
774.80	234.79
775.12	234.63
775.45	234.53
775.77	234.38
776.09	234.20
776.42	234.07
776.74	233.97
777.07	233.91
777.39	233.80
777.72	233.78
778.04	233.78
778.36	233.58
778.69	233.48
779.01	233.38
779.33	233.20
779.66	232.76
779.98	232.66
780.31	232.60
780.63	232.67
780.95	232.70
781.28	232.69
781.60	232.65
781.92	232.51
782.25	232.32
782.57	232.23
782.89	232.12
783.22	232.04
783.54	231.99
783.86	231.94
784.19	231.91
784.51	231.83
784.83	231.72
785.16	231.78
785.48	231.74
785.80	231.72
786.12	231.68
786.45	231.83
786.77	231.92
787.09	231.79
787.42	231.63
787.74	231.55
788.06	231.54
788.38	231.35
788.71	231.47
789.03	231.57
789.35	231.58
789.67	231.54
789.99	231.56
790.32	231.49
790.64	231.50
790.96	231.73
791.28	231.71
791.61	231.62
791.93	231.63
792.25	231.54
792.57	231.64
792.89	231.63
793.21	231.51
793.54	231.50
793.86	231.55
794.18	231.60
794.50	231.59
794.82	231.57
795.14	231.73
795.47	231.54
795.79	231.50
796.11	231.49
796.43	231.49
796.75	231.43
797.07	231.48
797.39	231.39
797.71	231.21
798.04	231.16
798.36	231.31
798.68	231.32
799.00	231.28
799.32	231.23
799.64	231.16
799.96	231.17
800.28	231.18
800.60	231.21
800.92	231.27
801.24	231.29
801.56	231.37
801.89	231.12
802.21	231.33
802.53	231.15
802.85	231.13
803.17	231.17
803.49	231.18
803.81	231.03
804.13	231.04
804.45	230.86
804.77	230.81
805.09	230.65
805.41	230.57
805.73	230.53
806.05	230.34
806.37	230.33
806.69	230.29
807.01	230.18
807.33	230.07
807.65	229.98
807.97	230.01
808.28	229.94
808.60	229.98
808.92	229.74
809.24	229.91
809.56	229.86
809.88	229.79
810.20	229.70
810.52	229.76
810.84	229.66
811.16	229.76
811.48	229.73
811.80	229.85
812.12	229.83
812.43	229.82
812.75	229.80
813.07	229.76
813.39	229.73
813.71	229.68
814.03	229.72
814.35	229.64
814.67	229.54
814.98	229.45
815.30	229.49
815.62	229.50
815.94	229.37
816.26	229.45
816.58	229.37
816.89	229.41
817.21	229.36
817.53	229.43
817.85	229.34
818.17	229.21
818.48	228.97
818.80	228.99
819.12	228.97
819.44	229.00
819.76	228.94
820.07	228.89
820.39	228.92
820.71	228.85
821.03	228.70
821.34	228.58
821.66	228.54
821.98	228.54
822.30	228.53
822.61	228.63
822.93	228.50
823.25	228.43
823.57	228.39
823.88	228.46
824.20	228.39
824.52	228.45
824.83	228.53
825.15	228.65
825.47	228.56
825.79	228.66
826.10	228.70
826.42	228.73
826.74	228.74
827.05	228.70
827.37	228.77
827.69	228.93
828.00	229.00
828.32	228.99
828.64	228.90
828.95	229.01
829.27	229.00
829.58	229.00
829.90	229.09
830.22	229.09
830.53	229.06
830.85	229.09
831.17	229.13
831.48	229.20
831.80	229.30
832.11	229.30
832.43	229.19
832.75	229.12
833.06	229.23
833.38	229.27
833.69	229.35
834.01	229.30
834.32	229.30
834.64	229.30
834.96	229.41
835.27	229.48
835.59	229.43
835.90	229.35
836.22	229.40
836.53	229.35
836.85	229.30
837.16	229.49
837.48	229.52
837.79	229.55
838.11	229.53
838.42	229.46
838.74	229.55
839.05	229.64
839.37	229.66
839.68	229.53
840.00	229.41
840.31	229.47
840.63	229.60
840.94	229.69
841.26	229.67
841.57	229.63
841.88	229.66
842.20	229.62
842.51	229.63
842.83	229.63
843.14	229.81
843.46	229.81
843.77	229.75
844.08	229.70
844.40	229.64
844.71	229.60
845.03	229.58
845.34	229.63
845.65	229.49
845.97	229.53
846.28	229.54
846.60	229.59
846.91	229.49
847.22	229.30
847.54	229.22
847.85	229.20
848.16	229.10
848.48	229.03
848.79	229.15
849.10	229.11
849.42	229.08
849.73	228.87
850.04	228.89
850.36	228.65
850.67	228.68
850.98	228.60
851.30	228.61
851.61	228.59
851.92	228.50
852.23	228.63
852.55	228.54
852.86	228.64
853.17	228.67
853.49	228.75
853.80	228.74
854.11	228.72
854.42	228.66
854.74	228.71
855.05	228.68
855.36	228.51
855.67	228.50
855.99	228.43
856.30	228.76
856.61	228.77
856.92	228.79
857.23	228.72
857.55	228.70
857.86	228.73
858.17	228.69
858.48	228.62
858.79	228.54
859.11	228.59
859.42	228.54
859.73	228.47
860.04	228.36
860.35	228.39
860.66	228.28
860.98	228.40
861.29	228.40
861.60	228.39
861.91	228.45
862.22	228.52
862.53	228.56
862.84	228.21
863.16	228.23
863.47	228.19
863.78	228.17
864.09	228.27
864.40	228.25
864.71	228.28
865.02	228.33
865.33	228.36
865.64	228.32
865.95	228.24
866.27	228.46
866.58	228.51
866.89	228.55
867.20	228.70
867.51	228.57
867.82	228.56
868.13	228.63
868.44	228.70
868.75	228.70
869.06	228.83
869.37	229.02
869.68	228.98
869.99	229.14
870.30	229.24
870.61	229.22
870.92	229.38
871.23	229.35
871.54	229.41
871.85	229.53
872.16	229.59
872.47	229.63
872.78	229.62
873.09	229.64
873.40	229.68
873.71	229.65
874.02	229.69
874.33	229.70
874.64	229.73
874.95	229.74
875.26	229.67
875.56	229.58
875.87	229.50
876.18	229.51
876.49	229.66
876.80	229.69
877.11	229.71
877.42	229.59
877.73	229.69
878.04	229.67
878.35	229.61
878.66	229.73
878.96	229.75
879.27	229.56
879.58	229.49
879.89	229.41
880.20	229.52
880.51	229.64
880.82	229.61
881.12	229.59
881.43	229.43
881.74	229.42
882.05	229.39
882.36	229.40
882.67	229.46
882.97	229.23
883.28	229.28
883.59	229.22
883.90	229.27
884.21	229.28
884.51	229.30
884.82	229.32
885.13	229.19
885.44	229.13
885.74	229.22
886.05	229.21
886.36	229.12
886.67	228.94
886.98	228.96
887.28	228.97
887.59	229.01
887.90	229.07
888.20	229.10
888.51	229.09
888.82	228.99
889.13	228.89
889.43	229.11
889.74	228.95
890.05	228.87
890.35	228.75
890.66	228.63
890.97	228.66
891.28	228.47
891.58	228.49
891.89	228.44
892.20	228.37
892.50	228.32
892.81	228.39
893.12	228.38
893.42	228.21
893.73	228.19
894.04	228.08
894.34	227.99
894.65	227.95
894.95	227.87
895.26	227.85
895.57	227.90
895.87	227.58
896.18	227.62
896.48	227.64
896.79	227.60
897.10	227.68
897.40	227.54
897.71	227.50
898.01	227.44
898.32	227.47
898.63	227.45
898.93	227.46
899.24	227.46
899.54	227.41
899.85	227.37
900.15	227.35
900.46	227.44
900.76	227.55
901.07	227.50
901.38	227.44
901.68	227.40
901.99	227.41
902.29	227.53
902.60	227.48
902.90	227.46
903.21	227.49
903.51	227.49
903.82	227.56
904.12	227.70
904.43	227.64
904.73	227.62
905.03	227.67
905.34	227.93
905.64	227.84
905.95	227.99
906.25	228.10
906.56	228.11
906.86	228.00
907.17	227.94
907.47	228.03
907.77	228.16
908.08	228.33
908.38	228.33
908.69	228.31
908.99	228.42
909.30	228.42
909.60	228.38
909.90	228.42
910.21	228.44
910.51	228.38
910.81	228.47
911.12	228.52
911.42	228.45
911.73	228.25
912.03	228.40
912.33	228.36
912.64	228.30
912.94	228.33
913.24	228.41
913.55	228.50
913.85	228.54
914.15	228.70
914.46	228.71
914.76	228.65
915.06	228.61
915.37	228.65
915.67	228.66
915.97	228.71
916.27	228.65
916.58	228.55
916.88	228.56
917.18	228.59
917.49	228.79
917.79	228.96
918.09	229.01
918.39	229.04
918.70	229.04
919.00	229.03
919.30	229.10
919.60	229.02
919.91	229.01
920.21	228.92
920.51	228.72
920.81	228.63
921.12	228.69
921.42	228.66
921.72	228.62
922.02	228.63
922.32	228.67
922.63	228.63
922.93	228.80
923.23	228.78
923.53	228.74
923.83	228.46
924.13	228.35
924.44	228.23
924.74	228.18
925.04	228.16
925.34	228.10
925.64	227.96
925.94	227.91
926.24	227.92
926.55	227.95
926.85	227.98
927.15	227.90
927.45	227.97
927.75	227.93
928.05	227.83
928.35	227.81
928.65	227.83
928.95	227.90
929.26	227.76
929.56	227.80
929.86	227.76
930.16	227.77
930.46	227.72
930.76	227.78
931.06	227.73
931.36	227.69
931.66	227.80
931.96	227.80
932.26	227.87
932.56	227.86
932.86	227.84
933.16	227.85
933.46	227.90
933.76	227.83
934.06	227.89
934.36	227.95
934.66	227.92
934.96	227.92
935.26	227.92
935.56	227.94
935.86	227.98
936.16	227.99
936.46	227.98
936.76	227.92
937.06	227.94
937.36	227.99
937.66	227.95
937.96	228.00
938.26	227.99
938.56	228.10
938.86	228.08
939.16	228.14
939.46	228.22
939.76	228.19
940.06	228.20
940.35	228.17
940.65	228.11
940.95	228.14
941.25	228.07
941.55	228.10
941.85	228.06
942.15	228.03
942.45	228.04
942.75	228.13
943.04	228.33
943.34	228.33
943.64	228.23
943.94	228.29
944.24	228.25
944.54	228.33
944.84	228.25
945.13	228.26
945.43	228.28
945.73	228.15
946.03	228.18
946.33	228.18
946.62	228.26
946.92	228.33
947.22	228.30
947.52	228.39
947.82	228.36
948.11	228.37
948.41	228.46
948.71	228.43
949.01	228.40
949.31	228.33
949.60	228.36
949.90	228.53
950.20	228.50
950.50	228.58
950.79	228.56
951.09	228.65
951.39	228.62
951.69	228.52
951.98	228.59
952.28	228.66
952.58	228.64
952.87	228.60
953.17	228.63
953.47	228.69
953.76	228.59
954.06	228.50
954.36	228.52
954.66	228.39
954.95	228.48
955.25	228.56
955.55	228.54
955.84	228.47
956.14	228.36
956.44	228.40
956.73	228.21
957.03	228.27
957.32	228.16
957.62	228.16
957.92	228.17
958.21	228.22
958.51	228.34
958.81	228.41
959.10	228.37
959.40	228.33
959.69	228.24
959.99	228.39
960.29	228.37
960.58	228.30
960.88	228.41
961.17	228.32
961.47	228.26
961.76	228.23
962.06	228.28
962.36	228.33
962.65	228.24
962.95	228.39
963.24	228.27
963.54	228.32
963.83	228.27
964.13	228.33
964.42	228.28
964.72	228.16
965.01	228.02
965.31	228.08
965.60	227.94
965.90	228.15
966.19	228.10
966.49	228.09
966.78	228.08
967.08	227.98
967.37	227.99
967.67	227.95
967.96	227.87
968.26	227.83
968.55	227.78
968.85	227.86
969.14	227.82
969.43	227.84
969.73	227.77
970.02	227.69
970.32	227.63
970.61	227.63
970.91	227.49
971.20	227.46
971.49	227.36
971.79	227.45
972.08	227.20
972.38	227.14
972.67	227.22
972.96	227.27
973.26	227.23
973.55	227.29
973.85	227.28
974.14	227.38
974.43	227.37
974.73	227.34
975.02	227.32
975.31	227.28
975.61	227.29
975.90	227.30
976.19	227.42
976.49	227.39
976.78	227.36
977.07	227.39
977.37	227.52
977.66	227.59
977.95	227.54
978.24	227.56
978.54	227.60
978.83	227.58
979.12	227.63
979.42	227.59
979.71	227.62
980.00	227.60
980.29	227.61
980.59	227.58
980.88	227.62
981.17	227.64
981.46	227.74
981.76	227.75
982.05	227.74
982.34	227.63
982.63	227.68
982.93	227.79
983.22	227.92
983.51	227.90
983.80	227.97
984.09	228.11
984.39	228.13
984.68	228.12
984.97	228.16
985.26	228.17
985.55	228.27
985.85	228.30
986.14	228.41
986.43	228.41
986.72	228.46
987.01	228.51
987.30	228.58
987.59	228.59
987.89	228.69
988.18	228.75
988.47	228.94
988.76	229.01
989.05	228.98
989.34	229.07
989.63	229.20
989.92	229.25
990.22	229.10
990.51	229.18
990.80	229.21
991.09	229.20
991.38	229.16
991.67	229.22
991.96	229.15
992.25	229.16
992.54	229.18
992.83	229.20
993.12	229.15
993.41	229.06
993.70	229.07
993.99	229.03
994.28	229.07
994.58	228.98
994.87	228.89
995.16	228.90
995.45	228.74
995.74	228.52
996.03	228.50
996.32	228.61
996.61	228.66
996.90	228.64
997.19	228.59
997.48	228.57
997.77	228.48
998.06	228.49
998.34	228.34
998.63	228.38
998.92	228.30
999.21	228.33
999.50	228.41
999.79	228.32
1000.08	228.31
1000.37	228.28
1000.66	228.24
1000.95	228.27
1001.24	228.29
1001.53	228.31
1001.82	228.40
1002.11	228.28
1002.40	228.19
1002.68	228.18
1002.97	228.24
1003.26	228.26
1003.55	228.16
1003.84	228.16
1004.13	228.12
1004.42	228.20
1004.71	228.11
1004.99	228.07
1005.28	228.16
1005.57	228.13
1005.86	228.09
1006.15	227.95
1006.44	227.88
1006.72	227.88
1007.01	227.89
1007.30	227.82
1007.59	227.80
1007.88	227.70
1008.17	227.81
1008.45	227.83
1008.74	227.73
1009.03	227.67
1009.32	227.56
1009.60	227.67
1009.89	227.71
1010.18	227.68
1010.47	227.53
1010.76	227.56
1011.04	227.58
1011.33	227.40
1011.62	227.34
1011.91	227.41
1012.19	227.49
1012.48	227.52
1012.77	227.51
1013.05	227.67
1013.34	227.78
1013.63	227.73
1013.92	227.72
1014.20	227.68
1014.49	227.60
1014.78	227.73
1015.06	227.67
1015.35	227.70
1015.64	227.62
1015.92	227.59
1016.21	227.68
1016.50	227.91
1016.78	227.84
1017.07	227.90
1017.36	227.93
1017.64	227.94
1017.93	227.88
1018.22	227.89
1018.50	227.93
1018.79	227.99
1019.08	227.80
1019.36	227.74
1019.65	227.86
1019.93	228.09
1020.22	228.09
1020.51	228.32
1020.79	228.23
1021.08	227.70
1021.36	228.30
1021.65	228.60
1021.94	227.70
1022.22	229.40
1022.51	229.40
1022.79	231.60
1023.08	228.20
1023.36	230.90
1023.65	227.40
>>>>>End Processed Spectral Data<<<<<
