SpectraSuite Data File
++++++++++++++++++++++++++++++++++++
Date: Fri Feb 01 14:37:22 EST 2013
User: group
Dark Spectrum Present: No
Reference Spectrum Present: No
Number of Sampled Component Spectra: 1
Spectrometers: USB2E7196
Integration Time (usec): 70000 (USB2E7196)
Spectra Averaged: 10 (USB2E7196)
Boxcar Smoothing: 10 (USB2E7196)
Correct for Electrical Dark: No (USB2E7196)
Strobe/Lamp Enabled: No (USB2E7196)
Correct for Detector Non-linearity: No (USB2E7196)
Correct for Stray Light: No (USB2E7196)
Number of Pixels in Processed Spectrum: 2048
>>>>>Begin Processed Spectral Data<<<<<
339.09	0.00
339.48	217.20
339.86	218.00
340.24	218.30
340.63	219.80
341.01	224.80
341.39	222.70
341.78	223.60
342.16	227.80
342.54	225.10
342.93	215.02
343.31	225.90
343.69	226.47
344.07	226.90
344.46	227.39
344.84	227.75
345.22	227.87
345.60	228.18
345.99	228.34
346.37	228.33
346.75	228.40
347.13	228.36
347.52	228.34
347.90	228.45
348.28	228.47
348.66	228.50
349.05	228.43
349.43	228.45
349.81	228.42
350.19	228.41
350.57	228.41
350.96	228.43
351.34	228.43
351.72	228.40
352.10	228.43
352.48	228.48
352.87	228.55
353.25	228.61
353.63	228.60
354.01	228.71
354.39	228.78
354.77	228.95
355.15	229.09
355.54	229.01
355.92	229.00
356.30	229.15
356.68	229.26
357.06	229.24
357.44	229.18
357.82	229.21
358.20	229.27
358.58	229.40
358.97	229.40
359.35	229.51
359.73	229.58
360.11	229.58
360.49	229.62
360.87	229.63
361.25	229.77
361.63	229.80
362.01	229.75
362.39	229.74
362.77	229.70
363.15	229.66
363.53	229.78
363.91	229.82
364.29	229.81
364.67	229.67
365.05	229.73
365.43	229.72
365.81	229.75
366.19	229.82
366.57	229.80
366.95	229.80
367.33	229.66
367.71	229.74
368.09	229.84
368.47	229.66
368.85	229.66
369.23	229.58
369.61	229.52
369.99	229.58
370.37	229.52
370.75	229.52
371.13	229.50
371.51	229.39
371.89	229.31
372.27	229.23
372.65	229.19
373.03	229.12
373.41	229.20
373.78	229.08
374.16	228.93
374.54	228.86
374.92	228.77
375.30	228.79
375.68	228.66
376.06	228.64
376.44	228.66
376.82	228.58
377.19	228.49
377.57	228.38
377.95	228.27
378.33	228.30
378.71	228.22
379.09	228.17
379.47	228.14
379.84	228.02
380.22	227.94
380.60	227.86
380.98	227.83
381.36	227.74
381.73	227.62
382.11	227.60
382.49	227.59
382.87	227.43
383.25	227.37
383.62	227.46
384.00	227.45
384.38	227.42
384.76	227.42
385.13	227.49
385.51	227.47
385.89	227.44
386.27	227.40
386.64	227.31
387.02	227.21
387.40	227.17
387.78	227.08
388.15	227.01
388.53	227.03
388.91	226.96
389.29	226.85
389.66	226.90
390.04	226.86
390.42	226.92
390.79	227.03
391.17	227.04
391.55	226.80
391.92	226.67
392.30	226.60
392.68	226.57
393.05	226.49
393.43	226.57
393.81	226.64
394.18	226.52
394.56	226.59
394.94	226.67
395.31	226.68
395.69	226.83
396.06	226.89
396.44	226.86
396.82	226.82
397.19	227.04
397.57	227.02
397.95	227.08
398.32	227.03
398.70	227.11
399.07	227.18
399.45	227.26
399.82	227.25
400.20	227.43
400.58	227.56
400.95	227.72
401.33	227.75
401.70	227.94
402.08	228.16
402.45	228.30
402.83	228.51
403.20	228.74
403.58	228.91
403.95	229.19
404.33	229.43
404.71	229.70
405.08	229.95
405.46	230.26
405.83	230.45
406.21	230.59
406.58	230.78
406.96	231.01
407.33	231.33
407.70	231.71
408.08	232.20
408.45	232.50
408.83	232.75
409.20	233.17
409.58	233.43
409.95	233.85
410.33	234.20
410.70	234.46
411.08	234.89
411.45	235.36
411.82	235.73
412.20	236.28
412.57	236.95
412.95	237.36
413.32	237.94
413.69	238.57
414.07	239.32
414.44	240.15
414.82	241.01
415.19	241.89
415.56	242.84
415.94	243.62
416.31	244.63
416.68	245.62
417.06	246.78
417.43	247.86
417.81	249.11
418.18	250.47
418.55	251.91
418.93	253.41
419.30	254.77
419.67	256.41
420.04	258.02
420.42	259.62
420.79	261.75
421.16	263.69
421.54	265.86
421.91	267.89
422.28	270.06
422.66	272.34
423.03	274.64
423.40	276.92
423.77	279.49
424.15	282.06
424.52	284.93
424.89	287.68
425.26	290.41
425.64	293.13
426.01	296.10
426.38	299.18
426.75	302.09
427.13	305.40
427.50	308.66
427.87	312.10
428.24	315.68
428.61	318.89
428.99	322.44
429.36	326.18
429.73	330.20
430.10	333.96
430.47	337.86
430.85	341.79
431.22	346.14
431.59	350.66
431.96	354.90
432.33	359.53
432.70	364.10
433.08	369.62
433.45	374.61
433.82	379.50
434.19	385.02
434.56	390.59
434.93	395.72
435.30	400.89
435.68	406.68
436.05	412.30
436.42	417.86
436.79	423.04
437.16	428.73
437.53	434.39
437.90	440.17
438.27	445.59
438.64	451.59
439.01	457.02
439.38	461.71
439.75	466.36
440.13	471.66
440.50	476.76
440.87	480.85
441.24	485.22
441.61	490.27
441.98	493.92
442.35	498.06
442.72	502.35
443.09	506.54
443.46	509.24
443.83	511.05
444.20	512.87
444.57	515.24
444.94	516.53
445.31	517.95
445.68	519.24
446.05	520.22
446.42	520.17
446.79	519.98
447.16	519.71
447.53	520.00
447.90	518.45
448.27	517.12
448.64	514.61
449.01	513.15
449.37	509.69
449.74	506.42
450.11	502.76
450.48	498.50
450.85	494.10
451.22	490.26
451.59	486.77
451.96	483.15
452.33	478.41
452.70	474.07
453.07	468.83
453.43	463.45
453.80	458.40
454.17	453.24
454.54	448.48
454.91	443.38
455.28	438.28
455.65	433.46
456.02	428.79
456.38	424.77
456.75	419.47
457.12	415.24
457.49	411.01
457.86	406.74
458.23	403.21
458.59	399.43
458.96	395.37
459.33	391.74
459.70	388.23
460.07	385.31
460.43	381.99
460.80	378.95
461.17	376.18
461.54	373.23
461.91	370.54
462.27	367.59
462.64	365.29
463.01	362.64
463.38	360.17
463.74	357.30
464.11	355.00
464.48	353.12
464.85	350.90
465.21	349.23
465.58	347.42
465.95	345.30
466.32	343.32
466.68	341.50
467.05	339.58
467.42	337.84
467.78	336.01
468.15	334.15
468.52	332.86
468.88	331.17
469.25	329.56
469.62	328.34
469.98	327.09
470.35	325.83
470.72	324.39
471.08	322.97
471.45	321.90
471.82	320.71
472.18	319.35
472.55	318.38
472.92	317.16
473.28	316.03
473.65	314.85
474.02	313.84
474.38	313.16
474.75	312.49
475.11	311.70
475.48	310.88
475.85	310.35
476.21	309.57
476.58	309.04
476.94	308.61
477.31	308.04
477.67	307.46
478.04	306.81
478.41	306.49
478.77	306.33
479.14	305.76
479.50	305.46
479.87	305.24
480.23	304.96
480.60	304.61
480.96	304.45
481.33	304.43
481.69	304.41
482.06	304.18
482.42	304.02
482.79	303.94
483.15	303.96
483.52	303.94
483.88	303.82
484.25	303.83
484.61	303.82
484.98	303.87
485.34	304.03
485.71	304.32
486.07	304.43
486.44	304.54
486.80	304.78
487.17	304.99
487.53	305.34
487.90	305.74
488.26	306.24
488.62	306.68
488.99	307.02
489.35	307.28
489.72	307.65
490.08	308.16
490.44	308.50
490.81	309.03
491.17	309.43
491.54	310.06
491.90	310.66
492.26	311.19
492.63	311.87
492.99	312.53
493.36	313.24
493.72	314.00
494.08	314.64
494.45	315.37
494.81	316.18
495.17	316.80
495.54	317.61
495.90	318.39
496.26	319.11
496.63	319.90
496.99	320.72
497.35	321.55
497.72	322.33
498.08	323.26
498.44	324.12
498.80	325.13
499.17	325.88
499.53	326.62
499.89	327.59
500.26	328.23
500.62	329.05
500.98	329.75
501.34	330.45
501.71	331.10
502.07	331.85
502.43	332.53
502.79	333.14
503.16	333.75
503.52	334.37
503.88	334.99
504.24	335.49
504.60	336.10
504.97	336.56
505.33	337.14
505.69	337.64
506.05	338.09
506.41	338.48
506.78	339.08
507.14	339.43
507.50	339.72
507.86	340.07
508.22	340.32
508.59	340.57
508.95	340.88
509.31	341.18
509.67	341.44
510.03	341.71
510.39	341.99
510.75	342.11
511.12	342.30
511.48	342.36
511.84	342.59
512.20	342.67
512.56	342.88
512.92	342.82
513.28	342.85
513.64	342.99
514.00	343.08
514.37	342.90
514.73	343.00
515.09	342.97
515.45	342.96
515.81	342.95
516.17	343.02
516.53	343.04
516.89	343.07
517.25	343.24
517.61	343.23
517.97	343.34
518.33	343.41
518.69	343.53
519.05	343.70
519.41	343.84
519.77	344.29
520.13	344.61
520.49	345.00
520.85	345.42
521.21	345.95
521.57	346.47
521.93	347.14
522.29	347.70
522.65	348.40
523.01	349.17
523.37	349.92
523.73	350.66
524.09	351.60
524.45	352.54
524.81	353.36
525.17	354.65
525.53	355.70
525.89	356.91
526.25	358.25
526.61	359.58
526.97	361.00
527.33	362.30
527.68	364.03
528.04	365.72
528.40	367.28
528.76	368.92
529.12	370.70
529.48	372.55
529.84	374.50
530.20	376.65
530.56	378.91
530.91	381.19
531.27	383.59
531.63	385.91
531.99	388.40
532.35	390.91
532.71	393.23
533.07	396.08
533.42	398.98
533.78	401.65
534.14	404.62
534.50	407.47
534.86	410.65
535.21	413.53
535.57	416.77
535.93	420.08
536.29	423.39
536.65	426.82
537.00	430.24
537.36	433.78
537.72	437.28
538.08	440.81
538.44	444.47
538.79	448.19
539.15	452.12
539.51	455.97
539.87	459.94
540.22	463.98
540.58	468.09
540.94	472.00
541.29	476.10
541.65	480.31
542.01	484.75
542.37	488.95
542.72	493.29
543.08	497.60
543.44	502.07
543.79	506.29
544.15	510.83
544.51	515.55
544.87	520.11
545.22	524.65
545.58	529.12
545.94	533.53
546.29	538.22
546.65	542.77
547.01	547.38
547.36	552.10
547.72	556.78
548.07	561.48
548.43	566.28
548.79	570.96
549.14	575.37
549.50	579.96
549.86	584.42
550.21	589.08
550.57	593.78
550.92	598.37
551.28	603.20
551.64	607.61
551.99	612.12
552.35	616.62
552.70	621.30
553.06	626.18
553.41	631.15
553.77	635.75
554.13	640.34
554.48	645.26
554.84	650.01
555.19	654.56
555.55	659.14
555.90	663.42
556.26	668.06
556.61	672.65
556.97	677.28
557.32	682.07
557.68	686.77
558.03	691.37
558.39	695.86
558.74	700.52
559.10	705.17
559.45	709.75
559.81	714.50
560.16	718.83
560.52	722.98
560.87	727.50
561.23	731.68
561.58	736.26
561.94	740.36
562.29	744.51
562.64	748.79
563.00	752.76
563.35	757.28
563.71	761.74
564.06	766.11
564.42	770.38
564.77	774.53
565.12	778.70
565.48	782.73
565.83	786.63
566.19	790.51
566.54	794.27
566.89	798.09
567.25	802.00
567.60	805.90
567.96	809.89
568.31	813.29
568.66	816.70
569.02	819.87
569.37	823.08
569.72	826.43
570.08	829.80
570.43	833.20
570.78	836.37
571.14	839.13
571.49	842.00
571.84	844.81
572.20	847.61
572.55	850.14
572.90	852.63
573.26	855.60
573.61	857.98
573.96	860.28
574.31	862.37
574.67	863.82
575.02	865.90
575.37	867.86
575.72	869.40
576.08	871.49
576.43	873.15
576.78	875.17
577.13	877.06
577.49	878.71
577.84	880.00
578.19	881.47
578.54	883.01
578.90	884.15
579.25	884.92
579.60	885.99
579.95	886.82
580.30	887.69
580.66	888.30
581.01	889.13
581.36	890.01
581.71	890.88
582.06	892.00
582.42	892.26
582.77	892.72
583.12	893.49
583.47	894.37
583.82	894.98
584.17	894.97
584.53	895.36
584.88	895.46
585.23	895.87
585.58	896.15
585.93	896.12
586.28	896.76
586.63	897.53
586.98	897.70
587.34	898.05
587.69	898.32
588.04	898.45
588.39	898.48
588.74	898.17
589.09	897.92
589.44	897.48
589.79	897.45
590.14	897.37
590.49	897.20
590.84	896.42
591.19	896.30
591.54	895.61
591.89	894.68
592.25	894.38
592.60	893.36
592.95	892.42
593.30	891.65
593.65	890.42
594.00	889.07
594.35	888.65
594.70	887.21
595.05	886.15
595.40	884.83
595.75	883.61
596.10	882.71
596.45	881.91
596.80	881.19
597.15	880.24
597.50	879.04
597.85	878.25
598.19	877.37
598.54	876.23
598.89	875.71
599.24	874.98
599.59	873.52
599.94	872.58
600.29	871.51
600.64	870.27
600.99	868.88
601.34	867.77
601.69	865.57
602.04	864.64
602.39	863.28
602.74	862.25
603.08	861.20
603.43	860.10
603.78	858.69
604.13	857.26
604.48	855.67
604.83	854.00
605.18	852.19
605.53	850.17
605.87	848.06
606.22	846.25
606.57	844.00
606.92	842.29
607.27	840.74
607.62	838.98
607.96	837.49
608.31	835.88
608.66	834.19
609.01	832.44
609.36	830.21
609.70	827.88
610.05	825.26
610.40	822.93
610.75	820.49
611.10	818.03
611.44	815.33
611.79	813.11
612.14	810.99
612.49	808.14
612.83	805.73
613.18	803.35
613.53	800.70
613.88	798.22
614.22	795.57
614.57	792.61
614.92	789.73
615.27	787.04
615.61	784.42
615.96	781.61
616.31	779.04
616.65	776.72
617.00	774.40
617.35	771.92
617.70	769.20
618.04	766.55
618.39	763.71
618.74	761.42
619.08	758.58
619.43	755.95
619.78	753.71
620.12	751.25
620.47	748.55
620.82	745.86
621.16	743.47
621.51	740.99
621.85	738.55
622.20	735.84
622.55	733.16
622.89	730.46
623.24	727.82
623.59	725.23
623.93	722.48
624.28	719.72
624.62	717.47
624.97	714.94
625.32	712.50
625.66	710.32
626.01	707.82
626.35	705.65
626.70	703.00
627.04	700.60
627.39	697.91
627.73	695.51
628.08	693.11
628.43	690.44
628.77	687.92
629.12	685.36
629.46	682.82
629.81	679.98
630.15	677.43
630.50	674.90
630.84	671.77
631.19	669.00
631.53	666.32
631.88	663.43
632.22	660.56
632.57	657.92
632.91	654.98
633.26	651.97
633.60	649.01
633.95	646.40
634.29	643.61
634.64	641.14
634.98	638.45
635.32	636.08
635.67	633.48
636.01	631.00
636.36	628.43
636.70	626.04
637.05	623.77
637.39	621.24
637.73	618.77
638.08	616.82
638.42	614.63
638.77	612.41
639.11	609.94
639.45	607.55
639.80	604.92
640.14	602.62
640.49	600.39
640.83	597.81
641.17	595.40
641.52	592.82
641.86	590.32
642.20	588.06
642.55	585.30
642.89	583.01
643.23	580.49
643.58	578.03
643.92	575.49
644.26	572.99
644.61	570.70
644.95	568.34
645.29	565.65
645.64	562.82
645.98	560.34
646.32	557.97
646.66	555.50
647.01	552.91
647.35	550.45
647.69	547.87
648.04	545.60
648.38	542.80
648.72	540.28
649.06	537.65
649.41	535.13
649.75	532.63
650.09	529.88
650.43	527.35
650.78	524.99
651.12	522.52
651.46	520.06
651.80	517.57
652.14	515.07
652.49	512.80
652.83	510.57
653.17	507.96
653.51	505.40
653.85	502.95
654.20	500.65
654.54	498.16
654.88	495.72
655.22	493.14
655.56	490.74
655.90	488.36
656.25	486.19
656.59	483.79
656.93	481.63
657.27	479.39
657.61	476.96
657.95	474.78
658.29	472.77
658.64	470.51
658.98	468.19
659.32	465.68
659.66	463.41
660.00	461.13
660.34	458.86
660.68	456.70
661.02	454.64
661.36	452.70
661.70	450.68
662.05	448.78
662.39	446.82
662.73	445.09
663.07	443.31
663.41	441.30
663.75	439.40
664.09	437.45
664.43	435.62
664.77	433.96
665.11	432.10
665.45	430.08
665.79	428.30
666.13	426.42
666.47	424.81
666.81	423.06
667.15	421.24
667.49	419.56
667.83	417.94
668.17	416.20
668.51	414.34
668.85	412.62
669.19	410.98
669.53	409.38
669.87	407.56
670.21	405.87
670.55	404.34
670.89	402.87
671.23	401.23
671.57	399.74
671.91	398.05
672.25	396.50
672.58	394.97
672.92	393.30
673.26	391.85
673.60	390.47
673.94	389.09
674.28	387.86
674.62	386.59
674.96	385.20
675.30	383.82
675.64	382.50
675.97	381.23
676.31	379.84
676.65	378.47
676.99	377.36
677.33	375.99
677.67	374.67
678.01	373.28
678.34	372.04
678.68	370.78
679.02	369.49
679.36	368.07
679.70	366.80
680.04	365.55
680.37	364.34
680.71	362.98
681.05	361.86
681.39	360.54
681.73	359.20
682.06	358.02
682.40	357.05
682.74	355.86
683.08	354.55
683.42	353.35
683.75	352.20
684.09	350.80
684.43	349.54
684.77	348.31
685.10	347.03
685.44	345.79
685.78	344.49
686.12	343.44
686.45	342.29
686.79	341.22
687.13	340.10
687.46	339.02
687.80	337.85
688.14	336.49
688.48	335.43
688.81	334.32
689.15	333.26
689.49	332.02
689.82	330.97
690.16	329.92
690.50	328.90
690.83	327.86
691.17	326.79
691.51	325.79
691.84	324.94
692.18	323.89
692.52	322.85
692.85	321.90
693.19	320.81
693.52	319.87
693.86	318.75
694.20	317.92
694.53	316.85
694.87	315.90
695.21	314.83
695.54	313.86
695.88	312.89
696.21	311.88
696.55	310.82
696.88	309.80
697.22	308.95
697.56	308.12
697.89	307.16
698.23	306.29
698.56	305.42
698.90	304.41
699.23	303.60
699.57	302.66
699.90	301.72
700.24	300.83
700.58	299.90
700.91	299.12
701.25	298.30
701.58	297.64
701.92	296.94
702.25	296.22
702.59	295.47
702.92	294.82
703.26	294.07
703.59	293.47
703.93	293.09
704.26	292.29
704.60	291.60
704.93	291.00
705.26	290.33
705.60	289.67
705.93	289.07
706.27	288.53
706.60	288.04
706.94	287.58
707.27	287.06
707.61	286.51
707.94	286.00
708.27	285.22
708.61	284.43
708.94	283.83
709.28	283.35
709.61	282.76
709.94	282.27
710.28	281.70
710.61	281.17
710.95	280.33
711.28	279.87
711.61	279.14
711.95	278.52
712.28	278.00
712.61	277.50
712.95	277.00
713.28	276.46
713.61	275.93
713.95	275.28
714.28	274.75
714.61	274.17
714.95	273.65
715.28	273.24
715.61	272.75
715.95	272.29
716.28	271.80
716.61	271.44
716.95	270.91
717.28	270.50
717.61	270.00
717.94	269.66
718.28	269.15
718.61	268.83
718.94	268.43
719.27	268.00
719.61	267.64
719.94	267.18
720.27	266.75
720.60	266.34
720.94	266.06
721.27	265.63
721.60	265.44
721.93	265.11
722.27	264.85
722.60	264.57
722.93	264.16
723.26	263.85
723.59	263.46
723.93	263.07
724.26	262.71
724.59	262.55
724.92	262.20
725.25	261.84
725.59	261.45
725.92	261.12
726.25	260.87
726.58	260.46
726.91	260.16
727.24	259.92
727.57	259.63
727.91	259.19
728.24	258.93
728.57	258.58
728.90	258.20
729.23	257.78
729.56	257.56
729.89	257.24
730.22	256.97
730.55	256.59
730.89	256.43
731.22	256.06
731.55	255.65
731.88	255.22
732.21	254.91
732.54	254.62
732.87	254.34
733.20	253.98
733.53	253.82
733.86	253.60
734.19	253.14
734.52	252.86
734.85	252.79
735.18	252.55
735.51	252.33
735.84	252.13
736.17	251.92
736.50	251.55
736.83	251.45
737.16	251.09
737.49	250.94
737.82	250.60
738.15	250.52
738.48	250.12
738.81	249.92
739.14	249.80
739.47	249.59
739.80	249.33
740.13	249.18
740.46	248.85
740.79	248.51
741.12	248.37
741.45	248.20
741.78	247.88
742.11	247.61
742.44	247.28
742.77	247.00
743.10	246.78
743.43	246.53
743.75	246.16
744.08	246.22
744.41	245.87
744.74	245.67
745.07	245.36
745.40	245.30
745.73	245.17
746.06	244.93
746.39	244.75
746.71	244.59
747.04	244.40
747.37	244.21
747.70	244.02
748.03	243.84
748.36	243.57
748.68	243.36
749.01	243.18
749.34	243.07
749.67	242.92
750.00	242.69
750.33	242.73
750.65	242.65
750.98	242.21
751.31	242.09
751.64	241.92
751.97	241.99
752.29	241.87
752.62	241.64
752.95	241.45
753.28	241.30
753.60	241.08
753.93	240.97
754.26	240.85
754.59	240.64
754.91	240.52
755.24	240.35
755.57	240.30
755.90	240.26
756.22	240.10
756.55	239.98
756.88	239.89
757.20	239.65
757.53	239.50
757.86	239.49
758.19	239.49
758.51	239.37
758.84	238.95
759.17	238.72
759.49	238.64
759.82	238.67
760.15	238.63
760.47	238.72
760.80	238.52
761.13	238.44
761.45	238.39
761.78	238.30
762.11	238.29
762.43	238.04
762.76	237.86
763.08	237.74
763.41	237.68
763.74	237.60
764.06	237.51
764.39	237.44
764.71	237.34
765.04	237.18
765.37	237.03
765.69	236.97
766.02	236.88
766.34	236.72
766.67	236.59
767.00	236.48
767.32	236.40
767.65	236.44
767.97	236.34
768.30	236.16
768.62	236.10
768.95	235.99
769.27	235.93
769.60	235.81
769.92	235.74
770.25	235.51
770.57	235.45
770.90	235.30
771.22	235.10
771.55	234.99
771.87	234.96
772.20	234.93
772.52	235.06
772.85	235.23
773.17	235.26
773.50	235.10
773.82	234.94
774.15	234.73
774.47	234.56
774.80	234.46
775.12	234.45
775.45	234.31
775.77	234.29
776.09	234.19
776.42	234.22
776.74	234.20
777.07	234.16
777.39	234.01
777.72	234.03
778.04	233.90
778.36	233.82
778.69	233.70
779.01	233.65
779.33	233.48
779.66	233.20
779.98	233.10
780.31	233.11
780.63	233.14
780.95	233.15
781.28	232.99
781.60	232.88
781.92	232.94
782.25	232.84
782.57	232.80
782.89	232.74
783.22	232.65
783.54	232.40
783.86	232.37
784.19	232.38
784.51	232.29
784.83	232.32
785.16	232.27
785.48	232.24
785.80	232.15
786.12	232.12
786.45	232.16
786.77	232.14
787.09	232.04
787.42	231.96
787.74	231.89
788.06	231.97
788.38	231.94
788.71	231.91
789.03	231.94
789.35	231.87
789.67	231.94
789.99	231.86
790.32	231.97
790.64	232.01
790.96	232.10
791.28	232.03
791.61	232.06
791.93	232.15
792.25	232.08
792.57	232.22
792.89	232.20
793.21	232.10
793.54	232.14
793.86	232.13
794.18	232.05
794.50	232.01
794.82	232.13
795.14	232.18
795.47	232.06
795.79	232.04
796.11	232.05
796.43	232.00
796.75	232.10
797.07	232.08
797.39	232.07
797.71	231.94
798.04	231.91
798.36	231.89
798.68	231.76
799.00	231.86
799.32	231.72
799.64	231.70
799.96	231.70
800.28	231.71
800.60	231.72
800.92	231.79
801.24	231.80
801.56	231.69
801.89	231.57
802.21	231.69
802.53	231.66
802.85	231.70
803.17	231.75
803.49	231.62
803.81	231.68
804.13	231.60
804.45	231.56
804.77	231.57
805.09	231.50
805.41	231.54
805.73	231.43
806.05	231.33
806.37	231.30
806.69	231.19
807.01	231.09
807.33	230.92
807.65	230.81
807.97	230.87
808.28	230.73
808.60	230.79
808.92	230.61
809.24	230.59
809.56	230.44
809.88	230.30
810.20	230.24
810.52	230.15
810.84	230.10
811.16	229.98
811.48	229.94
811.80	229.94
812.12	229.77
812.43	229.73
812.75	229.77
813.07	229.66
813.39	229.70
813.71	229.62
814.03	229.68
814.35	229.70
814.67	229.58
814.98	229.54
815.30	229.57
815.62	229.52
815.94	229.47
816.26	229.43
816.58	229.38
816.89	229.37
817.21	229.33
817.53	229.15
817.85	229.25
818.17	229.15
818.48	229.08
818.80	229.15
819.12	229.19
819.44	229.05
819.76	229.10
820.07	229.08
820.39	229.09
820.71	229.06
821.03	229.03
821.34	229.00
821.66	229.10
821.98	229.07
822.30	229.07
822.61	229.13
822.93	229.18
823.25	229.21
823.57	229.18
823.88	229.13
824.20	229.30
824.52	229.37
824.83	229.51
825.15	229.43
825.47	229.47
825.79	229.41
826.10	229.46
826.42	229.43
826.74	229.37
827.05	229.28
827.37	229.23
827.69	229.16
828.00	229.18
828.32	229.06
828.64	229.02
828.95	229.10
829.27	229.03
829.58	229.00
829.90	228.96
830.22	229.02
830.53	229.04
830.85	228.99
831.17	228.83
831.48	228.75
831.80	228.84
832.11	228.87
832.43	228.86
832.75	228.77
833.06	228.90
833.38	228.94
833.69	229.00
834.01	229.08
834.32	229.13
834.64	229.08
834.96	229.16
835.27	229.11
835.59	229.07
835.90	229.13
836.22	229.24
836.53	229.22
836.85	229.13
837.16	229.37
837.48	229.35
837.79	229.41
838.11	229.45
838.42	229.51
838.74	229.42
839.05	229.52
839.37	229.65
839.68	229.49
840.00	229.44
840.31	229.47
840.63	229.43
840.94	229.37
841.26	229.37
841.57	229.31
841.88	229.30
842.20	229.31
842.51	229.20
842.83	229.04
843.14	229.23
843.46	229.38
843.77	229.25
844.08	229.33
844.40	229.38
844.71	229.35
845.03	229.24
845.34	229.27
845.65	229.17
845.97	229.11
846.28	229.18
846.60	229.27
846.91	229.26
847.22	229.31
847.54	229.34
847.85	229.29
848.16	229.35
848.48	229.46
848.79	229.48
849.10	229.50
849.42	229.60
849.73	229.52
850.04	229.42
850.36	229.34
850.67	229.30
850.98	229.24
851.30	229.24
851.61	229.23
851.92	229.21
852.23	229.23
852.55	229.24
852.86	229.20
853.17	229.23
853.49	229.33
853.80	229.30
854.11	229.38
854.42	229.40
854.74	229.27
855.05	229.25
855.36	229.20
855.67	229.18
855.99	229.18
856.30	229.35
856.61	229.36
856.92	229.37
857.23	229.27
857.55	229.21
857.86	229.19
858.17	229.30
858.48	229.30
858.79	229.31
859.11	229.40
859.42	229.45
859.73	229.34
860.04	229.23
860.35	229.18
860.66	229.14
860.98	229.20
861.29	229.30
861.60	229.23
861.91	229.30
862.22	229.27
862.53	229.18
862.84	228.92
863.16	228.97
863.47	228.84
863.78	228.94
864.09	229.00
864.40	229.04
864.71	228.97
865.02	229.01
865.33	228.88
865.64	228.73
865.95	228.67
866.27	228.79
866.58	228.73
866.89	228.75
867.20	228.65
867.51	228.52
867.82	228.52
868.13	228.60
868.44	228.52
868.75	228.57
869.06	228.69
869.37	228.74
869.68	228.64
869.99	228.80
870.30	228.77
870.61	228.77
870.92	228.68
871.23	228.61
871.54	228.64
871.85	228.69
872.16	228.76
872.47	228.80
872.78	228.70
873.09	228.82
873.40	228.73
873.71	228.80
874.02	228.87
874.33	228.80
874.64	228.70
874.95	228.68
875.26	228.62
875.56	228.52
875.87	228.46
876.18	228.40
876.49	228.48
876.80	228.41
877.11	228.36
877.42	228.34
877.73	228.42
878.04	228.34
878.35	228.43
878.66	228.42
878.96	228.36
879.27	228.40
879.58	228.26
879.89	228.27
880.20	228.39
880.51	228.36
880.82	228.42
881.12	228.54
881.43	228.50
881.74	228.52
882.05	228.50
882.36	228.53
882.67	228.59
882.97	228.50
883.28	228.62
883.59	228.68
883.90	228.72
884.21	228.69
884.51	228.73
884.82	228.70
885.13	228.73
885.44	228.66
885.74	228.68
886.05	228.79
886.36	228.93
886.67	228.88
886.98	229.08
887.28	229.11
887.59	228.97
887.90	229.01
888.20	228.97
888.51	228.97
888.82	228.96
889.13	228.89
889.43	228.97
889.74	228.88
890.05	228.79
890.35	228.82
890.66	228.81
890.97	228.81
891.28	228.72
891.58	228.77
891.89	228.88
892.20	228.75
892.50	228.64
892.81	228.46
893.12	228.41
893.42	228.27
893.73	228.29
894.04	228.33
894.34	228.39
894.65	228.33
894.95	228.30
895.26	228.29
895.57	228.47
895.87	228.35
896.18	228.40
896.48	228.41
896.79	228.42
897.10	228.49
897.40	228.48
897.71	228.55
898.01	228.42
898.32	228.41
898.63	228.50
898.93	228.54
899.24	228.71
899.54	228.61
899.85	228.57
900.15	228.51
900.46	228.52
900.76	228.52
901.07	228.67
901.38	228.74
901.68	228.80
901.99	228.72
902.29	228.72
902.60	228.72
902.90	228.73
903.21	228.66
903.51	228.71
903.82	228.76
904.12	228.77
904.43	228.82
904.73	228.72
905.03	228.72
905.34	228.87
905.64	228.68
905.95	228.71
906.25	228.63
906.56	228.59
906.86	228.60
907.17	228.52
907.47	228.52
907.77	228.52
908.08	228.42
908.38	228.46
908.69	228.46
908.99	228.39
909.30	228.40
909.60	228.41
909.90	228.35
910.21	228.21
910.51	228.12
910.81	228.17
911.12	228.21
911.42	228.23
911.73	228.02
912.03	228.16
912.33	228.18
912.64	228.24
912.94	228.17
913.24	228.13
913.55	228.19
913.85	228.10
914.15	228.08
914.46	228.18
914.76	228.14
915.06	228.12
915.37	228.20
915.67	228.18
915.97	228.24
916.27	228.22
916.58	228.30
916.88	228.40
917.18	228.34
917.49	228.48
917.79	228.40
918.09	228.46
918.39	228.58
918.70	228.62
919.00	228.69
919.30	228.90
919.60	228.96
919.91	228.90
920.21	228.97
920.51	228.94
920.81	228.80
921.12	228.89
921.42	228.81
921.72	228.80
922.02	228.74
922.32	228.76
922.63	228.74
922.93	228.88
923.23	228.83
923.53	228.84
923.83	228.76
924.13	228.88
924.44	228.86
924.74	228.81
925.04	228.83
925.34	228.78
925.64	228.58
925.94	228.48
926.24	228.62
926.55	228.58
926.85	228.62
927.15	228.68
927.45	228.60
927.75	228.62
928.05	228.60
928.35	228.65
928.65	228.53
928.95	228.51
929.26	228.30
929.56	228.30
929.86	228.21
930.16	228.13
930.46	228.07
930.76	228.13
931.06	228.12
931.36	228.00
931.66	228.00
931.96	228.08
932.26	228.15
932.56	227.97
932.86	228.00
933.16	227.94
933.46	227.85
933.76	227.83
934.06	227.86
934.36	227.87
934.66	227.86
934.96	227.90
935.26	227.92
935.56	227.99
935.86	228.01
936.16	228.12
936.46	228.07
936.76	228.01
937.06	227.94
937.36	227.84
937.66	227.86
937.96	227.88
938.26	227.77
938.56	227.73
938.86	227.80
939.16	227.82
939.46	227.80
939.76	227.95
940.06	227.92
940.35	227.82
940.65	227.72
940.95	227.68
941.25	227.71
941.55	227.62
941.85	227.54
942.15	227.57
942.45	227.49
942.75	227.62
943.04	227.70
943.34	227.74
943.64	227.61
943.94	227.70
944.24	227.75
944.54	227.73
944.84	227.70
945.13	227.72
945.43	227.71
945.73	227.70
946.03	227.69
946.33	227.68
946.62	227.67
946.92	227.73
947.22	227.68
947.52	227.68
947.82	227.74
948.11	227.74
948.41	227.65
948.71	227.72
949.01	227.60
949.31	227.51
949.60	227.50
949.90	227.66
950.20	227.63
950.50	227.56
950.79	227.57
951.09	227.64
951.39	227.62
951.69	227.54
951.98	227.62
952.28	227.55
952.58	227.54
952.87	227.53
953.17	227.62
953.47	227.70
953.76	227.68
954.06	227.70
954.36	227.65
954.66	227.66
954.95	227.62
955.25	227.60
955.55	227.61
955.84	227.49
956.14	227.53
956.44	227.53
956.73	227.53
957.03	227.61
957.32	227.59
957.62	227.55
957.92	227.63
958.21	227.60
958.51	227.77
958.81	227.81
959.10	227.90
959.40	227.93
959.69	228.01
959.99	228.01
960.29	227.98
960.58	228.04
960.88	228.11
961.17	228.19
961.47	228.39
961.76	228.42
962.06	228.57
962.36	228.54
962.65	228.55
962.95	228.57
963.24	228.54
963.54	228.66
963.83	228.65
964.13	228.67
964.42	228.62
964.72	228.56
965.01	228.55
965.31	228.63
965.60	228.60
965.90	228.69
966.19	228.61
966.49	228.70
966.78	228.71
967.08	228.78
967.37	228.67
967.67	228.54
967.96	228.51
968.26	228.42
968.55	228.54
968.85	228.54
969.14	228.56
969.43	228.50
969.73	228.35
970.02	228.43
970.32	228.42
970.61	228.37
970.91	228.34
971.20	228.30
971.49	228.29
971.79	228.31
972.08	228.14
972.38	228.25
972.67	228.26
972.96	228.30
973.26	228.21
973.55	228.42
973.85	228.54
974.14	228.61
974.43	228.70
974.73	228.56
975.02	228.54
975.31	228.52
975.61	228.57
975.90	228.60
976.19	228.52
976.49	228.48
976.78	228.54
977.07	228.47
977.37	228.55
977.66	228.56
977.95	228.45
978.24	228.50
978.54	228.48
978.83	228.37
979.12	228.30
979.42	228.28
979.71	228.18
980.00	228.06
980.29	228.02
980.59	227.88
980.88	227.87
981.17	227.89
981.46	227.92
981.76	227.97
982.05	227.88
982.34	227.94
982.63	227.97
982.93	227.93
983.22	228.04
983.51	227.93
983.80	227.87
984.09	227.91
984.39	227.92
984.68	227.96
984.97	227.99
985.26	227.97
985.55	227.97
985.85	227.88
986.14	227.97
986.43	227.99
986.72	228.05
987.01	228.02
987.30	227.98
987.59	227.96
987.89	227.84
988.18	227.87
988.47	227.77
988.76	227.77
989.05	227.80
989.34	227.75
989.63	227.76
989.92	227.71
990.22	227.72
990.51	227.73
990.80	227.65
991.09	227.70
991.38	227.73
991.67	227.77
991.96	227.80
992.25	227.78
992.54	227.77
992.83	227.74
993.12	227.75
993.41	227.77
993.70	227.94
993.99	227.96
994.28	228.11
994.58	228.20
994.87	228.15
995.16	228.19
995.45	228.13
995.74	228.11
996.03	228.14
996.32	228.06
996.61	228.03
996.90	228.07
997.19	228.02
997.48	228.08
997.77	228.04
998.06	228.10
998.34	228.05
998.63	227.98
998.92	228.02
999.21	228.07
999.50	228.10
999.79	227.91
1000.08	227.97
1000.37	227.87
1000.66	227.89
1000.95	228.00
1001.24	228.06
1001.53	228.18
1001.82	228.18
1002.11	228.21
1002.40	228.37
1002.68	228.39
1002.97	228.49
1003.26	228.56
1003.55	228.53
1003.84	228.55
1004.13	228.53
1004.42	228.52
1004.71	228.61
1004.99	228.65
1005.28	228.64
1005.57	228.59
1005.86	228.58
1006.15	228.64
1006.44	228.60
1006.72	228.59
1007.01	228.55
1007.30	228.53
1007.59	228.45
1007.88	228.42
1008.17	228.49
1008.45	228.40
1008.74	228.32
1009.03	228.33
1009.32	228.31
1009.60	228.31
1009.89	228.26
1010.18	228.23
1010.47	228.30
1010.76	228.26
1011.04	228.26
1011.33	228.33
1011.62	228.40
1011.91	228.43
1012.19	228.42
1012.48	228.41
1012.77	228.33
1013.05	228.32
1013.34	228.29
1013.63	228.26
1013.92	228.30
1014.20	228.26
1014.49	228.23
1014.78	228.31
1015.06	228.18
1015.35	228.11
1015.64	228.12
1015.92	228.16
1016.21	228.06
1016.50	227.91
1016.78	227.93
1017.07	227.97
1017.36	227.81
1017.64	227.80
1017.93	227.76
1018.22	227.72
1018.50	227.80
1018.79	227.85
1019.08	227.82
1019.36	227.90
1019.65	227.93
1019.93	228.08
1020.22	228.03
1020.51	228.07
1020.79	227.98
1021.08	227.80
1021.36	228.30
1021.65	228.20
1021.94	228.20
1022.22	229.80
1022.51	228.40
1022.79	230.10
1023.08	227.60
1023.36	228.30
1023.65	227.10
>>>>>End Processed Spectral Data<<<<<
