SpectraSuite Data File
++++++++++++++++++++++++++++++++++++
Date: Fri Feb 01 14:39:27 EST 2013
User: group
Dark Spectrum Present: No
Reference Spectrum Present: No
Number of Sampled Component Spectra: 1
Spectrometers: USB2E7196
Integration Time (usec): 70000 (USB2E7196)
Spectra Averaged: 10 (USB2E7196)
Boxcar Smoothing: 10 (USB2E7196)
Correct for Electrical Dark: No (USB2E7196)
Strobe/Lamp Enabled: No (USB2E7196)
Correct for Detector Non-linearity: No (USB2E7196)
Correct for Stray Light: No (USB2E7196)
Number of Pixels in Processed Spectrum: 2048
>>>>>Begin Processed Spectral Data<<<<<
339.09	0.00
339.48	214.60
339.86	216.80
340.24	216.70
340.63	220.30
341.01	225.10
341.39	223.80
341.78	223.10
342.16	227.90
342.54	226.00
342.93	214.34
343.31	225.10
343.69	225.73
344.07	226.23
344.46	226.74
344.84	227.16
345.22	227.18
345.60	227.33
345.99	227.52
346.37	227.58
346.75	227.66
347.13	227.58
347.52	227.79
347.90	227.92
348.28	227.82
348.66	227.95
349.05	227.89
349.43	227.87
349.81	227.92
350.19	227.96
350.57	228.03
350.96	227.98
351.34	228.16
351.72	228.19
352.10	228.26
352.48	228.27
352.87	228.28
353.25	228.48
353.63	228.53
354.01	228.64
354.39	228.64
354.77	228.72
355.15	228.82
355.54	228.73
355.92	228.71
356.30	228.90
356.68	229.03
357.06	229.10
357.44	229.09
357.82	229.19
358.20	229.25
358.58	229.41
358.97	229.59
359.35	229.66
359.73	229.79
360.11	229.89
360.49	229.92
360.87	229.93
361.25	229.95
361.63	230.01
362.01	230.03
362.39	230.04
362.77	230.11
363.15	230.18
363.53	230.25
363.91	230.28
364.29	230.24
364.67	230.08
365.05	230.13
365.43	230.17
365.81	230.08
366.19	230.05
366.57	230.00
366.95	229.95
367.33	229.91
367.71	229.96
368.09	229.96
368.47	230.00
368.85	230.03
369.23	230.01
369.61	229.92
369.99	229.89
370.37	229.91
370.75	229.89
371.13	229.88
371.51	229.77
371.89	229.68
372.27	229.72
372.65	229.70
373.03	229.62
373.41	229.60
373.78	229.53
374.16	229.38
374.54	229.29
374.92	229.22
375.30	229.08
375.68	228.89
376.06	228.80
376.44	228.73
376.82	228.59
377.19	228.43
377.57	228.47
377.95	228.37
378.33	228.24
378.71	228.05
379.09	227.92
379.47	227.95
379.84	227.97
380.22	227.86
380.60	227.76
380.98	227.64
381.36	227.59
381.73	227.60
382.11	227.57
382.49	227.47
382.87	227.46
383.25	227.45
383.62	227.58
384.00	227.49
384.38	227.51
384.76	227.55
385.13	227.75
385.51	227.67
385.89	227.53
386.27	227.54
386.64	227.53
387.02	227.48
387.40	227.38
387.78	227.33
388.15	227.23
388.53	227.20
388.91	227.14
389.29	227.09
389.66	227.06
390.04	227.04
390.42	227.00
390.79	226.83
391.17	226.80
391.55	226.69
391.92	226.70
392.30	226.73
392.68	226.68
393.05	226.56
393.43	226.57
393.81	226.61
394.18	226.59
394.56	226.62
394.94	226.69
395.31	226.72
395.69	226.70
396.06	226.80
396.44	226.88
396.82	226.99
397.19	227.10
397.57	227.05
397.95	227.16
398.32	227.21
398.70	227.44
399.07	227.47
399.45	227.38
399.82	227.39
400.20	227.38
400.58	227.48
400.95	227.58
401.33	227.61
401.70	227.90
402.08	227.99
402.45	228.14
402.83	228.22
403.20	228.34
403.58	228.42
403.95	228.66
404.33	228.88
404.71	229.01
405.08	229.27
405.46	229.38
405.83	229.52
406.21	229.64
406.58	229.71
406.96	229.82
407.33	230.07
407.70	230.30
408.08	230.70
408.45	230.86
408.83	230.99
409.20	231.26
409.58	231.45
409.95	231.68
410.33	231.90
410.70	232.18
411.08	232.40
411.45	232.77
411.82	232.93
412.20	233.23
412.57	233.66
412.95	233.95
413.32	234.42
413.69	234.79
414.07	235.25
414.44	235.76
414.82	236.22
415.19	236.74
415.56	237.30
415.94	237.72
416.31	238.33
416.68	239.06
417.06	239.70
417.43	240.22
417.81	241.08
418.18	241.87
418.55	242.65
418.93	243.59
419.30	244.44
419.67	245.42
420.04	246.50
420.42	247.39
420.79	248.62
421.16	249.80
421.54	251.15
421.91	252.37
422.28	253.60
422.66	255.09
423.03	256.61
423.40	257.89
423.77	259.33
424.15	260.88
424.52	262.30
424.89	264.03
425.26	265.83
425.64	267.29
426.01	268.94
426.38	270.74
426.75	272.52
427.13	274.43
427.50	276.28
427.87	278.15
428.24	280.20
428.61	282.00
428.99	284.13
429.36	286.30
429.73	288.62
430.10	290.90
430.47	293.17
430.85	295.33
431.22	297.90
431.59	300.59
431.96	303.15
432.33	305.92
432.70	308.55
433.08	311.69
433.45	314.62
433.82	317.65
434.19	320.82
434.56	324.07
434.93	327.01
435.30	330.01
435.68	333.20
436.05	336.51
436.42	339.66
436.79	342.61
437.16	345.85
437.53	349.10
437.90	352.27
438.27	355.35
438.64	358.53
439.01	361.50
439.38	364.00
439.75	366.44
440.13	369.38
440.50	372.28
440.87	374.48
441.24	376.89
441.61	379.41
441.98	381.30
442.35	383.50
442.72	385.83
443.09	388.17
443.46	389.58
443.83	390.32
444.20	391.05
444.57	392.10
444.94	392.60
445.31	393.11
445.68	393.78
446.05	394.06
446.42	394.02
446.79	393.84
447.16	393.58
447.53	393.45
447.90	392.44
448.27	391.30
448.64	389.76
449.01	388.71
449.37	386.71
449.74	384.77
450.11	382.29
450.48	379.74
450.85	377.09
451.22	374.73
451.59	372.74
451.96	370.80
452.33	368.09
452.70	365.43
453.07	362.39
453.43	359.20
453.80	356.27
454.17	353.35
454.54	350.49
454.91	347.51
455.28	344.54
455.65	341.62
456.02	339.02
456.38	336.51
456.75	333.45
457.12	331.01
457.49	328.58
457.86	326.23
458.23	324.17
458.59	321.81
458.96	319.48
459.33	317.35
459.70	315.21
460.07	313.41
460.43	311.50
460.80	309.60
461.17	307.99
461.54	306.17
461.91	304.46
462.27	302.84
462.64	301.51
463.01	300.01
463.38	298.57
463.74	296.83
464.11	295.48
464.48	294.25
464.85	292.82
465.21	291.83
465.58	290.66
465.95	289.26
466.32	288.08
466.68	287.03
467.05	285.86
467.42	284.80
467.78	283.75
468.15	282.72
468.52	281.91
468.88	280.86
469.25	280.12
469.62	279.44
469.98	278.52
470.35	277.64
470.72	276.97
471.08	276.14
471.45	275.42
471.82	274.74
472.18	273.97
472.55	273.41
472.92	272.58
473.28	271.93
473.65	271.25
474.02	270.67
474.38	270.11
474.75	269.63
475.11	269.00
475.48	268.56
475.85	268.02
476.21	267.64
476.58	267.19
476.94	266.79
477.31	266.32
477.67	266.00
478.04	265.60
478.41	265.17
478.77	265.13
479.14	264.76
479.50	264.58
479.87	264.36
480.23	264.02
480.60	263.84
480.96	263.63
481.33	263.53
481.69	263.30
482.06	263.13
482.42	263.01
482.79	262.86
483.15	262.72
483.52	262.74
483.88	262.50
484.25	262.42
484.61	262.28
484.98	262.08
485.34	262.08
485.71	262.13
486.07	262.13
486.44	261.90
486.80	261.94
487.17	261.92
487.53	261.89
487.90	262.01
488.26	262.23
488.62	262.30
488.99	262.38
489.35	262.48
489.72	262.63
490.08	262.75
490.44	262.93
490.81	263.07
491.17	263.23
491.54	263.58
491.90	263.86
492.26	264.15
492.63	264.49
492.99	264.70
493.36	265.04
493.72	265.41
494.08	265.75
494.45	266.14
494.81	266.38
495.17	266.76
495.54	267.17
495.90	267.36
496.26	267.89
496.63	268.21
496.99	268.73
497.35	269.18
497.72	269.63
498.08	270.18
498.44	270.69
498.80	271.22
499.17	271.69
499.53	272.11
499.89	272.64
500.26	273.21
500.62	273.81
500.98	274.40
501.34	274.95
501.71	275.74
502.07	276.36
502.43	277.20
502.79	278.03
503.16	278.79
503.52	279.68
503.88	280.39
504.24	281.51
504.60	282.58
504.97	283.67
505.33	284.75
505.69	285.91
506.05	286.95
506.41	288.20
506.78	289.45
507.14	290.98
507.50	292.40
507.86	293.88
508.22	295.35
508.59	296.80
508.95	298.40
509.31	300.12
509.67	301.93
510.03	303.65
510.39	305.51
510.75	307.55
511.12	309.64
511.48	311.74
511.84	313.80
512.20	315.97
512.56	318.26
512.92	320.72
513.28	323.25
513.64	326.01
514.00	328.68
514.37	331.47
514.73	334.24
515.09	337.07
515.45	340.06
515.81	343.26
516.17	346.40
516.53	349.67
516.89	352.89
517.25	356.38
517.61	360.14
517.97	363.86
518.33	367.49
518.69	371.33
519.05	375.33
519.41	379.38
519.77	383.69
520.13	387.85
520.49	392.27
520.85	396.66
521.21	401.36
521.57	406.23
521.93	410.90
522.29	415.91
522.65	420.79
523.01	425.72
523.37	430.67
523.73	436.10
524.09	441.64
524.45	446.89
524.81	452.56
525.17	458.14
525.53	463.93
525.89	469.80
526.25	475.63
526.61	481.57
526.97	487.70
527.33	493.70
527.68	500.18
528.04	506.44
528.40	512.81
528.76	519.29
529.12	525.73
529.48	532.59
529.84	539.10
530.20	546.17
530.56	553.42
530.91	560.54
531.27	567.58
531.63	574.47
531.99	581.92
532.35	589.16
532.71	596.38
533.07	603.73
533.42	611.13
533.78	618.86
534.14	626.62
534.50	634.03
534.86	641.71
535.21	649.34
535.57	657.33
535.93	665.24
536.29	673.03
536.65	680.91
537.00	688.62
537.36	696.57
537.72	704.35
538.08	712.03
538.44	719.96
538.79	727.81
539.15	735.68
539.51	743.84
539.87	751.77
540.22	759.70
540.58	767.82
540.94	775.81
541.29	783.71
541.65	791.41
542.01	799.56
542.37	807.63
542.72	815.62
543.08	823.23
543.44	831.31
543.79	838.95
544.15	846.86
544.51	855.20
544.87	863.11
545.22	870.90
545.58	878.67
545.94	885.96
546.29	893.72
546.65	901.43
547.01	908.55
547.36	915.89
547.72	923.39
548.07	930.50
548.43	937.57
548.79	944.68
549.14	951.77
549.50	958.75
549.86	965.71
550.21	972.55
550.57	979.52
550.92	986.31
551.28	993.03
551.64	999.50
551.99	1005.74
552.35	1012.10
552.70	1018.42
553.06	1024.99
553.41	1032.00
553.77	1038.53
554.13	1045.01
554.48	1051.50
554.84	1058.11
555.19	1064.19
555.55	1070.58
555.90	1076.70
556.26	1082.80
556.61	1088.83
556.97	1094.56
557.32	1100.47
557.68	1106.30
558.03	1112.14
558.39	1117.64
558.74	1123.59
559.10	1129.36
559.45	1134.98
559.81	1141.10
560.16	1146.63
560.52	1151.98
560.87	1157.58
561.23	1162.48
561.58	1167.92
561.94	1172.75
562.29	1176.77
562.64	1181.52
563.00	1186.21
563.35	1191.41
563.71	1196.41
564.06	1201.63
564.42	1206.61
564.77	1211.04
565.12	1215.65
565.48	1220.06
565.83	1224.07
566.19	1228.07
566.54	1232.05
566.89	1236.07
567.25	1239.60
567.60	1243.75
567.96	1247.55
568.31	1250.72
568.66	1254.35
569.02	1257.51
569.37	1260.83
569.72	1264.35
570.08	1267.50
570.43	1270.31
570.78	1273.13
571.14	1275.30
571.49	1277.33
571.84	1280.02
572.20	1282.26
572.55	1284.07
572.90	1286.12
573.26	1288.53
573.61	1290.67
573.96	1292.26
574.31	1293.47
574.67	1294.26
575.02	1295.30
575.37	1296.33
575.72	1297.13
576.08	1297.92
576.43	1298.62
576.78	1299.50
577.13	1301.12
577.49	1302.08
577.84	1302.50
578.19	1303.00
578.54	1303.45
578.90	1303.60
579.25	1303.59
579.60	1303.26
579.95	1303.01
580.30	1302.51
580.66	1301.78
581.01	1301.10
581.36	1300.69
581.71	1300.60
582.06	1301.00
582.42	1300.27
582.77	1299.49
583.12	1298.78
583.47	1298.41
583.82	1297.67
584.17	1296.59
584.53	1295.34
584.88	1294.30
585.23	1293.54
585.58	1292.16
585.93	1291.22
586.28	1290.73
586.63	1289.51
586.98	1288.66
587.34	1288.19
587.69	1287.41
588.04	1286.69
588.39	1285.61
588.74	1283.83
589.09	1281.94
589.44	1279.58
589.79	1278.11
590.14	1276.98
590.49	1275.33
590.84	1273.19
591.19	1271.43
591.54	1269.42
591.89	1266.64
592.25	1264.37
592.60	1261.90
592.95	1259.49
593.30	1256.98
593.65	1254.16
594.00	1251.39
594.35	1249.67
594.70	1246.19
595.05	1243.59
595.40	1240.32
595.75	1237.55
596.10	1235.43
596.45	1233.34
596.80	1231.17
597.15	1228.72
597.50	1225.82
597.85	1223.29
598.19	1221.10
598.54	1218.67
598.89	1216.49
599.24	1214.70
599.59	1212.24
599.94	1209.73
600.29	1207.17
600.64	1204.33
600.99	1201.18
601.34	1198.58
601.69	1195.17
602.04	1192.80
602.39	1189.81
602.74	1187.45
603.08	1184.77
603.43	1182.40
603.78	1178.83
604.13	1176.13
604.48	1172.72
604.83	1169.70
605.18	1166.77
605.53	1163.17
605.87	1159.24
606.22	1155.73
606.57	1152.04
606.92	1148.55
607.27	1145.64
607.62	1142.83
607.96	1139.70
608.31	1136.81
608.66	1133.40
609.01	1129.41
609.36	1125.44
609.70	1120.91
610.05	1116.62
610.40	1112.68
610.75	1108.17
611.10	1104.45
611.44	1099.63
611.79	1095.93
612.14	1091.64
612.49	1086.99
612.83	1082.74
613.18	1078.90
613.53	1075.02
613.88	1070.32
614.22	1066.22
614.57	1061.50
614.92	1056.66
615.27	1052.64
615.61	1048.10
615.96	1043.50
616.31	1039.80
616.65	1036.05
617.00	1032.61
617.35	1028.87
617.70	1024.60
618.04	1020.10
618.39	1015.90
618.74	1012.24
619.08	1007.64
619.43	1003.73
619.78	1000.04
620.12	996.47
620.47	992.40
620.82	987.81
621.16	984.04
621.51	979.85
621.85	975.86
622.20	971.84
622.55	967.30
622.89	963.43
623.24	959.61
623.59	955.28
623.93	951.39
624.28	947.12
624.62	942.78
624.97	938.64
625.32	934.90
625.66	931.04
626.01	926.95
626.35	923.17
626.70	918.93
627.04	914.90
627.39	909.92
627.73	905.66
628.08	901.80
628.43	897.73
628.77	893.58
629.12	888.96
629.46	884.93
629.81	880.63
630.15	876.07
630.50	871.65
630.84	866.98
631.19	862.27
631.53	858.03
631.88	853.51
632.22	848.90
632.57	844.89
632.91	840.26
633.26	835.87
633.60	831.50
633.95	827.30
634.29	823.00
634.64	819.26
634.98	814.98
635.32	810.73
635.67	806.87
636.01	802.86
636.36	799.06
636.70	794.99
637.05	791.22
637.39	787.49
637.73	783.54
638.08	780.44
638.42	776.92
638.77	773.33
639.11	769.76
639.45	766.20
639.80	762.11
640.14	758.44
640.49	754.61
640.83	750.69
641.17	746.81
641.52	742.96
641.86	739.14
642.20	735.60
642.55	731.94
642.89	728.16
643.23	724.40
643.58	721.01
643.92	717.12
644.26	713.38
644.61	709.86
644.95	706.49
645.29	702.27
645.64	697.97
645.98	694.04
646.32	690.28
646.66	686.42
647.01	682.66
647.35	679.09
647.69	675.57
648.04	672.29
648.38	668.60
648.72	664.50
649.06	660.73
649.41	657.11
649.75	653.34
650.09	649.39
650.43	645.54
650.78	641.40
651.12	637.67
651.46	634.15
651.80	630.47
652.14	626.69
652.49	623.26
652.83	620.18
653.17	616.60
653.51	613.07
653.85	609.77
654.20	606.25
654.54	602.59
654.88	598.85
655.22	594.81
655.56	591.14
655.90	587.91
656.25	584.50
656.59	581.14
656.93	577.87
657.27	574.72
657.61	571.29
657.95	568.32
658.29	565.13
658.64	561.82
658.98	558.48
659.32	555.35
659.66	552.19
660.00	548.99
660.34	545.70
660.68	542.52
661.02	539.35
661.36	536.38
661.70	533.47
662.05	530.80
662.39	528.28
662.73	525.62
663.07	522.91
663.41	520.40
663.75	517.36
664.09	514.57
664.43	511.67
664.77	509.25
665.11	506.67
665.45	504.06
665.79	501.51
666.13	498.93
666.47	496.10
666.81	493.53
667.15	490.61
667.49	488.08
667.83	485.82
668.17	483.16
668.51	480.50
668.85	478.00
669.19	475.51
669.53	473.03
669.87	470.48
670.21	468.24
670.55	465.83
670.89	463.95
671.23	461.66
671.57	459.40
671.91	457.10
672.25	454.80
672.58	452.57
672.92	450.21
673.26	448.11
673.60	446.09
673.94	443.86
674.28	442.16
674.62	440.42
674.96	438.19
675.30	436.40
675.64	434.55
675.97	432.69
676.31	430.61
676.65	428.70
676.99	426.94
677.33	425.00
677.67	422.96
678.01	420.94
678.34	418.99
678.68	417.24
679.02	415.20
679.36	413.44
679.70	411.66
680.04	409.71
680.37	407.67
680.71	405.90
681.05	404.20
681.39	402.37
681.73	400.53
682.06	398.88
682.40	397.09
682.74	395.42
683.08	393.73
683.42	392.14
683.75	390.49
684.09	388.76
684.43	387.12
684.77	385.46
685.10	383.80
685.44	382.26
685.78	380.68
686.12	379.15
686.45	377.35
686.79	375.75
687.13	374.36
687.46	372.82
687.80	371.29
688.14	369.63
688.48	367.99
688.81	366.43
689.15	364.99
689.49	363.54
689.82	362.13
690.16	360.59
690.50	359.15
690.83	357.76
691.17	356.36
691.51	354.92
691.84	353.56
692.18	352.08
692.52	350.62
692.85	349.18
693.19	347.98
693.52	346.70
693.86	345.39
694.20	344.11
694.53	342.97
694.87	341.60
695.21	340.40
695.54	339.09
695.88	337.78
696.21	336.48
696.55	335.20
696.88	333.90
697.22	332.74
697.56	331.56
697.89	330.46
698.23	329.27
698.56	327.95
698.90	326.89
699.23	325.71
699.57	324.54
699.90	323.38
700.24	322.11
700.58	321.06
700.91	319.96
701.25	318.98
701.58	317.98
701.92	316.97
702.25	315.96
702.59	315.01
702.92	314.10
703.26	313.20
703.59	312.28
703.93	311.47
704.26	310.48
704.60	309.51
704.93	308.47
705.26	307.54
705.60	306.84
705.93	305.94
706.27	305.15
706.60	304.45
706.94	303.68
707.27	302.84
707.61	301.96
707.94	301.20
708.27	300.19
708.61	299.38
708.94	298.64
709.28	297.84
709.61	297.12
709.94	296.26
710.28	295.50
710.61	294.75
710.95	293.80
711.28	293.25
711.61	292.58
711.95	291.80
712.28	291.17
712.61	290.41
712.95	289.59
713.28	288.93
713.61	288.26
713.95	287.61
714.28	286.93
714.61	286.22
714.95	285.54
715.28	284.92
715.61	284.08
715.95	283.46
716.28	282.83
716.61	282.33
716.95	281.80
717.28	281.12
717.61	280.55
717.94	280.08
718.28	279.35
718.61	278.75
718.94	278.26
719.27	277.70
719.61	277.04
719.94	276.60
720.27	275.91
720.60	275.41
720.94	274.84
721.27	274.53
721.60	274.11
721.93	273.69
722.27	273.38
722.60	273.00
722.93	272.43
723.26	272.05
723.59	271.48
723.93	271.03
724.26	270.55
724.59	270.10
724.92	269.67
725.25	269.38
725.59	268.87
725.92	268.48
726.25	267.98
726.58	267.70
726.91	267.37
727.24	267.06
727.57	266.60
727.91	266.26
728.24	265.81
728.57	265.42
728.90	265.00
729.23	264.48
729.56	264.21
729.89	263.92
730.22	263.52
730.55	263.19
730.89	262.82
731.22	262.58
731.55	262.19
731.88	261.88
732.21	261.53
732.54	261.24
732.87	260.82
733.20	260.58
733.53	260.17
733.86	259.80
734.19	259.35
734.52	259.10
734.85	258.92
735.18	258.56
735.51	258.28
735.84	257.97
736.17	257.65
736.50	257.20
736.83	257.01
737.16	256.76
737.49	256.46
737.82	256.16
738.15	255.90
738.48	255.61
738.81	255.33
739.14	254.93
739.47	254.65
739.80	254.42
740.13	254.11
740.46	254.00
740.79	253.59
741.12	253.44
741.45	253.19
741.78	252.86
742.11	252.65
742.44	252.35
742.77	252.04
743.10	251.89
743.43	251.60
743.75	251.27
744.08	251.14
744.41	250.83
744.74	250.52
745.07	250.22
745.40	250.05
745.73	249.78
746.06	249.56
746.39	249.36
746.71	249.00
747.04	248.75
747.37	248.43
747.70	248.31
748.03	248.11
748.36	247.82
748.68	247.50
749.01	247.19
749.34	246.87
749.67	246.64
750.00	246.37
750.33	246.35
750.65	246.09
750.98	245.69
751.31	245.58
751.64	245.44
751.97	245.28
752.29	245.07
752.62	244.77
752.95	244.52
753.28	244.26
753.60	244.20
753.93	244.04
754.26	243.78
754.59	243.50
754.91	243.19
755.24	243.06
755.57	242.85
755.90	242.66
756.22	242.62
756.55	242.50
756.88	242.31
757.20	241.95
757.53	241.66
757.86	241.40
758.19	241.27
758.51	241.20
758.84	240.99
759.17	240.77
759.49	240.69
759.82	240.62
760.15	240.57
760.47	240.40
760.80	240.19
761.13	240.21
761.45	240.06
761.78	239.98
762.11	239.74
762.43	239.73
762.76	239.56
763.08	239.39
763.41	239.28
763.74	239.19
764.06	239.11
764.39	239.17
764.71	239.16
765.04	239.00
765.37	238.71
765.69	238.60
766.02	238.47
766.34	238.39
766.67	238.27
767.00	238.16
767.32	238.15
767.65	238.20
767.97	238.06
768.30	238.08
768.62	237.96
768.95	237.84
769.27	237.66
769.60	237.67
769.92	237.55
770.25	237.38
770.57	237.16
770.90	237.08
771.22	236.90
771.55	236.78
771.87	236.61
772.20	236.54
772.52	236.68
772.85	236.91
773.17	236.79
773.50	236.58
773.82	236.43
774.15	236.29
774.47	236.13
774.80	235.97
775.12	235.82
775.45	235.72
775.77	235.56
776.09	235.44
776.42	235.31
776.74	235.42
777.07	235.39
777.39	235.34
777.72	235.19
778.04	235.19
778.36	235.07
778.69	235.10
779.01	235.11
779.33	234.81
779.66	234.45
779.98	234.42
780.31	234.47
780.63	234.53
780.95	234.45
781.28	234.42
781.60	234.30
781.92	234.27
782.25	234.30
782.57	234.30
782.89	234.27
783.22	234.16
783.54	233.95
783.86	233.91
784.19	233.82
784.51	233.82
784.83	233.66
785.16	233.59
785.48	233.49
785.80	233.40
786.12	233.28
786.45	233.23
786.77	233.12
787.09	233.05
787.42	232.73
787.74	232.64
788.06	232.48
788.38	232.58
788.71	232.41
789.03	232.37
789.35	232.36
789.67	232.26
789.99	232.26
790.32	232.20
790.64	232.08
790.96	232.23
791.28	232.20
791.61	232.16
791.93	232.26
792.25	232.20
792.57	232.29
792.89	232.24
793.21	232.24
793.54	232.14
793.86	232.03
794.18	232.13
794.50	232.04
794.82	232.04
795.14	231.90
795.47	231.88
795.79	231.86
796.11	231.83
796.43	231.83
796.75	231.78
797.07	231.73
797.39	231.73
797.71	231.52
798.04	231.43
798.36	231.40
798.68	231.36
799.00	231.31
799.32	231.18
799.64	231.24
799.96	231.22
800.28	231.20
800.60	231.11
800.92	231.11
801.24	231.20
801.56	231.22
801.89	231.22
802.21	231.29
802.53	231.15
802.85	231.08
803.17	231.08
803.49	231.05
803.81	231.03
804.13	231.03
804.45	231.08
804.77	231.10
805.09	231.16
805.41	231.11
805.73	231.13
806.05	230.99
806.37	230.97
806.69	230.87
807.01	230.87
807.33	230.88
807.65	230.80
807.97	230.82
808.28	230.78
808.60	230.69
808.92	230.65
809.24	230.75
809.56	230.77
809.88	230.67
810.20	230.60
810.52	230.57
810.84	230.44
811.16	230.49
811.48	230.46
811.80	230.51
812.12	230.43
812.43	230.35
812.75	230.44
813.07	230.40
813.39	230.37
813.71	230.30
814.03	230.36
814.35	230.21
814.67	230.12
814.98	230.01
815.30	230.03
815.62	229.98
815.94	229.84
816.26	229.82
816.58	229.78
816.89	229.81
817.21	229.79
817.53	229.85
817.85	229.77
818.17	229.73
818.48	229.67
818.80	229.72
819.12	229.75
819.44	229.70
819.76	229.60
820.07	229.61
820.39	229.59
820.71	229.54
821.03	229.70
821.34	229.60
821.66	229.61
821.98	229.62
822.30	229.63
822.61	229.76
822.93	229.73
823.25	229.78
823.57	229.69
823.88	229.69
824.20	229.59
824.52	229.53
824.83	229.44
825.15	229.33
825.47	229.27
825.79	229.24
826.10	229.27
826.42	229.39
826.74	229.42
827.05	229.42
827.37	229.41
827.69	229.35
828.00	229.38
828.32	229.35
828.64	229.34
828.95	229.44
829.27	229.26
829.58	229.26
829.90	229.33
830.22	229.42
830.53	229.43
830.85	229.49
831.17	229.44
831.48	229.57
831.80	229.59
832.11	229.61
832.43	229.59
832.75	229.60
833.06	229.54
833.38	229.55
833.69	229.52
834.01	229.48
834.32	229.50
834.64	229.52
834.96	229.56
835.27	229.61
835.59	229.61
835.90	229.62
836.22	229.57
836.53	229.45
836.85	229.42
837.16	229.62
837.48	229.58
837.79	229.69
838.11	229.54
838.42	229.53
838.74	229.50
839.05	229.55
839.37	229.55
839.68	229.41
840.00	229.36
840.31	229.40
840.63	229.33
840.94	229.27
841.26	229.23
841.57	229.13
841.88	229.08
842.20	228.92
842.51	229.04
842.83	229.05
843.14	229.33
843.46	229.36
843.77	229.23
844.08	229.15
844.40	229.09
844.71	229.15
845.03	229.08
845.34	229.06
845.65	229.04
845.97	228.93
846.28	228.98
846.60	228.91
846.91	228.99
847.22	229.05
847.54	229.09
847.85	229.11
848.16	229.17
848.48	229.11
848.79	229.18
849.10	229.02
849.42	229.10
849.73	228.81
850.04	228.80
850.36	228.72
850.67	228.86
850.98	228.90
851.30	228.87
851.61	228.95
851.92	228.90
852.23	228.90
852.55	228.94
852.86	229.03
853.17	229.08
853.49	229.10
853.80	229.14
854.11	229.25
854.42	229.31
854.74	229.30
855.05	229.30
855.36	229.30
855.67	229.40
855.99	229.32
856.30	229.53
856.61	229.48
856.92	229.50
857.23	229.56
857.55	229.48
857.86	229.45
858.17	229.46
858.48	229.51
858.79	229.45
859.11	229.44
859.42	229.39
859.73	229.33
860.04	229.25
860.35	229.24
860.66	229.08
860.98	229.00
861.29	229.02
861.60	229.06
861.91	229.00
862.22	228.99
862.53	228.99
862.84	228.90
863.16	228.93
863.47	228.88
863.78	228.77
864.09	228.90
864.40	228.90
864.71	228.87
865.02	228.87
865.33	228.87
865.64	228.75
865.95	228.79
866.27	228.85
866.58	228.93
866.89	228.98
867.20	228.98
867.51	228.86
867.82	228.74
868.13	228.85
868.44	228.80
868.75	228.89
869.06	228.84
869.37	228.75
869.68	228.69
869.99	228.69
870.30	228.66
870.61	228.56
870.92	228.48
871.23	228.39
871.54	228.40
871.85	228.43
872.16	228.55
872.47	228.55
872.78	228.45
873.09	228.40
873.40	228.30
873.71	228.34
874.02	228.38
874.33	228.49
874.64	228.29
874.95	228.30
875.26	228.09
875.56	228.15
875.87	228.16
876.18	228.11
876.49	228.30
876.80	228.20
877.11	228.13
877.42	228.24
877.73	228.24
878.04	228.12
878.35	228.11
878.66	228.13
878.96	228.04
879.27	228.08
879.58	228.01
879.89	228.06
880.20	227.98
880.51	227.95
880.82	227.92
881.12	228.02
881.43	228.13
881.74	228.29
882.05	228.22
882.36	228.17
882.67	228.33
882.97	228.15
883.28	228.20
883.59	228.14
883.90	228.10
884.21	228.21
884.51	228.32
884.82	228.26
885.13	228.20
885.44	228.24
885.74	228.30
886.05	228.24
886.36	228.23
886.67	228.20
886.98	228.38
887.28	228.35
887.59	228.31
887.90	228.24
888.20	228.19
888.51	228.27
888.82	228.27
889.13	228.23
889.43	228.37
889.74	228.53
890.05	228.56
890.35	228.62
890.66	228.53
890.97	228.51
891.28	228.58
891.58	228.65
891.89	228.69
892.20	228.69
892.50	228.75
892.81	228.66
893.12	228.67
893.42	228.52
893.73	228.60
894.04	228.70
894.34	228.70
894.65	228.72
894.95	228.63
895.26	228.70
895.57	228.78
895.87	228.57
896.18	228.53
896.48	228.53
896.79	228.58
897.10	228.63
897.40	228.70
897.71	228.74
898.01	228.70
898.32	228.73
898.63	228.69
898.93	228.71
899.24	228.73
899.54	228.80
899.85	228.91
900.15	228.81
900.46	228.80
900.76	228.75
901.07	228.70
901.38	228.71
901.68	228.73
901.99	228.63
902.29	228.68
902.60	228.64
902.90	228.70
903.21	228.62
903.51	228.57
903.82	228.54
904.12	228.44
904.43	228.44
904.73	228.30
905.03	228.30
905.34	228.41
905.64	228.43
905.95	228.50
906.25	228.33
906.56	228.23
906.86	228.17
907.17	228.18
907.47	228.16
907.77	228.11
908.08	227.95
908.38	227.92
908.69	227.99
908.99	227.95
909.30	227.84
909.60	227.80
909.90	227.86
910.21	227.77
910.51	227.83
910.81	227.81
911.12	227.86
911.42	227.87
911.73	227.72
912.03	227.78
912.33	227.71
912.64	227.72
912.94	227.85
913.24	227.84
913.55	227.75
913.85	227.68
914.15	227.79
914.46	227.85
914.76	227.80
915.06	227.72
915.37	227.79
915.67	227.93
915.97	227.86
916.27	227.80
916.58	227.81
916.88	227.64
917.18	227.66
917.49	227.74
917.79	227.78
918.09	227.79
918.39	227.85
918.70	227.90
919.00	227.91
919.30	227.99
919.60	227.91
919.91	228.00
920.21	228.13
920.51	228.05
920.81	228.00
921.12	228.11
921.42	228.00
921.72	227.97
922.02	227.86
922.32	227.88
922.63	227.91
922.93	227.98
923.23	228.09
923.53	228.02
923.83	227.99
924.13	228.00
924.44	228.04
924.74	228.02
925.04	228.05
925.34	228.12
925.64	228.12
925.94	228.13
926.24	228.23
926.55	228.12
926.85	228.20
927.15	228.31
927.45	228.23
927.75	228.35
928.05	228.34
928.35	228.41
928.65	228.53
928.95	228.57
929.26	228.59
929.56	228.65
929.86	228.70
930.16	228.82
930.46	228.78
930.76	228.74
931.06	228.69
931.36	228.66
931.66	228.67
931.96	228.65
932.26	228.73
932.56	228.60
932.86	228.66
933.16	228.64
933.46	228.58
933.76	228.61
934.06	228.68
934.36	228.77
934.66	228.73
934.96	228.74
935.26	228.74
935.56	228.74
935.86	228.76
936.16	228.73
936.46	228.57
936.76	228.59
937.06	228.63
937.36	228.51
937.66	228.51
937.96	228.45
938.26	228.41
938.56	228.32
938.86	228.37
939.16	228.43
939.46	228.46
939.76	228.52
940.06	228.46
940.35	228.34
940.65	228.23
940.95	228.37
941.25	228.31
941.55	228.21
941.85	228.08
942.15	228.06
942.45	228.14
942.75	228.13
943.04	228.11
943.34	228.07
943.64	228.14
943.94	228.11
944.24	228.12
944.54	228.12
944.84	228.13
945.13	228.13
945.43	228.09
945.73	228.03
946.03	227.99
946.33	228.00
946.62	227.96
946.92	227.90
947.22	227.72
947.52	227.79
947.82	227.92
948.11	227.99
948.41	227.87
948.71	227.80
949.01	227.74
949.31	227.70
949.60	227.67
949.90	227.70
950.20	227.68
950.50	227.70
950.79	227.76
951.09	227.84
951.39	227.79
951.69	227.78
951.98	227.84
952.28	227.75
952.58	227.73
952.87	227.79
953.17	227.87
953.47	227.87
953.76	227.85
954.06	227.78
954.36	227.75
954.66	227.85
954.95	227.85
955.25	227.96
955.55	228.03
955.84	228.09
956.14	228.12
956.44	228.18
956.73	228.08
957.03	228.11
957.32	227.99
957.62	228.07
957.92	228.09
958.21	228.05
958.51	228.37
958.81	228.49
959.10	228.53
959.40	228.67
959.69	228.71
959.99	228.74
960.29	228.73
960.58	228.85
960.88	228.94
961.17	228.97
961.47	228.98
961.76	228.94
962.06	228.97
962.36	229.00
962.65	229.00
962.95	229.19
963.24	229.18
963.54	229.27
963.83	229.29
964.13	229.23
964.42	229.22
964.72	229.04
965.01	229.08
965.31	229.15
965.60	229.01
965.90	229.19
966.19	229.08
966.49	229.13
966.78	229.14
967.08	229.08
967.37	229.14
967.67	229.20
967.96	229.32
968.26	229.28
968.55	229.29
968.85	229.24
969.14	229.13
969.43	229.14
969.73	229.17
970.02	229.15
970.32	229.22
970.61	229.23
970.91	229.15
971.20	229.00
971.49	228.93
971.79	228.98
972.08	228.79
972.38	228.84
972.67	228.76
972.96	228.74
973.26	228.63
973.55	228.57
973.85	228.46
974.14	228.40
974.43	228.36
974.73	228.16
975.02	228.17
975.31	228.23
975.61	228.18
975.90	228.06
976.19	228.00
976.49	228.02
976.78	228.07
977.07	228.08
977.37	228.18
977.66	228.15
977.95	228.09
978.24	228.15
978.54	228.17
978.83	228.18
979.12	228.09
979.42	228.13
979.71	228.14
980.00	228.08
980.29	228.03
980.59	228.09
980.88	228.26
981.17	228.20
981.46	228.14
981.76	228.05
982.05	228.17
982.34	228.10
982.63	228.08
982.93	228.02
983.22	228.14
983.51	228.08
983.80	228.14
984.09	228.18
984.39	228.10
984.68	227.97
984.97	228.05
985.26	228.03
985.55	228.08
985.85	228.01
986.14	228.14
986.43	228.15
986.72	228.05
987.01	228.00
987.30	227.97
987.59	228.02
987.89	228.02
988.18	227.92
988.47	227.93
988.76	227.90
989.05	227.90
989.34	227.81
989.63	227.95
989.92	227.90
990.22	227.89
990.51	227.93
990.80	227.99
991.09	227.93
991.38	228.01
991.67	228.00
991.96	228.04
992.25	227.97
992.54	227.97
992.83	228.11
993.12	228.07
993.41	228.20
993.70	228.26
993.99	228.32
994.28	228.42
994.58	228.59
994.87	228.64
995.16	228.60
995.45	228.56
995.74	228.39
996.03	228.51
996.32	228.57
996.61	228.62
996.90	228.70
997.19	228.73
997.48	228.84
997.77	228.84
998.06	228.88
998.34	228.88
998.63	228.95
998.92	228.96
999.21	229.04
999.50	229.04
999.79	228.96
1000.08	228.99
1000.37	228.95
1000.66	228.93
1000.95	228.98
1001.24	228.98
1001.53	229.00
1001.82	229.04
1002.11	228.95
1002.40	228.97
1002.68	228.93
1002.97	229.07
1003.26	229.10
1003.55	228.92
1003.84	229.00
1004.13	229.05
1004.42	229.20
1004.71	229.12
1004.99	229.09
1005.28	229.11
1005.57	229.11
1005.86	229.13
1006.15	229.11
1006.44	229.19
1006.72	229.22
1007.01	229.10
1007.30	229.14
1007.59	229.18
1007.88	229.21
1008.17	229.26
1008.45	229.21
1008.74	229.20
1009.03	229.11
1009.32	229.17
1009.60	229.24
1009.89	229.13
1010.18	229.14
1010.47	229.03
1010.76	229.02
1011.04	229.00
1011.33	229.10
1011.62	229.07
1011.91	229.06
1012.19	229.08
1012.48	229.10
1012.77	228.99
1013.05	229.23
1013.34	229.15
1013.63	229.06
1013.92	229.10
1014.20	229.07
1014.49	229.09
1014.78	229.08
1015.06	229.00
1015.35	228.86
1015.64	229.00
1015.92	228.97
1016.21	228.91
1016.50	228.88
1016.78	228.81
1017.07	228.83
1017.36	228.65
1017.64	228.60
1017.93	228.55
1018.22	228.49
1018.50	228.39
1018.79	228.40
1019.08	228.22
1019.36	228.32
1019.65	228.31
1019.93	228.26
1020.22	228.23
1020.51	228.26
1020.79	228.26
1021.08	227.20
1021.36	228.20
1021.65	228.00
1021.94	229.00
1022.22	228.60
1022.51	226.70
1022.79	228.60
1023.08	228.60
1023.36	229.90
1023.65	227.90
>>>>>End Processed Spectral Data<<<<<
