SpectraSuite Data File
++++++++++++++++++++++++++++++++++++
Date: Fri Feb 01 14:36:53 EST 2013
User: group
Dark Spectrum Present: No
Reference Spectrum Present: No
Number of Sampled Component Spectra: 1
Spectrometers: USB2E7196
Integration Time (usec): 70000 (USB2E7196)
Spectra Averaged: 10 (USB2E7196)
Boxcar Smoothing: 10 (USB2E7196)
Correct for Electrical Dark: No (USB2E7196)
Strobe/Lamp Enabled: No (USB2E7196)
Correct for Detector Non-linearity: No (USB2E7196)
Correct for Stray Light: No (USB2E7196)
Number of Pixels in Processed Spectrum: 2048
>>>>>Begin Processed Spectral Data<<<<<
339.09	0.00
339.48	215.90
339.86	218.00
340.24	218.40
340.63	220.00
341.01	223.60
341.39	220.30
341.78	225.10
342.16	226.20
342.54	225.60
342.93	214.34
343.31	225.27
343.69	225.85
344.07	226.40
344.46	226.95
344.84	227.34
345.22	227.46
345.60	227.73
345.99	227.90
346.37	228.11
346.75	228.22
347.13	228.18
347.52	228.26
347.90	228.30
348.28	228.43
348.66	228.41
349.05	228.44
349.43	228.48
349.81	228.57
350.19	228.47
350.57	228.50
350.96	228.53
351.34	228.51
351.72	228.51
352.10	228.47
352.48	228.41
352.87	228.53
353.25	228.66
353.63	228.80
354.01	228.88
354.39	228.88
354.77	228.96
355.15	229.00
355.54	229.11
355.92	229.11
356.30	229.14
356.68	229.32
357.06	229.42
357.44	229.45
357.82	229.58
358.20	229.61
358.58	229.78
358.97	229.92
359.35	229.99
359.73	230.12
360.11	230.15
360.49	230.17
360.87	230.16
361.25	230.25
361.63	230.44
362.01	230.50
362.39	230.43
362.77	230.47
363.15	230.55
363.53	230.48
363.91	230.55
364.29	230.54
364.67	230.45
365.05	230.40
365.43	230.35
365.81	230.28
366.19	230.37
366.57	230.36
366.95	230.31
367.33	230.31
367.71	230.26
368.09	230.26
368.47	230.25
368.85	230.08
369.23	230.05
369.61	229.84
369.99	229.79
370.37	229.77
370.75	229.83
371.13	229.60
371.51	229.52
371.89	229.41
372.27	229.40
372.65	229.34
373.03	229.23
373.41	229.14
373.78	229.08
374.16	228.97
374.54	228.87
374.92	228.67
375.30	228.56
375.68	228.37
376.06	228.27
376.44	228.17
376.82	228.18
377.19	228.11
377.57	228.05
377.95	227.91
378.33	227.82
378.71	227.67
379.09	227.76
379.47	227.70
379.84	227.58
380.22	227.50
380.60	227.32
380.98	227.27
381.36	227.19
381.73	227.13
382.11	227.02
382.49	226.90
382.87	226.97
383.25	226.97
383.62	227.22
384.00	227.11
384.38	227.09
384.76	227.14
385.13	227.10
385.51	227.07
385.89	226.94
386.27	226.89
386.64	226.73
387.02	226.66
387.40	226.64
387.78	226.72
388.15	226.64
388.53	226.65
388.91	226.63
389.29	226.61
389.66	226.51
390.04	226.50
390.42	226.58
390.79	226.50
391.17	226.41
391.55	226.24
391.92	226.20
392.30	226.23
392.68	226.17
393.05	226.19
393.43	226.23
393.81	226.30
394.18	226.37
394.56	226.50
394.94	226.53
395.31	226.56
395.69	226.61
396.06	226.71
396.44	226.84
396.82	226.91
397.19	227.16
397.57	227.29
397.95	227.42
398.32	227.37
398.70	227.49
399.07	227.52
399.45	227.62
399.82	227.85
400.20	227.93
400.58	228.08
400.95	228.10
401.33	228.18
401.70	228.43
402.08	228.45
402.45	228.60
402.83	228.81
403.20	229.05
403.58	229.21
403.95	229.44
404.33	229.55
404.71	229.80
405.08	229.98
405.46	230.27
405.83	230.52
406.21	230.89
406.58	231.09
406.96	231.45
407.33	231.69
407.70	232.00
408.08	232.45
408.45	232.82
408.83	233.29
409.20	233.75
409.58	234.07
409.95	234.63
410.33	234.99
410.70	235.35
411.08	235.79
411.45	236.36
411.82	236.82
412.20	237.43
412.57	238.18
412.95	238.65
413.32	239.25
413.69	239.99
414.07	240.66
414.44	241.52
414.82	242.36
415.19	243.34
415.56	244.34
415.94	245.26
416.31	246.33
416.68	247.48
417.06	248.71
417.43	250.09
417.81	251.50
418.18	253.06
418.55	254.72
418.93	256.43
419.30	258.14
419.67	259.96
420.04	261.81
420.42	263.64
420.79	265.96
421.16	268.20
421.54	270.44
421.91	272.78
422.28	275.27
422.66	278.00
423.03	280.54
423.40	283.19
423.77	286.01
424.15	288.91
424.52	291.77
424.89	294.91
425.26	297.99
425.64	300.95
426.01	304.21
426.38	307.52
426.75	310.84
427.13	314.33
427.50	318.05
427.87	321.88
428.24	325.73
428.61	329.46
428.99	333.59
429.36	338.00
429.73	342.37
430.10	346.59
430.47	350.90
430.85	355.51
431.22	360.18
431.59	365.20
431.96	369.88
432.33	375.21
432.70	380.52
433.08	386.60
433.45	392.27
433.82	397.83
434.19	404.27
434.56	410.50
434.93	416.39
435.30	422.33
435.68	428.78
436.05	435.14
436.42	441.39
436.79	446.96
437.16	453.12
437.53	459.70
437.90	466.18
438.27	472.56
438.64	479.14
439.01	485.27
439.38	490.84
439.75	496.20
440.13	502.31
440.50	508.06
440.87	512.67
441.24	517.56
441.61	522.91
441.98	526.87
442.35	531.54
442.72	536.32
443.09	541.14
443.46	544.24
443.83	546.23
444.20	548.10
444.57	550.85
444.94	552.34
445.31	553.93
445.68	555.70
446.05	556.64
446.42	556.62
446.79	556.52
447.16	556.22
447.53	556.50
447.90	554.88
448.27	553.14
448.64	550.37
449.01	548.76
449.37	545.14
449.74	541.55
450.11	537.25
450.48	532.60
450.85	527.40
451.22	523.15
451.59	519.36
451.96	515.70
452.33	510.47
452.70	505.90
453.07	500.03
453.43	493.80
453.80	488.08
454.17	482.38
454.54	477.16
454.91	471.46
455.28	465.78
455.65	460.40
456.02	455.03
456.38	450.57
456.75	444.65
457.12	439.95
457.49	435.04
457.86	430.44
458.23	426.29
458.59	421.82
458.96	417.24
459.33	413.30
459.70	409.33
460.07	406.10
460.43	402.26
460.80	398.70
461.17	395.64
461.54	392.34
461.91	389.47
462.27	386.32
462.64	383.69
463.01	380.56
463.38	377.78
463.74	374.86
464.11	372.31
464.48	370.22
464.85	367.82
465.21	366.03
465.58	364.02
465.95	361.63
466.32	359.73
466.68	357.65
467.05	355.57
467.42	353.56
467.78	351.47
468.15	349.45
468.52	347.88
468.88	345.92
469.25	344.12
469.62	342.64
469.98	341.02
470.35	339.50
470.72	338.13
471.08	336.46
471.45	335.10
471.82	333.60
472.18	331.95
472.55	330.86
472.92	329.67
473.28	328.42
473.65	327.24
474.02	326.00
474.38	325.21
474.75	324.31
475.11	323.21
475.48	322.39
475.85	321.67
476.21	321.03
476.58	320.46
476.94	319.87
477.31	319.24
477.67	318.68
478.04	318.10
478.41	317.76
478.77	317.55
479.14	317.19
479.50	316.98
479.87	316.88
480.23	316.56
480.60	316.16
480.96	315.93
481.33	315.85
481.69	315.86
482.06	315.73
482.42	315.50
482.79	315.42
483.15	315.52
483.52	315.52
483.88	315.62
484.25	315.67
484.61	315.90
484.98	315.84
485.34	316.10
485.71	316.51
486.07	316.67
486.44	316.76
486.80	317.06
487.17	317.41
487.53	317.98
487.90	318.34
488.26	319.01
488.62	319.68
488.99	320.21
489.35	320.80
489.72	321.48
490.08	322.30
490.44	323.01
490.81	323.77
491.17	324.53
491.54	325.25
491.90	326.03
492.26	326.72
492.63	327.78
492.99	328.71
493.36	329.48
493.72	330.51
494.08	331.52
494.45	332.49
494.81	333.54
495.17	334.49
495.54	335.67
495.90	336.60
496.26	337.60
496.63	338.75
496.99	339.87
497.35	341.00
497.72	342.06
498.08	343.20
498.44	344.28
498.80	345.51
499.17	346.70
499.53	347.79
499.89	349.09
500.26	349.98
500.62	351.05
500.98	352.15
501.34	353.09
501.71	354.17
502.07	355.18
502.43	356.09
502.79	357.07
503.16	358.05
503.52	358.98
503.88	359.82
504.24	360.69
504.60	361.60
504.97	362.34
505.33	363.07
505.69	363.98
506.05	364.74
506.41	365.59
506.78	366.18
507.14	366.93
507.50	367.40
507.86	368.36
508.22	368.87
508.59	369.43
508.95	370.02
509.31	370.52
509.67	371.01
510.03	371.50
510.39	371.92
510.75	372.36
511.12	372.74
511.48	373.08
511.84	373.28
512.20	373.42
512.56	373.75
512.92	374.09
513.28	374.10
513.64	374.30
514.00	374.22
514.37	374.32
514.73	374.35
515.09	374.52
515.45	374.40
515.81	374.38
516.17	374.36
516.53	374.51
516.89	374.59
517.25	374.61
517.61	374.79
517.97	374.73
518.33	374.80
518.69	374.84
519.05	374.95
519.41	375.33
519.77	375.73
520.13	375.90
520.49	376.09
520.85	376.31
521.21	376.48
521.57	376.84
521.93	377.03
522.29	377.55
522.65	377.90
523.01	378.22
523.37	378.65
523.73	379.22
524.09	379.66
524.45	380.24
524.81	380.92
525.17	381.61
525.53	382.47
525.89	383.30
526.25	384.32
526.61	385.10
526.97	385.95
527.33	386.72
527.68	387.95
528.04	389.24
528.40	390.63
528.76	392.12
529.12	393.55
529.48	395.34
529.84	396.72
530.20	398.46
530.56	400.24
530.91	402.20
531.27	404.16
531.63	406.13
531.99	408.24
532.35	410.29
532.71	412.35
533.07	414.57
533.42	417.10
533.78	419.33
534.14	422.02
534.50	424.37
534.86	427.13
535.21	429.65
535.57	432.30
535.93	434.98
536.29	437.90
536.65	440.83
537.00	443.71
537.36	446.72
537.72	449.78
538.08	452.87
538.44	456.20
538.79	459.52
539.15	462.84
539.51	466.17
539.87	469.78
540.22	473.47
540.58	477.18
540.94	480.60
541.29	484.53
541.65	488.21
542.01	492.40
542.37	496.26
542.72	500.03
543.08	504.02
543.44	508.08
543.79	511.79
544.15	515.86
544.51	520.07
544.87	524.43
545.22	528.65
545.58	533.05
545.94	536.98
546.29	541.00
546.65	545.17
547.01	549.37
547.36	553.54
547.72	557.75
548.07	562.14
548.43	566.20
548.79	570.25
549.14	574.55
549.50	578.62
549.86	582.75
550.21	587.11
550.57	591.54
550.92	595.89
551.28	600.29
551.64	604.51
551.99	608.75
552.35	612.96
552.70	617.35
553.06	621.72
553.41	626.29
553.77	630.80
554.13	635.43
554.48	640.16
554.84	644.63
555.19	648.95
555.55	653.41
555.90	657.91
556.26	662.33
556.61	666.50
556.97	670.86
557.32	675.39
557.68	679.91
558.03	684.13
558.39	688.37
558.74	692.88
559.10	697.38
559.45	701.74
559.81	706.18
560.16	710.30
560.52	714.72
560.87	718.83
561.23	722.84
561.58	726.96
561.94	730.94
562.29	734.79
562.64	738.70
563.00	742.46
563.35	746.63
563.71	750.66
564.06	754.77
564.42	758.64
564.77	762.42
565.12	766.01
565.48	770.15
565.83	773.99
566.19	777.67
566.54	781.26
566.89	784.65
567.25	788.09
567.60	791.87
567.96	794.98
568.31	798.55
568.66	801.94
569.02	805.18
569.37	808.15
569.72	811.54
570.08	814.66
570.43	817.58
570.78	820.51
571.14	823.23
571.49	826.10
571.84	828.99
572.20	831.71
572.55	834.55
572.90	836.73
573.26	839.34
573.61	841.47
573.96	843.43
574.31	845.63
574.67	847.50
575.02	848.85
575.37	850.69
575.72	852.16
576.08	853.99
576.43	855.46
576.78	857.30
577.13	858.85
577.49	860.65
577.84	862.23
578.19	863.71
578.54	865.20
578.90	866.60
579.25	867.67
579.60	868.75
579.95	869.50
580.30	870.43
580.66	870.94
581.01	871.81
581.36	872.73
581.71	873.74
582.06	874.52
582.42	875.29
582.77	875.97
583.12	876.52
583.47	877.04
583.82	877.76
584.17	877.88
584.53	878.38
584.88	878.55
585.23	878.85
585.58	878.80
585.93	878.82
586.28	879.00
586.63	879.23
586.98	879.40
587.34	879.85
587.69	879.89
588.04	880.20
588.39	880.21
588.74	879.95
589.09	879.56
589.44	879.12
589.79	879.33
590.14	879.34
590.49	879.07
590.84	878.84
591.19	878.39
591.54	877.90
591.89	876.98
592.25	876.46
592.60	875.55
592.95	874.53
593.30	873.60
593.65	872.60
594.00	871.50
594.35	871.18
594.70	869.76
595.05	868.61
595.40	867.39
595.75	866.16
596.10	865.46
596.45	864.65
596.80	864.00
597.15	862.86
597.50	861.79
597.85	860.89
598.19	859.67
598.54	858.62
598.89	857.77
599.24	856.76
599.59	855.54
599.94	854.24
600.29	853.23
600.64	852.37
600.99	851.02
601.34	849.90
601.69	847.87
602.04	846.63
602.39	845.21
602.74	844.21
603.08	843.09
603.43	841.89
603.78	840.53
604.13	839.09
604.48	837.29
604.83	835.46
605.18	833.97
605.53	832.04
605.87	830.16
606.22	828.51
606.57	826.76
606.92	825.03
607.27	823.84
607.62	822.47
607.96	820.76
608.31	818.84
608.66	816.58
609.01	814.44
609.36	812.29
609.70	810.10
610.05	807.72
610.40	805.66
610.75	803.21
611.10	800.71
611.44	798.29
611.79	796.39
612.14	794.16
612.49	791.36
612.83	788.94
613.18	786.68
613.53	784.15
613.88	781.68
614.22	778.80
614.57	775.73
614.92	772.94
615.27	770.37
615.61	767.81
615.96	765.67
616.31	763.39
616.65	761.23
617.00	759.13
617.35	756.50
617.70	753.69
618.04	750.95
618.39	748.49
618.74	746.06
619.08	743.34
619.43	740.55
619.78	738.22
620.12	735.92
620.47	733.30
620.82	730.42
621.16	727.73
621.51	725.51
621.85	723.09
622.20	720.49
622.55	717.76
622.89	715.30
623.24	712.62
623.59	710.19
623.93	707.95
624.28	705.53
624.62	702.99
624.97	700.80
625.32	698.41
625.66	696.02
626.01	693.42
626.35	690.81
626.70	688.51
627.04	686.28
627.39	683.66
627.73	681.18
628.08	678.75
628.43	676.47
628.77	674.07
629.12	671.56
629.46	668.79
629.81	665.88
630.15	663.22
630.50	660.44
630.84	657.70
631.19	654.50
631.53	651.60
631.88	648.84
632.22	645.81
632.57	643.31
632.91	640.53
633.26	637.95
633.60	635.37
633.95	632.66
634.29	629.90
634.64	627.57
634.98	624.84
635.32	622.57
635.67	620.16
636.01	617.56
636.36	615.12
636.70	613.05
637.05	611.18
637.39	608.99
637.73	606.81
638.08	604.58
638.42	602.49
638.77	600.17
639.11	598.01
639.45	595.85
639.80	593.31
640.14	590.87
640.49	588.41
640.83	585.84
641.17	583.50
641.52	581.23
641.86	578.53
642.20	576.20
642.55	573.63
642.89	571.16
643.23	568.69
643.58	566.59
643.92	563.95
644.26	561.37
644.61	559.00
644.95	556.65
645.29	553.84
645.64	551.33
645.98	548.96
646.32	546.70
646.66	544.09
647.01	541.78
647.35	539.52
647.69	537.31
648.04	535.18
648.38	532.80
648.72	530.05
649.06	527.83
649.41	525.56
649.75	523.20
650.09	520.74
650.43	518.42
650.78	515.74
651.12	513.44
651.46	511.10
651.80	508.82
652.14	506.45
652.49	504.46
652.83	502.19
653.17	499.77
653.51	497.17
653.85	495.00
654.20	492.57
654.54	490.11
654.88	487.52
655.22	485.07
655.56	482.72
655.90	480.67
656.25	478.34
656.59	476.05
656.93	473.94
657.27	471.67
657.61	469.49
657.95	467.50
658.29	465.37
658.64	463.18
658.98	460.76
659.32	458.55
659.66	456.30
660.00	453.92
660.34	451.81
660.68	449.80
661.02	447.72
661.36	445.82
661.70	443.94
662.05	442.21
662.39	440.54
662.73	438.83
663.07	437.10
663.41	435.40
663.75	433.50
664.09	431.61
664.43	429.76
664.77	427.84
665.11	425.94
665.45	424.21
665.79	422.58
666.13	420.79
666.47	418.98
666.81	417.13
667.15	415.63
667.49	414.07
667.83	412.48
668.17	410.74
668.51	409.11
668.85	407.37
669.19	405.72
669.53	403.96
669.87	402.07
670.21	400.42
670.55	398.78
670.89	397.49
671.23	395.90
671.57	394.49
671.91	393.15
672.25	391.58
672.58	390.25
672.92	388.65
673.26	387.39
673.60	386.15
673.94	384.97
674.28	383.56
674.62	382.26
674.96	380.90
675.30	379.74
675.64	378.33
675.97	377.02
676.31	375.77
676.65	374.43
676.99	373.43
677.33	372.08
677.67	370.80
678.01	369.46
678.34	368.21
678.68	366.99
679.02	365.70
679.36	364.49
679.70	363.05
680.04	361.81
680.37	360.53
680.71	359.28
681.05	358.12
681.39	357.05
681.73	355.87
682.06	354.72
682.40	353.50
682.74	352.44
683.08	351.41
683.42	350.04
683.75	348.99
684.09	347.82
684.43	346.67
684.77	345.53
685.10	344.35
685.44	343.20
685.78	342.13
686.12	340.99
686.45	339.90
686.79	338.82
687.13	337.92
687.46	336.89
687.80	335.84
688.14	334.67
688.48	333.61
688.81	332.32
689.15	331.24
689.49	330.20
689.82	329.18
690.16	328.06
690.50	327.19
690.83	326.14
691.17	324.87
691.51	323.90
691.84	322.89
692.18	321.76
692.52	320.77
692.85	319.65
693.19	318.69
693.52	317.72
693.86	316.64
694.20	315.54
694.53	314.55
694.87	313.56
695.21	312.56
695.54	311.56
695.88	310.83
696.21	309.85
696.55	308.96
696.88	307.94
697.22	307.05
697.56	306.19
697.89	305.23
698.23	304.50
698.56	303.55
698.90	302.80
699.23	301.90
699.57	300.98
699.90	300.11
700.24	299.28
700.58	298.49
700.91	297.73
701.25	297.10
701.58	296.40
701.92	295.77
702.25	295.12
702.59	294.39
702.92	293.58
703.26	292.88
703.59	292.20
703.93	291.68
704.26	290.97
704.60	290.29
704.93	289.66
705.26	288.95
705.60	288.39
705.93	287.68
706.27	287.26
706.60	286.80
706.94	286.28
707.27	285.60
707.61	284.94
707.94	284.40
708.27	283.71
708.61	282.99
708.94	282.28
709.28	281.75
709.61	281.12
709.94	280.49
710.28	279.98
710.61	279.38
710.95	278.62
711.28	278.16
711.61	277.62
711.95	277.04
712.28	276.49
712.61	276.02
712.95	275.59
713.28	275.05
713.61	274.51
713.95	274.01
714.28	273.63
714.61	273.26
714.95	272.88
715.28	272.47
715.61	271.95
715.95	271.50
716.28	271.05
716.61	270.68
716.95	270.30
717.28	269.83
717.61	269.41
717.94	269.18
718.28	268.64
718.61	268.29
718.94	268.00
719.27	267.57
719.61	267.13
719.94	266.76
720.27	266.27
720.60	266.03
720.94	265.68
721.27	265.30
721.60	264.99
721.93	264.68
722.27	264.33
722.60	264.10
722.93	263.82
723.26	263.48
723.59	263.13
723.93	262.92
724.26	262.62
724.59	262.26
724.92	261.85
725.25	261.69
725.59	261.19
725.92	260.86
726.25	260.61
726.58	260.30
726.91	259.90
727.24	259.73
727.57	259.34
727.91	259.02
728.24	258.76
728.57	258.30
728.90	257.91
729.23	257.54
729.56	257.33
729.89	257.07
730.22	256.68
730.55	256.36
730.89	255.97
731.22	255.71
731.55	255.48
731.88	255.23
732.21	254.81
732.54	254.65
732.87	254.45
733.20	254.07
733.53	253.75
733.86	253.55
734.19	253.11
734.52	252.87
734.85	252.67
735.18	252.15
735.51	251.95
735.84	251.65
736.17	251.43
736.50	251.08
736.83	251.00
737.16	250.68
737.49	250.53
737.82	250.30
738.15	250.10
738.48	249.87
738.81	249.46
739.14	249.43
739.47	249.05
739.80	248.65
740.13	248.54
740.46	248.24
740.79	247.90
741.12	247.75
741.45	247.50
741.78	247.19
742.11	247.24
742.44	246.97
742.77	246.86
743.10	246.63
743.43	246.40
743.75	245.94
744.08	246.07
744.41	245.80
744.74	245.53
745.07	245.25
745.40	245.07
745.73	245.05
746.06	244.66
746.39	244.55
746.71	244.50
747.04	244.34
747.37	244.22
747.70	244.10
748.03	244.01
748.36	243.72
748.68	243.55
749.01	243.29
749.34	243.11
749.67	242.77
750.00	242.54
750.33	242.42
750.65	242.32
750.98	241.92
751.31	241.77
751.64	241.64
751.97	241.69
752.29	241.49
752.62	241.29
752.95	241.28
753.28	241.13
753.60	240.90
753.93	240.68
754.26	240.48
754.59	240.30
754.91	240.11
755.24	240.05
755.57	239.98
755.90	239.84
756.22	239.76
756.55	239.77
756.88	239.67
757.20	239.47
757.53	239.22
757.86	239.10
758.19	239.01
758.51	238.92
758.84	238.57
759.17	238.46
759.49	238.30
759.82	238.28
760.15	238.24
760.47	238.05
760.80	237.96
761.13	238.04
761.45	237.98
761.78	237.85
762.11	237.74
762.43	237.65
762.76	237.61
763.08	237.55
763.41	237.45
763.74	237.38
764.06	237.36
764.39	237.32
764.71	237.31
765.04	237.23
765.37	237.10
765.69	237.16
766.02	237.01
766.34	237.00
766.67	236.78
767.00	236.64
767.32	236.71
767.65	236.81
767.97	236.72
768.30	236.69
768.62	236.62
768.95	236.52
769.27	236.46
769.60	236.40
769.92	236.31
770.25	236.20
770.57	236.03
770.90	235.86
771.22	235.77
771.55	235.63
771.87	235.60
772.20	235.53
772.52	235.51
772.85	235.77
773.17	235.61
773.50	235.46
773.82	235.37
774.15	235.25
774.47	235.01
774.80	234.78
775.12	234.67
775.45	234.59
775.77	234.55
776.09	234.39
776.42	234.24
776.74	234.26
777.07	234.13
777.39	234.13
777.72	234.11
778.04	234.10
778.36	233.94
778.69	233.74
779.01	233.70
779.33	233.40
779.66	233.10
779.98	232.98
780.31	232.96
780.63	233.07
780.95	233.05
781.28	233.00
781.60	233.03
781.92	232.98
782.25	232.91
782.57	232.81
782.89	232.77
783.22	232.77
783.54	232.67
783.86	232.70
784.19	232.50
784.51	232.42
784.83	232.25
785.16	232.29
785.48	232.22
785.80	232.12
786.12	232.20
786.45	232.10
786.77	232.11
787.09	231.93
787.42	231.70
787.74	231.56
788.06	231.53
788.38	231.46
788.71	231.38
789.03	231.33
789.35	231.30
789.67	231.20
789.99	231.05
790.32	230.87
790.64	230.82
790.96	231.05
791.28	230.97
791.61	230.99
791.93	231.00
792.25	231.07
792.57	231.24
792.89	231.14
793.21	231.09
793.54	231.13
793.86	231.30
794.18	231.33
794.50	231.39
794.82	231.32
795.14	231.33
795.47	231.39
795.79	231.32
796.11	231.21
796.43	231.22
796.75	231.19
797.07	231.30
797.39	231.37
797.71	231.19
798.04	231.29
798.36	231.30
798.68	231.33
799.00	231.38
799.32	231.21
799.64	231.21
799.96	231.17
800.28	231.20
800.60	231.09
800.92	231.10
801.24	231.02
801.56	231.04
801.89	231.01
802.21	230.97
802.53	230.93
802.85	231.09
803.17	231.17
803.49	231.17
803.81	231.06
804.13	231.03
804.45	231.03
804.77	230.99
805.09	230.99
805.41	230.87
805.73	230.82
806.05	230.80
806.37	230.89
806.69	230.99
807.01	230.91
807.33	230.94
807.65	230.86
807.97	230.95
808.28	230.87
808.60	230.84
808.92	230.75
809.24	230.89
809.56	230.82
809.88	230.78
810.20	230.74
810.52	230.83
810.84	230.65
811.16	230.66
811.48	230.58
811.80	230.71
812.12	230.71
812.43	230.69
812.75	230.79
813.07	230.68
813.39	230.52
813.71	230.42
814.03	230.37
814.35	230.38
814.67	230.32
814.98	230.33
815.30	230.30
815.62	230.39
815.94	230.27
816.26	230.34
816.58	230.30
816.89	230.32
817.21	230.29
817.53	230.33
817.85	230.18
818.17	230.23
818.48	230.09
818.80	230.04
819.12	230.00
819.44	229.85
819.76	229.87
820.07	229.93
820.39	229.98
820.71	229.93
821.03	229.90
821.34	229.87
821.66	229.90
821.98	229.82
822.30	229.76
822.61	229.84
822.93	229.70
823.25	229.58
823.57	229.55
823.88	229.46
824.20	229.44
824.52	229.60
824.83	229.57
825.15	229.47
825.47	229.46
825.79	229.36
826.10	229.27
826.42	229.27
826.74	229.24
827.05	229.20
827.37	229.18
827.69	229.11
828.00	228.99
828.32	229.00
828.64	228.92
828.95	228.99
829.27	228.82
829.58	228.85
829.90	228.89
830.22	228.85
830.53	228.84
830.85	228.81
831.17	228.68
831.48	228.63
831.80	228.54
832.11	228.51
832.43	228.60
832.75	228.69
833.06	228.70
833.38	228.60
833.69	228.68
834.01	228.76
834.32	228.83
834.64	228.84
834.96	228.77
835.27	228.87
835.59	228.77
835.90	228.76
836.22	228.62
836.53	228.65
836.85	228.68
837.16	228.93
837.48	228.89
837.79	228.97
838.11	228.93
838.42	229.02
838.74	229.04
839.05	228.95
839.37	228.90
839.68	228.84
840.00	228.91
840.31	228.90
840.63	228.82
840.94	228.82
841.26	228.82
841.57	228.85
841.88	228.91
842.20	228.84
842.51	228.84
842.83	228.93
843.14	229.05
843.46	229.09
843.77	228.98
844.08	228.96
844.40	228.93
844.71	229.02
845.03	228.95
845.34	228.95
845.65	228.94
845.97	228.96
846.28	228.97
846.60	228.99
846.91	228.84
847.22	228.88
847.54	228.89
847.85	228.92
848.16	228.87
848.48	228.77
848.79	228.87
849.10	228.92
849.42	229.03
849.73	228.87
850.04	228.82
850.36	228.72
850.67	228.81
850.98	228.72
851.30	228.74
851.61	228.78
851.92	228.80
852.23	228.83
852.55	228.78
852.86	228.78
853.17	228.73
853.49	228.81
853.80	228.80
854.11	228.73
854.42	228.75
854.74	228.69
855.05	228.75
855.36	228.64
855.67	228.62
855.99	228.47
856.30	228.61
856.61	228.50
856.92	228.45
857.23	228.40
857.55	228.38
857.86	228.30
858.17	228.31
858.48	228.20
858.79	228.29
859.11	228.37
859.42	228.31
859.73	228.34
860.04	228.34
860.35	228.34
860.66	228.30
860.98	228.24
861.29	228.27
861.60	228.17
861.91	228.21
862.22	228.26
862.53	228.29
862.84	228.16
863.16	228.30
863.47	228.30
863.78	228.27
864.09	228.39
864.40	228.30
864.71	228.37
865.02	228.42
865.33	228.36
865.64	228.26
865.95	228.25
866.27	228.39
866.58	228.45
866.89	228.45
867.20	228.37
867.51	228.30
867.82	228.42
868.13	228.60
868.44	228.59
868.75	228.62
869.06	228.65
869.37	228.72
869.68	228.58
869.99	228.69
870.30	228.80
870.61	228.80
870.92	228.90
871.23	228.83
871.54	228.95
871.85	228.99
872.16	228.95
872.47	228.94
872.78	228.84
873.09	228.81
873.40	228.78
873.71	228.95
874.02	229.07
874.33	228.96
874.64	228.81
874.95	228.87
875.26	228.76
875.56	228.73
875.87	228.66
876.18	228.74
876.49	228.90
876.80	228.83
877.11	228.82
877.42	228.82
877.73	228.87
878.04	228.80
878.35	228.73
878.66	228.79
878.96	228.73
879.27	228.67
879.58	228.65
879.89	228.69
880.20	228.72
880.51	228.71
880.82	228.76
881.12	228.86
881.43	228.84
881.74	228.90
882.05	228.98
882.36	228.98
882.67	229.06
882.97	228.78
883.28	228.79
883.59	228.65
883.90	228.67
884.21	228.67
884.51	228.56
884.82	228.56
885.13	228.65
885.44	228.67
885.74	228.69
886.05	228.66
886.36	228.57
886.67	228.42
886.98	228.46
887.28	228.35
887.59	228.28
887.90	228.24
888.20	228.16
888.51	228.01
888.82	228.05
889.13	227.98
889.43	228.21
889.74	228.24
890.05	228.30
890.35	228.25
890.66	228.18
890.97	228.14
891.28	228.15
891.58	228.13
891.89	228.16
892.20	228.11
892.50	228.10
892.81	228.15
893.12	228.23
893.42	228.30
893.73	228.28
894.04	228.25
894.34	228.25
894.65	228.25
894.95	228.30
895.26	228.26
895.57	228.38
895.87	228.21
896.18	228.16
896.48	228.30
896.79	228.30
897.10	228.38
897.40	228.52
897.71	228.50
898.01	228.48
898.32	228.58
898.63	228.53
898.93	228.51
899.24	228.45
899.54	228.32
899.85	228.20
900.15	228.28
900.46	228.28
900.76	228.37
901.07	228.39
901.38	228.42
901.68	228.41
901.99	228.29
902.29	228.28
902.60	228.30
902.90	228.28
903.21	228.24
903.51	228.20
903.82	228.15
904.12	228.20
904.43	228.16
904.73	228.07
905.03	228.18
905.34	228.46
905.64	228.54
905.95	228.65
906.25	228.71
906.56	228.72
906.86	228.78
907.17	228.65
907.47	228.70
907.77	228.66
908.08	228.58
908.38	228.62
908.69	228.60
908.99	228.65
909.30	228.54
909.60	228.54
909.90	228.56
910.21	228.57
910.51	228.44
910.81	228.49
911.12	228.56
911.42	228.56
911.73	228.28
912.03	228.24
912.33	228.30
912.64	228.32
912.94	228.30
913.24	228.11
913.55	228.12
913.85	227.96
914.15	228.04
914.46	228.16
914.76	228.17
915.06	228.10
915.37	228.03
915.67	227.94
915.97	228.00
916.27	228.01
916.58	227.95
916.88	228.09
917.18	228.20
917.49	228.29
917.79	228.29
918.09	228.31
918.39	228.38
918.70	228.38
919.00	228.17
919.30	228.27
919.60	228.32
919.91	228.38
920.21	228.54
920.51	228.50
920.81	228.44
921.12	228.36
921.42	228.45
921.72	228.49
922.02	228.62
922.32	228.56
922.63	228.56
922.93	228.64
923.23	228.52
923.53	228.50
923.83	228.37
924.13	228.36
924.44	228.36
924.74	228.42
925.04	228.35
925.34	228.47
925.64	228.42
925.94	228.48
926.24	228.54
926.55	228.46
926.85	228.46
927.15	228.54
927.45	228.59
927.75	228.55
928.05	228.53
928.35	228.51
928.65	228.47
928.95	228.50
929.26	228.49
929.56	228.65
929.86	228.57
930.16	228.57
930.46	228.53
930.76	228.51
931.06	228.38
931.36	228.38
931.66	228.44
931.96	228.45
932.26	228.45
932.56	228.44
932.86	228.50
933.16	228.54
933.46	228.49
933.76	228.46
934.06	228.57
934.36	228.66
934.66	228.65
934.96	228.73
935.26	228.60
935.56	228.67
935.86	228.55
936.16	228.62
936.46	228.60
936.76	228.71
937.06	228.67
937.36	228.70
937.66	228.67
937.96	228.61
938.26	228.55
938.56	228.61
938.86	228.59
939.16	228.68
939.46	228.70
939.76	228.72
940.06	228.83
940.35	228.64
940.65	228.55
940.95	228.67
941.25	228.65
941.55	228.66
941.85	228.57
942.15	228.53
942.45	228.57
942.75	228.60
943.04	228.50
943.34	228.69
943.64	228.62
943.94	228.64
944.24	228.65
944.54	228.60
944.84	228.52
945.13	228.45
945.43	228.27
945.73	228.12
946.03	228.13
946.33	227.90
946.62	228.02
946.92	227.92
947.22	227.88
947.52	227.82
947.82	227.92
948.11	227.80
948.41	227.81
948.71	227.72
949.01	227.66
949.31	227.70
949.60	227.63
949.90	227.71
950.20	227.74
950.50	227.67
950.79	227.73
951.09	227.68
951.39	227.64
951.69	227.62
951.98	227.80
952.28	227.73
952.58	227.90
952.87	227.82
953.17	227.94
953.47	227.83
953.76	227.92
954.06	227.86
954.36	227.89
954.66	227.88
954.95	227.83
955.25	227.91
955.55	227.81
955.84	227.71
956.14	227.66
956.44	227.60
956.73	227.63
957.03	227.68
957.32	227.79
957.62	227.76
957.92	227.85
958.21	227.84
958.51	227.95
958.81	227.89
959.10	227.96
959.40	227.99
959.69	228.00
959.99	228.09
960.29	228.07
960.58	228.10
960.88	228.15
961.17	228.17
961.47	228.06
961.76	228.05
962.06	228.01
962.36	227.92
962.65	228.00
962.95	228.04
963.24	227.98
963.54	227.93
963.83	227.98
964.13	227.96
964.42	227.89
964.72	227.86
965.01	227.87
965.31	227.78
965.60	227.68
965.90	227.82
966.19	227.64
966.49	227.65
966.78	227.64
967.08	227.58
967.37	227.68
967.67	227.73
967.96	227.81
968.26	227.85
968.55	228.00
968.85	227.94
969.14	228.02
969.43	228.01
969.73	228.10
970.02	228.16
970.32	228.16
970.61	228.14
970.91	228.15
971.20	228.14
971.49	228.27
971.79	228.34
972.08	228.23
972.38	228.28
972.67	228.31
972.96	228.38
973.26	228.48
973.55	228.47
973.85	228.52
974.14	228.53
974.43	228.60
974.73	228.53
975.02	228.56
975.31	228.53
975.61	228.56
975.90	228.51
976.19	228.49
976.49	228.58
976.78	228.63
977.07	228.62
977.37	228.64
977.66	228.62
977.95	228.61
978.24	228.62
978.54	228.81
978.83	228.82
979.12	228.83
979.42	228.84
979.71	228.72
980.00	228.81
980.29	228.87
980.59	228.85
980.88	228.83
981.17	228.83
981.46	228.86
981.76	228.86
982.05	228.90
982.34	229.00
982.63	228.95
982.93	228.96
983.22	228.93
983.51	228.94
983.80	228.92
984.09	228.97
984.39	229.03
984.68	228.95
984.97	228.96
985.26	228.99
985.55	229.04
985.85	229.03
986.14	228.98
986.43	229.02
986.72	228.98
987.01	229.05
987.30	229.14
987.59	229.13
987.89	229.13
988.18	229.06
988.47	229.04
988.76	228.97
989.05	228.85
989.34	228.94
989.63	229.00
989.92	228.92
990.22	228.88
990.51	228.81
990.80	228.74
991.09	228.67
991.38	228.54
991.67	228.48
991.96	228.45
992.25	228.32
992.54	228.22
992.83	228.27
993.12	228.21
993.41	228.07
993.70	228.01
993.99	228.01
994.28	228.03
994.58	227.87
994.87	227.96
995.16	227.98
995.45	227.83
995.74	227.82
996.03	227.89
996.32	227.95
996.61	227.85
996.90	227.82
997.19	227.88
997.48	228.03
997.77	227.93
998.06	228.03
998.34	228.11
998.63	228.05
998.92	227.99
999.21	228.06
999.50	228.10
999.79	228.14
1000.08	228.11
1000.37	228.14
1000.66	228.18
1000.95	228.19
1001.24	228.22
1001.53	228.26
1001.82	228.15
1002.11	228.08
1002.40	228.08
1002.68	228.20
1002.97	228.30
1003.26	228.26
1003.55	228.25
1003.84	228.30
1004.13	228.34
1004.42	228.23
1004.71	228.28
1004.99	228.27
1005.28	228.35
1005.57	228.35
1005.86	228.32
1006.15	228.37
1006.44	228.24
1006.72	228.31
1007.01	228.22
1007.30	228.18
1007.59	228.22
1007.88	228.25
1008.17	228.33
1008.45	228.23
1008.74	228.17
1009.03	228.11
1009.32	228.13
1009.60	228.05
1009.89	228.08
1010.18	228.03
1010.47	228.02
1010.76	228.14
1011.04	228.13
1011.33	228.04
1011.62	228.07
1011.91	227.95
1012.19	227.99
1012.48	228.00
1012.77	227.90
1013.05	228.04
1013.34	228.03
1013.63	227.94
1013.92	228.04
1014.20	228.00
1014.49	228.00
1014.78	228.03
1015.06	228.04
1015.35	228.02
1015.64	228.06
1015.92	228.05
1016.21	228.00
1016.50	228.05
1016.78	227.91
1017.07	228.00
1017.36	227.94
1017.64	227.94
1017.93	228.06
1018.22	227.93
1018.50	228.03
1018.79	228.12
1019.08	228.01
1019.36	227.99
1019.65	228.01
1019.93	227.97
1020.22	228.01
1020.51	228.10
1020.79	228.13
1021.08	227.00
1021.36	228.70
1021.65	227.80
1021.94	228.20
1022.22	226.50
1022.51	227.80
1022.79	228.80
1023.08	228.20
1023.36	230.10
1023.65	229.00
>>>>>End Processed Spectral Data<<<<<
