SpectraSuite Data File
++++++++++++++++++++++++++++++++++++
Date: Fri Feb 01 17:32:53 EST 2013
User: group
Dark Spectrum Present: No
Reference Spectrum Present: No
Number of Sampled Component Spectra: 1
Spectrometers: USB2E7196
Integration Time (usec): 35000 (USB2E7196)
Spectra Averaged: 100 (USB2E7196)
Boxcar Smoothing: 10 (USB2E7196)
Correct for Electrical Dark: No (USB2E7196)
Strobe/Lamp Enabled: No (USB2E7196)
Correct for Detector Non-linearity: No (USB2E7196)
Correct for Stray Light: No (USB2E7196)
Number of Pixels in Processed Spectrum: 2048
>>>>>Begin Processed Spectral Data<<<<<
339.09	0.00
339.48	213.04
339.86	214.01
340.24	215.77
340.63	217.26
341.01	220.02
341.39	219.70
341.78	220.83
342.16	222.67
342.54	222.83
342.93	211.17
343.31	221.83
343.69	222.37
344.07	222.86
344.46	223.27
344.84	223.64
345.22	223.86
345.60	224.10
345.99	224.28
346.37	224.38
346.75	224.46
347.13	224.51
347.52	224.58
347.90	224.62
348.28	224.66
348.66	224.68
349.05	224.67
349.43	224.69
349.81	224.74
350.19	224.78
350.57	224.85
350.96	224.92
351.34	225.01
351.72	225.06
352.10	225.15
352.48	225.23
352.87	225.25
353.25	225.36
353.63	225.43
354.01	225.53
354.39	225.61
354.77	225.71
355.15	225.87
355.54	225.93
355.92	225.98
356.30	226.07
356.68	226.19
357.06	226.29
357.44	226.34
357.82	226.43
358.20	226.52
358.58	226.61
358.97	226.69
359.35	226.78
359.73	226.88
360.11	226.93
360.49	227.04
360.87	227.09
361.25	227.14
361.63	227.23
362.01	227.27
362.39	227.33
362.77	227.39
363.15	227.39
363.53	227.44
363.91	227.50
364.29	227.57
364.67	227.52
365.05	227.55
365.43	227.61
365.81	227.64
366.19	227.69
366.57	227.73
366.95	227.75
367.33	227.73
367.71	227.75
368.09	227.78
368.47	227.73
368.85	227.77
369.23	227.78
369.61	227.70
369.99	227.74
370.37	227.77
370.75	227.78
371.13	227.76
371.51	227.70
371.89	227.72
372.27	227.69
372.65	227.65
373.03	227.63
373.41	227.62
373.78	227.58
374.16	227.46
374.54	227.40
374.92	227.34
375.30	227.28
375.68	227.22
376.06	227.17
376.44	227.15
376.82	227.09
377.19	226.98
377.57	226.92
377.95	226.83
378.33	226.72
378.71	226.58
379.09	226.53
379.47	226.47
379.84	226.36
380.22	226.24
380.60	226.19
380.98	226.10
381.36	226.00
381.73	225.89
382.11	225.85
382.49	225.75
382.87	225.69
383.25	225.63
383.62	225.65
384.00	225.57
384.38	225.46
384.76	225.43
385.13	225.43
385.51	225.39
385.89	225.29
386.27	225.22
386.64	225.21
387.02	225.14
387.40	225.13
387.78	225.11
388.15	225.08
388.53	225.05
388.91	225.00
389.29	224.96
389.66	224.94
390.04	224.90
390.42	224.92
390.79	224.85
391.17	224.81
391.55	224.70
391.92	224.66
392.30	224.69
392.68	224.66
393.05	224.65
393.43	224.66
393.81	224.66
394.18	224.66
394.56	224.67
394.94	224.69
395.31	224.68
395.69	224.70
396.06	224.74
396.44	224.75
396.82	224.76
397.19	224.85
397.57	224.89
397.95	224.94
398.32	224.95
398.70	225.03
399.07	225.12
399.45	225.13
399.82	225.20
400.20	225.23
400.58	225.28
400.95	225.27
401.33	225.33
401.70	225.49
402.08	225.60
402.45	225.68
402.83	225.79
403.20	225.86
403.58	225.94
403.95	226.05
404.33	226.20
404.71	226.30
405.08	226.44
405.46	226.57
405.83	226.72
406.21	226.88
406.58	227.03
406.96	227.18
407.33	227.41
407.70	227.57
408.08	227.87
408.45	228.07
408.83	228.32
409.20	228.56
409.58	228.73
409.95	228.96
410.33	229.23
410.70	229.48
411.08	229.81
411.45	230.13
411.82	230.43
412.20	230.77
412.57	231.20
412.95	231.52
413.32	231.97
413.69	232.38
414.07	232.82
414.44	233.31
414.82	233.79
415.19	234.34
415.56	234.92
415.94	235.48
416.31	236.17
416.68	236.83
417.06	237.56
417.43	238.23
417.81	239.06
418.18	239.87
418.55	240.72
418.93	241.64
419.30	242.54
419.67	243.53
420.04	244.53
420.42	245.58
420.79	246.80
421.16	247.99
421.54	249.25
421.91	250.55
422.28	251.85
422.66	253.25
423.03	254.63
423.40	256.01
423.77	257.48
424.15	258.99
424.52	260.55
424.89	262.25
425.26	263.91
425.64	265.42
426.01	267.10
426.38	268.85
426.75	270.57
427.13	272.41
427.50	274.30
427.87	276.25
428.24	278.20
428.61	280.02
428.99	282.06
429.36	284.23
429.73	286.35
430.10	288.47
430.47	290.60
430.85	292.82
431.22	295.17
431.59	297.63
431.96	299.93
432.33	302.54
432.70	304.99
433.08	307.90
433.45	310.62
433.82	313.31
434.19	316.31
434.56	319.28
434.93	322.03
435.30	324.75
435.68	327.76
436.05	330.71
436.42	333.62
436.79	336.22
437.16	339.04
437.53	341.97
437.90	344.90
438.27	347.75
438.64	350.66
439.01	353.35
439.38	355.67
439.75	357.93
440.13	360.48
440.50	362.94
440.87	364.92
441.24	366.96
441.61	369.22
441.98	370.73
442.35	372.62
442.72	374.60
443.09	376.47
443.46	377.54
443.83	378.13
444.20	378.67
444.57	379.55
444.94	379.88
445.31	380.29
445.68	380.64
446.05	380.73
446.42	380.35
446.79	379.94
447.16	379.50
447.53	379.19
447.90	378.02
448.27	376.81
448.64	375.13
449.01	373.97
449.37	371.94
449.74	369.98
450.11	367.61
450.48	365.04
450.85	362.43
451.22	360.19
451.59	358.09
451.96	356.06
452.33	353.35
452.70	350.90
453.07	347.90
453.43	344.90
453.80	342.01
454.17	339.23
454.54	336.57
454.91	333.73
455.28	330.90
455.65	328.28
456.02	325.73
456.38	323.49
456.75	320.71
457.12	318.39
457.49	316.09
457.86	313.84
458.23	311.86
458.59	309.75
458.96	307.55
459.33	305.65
459.70	303.74
460.07	302.15
460.43	300.33
460.80	298.65
461.17	297.18
461.54	295.61
461.91	294.12
462.27	292.62
462.64	291.33
463.01	289.93
463.38	288.58
463.74	287.18
464.11	285.96
464.48	284.89
464.85	283.71
465.21	282.81
465.58	281.84
465.95	280.71
466.32	279.75
466.68	278.83
467.05	277.85
467.42	276.90
467.78	275.94
468.15	275.03
468.52	274.37
468.88	273.46
469.25	272.70
469.62	272.05
469.98	271.36
470.35	270.72
470.72	270.14
471.08	269.48
471.45	268.95
471.82	268.37
472.18	267.74
472.55	267.27
472.92	266.75
473.28	266.30
473.65	265.82
474.02	265.35
474.38	264.98
474.75	264.68
475.11	264.33
475.48	264.04
475.85	263.83
476.21	263.60
476.58	263.46
476.94	263.29
477.31	263.13
477.67	262.95
478.04	262.81
478.41	262.72
478.77	262.75
479.14	262.66
479.50	262.69
479.87	262.75
480.23	262.85
480.60	262.92
480.96	262.97
481.33	263.22
481.69	263.44
482.06	263.63
482.42	263.84
482.79	264.12
483.15	264.46
483.52	264.80
483.88	265.13
484.25	265.47
484.61	265.88
484.98	266.32
485.34	266.86
485.71	267.47
486.07	268.05
486.44	268.63
486.80	269.31
487.17	270.07
487.53	270.89
487.90	271.71
488.26	272.63
488.62	273.59
488.99	274.55
489.35	275.59
489.72	276.67
490.08	277.83
490.44	279.01
490.81	280.32
491.17	281.66
491.54	283.13
491.90	284.66
492.26	286.29
492.63	288.01
492.99	289.77
493.36	291.63
493.72	293.70
494.08	295.74
494.45	297.96
494.81	300.29
495.17	302.67
495.54	305.21
495.90	307.84
496.26	310.62
496.63	313.55
496.99	316.62
497.35	319.85
497.72	323.22
498.08	326.70
498.44	330.40
498.80	334.30
499.17	338.30
499.53	342.42
499.89	346.76
500.26	351.24
500.62	355.90
500.98	360.80
501.34	365.82
501.71	371.15
502.07	376.50
502.43	382.06
502.79	387.83
503.16	393.83
503.52	400.02
503.88	406.37
504.24	412.88
504.60	419.69
504.97	426.72
505.33	433.90
505.69	441.52
506.05	449.14
506.41	456.94
506.78	464.98
507.14	473.26
507.50	481.79
507.86	490.61
508.22	499.68
508.59	508.72
508.95	518.13
509.31	527.72
509.67	537.65
510.03	547.71
510.39	558.02
510.75	568.59
511.12	579.29
511.48	590.30
511.84	601.48
512.20	612.70
512.56	624.40
512.92	636.26
513.28	648.33
513.64	660.53
514.00	672.91
514.37	685.49
514.73	698.26
515.09	711.02
515.45	723.98
515.81	737.09
516.17	750.76
516.53	764.48
516.89	778.30
517.25	792.09
517.61	806.08
517.97	820.18
518.33	834.21
518.69	848.58
519.05	863.12
519.41	877.81
519.77	892.96
520.13	907.91
520.49	922.91
520.85	937.78
521.21	952.91
521.57	968.62
521.93	983.90
522.29	999.67
522.65	1015.41
523.01	1031.05
523.37	1046.60
523.73	1062.14
524.09	1077.69
524.45	1093.44
524.81	1109.58
525.17	1125.80
525.53	1142.04
525.89	1158.35
526.25	1174.69
526.61	1190.63
526.97	1206.90
527.33	1222.79
527.68	1238.95
528.04	1254.92
528.40	1271.05
528.76	1287.60
529.12	1303.77
529.48	1320.24
529.84	1335.85
530.20	1352.11
530.56	1368.60
530.91	1385.56
531.27	1401.92
531.63	1418.04
531.99	1434.09
532.35	1449.71
532.71	1465.24
533.07	1481.05
533.42	1496.59
533.78	1512.27
534.14	1528.03
534.50	1542.99
534.86	1558.51
535.21	1573.30
535.57	1588.84
535.93	1604.00
536.29	1618.46
536.65	1633.19
537.00	1647.50
537.36	1662.57
537.72	1676.55
538.08	1690.76
538.44	1704.27
538.79	1717.91
539.15	1731.16
539.51	1744.76
539.87	1758.84
540.22	1772.31
540.58	1785.88
540.94	1798.91
541.29	1811.38
541.65	1823.88
542.01	1836.98
542.37	1849.22
542.72	1861.47
543.08	1873.19
543.44	1885.34
543.79	1896.67
544.15	1907.50
544.51	1919.03
544.87	1929.89
545.22	1940.84
545.58	1951.13
545.94	1960.93
546.29	1970.86
546.65	1980.93
547.01	1990.19
547.36	1998.87
547.72	2007.52
548.07	2015.71
548.43	2024.08
548.79	2032.24
549.14	2040.26
549.50	2047.59
549.86	2055.35
550.21	2062.87
550.57	2070.27
550.92	2077.16
551.28	2084.49
551.64	2091.80
551.99	2098.52
552.35	2104.99
552.70	2111.40
553.06	2117.68
553.41	2124.34
553.77	2130.62
554.13	2136.88
554.48	2143.36
554.84	2149.31
555.19	2154.82
555.55	2160.19
555.90	2164.97
556.26	2170.36
556.61	2175.26
556.97	2180.17
557.32	2184.71
557.68	2189.16
558.03	2193.68
558.39	2197.59
558.74	2202.45
559.10	2206.69
559.45	2210.81
559.81	2215.41
560.16	2219.58
560.52	2223.11
560.87	2226.78
561.23	2229.87
561.58	2233.07
561.94	2235.92
562.29	2238.44
562.64	2241.72
563.00	2244.73
563.35	2248.71
563.71	2252.14
564.06	2255.57
564.42	2258.90
564.77	2261.86
565.12	2264.78
565.48	2267.24
565.83	2269.65
566.19	2271.50
566.54	2272.69
566.89	2274.28
567.25	2275.38
567.60	2277.19
567.96	2279.35
568.31	2280.66
568.66	2282.17
569.02	2283.23
569.37	2283.99
569.72	2285.41
570.08	2286.03
570.43	2286.34
570.78	2286.25
571.14	2285.23
571.49	2284.36
571.84	2284.20
572.20	2283.54
572.55	2282.80
572.90	2281.59
573.26	2280.72
573.61	2279.14
573.96	2278.02
574.31	2275.43
574.67	2272.77
575.02	2269.44
575.37	2266.41
575.72	2263.19
576.08	2260.10
576.43	2257.11
576.78	2254.13
577.13	2251.22
577.49	2248.18
577.84	2245.20
578.19	2241.70
578.54	2238.59
578.90	2234.94
579.25	2229.75
579.60	2225.21
579.95	2220.65
580.30	2215.94
580.66	2211.08
581.01	2206.61
581.36	2201.93
581.71	2198.30
582.06	2194.26
582.42	2190.18
582.77	2185.28
583.12	2180.98
583.47	2176.83
583.82	2172.44
584.17	2167.26
584.53	2162.01
584.88	2156.93
585.23	2151.64
585.58	2146.38
585.93	2141.11
586.28	2136.38
586.63	2131.85
586.98	2126.95
587.34	2122.47
587.69	2117.84
588.04	2112.90
588.39	2107.45
588.74	2101.21
589.09	2095.08
589.44	2088.71
589.79	2082.72
590.14	2077.42
590.49	2071.03
590.84	2064.68
591.19	2058.77
591.54	2052.56
591.89	2045.76
592.25	2039.28
592.60	2032.19
592.95	2024.94
593.30	2017.79
593.65	2010.45
594.00	2003.35
594.35	1996.23
594.70	1988.15
595.05	1981.25
595.40	1974.07
595.75	1966.69
596.10	1960.74
596.45	1954.34
596.80	1948.21
597.15	1941.93
597.50	1935.14
597.85	1928.80
598.19	1922.34
598.54	1915.49
598.89	1909.05
599.24	1903.04
599.59	1896.51
599.94	1890.30
600.29	1884.10
600.64	1877.42
600.99	1870.18
601.34	1863.60
601.69	1856.72
602.04	1850.06
602.39	1842.83
602.74	1836.07
603.08	1829.57
603.43	1822.92
603.78	1815.65
604.13	1808.50
604.48	1801.36
604.83	1794.43
605.18	1787.76
605.53	1779.98
605.87	1772.02
606.22	1764.77
606.57	1756.87
606.92	1749.34
607.27	1742.39
607.62	1735.47
607.96	1728.46
608.31	1722.03
608.66	1714.56
609.01	1707.07
609.36	1699.67
609.70	1691.63
610.05	1683.75
610.40	1676.10
610.75	1667.79
611.10	1660.15
611.44	1651.64
611.79	1643.43
612.14	1634.72
612.49	1625.43
612.83	1616.65
613.18	1608.47
613.53	1600.39
613.88	1591.87
614.22	1583.64
614.57	1574.93
614.92	1566.87
615.27	1559.38
615.61	1550.98
615.96	1542.71
616.31	1534.93
616.65	1527.40
617.00	1519.76
617.35	1511.88
617.70	1503.43
618.04	1494.92
618.39	1486.52
618.74	1479.01
619.08	1470.72
619.43	1463.10
619.78	1455.95
620.12	1448.97
620.47	1441.25
620.82	1432.94
621.16	1425.36
621.51	1417.59
621.85	1409.70
622.20	1401.15
622.55	1392.65
622.89	1384.60
623.24	1376.93
623.59	1369.48
623.93	1361.85
624.28	1354.47
624.62	1346.97
624.97	1339.68
625.32	1332.65
625.66	1325.51
626.01	1318.31
626.35	1310.88
626.70	1303.07
627.04	1295.40
627.39	1287.54
627.73	1280.00
628.08	1273.07
628.43	1265.89
628.77	1258.60
629.12	1251.07
629.46	1243.86
629.81	1236.16
630.15	1228.75
630.50	1221.25
630.84	1213.01
631.19	1205.01
631.53	1197.44
631.88	1189.70
632.22	1182.03
632.57	1174.71
632.91	1167.16
633.26	1159.52
633.60	1152.00
633.95	1144.61
634.29	1137.39
634.64	1130.53
634.98	1123.16
635.32	1115.94
635.67	1109.09
636.01	1102.28
636.36	1095.48
636.70	1088.76
637.05	1082.09
637.39	1075.65
637.73	1069.05
638.08	1063.11
638.42	1057.06
638.77	1050.54
639.11	1043.99
639.45	1037.57
639.80	1030.81
640.14	1024.32
640.49	1017.82
640.83	1011.45
641.17	1005.34
641.52	998.99
641.86	992.54
642.20	986.59
642.55	980.12
642.89	973.66
643.23	966.85
643.58	961.01
643.92	954.90
644.26	948.98
644.61	942.78
644.95	936.83
645.29	930.23
645.64	923.42
645.98	917.09
646.32	911.11
646.66	904.96
647.01	899.20
647.35	893.50
647.69	887.50
648.04	881.92
648.38	876.11
648.72	870.23
649.06	864.22
649.41	858.25
649.75	852.33
650.09	846.39
650.43	840.75
650.78	834.51
651.12	828.47
651.46	822.65
651.80	816.98
652.14	811.50
652.49	806.11
652.83	800.92
653.17	795.31
653.51	789.67
653.85	784.24
654.20	778.56
654.54	772.54
654.88	766.74
655.22	760.83
655.56	755.03
655.90	749.41
656.25	744.13
656.59	738.81
656.93	733.61
657.27	728.42
657.61	722.94
657.95	717.86
658.29	712.74
658.64	707.41
658.98	702.02
659.32	696.49
659.66	691.27
660.00	685.97
660.34	680.91
660.68	675.93
661.02	670.91
661.36	666.26
661.70	661.77
662.05	657.46
662.39	653.10
662.73	648.64
663.07	644.24
663.41	639.73
663.75	635.26
664.09	630.76
664.43	626.33
664.77	622.27
665.11	618.00
665.45	613.80
665.79	609.82
666.13	605.69
666.47	601.60
666.81	597.49
667.15	593.33
667.49	589.38
667.83	585.50
668.17	581.49
668.51	577.35
668.85	573.22
669.19	569.33
669.53	565.55
669.87	561.66
670.21	557.94
670.55	554.34
670.89	550.84
671.23	547.38
671.57	543.85
671.91	540.31
672.25	536.77
672.58	533.27
672.92	529.82
673.26	526.67
673.60	523.47
673.94	520.32
674.28	517.36
674.62	514.47
674.96	511.37
675.30	508.54
675.64	505.60
675.97	502.84
676.31	499.99
676.65	497.02
676.99	494.35
677.33	491.45
677.67	488.59
678.01	485.57
678.34	482.60
678.68	479.71
679.02	476.86
679.36	474.04
679.70	471.30
680.04	468.47
680.37	465.53
680.71	462.72
681.05	460.06
681.39	457.35
681.73	454.57
682.06	452.04
682.40	449.42
682.74	446.86
683.08	444.27
683.42	441.62
683.75	439.09
684.09	436.41
684.43	433.95
684.77	431.40
685.10	429.01
685.44	426.67
685.78	424.34
686.12	422.01
686.45	419.73
686.79	417.41
687.13	415.21
687.46	413.03
687.80	410.87
688.14	408.62
688.48	406.50
688.81	404.35
689.15	402.16
689.49	399.96
689.82	397.86
690.16	395.72
690.50	393.71
690.83	391.77
691.17	389.78
691.51	387.86
691.84	386.03
692.18	384.13
692.52	382.17
692.85	380.22
693.19	378.38
693.52	376.50
693.86	374.66
694.20	372.86
694.53	371.11
694.87	369.26
695.21	367.42
695.54	365.58
695.88	363.76
696.21	362.03
696.55	360.35
696.88	358.63
697.22	356.97
697.56	355.30
697.89	353.60
698.23	352.00
698.56	350.39
698.90	348.80
699.23	347.12
699.57	345.51
699.90	343.92
700.24	342.30
700.58	340.78
700.91	339.33
701.25	337.84
701.58	336.42
701.92	335.03
702.25	333.62
702.59	332.25
702.92	330.89
703.26	329.54
703.59	328.23
703.93	327.03
704.26	325.77
704.60	324.52
704.93	323.23
705.26	321.98
705.60	320.72
705.93	319.53
706.27	318.45
706.60	317.41
706.94	316.30
707.27	315.16
707.61	314.04
707.94	312.93
708.27	311.84
708.61	310.71
708.94	309.67
709.28	308.67
709.61	307.66
709.94	306.70
710.28	305.69
710.61	304.68
710.95	303.55
711.28	302.62
711.61	301.62
711.95	300.70
712.28	299.69
712.61	298.72
712.95	297.78
713.28	296.85
713.61	295.90
713.95	295.02
714.28	294.19
714.61	293.32
714.95	292.47
715.28	291.57
715.61	290.68
715.95	289.79
716.28	288.91
716.61	288.08
716.95	287.26
717.28	286.46
717.61	285.67
717.94	284.97
718.28	284.12
718.61	283.41
718.94	282.66
719.27	282.00
719.61	281.31
719.94	280.61
720.27	279.89
720.60	279.22
720.94	278.59
721.27	277.99
721.60	277.39
721.93	276.79
722.27	276.27
722.60	275.68
722.93	275.08
723.26	274.52
723.59	273.94
723.93	273.33
724.26	272.74
724.59	272.19
724.92	271.60
725.25	271.11
725.59	270.52
725.92	270.02
726.25	269.48
726.58	268.99
726.91	268.49
727.24	268.01
727.57	267.49
727.91	266.95
728.24	266.44
728.57	265.92
728.90	265.41
729.23	264.90
729.56	264.51
729.89	264.02
730.22	263.54
730.55	263.09
730.89	262.68
731.22	262.26
731.55	261.81
731.88	261.39
732.21	260.94
732.54	260.53
732.87	260.06
733.20	259.65
733.53	259.22
733.86	258.83
734.19	258.44
734.52	258.08
734.85	257.74
735.18	257.35
735.51	257.00
735.84	256.66
736.17	256.28
736.50	255.87
736.83	255.66
737.16	255.37
737.49	255.01
737.82	254.65
738.15	254.29
738.48	253.96
738.81	253.61
739.14	253.27
739.47	252.95
739.80	252.67
740.13	252.33
740.46	252.05
740.79	251.69
741.12	251.34
741.45	251.06
741.78	250.72
742.11	250.42
742.44	250.09
742.77	249.79
743.10	249.44
743.43	249.13
743.75	248.72
744.08	248.55
744.41	248.28
744.74	248.01
745.07	247.77
745.40	247.52
745.73	247.31
746.06	247.06
746.39	246.80
746.71	246.52
747.04	246.27
747.37	246.02
747.70	245.80
748.03	245.56
748.36	245.30
748.68	245.07
749.01	244.82
749.34	244.62
749.67	244.35
750.00	244.14
750.33	243.96
750.65	243.78
750.98	243.39
751.31	243.18
751.64	242.96
751.97	242.76
752.29	242.50
752.62	242.24
752.95	242.00
753.28	241.80
753.60	241.57
753.93	241.41
754.26	241.21
754.59	240.96
754.91	240.75
755.24	240.55
755.57	240.36
755.90	240.15
756.22	239.96
756.55	239.78
756.88	239.61
757.20	239.39
757.53	239.15
757.86	239.01
758.19	238.82
758.51	238.68
758.84	238.46
759.17	238.33
759.49	238.20
759.82	238.09
760.15	237.94
760.47	237.82
760.80	237.64
761.13	237.47
761.45	237.33
761.78	237.18
762.11	237.01
762.43	236.83
762.76	236.71
763.08	236.55
763.41	236.38
763.74	236.23
764.06	236.08
764.39	235.97
764.71	235.85
765.04	235.68
765.37	235.49
765.69	235.34
766.02	235.17
766.34	235.04
766.67	234.84
767.00	234.75
767.32	234.66
767.65	234.57
767.97	234.45
768.30	234.34
768.62	234.25
768.95	234.14
769.27	234.03
769.60	233.92
769.92	233.84
770.25	233.77
770.57	233.66
770.90	233.58
771.22	233.46
771.55	233.30
771.87	233.24
772.20	233.18
772.52	233.19
772.85	233.25
773.17	233.09
773.50	232.99
773.82	232.84
774.15	232.73
774.47	232.61
774.80	232.49
775.12	232.40
775.45	232.29
775.77	232.21
776.09	232.12
776.42	232.05
776.74	232.00
777.07	231.90
777.39	231.83
777.72	231.74
778.04	231.66
778.36	231.65
778.69	231.60
779.01	231.52
779.33	231.36
779.66	231.17
779.98	231.11
780.31	231.08
780.63	231.08
780.95	231.01
781.28	230.91
781.60	230.88
781.92	230.82
782.25	230.76
782.57	230.73
782.89	230.66
783.22	230.57
783.54	230.45
783.86	230.40
784.19	230.34
784.51	230.30
784.83	230.26
785.16	230.17
785.48	230.11
785.80	230.07
786.12	230.04
786.45	229.99
786.77	229.96
787.09	229.89
787.42	229.82
787.74	229.79
788.06	229.75
788.38	229.70
788.71	229.65
789.03	229.60
789.35	229.56
789.67	229.53
789.99	229.49
790.32	229.47
790.64	229.47
790.96	229.49
791.28	229.44
791.61	229.39
791.93	229.37
792.25	229.30
792.57	229.33
792.89	229.26
793.21	229.23
793.54	229.18
793.86	229.11
794.18	229.05
794.50	228.99
794.82	228.97
795.14	228.95
795.47	228.91
795.79	228.91
796.11	228.84
796.43	228.77
796.75	228.77
797.07	228.71
797.39	228.64
797.71	228.54
798.04	228.48
798.36	228.46
798.68	228.41
799.00	228.38
799.32	228.29
799.64	228.28
799.96	228.23
800.28	228.22
800.60	228.20
800.92	228.20
801.24	228.16
801.56	228.12
801.89	228.07
802.21	228.08
802.53	227.99
802.85	228.00
803.17	228.02
803.49	227.93
803.81	227.89
804.13	227.87
804.45	227.83
804.77	227.84
805.09	227.77
805.41	227.76
805.73	227.70
806.05	227.64
806.37	227.60
806.69	227.56
807.01	227.53
807.33	227.50
807.65	227.42
807.97	227.45
808.28	227.41
808.60	227.37
808.92	227.30
809.24	227.35
809.56	227.26
809.88	227.21
810.20	227.21
810.52	227.23
810.84	227.19
811.16	227.15
811.48	227.10
811.80	227.12
812.12	227.06
812.43	227.06
812.75	227.05
813.07	227.01
813.39	227.00
813.71	226.92
814.03	226.90
814.35	226.88
814.67	226.80
814.98	226.77
815.30	226.77
815.62	226.76
815.94	226.66
816.26	226.71
816.58	226.69
816.89	226.66
817.21	226.60
817.53	226.61
817.85	226.60
818.17	226.57
818.48	226.54
818.80	226.57
819.12	226.52
819.44	226.50
819.76	226.50
820.07	226.46
820.39	226.47
820.71	226.45
821.03	226.44
821.34	226.44
821.66	226.43
821.98	226.41
822.30	226.40
822.61	226.47
822.93	226.40
823.25	226.39
823.57	226.40
823.88	226.44
824.20	226.41
824.52	226.42
824.83	226.41
825.15	226.37
825.47	226.33
825.79	226.37
826.10	226.34
826.42	226.32
826.74	226.35
827.05	226.35
827.37	226.37
827.69	226.37
828.00	226.37
828.32	226.34
828.64	226.33
828.95	226.36
829.27	226.31
829.58	226.31
829.90	226.31
830.22	226.27
830.53	226.22
830.85	226.21
831.17	226.18
831.48	226.19
831.80	226.21
832.11	226.18
832.43	226.15
832.75	226.13
833.06	226.18
833.38	226.14
833.69	226.12
834.01	226.12
834.32	226.10
834.64	226.09
834.96	226.07
835.27	226.03
835.59	225.99
835.90	225.95
836.22	225.93
836.53	225.85
836.85	225.85
837.16	225.91
837.48	225.88
837.79	225.92
838.11	225.91
838.42	225.89
838.74	225.91
839.05	225.90
839.37	225.90
839.68	225.82
840.00	225.80
840.31	225.82
840.63	225.79
840.94	225.77
841.26	225.73
841.57	225.74
841.88	225.76
842.20	225.73
842.51	225.72
842.83	225.72
843.14	225.85
843.46	225.83
843.77	225.76
844.08	225.75
844.40	225.70
844.71	225.67
845.03	225.64
845.34	225.62
845.65	225.56
845.97	225.54
846.28	225.56
846.60	225.58
846.91	225.54
847.22	225.55
847.54	225.54
847.85	225.54
848.16	225.51
848.48	225.48
848.79	225.54
849.10	225.57
849.42	225.56
849.73	225.48
850.04	225.44
850.36	225.42
850.67	225.42
850.98	225.42
851.30	225.41
851.61	225.41
851.92	225.40
852.23	225.46
852.55	225.47
852.86	225.45
853.17	225.46
853.49	225.50
853.80	225.52
854.11	225.52
854.42	225.49
854.74	225.47
855.05	225.49
855.36	225.43
855.67	225.41
855.99	225.41
856.30	225.50
856.61	225.51
856.92	225.51
857.23	225.56
857.55	225.54
857.86	225.54
858.17	225.58
858.48	225.59
858.79	225.56
859.11	225.57
859.42	225.57
859.73	225.51
860.04	225.50
860.35	225.46
860.66	225.45
860.98	225.49
861.29	225.52
861.60	225.48
861.91	225.50
862.22	225.52
862.53	225.51
862.84	225.38
863.16	225.42
863.47	225.42
863.78	225.39
864.09	225.41
864.40	225.43
864.71	225.42
865.02	225.43
865.33	225.45
865.64	225.43
865.95	225.43
866.27	225.51
866.58	225.48
866.89	225.46
867.20	225.46
867.51	225.45
867.82	225.46
868.13	225.54
868.44	225.53
868.75	225.55
869.06	225.57
869.37	225.64
869.68	225.61
869.99	225.65
870.30	225.66
870.61	225.65
870.92	225.64
871.23	225.62
871.54	225.64
871.85	225.64
872.16	225.65
872.47	225.65
872.78	225.62
873.09	225.67
873.40	225.70
873.71	225.72
874.02	225.71
874.33	225.68
874.64	225.65
874.95	225.66
875.26	225.62
875.56	225.60
875.87	225.58
876.18	225.54
876.49	225.59
876.80	225.58
877.11	225.57
877.42	225.57
877.73	225.54
878.04	225.53
878.35	225.55
878.66	225.55
878.96	225.56
879.27	225.52
879.58	225.47
879.89	225.45
880.20	225.47
880.51	225.44
880.82	225.44
881.12	225.43
881.43	225.34
881.74	225.33
882.05	225.32
882.36	225.28
882.67	225.31
882.97	225.22
883.28	225.22
883.59	225.22
883.90	225.23
884.21	225.25
884.51	225.19
884.82	225.15
885.13	225.13
885.44	225.13
885.74	225.11
886.05	225.11
886.36	225.12
886.67	225.06
886.98	225.13
887.28	225.14
887.59	225.15
887.90	225.19
888.20	225.18
888.51	225.20
888.82	225.20
889.13	225.19
889.43	225.27
889.74	225.23
890.05	225.23
890.35	225.18
890.66	225.16
890.97	225.15
891.28	225.14
891.58	225.15
891.89	225.12
892.20	225.15
892.50	225.13
892.81	225.12
893.12	225.10
893.42	225.02
893.73	225.02
894.04	224.98
894.34	224.97
894.65	224.96
894.95	224.96
895.26	224.93
895.57	224.96
895.87	224.86
896.18	224.86
896.48	224.88
896.79	224.87
897.10	224.90
897.40	224.90
897.71	224.91
898.01	224.91
898.32	224.91
898.63	224.90
898.93	224.91
899.24	224.90
899.54	224.90
899.85	224.93
900.15	224.91
900.46	224.93
900.76	224.92
901.07	224.91
901.38	224.92
901.68	224.97
901.99	224.92
902.29	224.92
902.60	224.92
902.90	224.89
903.21	224.91
903.51	224.91
903.82	224.95
904.12	224.96
904.43	225.00
904.73	225.04
905.03	225.07
905.34	225.14
905.64	225.15
905.95	225.19
906.25	225.16
906.56	225.17
906.86	225.21
907.17	225.24
907.47	225.26
907.77	225.25
908.08	225.21
908.38	225.24
908.69	225.26
908.99	225.30
909.30	225.34
909.60	225.36
909.90	225.35
910.21	225.34
910.51	225.31
910.81	225.29
911.12	225.27
911.42	225.27
911.73	225.17
912.03	225.18
912.33	225.18
912.64	225.19
912.94	225.21
913.24	225.16
913.55	225.17
913.85	225.15
914.15	225.16
914.46	225.19
914.76	225.20
915.06	225.20
915.37	225.17
915.67	225.15
915.97	225.13
916.27	225.15
916.58	225.12
916.88	225.15
917.18	225.11
917.49	225.19
917.79	225.20
918.09	225.19
918.39	225.25
918.70	225.24
919.00	225.23
919.30	225.26
919.60	225.26
919.91	225.24
920.21	225.26
920.51	225.24
920.81	225.23
921.12	225.23
921.42	225.20
921.72	225.21
922.02	225.22
922.32	225.24
922.63	225.22
922.93	225.26
923.23	225.22
923.53	225.23
923.83	225.15
924.13	225.14
924.44	225.17
924.74	225.16
925.04	225.19
925.34	225.16
925.64	225.11
925.94	225.10
926.24	225.14
926.55	225.11
926.85	225.12
927.15	225.11
927.45	225.09
927.75	225.11
928.05	225.07
928.35	225.05
928.65	225.08
928.95	225.03
929.26	225.02
929.56	225.05
929.86	225.04
930.16	225.03
930.46	224.98
930.76	224.97
931.06	224.90
931.36	224.84
931.66	224.89
931.96	224.88
932.26	224.90
932.56	224.86
932.86	224.85
933.16	224.84
933.46	224.82
933.76	224.82
934.06	224.85
934.36	224.90
934.66	224.90
934.96	224.85
935.26	224.87
935.56	224.86
935.86	224.85
936.16	224.85
936.46	224.83
936.76	224.87
937.06	224.85
937.36	224.85
937.66	224.86
937.96	224.85
938.26	224.83
938.56	224.84
938.86	224.85
939.16	224.90
939.46	224.89
939.76	224.90
940.06	224.90
940.35	224.86
940.65	224.80
940.95	224.81
941.25	224.84
941.55	224.82
941.85	224.84
942.15	224.85
942.45	224.87
942.75	224.90
943.04	224.90
943.34	224.93
943.64	224.97
943.94	224.98
944.24	225.03
944.54	225.03
944.84	225.03
945.13	225.02
945.43	225.03
945.73	225.05
946.03	225.05
946.33	225.03
946.62	225.03
946.92	225.05
947.22	225.04
947.52	225.02
947.82	225.08
948.11	225.06
948.41	225.03
948.71	225.02
949.01	225.02
949.31	225.03
949.60	225.04
949.90	225.06
950.20	225.06
950.50	225.02
950.79	225.06
951.09	225.05
951.39	225.03
951.69	225.00
951.98	225.03
952.28	225.07
952.58	225.07
952.87	225.04
953.17	225.08
953.47	225.10
953.76	225.09
954.06	225.08
954.36	225.05
954.66	225.07
954.95	225.13
955.25	225.14
955.55	225.12
955.84	225.09
956.14	225.09
956.44	225.10
956.73	225.08
957.03	225.07
957.32	225.10
957.62	225.10
957.92	225.10
958.21	225.08
958.51	225.16
958.81	225.20
959.10	225.24
959.40	225.23
959.69	225.23
959.99	225.26
960.29	225.23
960.58	225.22
960.88	225.26
961.17	225.20
961.47	225.20
961.76	225.20
962.06	225.20
962.36	225.17
962.65	225.17
962.95	225.23
963.24	225.20
963.54	225.18
963.83	225.19
964.13	225.19
964.42	225.16
964.72	225.07
965.01	225.05
965.31	225.03
965.60	225.00
965.90	225.04
966.19	225.00
966.49	225.01
966.78	224.97
967.08	224.94
967.37	224.94
967.67	224.91
967.96	224.91
968.26	224.92
968.55	224.90
968.85	224.89
969.14	224.83
969.43	224.85
969.73	224.85
970.02	224.83
970.32	224.79
970.61	224.81
970.91	224.78
971.20	224.76
971.49	224.78
971.79	224.77
972.08	224.71
972.38	224.70
972.67	224.72
972.96	224.78
973.26	224.76
973.55	224.80
973.85	224.81
974.14	224.81
974.43	224.82
974.73	224.82
975.02	224.79
975.31	224.82
975.61	224.81
975.90	224.80
976.19	224.81
976.49	224.86
976.78	224.82
977.07	224.81
977.37	224.80
977.66	224.78
977.95	224.77
978.24	224.78
978.54	224.82
978.83	224.78
979.12	224.78
979.42	224.79
979.71	224.79
980.00	224.76
980.29	224.78
980.59	224.74
980.88	224.79
981.17	224.81
981.46	224.82
981.76	224.82
982.05	224.86
982.34	224.88
982.63	224.87
982.93	224.94
983.22	224.97
983.51	224.99
983.80	225.01
984.09	225.06
984.39	225.06
984.68	225.03
984.97	225.06
985.26	225.06
985.55	225.08
985.85	225.02
986.14	225.04
986.43	225.07
986.72	225.06
987.01	225.01
987.30	225.01
987.59	224.98
987.89	224.98
988.18	224.97
988.47	224.95
988.76	224.97
989.05	224.95
989.34	224.97
989.63	224.99
989.92	225.01
990.22	224.99
990.51	224.97
990.80	224.97
991.09	224.97
991.38	224.98
991.67	225.00
991.96	225.03
992.25	225.04
992.54	225.00
992.83	225.02
993.12	225.05
993.41	225.04
993.70	225.09
993.99	225.08
994.28	225.07
994.58	225.09
994.87	225.05
995.16	225.04
995.45	225.03
995.74	225.02
996.03	224.99
996.32	225.00
996.61	224.99
996.90	225.01
997.19	225.00
997.48	224.98
997.77	224.97
998.06	224.96
998.34	224.93
998.63	224.91
998.92	224.90
999.21	224.86
999.50	224.87
999.79	224.83
1000.08	224.81
1000.37	224.80
1000.66	224.76
1000.95	224.81
1001.24	224.80
1001.53	224.81
1001.82	224.79
1002.11	224.81
1002.40	224.80
1002.68	224.85
1002.97	224.87
1003.26	224.86
1003.55	224.85
1003.84	224.80
1004.13	224.83
1004.42	224.81
1004.71	224.82
1004.99	224.81
1005.28	224.87
1005.57	224.87
1005.86	224.83
1006.15	224.85
1006.44	224.81
1006.72	224.86
1007.01	224.79
1007.30	224.79
1007.59	224.77
1007.88	224.76
1008.17	224.72
1008.45	224.68
1008.74	224.63
1009.03	224.60
1009.32	224.57
1009.60	224.57
1009.89	224.53
1010.18	224.48
1010.47	224.51
1010.76	224.53
1011.04	224.52
1011.33	224.53
1011.62	224.51
1011.91	224.53
1012.19	224.51
1012.48	224.54
1012.77	224.51
1013.05	224.57
1013.34	224.56
1013.63	224.59
1013.92	224.58
1014.20	224.61
1014.49	224.61
1014.78	224.61
1015.06	224.61
1015.35	224.62
1015.64	224.64
1015.92	224.69
1016.21	224.68
1016.50	224.69
1016.78	224.63
1017.07	224.65
1017.36	224.58
1017.64	224.59
1017.93	224.58
1018.22	224.57
1018.50	224.57
1018.79	224.56
1019.08	224.52
1019.36	224.51
1019.65	224.48
1019.93	224.52
1020.22	224.54
1020.51	224.59
1020.79	224.62
1021.08	224.14
1021.36	224.73
1021.65	224.34
1021.94	224.61
1022.22	224.58
1022.51	224.59
1022.79	225.27
1023.08	225.16
1023.36	225.62
1023.65	224.65
>>>>>End Processed Spectral Data<<<<<
