SpectraSuite Data File
++++++++++++++++++++++++++++++++++++
Date: Fri Feb 01 16:28:49 EST 2013
User: group
Dark Spectrum Present: No
Reference Spectrum Present: No
Number of Sampled Component Spectra: 1
Spectrometers: USB2E7196
Integration Time (usec): 35000 (USB2E7196)
Spectra Averaged: 100 (USB2E7196)
Boxcar Smoothing: 10 (USB2E7196)
Correct for Electrical Dark: No (USB2E7196)
Strobe/Lamp Enabled: No (USB2E7196)
Correct for Detector Non-linearity: No (USB2E7196)
Correct for Stray Light: No (USB2E7196)
Number of Pixels in Processed Spectrum: 2048
>>>>>Begin Processed Spectral Data<<<<<
339.09	0.00
339.48	213.99
339.86	215.19
340.24	216.63
340.63	217.67
341.01	220.38
341.39	220.55
341.78	221.41
342.16	223.22
342.54	223.37
342.93	212.04
343.31	222.76
343.69	223.27
344.07	223.76
344.46	224.18
344.84	224.58
345.22	224.81
345.60	225.04
345.99	225.27
346.37	225.40
346.75	225.49
347.13	225.59
347.52	225.65
347.90	225.72
348.28	225.77
348.66	225.88
349.05	225.84
349.43	225.86
349.81	225.90
350.19	225.94
350.57	225.99
350.96	226.05
351.34	226.14
351.72	226.24
352.10	226.35
352.48	226.40
352.87	226.46
353.25	226.57
353.63	226.62
354.01	226.70
354.39	226.80
354.77	226.91
355.15	227.00
355.54	227.06
355.92	227.12
356.30	227.20
356.68	227.33
357.06	227.46
357.44	227.52
357.82	227.59
358.20	227.70
358.58	227.77
358.97	227.86
359.35	227.93
359.73	228.03
360.11	228.08
360.49	228.18
360.87	228.25
361.25	228.33
361.63	228.46
362.01	228.50
362.39	228.51
362.77	228.56
363.15	228.62
363.53	228.66
363.91	228.69
364.29	228.73
364.67	228.64
365.05	228.66
365.43	228.71
365.81	228.75
366.19	228.77
366.57	228.83
366.95	228.85
367.33	228.83
367.71	228.83
368.09	228.82
368.47	228.78
368.85	228.74
369.23	228.72
369.61	228.63
369.99	228.64
370.37	228.66
370.75	228.69
371.13	228.64
371.51	228.59
371.89	228.55
372.27	228.47
372.65	228.44
373.03	228.40
373.41	228.32
373.78	228.24
374.16	228.16
374.54	228.07
374.92	227.98
375.30	227.91
375.68	227.79
376.06	227.76
376.44	227.70
376.82	227.66
377.19	227.62
377.57	227.56
377.95	227.47
378.33	227.37
378.71	227.24
379.09	227.15
379.47	227.08
379.84	227.03
380.22	226.98
380.60	226.90
380.98	226.82
381.36	226.75
381.73	226.66
382.11	226.59
382.49	226.53
382.87	226.45
383.25	226.41
383.62	226.50
384.00	226.41
384.38	226.33
384.76	226.29
385.13	226.24
385.51	226.17
385.89	226.08
386.27	226.01
386.64	225.98
387.02	225.95
387.40	225.96
387.78	225.91
388.15	225.89
388.53	225.85
388.91	225.83
389.29	225.82
389.66	225.80
390.04	225.80
390.42	225.76
390.79	225.75
391.17	225.71
391.55	225.56
391.92	225.53
392.30	225.56
392.68	225.51
393.05	225.51
393.43	225.54
393.81	225.57
394.18	225.57
394.56	225.55
394.94	225.58
395.31	225.57
395.69	225.63
396.06	225.63
396.44	225.69
396.82	225.69
397.19	225.78
397.57	225.84
397.95	225.91
398.32	225.94
398.70	226.02
399.07	226.09
399.45	226.16
399.82	226.25
400.20	226.29
400.58	226.40
400.95	226.42
401.33	226.50
401.70	226.65
402.08	226.75
402.45	226.85
402.83	226.97
403.20	227.06
403.58	227.15
403.95	227.29
404.33	227.44
404.71	227.57
405.08	227.74
405.46	227.87
405.83	227.97
406.21	228.11
406.58	228.25
406.96	228.41
407.33	228.57
407.70	228.74
408.08	228.99
408.45	229.20
408.83	229.43
409.20	229.67
409.58	229.86
409.95	230.13
410.33	230.40
410.70	230.64
411.08	230.95
411.45	231.22
411.82	231.50
412.20	231.81
412.57	232.20
412.95	232.45
413.32	232.83
413.69	233.24
414.07	233.67
414.44	234.12
414.82	234.60
415.19	235.15
415.56	235.69
415.94	236.23
416.31	236.84
416.68	237.44
417.06	238.13
417.43	238.80
417.81	239.56
418.18	240.34
418.55	241.18
418.93	242.02
419.30	242.93
419.67	243.85
420.04	244.79
420.42	245.77
420.79	246.96
421.16	248.12
421.54	249.31
421.91	250.50
422.28	251.77
422.66	253.10
423.03	254.42
423.40	255.77
423.77	257.16
424.15	258.56
424.52	260.07
424.89	261.66
425.26	263.22
425.64	264.63
426.01	266.21
426.38	267.84
426.75	269.51
427.13	271.21
427.50	273.02
427.87	274.90
428.24	276.78
428.61	278.52
428.99	280.48
429.36	282.57
429.73	284.64
430.10	286.64
430.47	288.68
430.85	290.78
431.22	292.96
431.59	295.39
431.96	297.61
432.33	300.08
432.70	302.44
433.08	305.24
433.45	307.90
433.82	310.51
434.19	313.38
434.56	316.19
434.93	318.86
435.30	321.48
435.68	324.36
436.05	327.17
436.42	329.93
436.79	332.44
437.16	335.12
437.53	337.95
437.90	340.77
438.27	343.51
438.64	346.31
439.01	348.91
439.38	351.08
439.75	353.28
440.13	355.72
440.50	358.03
440.87	359.85
441.24	361.81
441.61	363.94
441.98	365.43
442.35	367.22
442.72	369.06
443.09	370.84
443.46	371.82
443.83	372.40
444.20	372.89
444.57	373.70
444.94	374.00
445.31	374.33
445.68	374.66
446.05	374.73
446.42	374.37
446.79	373.95
447.16	373.48
447.53	373.16
447.90	372.03
448.27	370.89
448.64	369.31
449.01	368.15
449.37	366.20
449.74	364.32
450.11	362.06
450.48	359.60
450.85	357.03
451.22	354.90
451.59	352.87
451.96	350.98
452.33	348.38
452.70	346.00
453.07	343.21
453.43	340.30
453.80	337.56
454.17	334.88
454.54	332.36
454.91	329.69
455.28	327.03
455.65	324.57
456.02	322.16
456.38	320.06
456.75	317.41
457.12	315.15
457.49	312.93
457.86	310.81
458.23	308.97
458.59	306.98
458.96	304.93
459.33	303.10
459.70	301.23
460.07	299.71
460.43	298.03
460.80	296.43
461.17	295.00
461.54	293.52
461.91	292.11
462.27	290.69
462.64	289.46
463.01	288.12
463.38	286.82
463.74	285.47
464.11	284.27
464.48	283.26
464.85	282.16
465.21	281.30
465.58	280.35
465.95	279.30
466.32	278.36
466.68	277.45
467.05	276.60
467.42	275.73
467.78	274.83
468.15	273.95
468.52	273.27
468.88	272.45
469.25	271.69
469.62	271.06
469.98	270.39
470.35	269.77
470.72	269.21
471.08	268.57
471.45	268.02
471.82	267.50
472.18	266.91
472.55	266.50
472.92	266.00
473.28	265.54
473.65	265.07
474.02	264.70
474.38	264.30
474.75	264.00
475.11	263.63
475.48	263.38
475.85	263.16
476.21	262.94
476.58	262.75
476.94	262.63
477.31	262.49
477.67	262.34
478.04	262.25
478.41	262.17
478.77	262.21
479.14	262.15
479.50	262.15
479.87	262.23
480.23	262.34
480.60	262.42
480.96	262.52
481.33	262.77
481.69	262.96
482.06	263.19
482.42	263.38
482.79	263.66
483.15	263.99
483.52	264.40
483.88	264.75
484.25	265.15
484.61	265.55
484.98	266.04
485.34	266.62
485.71	267.18
486.07	267.81
486.44	268.39
486.80	269.12
487.17	269.84
487.53	270.65
487.90	271.48
488.26	272.38
488.62	273.40
488.99	274.33
489.35	275.41
489.72	276.53
490.08	277.75
490.44	279.00
490.81	280.30
491.17	281.63
491.54	283.11
491.90	284.65
492.26	286.31
492.63	288.02
492.99	289.75
493.36	291.65
493.72	293.69
494.08	295.82
494.45	298.02
494.81	300.42
495.17	302.91
495.54	305.45
495.90	308.18
496.26	310.96
496.63	313.94
496.99	317.01
497.35	320.30
497.72	323.75
498.08	327.27
498.44	330.94
498.80	334.83
499.17	338.87
499.53	343.06
499.89	347.39
500.26	351.90
500.62	356.61
500.98	361.60
501.34	366.67
501.71	371.98
502.07	377.48
502.43	383.07
502.79	388.91
503.16	395.04
503.52	401.31
503.88	407.73
504.24	414.44
504.60	421.37
504.97	428.47
505.33	435.78
505.69	443.42
506.05	451.24
506.41	459.11
506.78	467.24
507.14	475.74
507.50	484.50
507.86	493.58
508.22	502.83
508.59	511.99
508.95	521.61
509.31	531.46
509.67	541.51
510.03	551.85
510.39	562.31
510.75	573.11
511.12	584.08
511.48	595.40
511.84	606.74
512.20	618.24
512.56	630.20
512.92	642.32
513.28	654.75
513.64	667.34
514.00	680.04
514.37	693.08
514.73	706.08
515.09	719.09
515.45	732.30
515.81	745.94
516.17	759.91
516.53	773.97
516.89	788.05
517.25	802.15
517.61	816.46
517.97	830.89
518.33	845.24
518.69	859.87
519.05	874.78
519.41	890.01
519.77	905.53
520.13	920.89
520.49	936.30
520.85	951.66
521.21	967.29
521.57	983.53
521.93	999.16
522.29	1015.46
522.65	1031.68
523.01	1047.83
523.37	1063.63
523.73	1079.76
524.09	1095.77
524.45	1112.01
524.81	1128.64
525.17	1145.45
525.53	1162.30
525.89	1179.15
526.25	1196.04
526.61	1212.32
526.97	1228.89
527.33	1245.25
527.68	1261.79
528.04	1278.19
528.40	1294.60
528.76	1311.51
529.12	1327.95
529.48	1344.78
529.84	1360.72
530.20	1377.19
530.56	1394.20
530.91	1411.60
531.27	1428.19
531.63	1444.60
531.99	1461.15
532.35	1477.02
532.71	1492.83
533.07	1508.86
533.42	1524.65
533.78	1540.54
534.14	1556.77
534.50	1572.06
534.86	1587.71
535.21	1602.90
535.57	1618.61
535.93	1634.01
536.29	1648.62
536.65	1663.56
537.00	1678.17
537.36	1693.35
537.72	1707.91
538.08	1722.14
538.44	1735.68
538.79	1749.59
539.15	1763.09
539.51	1776.72
539.87	1790.97
540.22	1804.48
540.58	1818.19
540.94	1831.44
541.29	1844.15
541.65	1856.72
542.01	1869.95
542.37	1882.22
542.72	1894.56
543.08	1906.27
543.44	1918.70
543.79	1929.95
544.15	1940.89
544.51	1952.40
544.87	1963.38
545.22	1973.93
545.58	1983.92
545.94	1993.84
546.29	2003.55
546.65	2013.49
547.01	2022.67
547.36	2031.38
547.72	2039.82
548.07	2047.67
548.43	2055.86
548.79	2064.05
549.14	2071.42
549.50	2078.58
549.86	2086.23
550.21	2093.41
550.57	2100.64
550.92	2107.08
551.28	2114.01
551.64	2120.98
551.99	2127.61
552.35	2133.72
552.70	2139.92
553.06	2146.07
553.41	2152.37
553.77	2158.39
554.13	2164.29
554.48	2170.38
554.84	2175.80
555.19	2181.16
555.55	2186.42
555.90	2190.74
556.26	2195.51
556.61	2200.35
556.97	2204.60
557.32	2208.74
557.68	2212.83
558.03	2217.11
558.39	2220.90
558.74	2225.65
559.10	2229.58
559.45	2233.23
559.81	2237.55
560.16	2241.43
560.52	2244.69
560.87	2248.02
561.23	2250.77
561.58	2253.74
561.94	2256.23
562.29	2258.64
562.64	2261.31
563.00	2263.86
563.35	2267.38
563.71	2270.45
564.06	2273.64
564.42	2276.60
564.77	2279.18
565.12	2281.60
565.48	2283.62
565.83	2285.42
566.19	2286.73
566.54	2287.57
566.89	2288.60
567.25	2289.14
567.60	2290.31
567.96	2291.95
568.31	2292.89
568.66	2294.00
569.02	2294.67
569.37	2295.08
569.72	2295.89
570.08	2296.15
570.43	2296.25
570.78	2295.87
571.14	2294.44
571.49	2293.24
571.84	2292.97
572.20	2291.83
572.55	2290.71
572.90	2289.09
573.26	2287.90
573.61	2286.17
573.96	2284.43
574.31	2281.71
574.67	2278.96
575.02	2275.52
575.37	2272.12
575.72	2268.37
576.08	2264.99
576.43	2261.71
576.78	2258.17
577.13	2255.13
577.49	2251.98
577.84	2248.46
578.19	2244.69
578.54	2241.11
578.90	2236.90
579.25	2231.37
579.60	2226.47
579.95	2221.54
580.30	2216.60
580.66	2211.37
581.01	2206.40
581.36	2201.71
581.71	2197.50
582.06	2193.00
582.42	2188.70
582.77	2183.78
583.12	2179.34
583.47	2174.82
583.82	2169.98
584.17	2164.64
584.53	2159.22
584.88	2153.71
585.23	2148.05
585.58	2142.54
585.93	2137.21
586.28	2132.44
586.63	2127.43
586.98	2122.48
587.34	2117.84
587.69	2112.88
588.04	2107.72
588.39	2102.29
588.74	2095.85
589.09	2089.81
589.44	2083.12
589.79	2077.10
590.14	2071.44
590.49	2064.82
590.84	2058.50
591.19	2052.48
591.54	2046.28
591.89	2038.96
592.25	2032.22
592.60	2025.11
592.95	2017.75
593.30	2010.37
593.65	2003.00
594.00	1996.12
594.35	1989.00
594.70	1981.08
595.05	1974.09
595.40	1966.84
595.75	1959.34
596.10	1953.28
596.45	1946.56
596.80	1940.44
597.15	1933.88
597.50	1926.73
597.85	1920.48
598.19	1913.78
598.54	1906.67
598.89	1899.94
599.24	1894.06
599.59	1887.24
599.94	1881.01
600.29	1874.67
600.64	1868.22
600.99	1860.74
601.34	1853.92
601.69	1846.92
602.04	1840.10
602.39	1832.76
602.74	1825.95
603.08	1819.34
603.43	1812.53
603.78	1805.27
604.13	1798.02
604.48	1790.63
604.83	1783.78
605.18	1776.84
605.53	1768.87
605.87	1760.92
606.22	1753.81
606.57	1745.87
606.92	1738.70
607.27	1731.58
607.62	1724.71
607.96	1717.44
608.31	1710.80
608.66	1703.20
609.01	1695.80
609.36	1688.21
609.70	1680.27
610.05	1672.25
610.40	1664.58
610.75	1656.37
611.10	1648.55
611.44	1640.19
611.79	1632.36
612.14	1623.86
612.49	1614.50
612.83	1606.16
613.18	1597.99
613.53	1589.87
613.88	1581.34
614.22	1573.16
614.57	1564.55
614.92	1556.46
615.27	1548.79
615.61	1540.50
615.96	1532.41
616.31	1524.65
616.65	1517.27
617.00	1509.65
617.35	1501.99
617.70	1493.56
618.04	1485.07
618.39	1476.91
618.74	1469.36
619.08	1460.94
619.43	1453.20
619.78	1446.38
620.12	1439.17
620.47	1431.64
620.82	1423.39
621.16	1416.03
621.51	1408.41
621.85	1400.74
622.20	1392.22
622.55	1383.93
622.89	1376.01
623.24	1368.38
623.59	1360.94
623.93	1353.43
624.28	1346.26
624.62	1338.78
624.97	1331.65
625.32	1324.88
625.66	1317.94
626.01	1310.67
626.35	1303.24
626.70	1295.65
627.04	1287.88
627.39	1280.11
627.73	1272.77
628.08	1265.91
628.43	1258.53
628.77	1251.16
629.12	1243.62
629.46	1236.47
629.81	1229.01
630.15	1221.79
630.50	1214.39
630.84	1206.24
631.19	1198.27
631.53	1190.71
631.88	1183.11
632.22	1175.44
632.57	1168.01
632.91	1160.36
633.26	1152.89
633.60	1145.56
633.95	1138.32
634.29	1131.36
634.64	1124.76
634.98	1117.34
635.32	1110.08
635.67	1103.55
636.01	1096.81
636.36	1090.04
636.70	1083.49
637.05	1076.95
637.39	1070.45
637.73	1063.91
638.08	1058.00
638.42	1051.93
638.77	1045.47
639.11	1038.78
639.45	1032.41
639.80	1025.76
640.14	1019.45
640.49	1013.00
640.83	1006.66
641.17	1000.42
641.52	994.03
641.86	987.52
642.20	981.62
642.55	975.44
642.89	968.88
643.23	962.49
643.58	956.75
643.92	950.56
644.26	944.46
644.61	938.48
644.95	932.40
645.29	925.84
645.64	919.15
645.98	912.72
646.32	907.00
646.66	901.00
647.01	895.19
647.35	889.50
647.69	883.59
648.04	878.07
648.38	872.35
648.72	866.37
649.06	860.36
649.41	854.56
649.75	848.52
650.09	842.63
650.43	836.74
650.78	830.52
651.12	824.61
651.46	818.86
651.80	813.10
652.14	807.81
652.49	802.46
652.83	797.34
653.17	791.71
653.51	785.97
653.85	780.55
654.20	774.91
654.54	768.80
654.88	763.05
655.22	757.12
655.56	751.39
655.90	745.97
656.25	740.70
656.59	735.30
656.93	730.26
657.27	725.06
657.61	719.71
657.95	714.57
658.29	709.53
658.64	704.29
658.98	699.04
659.32	693.54
659.66	688.30
660.00	682.95
660.34	678.07
660.68	673.17
661.02	668.22
661.36	663.52
661.70	659.10
662.05	654.79
662.39	650.50
662.73	646.01
663.07	641.61
663.41	637.16
663.75	632.66
664.09	628.08
664.43	623.73
664.77	619.58
665.11	615.36
665.45	611.16
665.79	607.02
666.13	602.85
666.47	598.72
666.81	594.59
667.15	590.50
667.49	586.58
667.83	582.73
668.17	578.68
668.51	574.65
668.85	570.61
669.19	566.75
669.53	562.84
669.87	558.95
670.21	555.24
670.55	551.56
670.89	548.13
671.23	544.67
671.57	541.12
671.91	537.57
672.25	534.02
672.58	530.45
672.92	527.12
673.26	523.93
673.60	520.81
673.94	517.66
674.28	514.72
674.62	511.69
674.96	508.57
675.30	505.65
675.64	502.65
675.97	499.82
676.31	496.92
676.65	494.07
676.99	491.35
677.33	488.45
677.67	485.68
678.01	482.65
678.34	479.63
678.68	476.76
679.02	473.87
679.36	471.08
679.70	468.40
680.04	465.58
680.37	462.71
680.71	459.91
681.05	457.27
681.39	454.57
681.73	451.96
682.06	449.38
682.40	446.87
682.74	444.38
683.08	441.81
683.42	439.20
683.75	436.67
684.09	434.16
684.43	431.67
684.77	429.15
685.10	426.77
685.44	424.48
685.78	422.21
686.12	420.00
686.45	417.72
686.79	415.39
687.13	413.21
687.46	411.06
687.80	408.91
688.14	406.73
688.48	404.71
688.81	402.45
689.15	400.33
689.49	398.15
689.82	396.05
690.16	394.00
690.50	392.06
690.83	390.10
691.17	388.12
691.51	386.23
691.84	384.40
692.18	382.46
692.52	380.50
692.85	378.53
693.19	376.62
693.52	374.82
693.86	373.04
694.20	371.25
694.53	369.42
694.87	367.57
695.21	365.78
695.54	363.92
695.88	362.22
696.21	360.50
696.55	358.80
696.88	357.12
697.22	355.41
697.56	353.83
697.89	352.18
698.23	350.55
698.56	348.95
698.90	347.34
699.23	345.72
699.57	344.15
699.90	342.60
700.24	341.05
700.58	339.52
700.91	338.02
701.25	336.59
701.58	335.24
701.92	333.90
702.25	332.49
702.59	331.11
702.92	329.77
703.26	328.46
703.59	327.20
703.93	326.02
704.26	324.81
704.60	323.48
704.93	322.20
705.26	320.97
705.60	319.76
705.93	318.62
706.27	317.57
706.60	316.53
706.94	315.45
707.27	314.34
707.61	313.28
707.94	312.24
708.27	311.14
708.61	310.09
708.94	309.06
709.28	308.11
709.61	307.14
709.94	306.19
710.28	305.18
710.61	304.18
710.95	303.11
711.28	302.17
711.61	301.20
711.95	300.31
712.28	299.39
712.61	298.42
712.95	297.50
713.28	296.63
713.61	295.73
713.95	294.86
714.28	294.03
714.61	293.16
714.95	292.32
715.28	291.46
715.61	290.57
715.95	289.69
716.28	288.82
716.61	288.00
716.95	287.15
717.28	286.41
717.61	285.64
717.94	284.88
718.28	284.07
718.61	283.33
718.94	282.62
719.27	281.92
719.61	281.23
719.94	280.56
720.27	279.82
720.60	279.12
720.94	278.49
721.27	277.86
721.60	277.29
721.93	276.69
722.27	276.10
722.60	275.55
722.93	274.97
723.26	274.41
723.59	273.80
723.93	273.24
724.26	272.65
724.59	272.11
724.92	271.58
725.25	271.09
725.59	270.60
725.92	270.07
726.25	269.57
726.58	269.06
726.91	268.53
727.24	268.06
727.57	267.60
727.91	267.07
728.24	266.62
728.57	266.12
728.90	265.62
729.23	265.18
729.56	264.74
729.89	264.31
730.22	263.83
730.55	263.41
730.89	262.97
731.22	262.55
731.55	262.08
731.88	261.68
732.21	261.25
732.54	260.85
732.87	260.44
733.20	260.01
733.53	259.68
733.86	259.36
734.19	258.96
734.52	258.60
734.85	258.31
735.18	257.86
735.51	257.49
735.84	257.14
736.17	256.77
736.50	256.37
736.83	256.13
737.16	255.81
737.49	255.47
737.82	255.12
738.15	254.78
738.48	254.42
738.81	254.09
739.14	253.73
739.47	253.39
739.80	253.09
740.13	252.84
740.46	252.49
740.79	252.17
741.12	251.84
741.45	251.54
741.78	251.22
742.11	250.98
742.44	250.68
742.77	250.42
743.10	250.13
743.43	249.84
743.75	249.48
744.08	249.36
744.41	249.09
744.74	248.82
745.07	248.53
745.40	248.34
745.73	248.11
746.06	247.85
746.39	247.60
746.71	247.32
747.04	247.06
747.37	246.81
747.70	246.57
748.03	246.34
748.36	246.14
748.68	245.88
749.01	245.62
749.34	245.40
749.67	245.16
750.00	244.90
750.33	244.76
750.65	244.53
750.98	244.14
751.31	243.89
751.64	243.69
751.97	243.57
752.29	243.38
752.62	243.10
752.95	242.89
753.28	242.65
753.60	242.45
753.93	242.26
754.26	242.07
754.59	241.80
754.91	241.60
755.24	241.35
755.57	241.16
755.90	240.96
756.22	240.78
756.55	240.59
756.88	240.43
757.20	240.17
757.53	239.99
757.86	239.85
758.19	239.74
758.51	239.58
758.84	239.34
759.17	239.13
759.49	238.98
759.82	238.87
760.15	238.75
760.47	238.56
760.80	238.39
761.13	238.22
761.45	238.08
761.78	237.91
762.11	237.80
762.43	237.65
762.76	237.52
763.08	237.36
763.41	237.20
763.74	237.05
764.06	236.90
764.39	236.75
764.71	236.60
765.04	236.41
765.37	236.27
765.69	236.13
766.02	236.01
766.34	235.88
766.67	235.72
767.00	235.61
767.32	235.56
767.65	235.46
767.97	235.37
768.30	235.24
768.62	235.15
768.95	235.00
769.27	234.88
769.60	234.81
769.92	234.66
770.25	234.58
770.57	234.46
770.90	234.35
771.22	234.22
771.55	234.14
771.87	234.06
772.20	233.96
772.52	233.93
772.85	233.95
773.17	233.86
773.50	233.75
773.82	233.64
774.15	233.52
774.47	233.38
774.80	233.28
775.12	233.22
775.45	233.12
775.77	233.05
776.09	232.96
776.42	232.88
776.74	232.85
777.07	232.76
777.39	232.68
777.72	232.60
778.04	232.56
778.36	232.44
778.69	232.36
779.01	232.29
779.33	232.20
779.66	232.03
779.98	231.97
780.31	231.93
780.63	231.89
780.95	231.83
781.28	231.76
781.60	231.67
781.92	231.59
782.25	231.53
782.57	231.47
782.89	231.39
783.22	231.32
783.54	231.22
783.86	231.17
784.19	231.11
784.51	231.10
784.83	231.00
785.16	230.96
785.48	230.91
785.80	230.86
786.12	230.80
786.45	230.75
786.77	230.69
787.09	230.65
787.42	230.57
787.74	230.53
788.06	230.50
788.38	230.47
788.71	230.46
789.03	230.42
789.35	230.40
789.67	230.37
789.99	230.34
790.32	230.31
790.64	230.26
790.96	230.31
791.28	230.24
791.61	230.25
791.93	230.23
792.25	230.23
792.57	230.26
792.89	230.18
793.21	230.14
793.54	230.08
793.86	230.02
794.18	229.96
794.50	229.92
794.82	229.90
795.14	229.89
795.47	229.85
795.79	229.80
796.11	229.75
796.43	229.71
796.75	229.66
797.07	229.64
797.39	229.64
797.71	229.54
798.04	229.51
798.36	229.47
798.68	229.45
799.00	229.39
799.32	229.31
799.64	229.32
799.96	229.29
800.28	229.29
800.60	229.27
800.92	229.27
801.24	229.24
801.56	229.21
801.89	229.18
802.21	229.13
802.53	229.14
802.85	229.14
803.17	229.17
803.49	229.14
803.81	229.11
804.13	229.08
804.45	229.03
804.77	229.02
805.09	229.00
805.41	228.94
805.73	228.94
806.05	228.91
806.37	228.88
806.69	228.84
807.01	228.81
807.33	228.79
807.65	228.77
807.97	228.79
808.28	228.74
808.60	228.72
808.92	228.70
809.24	228.72
809.56	228.65
809.88	228.60
810.20	228.58
810.52	228.55
810.84	228.51
811.16	228.52
811.48	228.50
811.80	228.49
812.12	228.48
812.43	228.46
812.75	228.42
813.07	228.37
813.39	228.38
813.71	228.37
814.03	228.34
814.35	228.31
814.67	228.26
814.98	228.21
815.30	228.19
815.62	228.15
815.94	228.05
816.26	228.10
816.58	228.06
816.89	228.06
817.21	228.04
817.53	228.00
817.85	227.96
818.17	227.94
818.48	227.88
818.80	227.85
819.12	227.82
819.44	227.81
819.76	227.81
820.07	227.77
820.39	227.74
820.71	227.71
821.03	227.66
821.34	227.59
821.66	227.59
821.98	227.56
822.30	227.57
822.61	227.60
822.93	227.49
823.25	227.47
823.57	227.46
823.88	227.42
824.20	227.36
824.52	227.37
824.83	227.34
825.15	227.34
825.47	227.32
825.79	227.29
826.10	227.26
826.42	227.23
826.74	227.20
827.05	227.16
827.37	227.18
827.69	227.16
828.00	227.18
828.32	227.15
828.64	227.11
828.95	227.12
829.27	227.10
829.58	227.15
829.90	227.15
830.22	227.13
830.53	227.10
830.85	227.13
831.17	227.07
831.48	227.06
831.80	227.06
832.11	227.04
832.43	227.01
832.75	226.98
833.06	227.04
833.38	227.01
833.69	227.00
834.01	226.98
834.32	226.95
834.64	226.90
834.96	226.94
835.27	226.92
835.59	226.90
835.90	226.87
836.22	226.81
836.53	226.77
836.85	226.75
837.16	226.87
837.48	226.88
837.79	226.93
838.11	226.93
838.42	226.93
838.74	226.95
839.05	226.95
839.37	226.94
839.68	226.84
840.00	226.86
840.31	226.89
840.63	226.84
840.94	226.87
841.26	226.87
841.57	226.86
841.88	226.86
842.20	226.83
842.51	226.79
842.83	226.80
843.14	226.88
843.46	226.88
843.77	226.82
844.08	226.81
844.40	226.75
844.71	226.73
845.03	226.69
845.34	226.65
845.65	226.65
845.97	226.67
846.28	226.72
846.60	226.72
846.91	226.70
847.22	226.72
847.54	226.72
847.85	226.71
848.16	226.68
848.48	226.66
848.79	226.71
849.10	226.75
849.42	226.76
849.73	226.68
850.04	226.66
850.36	226.61
850.67	226.64
850.98	226.64
851.30	226.65
851.61	226.63
851.92	226.67
852.23	226.72
852.55	226.71
852.86	226.68
853.17	226.68
853.49	226.70
853.80	226.72
854.11	226.74
854.42	226.80
854.74	226.79
855.05	226.82
855.36	226.78
855.67	226.77
855.99	226.77
856.30	226.86
856.61	226.86
856.92	226.87
857.23	226.87
857.55	226.88
857.86	226.89
858.17	226.90
858.48	226.87
858.79	226.83
859.11	226.81
859.42	226.80
859.73	226.79
860.04	226.77
860.35	226.76
860.66	226.73
860.98	226.71
861.29	226.70
861.60	226.65
861.91	226.66
862.22	226.64
862.53	226.60
862.84	226.51
863.16	226.58
863.47	226.56
863.78	226.52
864.09	226.50
864.40	226.45
864.71	226.49
865.02	226.51
865.33	226.48
865.64	226.49
865.95	226.49
866.27	226.54
866.58	226.57
866.89	226.54
867.20	226.52
867.51	226.51
867.82	226.55
868.13	226.58
868.44	226.59
868.75	226.62
869.06	226.64
869.37	226.64
869.68	226.56
869.99	226.58
870.30	226.60
870.61	226.59
870.92	226.60
871.23	226.58
871.54	226.57
871.85	226.60
872.16	226.60
872.47	226.59
872.78	226.54
873.09	226.56
873.40	226.55
873.71	226.55
874.02	226.55
874.33	226.51
874.64	226.50
874.95	226.50
875.26	226.47
875.56	226.43
875.87	226.42
876.18	226.43
876.49	226.49
876.80	226.47
877.11	226.49
877.42	226.46
877.73	226.46
878.04	226.43
878.35	226.40
878.66	226.43
878.96	226.43
879.27	226.39
879.58	226.35
879.89	226.33
880.20	226.38
880.51	226.35
880.82	226.33
881.12	226.34
881.43	226.29
881.74	226.28
882.05	226.29
882.36	226.29
882.67	226.31
882.97	226.20
883.28	226.21
883.59	226.20
883.90	226.24
884.21	226.23
884.51	226.28
884.82	226.29
885.13	226.25
885.44	226.26
885.74	226.29
886.05	226.28
886.36	226.28
886.67	226.24
886.98	226.29
887.28	226.33
887.59	226.32
887.90	226.33
888.20	226.33
888.51	226.38
888.82	226.34
889.13	226.33
889.43	226.41
889.74	226.39
890.05	226.36
890.35	226.34
890.66	226.31
890.97	226.28
891.28	226.26
891.58	226.26
891.89	226.24
892.20	226.20
892.50	226.22
892.81	226.24
893.12	226.24
893.42	226.20
893.73	226.19
894.04	226.20
894.34	226.23
894.65	226.20
894.95	226.16
895.26	226.18
895.57	226.25
895.87	226.16
896.18	226.17
896.48	226.21
896.79	226.20
897.10	226.22
897.40	226.23
897.71	226.25
898.01	226.26
898.32	226.26
898.63	226.24
898.93	226.23
899.24	226.21
899.54	226.20
899.85	226.20
900.15	226.16
900.46	226.15
900.76	226.15
901.07	226.17
901.38	226.16
901.68	226.16
901.99	226.09
902.29	226.12
902.60	226.10
902.90	226.07
903.21	226.07
903.51	226.07
903.82	226.10
904.12	226.08
904.43	226.09
904.73	226.10
905.03	226.11
905.34	226.20
905.64	226.21
905.95	226.20
906.25	226.20
906.56	226.22
906.86	226.21
907.17	226.19
907.47	226.19
907.77	226.17
908.08	226.16
908.38	226.17
908.69	226.16
908.99	226.17
909.30	226.16
909.60	226.17
909.90	226.17
910.21	226.13
910.51	226.15
910.81	226.14
911.12	226.12
911.42	226.13
911.73	226.02
912.03	226.02
912.33	226.02
912.64	226.04
912.94	226.01
913.24	225.99
913.55	226.00
913.85	225.99
914.15	226.03
914.46	226.02
914.76	226.01
915.06	226.02
915.37	226.02
915.67	226.01
915.97	226.00
916.27	225.96
916.58	225.94
916.88	225.92
917.18	225.90
917.49	225.99
917.79	225.98
918.09	226.00
918.39	226.05
918.70	226.07
919.00	226.06
919.30	226.13
919.60	226.16
919.91	226.16
920.21	226.19
920.51	226.16
920.81	226.14
921.12	226.13
921.42	226.10
921.72	226.09
922.02	226.12
922.32	226.13
922.63	226.15
922.93	226.23
923.23	226.23
923.53	226.23
923.83	226.15
924.13	226.19
924.44	226.18
924.74	226.16
925.04	226.20
925.34	226.18
925.64	226.15
925.94	226.13
926.24	226.18
926.55	226.16
926.85	226.18
927.15	226.19
927.45	226.21
927.75	226.22
928.05	226.26
928.35	226.23
928.65	226.23
928.95	226.22
929.26	226.18
929.56	226.21
929.86	226.20
930.16	226.19
930.46	226.16
930.76	226.19
931.06	226.15
931.36	226.07
931.66	226.09
931.96	226.06
932.26	226.04
932.56	225.98
932.86	225.96
933.16	225.96
933.46	225.94
933.76	225.92
934.06	225.94
934.36	225.96
934.66	225.97
934.96	225.99
935.26	226.00
935.56	225.98
935.86	225.94
936.16	225.93
936.46	225.90
936.76	225.89
937.06	225.86
937.36	225.87
937.66	225.91
937.96	225.89
938.26	225.89
938.56	225.90
938.86	225.91
939.16	225.95
939.46	225.97
939.76	225.99
940.06	225.98
940.35	225.94
940.65	225.86
940.95	225.86
941.25	225.80
941.55	225.77
941.85	225.78
942.15	225.80
942.45	225.82
942.75	225.79
943.04	225.79
943.34	225.81
943.64	225.81
943.94	225.79
944.24	225.78
944.54	225.82
944.84	225.83
945.13	225.81
945.43	225.78
945.73	225.77
946.03	225.76
946.33	225.76
946.62	225.75
946.92	225.76
947.22	225.77
947.52	225.79
947.82	225.79
948.11	225.78
948.41	225.77
948.71	225.77
949.01	225.81
949.31	225.81
949.60	225.79
949.90	225.80
950.20	225.82
950.50	225.84
950.79	225.81
951.09	225.78
951.39	225.79
951.69	225.78
951.98	225.83
952.28	225.83
952.58	225.85
952.87	225.88
953.17	225.92
953.47	225.92
953.76	225.90
954.06	225.92
954.36	225.92
954.66	225.92
954.95	225.93
955.25	225.97
955.55	225.98
955.84	225.98
956.14	225.98
956.44	225.96
956.73	225.97
957.03	225.97
957.32	226.00
957.62	225.96
957.92	225.99
958.21	225.96
958.51	226.07
958.81	226.09
959.10	226.10
959.40	226.12
959.69	226.14
959.99	226.18
960.29	226.17
960.58	226.16
960.88	226.20
961.17	226.17
961.47	226.18
961.76	226.18
962.06	226.19
962.36	226.17
962.65	226.19
962.95	226.18
963.24	226.17
963.54	226.16
963.83	226.18
964.13	226.20
964.42	226.19
964.72	226.11
965.01	226.09
965.31	226.08
965.60	226.05
965.90	226.10
966.19	226.07
966.49	226.06
966.78	226.09
967.08	226.10
967.37	226.10
967.67	226.04
967.96	226.06
968.26	226.06
968.55	226.11
968.85	226.08
969.14	226.08
969.43	226.10
969.73	226.11
970.02	226.12
970.32	226.09
970.61	226.06
970.91	226.03
971.20	226.01
971.49	225.99
971.79	225.99
972.08	225.90
972.38	225.90
972.67	225.90
972.96	225.91
973.26	225.89
973.55	225.93
973.85	225.96
974.14	225.93
974.43	225.94
974.73	225.89
975.02	225.89
975.31	225.89
975.61	225.86
975.90	225.84
976.19	225.79
976.49	225.77
976.78	225.78
977.07	225.77
977.37	225.81
977.66	225.81
977.95	225.80
978.24	225.84
978.54	225.86
978.83	225.84
979.12	225.82
979.42	225.81
979.71	225.79
980.00	225.78
980.29	225.80
980.59	225.77
980.88	225.81
981.17	225.82
981.46	225.80
981.76	225.83
982.05	225.83
982.34	225.87
982.63	225.90
982.93	225.89
983.22	225.94
983.51	225.93
983.80	225.93
984.09	225.92
984.39	225.90
984.68	225.87
984.97	225.87
985.26	225.88
985.55	225.90
985.85	225.88
986.14	225.92
986.43	225.91
986.72	225.90
987.01	225.86
987.30	225.82
987.59	225.82
987.89	225.83
988.18	225.84
988.47	225.82
988.76	225.79
989.05	225.83
989.34	225.81
989.63	225.86
989.92	225.85
990.22	225.82
990.51	225.79
990.80	225.80
991.09	225.84
991.38	225.81
991.67	225.78
991.96	225.76
992.25	225.75
992.54	225.76
992.83	225.75
993.12	225.75
993.41	225.79
993.70	225.85
993.99	225.85
994.28	225.85
994.58	225.87
994.87	225.87
995.16	225.84
995.45	225.81
995.74	225.74
996.03	225.76
996.32	225.84
996.61	225.89
996.90	225.89
997.19	225.87
997.48	225.88
997.77	225.88
998.06	225.89
998.34	225.87
998.63	225.83
998.92	225.85
999.21	225.87
999.50	225.89
999.79	225.84
1000.08	225.86
1000.37	225.89
1000.66	225.89
1000.95	225.91
1001.24	225.93
1001.53	225.95
1001.82	225.97
1002.11	225.96
1002.40	226.00
1002.68	226.02
1002.97	226.06
1003.26	226.08
1003.55	226.08
1003.84	226.09
1004.13	226.13
1004.42	226.15
1004.71	226.15
1004.99	226.14
1005.28	226.19
1005.57	226.16
1005.86	226.17
1006.15	226.15
1006.44	226.10
1006.72	226.11
1007.01	226.09
1007.30	226.09
1007.59	226.10
1007.88	226.09
1008.17	226.11
1008.45	226.06
1008.74	226.01
1009.03	225.96
1009.32	225.93
1009.60	225.93
1009.89	225.90
1010.18	225.87
1010.47	225.87
1010.76	225.89
1011.04	225.89
1011.33	225.85
1011.62	225.85
1011.91	225.88
1012.19	225.85
1012.48	225.87
1012.77	225.87
1013.05	225.94
1013.34	225.95
1013.63	225.93
1013.92	225.93
1014.20	225.93
1014.49	225.92
1014.78	225.94
1015.06	225.95
1015.35	225.94
1015.64	225.98
1015.92	226.02
1016.21	226.03
1016.50	226.02
1016.78	226.06
1017.07	226.09
1017.36	226.06
1017.64	226.04
1017.93	225.99
1018.22	225.99
1018.50	225.99
1018.79	225.97
1019.08	225.91
1019.36	225.89
1019.65	225.89
1019.93	225.92
1020.22	225.93
1020.51	225.98
1020.79	225.98
1021.08	225.43
1021.36	225.82
1021.65	225.67
1021.94	226.10
1022.22	225.83
1022.51	225.91
1022.79	226.27
1023.08	226.18
1023.36	227.27
1023.65	225.98
>>>>>End Processed Spectral Data<<<<<
