SpectraSuite Data File
++++++++++++++++++++++++++++++++++++
Date: Fri Feb 01 15:20:45 EST 2013
User: group
Dark Spectrum Present: No
Reference Spectrum Present: No
Number of Sampled Component Spectra: 1
Spectrometers: USB2E7196
Integration Time (usec): 35000 (USB2E7196)
Spectra Averaged: 100 (USB2E7196)
Boxcar Smoothing: 10 (USB2E7196)
Correct for Electrical Dark: No (USB2E7196)
Strobe/Lamp Enabled: No (USB2E7196)
Correct for Detector Non-linearity: No (USB2E7196)
Correct for Stray Light: No (USB2E7196)
Number of Pixels in Processed Spectrum: 2048
>>>>>Begin Processed Spectral Data<<<<<
339.09	0.00
339.48	215.08
339.86	216.19
340.24	218.18
340.63	219.12
341.01	222.07
341.39	221.89
341.78	223.55
342.16	224.21
342.54	225.28
342.93	213.48
343.31	224.30
343.69	224.83
344.07	225.30
344.46	225.69
344.84	226.06
345.22	226.29
345.60	226.54
345.99	226.71
346.37	226.84
346.75	226.94
347.13	227.00
347.52	227.07
347.90	227.13
348.28	227.15
348.66	227.17
349.05	227.15
349.43	227.19
349.81	227.24
350.19	227.25
350.57	227.31
350.96	227.36
351.34	227.39
351.72	227.47
352.10	227.58
352.48	227.67
352.87	227.74
353.25	227.80
353.63	227.86
354.01	227.92
354.39	227.99
354.77	228.08
355.15	228.15
355.54	228.23
355.92	228.25
356.30	228.33
356.68	228.45
357.06	228.50
357.44	228.53
357.82	228.57
358.20	228.67
358.58	228.73
358.97	228.75
359.35	228.83
359.73	228.87
360.11	228.90
360.49	228.97
360.87	229.01
361.25	229.06
361.63	229.14
362.01	229.21
362.39	229.26
362.77	229.28
363.15	229.30
363.53	229.28
363.91	229.31
364.29	229.35
364.67	229.26
365.05	229.26
365.43	229.28
365.81	229.33
366.19	229.38
366.57	229.40
366.95	229.41
367.33	229.41
367.71	229.42
368.09	229.44
368.47	229.41
368.85	229.41
369.23	229.45
369.61	229.36
369.99	229.33
370.37	229.34
370.75	229.32
371.13	229.30
371.51	229.28
371.89	229.25
372.27	229.19
372.65	229.19
373.03	229.15
373.41	229.09
373.78	229.04
374.16	228.90
374.54	228.80
374.92	228.74
375.30	228.70
375.68	228.60
376.06	228.54
376.44	228.44
376.82	228.36
377.19	228.26
377.57	228.25
377.95	228.13
378.33	228.03
378.71	227.91
379.09	227.85
379.47	227.78
379.84	227.74
380.22	227.68
380.60	227.60
380.98	227.52
381.36	227.47
381.73	227.34
382.11	227.31
382.49	227.25
382.87	227.19
383.25	227.13
383.62	227.19
384.00	227.12
384.38	227.07
384.76	227.04
385.13	227.00
385.51	226.92
385.89	226.88
386.27	226.80
386.64	226.77
387.02	226.73
387.40	226.71
387.78	226.64
388.15	226.57
388.53	226.50
388.91	226.50
389.29	226.45
389.66	226.47
390.04	226.44
390.42	226.45
390.79	226.39
391.17	226.34
391.55	226.22
391.92	226.18
392.30	226.20
392.68	226.20
393.05	226.21
393.43	226.21
393.81	226.22
394.18	226.23
394.56	226.26
394.94	226.31
395.31	226.30
395.69	226.34
396.06	226.44
396.44	226.51
396.82	226.56
397.19	226.67
397.57	226.74
397.95	226.79
398.32	226.83
398.70	226.93
399.07	227.04
399.45	227.11
399.82	227.22
400.20	227.30
400.58	227.38
400.95	227.41
401.33	227.52
401.70	227.70
402.08	227.79
402.45	227.91
402.83	228.02
403.20	228.13
403.58	228.25
403.95	228.36
404.33	228.52
404.71	228.64
405.08	228.80
405.46	228.92
405.83	229.07
406.21	229.23
406.58	229.42
406.96	229.59
407.33	229.79
407.70	229.99
408.08	230.27
408.45	230.46
408.83	230.71
409.20	230.95
409.58	231.12
409.95	231.43
410.33	231.66
410.70	231.92
411.08	232.24
411.45	232.56
411.82	232.89
412.20	233.23
412.57	233.65
412.95	233.95
413.32	234.36
413.69	234.77
414.07	235.21
414.44	235.70
414.82	236.15
415.19	236.69
415.56	237.26
415.94	237.77
416.31	238.45
416.68	239.07
417.06	239.79
417.43	240.47
417.81	241.23
418.18	242.05
418.55	242.90
418.93	243.78
419.30	244.63
419.67	245.52
420.04	246.48
420.42	247.46
420.79	248.64
421.16	249.80
421.54	250.99
421.91	252.22
422.28	253.45
422.66	254.80
423.03	256.12
423.40	257.46
423.77	258.88
424.15	260.27
424.52	261.78
424.89	263.37
425.26	264.98
425.64	266.42
426.01	268.02
426.38	269.66
426.75	271.33
427.13	273.08
427.50	274.88
427.87	276.76
428.24	278.61
428.61	280.32
428.99	282.27
429.36	284.37
429.73	286.43
430.10	288.45
430.47	290.51
430.85	292.61
431.22	294.83
431.59	297.24
431.96	299.52
432.33	302.00
432.70	304.38
433.08	307.15
433.45	309.80
433.82	312.40
434.19	315.28
434.56	318.12
434.93	320.80
435.30	323.45
435.68	326.32
436.05	329.14
436.42	331.98
436.79	334.51
437.16	337.17
437.53	339.99
437.90	342.84
438.27	345.55
438.64	348.41
439.01	351.00
439.38	353.21
439.75	355.41
440.13	357.94
440.50	360.29
440.87	362.18
441.24	364.12
441.61	366.33
441.98	367.85
442.35	369.63
442.72	371.47
443.09	373.32
443.46	374.35
443.83	374.98
444.20	375.50
444.57	376.31
444.94	376.64
445.31	377.01
445.68	377.36
446.05	377.45
446.42	377.01
446.79	376.63
447.16	376.21
447.53	375.82
447.90	374.66
448.27	373.50
448.64	371.91
449.01	370.76
449.37	368.73
449.74	366.82
450.11	364.57
450.48	362.11
450.85	359.55
451.22	357.40
451.59	355.32
451.96	353.39
452.33	350.82
452.70	348.47
453.07	345.63
453.43	342.70
453.80	339.94
454.17	337.30
454.54	334.70
454.91	331.93
455.28	329.23
455.65	326.70
456.02	324.24
456.38	322.04
456.75	319.37
457.12	317.10
457.49	314.87
457.86	312.69
458.23	310.78
458.59	308.74
458.96	306.64
459.33	304.82
459.70	302.93
460.07	301.42
460.43	299.67
460.80	298.04
461.17	296.58
461.54	295.08
461.91	293.66
462.27	292.21
462.64	290.97
463.01	289.64
463.38	288.38
463.74	287.05
464.11	285.94
464.48	284.91
464.85	283.81
465.21	282.92
465.58	281.99
465.95	280.91
466.32	279.96
466.68	279.05
467.05	278.13
467.42	277.21
467.78	276.26
468.15	275.37
468.52	274.68
468.88	273.84
469.25	273.04
469.62	272.39
469.98	271.76
470.35	271.12
470.72	270.49
471.08	269.78
471.45	269.18
471.82	268.61
472.18	268.01
472.55	267.53
472.92	267.00
473.28	266.53
473.65	266.05
474.02	265.64
474.38	265.26
474.75	264.90
475.11	264.60
475.48	264.33
475.85	264.11
476.21	263.89
476.58	263.68
476.94	263.54
477.31	263.35
477.67	263.17
478.04	263.03
478.41	262.99
478.77	263.03
479.14	263.01
479.50	262.97
479.87	263.04
480.23	263.16
480.60	263.27
480.96	263.35
481.33	263.56
481.69	263.74
482.06	263.97
482.42	264.20
482.79	264.41
483.15	264.75
483.52	265.12
483.88	265.45
484.25	265.84
484.61	266.31
484.98	266.77
485.34	267.35
485.71	267.94
486.07	268.55
486.44	269.14
486.80	269.81
487.17	270.55
487.53	271.37
487.90	272.21
488.26	273.17
488.62	274.16
488.99	275.17
489.35	276.21
489.72	277.33
490.08	278.52
490.44	279.76
490.81	281.04
491.17	282.36
491.54	283.85
491.90	285.35
492.26	286.96
492.63	288.68
492.99	290.45
493.36	292.37
493.72	294.39
494.08	296.46
494.45	298.74
494.81	301.13
495.17	303.55
495.54	306.12
495.90	308.77
496.26	311.57
496.63	314.50
496.99	317.61
497.35	320.88
497.72	324.29
498.08	327.80
498.44	331.46
498.80	335.38
499.17	339.42
499.53	343.62
499.89	347.96
500.26	352.48
500.62	357.14
500.98	362.12
501.34	367.23
501.71	372.56
502.07	377.97
502.43	383.56
502.79	389.40
503.16	395.40
503.52	401.65
503.88	408.05
504.24	414.67
504.60	421.52
504.97	428.65
505.33	435.95
505.69	443.66
506.05	451.50
506.41	459.40
506.78	467.52
507.14	475.94
507.50	484.72
507.86	493.68
508.22	502.83
508.59	512.00
508.95	521.53
509.31	531.31
509.67	541.41
510.03	551.66
510.39	562.26
510.75	573.08
511.12	583.97
511.48	595.33
511.84	606.76
512.20	618.32
512.56	630.21
512.92	642.42
513.28	654.70
513.64	667.19
514.00	679.94
514.37	692.99
514.73	706.07
515.09	719.08
515.45	732.46
515.81	746.12
516.17	760.15
516.53	774.27
516.89	788.46
517.25	802.64
517.61	817.05
517.97	831.45
518.33	845.96
518.69	860.82
519.05	875.84
519.41	891.07
519.77	906.59
520.13	922.16
520.49	937.53
520.85	953.06
521.21	968.78
521.57	985.00
521.93	1000.75
522.29	1017.12
522.65	1033.42
523.01	1049.70
523.37	1065.74
523.73	1082.00
524.09	1098.10
524.45	1114.40
524.81	1131.05
525.17	1148.01
525.53	1165.11
525.89	1182.03
526.25	1198.90
526.61	1215.38
526.97	1232.15
527.33	1248.78
527.68	1265.43
528.04	1281.96
528.40	1298.59
528.76	1315.78
529.12	1332.46
529.48	1349.42
529.84	1365.63
530.20	1382.30
530.56	1399.33
530.91	1416.84
531.27	1433.48
531.63	1450.18
531.99	1466.87
532.35	1482.96
532.71	1498.76
533.07	1514.92
533.42	1530.90
533.78	1546.97
534.14	1563.14
534.50	1578.63
534.86	1594.52
535.21	1609.72
535.57	1625.80
535.93	1641.45
536.29	1656.27
536.65	1671.44
537.00	1686.23
537.36	1701.61
537.72	1716.33
538.08	1730.86
538.44	1744.68
538.79	1758.79
539.15	1772.48
539.51	1786.36
539.87	1800.91
540.22	1814.83
540.58	1828.69
540.94	1842.18
541.29	1855.18
541.65	1868.17
542.01	1881.44
542.37	1893.71
542.72	1906.25
543.08	1918.04
543.44	1930.45
543.79	1941.62
544.15	1952.62
544.51	1964.28
544.87	1975.31
545.22	1986.10
545.58	1996.10
545.94	2005.88
546.29	2015.76
546.65	2025.69
547.01	2034.97
547.36	2043.52
547.72	2051.96
548.07	2059.86
548.43	2067.97
548.79	2076.09
549.14	2083.46
549.50	2090.88
549.86	2098.78
550.21	2106.05
550.57	2113.38
550.92	2119.99
551.28	2127.17
551.64	2134.25
551.99	2140.82
552.35	2147.04
552.70	2153.03
553.06	2159.23
553.41	2165.68
553.77	2171.76
554.13	2177.76
554.48	2183.89
554.84	2189.46
555.19	2194.81
555.55	2199.84
555.90	2204.17
556.26	2208.95
556.61	2213.71
556.97	2217.77
557.32	2221.88
557.68	2226.03
558.03	2230.27
558.39	2233.91
558.74	2238.52
559.10	2242.28
559.45	2245.79
559.81	2250.04
560.16	2254.00
560.52	2257.28
560.87	2260.70
561.23	2263.37
561.58	2266.39
561.94	2268.85
562.29	2271.15
562.64	2273.91
563.00	2276.75
563.35	2280.37
563.71	2283.51
564.06	2286.61
564.42	2289.52
564.77	2291.92
565.12	2294.17
565.48	2295.84
565.83	2297.73
566.19	2298.94
566.54	2299.90
566.89	2301.06
567.25	2301.48
567.60	2302.81
567.96	2304.29
568.31	2305.06
568.66	2305.99
569.02	2306.50
569.37	2306.82
569.72	2307.55
570.08	2307.45
570.43	2307.30
570.78	2306.55
571.14	2304.95
571.49	2303.67
571.84	2303.34
572.20	2302.15
572.55	2300.94
572.90	2299.37
573.26	2297.91
573.61	2296.21
573.96	2294.35
574.31	2291.36
574.67	2288.28
575.02	2284.53
575.37	2281.16
575.72	2277.15
576.08	2273.85
576.43	2270.44
576.78	2266.71
577.13	2263.53
577.49	2260.48
577.84	2256.92
578.19	2253.19
578.54	2249.40
578.90	2245.00
579.25	2239.33
579.60	2234.24
579.95	2229.24
580.30	2224.12
580.66	2218.93
581.01	2213.92
581.36	2208.97
581.71	2204.60
582.06	2200.03
582.42	2195.37
582.77	2190.02
583.12	2185.41
583.47	2180.42
583.82	2175.18
584.17	2169.74
584.53	2164.21
584.88	2158.41
585.23	2152.49
585.58	2146.94
585.93	2141.51
586.28	2136.81
586.63	2131.57
586.98	2126.51
587.34	2121.70
587.69	2116.70
588.04	2111.28
588.39	2105.29
588.74	2098.76
589.09	2092.53
589.44	2085.66
589.79	2079.58
590.14	2073.85
590.49	2067.24
590.84	2060.95
591.19	2054.94
591.54	2048.39
591.89	2040.74
592.25	2033.86
592.60	2026.60
592.95	2018.89
593.30	2011.41
593.65	2003.69
594.00	1996.79
594.35	1989.42
594.70	1981.30
595.05	1974.01
595.40	1966.60
595.75	1959.26
596.10	1952.94
596.45	1946.16
596.80	1939.96
597.15	1933.29
597.50	1926.23
597.85	1919.78
598.19	1912.98
598.54	1905.87
598.89	1899.35
599.24	1893.60
599.59	1886.93
599.94	1880.64
600.29	1874.41
600.64	1867.89
600.99	1860.33
601.34	1853.37
601.69	1846.38
602.04	1839.36
602.39	1832.04
602.74	1825.22
603.08	1818.45
603.43	1811.74
603.78	1804.36
604.13	1797.23
604.48	1789.92
604.83	1782.90
605.18	1775.83
605.53	1767.83
605.87	1759.81
606.22	1752.58
606.57	1744.67
606.92	1737.37
607.27	1730.18
607.62	1723.15
607.96	1715.79
608.31	1709.16
608.66	1701.44
609.01	1693.77
609.36	1686.31
609.70	1678.33
610.05	1670.21
610.40	1662.49
610.75	1654.08
611.10	1646.42
611.44	1638.07
611.79	1630.11
612.14	1621.46
612.49	1612.44
612.83	1604.10
613.18	1595.94
613.53	1587.84
613.88	1579.26
614.22	1570.90
614.57	1562.39
614.92	1554.29
615.27	1546.62
615.61	1538.25
615.96	1530.27
616.31	1522.76
616.65	1515.40
617.00	1507.79
617.35	1500.16
617.70	1491.75
618.04	1483.21
618.39	1475.08
618.74	1467.33
619.08	1458.97
619.43	1451.49
619.78	1444.54
620.12	1437.34
620.47	1429.70
620.82	1421.45
621.16	1413.97
621.51	1406.39
621.85	1398.67
622.20	1390.21
622.55	1381.98
622.89	1374.24
623.24	1366.74
623.59	1359.34
623.93	1351.76
624.28	1344.55
624.62	1337.06
624.97	1329.86
625.32	1323.20
625.66	1316.10
626.01	1308.87
626.35	1301.34
626.70	1293.58
627.04	1285.70
627.39	1277.94
627.73	1270.62
628.08	1263.69
628.43	1256.29
628.77	1248.83
629.12	1241.35
629.46	1234.07
629.81	1226.64
630.15	1219.31
630.50	1211.85
630.84	1203.72
631.19	1195.81
631.53	1188.33
631.88	1180.75
632.22	1173.20
632.57	1165.91
632.91	1158.36
633.26	1151.08
633.60	1143.87
633.95	1136.79
634.29	1129.81
634.64	1123.17
634.98	1115.81
635.32	1108.71
635.67	1102.22
636.01	1095.66
636.36	1088.90
636.70	1082.49
637.05	1075.92
637.39	1069.48
637.73	1062.95
638.08	1057.06
638.42	1051.14
638.77	1044.77
639.11	1038.08
639.45	1031.76
639.80	1025.08
640.14	1018.73
640.49	1012.16
640.83	1005.91
641.17	999.67
641.52	993.34
641.86	986.90
642.20	981.12
642.55	974.87
642.89	968.42
643.23	961.89
643.58	956.08
643.92	949.89
644.26	943.76
644.61	937.78
644.95	931.73
645.29	925.11
645.64	918.32
645.98	911.87
646.32	906.14
646.66	900.04
647.01	894.22
647.35	888.49
647.69	882.67
648.04	877.13
648.38	871.28
648.72	865.33
649.06	859.22
649.41	853.28
649.75	847.21
650.09	841.24
650.43	835.48
650.78	829.34
651.12	823.35
651.46	817.63
651.80	811.83
652.14	806.50
652.49	801.12
652.83	796.03
653.17	790.36
653.51	784.61
653.85	779.28
654.20	773.62
654.54	767.61
654.88	761.87
655.22	755.97
655.56	750.27
655.90	744.79
656.25	739.56
656.59	734.22
656.93	729.16
657.27	723.95
657.61	718.52
657.95	713.39
658.29	708.32
658.64	703.07
658.98	697.81
659.32	692.34
659.66	687.11
660.00	681.76
660.34	676.82
660.68	671.92
661.02	666.88
661.36	662.16
661.70	657.65
662.05	653.26
662.39	648.90
662.73	644.48
663.07	640.12
663.41	635.66
663.75	631.19
664.09	626.61
664.43	622.32
664.77	618.15
665.11	613.88
665.45	609.80
665.79	605.75
666.13	601.62
666.47	597.45
666.81	593.31
667.15	589.19
667.49	585.31
667.83	581.54
668.17	577.61
668.51	573.55
668.85	569.57
669.19	565.75
669.53	561.92
669.87	558.00
670.21	554.29
670.55	550.67
670.89	547.21
671.23	543.76
671.57	540.23
671.91	536.68
672.25	533.20
672.58	529.66
672.92	526.29
673.26	523.15
673.60	520.05
673.94	516.97
674.28	514.07
674.62	511.15
674.96	508.04
675.30	505.11
675.64	502.21
675.97	499.49
676.31	496.65
676.65	493.72
676.99	491.02
677.33	488.19
677.67	485.33
678.01	482.30
678.34	479.32
678.68	476.47
679.02	473.69
679.36	470.98
679.70	468.24
680.04	465.44
680.37	462.60
680.71	459.87
681.05	457.23
681.39	454.50
681.73	451.88
682.06	449.37
682.40	446.86
682.74	444.41
683.08	441.85
683.42	439.24
683.75	436.82
684.09	434.35
684.43	431.98
684.77	429.57
685.10	427.26
685.44	425.04
685.78	422.74
686.12	420.48
686.45	418.21
686.79	415.95
687.13	413.80
687.46	411.58
687.80	409.41
688.14	407.26
688.48	405.21
688.81	402.96
689.15	400.83
689.49	398.68
689.82	396.57
690.16	394.47
690.50	392.51
690.83	390.54
691.17	388.55
691.51	386.62
691.84	384.79
692.18	382.82
692.52	380.80
692.85	378.92
693.19	377.10
693.52	375.32
693.86	373.55
694.20	371.82
694.53	370.10
694.87	368.26
695.21	366.45
695.54	364.66
695.88	362.95
696.21	361.19
696.55	359.50
696.88	357.82
697.22	356.16
697.56	354.55
697.89	352.90
698.23	351.30
698.56	349.63
698.90	348.02
699.23	346.38
699.57	344.83
699.90	343.27
700.24	341.73
700.58	340.15
700.91	338.62
701.25	337.09
701.58	335.71
701.92	334.38
702.25	332.99
702.59	331.62
702.92	330.29
703.26	328.99
703.59	327.75
703.93	326.56
704.26	325.34
704.60	324.03
704.93	322.73
705.26	321.47
705.60	320.34
705.93	319.21
706.27	318.20
706.60	317.15
706.94	316.09
707.27	314.96
707.61	313.94
707.94	312.95
708.27	311.90
708.61	310.79
708.94	309.72
709.28	308.74
709.61	307.77
709.94	306.80
710.28	305.77
710.61	304.79
710.95	303.72
711.28	302.78
711.61	301.87
711.95	300.96
712.28	300.04
712.61	299.04
712.95	298.12
713.28	297.26
713.61	296.36
713.95	295.47
714.28	294.60
714.61	293.71
714.95	292.84
715.28	291.96
715.61	291.11
715.95	290.28
716.28	289.45
716.61	288.63
716.95	287.83
717.28	287.10
717.61	286.33
717.94	285.59
718.28	284.81
718.61	284.11
718.94	283.43
719.27	282.74
719.61	282.07
719.94	281.38
720.27	280.62
720.60	279.98
720.94	279.36
721.27	278.76
721.60	278.17
721.93	277.60
722.27	277.09
722.60	276.56
722.93	276.00
723.26	275.47
723.59	274.92
723.93	274.39
724.26	273.85
724.59	273.27
724.92	272.75
725.25	272.23
725.59	271.68
725.92	271.17
726.25	270.69
726.58	270.22
726.91	269.78
727.24	269.33
727.57	268.87
727.91	268.34
728.24	267.91
728.57	267.44
728.90	266.98
729.23	266.51
729.56	266.03
729.89	265.55
730.22	265.07
730.55	264.59
730.89	264.14
731.22	263.72
731.55	263.30
731.88	262.87
732.21	262.49
732.54	262.07
732.87	261.67
733.20	261.27
733.53	260.88
733.86	260.45
734.19	260.04
734.52	259.66
734.85	259.36
735.18	258.94
735.51	258.56
735.84	258.19
736.17	257.83
736.50	257.47
736.83	257.26
737.16	256.92
737.49	256.57
737.82	256.21
738.15	255.90
738.48	255.61
738.81	255.29
739.14	254.93
739.47	254.61
739.80	254.31
740.13	254.03
740.46	253.69
740.79	253.39
741.12	253.11
741.45	252.81
741.78	252.46
742.11	252.19
742.44	251.88
742.77	251.59
743.10	251.24
743.43	250.92
743.75	250.52
744.08	250.37
744.41	250.11
744.74	249.87
745.07	249.56
745.40	249.28
745.73	249.03
746.06	248.75
746.39	248.49
746.71	248.20
747.04	247.86
747.37	247.61
747.70	247.35
748.03	247.06
748.36	246.83
748.68	246.60
749.01	246.31
749.34	246.08
749.67	245.86
750.00	245.67
750.33	245.52
750.65	245.33
750.98	244.98
751.31	244.77
751.64	244.51
751.97	244.34
752.29	244.11
752.62	243.86
752.95	243.65
753.28	243.46
753.60	243.23
753.93	243.09
754.26	242.91
754.59	242.71
754.91	242.52
755.24	242.31
755.57	242.11
755.90	241.94
756.22	241.76
756.55	241.53
756.88	241.38
757.20	241.15
757.53	240.95
757.86	240.81
758.19	240.64
758.51	240.50
758.84	240.28
759.17	240.09
759.49	239.96
759.82	239.87
760.15	239.71
760.47	239.60
760.80	239.40
761.13	239.25
761.45	239.09
761.78	238.93
762.11	238.82
762.43	238.68
762.76	238.52
763.08	238.42
763.41	238.33
763.74	238.17
764.06	238.03
764.39	237.88
764.71	237.75
765.04	237.64
765.37	237.51
765.69	237.39
766.02	237.29
766.34	237.19
766.67	237.01
767.00	236.90
767.32	236.81
767.65	236.77
767.97	236.68
768.30	236.55
768.62	236.46
768.95	236.32
769.27	236.20
769.60	236.16
769.92	235.97
770.25	235.86
770.57	235.73
770.90	235.62
771.22	235.51
771.55	235.39
771.87	235.27
772.20	235.16
772.52	235.15
772.85	235.17
773.17	235.08
773.50	234.99
773.82	234.91
774.15	234.78
774.47	234.63
774.80	234.49
775.12	234.41
775.45	234.32
775.77	234.27
776.09	234.21
776.42	234.09
776.74	234.09
777.07	233.97
777.39	233.92
777.72	233.88
778.04	233.81
778.36	233.73
778.69	233.65
779.01	233.60
779.33	233.44
779.66	233.26
779.98	233.16
780.31	233.09
780.63	233.06
780.95	232.97
781.28	232.92
781.60	232.90
781.92	232.85
782.25	232.79
782.57	232.70
782.89	232.61
783.22	232.56
783.54	232.44
783.86	232.39
784.19	232.30
784.51	232.24
784.83	232.18
785.16	232.12
785.48	232.06
785.80	231.98
786.12	231.93
786.45	231.91
786.77	231.87
787.09	231.81
787.42	231.72
787.74	231.71
788.06	231.67
788.38	231.60
788.71	231.56
789.03	231.50
789.35	231.45
789.67	231.40
789.99	231.34
790.32	231.31
790.64	231.27
790.96	231.32
791.28	231.31
791.61	231.26
791.93	231.25
792.25	231.21
792.57	231.28
792.89	231.20
793.21	231.15
793.54	231.10
793.86	231.06
794.18	231.03
794.50	230.96
794.82	230.93
795.14	230.91
795.47	230.88
795.79	230.86
796.11	230.84
796.43	230.81
796.75	230.82
797.07	230.75
797.39	230.71
797.71	230.61
798.04	230.54
798.36	230.48
798.68	230.46
799.00	230.45
799.32	230.38
799.64	230.38
799.96	230.34
800.28	230.35
800.60	230.33
800.92	230.31
801.24	230.26
801.56	230.26
801.89	230.23
802.21	230.19
802.53	230.15
802.85	230.13
803.17	230.13
803.49	230.09
803.81	230.07
804.13	230.06
804.45	230.03
804.77	230.05
805.09	230.03
805.41	229.99
805.73	229.95
806.05	229.86
806.37	229.85
806.69	229.82
807.01	229.77
807.33	229.75
807.65	229.67
807.97	229.70
808.28	229.61
808.60	229.59
808.92	229.55
809.24	229.58
809.56	229.55
809.88	229.53
810.20	229.49
810.52	229.51
810.84	229.47
811.16	229.40
811.48	229.34
811.80	229.34
812.12	229.30
812.43	229.30
812.75	229.28
813.07	229.24
813.39	229.22
813.71	229.19
814.03	229.16
814.35	229.15
814.67	229.11
814.98	229.07
815.30	229.02
815.62	228.98
815.94	228.89
816.26	228.91
816.58	228.84
816.89	228.82
817.21	228.75
817.53	228.74
817.85	228.72
818.17	228.71
818.48	228.67
818.80	228.68
819.12	228.65
819.44	228.65
819.76	228.62
820.07	228.59
820.39	228.57
820.71	228.55
821.03	228.57
821.34	228.53
821.66	228.55
821.98	228.59
822.30	228.58
822.61	228.66
822.93	228.60
823.25	228.61
823.57	228.59
823.88	228.62
824.20	228.62
824.52	228.66
824.83	228.64
825.15	228.65
825.47	228.65
825.79	228.63
826.10	228.59
826.42	228.60
826.74	228.63
827.05	228.59
827.37	228.59
827.69	228.55
828.00	228.57
828.32	228.55
828.64	228.50
828.95	228.53
829.27	228.47
829.58	228.45
829.90	228.46
830.22	228.45
830.53	228.42
830.85	228.38
831.17	228.35
831.48	228.35
831.80	228.35
832.11	228.31
832.43	228.32
832.75	228.36
833.06	228.41
833.38	228.40
833.69	228.44
834.01	228.44
834.32	228.47
834.64	228.46
834.96	228.44
835.27	228.43
835.59	228.41
835.90	228.39
836.22	228.36
836.53	228.33
836.85	228.33
837.16	228.41
837.48	228.40
837.79	228.44
838.11	228.44
838.42	228.42
838.74	228.44
839.05	228.39
839.37	228.36
839.68	228.32
840.00	228.27
840.31	228.26
840.63	228.25
840.94	228.20
841.26	228.17
841.57	228.21
841.88	228.24
842.20	228.22
842.51	228.22
842.83	228.22
843.14	228.32
843.46	228.29
843.77	228.27
844.08	228.27
844.40	228.20
844.71	228.20
845.03	228.17
845.34	228.15
845.65	228.15
845.97	228.14
846.28	228.11
846.60	228.13
846.91	228.11
847.22	228.11
847.54	228.14
847.85	228.15
848.16	228.14
848.48	228.09
848.79	228.13
849.10	228.14
849.42	228.16
849.73	228.07
850.04	228.08
850.36	228.00
850.67	228.02
850.98	228.00
851.30	227.99
851.61	227.96
851.92	227.92
852.23	227.97
852.55	227.96
852.86	227.94
853.17	227.94
853.49	227.92
853.80	227.93
854.11	227.90
854.42	227.90
854.74	227.86
855.05	227.89
855.36	227.81
855.67	227.78
855.99	227.78
856.30	227.86
856.61	227.82
856.92	227.83
857.23	227.81
857.55	227.82
857.86	227.80
858.17	227.83
858.48	227.84
858.79	227.79
859.11	227.79
859.42	227.79
859.73	227.77
860.04	227.77
860.35	227.71
860.66	227.68
860.98	227.68
861.29	227.67
861.60	227.64
861.91	227.68
862.22	227.65
862.53	227.64
862.84	227.54
863.16	227.56
863.47	227.52
863.78	227.51
864.09	227.51
864.40	227.52
864.71	227.55
865.02	227.54
865.33	227.55
865.64	227.53
865.95	227.55
866.27	227.61
866.58	227.60
866.89	227.64
867.20	227.67
867.51	227.65
867.82	227.67
868.13	227.72
868.44	227.67
868.75	227.69
869.06	227.70
869.37	227.70
869.68	227.69
869.99	227.73
870.30	227.74
870.61	227.74
870.92	227.72
871.23	227.71
871.54	227.76
871.85	227.80
872.16	227.84
872.47	227.81
872.78	227.77
873.09	227.77
873.40	227.75
873.71	227.72
874.02	227.73
874.33	227.69
874.64	227.67
874.95	227.70
875.26	227.67
875.56	227.67
875.87	227.68
876.18	227.70
876.49	227.81
876.80	227.78
877.11	227.76
877.42	227.77
877.73	227.75
878.04	227.72
878.35	227.69
878.66	227.67
878.96	227.66
879.27	227.63
879.58	227.62
879.89	227.64
880.20	227.68
880.51	227.65
880.82	227.69
881.12	227.65
881.43	227.64
881.74	227.67
882.05	227.66
882.36	227.65
882.67	227.63
882.97	227.53
883.28	227.55
883.59	227.57
883.90	227.57
884.21	227.56
884.51	227.55
884.82	227.55
885.13	227.56
885.44	227.58
885.74	227.58
886.05	227.58
886.36	227.56
886.67	227.50
886.98	227.55
887.28	227.53
887.59	227.57
887.90	227.55
888.20	227.50
888.51	227.51
888.82	227.49
889.13	227.50
889.43	227.56
889.74	227.52
890.05	227.52
890.35	227.47
890.66	227.44
890.97	227.43
891.28	227.39
891.58	227.36
891.89	227.34
892.20	227.31
892.50	227.29
892.81	227.29
893.12	227.30
893.42	227.27
893.73	227.25
894.04	227.26
894.34	227.27
894.65	227.28
894.95	227.26
895.26	227.24
895.57	227.25
895.87	227.13
896.18	227.19
896.48	227.18
896.79	227.20
897.10	227.22
897.40	227.24
897.71	227.24
898.01	227.22
898.32	227.24
898.63	227.24
898.93	227.26
899.24	227.25
899.54	227.24
899.85	227.22
900.15	227.23
900.46	227.23
900.76	227.21
901.07	227.20
901.38	227.21
901.68	227.22
901.99	227.20
902.29	227.24
902.60	227.21
902.90	227.22
903.21	227.23
903.51	227.26
903.82	227.29
904.12	227.33
904.43	227.37
904.73	227.34
905.03	227.35
905.34	227.46
905.64	227.45
905.95	227.44
906.25	227.48
906.56	227.46
906.86	227.49
907.17	227.50
907.47	227.53
907.77	227.54
908.08	227.49
908.38	227.51
908.69	227.53
908.99	227.54
909.30	227.56
909.60	227.56
909.90	227.55
910.21	227.53
910.51	227.51
910.81	227.50
911.12	227.57
911.42	227.58
911.73	227.48
912.03	227.53
912.33	227.55
912.64	227.52
912.94	227.52
913.24	227.49
913.55	227.51
913.85	227.48
914.15	227.51
914.46	227.56
914.76	227.56
915.06	227.52
915.37	227.52
915.67	227.48
915.97	227.46
916.27	227.43
916.58	227.41
916.88	227.40
917.18	227.39
917.49	227.40
917.79	227.41
918.09	227.42
918.39	227.42
918.70	227.42
919.00	227.41
919.30	227.45
919.60	227.41
919.91	227.42
920.21	227.43
920.51	227.39
920.81	227.37
921.12	227.36
921.42	227.37
921.72	227.35
922.02	227.35
922.32	227.35
922.63	227.34
922.93	227.37
923.23	227.35
923.53	227.32
923.83	227.23
924.13	227.25
924.44	227.22
924.74	227.21
925.04	227.23
925.34	227.20
925.64	227.16
925.94	227.17
926.24	227.18
926.55	227.13
926.85	227.11
927.15	227.12
927.45	227.10
927.75	227.06
928.05	227.08
928.35	227.06
928.65	227.07
928.95	227.08
929.26	227.03
929.56	227.04
929.86	227.06
930.16	227.08
930.46	227.03
930.76	227.04
931.06	227.02
931.36	227.01
931.66	227.01
931.96	227.05
932.26	227.06
932.56	227.04
932.86	227.05
933.16	227.06
933.46	227.04
933.76	227.03
934.06	227.07
934.36	227.08
934.66	227.08
934.96	227.07
935.26	227.09
935.56	227.14
935.86	227.12
936.16	227.10
936.46	227.11
936.76	227.10
937.06	227.09
937.36	227.10
937.66	227.10
937.96	227.11
938.26	227.05
938.56	227.04
938.86	227.03
939.16	227.09
939.46	227.12
939.76	227.11
940.06	227.09
940.35	227.08
940.65	227.04
940.95	227.08
941.25	227.08
941.55	227.06
941.85	227.05
942.15	227.09
942.45	227.12
942.75	227.10
943.04	227.12
943.34	227.16
943.64	227.14
943.94	227.13
944.24	227.14
944.54	227.16
944.84	227.17
945.13	227.17
945.43	227.15
945.73	227.14
946.03	227.16
946.33	227.23
946.62	227.23
946.92	227.23
947.22	227.22
947.52	227.22
947.82	227.24
948.11	227.24
948.41	227.22
948.71	227.20
949.01	227.22
949.31	227.20
949.60	227.20
949.90	227.21
950.20	227.19
950.50	227.22
950.79	227.23
951.09	227.25
951.39	227.31
951.69	227.28
951.98	227.30
952.28	227.33
952.58	227.31
952.87	227.30
953.17	227.32
953.47	227.34
953.76	227.36
954.06	227.34
954.36	227.32
954.66	227.33
954.95	227.40
955.25	227.43
955.55	227.42
955.84	227.40
956.14	227.42
956.44	227.42
956.73	227.40
957.03	227.42
957.32	227.36
957.62	227.32
957.92	227.34
958.21	227.34
958.51	227.44
958.81	227.44
959.10	227.47
959.40	227.50
959.69	227.51
959.99	227.53
960.29	227.59
960.58	227.60
960.88	227.63
961.17	227.61
961.47	227.58
961.76	227.60
962.06	227.65
962.36	227.60
962.65	227.64
962.95	227.62
963.24	227.59
963.54	227.61
963.83	227.61
964.13	227.60
964.42	227.56
964.72	227.49
965.01	227.52
965.31	227.51
965.60	227.48
965.90	227.49
966.19	227.44
966.49	227.40
966.78	227.37
967.08	227.34
967.37	227.34
967.67	227.32
967.96	227.30
968.26	227.28
968.55	227.30
968.85	227.29
969.14	227.29
969.43	227.28
969.73	227.27
970.02	227.27
970.32	227.27
970.61	227.26
970.91	227.23
971.20	227.17
971.49	227.12
971.79	227.12
972.08	227.05
972.38	227.06
972.67	227.03
972.96	227.05
973.26	227.02
973.55	227.02
973.85	227.02
974.14	227.03
974.43	227.00
974.73	226.99
975.02	226.96
975.31	226.95
975.61	226.96
975.90	226.95
976.19	226.92
976.49	226.92
976.78	226.92
977.07	226.89
977.37	226.90
977.66	226.94
977.95	226.90
978.24	226.92
978.54	226.93
978.83	226.92
979.12	226.92
979.42	226.97
979.71	226.94
980.00	226.93
980.29	226.94
980.59	226.97
980.88	226.96
981.17	226.96
981.46	226.95
981.76	226.94
982.05	226.96
982.34	226.96
982.63	226.96
982.93	226.98
983.22	226.98
983.51	227.00
983.80	226.97
984.09	227.01
984.39	226.98
984.68	226.98
984.97	226.99
985.26	226.99
985.55	226.96
985.85	226.98
986.14	226.99
986.43	226.96
986.72	226.90
987.01	226.91
987.30	226.90
987.59	226.92
987.89	226.91
988.18	226.90
988.47	226.92
988.76	226.89
989.05	226.87
989.34	226.88
989.63	226.89
989.92	226.88
990.22	226.87
990.51	226.89
990.80	226.89
991.09	226.91
991.38	226.90
991.67	226.89
991.96	226.85
992.25	226.82
992.54	226.83
992.83	226.86
993.12	226.84
993.41	226.90
993.70	226.92
993.99	226.96
994.28	227.00
994.58	226.97
994.87	227.00
995.16	227.01
995.45	226.99
995.74	226.97
996.03	227.02
996.32	227.05
996.61	227.07
996.90	227.04
997.19	227.03
997.48	227.03
997.77	227.03
998.06	227.03
998.34	227.05
998.63	227.01
998.92	227.01
999.21	227.03
999.50	227.03
999.79	227.00
1000.08	227.02
1000.37	227.02
1000.66	227.02
1000.95	227.05
1001.24	227.04
1001.53	227.07
1001.82	227.06
1002.11	227.01
1002.40	227.01
1002.68	227.03
1002.97	227.11
1003.26	227.12
1003.55	227.12
1003.84	227.12
1004.13	227.15
1004.42	227.19
1004.71	227.23
1004.99	227.25
1005.28	227.27
1005.57	227.23
1005.86	227.27
1006.15	227.23
1006.44	227.19
1006.72	227.21
1007.01	227.19
1007.30	227.19
1007.59	227.16
1007.88	227.19
1008.17	227.19
1008.45	227.14
1008.74	227.10
1009.03	227.06
1009.32	227.03
1009.60	227.01
1009.89	227.01
1010.18	226.98
1010.47	226.93
1010.76	226.91
1011.04	226.90
1011.33	226.87
1011.62	226.90
1011.91	226.87
1012.19	226.88
1012.48	226.89
1012.77	226.85
1013.05	226.87
1013.34	226.83
1013.63	226.81
1013.92	226.78
1014.20	226.79
1014.49	226.80
1014.78	226.78
1015.06	226.75
1015.35	226.77
1015.64	226.77
1015.92	226.77
1016.21	226.77
1016.50	226.79
1016.78	226.78
1017.07	226.79
1017.36	226.80
1017.64	226.77
1017.93	226.76
1018.22	226.76
1018.50	226.79
1018.79	226.79
1019.08	226.75
1019.36	226.77
1019.65	226.76
1019.93	226.78
1020.22	226.78
1020.51	226.85
1020.79	226.85
1021.08	227.04
1021.36	227.02
1021.65	226.61
1021.94	226.87
1022.22	226.30
1022.51	226.39
1022.79	227.14
1023.08	226.45
1023.36	228.59
1023.65	226.29
>>>>>End Processed Spectral Data<<<<<
