SpectraSuite Data File
++++++++++++++++++++++++++++++++++++
Date: Fri Feb 01 16:16:43 EST 2013
User: group
Dark Spectrum Present: No
Reference Spectrum Present: No
Number of Sampled Component Spectra: 1
Spectrometers: USB2E7196
Integration Time (usec): 35000 (USB2E7196)
Spectra Averaged: 100 (USB2E7196)
Boxcar Smoothing: 10 (USB2E7196)
Correct for Electrical Dark: No (USB2E7196)
Strobe/Lamp Enabled: No (USB2E7196)
Correct for Detector Non-linearity: No (USB2E7196)
Correct for Stray Light: No (USB2E7196)
Number of Pixels in Processed Spectrum: 2048
>>>>>Begin Processed Spectral Data<<<<<
339.09	0.00
339.48	213.67
339.86	215.89
340.24	216.50
340.63	218.19
341.01	221.15
341.39	220.90
341.78	222.22
342.16	223.29
342.54	224.15
342.93	212.45
343.31	223.20
343.69	223.77
344.07	224.19
344.46	224.61
344.84	224.99
345.22	225.22
345.60	225.47
345.99	225.68
346.37	225.83
346.75	225.93
347.13	226.02
347.52	226.06
347.90	226.15
348.28	226.21
348.66	226.26
349.05	226.22
349.43	226.24
349.81	226.27
350.19	226.34
350.57	226.42
350.96	226.51
351.34	226.61
351.72	226.69
352.10	226.86
352.48	226.98
352.87	227.05
353.25	227.12
353.63	227.19
354.01	227.26
354.39	227.34
354.77	227.44
355.15	227.54
355.54	227.61
355.92	227.66
356.30	227.74
356.68	227.88
357.06	227.96
357.44	228.03
357.82	228.12
358.20	228.18
358.58	228.27
358.97	228.34
359.35	228.38
359.73	228.46
360.11	228.48
360.49	228.54
360.87	228.60
361.25	228.66
361.63	228.75
362.01	228.79
362.39	228.82
362.77	228.87
363.15	228.90
363.53	228.93
363.91	228.94
364.29	228.93
364.67	228.87
365.05	228.91
365.43	228.93
365.81	228.92
366.19	228.94
366.57	228.98
366.95	228.95
367.33	228.92
367.71	228.87
368.09	228.85
368.47	228.83
368.85	228.81
369.23	228.80
369.61	228.75
369.99	228.74
370.37	228.71
370.75	228.70
371.13	228.65
371.51	228.59
371.89	228.54
372.27	228.52
372.65	228.46
373.03	228.41
373.41	228.35
373.78	228.30
374.16	228.23
374.54	228.13
374.92	228.04
375.30	227.98
375.68	227.93
376.06	227.87
376.44	227.81
376.82	227.71
377.19	227.66
377.57	227.55
377.95	227.45
378.33	227.35
378.71	227.23
379.09	227.13
379.47	227.07
379.84	227.01
380.22	226.93
380.60	226.87
380.98	226.80
381.36	226.73
381.73	226.66
382.11	226.61
382.49	226.51
382.87	226.44
383.25	226.39
383.62	226.43
384.00	226.33
384.38	226.25
384.76	226.22
385.13	226.23
385.51	226.21
385.89	226.16
386.27	226.12
386.64	226.08
387.02	226.02
387.40	225.97
387.78	225.92
388.15	225.88
388.53	225.81
388.91	225.79
389.29	225.74
389.66	225.71
390.04	225.64
390.42	225.68
390.79	225.65
391.17	225.63
391.55	225.51
391.92	225.52
392.30	225.54
392.68	225.49
393.05	225.44
393.43	225.44
393.81	225.45
394.18	225.46
394.56	225.46
394.94	225.50
395.31	225.49
395.69	225.54
396.06	225.59
396.44	225.63
396.82	225.64
397.19	225.75
397.57	225.80
397.95	225.87
398.32	225.87
398.70	225.96
399.07	226.04
399.45	226.10
399.82	226.16
400.20	226.21
400.58	226.30
400.95	226.34
401.33	226.43
401.70	226.59
402.08	226.70
402.45	226.76
402.83	226.89
403.20	227.02
403.58	227.10
403.95	227.25
404.33	227.38
404.71	227.50
405.08	227.68
405.46	227.79
405.83	227.91
406.21	228.08
406.58	228.23
406.96	228.38
407.33	228.56
407.70	228.76
408.08	229.04
408.45	229.25
408.83	229.52
409.20	229.72
409.58	229.89
409.95	230.14
410.33	230.45
410.70	230.68
411.08	230.97
411.45	231.28
411.82	231.55
412.20	231.91
412.57	232.31
412.95	232.59
413.32	232.99
413.69	233.41
414.07	233.84
414.44	234.30
414.82	234.80
415.19	235.38
415.56	235.93
415.94	236.47
416.31	237.10
416.68	237.69
417.06	238.42
417.43	239.11
417.81	239.88
418.18	240.63
418.55	241.47
418.93	242.33
419.30	243.25
419.67	244.17
420.04	245.12
420.42	246.11
420.79	247.30
421.16	248.45
421.54	249.64
421.91	250.86
422.28	252.13
422.66	253.43
423.03	254.68
423.40	256.02
423.77	257.43
424.15	258.90
424.52	260.39
424.89	261.97
425.26	263.51
425.64	264.91
426.01	266.53
426.38	268.20
426.75	269.85
427.13	271.56
427.50	273.40
427.87	275.27
428.24	277.14
428.61	278.87
428.99	280.79
429.36	282.87
429.73	284.93
430.10	286.91
430.47	288.94
430.85	291.06
431.22	293.30
431.59	295.66
431.96	297.86
432.33	300.35
432.70	302.75
433.08	305.53
433.45	308.18
433.82	310.77
434.19	313.66
434.56	316.48
434.93	319.13
435.30	321.72
435.68	324.58
436.05	327.44
436.42	330.22
436.79	332.75
437.16	335.46
437.53	338.31
437.90	341.11
438.27	343.88
438.64	346.67
439.01	349.25
439.38	351.46
439.75	353.65
440.13	356.14
440.50	358.38
440.87	360.25
441.24	362.19
441.61	364.34
441.98	365.81
442.35	367.59
442.72	369.44
443.09	371.25
443.46	372.27
443.83	372.85
444.20	373.36
444.57	374.23
444.94	374.51
445.31	374.83
445.68	375.23
446.05	375.32
446.42	375.01
446.79	374.61
447.16	374.15
447.53	373.81
447.90	372.64
448.27	371.52
448.64	369.91
449.01	368.77
449.37	366.82
449.74	364.95
450.11	362.72
450.48	360.24
450.85	357.69
451.22	355.55
451.59	353.52
451.96	351.58
452.33	348.99
452.70	346.61
453.07	343.75
453.43	340.84
453.80	338.04
454.17	335.35
454.54	332.78
454.91	330.10
455.28	327.43
455.65	324.95
456.02	322.54
456.38	320.43
456.75	317.77
457.12	315.52
457.49	313.26
457.86	311.08
458.23	309.24
458.59	307.24
458.96	305.16
459.33	303.28
459.70	301.41
460.07	299.88
460.43	298.18
460.80	296.61
461.17	295.13
461.54	293.69
461.91	292.26
462.27	290.83
462.64	289.58
463.01	288.24
463.38	286.93
463.74	285.58
464.11	284.41
464.48	283.42
464.85	282.33
465.21	281.48
465.58	280.57
465.95	279.49
466.32	278.58
466.68	277.68
467.05	276.79
467.42	275.91
467.78	275.01
468.15	274.16
468.52	273.50
468.88	272.65
469.25	271.86
469.62	271.23
469.98	270.53
470.35	269.88
470.72	269.30
471.08	268.66
471.45	268.13
471.82	267.58
472.18	266.96
472.55	266.54
472.92	266.04
473.28	265.60
473.65	265.15
474.02	264.68
474.38	264.29
474.75	263.98
475.11	263.66
475.48	263.38
475.85	263.16
476.21	262.97
476.58	262.81
476.94	262.68
477.31	262.50
477.67	262.39
478.04	262.26
478.41	262.19
478.77	262.22
479.14	262.12
479.50	262.13
479.87	262.24
480.23	262.28
480.60	262.36
480.96	262.46
481.33	262.70
481.69	262.97
482.06	263.22
482.42	263.44
482.79	263.72
483.15	264.04
483.52	264.41
483.88	264.71
484.25	265.08
484.61	265.51
484.98	265.98
485.34	266.56
485.71	267.19
486.07	267.83
486.44	268.41
486.80	269.17
487.17	269.91
487.53	270.73
487.90	271.63
488.26	272.56
488.62	273.52
488.99	274.51
489.35	275.54
489.72	276.67
490.08	277.86
490.44	279.11
490.81	280.44
491.17	281.82
491.54	283.34
491.90	284.89
492.26	286.54
492.63	288.28
492.99	290.03
493.36	291.92
493.72	293.97
494.08	296.09
494.45	298.35
494.81	300.74
495.17	303.14
495.54	305.69
495.90	308.42
496.26	311.26
496.63	314.23
496.99	317.34
497.35	320.62
497.72	324.07
498.08	327.59
498.44	331.25
498.80	335.13
499.17	339.16
499.53	343.38
499.89	347.79
500.26	352.28
500.62	357.03
500.98	362.00
501.34	367.06
501.71	372.40
502.07	377.81
502.43	383.44
502.79	389.29
503.16	395.40
503.52	401.65
503.88	408.11
504.24	414.76
504.60	421.62
504.97	428.75
505.33	436.03
505.69	443.74
506.05	451.61
506.41	459.56
506.78	467.73
507.14	476.20
507.50	484.90
507.86	494.00
508.22	503.16
508.59	512.37
508.95	521.96
509.31	531.79
509.67	541.86
510.03	552.16
510.39	562.74
510.75	573.51
511.12	584.44
511.48	595.72
511.84	607.14
512.20	618.64
512.56	630.63
512.92	642.78
513.28	655.06
513.64	667.42
514.00	680.07
514.37	693.03
514.73	706.02
515.09	719.05
515.45	732.27
515.81	745.85
516.17	759.85
516.53	773.89
516.89	787.99
517.25	802.20
517.61	816.57
517.97	830.98
518.33	845.48
518.69	860.21
519.05	875.16
519.41	890.22
519.77	905.76
520.13	921.03
520.49	936.38
520.85	951.84
521.21	967.57
521.57	983.75
521.93	999.43
522.29	1015.86
522.65	1032.07
523.01	1048.20
523.37	1064.20
523.73	1080.30
524.09	1096.43
524.45	1112.74
524.81	1129.31
525.17	1146.08
525.53	1162.98
525.89	1179.78
526.25	1196.63
526.61	1212.91
526.97	1229.73
527.33	1246.19
527.68	1262.80
528.04	1279.17
528.40	1295.77
528.76	1312.79
529.12	1329.39
529.48	1346.22
529.84	1362.20
530.20	1378.81
530.56	1395.80
530.91	1413.15
531.27	1429.80
531.63	1446.23
531.99	1462.77
532.35	1478.69
532.71	1494.48
533.07	1510.74
533.42	1526.49
533.78	1542.48
534.14	1558.66
534.50	1573.91
534.86	1589.69
535.21	1604.82
535.57	1620.87
535.93	1636.23
536.29	1650.89
536.65	1665.93
537.00	1680.61
537.36	1695.72
537.72	1710.10
538.08	1724.54
538.44	1738.19
538.79	1752.15
539.15	1765.69
539.51	1779.38
539.87	1793.65
540.22	1807.40
540.58	1820.93
540.94	1834.24
541.29	1846.88
541.65	1859.56
542.01	1872.64
542.37	1884.88
542.72	1897.30
543.08	1909.01
543.44	1921.33
543.79	1932.63
544.15	1943.46
544.51	1955.12
544.87	1966.12
545.22	1976.96
545.58	1987.15
545.94	1996.91
546.29	2006.72
546.65	2016.65
547.01	2025.88
547.36	2034.63
547.72	2043.04
548.07	2050.99
548.43	2059.02
548.79	2067.15
549.14	2074.67
549.50	2081.99
549.86	2089.71
550.21	2097.03
550.57	2104.05
550.92	2110.58
551.28	2117.43
551.64	2124.59
551.99	2131.01
552.35	2137.13
552.70	2143.24
553.06	2149.25
553.41	2155.65
553.77	2161.60
554.13	2167.59
554.48	2173.68
554.84	2179.12
555.19	2184.36
555.55	2189.38
555.90	2193.97
556.26	2198.84
556.61	2203.62
556.97	2207.96
557.32	2211.93
557.68	2216.08
558.03	2220.37
558.39	2224.05
558.74	2228.88
559.10	2232.78
559.45	2236.49
559.81	2240.77
560.16	2244.56
560.52	2247.84
560.87	2251.28
561.23	2253.96
561.58	2256.98
561.94	2259.49
562.29	2261.81
562.64	2264.53
563.00	2267.17
563.35	2270.68
563.71	2273.78
564.06	2276.96
564.42	2279.97
564.77	2282.63
565.12	2284.80
565.48	2286.74
565.83	2288.68
566.19	2289.93
566.54	2290.79
566.89	2291.89
567.25	2292.47
567.60	2293.79
567.96	2295.43
568.31	2296.22
568.66	2297.34
569.02	2297.88
569.37	2298.20
569.72	2299.22
570.08	2299.51
570.43	2299.62
570.78	2299.01
571.14	2297.51
571.49	2296.16
571.84	2295.70
572.20	2294.67
572.55	2293.62
572.90	2292.03
573.26	2290.61
573.61	2289.01
573.96	2287.36
574.31	2284.39
574.67	2281.51
575.02	2277.94
575.37	2274.48
575.72	2270.74
576.08	2267.44
576.43	2264.22
576.78	2260.59
577.13	2257.29
577.49	2254.12
577.84	2250.63
578.19	2247.05
578.54	2243.55
578.90	2239.44
579.25	2233.94
579.60	2228.88
579.95	2224.09
580.30	2219.21
580.66	2214.10
581.01	2209.10
581.36	2204.16
581.71	2200.03
582.06	2195.71
582.42	2191.26
582.77	2186.15
583.12	2181.72
583.47	2177.00
583.82	2172.04
584.17	2166.94
584.53	2161.47
584.88	2155.99
585.23	2150.38
585.58	2144.85
585.93	2139.33
586.28	2134.60
586.63	2129.64
586.98	2124.81
587.34	2119.99
587.69	2115.16
588.04	2110.09
588.39	2104.53
588.74	2098.06
589.09	2092.03
589.44	2085.21
589.79	2079.22
590.14	2073.64
590.49	2066.89
590.84	2060.54
591.19	2054.50
591.54	2047.93
591.89	2040.61
592.25	2033.80
592.60	2026.57
592.95	2019.10
593.30	2011.81
593.65	2004.11
594.00	1996.99
594.35	1989.69
594.70	1981.78
595.05	1974.61
595.40	1967.31
595.75	1959.83
596.10	1953.75
596.45	1947.02
596.80	1940.94
597.15	1934.45
597.50	1927.39
597.85	1921.01
598.19	1914.41
598.54	1907.33
598.89	1900.75
599.24	1894.92
599.59	1888.21
599.94	1881.89
600.29	1875.55
600.64	1868.97
600.99	1861.56
601.34	1854.84
601.69	1847.80
602.04	1840.88
602.39	1833.51
602.74	1826.73
603.08	1819.97
603.43	1813.19
603.78	1805.86
604.13	1798.54
604.48	1791.19
604.83	1784.34
605.18	1777.47
605.53	1769.48
605.87	1761.44
606.22	1754.32
606.57	1746.33
606.92	1738.98
607.27	1731.83
607.62	1724.94
607.96	1717.70
608.31	1711.30
608.66	1703.63
609.01	1696.06
609.36	1688.61
609.70	1680.58
610.05	1672.46
610.40	1664.76
610.75	1656.34
611.10	1648.66
611.44	1640.24
611.79	1632.27
612.14	1623.52
612.49	1614.21
612.83	1605.79
613.18	1597.64
613.53	1589.40
613.88	1580.90
614.22	1572.68
614.57	1564.15
614.92	1556.01
615.27	1548.47
615.61	1540.06
615.96	1532.03
616.31	1524.47
616.65	1517.10
617.00	1509.67
617.35	1501.93
617.70	1493.55
618.04	1485.13
618.39	1476.91
618.74	1469.30
619.08	1460.96
619.43	1453.43
619.78	1446.72
620.12	1439.57
620.47	1432.00
620.82	1423.89
621.16	1416.61
621.51	1408.98
621.85	1401.43
622.20	1392.91
622.55	1384.59
622.89	1376.65
623.24	1369.04
623.59	1361.65
623.93	1353.99
624.28	1346.75
624.62	1339.34
624.97	1332.29
625.32	1325.45
625.66	1318.50
626.01	1311.48
626.35	1304.10
626.70	1296.38
627.04	1288.61
627.39	1280.86
627.73	1273.59
628.08	1266.70
628.43	1259.26
628.77	1251.90
629.12	1244.18
629.46	1237.12
629.81	1229.55
630.15	1222.34
630.50	1214.95
630.84	1206.64
631.19	1198.78
631.53	1191.23
631.88	1183.52
632.22	1175.86
632.57	1168.60
632.91	1161.09
633.26	1153.50
633.60	1146.12
633.95	1138.98
634.29	1131.86
634.64	1125.18
634.98	1117.76
635.32	1110.56
635.67	1104.00
636.01	1097.23
636.36	1090.58
636.70	1084.03
637.05	1077.54
637.39	1071.11
637.73	1064.59
638.08	1058.78
638.42	1052.73
638.77	1046.30
639.11	1039.80
639.45	1033.41
639.80	1026.70
640.14	1020.15
640.49	1013.66
640.83	1007.31
641.17	1000.97
641.52	994.73
641.86	988.17
642.20	982.27
642.55	975.89
642.89	969.35
643.23	962.89
643.58	957.00
643.92	950.78
644.26	944.74
644.61	938.67
644.95	932.68
645.29	926.13
645.64	919.38
645.98	912.92
646.32	907.07
646.66	900.99
647.01	895.27
647.35	889.53
647.69	883.65
648.04	878.09
648.38	872.43
648.72	866.40
649.06	860.37
649.41	854.46
649.75	848.62
650.09	842.67
650.43	836.88
650.78	830.77
651.12	824.76
651.46	818.97
651.80	813.22
652.14	807.79
652.49	802.40
652.83	797.21
653.17	791.54
653.51	785.80
653.85	780.43
654.20	774.72
654.54	768.74
654.88	762.96
655.22	757.06
655.56	751.27
655.90	745.75
656.25	740.55
656.59	735.21
656.93	730.10
657.27	724.97
657.61	719.47
657.95	714.31
658.29	709.28
658.64	704.05
658.98	698.77
659.32	693.35
659.66	688.13
660.00	682.82
660.34	677.90
660.68	672.93
661.02	667.93
661.36	663.23
661.70	658.71
662.05	654.44
662.39	650.12
662.73	645.68
663.07	641.29
663.41	636.83
663.75	632.36
664.09	627.76
664.43	623.36
664.77	619.28
665.11	615.06
665.45	610.90
665.79	606.91
666.13	602.72
666.47	598.58
666.81	594.40
667.15	590.27
667.49	586.33
667.83	582.56
668.17	578.59
668.51	574.52
668.85	570.52
669.19	566.69
669.53	562.86
669.87	558.98
670.21	555.27
670.55	551.62
670.89	548.22
671.23	544.78
671.57	541.22
671.91	537.65
672.25	534.17
672.58	530.62
672.92	527.15
673.26	524.01
673.60	520.84
673.94	517.75
674.28	514.82
674.62	511.89
674.96	508.79
675.30	505.86
675.64	502.94
675.97	500.12
676.31	497.19
676.65	494.24
676.99	491.49
677.33	488.61
677.67	485.76
678.01	482.71
678.34	479.75
678.68	476.91
679.02	474.13
679.36	471.30
679.70	468.59
680.04	465.80
680.37	462.92
680.71	460.19
681.05	457.51
681.39	454.81
681.73	452.14
682.06	449.59
682.40	447.02
682.74	444.51
683.08	441.98
683.42	439.40
683.75	436.91
684.09	434.41
684.43	431.95
684.77	429.47
685.10	427.12
685.44	424.83
685.78	422.56
686.12	420.28
686.45	417.99
686.79	415.72
687.13	413.52
687.46	411.33
687.80	409.14
688.14	406.94
688.48	404.88
688.81	402.61
689.15	400.46
689.49	398.34
689.82	396.21
690.16	394.13
690.50	392.18
690.83	390.20
691.17	388.17
691.51	386.24
691.84	384.47
692.18	382.54
692.52	380.56
692.85	378.61
693.19	376.71
693.52	374.87
693.86	373.05
694.20	371.27
694.53	369.45
694.87	367.56
695.21	365.78
695.54	363.97
695.88	362.26
696.21	360.52
696.55	358.81
696.88	357.15
697.22	355.45
697.56	353.82
697.89	352.17
698.23	350.59
698.56	348.96
698.90	347.33
699.23	345.70
699.57	344.10
699.90	342.52
700.24	341.00
700.58	339.50
700.91	337.97
701.25	336.47
701.58	335.16
701.92	333.83
702.25	332.42
702.59	331.06
702.92	329.73
703.26	328.44
703.59	327.19
703.93	326.00
704.26	324.80
704.60	323.45
704.93	322.17
705.26	320.91
705.60	319.74
705.93	318.57
706.27	317.52
706.60	316.51
706.94	315.43
707.27	314.28
707.61	313.20
707.94	312.21
708.27	311.13
708.61	310.02
708.94	309.04
709.28	308.10
709.61	307.14
709.94	306.21
710.28	305.16
710.61	304.20
710.95	303.10
711.28	302.20
711.61	301.31
711.95	300.38
712.28	299.44
712.61	298.48
712.95	297.55
713.28	296.65
713.61	295.78
713.95	294.91
714.28	294.08
714.61	293.25
714.95	292.40
715.28	291.56
715.61	290.71
715.95	289.86
716.28	288.96
716.61	288.10
716.95	287.25
717.28	286.54
717.61	285.73
717.94	284.99
718.28	284.18
718.61	283.44
718.94	282.78
719.27	282.17
719.61	281.54
719.94	280.93
720.27	280.16
720.60	279.47
720.94	278.84
721.27	278.26
721.60	277.63
721.93	277.01
722.27	276.47
722.60	275.92
722.93	275.32
723.26	274.80
723.59	274.25
723.93	273.70
724.26	273.15
724.59	272.60
724.92	272.08
725.25	271.55
725.59	271.04
725.92	270.51
726.25	269.95
726.58	269.44
726.91	268.94
727.24	268.50
727.57	268.03
727.91	267.53
728.24	267.05
728.57	266.59
728.90	266.19
729.23	265.67
729.56	265.23
729.89	264.78
730.22	264.29
730.55	263.80
730.89	263.37
731.22	262.93
731.55	262.49
731.88	262.06
732.21	261.64
732.54	261.20
732.87	260.75
733.20	260.36
733.53	259.98
733.86	259.59
734.19	259.18
734.52	258.80
734.85	258.49
735.18	258.09
735.51	257.73
735.84	257.31
736.17	256.97
736.50	256.58
736.83	256.32
737.16	255.99
737.49	255.68
737.82	255.34
738.15	255.00
738.48	254.66
738.81	254.34
739.14	253.99
739.47	253.65
739.80	253.36
740.13	253.04
740.46	252.69
740.79	252.34
741.12	252.03
741.45	251.71
741.78	251.36
742.11	251.08
742.44	250.72
742.77	250.44
743.10	250.11
743.43	249.78
743.75	249.37
744.08	249.26
744.41	248.99
744.74	248.73
745.07	248.46
745.40	248.19
745.73	247.96
746.06	247.72
746.39	247.50
746.71	247.21
747.04	246.95
747.37	246.69
747.70	246.46
748.03	246.22
748.36	246.01
748.68	245.78
749.01	245.51
749.34	245.34
749.67	245.08
750.00	244.89
750.33	244.75
750.65	244.57
750.98	244.16
751.31	243.94
751.64	243.70
751.97	243.51
752.29	243.32
752.62	243.10
752.95	242.88
753.28	242.68
753.60	242.50
753.93	242.34
754.26	242.15
754.59	241.89
754.91	241.67
755.24	241.44
755.57	241.23
755.90	241.04
756.22	240.80
756.55	240.60
756.88	240.40
757.20	240.19
757.53	239.99
757.86	239.88
758.19	239.72
758.51	239.55
758.84	239.34
759.17	239.15
759.49	238.94
759.82	238.84
760.15	238.67
760.47	238.51
760.80	238.33
761.13	238.19
761.45	238.07
761.78	237.97
762.11	237.82
762.43	237.69
762.76	237.57
763.08	237.44
763.41	237.33
763.74	237.21
764.06	237.04
764.39	236.92
764.71	236.75
765.04	236.60
765.37	236.50
765.69	236.37
766.02	236.26
766.34	236.15
766.67	235.93
767.00	235.84
767.32	235.79
767.65	235.71
767.97	235.60
768.30	235.52
768.62	235.38
768.95	235.28
769.27	235.20
769.60	235.11
769.92	235.04
770.25	234.90
770.57	234.78
770.90	234.69
771.22	234.59
771.55	234.51
771.87	234.44
772.20	234.34
772.52	234.32
772.85	234.34
773.17	234.24
773.50	234.23
773.82	234.10
774.15	233.97
774.47	233.86
774.80	233.76
775.12	233.66
775.45	233.57
775.77	233.48
776.09	233.39
776.42	233.28
776.74	233.20
777.07	233.15
777.39	233.05
777.72	232.96
778.04	232.90
778.36	232.80
778.69	232.69
779.01	232.60
779.33	232.48
779.66	232.28
779.98	232.22
780.31	232.11
780.63	232.06
780.95	232.01
781.28	231.94
781.60	231.89
781.92	231.83
782.25	231.76
782.57	231.70
782.89	231.66
783.22	231.61
783.54	231.56
783.86	231.51
784.19	231.46
784.51	231.41
784.83	231.34
785.16	231.30
785.48	231.30
785.80	231.26
786.12	231.21
786.45	231.18
786.77	231.14
787.09	231.10
787.42	231.03
787.74	230.97
788.06	230.91
788.38	230.84
788.71	230.79
789.03	230.74
789.35	230.70
789.67	230.63
789.99	230.59
790.32	230.52
790.64	230.49
790.96	230.56
791.28	230.54
791.61	230.51
791.93	230.47
792.25	230.39
792.57	230.44
792.89	230.36
793.21	230.32
793.54	230.27
793.86	230.21
794.18	230.19
794.50	230.15
794.82	230.12
795.14	230.09
795.47	230.04
795.79	230.02
796.11	229.97
796.43	229.93
796.75	229.90
797.07	229.87
797.39	229.85
797.71	229.75
798.04	229.68
798.36	229.64
798.68	229.58
799.00	229.55
799.32	229.45
799.64	229.43
799.96	229.42
800.28	229.40
800.60	229.35
800.92	229.31
801.24	229.27
801.56	229.21
801.89	229.15
802.21	229.14
802.53	229.11
802.85	229.09
803.17	229.13
803.49	229.06
803.81	228.99
804.13	228.93
804.45	228.89
804.77	228.92
805.09	228.88
805.41	228.86
805.73	228.83
806.05	228.77
806.37	228.75
806.69	228.70
807.01	228.67
807.33	228.67
807.65	228.62
807.97	228.65
808.28	228.65
808.60	228.66
808.92	228.62
809.24	228.66
809.56	228.62
809.88	228.54
810.20	228.51
810.52	228.51
810.84	228.46
811.16	228.39
811.48	228.31
811.80	228.32
812.12	228.30
812.43	228.32
812.75	228.29
813.07	228.25
813.39	228.23
813.71	228.20
814.03	228.18
814.35	228.16
814.67	228.09
814.98	228.06
815.30	228.02
815.62	228.00
815.94	227.90
816.26	227.92
816.58	227.88
816.89	227.89
817.21	227.87
817.53	227.87
817.85	227.86
818.17	227.88
818.48	227.82
818.80	227.86
819.12	227.81
819.44	227.78
819.76	227.77
820.07	227.76
820.39	227.76
820.71	227.72
821.03	227.72
821.34	227.73
821.66	227.73
821.98	227.75
822.30	227.72
822.61	227.80
822.93	227.74
823.25	227.74
823.57	227.73
823.88	227.75
824.20	227.73
824.52	227.76
824.83	227.74
825.15	227.70
825.47	227.62
825.79	227.63
826.10	227.62
826.42	227.58
826.74	227.59
827.05	227.57
827.37	227.58
827.69	227.55
828.00	227.51
828.32	227.49
828.64	227.48
828.95	227.54
829.27	227.47
829.58	227.48
829.90	227.46
830.22	227.46
830.53	227.41
830.85	227.42
831.17	227.36
831.48	227.33
831.80	227.36
832.11	227.38
832.43	227.37
832.75	227.35
833.06	227.41
833.38	227.37
833.69	227.35
834.01	227.35
834.32	227.36
834.64	227.35
834.96	227.35
835.27	227.38
835.59	227.33
835.90	227.33
836.22	227.30
836.53	227.30
836.85	227.30
837.16	227.41
837.48	227.44
837.79	227.46
838.11	227.47
838.42	227.49
838.74	227.50
839.05	227.49
839.37	227.52
839.68	227.46
840.00	227.48
840.31	227.50
840.63	227.47
840.94	227.43
841.26	227.44
841.57	227.42
841.88	227.36
842.20	227.36
842.51	227.31
842.83	227.33
843.14	227.42
843.46	227.39
843.77	227.32
844.08	227.28
844.40	227.28
844.71	227.26
845.03	227.21
845.34	227.19
845.65	227.18
845.97	227.17
846.28	227.17
846.60	227.17
846.91	227.14
847.22	227.15
847.54	227.22
847.85	227.18
848.16	227.18
848.48	227.17
848.79	227.16
849.10	227.18
849.42	227.16
849.73	227.04
850.04	227.02
850.36	226.96
850.67	226.94
850.98	226.90
851.30	226.91
851.61	226.85
851.92	226.82
852.23	226.84
852.55	226.85
852.86	226.84
853.17	226.85
853.49	226.87
853.80	226.89
854.11	226.84
854.42	226.87
854.74	226.84
855.05	226.84
855.36	226.82
855.67	226.79
855.99	226.79
856.30	226.89
856.61	226.86
856.92	226.88
857.23	226.89
857.55	226.87
857.86	226.86
858.17	226.94
858.48	226.90
858.79	226.84
859.11	226.81
859.42	226.81
859.73	226.74
860.04	226.70
860.35	226.67
860.66	226.66
860.98	226.64
861.29	226.66
861.60	226.65
861.91	226.65
862.22	226.66
862.53	226.65
862.84	226.55
863.16	226.58
863.47	226.54
863.78	226.52
864.09	226.54
864.40	226.55
864.71	226.52
865.02	226.55
865.33	226.56
865.64	226.55
865.95	226.55
866.27	226.64
866.58	226.62
866.89	226.61
867.20	226.58
867.51	226.59
867.82	226.57
868.13	226.61
868.44	226.60
868.75	226.60
869.06	226.59
869.37	226.61
869.68	226.59
869.99	226.63
870.30	226.63
870.61	226.67
870.92	226.63
871.23	226.61
871.54	226.62
871.85	226.61
872.16	226.62
872.47	226.60
872.78	226.52
873.09	226.53
873.40	226.50
873.71	226.50
874.02	226.50
874.33	226.52
874.64	226.47
874.95	226.47
875.26	226.48
875.56	226.49
875.87	226.49
876.18	226.49
876.49	226.58
876.80	226.58
877.11	226.56
877.42	226.59
877.73	226.63
878.04	226.65
878.35	226.69
878.66	226.71
878.96	226.71
879.27	226.75
879.58	226.77
879.89	226.79
880.20	226.87
880.51	226.84
880.82	226.81
881.12	226.86
881.43	226.84
881.74	226.81
882.05	226.79
882.36	226.77
882.67	226.75
882.97	226.64
883.28	226.63
883.59	226.61
883.90	226.62
884.21	226.61
884.51	226.61
884.82	226.59
885.13	226.56
885.44	226.58
885.74	226.59
886.05	226.56
886.36	226.59
886.67	226.52
886.98	226.58
887.28	226.58
887.59	226.55
887.90	226.55
888.20	226.54
888.51	226.57
888.82	226.57
889.13	226.60
889.43	226.68
889.74	226.69
890.05	226.69
890.35	226.68
890.66	226.65
890.97	226.62
891.28	226.59
891.58	226.59
891.89	226.58
892.20	226.55
892.50	226.54
892.81	226.54
893.12	226.55
893.42	226.49
893.73	226.49
894.04	226.48
894.34	226.50
894.65	226.49
894.95	226.48
895.26	226.48
895.57	226.50
895.87	226.41
896.18	226.41
896.48	226.42
896.79	226.41
897.10	226.41
897.40	226.42
897.71	226.43
898.01	226.45
898.32	226.46
898.63	226.42
898.93	226.41
899.24	226.41
899.54	226.39
899.85	226.41
900.15	226.42
900.46	226.44
900.76	226.43
901.07	226.46
901.38	226.44
901.68	226.48
901.99	226.47
902.29	226.46
902.60	226.45
902.90	226.44
903.21	226.43
903.51	226.41
903.82	226.41
904.12	226.43
904.43	226.41
904.73	226.41
905.03	226.44
905.34	226.54
905.64	226.51
905.95	226.53
906.25	226.54
906.56	226.55
906.86	226.56
907.17	226.54
907.47	226.52
907.77	226.51
908.08	226.45
908.38	226.41
908.69	226.41
908.99	226.44
909.30	226.42
909.60	226.44
909.90	226.44
910.21	226.43
910.51	226.40
910.81	226.40
911.12	226.40
911.42	226.40
911.73	226.30
912.03	226.33
912.33	226.34
912.64	226.31
912.94	226.30
913.24	226.26
913.55	226.21
913.85	226.24
914.15	226.29
914.46	226.32
914.76	226.31
915.06	226.34
915.37	226.29
915.67	226.25
915.97	226.27
916.27	226.27
916.58	226.29
916.88	226.26
917.18	226.27
917.49	226.33
917.79	226.34
918.09	226.35
918.39	226.37
918.70	226.37
919.00	226.38
919.30	226.41
919.60	226.41
919.91	226.44
920.21	226.46
920.51	226.43
920.81	226.41
921.12	226.42
921.42	226.44
921.72	226.46
922.02	226.50
922.32	226.51
922.63	226.51
922.93	226.52
923.23	226.53
923.53	226.51
923.83	226.46
924.13	226.46
924.44	226.46
924.74	226.47
925.04	226.47
925.34	226.49
925.64	226.45
925.94	226.42
926.24	226.48
926.55	226.42
926.85	226.42
927.15	226.42
927.45	226.41
927.75	226.37
928.05	226.39
928.35	226.35
928.65	226.36
928.95	226.36
929.26	226.34
929.56	226.38
929.86	226.38
930.16	226.33
930.46	226.34
930.76	226.34
931.06	226.28
931.36	226.23
931.66	226.19
931.96	226.21
932.26	226.26
932.56	226.19
932.86	226.24
933.16	226.20
933.46	226.18
933.76	226.16
934.06	226.20
934.36	226.22
934.66	226.24
934.96	226.21
935.26	226.21
935.56	226.22
935.86	226.19
936.16	226.20
936.46	226.23
936.76	226.17
937.06	226.15
937.36	226.14
937.66	226.12
937.96	226.13
938.26	226.09
938.56	226.06
938.86	226.09
939.16	226.06
939.46	226.08
939.76	226.09
940.06	226.12
940.35	226.11
940.65	226.03
940.95	225.99
941.25	225.98
941.55	225.97
941.85	225.96
942.15	225.95
942.45	225.95
942.75	225.92
943.04	225.95
943.34	225.93
943.64	225.91
943.94	225.94
944.24	225.96
944.54	225.96
944.84	225.93
945.13	225.92
945.43	225.90
945.73	225.88
946.03	225.87
946.33	225.85
946.62	225.81
946.92	225.82
947.22	225.83
947.52	225.85
947.82	225.85
948.11	225.83
948.41	225.79
948.71	225.76
949.01	225.79
949.31	225.78
949.60	225.80
949.90	225.84
950.20	225.83
950.50	225.83
950.79	225.83
951.09	225.88
951.39	225.85
951.69	225.84
951.98	225.86
952.28	225.89
952.58	225.89
952.87	225.89
953.17	225.91
953.47	225.91
953.76	225.88
954.06	225.84
954.36	225.84
954.66	225.87
954.95	225.91
955.25	225.95
955.55	225.96
955.84	225.96
956.14	225.98
956.44	225.99
956.73	225.96
957.03	225.98
957.32	226.00
957.62	226.07
957.92	226.08
958.21	226.07
958.51	226.17
958.81	226.19
959.10	226.20
959.40	226.23
959.69	226.27
959.99	226.28
960.29	226.30
960.58	226.35
960.88	226.41
961.17	226.42
961.47	226.40
961.76	226.41
962.06	226.44
962.36	226.39
962.65	226.41
962.95	226.43
963.24	226.41
963.54	226.38
963.83	226.33
964.13	226.34
964.42	226.34
964.72	226.27
965.01	226.27
965.31	226.30
965.60	226.28
965.90	226.31
966.19	226.30
966.49	226.33
966.78	226.30
967.08	226.25
967.37	226.22
967.67	226.19
967.96	226.17
968.26	226.19
968.55	226.20
968.85	226.18
969.14	226.21
969.43	226.24
969.73	226.25
970.02	226.26
970.32	226.26
970.61	226.30
970.91	226.26
971.20	226.24
971.49	226.22
971.79	226.22
972.08	226.18
972.38	226.18
972.67	226.14
972.96	226.14
973.26	226.14
973.55	226.17
973.85	226.18
974.14	226.20
974.43	226.17
974.73	226.15
975.02	226.16
975.31	226.13
975.61	226.08
975.90	226.05
976.19	226.04
976.49	226.04
976.78	225.99
977.07	226.01
977.37	226.01
977.66	226.05
977.95	226.01
978.24	226.01
978.54	226.02
978.83	226.03
979.12	226.00
979.42	226.03
979.71	226.02
980.00	225.98
980.29	225.95
980.59	225.96
980.88	225.99
981.17	225.99
981.46	225.95
981.76	225.95
982.05	225.98
982.34	225.99
982.63	225.99
982.93	225.99
983.22	226.00
983.51	226.02
983.80	226.01
984.09	226.06
984.39	226.07
984.68	226.06
984.97	226.06
985.26	226.09
985.55	226.09
985.85	226.09
986.14	226.13
986.43	226.15
986.72	226.14
987.01	226.15
987.30	226.12
987.59	226.17
987.89	226.19
988.18	226.18
988.47	226.19
988.76	226.19
989.05	226.19
989.34	226.18
989.63	226.21
989.92	226.19
990.22	226.14
990.51	226.12
990.80	226.14
991.09	226.13
991.38	226.15
991.67	226.10
991.96	226.09
992.25	226.10
992.54	226.10
992.83	226.10
993.12	226.09
993.41	226.13
993.70	226.16
993.99	226.18
994.28	226.22
994.58	226.23
994.87	226.22
995.16	226.25
995.45	226.21
995.74	226.16
996.03	226.17
996.32	226.22
996.61	226.24
996.90	226.23
997.19	226.26
997.48	226.26
997.77	226.25
998.06	226.26
998.34	226.26
998.63	226.25
998.92	226.28
999.21	226.28
999.50	226.26
999.79	226.24
1000.08	226.24
1000.37	226.23
1000.66	226.20
1000.95	226.22
1001.24	226.23
1001.53	226.27
1001.82	226.27
1002.11	226.23
1002.40	226.23
1002.68	226.29
1002.97	226.36
1003.26	226.33
1003.55	226.31
1003.84	226.34
1004.13	226.41
1004.42	226.39
1004.71	226.41
1004.99	226.37
1005.28	226.37
1005.57	226.36
1005.86	226.34
1006.15	226.33
1006.44	226.29
1006.72	226.32
1007.01	226.30
1007.30	226.29
1007.59	226.31
1007.88	226.30
1008.17	226.32
1008.45	226.29
1008.74	226.22
1009.03	226.16
1009.32	226.13
1009.60	226.12
1009.89	226.11
1010.18	226.04
1010.47	226.04
1010.76	226.00
1011.04	225.98
1011.33	225.99
1011.62	226.03
1011.91	225.99
1012.19	225.98
1012.48	225.99
1012.77	225.94
1013.05	225.99
1013.34	225.97
1013.63	225.93
1013.92	225.93
1014.20	225.91
1014.49	225.91
1014.78	225.93
1015.06	225.93
1015.35	225.96
1015.64	225.97
1015.92	225.96
1016.21	225.97
1016.50	225.92
1016.78	225.93
1017.07	225.95
1017.36	225.92
1017.64	225.87
1017.93	225.89
1018.22	225.87
1018.50	225.87
1018.79	225.89
1019.08	225.83
1019.36	225.85
1019.65	225.84
1019.93	225.86
1020.22	225.89
1020.51	225.94
1020.79	225.90
1021.08	225.38
1021.36	225.64
1021.65	225.98
1021.94	225.72
1022.22	226.18
1022.51	225.92
1022.79	225.96
1023.08	226.20
1023.36	227.18
1023.65	225.48
>>>>>End Processed Spectral Data<<<<<
