SpectraSuite Data File
++++++++++++++++++++++++++++++++++++
Date: Fri Feb 01 15:57:07 EST 2013
User: group
Dark Spectrum Present: No
Reference Spectrum Present: No
Number of Sampled Component Spectra: 1
Spectrometers: USB2E7196
Integration Time (usec): 35000 (USB2E7196)
Spectra Averaged: 100 (USB2E7196)
Boxcar Smoothing: 10 (USB2E7196)
Correct for Electrical Dark: No (USB2E7196)
Strobe/Lamp Enabled: No (USB2E7196)
Correct for Detector Non-linearity: No (USB2E7196)
Correct for Stray Light: No (USB2E7196)
Number of Pixels in Processed Spectrum: 2048
>>>>>Begin Processed Spectral Data<<<<<
339.09	0.00
339.48	214.90
339.86	216.38
340.24	218.34
340.63	219.12
341.01	222.60
341.39	221.70
341.78	223.76
342.16	224.11
342.54	224.59
342.93	213.35
343.31	224.12
343.69	224.68
344.07	225.11
344.46	225.51
344.84	225.92
345.22	226.10
345.60	226.36
345.99	226.50
346.37	226.66
346.75	226.76
347.13	226.84
347.52	226.88
347.90	226.97
348.28	227.00
348.66	227.04
349.05	227.04
349.43	227.09
349.81	227.10
350.19	227.15
350.57	227.20
350.96	227.23
351.34	227.35
351.72	227.42
352.10	227.55
352.48	227.61
352.87	227.67
353.25	227.74
353.63	227.80
354.01	227.87
354.39	227.93
354.77	228.02
355.15	228.14
355.54	228.21
355.92	228.21
356.30	228.30
356.68	228.42
357.06	228.50
357.44	228.51
357.82	228.56
358.20	228.60
358.58	228.68
358.97	228.77
359.35	228.80
359.73	228.87
360.11	228.92
360.49	228.97
360.87	228.96
361.25	229.04
361.63	229.11
362.01	229.18
362.39	229.18
362.77	229.19
363.15	229.21
363.53	229.21
363.91	229.24
364.29	229.24
364.67	229.16
365.05	229.17
365.43	229.19
365.81	229.21
366.19	229.28
366.57	229.33
366.95	229.29
367.33	229.25
367.71	229.24
368.09	229.24
368.47	229.21
368.85	229.23
369.23	229.21
369.61	229.15
369.99	229.12
370.37	229.11
370.75	229.12
371.13	229.06
371.51	229.02
371.89	228.99
372.27	228.95
372.65	228.91
373.03	228.84
373.41	228.76
373.78	228.70
374.16	228.57
374.54	228.45
374.92	228.38
375.30	228.33
375.68	228.24
376.06	228.15
376.44	228.07
376.82	227.99
377.19	227.93
377.57	227.85
377.95	227.75
378.33	227.65
378.71	227.51
379.09	227.44
379.47	227.37
379.84	227.30
380.22	227.22
380.60	227.15
380.98	227.08
381.36	227.03
381.73	226.96
382.11	226.94
382.49	226.89
382.87	226.85
383.25	226.80
383.62	226.84
384.00	226.79
384.38	226.76
384.76	226.70
385.13	226.66
385.51	226.62
385.89	226.61
386.27	226.57
386.64	226.56
387.02	226.53
387.40	226.50
387.78	226.49
388.15	226.45
388.53	226.42
388.91	226.40
389.29	226.36
389.66	226.38
390.04	226.32
390.42	226.31
390.79	226.26
391.17	226.25
391.55	226.15
391.92	226.13
392.30	226.13
392.68	226.12
393.05	226.12
393.43	226.11
393.81	226.09
394.18	226.09
394.56	226.10
394.94	226.14
395.31	226.14
395.69	226.19
396.06	226.23
396.44	226.23
396.82	226.28
397.19	226.39
397.57	226.38
397.95	226.42
398.32	226.46
398.70	226.55
399.07	226.62
399.45	226.69
399.82	226.75
400.20	226.78
400.58	226.84
400.95	226.88
401.33	226.96
401.70	227.08
402.08	227.20
402.45	227.31
402.83	227.42
403.20	227.52
403.58	227.60
403.95	227.72
404.33	227.85
404.71	227.97
405.08	228.12
405.46	228.29
405.83	228.45
406.21	228.59
406.58	228.73
406.96	228.90
407.33	229.06
407.70	229.28
408.08	229.60
408.45	229.82
408.83	230.08
409.20	230.32
409.58	230.52
409.95	230.76
410.33	231.03
410.70	231.27
411.08	231.55
411.45	231.87
411.82	232.19
412.20	232.54
412.57	232.96
412.95	233.24
413.32	233.65
413.69	234.06
414.07	234.53
414.44	235.01
414.82	235.48
415.19	236.02
415.56	236.55
415.94	237.10
416.31	237.76
416.68	238.36
417.06	239.06
417.43	239.77
417.81	240.52
418.18	241.29
418.55	242.15
418.93	243.04
419.30	243.93
419.67	244.87
420.04	245.84
420.42	246.84
420.79	248.05
421.16	249.23
421.54	250.42
421.91	251.61
422.28	252.84
422.66	254.18
423.03	255.51
423.40	256.88
423.77	258.24
424.15	259.64
424.52	261.17
424.89	262.77
425.26	264.34
425.64	265.80
426.01	267.41
426.38	269.05
426.75	270.72
427.13	272.47
427.50	274.25
427.87	276.09
428.24	277.93
428.61	279.67
428.99	281.55
429.36	283.66
429.73	285.76
430.10	287.81
430.47	289.88
430.85	292.01
431.22	294.21
431.59	296.65
431.96	298.90
432.33	301.36
432.70	303.76
433.08	306.54
433.45	309.20
433.82	311.79
434.19	314.68
434.56	317.51
434.93	320.12
435.30	322.78
435.68	325.68
436.05	328.52
436.42	331.31
436.79	333.83
437.16	336.48
437.53	339.30
437.90	342.07
438.27	344.79
438.64	347.61
439.01	350.19
439.38	352.36
439.75	354.50
440.13	356.96
440.50	359.25
440.87	361.08
441.24	363.00
441.61	365.15
441.98	366.66
442.35	368.45
442.72	370.31
443.09	372.07
443.46	373.04
443.83	373.59
444.20	374.11
444.57	374.90
444.94	375.17
445.31	375.47
445.68	375.82
446.05	375.89
446.42	375.53
446.79	375.10
447.16	374.71
447.53	374.41
447.90	373.29
448.27	372.13
448.64	370.56
449.01	369.42
449.37	367.42
449.74	365.48
450.11	363.22
450.48	360.73
450.85	358.21
451.22	356.11
451.59	354.15
451.96	352.16
452.33	349.60
452.70	347.28
453.07	344.45
453.43	341.56
453.80	338.81
454.17	336.05
454.54	333.48
454.91	330.70
455.28	328.01
455.65	325.51
456.02	323.05
456.38	320.95
456.75	318.28
457.12	316.03
457.49	313.81
457.86	311.64
458.23	309.82
458.59	307.76
458.96	305.65
459.33	303.77
459.70	301.94
460.07	300.39
460.43	298.66
460.80	297.03
461.17	295.62
461.54	294.13
461.91	292.74
462.27	291.35
462.64	290.12
463.01	288.80
463.38	287.49
463.74	286.13
464.11	284.94
464.48	283.91
464.85	282.86
465.21	282.04
465.58	281.14
465.95	280.02
466.32	279.14
466.68	278.26
467.05	277.36
467.42	276.45
467.78	275.57
468.15	274.71
468.52	274.11
468.88	273.25
469.25	272.49
469.62	271.87
469.98	271.17
470.35	270.54
470.72	269.94
471.08	269.30
471.45	268.80
471.82	268.25
472.18	267.66
472.55	267.24
472.92	266.73
473.28	266.26
473.65	265.82
474.02	265.39
474.38	265.00
474.75	264.66
475.11	264.36
475.48	264.10
475.85	263.88
476.21	263.61
476.58	263.45
476.94	263.30
477.31	263.15
477.67	263.00
478.04	262.89
478.41	262.86
478.77	262.93
479.14	262.88
479.50	262.92
479.87	263.04
480.23	263.07
480.60	263.12
480.96	263.25
481.33	263.50
481.69	263.66
482.06	263.90
482.42	264.14
482.79	264.40
483.15	264.72
483.52	265.10
483.88	265.49
484.25	265.89
484.61	266.32
484.98	266.77
485.34	267.34
485.71	267.99
486.07	268.57
486.44	269.10
486.80	269.78
487.17	270.49
487.53	271.29
487.90	272.18
488.26	273.14
488.62	274.10
488.99	275.05
489.35	276.12
489.72	277.22
490.08	278.44
490.44	279.68
490.81	281.02
491.17	282.37
491.54	283.81
491.90	285.33
492.26	286.98
492.63	288.70
492.99	290.49
493.36	292.36
493.72	294.42
494.08	296.56
494.45	298.82
494.81	301.21
495.17	303.60
495.54	306.16
495.90	308.82
496.26	311.64
496.63	314.59
496.99	317.72
497.35	321.01
497.72	324.46
498.08	327.96
498.44	331.67
498.80	335.60
499.17	339.65
499.53	343.82
499.89	348.14
500.26	352.68
500.62	357.39
500.98	362.35
501.34	367.41
501.71	372.77
502.07	378.20
502.43	383.79
502.79	389.65
503.16	395.76
503.52	402.04
503.88	408.45
504.24	415.12
504.60	421.99
504.97	429.12
505.33	436.36
505.69	444.12
506.05	451.87
506.41	459.70
506.78	467.92
507.14	476.34
507.50	485.10
507.86	494.10
508.22	503.26
508.59	512.46
508.95	522.04
509.31	531.87
509.67	541.95
510.03	552.26
510.39	562.79
510.75	573.61
511.12	584.56
511.48	595.88
511.84	607.32
512.20	618.80
512.56	630.74
512.92	642.94
513.28	655.17
513.64	667.61
514.00	680.37
514.37	693.23
514.73	706.36
515.09	719.36
515.45	732.63
515.81	746.12
516.17	760.10
516.53	774.22
516.89	788.31
517.25	802.43
517.61	816.86
517.97	831.30
518.33	845.65
518.69	860.43
519.05	875.33
519.41	890.48
519.77	906.03
520.13	921.44
520.49	936.76
520.85	952.23
521.21	967.93
521.57	984.16
521.93	999.94
522.29	1016.23
522.65	1032.48
523.01	1048.63
523.37	1064.81
523.73	1080.88
524.09	1096.97
524.45	1113.30
524.81	1129.97
525.17	1146.73
525.53	1163.53
525.89	1180.47
526.25	1197.24
526.61	1213.61
526.97	1230.30
527.33	1246.70
527.68	1263.30
528.04	1279.80
528.40	1296.39
528.76	1313.39
529.12	1329.93
529.48	1346.72
529.84	1362.65
530.20	1379.16
530.56	1396.29
530.91	1413.61
531.27	1430.38
531.63	1446.71
531.99	1463.25
532.35	1479.16
532.71	1495.02
533.07	1511.34
533.42	1527.04
533.78	1543.05
534.14	1559.29
534.50	1574.65
534.86	1590.61
535.21	1605.71
535.57	1621.62
535.93	1636.99
536.29	1651.77
536.65	1666.75
537.00	1681.54
537.36	1696.91
537.72	1711.51
538.08	1725.81
538.44	1739.51
538.79	1753.35
539.15	1767.11
539.51	1780.78
539.87	1795.17
540.22	1808.85
540.58	1822.52
540.94	1835.86
541.29	1848.63
541.65	1861.33
542.01	1874.47
542.37	1886.73
542.72	1899.31
543.08	1911.11
543.44	1923.52
543.79	1934.76
544.15	1945.73
544.51	1957.23
544.87	1968.13
545.22	1978.90
545.58	1989.01
545.94	1998.70
546.29	2008.61
546.65	2018.39
547.01	2027.70
547.36	2036.25
547.72	2044.71
548.07	2052.59
548.43	2060.82
548.79	2068.84
549.14	2076.26
549.50	2083.56
549.86	2091.26
550.21	2098.44
550.57	2105.51
550.92	2112.01
551.28	2118.99
551.64	2126.04
551.99	2132.48
552.35	2138.66
552.70	2144.71
553.06	2150.69
553.41	2157.12
553.77	2163.09
554.13	2169.11
554.48	2175.25
554.84	2180.83
555.19	2186.13
555.55	2191.16
555.90	2195.65
556.26	2200.63
556.61	2205.45
556.97	2209.65
557.32	2213.75
557.68	2217.72
558.03	2222.04
558.39	2225.78
558.74	2230.44
559.10	2234.41
559.45	2238.15
559.81	2242.54
560.16	2246.36
560.52	2249.59
560.87	2252.97
561.23	2255.69
561.58	2258.74
561.94	2261.24
562.29	2263.46
562.64	2266.11
563.00	2268.91
563.35	2272.36
563.71	2275.53
564.06	2278.78
564.42	2281.73
564.77	2284.16
565.12	2286.51
565.48	2288.47
565.83	2290.35
566.19	2291.65
566.54	2292.58
566.89	2293.69
567.25	2294.06
567.60	2295.40
567.96	2297.16
568.31	2298.03
568.66	2299.10
569.02	2299.69
569.37	2300.09
569.72	2301.15
570.08	2301.22
570.43	2301.18
570.78	2300.57
571.14	2298.85
571.49	2297.48
571.84	2297.17
572.20	2296.01
572.55	2294.91
572.90	2293.30
573.26	2291.98
573.61	2290.28
573.96	2288.40
574.31	2285.50
574.67	2282.55
575.02	2279.01
575.37	2275.61
575.72	2271.81
576.08	2268.55
576.43	2265.16
576.78	2261.37
577.13	2258.16
577.49	2255.23
577.84	2251.73
578.19	2248.17
578.54	2244.70
578.90	2240.45
579.25	2235.01
579.60	2230.07
579.95	2225.15
580.30	2220.07
580.66	2214.84
581.01	2210.01
581.36	2205.16
581.71	2201.03
582.06	2196.65
582.42	2192.09
582.77	2187.00
583.12	2182.44
583.47	2177.56
583.82	2172.55
584.17	2167.28
584.53	2161.89
584.88	2156.15
585.23	2150.25
585.58	2144.60
585.93	2139.03
586.28	2134.27
586.63	2129.09
586.98	2123.99
587.34	2119.20
587.69	2114.39
588.04	2109.00
588.39	2103.27
588.74	2096.84
589.09	2090.68
589.44	2083.83
589.79	2077.91
590.14	2072.21
590.49	2065.72
590.84	2059.41
591.19	2053.45
591.54	2047.01
591.89	2039.48
592.25	2032.74
592.60	2025.63
592.95	2018.08
593.30	2010.86
593.65	2003.39
594.00	1996.42
594.35	1989.24
594.70	1981.43
595.05	1974.28
595.40	1967.14
595.75	1959.64
596.10	1953.32
596.45	1946.58
596.80	1940.48
597.15	1933.86
597.50	1926.57
597.85	1920.11
598.19	1913.48
598.54	1906.36
598.89	1899.82
599.24	1893.89
599.59	1887.07
599.94	1880.97
600.29	1874.73
600.64	1868.10
600.99	1860.50
601.34	1853.65
601.69	1846.80
602.04	1839.83
602.39	1832.36
602.74	1825.53
603.08	1818.80
603.43	1812.16
603.78	1804.92
604.13	1797.66
604.48	1790.32
604.83	1783.60
605.18	1776.67
605.53	1768.49
605.87	1760.40
606.22	1753.05
606.57	1745.24
606.92	1737.93
607.27	1730.72
607.62	1723.77
607.96	1716.44
608.31	1709.91
608.66	1702.36
609.01	1694.72
609.36	1687.10
609.70	1679.18
610.05	1671.14
610.40	1663.45
610.75	1655.11
611.10	1647.32
611.44	1639.04
611.79	1631.05
612.14	1622.46
612.49	1613.22
612.83	1605.00
613.18	1596.89
613.53	1588.79
613.88	1580.19
614.22	1572.02
614.57	1563.41
614.92	1555.31
615.27	1547.75
615.61	1539.35
615.96	1531.14
616.31	1523.52
616.65	1516.30
617.00	1508.65
617.35	1500.95
617.70	1492.66
618.04	1484.08
618.39	1475.89
618.74	1468.16
619.08	1459.81
619.43	1452.17
619.78	1445.21
620.12	1438.06
620.47	1430.67
620.82	1422.58
621.16	1415.17
621.51	1407.51
621.85	1399.90
622.20	1391.36
622.55	1382.96
622.89	1375.21
623.24	1367.82
623.59	1360.50
623.93	1352.85
624.28	1345.74
624.62	1338.20
624.97	1330.94
625.32	1324.28
625.66	1317.25
626.01	1310.13
626.35	1302.71
626.70	1295.01
627.04	1287.40
627.39	1279.58
627.73	1272.08
628.08	1265.12
628.43	1257.78
628.77	1250.41
629.12	1242.87
629.46	1235.72
629.81	1228.40
630.15	1221.17
630.50	1213.68
630.84	1205.42
631.19	1197.57
631.53	1189.96
631.88	1182.46
632.22	1174.87
632.57	1167.46
632.91	1159.90
633.26	1152.50
633.60	1145.22
633.95	1138.12
634.29	1130.98
634.64	1124.40
634.98	1117.05
635.32	1109.91
635.67	1103.34
636.01	1096.85
636.36	1089.98
636.70	1083.56
637.05	1076.95
637.39	1070.43
637.73	1063.89
638.08	1057.99
638.42	1051.92
638.77	1045.52
639.11	1038.97
639.45	1032.57
639.80	1025.96
640.14	1019.58
640.49	1013.04
640.83	1006.72
641.17	1000.45
641.52	994.13
641.86	987.62
642.20	981.72
642.55	975.44
642.89	968.97
643.23	962.39
643.58	956.56
643.92	950.27
644.26	944.23
644.61	938.30
644.95	932.33
645.29	925.76
645.64	919.06
645.98	912.71
646.32	906.81
646.66	900.75
647.01	894.95
647.35	889.23
647.69	883.38
648.04	877.82
648.38	872.02
648.72	866.06
649.06	860.04
649.41	854.18
649.75	848.20
650.09	842.23
650.43	836.42
650.78	830.28
651.12	824.27
651.46	818.51
651.80	812.57
652.14	807.15
652.49	801.78
652.83	796.62
653.17	790.87
653.51	785.12
653.85	779.81
654.20	774.22
654.54	768.23
654.88	762.53
655.22	756.59
655.56	750.98
655.90	745.47
656.25	740.22
656.59	734.86
656.93	729.81
657.27	724.69
657.61	719.25
657.95	714.23
658.29	709.16
658.64	703.93
658.98	698.72
659.32	693.23
659.66	688.03
660.00	682.64
660.34	677.74
660.68	672.86
661.02	667.79
661.36	663.05
661.70	658.54
662.05	654.13
662.39	649.88
662.73	645.35
663.07	640.99
663.41	636.53
663.75	632.06
664.09	627.44
664.43	623.00
664.77	618.85
665.11	614.57
665.45	610.51
665.79	606.47
666.13	602.28
666.47	598.21
666.81	594.03
667.15	590.01
667.49	586.12
667.83	582.40
668.17	578.48
668.51	574.42
668.85	570.43
669.19	566.61
669.53	562.74
669.87	558.89
670.21	555.19
670.55	551.52
670.89	548.10
671.23	544.68
671.57	541.18
671.91	537.61
672.25	534.15
672.58	530.63
672.92	527.19
673.26	524.13
673.60	520.96
673.94	517.82
674.28	514.86
674.62	511.84
674.96	508.70
675.30	505.74
675.64	502.86
675.97	500.02
676.31	497.12
676.65	494.19
676.99	491.45
677.33	488.67
677.67	485.88
678.01	482.87
678.34	479.92
678.68	477.10
679.02	474.37
679.36	471.61
679.70	468.92
680.04	466.21
680.37	463.29
680.71	460.50
681.05	457.92
681.39	455.21
681.73	452.58
682.06	450.04
682.40	447.51
682.74	444.96
683.08	442.45
683.42	439.92
683.75	437.42
684.09	434.89
684.43	432.36
684.77	429.87
685.10	427.55
685.44	425.26
685.78	422.95
686.12	420.69
686.45	418.43
686.79	416.09
687.13	413.87
687.46	411.67
687.80	409.46
688.14	407.24
688.48	405.23
688.81	403.03
689.15	400.85
689.49	398.73
689.82	396.63
690.16	394.52
690.50	392.48
690.83	390.55
691.17	388.54
691.51	386.68
691.84	384.84
692.18	382.89
692.52	380.88
692.85	378.91
693.19	376.98
693.52	375.13
693.86	373.33
694.20	371.53
694.53	369.79
694.87	368.00
695.21	366.25
695.54	364.43
695.88	362.72
696.21	360.99
696.55	359.29
696.88	357.62
697.22	355.97
697.56	354.40
697.89	352.76
698.23	351.19
698.56	349.59
698.90	347.98
699.23	346.32
699.57	344.81
699.90	343.30
700.24	341.72
700.58	340.18
700.91	338.64
701.25	337.22
701.58	335.79
701.92	334.41
702.25	333.02
702.59	331.61
702.92	330.26
703.26	329.00
703.59	327.71
703.93	326.53
704.26	325.31
704.60	323.98
704.93	322.70
705.26	321.42
705.60	320.20
705.93	319.04
706.27	317.99
706.60	316.91
706.94	315.81
707.27	314.74
707.61	313.71
707.94	312.73
708.27	311.62
708.61	310.57
708.94	309.57
709.28	308.54
709.61	307.60
709.94	306.63
710.28	305.60
710.61	304.63
710.95	303.51
711.28	302.62
711.61	301.65
711.95	300.75
712.28	299.78
712.61	298.82
712.95	297.88
713.28	297.02
713.61	296.13
713.95	295.25
714.28	294.40
714.61	293.52
714.95	292.65
715.28	291.80
715.61	290.92
715.95	290.08
716.28	289.27
716.61	288.41
716.95	287.62
717.28	286.89
717.61	286.11
717.94	285.38
718.28	284.56
718.61	283.85
718.94	283.15
719.27	282.51
719.61	281.88
719.94	281.24
720.27	280.51
720.60	279.83
720.94	279.23
721.27	278.64
721.60	278.04
721.93	277.48
722.27	276.91
722.60	276.39
722.93	275.79
723.26	275.24
723.59	274.72
723.93	274.19
724.26	273.64
724.59	273.10
724.92	272.60
725.25	272.12
725.59	271.63
725.92	271.12
726.25	270.65
726.58	270.15
726.91	269.66
727.24	269.17
727.57	268.72
727.91	268.20
728.24	267.72
728.57	267.25
728.90	266.81
729.23	266.32
729.56	265.90
729.89	265.44
730.22	264.98
730.55	264.49
730.89	264.02
731.22	263.58
731.55	263.13
731.88	262.70
732.21	262.28
732.54	261.84
732.87	261.43
733.20	261.02
733.53	260.64
733.86	260.23
734.19	259.83
734.52	259.43
734.85	259.12
735.18	258.69
735.51	258.32
735.84	257.94
736.17	257.61
736.50	257.19
736.83	256.97
737.16	256.63
737.49	256.25
737.82	255.89
738.15	255.53
738.48	255.20
738.81	254.88
739.14	254.52
739.47	254.23
739.80	253.88
740.13	253.54
740.46	253.17
740.79	252.86
741.12	252.58
741.45	252.28
741.78	251.95
742.11	251.68
742.44	251.36
742.77	251.06
743.10	250.76
743.43	250.45
743.75	250.05
744.08	249.88
744.41	249.64
744.74	249.39
745.07	249.15
745.40	248.89
745.73	248.62
746.06	248.35
746.39	248.07
746.71	247.81
747.04	247.57
747.37	247.31
747.70	247.05
748.03	246.79
748.36	246.58
748.68	246.33
749.01	246.08
749.34	245.84
749.67	245.62
750.00	245.37
750.33	245.23
750.65	245.01
750.98	244.69
751.31	244.47
751.64	244.26
751.97	244.08
752.29	243.88
752.62	243.63
752.95	243.44
753.28	243.20
753.60	242.98
753.93	242.75
754.26	242.58
754.59	242.39
754.91	242.18
755.24	241.93
755.57	241.75
755.90	241.55
756.22	241.35
756.55	241.14
756.88	240.94
757.20	240.70
757.53	240.51
757.86	240.32
758.19	240.18
758.51	239.99
758.84	239.76
759.17	239.57
759.49	239.44
759.82	239.31
760.15	239.19
760.47	239.09
760.80	238.95
761.13	238.79
761.45	238.58
761.78	238.47
762.11	238.34
762.43	238.20
762.76	238.05
763.08	237.93
763.41	237.81
763.74	237.67
764.06	237.56
764.39	237.43
764.71	237.27
765.04	237.14
765.37	237.00
765.69	236.89
766.02	236.78
766.34	236.65
766.67	236.48
767.00	236.37
767.32	236.27
767.65	236.24
767.97	236.15
768.30	236.09
768.62	235.95
768.95	235.82
769.27	235.67
769.60	235.56
769.92	235.47
770.25	235.35
770.57	235.21
770.90	235.06
771.22	234.96
771.55	234.89
771.87	234.78
772.20	234.70
772.52	234.72
772.85	234.76
773.17	234.68
773.50	234.61
773.82	234.53
774.15	234.41
774.47	234.22
774.80	234.10
775.12	234.01
775.45	233.93
775.77	233.83
776.09	233.78
776.42	233.70
776.74	233.63
777.07	233.55
777.39	233.48
777.72	233.42
778.04	233.33
778.36	233.26
778.69	233.18
779.01	233.10
779.33	232.92
779.66	232.73
779.98	232.66
780.31	232.58
780.63	232.51
780.95	232.47
781.28	232.45
781.60	232.38
781.92	232.31
782.25	232.25
782.57	232.17
782.89	232.12
783.22	232.06
783.54	232.02
783.86	231.98
784.19	231.94
784.51	231.94
784.83	231.91
785.16	231.84
785.48	231.83
785.80	231.78
786.12	231.76
786.45	231.70
786.77	231.66
787.09	231.59
787.42	231.54
787.74	231.44
788.06	231.37
788.38	231.32
788.71	231.25
789.03	231.20
789.35	231.22
789.67	231.16
789.99	231.12
790.32	231.06
790.64	231.04
790.96	231.05
791.28	230.97
791.61	230.92
791.93	230.90
792.25	230.81
792.57	230.86
792.89	230.79
793.21	230.74
793.54	230.71
793.86	230.68
794.18	230.63
794.50	230.61
794.82	230.59
795.14	230.58
795.47	230.59
795.79	230.57
796.11	230.46
796.43	230.44
796.75	230.42
797.07	230.39
797.39	230.31
797.71	230.24
798.04	230.23
798.36	230.19
798.68	230.15
799.00	230.17
799.32	230.08
799.64	230.05
799.96	230.05
800.28	230.02
800.60	229.99
800.92	229.98
801.24	229.96
801.56	229.90
801.89	229.87
802.21	229.84
802.53	229.78
802.85	229.80
803.17	229.81
803.49	229.74
803.81	229.67
804.13	229.64
804.45	229.60
804.77	229.58
805.09	229.59
805.41	229.59
805.73	229.52
806.05	229.44
806.37	229.40
806.69	229.36
807.01	229.33
807.33	229.29
807.65	229.22
807.97	229.22
808.28	229.22
808.60	229.19
808.92	229.15
809.24	229.22
809.56	229.20
809.88	229.13
810.20	229.11
810.52	229.15
810.84	229.13
811.16	229.13
811.48	229.10
811.80	229.13
812.12	229.07
812.43	229.08
812.75	229.08
813.07	229.06
813.39	229.06
813.71	229.02
814.03	229.03
814.35	229.03
814.67	228.98
814.98	228.92
815.30	228.90
815.62	228.88
815.94	228.79
816.26	228.78
816.58	228.78
816.89	228.78
817.21	228.75
817.53	228.74
817.85	228.71
818.17	228.65
818.48	228.55
818.80	228.58
819.12	228.51
819.44	228.50
819.76	228.43
820.07	228.37
820.39	228.35
820.71	228.33
821.03	228.30
821.34	228.32
821.66	228.32
821.98	228.32
822.30	228.30
822.61	228.36
822.93	228.28
823.25	228.25
823.57	228.23
823.88	228.22
824.20	228.21
824.52	228.19
824.83	228.22
825.15	228.23
825.47	228.18
825.79	228.20
826.10	228.16
826.42	228.19
826.74	228.21
827.05	228.16
827.37	228.15
827.69	228.14
828.00	228.14
828.32	228.16
828.64	228.14
828.95	228.19
829.27	228.13
829.58	228.15
829.90	228.13
830.22	228.13
830.53	228.09
830.85	228.07
831.17	228.01
831.48	228.00
831.80	227.97
832.11	227.97
832.43	227.92
832.75	227.93
833.06	227.96
833.38	227.92
833.69	227.93
834.01	227.90
834.32	227.90
834.64	227.85
834.96	227.82
835.27	227.80
835.59	227.73
835.90	227.73
836.22	227.69
836.53	227.69
836.85	227.65
837.16	227.73
837.48	227.73
837.79	227.77
838.11	227.75
838.42	227.77
838.74	227.75
839.05	227.78
839.37	227.74
839.68	227.67
840.00	227.67
840.31	227.67
840.63	227.66
840.94	227.63
841.26	227.60
841.57	227.58
841.88	227.58
842.20	227.56
842.51	227.53
842.83	227.55
843.14	227.63
843.46	227.61
843.77	227.57
844.08	227.56
844.40	227.53
844.71	227.53
845.03	227.47
845.34	227.48
845.65	227.46
845.97	227.47
846.28	227.52
846.60	227.53
846.91	227.52
847.22	227.51
847.54	227.55
847.85	227.55
848.16	227.54
848.48	227.52
848.79	227.55
849.10	227.55
849.42	227.56
849.73	227.46
850.04	227.49
850.36	227.43
850.67	227.46
850.98	227.47
851.30	227.46
851.61	227.50
851.92	227.48
852.23	227.51
852.55	227.51
852.86	227.46
853.17	227.43
853.49	227.46
853.80	227.49
854.11	227.48
854.42	227.53
854.74	227.53
855.05	227.51
855.36	227.48
855.67	227.50
855.99	227.46
856.30	227.56
856.61	227.55
856.92	227.54
857.23	227.51
857.55	227.49
857.86	227.47
858.17	227.45
858.48	227.49
858.79	227.47
859.11	227.52
859.42	227.53
859.73	227.53
860.04	227.52
860.35	227.51
860.66	227.47
860.98	227.44
861.29	227.47
861.60	227.47
861.91	227.51
862.22	227.46
862.53	227.47
862.84	227.39
863.16	227.38
863.47	227.41
863.78	227.39
864.09	227.42
864.40	227.43
864.71	227.41
865.02	227.41
865.33	227.38
865.64	227.34
865.95	227.31
866.27	227.39
866.58	227.37
866.89	227.34
867.20	227.35
867.51	227.35
867.82	227.33
868.13	227.37
868.44	227.31
868.75	227.33
869.06	227.34
869.37	227.32
869.68	227.32
869.99	227.29
870.30	227.32
870.61	227.29
870.92	227.29
871.23	227.28
871.54	227.26
871.85	227.25
872.16	227.26
872.47	227.29
872.78	227.23
873.09	227.24
873.40	227.24
873.71	227.24
874.02	227.22
874.33	227.20
874.64	227.15
874.95	227.18
875.26	227.18
875.56	227.16
875.87	227.16
876.18	227.15
876.49	227.28
876.80	227.24
877.11	227.23
877.42	227.23
877.73	227.23
878.04	227.24
878.35	227.24
878.66	227.22
878.96	227.19
879.27	227.17
879.58	227.15
879.89	227.13
880.20	227.15
880.51	227.12
880.82	227.14
881.12	227.11
881.43	227.10
881.74	227.09
882.05	227.10
882.36	227.10
882.67	227.11
882.97	226.98
883.28	226.99
883.59	227.00
883.90	227.03
884.21	227.04
884.51	227.01
884.82	227.01
885.13	227.00
885.44	227.02
885.74	227.06
886.05	227.05
886.36	227.06
886.67	227.05
886.98	227.14
887.28	227.14
887.59	227.17
887.90	227.16
888.20	227.15
888.51	227.19
888.82	227.19
889.13	227.21
889.43	227.29
889.74	227.28
890.05	227.26
890.35	227.23
890.66	227.23
890.97	227.23
891.28	227.21
891.58	227.19
891.89	227.22
892.20	227.19
892.50	227.19
892.81	227.21
893.12	227.17
893.42	227.12
893.73	227.12
894.04	227.11
894.34	227.12
894.65	227.12
894.95	227.06
895.26	227.06
895.57	227.08
895.87	227.02
896.18	227.04
896.48	227.04
896.79	227.03
897.10	227.03
897.40	227.03
897.71	227.03
898.01	227.04
898.32	227.00
898.63	226.96
898.93	226.95
899.24	226.93
899.54	226.95
899.85	226.94
900.15	226.90
900.46	226.92
900.76	226.94
901.07	226.93
901.38	226.94
901.68	226.93
901.99	226.87
902.29	226.83
902.60	226.84
902.90	226.81
903.21	226.80
903.51	226.77
903.82	226.75
904.12	226.76
904.43	226.75
904.73	226.75
905.03	226.80
905.34	226.89
905.64	226.88
905.95	226.86
906.25	226.82
906.56	226.82
906.86	226.80
907.17	226.77
907.47	226.74
907.77	226.73
908.08	226.69
908.38	226.68
908.69	226.68
908.99	226.66
909.30	226.66
909.60	226.66
909.90	226.70
910.21	226.72
910.51	226.69
910.81	226.67
911.12	226.67
911.42	226.62
911.73	226.52
912.03	226.53
912.33	226.53
912.64	226.54
912.94	226.54
913.24	226.53
913.55	226.48
913.85	226.51
914.15	226.52
914.46	226.57
914.76	226.56
915.06	226.56
915.37	226.55
915.67	226.53
915.97	226.54
916.27	226.49
916.58	226.48
916.88	226.48
917.18	226.50
917.49	226.59
917.79	226.59
918.09	226.62
918.39	226.63
918.70	226.66
919.00	226.67
919.30	226.72
919.60	226.75
919.91	226.79
920.21	226.80
920.51	226.81
920.81	226.80
921.12	226.82
921.42	226.82
921.72	226.82
922.02	226.85
922.32	226.89
922.63	226.92
922.93	226.97
923.23	227.00
923.53	226.98
923.83	226.91
924.13	226.94
924.44	226.97
924.74	226.98
925.04	227.01
925.34	227.02
925.64	227.00
925.94	226.98
926.24	227.03
926.55	227.01
926.85	227.01
927.15	226.99
927.45	227.00
927.75	227.02
928.05	227.05
928.35	227.07
928.65	227.06
928.95	227.08
929.26	227.08
929.56	227.11
929.86	227.13
930.16	227.14
930.46	227.15
930.76	227.13
931.06	227.11
931.36	227.09
931.66	227.12
931.96	227.10
932.26	227.11
932.56	227.10
932.86	227.08
933.16	227.08
933.46	227.10
933.76	227.10
934.06	227.10
934.36	227.12
934.66	227.08
934.96	227.08
935.26	227.07
935.56	227.09
935.86	227.04
936.16	227.03
936.46	227.00
936.76	226.97
937.06	226.97
937.36	226.99
937.66	226.98
937.96	226.99
938.26	227.01
938.56	226.99
938.86	226.95
939.16	227.00
939.46	226.99
939.76	226.98
940.06	226.96
940.35	226.93
940.65	226.86
940.95	226.89
941.25	226.87
941.55	226.82
941.85	226.78
942.15	226.81
942.45	226.80
942.75	226.78
943.04	226.77
943.34	226.78
943.64	226.73
943.94	226.71
944.24	226.67
944.54	226.64
944.84	226.65
945.13	226.63
945.43	226.58
945.73	226.57
946.03	226.54
946.33	226.54
946.62	226.54
946.92	226.53
947.22	226.53
947.52	226.56
947.82	226.57
948.11	226.55
948.41	226.50
948.71	226.50
949.01	226.53
949.31	226.51
949.60	226.49
949.90	226.52
950.20	226.50
950.50	226.52
950.79	226.51
951.09	226.51
951.39	226.54
951.69	226.53
951.98	226.56
952.28	226.60
952.58	226.61
952.87	226.62
953.17	226.64
953.47	226.64
953.76	226.64
954.06	226.63
954.36	226.65
954.66	226.66
954.95	226.66
955.25	226.69
955.55	226.70
955.84	226.67
956.14	226.68
956.44	226.68
956.73	226.67
957.03	226.71
957.32	226.67
957.62	226.69
957.92	226.72
958.21	226.69
958.51	226.80
958.81	226.80
959.10	226.85
959.40	226.89
959.69	226.91
959.99	226.90
960.29	226.90
960.58	226.89
960.88	226.92
961.17	226.91
961.47	226.93
961.76	226.96
962.06	226.99
962.36	226.99
962.65	226.99
962.95	226.99
963.24	226.97
963.54	227.00
963.83	227.02
964.13	227.00
964.42	227.00
964.72	226.92
965.01	226.92
965.31	226.86
965.60	226.80
965.90	226.83
966.19	226.82
966.49	226.85
966.78	226.82
967.08	226.84
967.37	226.85
967.67	226.81
967.96	226.81
968.26	226.80
968.55	226.81
968.85	226.82
969.14	226.81
969.43	226.82
969.73	226.82
970.02	226.78
970.32	226.76
970.61	226.74
970.91	226.73
971.20	226.69
971.49	226.69
971.79	226.73
972.08	226.69
972.38	226.70
972.67	226.66
972.96	226.68
973.26	226.64
973.55	226.71
973.85	226.69
974.14	226.69
974.43	226.73
974.73	226.68
975.02	226.68
975.31	226.70
975.61	226.67
975.90	226.63
976.19	226.62
976.49	226.64
976.78	226.66
977.07	226.64
977.37	226.68
977.66	226.68
977.95	226.66
978.24	226.67
978.54	226.67
978.83	226.67
979.12	226.66
979.42	226.66
979.71	226.62
980.00	226.62
980.29	226.58
980.59	226.53
980.88	226.54
981.17	226.52
981.46	226.50
981.76	226.52
982.05	226.56
982.34	226.55
982.63	226.54
982.93	226.51
983.22	226.54
983.51	226.52
983.80	226.57
984.09	226.58
984.39	226.56
984.68	226.54
984.97	226.53
985.26	226.51
985.55	226.51
985.85	226.47
986.14	226.49
986.43	226.51
986.72	226.53
987.01	226.51
987.30	226.50
987.59	226.51
987.89	226.48
988.18	226.47
988.47	226.48
988.76	226.43
989.05	226.45
989.34	226.44
989.63	226.47
989.92	226.43
990.22	226.38
990.51	226.41
990.80	226.42
991.09	226.45
991.38	226.47
991.67	226.47
991.96	226.47
992.25	226.47
992.54	226.45
992.83	226.44
993.12	226.46
993.41	226.50
993.70	226.52
993.99	226.57
994.28	226.58
994.58	226.58
994.87	226.60
995.16	226.59
995.45	226.56
995.74	226.50
996.03	226.50
996.32	226.53
996.61	226.51
996.90	226.49
997.19	226.47
997.48	226.47
997.77	226.47
998.06	226.46
998.34	226.46
998.63	226.48
998.92	226.46
999.21	226.48
999.50	226.49
999.79	226.45
1000.08	226.44
1000.37	226.43
1000.66	226.43
1000.95	226.50
1001.24	226.53
1001.53	226.58
1001.82	226.62
1002.11	226.60
1002.40	226.62
1002.68	226.66
1002.97	226.75
1003.26	226.77
1003.55	226.75
1003.84	226.73
1004.13	226.79
1004.42	226.81
1004.71	226.82
1004.99	226.84
1005.28	226.86
1005.57	226.85
1005.86	226.84
1006.15	226.84
1006.44	226.83
1006.72	226.86
1007.01	226.84
1007.30	226.83
1007.59	226.79
1007.88	226.76
1008.17	226.81
1008.45	226.79
1008.74	226.76
1009.03	226.70
1009.32	226.68
1009.60	226.71
1009.89	226.73
1010.18	226.68
1010.47	226.67
1010.76	226.66
1011.04	226.68
1011.33	226.65
1011.62	226.66
1011.91	226.68
1012.19	226.69
1012.48	226.71
1012.77	226.73
1013.05	226.75
1013.34	226.78
1013.63	226.78
1013.92	226.82
1014.20	226.83
1014.49	226.85
1014.78	226.82
1015.06	226.81
1015.35	226.82
1015.64	226.84
1015.92	226.85
1016.21	226.86
1016.50	226.84
1016.78	226.87
1017.07	226.88
1017.36	226.91
1017.64	226.89
1017.93	226.90
1018.22	226.88
1018.50	226.84
1018.79	226.83
1019.08	226.80
1019.36	226.79
1019.65	226.79
1019.93	226.78
1020.22	226.77
1020.51	226.77
1020.79	226.78
1021.08	226.62
1021.36	225.99
1021.65	226.94
1021.94	226.82
1022.22	227.01
1022.51	226.45
1022.79	226.84
1023.08	226.81
1023.36	227.36
1023.65	226.26
>>>>>End Processed Spectral Data<<<<<
