SpectraSuite Data File
++++++++++++++++++++++++++++++++++++
Date: Fri Feb 01 15:14:00 EST 2013
User: group
Dark Spectrum Present: No
Reference Spectrum Present: No
Number of Sampled Component Spectra: 1
Spectrometers: USB2E7196
Integration Time (usec): 35000 (USB2E7196)
Spectra Averaged: 100 (USB2E7196)
Boxcar Smoothing: 10 (USB2E7196)
Correct for Electrical Dark: No (USB2E7196)
Strobe/Lamp Enabled: No (USB2E7196)
Correct for Detector Non-linearity: No (USB2E7196)
Correct for Stray Light: No (USB2E7196)
Number of Pixels in Processed Spectrum: 2048
>>>>>Begin Processed Spectral Data<<<<<
339.09	0.00
339.48	215.16
339.86	216.08
340.24	218.71
340.63	219.39
341.01	222.29
341.39	222.25
341.78	223.16
342.16	223.92
342.54	224.98
342.93	213.32
343.31	224.11
343.69	224.65
344.07	225.16
344.46	225.55
344.84	225.91
345.22	226.13
345.60	226.39
345.99	226.59
346.37	226.76
346.75	226.87
347.13	226.95
347.52	227.03
347.90	227.11
348.28	227.13
348.66	227.21
349.05	227.22
349.43	227.27
349.81	227.30
350.19	227.38
350.57	227.43
350.96	227.49
351.34	227.58
351.72	227.66
352.10	227.74
352.48	227.82
352.87	227.92
353.25	227.98
353.63	228.04
354.01	228.11
354.39	228.17
354.77	228.26
355.15	228.35
355.54	228.39
355.92	228.44
356.30	228.54
356.68	228.66
357.06	228.76
357.44	228.81
357.82	228.89
358.20	228.94
358.58	229.02
358.97	229.12
359.35	229.16
359.73	229.23
360.11	229.27
360.49	229.30
360.87	229.33
361.25	229.41
361.63	229.47
362.01	229.51
362.39	229.53
362.77	229.56
363.15	229.59
363.53	229.61
363.91	229.67
364.29	229.70
364.67	229.62
365.05	229.61
365.43	229.63
365.81	229.62
366.19	229.66
366.57	229.67
366.95	229.62
367.33	229.58
367.71	229.55
368.09	229.54
368.47	229.51
368.85	229.45
369.23	229.43
369.61	229.35
369.99	229.32
370.37	229.28
370.75	229.31
371.13	229.23
371.51	229.18
371.89	229.10
372.27	229.02
372.65	228.97
373.03	228.93
373.41	228.85
373.78	228.78
374.16	228.69
374.54	228.59
374.92	228.51
375.30	228.48
375.68	228.41
376.06	228.35
376.44	228.29
376.82	228.22
377.19	228.13
377.57	228.09
377.95	227.96
378.33	227.90
378.71	227.74
379.09	227.69
379.47	227.61
379.84	227.53
380.22	227.47
380.60	227.38
380.98	227.32
381.36	227.22
381.73	227.13
382.11	227.05
382.49	227.00
382.87	226.93
383.25	226.87
383.62	226.92
384.00	226.83
384.38	226.78
384.76	226.76
385.13	226.71
385.51	226.64
385.89	226.60
386.27	226.54
386.64	226.55
387.02	226.49
387.40	226.47
387.78	226.42
388.15	226.40
388.53	226.38
388.91	226.33
389.29	226.36
389.66	226.38
390.04	226.34
390.42	226.33
390.79	226.33
391.17	226.32
391.55	226.20
391.92	226.21
392.30	226.24
392.68	226.22
393.05	226.22
393.43	226.26
393.81	226.29
394.18	226.31
394.56	226.34
394.94	226.41
395.31	226.39
395.69	226.49
396.06	226.52
396.44	226.59
396.82	226.63
397.19	226.70
397.57	226.77
397.95	226.86
398.32	226.92
398.70	226.99
399.07	227.10
399.45	227.13
399.82	227.21
400.20	227.26
400.58	227.37
400.95	227.47
401.33	227.59
401.70	227.79
402.08	227.91
402.45	227.96
402.83	228.05
403.20	228.21
403.58	228.33
403.95	228.51
404.33	228.64
404.71	228.75
405.08	228.95
405.46	229.07
405.83	229.23
406.21	229.37
406.58	229.55
406.96	229.72
407.33	229.95
407.70	230.18
408.08	230.46
408.45	230.72
408.83	230.96
409.20	231.15
409.58	231.32
409.95	231.58
410.33	231.88
410.70	232.12
411.08	232.42
411.45	232.72
411.82	233.01
412.20	233.37
412.57	233.82
412.95	234.09
413.32	234.50
413.69	234.92
414.07	235.36
414.44	235.80
414.82	236.24
415.19	236.78
415.56	237.29
415.94	237.84
416.31	238.46
416.68	239.07
417.06	239.77
417.43	240.44
417.81	241.22
418.18	242.01
418.55	242.83
418.93	243.70
419.30	244.58
419.67	245.48
420.04	246.39
420.42	247.35
420.79	248.52
421.16	249.66
421.54	250.84
421.91	252.04
422.28	253.29
422.66	254.62
423.03	255.89
423.40	257.22
423.77	258.59
424.15	259.96
424.52	261.43
424.89	263.04
425.26	264.58
425.64	266.00
426.01	267.55
426.38	269.22
426.75	270.87
427.13	272.58
427.50	274.42
427.87	276.33
428.24	278.19
428.61	279.94
428.99	281.87
429.36	283.96
429.73	286.03
430.10	288.03
430.47	290.14
430.85	292.26
431.22	294.48
431.59	296.86
431.96	299.14
432.33	301.61
432.70	303.95
433.08	306.75
433.45	309.39
433.82	311.99
434.19	314.89
434.56	317.71
434.93	320.38
435.30	323.01
435.68	325.84
436.05	328.69
436.42	331.53
436.79	334.09
437.16	336.77
437.53	339.62
437.90	342.45
438.27	345.15
438.64	348.02
439.01	350.65
439.38	352.92
439.75	355.13
440.13	357.67
440.50	360.09
440.87	361.97
441.24	363.94
441.61	366.11
441.98	367.58
442.35	369.39
442.72	371.28
443.09	373.10
443.46	374.15
443.83	374.74
444.20	375.20
444.57	376.05
444.94	376.34
445.31	376.67
445.68	377.03
446.05	377.10
446.42	376.71
446.79	376.27
447.16	375.85
447.53	375.51
447.90	374.35
448.27	373.18
448.64	371.58
449.01	370.48
449.37	368.52
449.74	366.66
450.11	364.40
450.48	361.90
450.85	359.37
451.22	357.25
451.59	355.25
451.96	353.37
452.33	350.77
452.70	348.44
453.07	345.61
453.43	342.73
453.80	340.02
454.17	337.34
454.54	334.82
454.91	332.10
455.28	329.38
455.65	326.90
456.02	324.45
456.38	322.30
456.75	319.61
457.12	317.37
457.49	315.12
457.86	312.97
458.23	311.08
458.59	309.01
458.96	306.86
459.33	304.97
459.70	303.08
460.07	301.56
460.43	299.84
460.80	298.19
461.17	296.74
461.54	295.22
461.91	293.77
462.27	292.31
462.64	291.02
463.01	289.66
463.38	288.33
463.74	286.93
464.11	285.77
464.48	284.74
464.85	283.62
465.21	282.73
465.58	281.78
465.95	280.70
466.32	279.77
466.68	278.90
467.05	278.00
467.42	277.08
467.78	276.11
468.15	275.23
468.52	274.57
468.88	273.70
469.25	272.90
469.62	272.28
469.98	271.59
470.35	270.91
470.72	270.30
471.08	269.61
471.45	269.04
471.82	268.47
472.18	267.84
472.55	267.38
472.92	266.87
473.28	266.37
473.65	265.90
474.02	265.44
474.38	265.04
474.75	264.68
475.11	264.31
475.48	264.06
475.85	263.78
476.21	263.54
476.58	263.34
476.94	263.19
477.31	262.99
477.67	262.82
478.04	262.70
478.41	262.65
478.77	262.68
479.14	262.64
479.50	262.63
479.87	262.69
480.23	262.80
480.60	262.89
480.96	262.97
481.33	263.17
481.69	263.38
482.06	263.62
482.42	263.85
482.79	264.11
483.15	264.40
483.52	264.81
483.88	265.13
484.25	265.52
484.61	265.92
484.98	266.38
485.34	266.96
485.71	267.57
486.07	268.18
486.44	268.80
486.80	269.46
487.17	270.16
487.53	270.96
487.90	271.79
488.26	272.71
488.62	273.74
488.99	274.74
489.35	275.79
489.72	276.91
490.08	278.06
490.44	279.30
490.81	280.66
491.17	282.00
491.54	283.50
491.90	285.05
492.26	286.71
492.63	288.45
492.99	290.19
493.36	292.08
493.72	294.13
494.08	296.20
494.45	298.46
494.81	300.86
495.17	303.31
495.54	305.87
495.90	308.53
496.26	311.33
496.63	314.27
496.99	317.40
497.35	320.63
497.72	324.04
498.08	327.54
498.44	331.19
498.80	335.13
499.17	339.18
499.53	343.29
499.89	347.64
500.26	352.16
500.62	356.84
500.98	361.85
501.34	366.91
501.71	372.19
502.07	377.59
502.43	383.22
502.79	389.02
503.16	395.04
503.52	401.31
503.88	407.68
504.24	414.28
504.60	421.10
504.97	428.18
505.33	435.51
505.69	443.21
506.05	451.03
506.41	458.93
506.78	467.04
507.14	475.55
507.50	484.29
507.86	493.26
508.22	502.49
508.59	511.64
508.95	521.24
509.31	531.17
509.67	541.28
510.03	551.59
510.39	562.12
510.75	572.97
511.12	583.86
511.48	595.15
511.84	606.66
512.20	618.20
512.56	630.18
512.92	642.35
513.28	654.63
513.64	667.13
514.00	679.78
514.37	692.69
514.73	705.69
515.09	718.76
515.45	732.03
515.81	745.59
516.17	759.55
516.53	773.64
516.89	787.74
517.25	801.99
517.61	816.43
517.97	830.92
518.33	845.35
518.69	860.26
519.05	875.33
519.41	890.47
519.77	906.03
520.13	921.53
520.49	936.93
520.85	952.41
521.21	968.16
521.57	984.51
521.93	1000.36
522.29	1016.80
522.65	1032.99
523.01	1049.24
523.37	1065.41
523.73	1081.69
524.09	1097.85
524.45	1114.26
524.81	1130.92
525.17	1147.78
525.53	1164.78
525.89	1181.83
526.25	1198.62
526.61	1215.02
526.97	1231.91
527.33	1248.45
527.68	1265.15
528.04	1281.76
528.40	1298.53
528.76	1315.68
529.12	1332.20
529.48	1349.15
529.84	1365.30
530.20	1382.01
530.56	1399.25
530.91	1416.62
531.27	1433.45
531.63	1449.99
531.99	1466.57
532.35	1482.65
532.71	1498.58
533.07	1514.86
533.42	1530.69
533.78	1546.80
534.14	1563.16
534.50	1578.58
534.86	1594.59
535.21	1609.79
535.57	1625.64
535.93	1641.21
536.29	1656.12
536.65	1671.49
537.00	1686.42
537.36	1701.74
537.72	1716.44
538.08	1730.80
538.44	1744.69
538.79	1758.63
539.15	1772.36
539.51	1786.22
539.87	1800.61
540.22	1814.45
540.58	1828.24
540.94	1841.57
541.29	1854.69
541.65	1867.50
542.01	1880.77
542.37	1892.98
542.72	1905.55
543.08	1917.52
543.44	1929.89
543.79	1941.05
544.15	1951.98
544.51	1963.60
544.87	1974.66
545.22	1985.55
545.58	1995.93
545.94	2005.72
546.29	2015.55
546.65	2025.43
547.01	2034.73
547.36	2043.46
547.72	2051.99
548.07	2059.99
548.43	2068.33
548.79	2076.37
549.14	2083.85
549.50	2091.32
549.86	2099.24
550.21	2106.54
550.57	2113.81
550.92	2120.47
551.28	2127.68
551.64	2134.76
551.99	2141.27
552.35	2147.38
552.70	2153.46
553.06	2159.38
553.41	2165.76
553.77	2171.95
554.13	2178.09
554.48	2184.16
554.84	2189.55
555.19	2194.84
555.55	2199.84
555.90	2204.20
556.26	2208.85
556.61	2213.58
556.97	2217.64
557.32	2221.71
557.68	2225.87
558.03	2229.98
558.39	2233.67
558.74	2238.16
559.10	2241.89
559.45	2245.61
559.81	2249.95
560.16	2253.58
560.52	2256.76
560.87	2260.16
561.23	2262.70
561.58	2265.52
561.94	2268.02
562.29	2270.44
562.64	2273.05
563.00	2275.75
563.35	2279.41
563.71	2282.64
564.06	2285.97
564.42	2288.81
564.77	2291.24
565.12	2293.38
565.48	2295.16
565.83	2296.82
566.19	2297.98
566.54	2299.03
566.89	2300.17
567.25	2300.62
567.60	2302.17
567.96	2303.68
568.31	2304.41
568.66	2305.36
569.02	2306.06
569.37	2306.33
569.72	2307.02
570.08	2307.09
570.43	2306.99
570.78	2306.13
571.14	2304.48
571.49	2302.86
571.84	2302.57
572.20	2301.23
572.55	2300.14
572.90	2298.66
573.26	2297.20
573.61	2295.51
573.96	2293.47
574.31	2290.33
574.67	2287.30
575.02	2283.37
575.37	2280.05
575.72	2276.13
576.08	2272.79
576.43	2269.29
576.78	2265.47
577.13	2262.51
577.49	2259.34
577.84	2255.72
578.19	2252.00
578.54	2248.15
578.90	2243.86
579.25	2238.17
579.60	2233.10
579.95	2227.96
580.30	2222.90
580.66	2217.70
581.01	2212.59
581.36	2207.76
581.71	2203.49
582.06	2198.99
582.42	2194.61
582.77	2189.17
583.12	2184.57
583.47	2179.73
583.82	2174.63
584.17	2169.22
584.53	2163.49
584.88	2157.86
585.23	2151.92
585.58	2146.35
585.93	2140.91
586.28	2136.02
586.63	2130.85
586.98	2125.75
587.34	2120.86
587.69	2115.78
588.04	2110.31
588.39	2104.57
588.74	2097.84
589.09	2091.44
589.44	2084.57
589.79	2078.47
590.14	2072.80
590.49	2066.11
590.84	2059.59
591.19	2053.42
591.54	2046.94
591.89	2039.32
592.25	2032.32
592.60	2025.09
592.95	2017.50
593.30	2010.16
593.65	2002.53
594.00	1995.43
594.35	1988.15
594.70	1980.15
595.05	1972.79
595.40	1965.57
595.75	1958.09
596.10	1951.75
596.45	1944.87
596.80	1938.58
597.15	1931.87
597.50	1924.67
597.85	1918.28
598.19	1911.65
598.54	1904.56
598.89	1897.95
599.24	1891.95
599.59	1885.12
599.94	1878.99
600.29	1872.57
600.64	1865.92
600.99	1858.45
601.34	1851.49
601.69	1844.50
602.04	1837.47
602.39	1830.20
602.74	1823.32
603.08	1816.52
603.43	1809.71
603.78	1802.49
604.13	1795.21
604.48	1787.73
604.83	1780.99
605.18	1773.90
605.53	1765.84
605.87	1757.69
606.22	1750.46
606.57	1742.47
606.92	1735.20
607.27	1727.82
607.62	1720.76
607.96	1713.39
608.31	1706.70
608.66	1699.01
609.01	1691.46
609.36	1684.02
609.70	1675.93
610.05	1667.87
610.40	1660.11
610.75	1652.04
611.10	1644.41
611.44	1636.11
611.79	1628.19
612.14	1619.41
612.49	1610.42
612.83	1602.09
613.18	1594.09
613.53	1585.89
613.88	1577.46
614.22	1569.25
614.57	1560.78
614.92	1552.89
615.27	1545.31
615.61	1536.92
615.96	1529.03
616.31	1521.37
616.65	1513.93
617.00	1506.38
617.35	1498.69
617.70	1490.26
618.04	1481.62
618.39	1473.36
618.74	1465.67
619.08	1457.37
619.43	1449.80
619.78	1442.70
620.12	1435.47
620.47	1427.89
620.82	1419.77
621.16	1412.40
621.51	1404.81
621.85	1397.12
622.20	1388.55
622.55	1380.22
622.89	1372.51
623.24	1364.85
623.59	1357.49
623.93	1349.98
624.28	1342.87
624.62	1335.37
624.97	1328.35
625.32	1321.70
625.66	1314.65
626.01	1307.44
626.35	1300.00
626.70	1292.23
627.04	1284.52
627.39	1276.77
627.73	1269.41
628.08	1262.47
628.43	1255.07
628.77	1247.69
629.12	1240.15
629.46	1232.98
629.81	1225.61
630.15	1218.43
630.50	1211.10
630.84	1202.93
631.19	1195.17
631.53	1187.65
631.88	1180.12
632.22	1172.59
632.57	1165.26
632.91	1157.82
633.26	1150.43
633.60	1143.13
633.95	1136.16
634.29	1129.25
634.64	1122.66
634.98	1115.28
635.32	1108.12
635.67	1101.64
636.01	1095.00
636.36	1088.26
636.70	1081.79
637.05	1075.19
637.39	1068.65
637.73	1062.16
638.08	1056.34
638.42	1050.30
638.77	1043.83
639.11	1037.19
639.45	1030.81
639.80	1024.11
640.14	1017.64
640.49	1011.18
640.83	1004.80
641.17	998.52
641.52	992.15
641.86	985.73
642.20	979.94
642.55	973.81
642.89	967.36
643.23	960.85
643.58	955.02
643.92	948.77
644.26	942.67
644.61	936.76
644.95	930.66
645.29	923.96
645.64	917.17
645.98	910.79
646.32	905.05
646.66	898.90
647.01	893.15
647.35	887.47
647.69	881.62
648.04	876.18
648.38	870.37
648.72	864.31
649.06	858.17
649.41	852.21
649.75	846.16
650.09	840.16
650.43	834.35
650.78	828.20
651.12	822.28
651.46	816.62
651.80	810.80
652.14	805.46
652.49	800.06
652.83	794.91
653.17	789.27
653.51	783.48
653.85	778.16
654.20	772.45
654.54	766.50
654.88	760.84
655.22	754.95
655.56	749.37
655.90	743.97
656.25	738.73
656.59	733.41
656.93	728.33
657.27	723.21
657.61	717.79
657.95	712.72
658.29	707.67
658.64	702.45
658.98	697.24
659.32	691.75
659.66	686.60
660.00	681.29
660.34	676.39
660.68	671.52
661.02	666.52
661.36	661.86
661.70	657.35
662.05	652.95
662.39	648.58
662.73	644.09
663.07	639.72
663.41	635.36
663.75	630.89
664.09	626.37
664.43	621.97
664.77	617.80
665.11	613.62
665.45	609.49
665.79	605.38
666.13	601.21
666.47	597.14
666.81	593.02
667.15	588.92
667.49	585.04
667.83	581.29
668.17	577.39
668.51	573.35
668.85	569.31
669.19	565.49
669.53	561.69
669.87	557.78
670.21	554.09
670.55	550.38
670.89	546.92
671.23	543.48
671.57	540.03
671.91	536.56
672.25	533.09
672.58	529.64
672.92	526.27
673.26	523.12
673.60	519.96
673.94	516.87
674.28	514.00
674.62	511.04
674.96	507.90
675.30	504.95
675.64	501.98
675.97	499.24
676.31	496.37
676.65	493.45
676.99	490.69
677.33	487.85
677.67	485.08
678.01	482.10
678.34	479.15
678.68	476.32
679.02	473.53
679.36	470.75
679.70	468.05
680.04	465.34
680.37	462.43
680.71	459.72
681.05	457.15
681.39	454.37
681.73	451.72
682.06	449.23
682.40	446.69
682.74	444.26
683.08	441.73
683.42	439.16
683.75	436.72
684.09	434.28
684.43	431.83
684.77	429.38
685.10	427.08
685.44	424.74
685.78	422.46
686.12	420.20
686.45	417.91
686.79	415.59
687.13	413.39
687.46	411.28
687.80	409.09
688.14	406.97
688.48	404.96
688.81	402.73
689.15	400.60
689.49	398.49
689.82	396.33
690.16	394.23
690.50	392.31
690.83	390.33
691.17	388.36
691.51	386.44
691.84	384.62
692.18	382.65
692.52	380.70
692.85	378.80
693.19	376.94
693.52	375.12
693.86	373.31
694.20	371.50
694.53	369.68
694.87	367.82
695.21	365.98
695.54	364.20
695.88	362.54
696.21	360.80
696.55	359.14
696.88	357.52
697.22	355.88
697.56	354.24
697.89	352.61
698.23	350.96
698.56	349.33
698.90	347.70
699.23	346.09
699.57	344.54
699.90	343.00
700.24	341.45
700.58	339.93
700.91	338.43
701.25	337.00
701.58	335.67
701.92	334.36
702.25	332.99
702.59	331.62
702.92	330.24
703.26	328.98
703.59	327.71
703.93	326.54
704.26	325.32
704.60	324.04
704.93	322.77
705.26	321.54
705.60	320.41
705.93	319.33
706.27	318.29
706.60	317.25
706.94	316.18
707.27	315.07
707.61	314.04
707.94	313.01
708.27	311.96
708.61	310.89
708.94	309.87
709.28	308.90
709.61	307.93
709.94	307.02
710.28	306.01
710.61	305.02
710.95	303.94
711.28	303.01
711.61	302.03
711.95	301.10
712.28	300.17
712.61	299.17
712.95	298.20
713.28	297.31
713.61	296.39
713.95	295.53
714.28	294.70
714.61	293.84
714.95	293.01
715.28	292.15
715.61	291.27
715.95	290.41
716.28	289.51
716.61	288.72
716.95	287.90
717.28	287.15
717.61	286.38
717.94	285.65
718.28	284.83
718.61	284.11
718.94	283.39
719.27	282.75
719.61	282.11
719.94	281.47
720.27	280.75
720.60	280.12
720.94	279.42
721.27	278.80
721.60	278.19
721.93	277.56
722.27	277.03
722.60	276.48
722.93	275.92
723.26	275.38
723.59	274.80
723.93	274.25
724.26	273.67
724.59	273.08
724.92	272.59
725.25	272.14
725.59	271.62
725.92	271.13
726.25	270.61
726.58	270.12
726.91	269.62
727.24	269.16
727.57	268.66
727.91	268.20
728.24	267.74
728.57	267.25
728.90	266.79
729.23	266.27
729.56	265.83
729.89	265.36
730.22	264.92
730.55	264.45
730.89	264.01
731.22	263.58
731.55	263.17
731.88	262.71
732.21	262.26
732.54	261.82
732.87	261.42
733.20	261.02
733.53	260.63
733.86	260.22
734.19	259.81
734.52	259.43
734.85	259.11
735.18	258.70
735.51	258.40
735.84	258.06
736.17	257.70
736.50	257.29
736.83	257.08
737.16	256.73
737.49	256.39
737.82	256.03
738.15	255.69
738.48	255.33
738.81	255.01
739.14	254.69
739.47	254.40
739.80	254.07
740.13	253.76
740.46	253.44
740.79	253.12
741.12	252.84
741.45	252.55
741.78	252.18
742.11	251.87
742.44	251.48
742.77	251.23
743.10	250.91
743.43	250.63
743.75	250.23
744.08	250.07
744.41	249.79
744.74	249.52
745.07	249.26
745.40	249.01
745.73	248.76
746.06	248.51
746.39	248.25
746.71	248.02
747.04	247.74
747.37	247.49
747.70	247.26
748.03	246.98
748.36	246.78
748.68	246.56
749.01	246.34
749.34	246.14
749.67	245.87
750.00	245.65
750.33	245.48
750.65	245.25
750.98	244.92
751.31	244.69
751.64	244.48
751.97	244.32
752.29	244.13
752.62	243.91
752.95	243.68
753.28	243.44
753.60	243.21
753.93	243.05
754.26	242.84
754.59	242.63
754.91	242.44
755.24	242.22
755.57	242.03
755.90	241.84
756.22	241.63
756.55	241.41
756.88	241.24
757.20	241.02
757.53	240.85
757.86	240.69
758.19	240.53
758.51	240.38
758.84	240.14
759.17	239.97
759.49	239.79
759.82	239.68
760.15	239.55
760.47	239.39
760.80	239.21
761.13	239.09
761.45	238.92
761.78	238.77
762.11	238.63
762.43	238.48
762.76	238.35
763.08	238.24
763.41	238.10
763.74	237.97
764.06	237.82
764.39	237.67
764.71	237.54
765.04	237.40
765.37	237.27
765.69	237.16
766.02	237.04
766.34	236.92
766.67	236.76
767.00	236.67
767.32	236.62
767.65	236.58
767.97	236.44
768.30	236.34
768.62	236.26
768.95	236.14
769.27	236.02
769.60	235.92
769.92	235.79
770.25	235.72
770.57	235.58
770.90	235.50
771.22	235.37
771.55	235.27
771.87	235.18
772.20	235.07
772.52	235.04
772.85	235.02
773.17	234.92
773.50	234.81
773.82	234.71
774.15	234.59
774.47	234.44
774.80	234.37
775.12	234.28
775.45	234.17
775.77	234.12
776.09	234.03
776.42	233.94
776.74	233.91
777.07	233.82
777.39	233.77
777.72	233.68
778.04	233.61
778.36	233.55
778.69	233.49
779.01	233.43
779.33	233.31
779.66	233.15
779.98	233.11
780.31	233.07
780.63	233.02
780.95	232.96
781.28	232.89
781.60	232.79
781.92	232.72
782.25	232.66
782.57	232.61
782.89	232.57
783.22	232.51
783.54	232.40
783.86	232.37
784.19	232.29
784.51	232.25
784.83	232.22
785.16	232.16
785.48	232.10
785.80	232.05
786.12	232.02
786.45	232.00
786.77	231.94
787.09	231.89
787.42	231.84
787.74	231.81
788.06	231.76
788.38	231.72
788.71	231.69
789.03	231.68
789.35	231.63
789.67	231.57
789.99	231.56
790.32	231.54
790.64	231.50
790.96	231.57
791.28	231.53
791.61	231.46
791.93	231.42
792.25	231.39
792.57	231.45
792.89	231.37
793.21	231.32
793.54	231.26
793.86	231.22
794.18	231.19
794.50	231.11
794.82	231.08
795.14	231.06
795.47	231.04
795.79	231.01
796.11	230.93
796.43	230.92
796.75	230.84
797.07	230.77
797.39	230.72
797.71	230.60
798.04	230.54
798.36	230.54
798.68	230.50
799.00	230.49
799.32	230.39
799.64	230.39
799.96	230.33
800.28	230.27
800.60	230.22
800.92	230.20
801.24	230.20
801.56	230.17
801.89	230.12
802.21	230.08
802.53	229.98
802.85	230.01
803.17	229.99
803.49	229.98
803.81	229.95
804.13	229.92
804.45	229.87
804.77	229.86
805.09	229.82
805.41	229.80
805.73	229.73
806.05	229.64
806.37	229.59
806.69	229.57
807.01	229.53
807.33	229.50
807.65	229.42
807.97	229.42
808.28	229.37
808.60	229.35
808.92	229.31
809.24	229.41
809.56	229.33
809.88	229.26
810.20	229.20
810.52	229.22
810.84	229.20
811.16	229.19
811.48	229.16
811.80	229.19
812.12	229.15
812.43	229.16
812.75	229.15
813.07	229.13
813.39	229.12
813.71	229.11
814.03	229.11
814.35	229.10
814.67	229.04
814.98	229.03
815.30	229.05
815.62	228.99
815.94	228.89
816.26	228.92
816.58	228.90
816.89	228.94
817.21	228.89
817.53	228.87
817.85	228.85
818.17	228.80
818.48	228.76
818.80	228.77
819.12	228.72
819.44	228.71
819.76	228.69
820.07	228.67
820.39	228.63
820.71	228.59
821.03	228.56
821.34	228.55
821.66	228.54
821.98	228.48
822.30	228.51
822.61	228.54
822.93	228.49
823.25	228.46
823.57	228.43
823.88	228.42
824.20	228.40
824.52	228.38
824.83	228.38
825.15	228.34
825.47	228.32
825.79	228.30
826.10	228.29
826.42	228.28
826.74	228.27
827.05	228.29
827.37	228.29
827.69	228.33
828.00	228.31
828.32	228.32
828.64	228.29
828.95	228.32
829.27	228.30
829.58	228.30
829.90	228.32
830.22	228.31
830.53	228.30
830.85	228.31
831.17	228.30
831.48	228.30
831.80	228.30
832.11	228.32
832.43	228.32
832.75	228.32
833.06	228.37
833.38	228.35
833.69	228.34
834.01	228.38
834.32	228.36
834.64	228.36
834.96	228.40
835.27	228.42
835.59	228.38
835.90	228.33
836.22	228.34
836.53	228.30
836.85	228.29
837.16	228.37
837.48	228.32
837.79	228.35
838.11	228.37
838.42	228.37
838.74	228.34
839.05	228.36
839.37	228.35
839.68	228.30
840.00	228.29
840.31	228.31
840.63	228.28
840.94	228.26
841.26	228.23
841.57	228.19
841.88	228.15
842.20	228.13
842.51	228.14
842.83	228.15
843.14	228.20
843.46	228.20
843.77	228.14
844.08	228.17
844.40	228.16
844.71	228.10
845.03	228.08
845.34	228.07
845.65	228.04
845.97	228.02
846.28	228.01
846.60	228.02
846.91	227.98
847.22	227.99
847.54	227.98
847.85	227.98
848.16	227.96
848.48	227.94
848.79	227.95
849.10	227.91
849.42	227.88
849.73	227.81
850.04	227.82
850.36	227.80
850.67	227.79
850.98	227.76
851.30	227.76
851.61	227.74
851.92	227.70
852.23	227.72
852.55	227.71
852.86	227.70
853.17	227.71
853.49	227.72
853.80	227.70
854.11	227.65
854.42	227.64
854.74	227.62
855.05	227.64
855.36	227.64
855.67	227.68
855.99	227.70
856.30	227.81
856.61	227.77
856.92	227.73
857.23	227.72
857.55	227.70
857.86	227.68
858.17	227.68
858.48	227.67
858.79	227.65
859.11	227.64
859.42	227.63
859.73	227.62
860.04	227.62
860.35	227.60
860.66	227.61
860.98	227.60
861.29	227.58
861.60	227.58
861.91	227.57
862.22	227.53
862.53	227.49
862.84	227.36
863.16	227.41
863.47	227.41
863.78	227.41
864.09	227.42
864.40	227.43
864.71	227.43
865.02	227.49
865.33	227.49
865.64	227.48
865.95	227.48
866.27	227.50
866.58	227.49
866.89	227.53
867.20	227.53
867.51	227.51
867.82	227.53
868.13	227.55
868.44	227.52
868.75	227.53
869.06	227.55
869.37	227.58
869.68	227.54
869.99	227.55
870.30	227.56
870.61	227.57
870.92	227.57
871.23	227.55
871.54	227.55
871.85	227.59
872.16	227.58
872.47	227.55
872.78	227.53
873.09	227.53
873.40	227.52
873.71	227.50
874.02	227.54
874.33	227.53
874.64	227.50
874.95	227.54
875.26	227.48
875.56	227.46
875.87	227.46
876.18	227.48
876.49	227.58
876.80	227.55
877.11	227.53
877.42	227.55
877.73	227.58
878.04	227.56
878.35	227.53
878.66	227.56
878.96	227.55
879.27	227.55
879.58	227.56
879.89	227.54
880.20	227.57
880.51	227.54
880.82	227.56
881.12	227.56
881.43	227.54
881.74	227.57
882.05	227.57
882.36	227.53
882.67	227.49
882.97	227.39
883.28	227.37
883.59	227.38
883.90	227.36
884.21	227.36
884.51	227.34
884.82	227.34
885.13	227.30
885.44	227.29
885.74	227.25
886.05	227.21
886.36	227.19
886.67	227.15
886.98	227.21
887.28	227.17
887.59	227.14
887.90	227.13
888.20	227.11
888.51	227.11
888.82	227.11
889.13	227.14
889.43	227.20
889.74	227.22
890.05	227.18
890.35	227.18
890.66	227.15
890.97	227.11
891.28	227.08
891.58	227.11
891.89	227.15
892.20	227.15
892.50	227.13
892.81	227.17
893.12	227.20
893.42	227.12
893.73	227.13
894.04	227.13
894.34	227.15
894.65	227.14
894.95	227.14
895.26	227.14
895.57	227.19
895.87	227.13
896.18	227.11
896.48	227.16
896.79	227.17
897.10	227.18
897.40	227.23
897.71	227.25
898.01	227.21
898.32	227.21
898.63	227.20
898.93	227.24
899.24	227.21
899.54	227.17
899.85	227.20
900.15	227.19
900.46	227.24
900.76	227.26
901.07	227.25
901.38	227.25
901.68	227.27
901.99	227.21
902.29	227.18
902.60	227.19
902.90	227.15
903.21	227.14
903.51	227.15
903.82	227.14
904.12	227.15
904.43	227.19
904.73	227.17
905.03	227.19
905.34	227.28
905.64	227.28
905.95	227.30
906.25	227.29
906.56	227.32
906.86	227.29
907.17	227.28
907.47	227.35
907.77	227.33
908.08	227.33
908.38	227.36
908.69	227.40
908.99	227.40
909.30	227.41
909.60	227.41
909.90	227.44
910.21	227.42
910.51	227.41
910.81	227.42
911.12	227.43
911.42	227.43
911.73	227.36
912.03	227.40
912.33	227.39
912.64	227.40
912.94	227.42
913.24	227.43
913.55	227.44
913.85	227.42
914.15	227.48
914.46	227.49
914.76	227.48
915.06	227.48
915.37	227.48
915.67	227.50
915.97	227.51
916.27	227.49
916.58	227.49
916.88	227.50
917.18	227.48
917.49	227.55
917.79	227.57
918.09	227.56
918.39	227.55
918.70	227.59
919.00	227.59
919.30	227.58
919.60	227.56
919.91	227.50
920.21	227.48
920.51	227.45
920.81	227.42
921.12	227.43
921.42	227.42
921.72	227.42
922.02	227.41
922.32	227.40
922.63	227.41
922.93	227.47
923.23	227.48
923.53	227.46
923.83	227.41
924.13	227.40
924.44	227.38
924.74	227.37
925.04	227.35
925.34	227.34
925.64	227.32
925.94	227.32
926.24	227.39
926.55	227.39
926.85	227.39
927.15	227.39
927.45	227.39
927.75	227.33
928.05	227.32
928.35	227.30
928.65	227.34
928.95	227.30
929.26	227.21
929.56	227.22
929.86	227.22
930.16	227.17
930.46	227.12
930.76	227.14
931.06	227.11
931.36	227.08
931.66	227.11
931.96	227.14
932.26	227.16
932.56	227.10
932.86	227.07
933.16	227.08
933.46	227.07
933.76	227.06
934.06	227.11
934.36	227.13
934.66	227.13
934.96	227.09
935.26	227.16
935.56	227.17
935.86	227.17
936.16	227.15
936.46	227.13
936.76	227.16
937.06	227.18
937.36	227.18
937.66	227.20
937.96	227.16
938.26	227.14
938.56	227.13
938.86	227.17
939.16	227.24
939.46	227.22
939.76	227.26
940.06	227.25
940.35	227.28
940.65	227.24
940.95	227.26
941.25	227.24
941.55	227.22
941.85	227.25
942.15	227.27
942.45	227.34
942.75	227.38
943.04	227.38
943.34	227.39
943.64	227.39
943.94	227.38
944.24	227.40
944.54	227.36
944.84	227.36
945.13	227.36
945.43	227.30
945.73	227.30
946.03	227.28
946.33	227.26
946.62	227.22
946.92	227.24
947.22	227.23
947.52	227.26
947.82	227.23
948.11	227.23
948.41	227.19
948.71	227.17
949.01	227.16
949.31	227.17
949.60	227.17
949.90	227.21
950.20	227.18
950.50	227.20
950.79	227.22
951.09	227.25
951.39	227.22
951.69	227.22
951.98	227.23
952.28	227.23
952.58	227.24
952.87	227.26
953.17	227.26
953.47	227.24
953.76	227.22
954.06	227.25
954.36	227.22
954.66	227.22
954.95	227.20
955.25	227.21
955.55	227.19
955.84	227.18
956.14	227.14
956.44	227.20
956.73	227.15
957.03	227.15
957.32	227.10
957.62	227.11
957.92	227.11
958.21	227.11
958.51	227.20
958.81	227.17
959.10	227.13
959.40	227.13
959.69	227.15
959.99	227.18
960.29	227.13
960.58	227.13
960.88	227.14
961.17	227.14
961.47	227.14
961.76	227.13
962.06	227.12
962.36	227.10
962.65	227.08
962.95	227.08
963.24	227.09
963.54	227.08
963.83	227.06
964.13	227.05
964.42	227.02
964.72	226.96
965.01	226.97
965.31	226.96
965.60	226.96
965.90	227.00
966.19	226.91
966.49	226.92
966.78	226.90
967.08	226.90
967.37	226.89
967.67	226.87
967.96	226.87
968.26	226.87
968.55	226.90
968.85	226.91
969.14	226.89
969.43	226.86
969.73	226.86
970.02	226.87
970.32	226.89
970.61	226.88
970.91	226.87
971.20	226.88
971.49	226.87
971.79	226.85
972.08	226.79
972.38	226.83
972.67	226.83
972.96	226.84
973.26	226.84
973.55	226.88
973.85	226.91
974.14	226.92
974.43	226.91
974.73	226.91
975.02	226.88
975.31	226.88
975.61	226.91
975.90	226.91
976.19	226.90
976.49	226.91
976.78	226.92
977.07	226.91
977.37	226.92
977.66	226.95
977.95	226.99
978.24	227.01
978.54	227.04
978.83	227.03
979.12	227.03
979.42	227.03
979.71	226.98
980.00	226.97
980.29	226.99
980.59	226.98
980.88	226.99
981.17	227.00
981.46	227.03
981.76	227.05
982.05	227.06
982.34	227.07
982.63	227.08
982.93	227.10
983.22	227.12
983.51	227.12
983.80	227.14
984.09	227.16
984.39	227.15
984.68	227.12
984.97	227.15
985.26	227.14
985.55	227.13
985.85	227.15
986.14	227.17
986.43	227.15
986.72	227.14
987.01	227.14
987.30	227.19
987.59	227.19
987.89	227.20
988.18	227.19
988.47	227.19
988.76	227.19
989.05	227.15
989.34	227.17
989.63	227.17
989.92	227.17
990.22	227.12
990.51	227.12
990.80	227.14
991.09	227.13
991.38	227.14
991.67	227.14
991.96	227.13
992.25	227.12
992.54	227.10
992.83	227.11
993.12	227.11
993.41	227.07
993.70	227.08
993.99	227.06
994.28	227.10
994.58	227.13
994.87	227.11
995.16	227.10
995.45	227.09
995.74	227.03
996.03	227.03
996.32	227.07
996.61	227.09
996.90	227.06
997.19	227.08
997.48	227.09
997.77	227.07
998.06	227.05
998.34	227.01
998.63	227.00
998.92	227.03
999.21	227.00
999.50	226.98
999.79	226.96
1000.08	226.95
1000.37	226.94
1000.66	226.89
1000.95	226.94
1001.24	226.97
1001.53	226.94
1001.82	226.95
1002.11	226.94
1002.40	226.93
1002.68	226.95
1002.97	227.03
1003.26	226.99
1003.55	226.96
1003.84	226.99
1004.13	227.02
1004.42	227.05
1004.71	227.05
1004.99	227.03
1005.28	227.05
1005.57	227.04
1005.86	227.04
1006.15	227.04
1006.44	227.00
1006.72	227.00
1007.01	226.94
1007.30	226.92
1007.59	226.91
1007.88	226.92
1008.17	226.91
1008.45	226.88
1008.74	226.83
1009.03	226.79
1009.32	226.82
1009.60	226.83
1009.89	226.82
1010.18	226.82
1010.47	226.82
1010.76	226.84
1011.04	226.84
1011.33	226.87
1011.62	226.88
1011.91	226.89
1012.19	226.91
1012.48	226.89
1012.77	226.89
1013.05	226.96
1013.34	226.98
1013.63	226.97
1013.92	227.01
1014.20	227.02
1014.49	227.01
1014.78	227.05
1015.06	227.01
1015.35	226.99
1015.64	227.03
1015.92	227.05
1016.21	227.04
1016.50	227.06
1016.78	227.08
1017.07	227.12
1017.36	227.13
1017.64	227.13
1017.93	227.14
1018.22	227.11
1018.50	227.15
1018.79	227.17
1019.08	227.11
1019.36	227.11
1019.65	227.12
1019.93	227.13
1020.22	227.14
1020.51	227.21
1020.79	227.20
1021.08	226.68
1021.36	226.78
1021.65	227.28
1021.94	226.78
1022.22	227.05
1022.51	226.88
1022.79	227.27
1023.08	227.19
1023.36	228.20
1023.65	227.19
>>>>>End Processed Spectral Data<<<<<
