SpectraSuite Data File
++++++++++++++++++++++++++++++++++++
Date: Fri Feb 01 17:27:28 EST 2013
User: group
Dark Spectrum Present: No
Reference Spectrum Present: No
Number of Sampled Component Spectra: 1
Spectrometers: USB2E7196
Integration Time (usec): 35000 (USB2E7196)
Spectra Averaged: 100 (USB2E7196)
Boxcar Smoothing: 10 (USB2E7196)
Correct for Electrical Dark: No (USB2E7196)
Strobe/Lamp Enabled: No (USB2E7196)
Correct for Detector Non-linearity: No (USB2E7196)
Correct for Stray Light: No (USB2E7196)
Number of Pixels in Processed Spectrum: 2048
>>>>>Begin Processed Spectral Data<<<<<
339.09	0.00
339.48	212.49
339.86	214.20
340.24	215.80
340.63	217.07
341.01	219.89
341.39	219.04
341.78	221.52
342.16	222.67
342.54	223.26
342.93	211.25
343.31	221.96
343.69	222.49
344.07	222.97
344.46	223.40
344.84	223.79
345.22	224.02
345.60	224.31
345.99	224.48
346.37	224.59
346.75	224.67
347.13	224.74
347.52	224.80
347.90	224.88
348.28	224.90
348.66	224.96
349.05	224.98
349.43	225.01
349.81	225.06
350.19	225.08
350.57	225.15
350.96	225.22
351.34	225.27
351.72	225.41
352.10	225.50
352.48	225.56
352.87	225.60
353.25	225.67
353.63	225.73
354.01	225.82
354.39	225.87
354.77	225.96
355.15	226.11
355.54	226.16
355.92	226.22
356.30	226.31
356.68	226.45
357.06	226.52
357.44	226.60
357.82	226.69
358.20	226.76
358.58	226.86
358.97	226.95
359.35	227.03
359.73	227.05
360.11	227.11
360.49	227.17
360.87	227.21
361.25	227.28
361.63	227.37
362.01	227.39
362.39	227.44
362.77	227.48
363.15	227.46
363.53	227.52
363.91	227.53
364.29	227.53
364.67	227.45
365.05	227.45
365.43	227.49
365.81	227.52
366.19	227.57
366.57	227.57
366.95	227.55
367.33	227.50
367.71	227.53
368.09	227.53
368.47	227.51
368.85	227.52
369.23	227.53
369.61	227.45
369.99	227.47
370.37	227.47
370.75	227.47
371.13	227.42
371.51	227.35
371.89	227.30
372.27	227.27
372.65	227.23
373.03	227.18
373.41	227.10
373.78	227.02
374.16	226.90
374.54	226.81
374.92	226.75
375.30	226.67
375.68	226.57
376.06	226.50
376.44	226.43
376.82	226.36
377.19	226.28
377.57	226.22
377.95	226.07
378.33	225.97
378.71	225.85
379.09	225.82
379.47	225.79
379.84	225.74
380.22	225.66
380.60	225.58
380.98	225.52
381.36	225.47
381.73	225.42
382.11	225.38
382.49	225.34
382.87	225.21
383.25	225.18
383.62	225.25
384.00	225.20
384.38	225.18
384.76	225.13
385.13	225.11
385.51	225.06
385.89	225.03
386.27	225.02
386.64	224.97
387.02	224.91
387.40	224.85
387.78	224.80
388.15	224.79
388.53	224.78
388.91	224.74
389.29	224.69
389.66	224.66
390.04	224.61
390.42	224.61
390.79	224.66
391.17	224.65
391.55	224.51
391.92	224.47
392.30	224.47
392.68	224.46
393.05	224.47
393.43	224.50
393.81	224.51
394.18	224.50
394.56	224.51
394.94	224.53
395.31	224.54
395.69	224.59
396.06	224.63
396.44	224.63
396.82	224.72
397.19	224.79
397.57	224.82
397.95	224.89
398.32	224.92
398.70	224.94
399.07	224.98
399.45	225.00
399.82	225.09
400.20	225.14
400.58	225.19
400.95	225.22
401.33	225.29
401.70	225.45
402.08	225.54
402.45	225.64
402.83	225.75
403.20	225.81
403.58	225.89
403.95	225.98
404.33	226.09
404.71	226.16
405.08	226.35
405.46	226.48
405.83	226.64
406.21	226.76
406.58	226.95
406.96	227.14
407.33	227.34
407.70	227.49
408.08	227.72
408.45	227.94
408.83	228.16
409.20	228.40
409.58	228.55
409.95	228.80
410.33	229.03
410.70	229.28
411.08	229.61
411.45	229.94
411.82	230.23
412.20	230.62
412.57	231.05
412.95	231.30
413.32	231.73
413.69	232.13
414.07	232.57
414.44	233.04
414.82	233.55
415.19	234.14
415.56	234.73
415.94	235.29
416.31	235.95
416.68	236.61
417.06	237.32
417.43	238.04
417.81	238.83
418.18	239.63
418.55	240.51
418.93	241.36
419.30	242.26
419.67	243.24
420.04	244.25
420.42	245.26
420.79	246.54
421.16	247.70
421.54	248.94
421.91	250.23
422.28	251.54
422.66	252.90
423.03	254.27
423.40	255.64
423.77	257.13
424.15	258.61
424.52	260.13
424.89	261.82
425.26	263.44
425.64	264.95
426.01	266.61
426.38	268.31
426.75	270.10
427.13	271.89
427.50	273.79
427.87	275.71
428.24	277.65
428.61	279.46
428.99	281.48
429.36	283.66
429.73	285.80
430.10	287.88
430.47	290.03
430.85	292.19
431.22	294.58
431.59	297.03
431.96	299.36
432.33	301.94
432.70	304.40
433.08	307.34
433.45	310.12
433.82	312.86
434.19	315.82
434.56	318.73
434.93	321.55
435.30	324.28
435.68	327.27
436.05	330.23
436.42	333.08
436.79	335.71
437.16	338.50
437.53	341.49
437.90	344.43
438.27	347.25
438.64	350.23
439.01	352.88
439.38	355.16
439.75	357.41
440.13	360.07
440.50	362.47
440.87	364.43
441.24	366.45
441.61	368.66
441.98	370.27
442.35	372.16
442.72	374.05
443.09	375.96
443.46	377.01
443.83	377.62
444.20	378.18
444.57	379.03
444.94	379.37
445.31	379.69
445.68	380.09
446.05	380.23
446.42	379.84
446.79	379.47
447.16	379.06
447.53	378.78
447.90	377.52
448.27	376.34
448.64	374.70
449.01	373.51
449.37	371.52
449.74	369.54
450.11	367.23
450.48	364.71
450.85	362.07
451.22	359.88
451.59	357.80
451.96	355.85
452.33	353.17
452.70	350.69
453.07	347.78
453.43	344.73
453.80	341.85
454.17	339.04
454.54	336.35
454.91	333.53
455.28	330.72
455.65	328.14
456.02	325.61
456.38	323.34
456.75	320.57
457.12	318.18
457.49	315.88
457.86	313.58
458.23	311.59
458.59	309.48
458.96	307.30
459.33	305.33
459.70	303.34
460.07	301.75
460.43	299.98
460.80	298.27
461.17	296.77
461.54	295.21
461.91	293.76
462.27	292.27
462.64	290.94
463.01	289.52
463.38	288.19
463.74	286.75
464.11	285.55
464.48	284.50
464.85	283.39
465.21	282.50
465.58	281.54
465.95	280.41
466.32	279.43
466.68	278.46
467.05	277.56
467.42	276.67
467.78	275.76
468.15	274.81
468.52	274.12
468.88	273.26
469.25	272.46
469.62	271.78
469.98	271.08
470.35	270.44
470.72	269.86
471.08	269.19
471.45	268.62
471.82	268.05
472.18	267.42
472.55	266.96
472.92	266.39
473.28	265.95
473.65	265.46
474.02	265.01
474.38	264.65
474.75	264.28
475.11	263.93
475.48	263.66
475.85	263.46
476.21	263.25
476.58	263.03
476.94	262.90
477.31	262.73
477.67	262.58
478.04	262.48
478.41	262.39
478.77	262.44
479.14	262.38
479.50	262.38
479.87	262.45
480.23	262.55
480.60	262.67
480.96	262.76
481.33	263.01
481.69	263.23
482.06	263.47
482.42	263.71
482.79	263.97
483.15	264.28
483.52	264.71
483.88	265.05
484.25	265.49
484.61	265.92
484.98	266.38
485.34	266.94
485.71	267.56
486.07	268.22
486.44	268.77
486.80	269.47
487.17	270.21
487.53	271.06
487.90	271.91
488.26	272.83
488.62	273.85
488.99	274.84
489.35	275.86
489.72	277.00
490.08	278.19
490.44	279.45
490.81	280.78
491.17	282.11
491.54	283.63
491.90	285.13
492.26	286.77
492.63	288.51
492.99	290.26
493.36	292.14
493.72	294.16
494.08	296.28
494.45	298.55
494.81	300.91
495.17	303.32
495.54	305.83
495.90	308.51
496.26	311.30
496.63	314.26
496.99	317.38
497.35	320.56
497.72	323.95
498.08	327.44
498.44	331.10
498.80	334.96
499.17	338.98
499.53	343.11
499.89	347.43
500.26	351.90
500.62	356.55
500.98	361.45
501.34	366.45
501.71	371.70
502.07	377.01
502.43	382.54
502.79	388.27
503.16	394.31
503.52	400.47
503.88	406.80
504.24	413.32
504.60	420.09
504.97	427.17
505.33	434.33
505.69	441.88
506.05	449.55
506.41	457.31
506.78	465.33
507.14	473.63
507.50	482.15
507.86	490.94
508.22	499.97
508.59	508.96
508.95	518.31
509.31	527.96
509.67	537.87
510.03	547.99
510.39	558.35
510.75	568.84
511.12	579.55
511.48	590.56
511.84	601.72
512.20	612.97
512.56	624.63
512.92	636.55
513.28	648.65
513.64	660.79
514.00	673.15
514.37	685.74
514.73	698.43
515.09	711.14
515.45	724.11
515.81	737.31
516.17	750.98
516.53	764.80
516.89	778.52
517.25	792.37
517.61	806.39
517.97	820.56
518.33	834.63
518.69	849.07
519.05	863.61
519.41	878.37
519.77	893.44
520.13	908.42
520.49	923.37
520.85	938.28
521.21	953.52
521.57	969.36
521.93	984.62
522.29	1000.48
522.65	1016.36
523.01	1032.04
523.37	1047.67
523.73	1063.32
524.09	1078.93
524.45	1094.73
524.81	1110.81
525.17	1127.00
525.53	1143.27
525.89	1159.58
526.25	1175.94
526.61	1191.91
526.97	1208.26
527.33	1224.40
527.68	1240.60
528.04	1256.60
528.40	1272.80
528.76	1289.34
529.12	1305.45
529.48	1322.00
529.84	1337.64
530.20	1353.75
530.56	1370.38
530.91	1387.43
531.27	1403.93
531.63	1420.07
531.99	1436.39
532.35	1452.08
532.71	1467.69
533.07	1483.63
533.42	1499.36
533.78	1515.07
534.14	1530.95
534.50	1545.94
534.86	1561.38
535.21	1576.21
535.57	1591.81
535.93	1606.83
536.29	1621.44
536.65	1636.26
537.00	1650.64
537.36	1665.70
537.72	1680.02
538.08	1694.21
538.44	1707.71
538.79	1721.32
539.15	1734.54
539.51	1747.99
539.87	1762.00
540.22	1775.47
540.58	1789.01
540.94	1802.11
541.29	1814.74
541.65	1827.28
542.01	1840.30
542.37	1852.51
542.72	1864.86
543.08	1876.54
543.44	1888.96
543.79	1900.12
544.15	1911.07
544.51	1922.65
544.87	1933.61
545.22	1944.42
545.58	1954.57
545.94	1964.39
546.29	1974.26
546.65	1984.33
547.01	1993.71
547.36	2002.65
547.72	2011.26
548.07	2019.37
548.43	2027.64
548.79	2035.62
549.14	2043.54
549.50	2051.03
549.86	2058.78
550.21	2066.14
550.57	2073.42
550.92	2080.21
551.28	2087.44
551.64	2094.58
551.99	2101.31
552.35	2107.59
552.70	2113.98
553.06	2120.37
553.41	2126.86
553.77	2133.06
554.13	2139.24
554.48	2145.67
554.84	2151.50
555.19	2156.97
555.55	2162.40
555.90	2167.13
556.26	2172.50
556.61	2177.32
556.97	2182.01
557.32	2186.56
557.68	2191.10
558.03	2195.74
558.39	2199.65
558.74	2204.56
559.10	2208.91
559.45	2212.82
559.81	2217.41
560.16	2221.49
560.52	2225.09
560.87	2228.90
561.23	2231.94
561.58	2235.26
561.94	2238.14
562.29	2240.58
562.64	2243.91
563.00	2246.74
563.35	2250.76
563.71	2254.18
564.06	2257.75
564.42	2261.04
564.77	2264.03
565.12	2266.93
565.48	2269.38
565.83	2271.76
566.19	2273.68
566.54	2274.82
566.89	2276.47
567.25	2277.70
567.60	2279.41
567.96	2281.57
568.31	2282.74
568.66	2284.32
569.02	2285.45
569.37	2286.12
569.72	2287.63
570.08	2288.12
570.43	2288.54
570.78	2288.31
571.14	2287.22
571.49	2286.16
571.84	2286.07
572.20	2285.34
572.55	2284.40
572.90	2282.98
573.26	2282.15
573.61	2280.65
573.96	2279.44
574.31	2276.93
574.67	2274.23
575.02	2270.96
575.37	2267.68
575.72	2264.46
576.08	2261.27
576.43	2258.11
576.78	2254.98
577.13	2251.87
577.49	2248.83
577.84	2245.75
578.19	2242.23
578.54	2239.02
578.90	2235.45
579.25	2230.33
579.60	2225.78
579.95	2221.23
580.30	2216.69
580.66	2211.80
581.01	2206.93
581.36	2202.31
581.71	2198.57
582.06	2194.64
582.42	2190.68
582.77	2186.05
583.12	2181.81
583.47	2177.59
583.82	2173.06
584.17	2167.96
584.53	2162.87
584.88	2157.80
585.23	2152.45
585.58	2147.34
585.93	2142.10
586.28	2137.14
586.63	2132.43
586.98	2127.50
587.34	2123.01
587.69	2118.24
588.04	2113.34
588.39	2108.19
588.74	2101.78
589.09	2095.79
589.44	2089.29
589.79	2083.20
590.14	2077.54
590.49	2071.18
590.84	2064.98
591.19	2059.13
591.54	2052.92
591.89	2046.05
592.25	2039.39
592.60	2032.38
592.95	2025.19
593.30	2018.11
593.65	2010.90
594.00	2003.93
594.35	1996.94
594.70	1988.98
595.05	1982.37
595.40	1975.12
595.75	1967.73
596.10	1962.06
596.45	1955.50
596.80	1949.42
597.15	1943.13
597.50	1936.50
597.85	1930.05
598.19	1923.51
598.54	1916.81
598.89	1910.42
599.24	1904.53
599.59	1898.23
599.94	1891.98
600.29	1885.61
600.64	1879.07
600.99	1871.80
601.34	1865.16
601.69	1858.09
602.04	1851.48
602.39	1844.07
602.74	1837.35
603.08	1830.82
603.43	1823.98
603.78	1816.75
604.13	1809.46
604.48	1802.48
604.83	1795.57
605.18	1788.89
605.53	1781.06
605.87	1772.95
606.22	1765.66
606.57	1757.79
606.92	1750.12
607.27	1743.15
607.62	1736.28
607.96	1729.09
608.31	1722.69
608.66	1715.11
609.01	1707.76
609.36	1700.24
609.70	1692.19
610.05	1684.16
610.40	1676.45
610.75	1668.16
611.10	1660.44
611.44	1651.96
611.79	1643.64
612.14	1634.93
612.49	1625.62
612.83	1617.07
613.18	1608.79
613.53	1600.57
613.88	1592.03
614.22	1583.83
614.57	1575.09
614.92	1566.96
615.27	1559.49
615.61	1551.10
615.96	1543.01
616.31	1535.10
616.65	1527.55
617.00	1519.95
617.35	1512.21
617.70	1503.84
618.04	1495.32
618.39	1487.00
618.74	1479.50
619.08	1471.12
619.43	1463.31
619.78	1456.13
620.12	1448.96
620.47	1441.48
620.82	1433.23
621.16	1425.59
621.51	1417.79
621.85	1409.99
622.20	1401.30
622.55	1392.73
622.89	1384.71
623.24	1376.82
623.59	1369.36
623.93	1361.79
624.28	1354.42
624.62	1346.91
624.97	1339.62
625.32	1332.66
625.66	1325.54
626.01	1318.24
626.35	1310.91
626.70	1303.16
627.04	1295.57
627.39	1287.63
627.73	1280.11
628.08	1273.14
628.43	1265.87
628.77	1258.58
629.12	1250.96
629.46	1243.72
629.81	1236.07
630.15	1228.70
630.50	1221.26
630.84	1213.17
631.19	1204.98
631.53	1197.41
631.88	1189.56
632.22	1181.89
632.57	1174.51
632.91	1166.83
633.26	1159.32
633.60	1151.70
633.95	1144.40
634.29	1137.17
634.64	1130.40
634.98	1122.92
635.32	1115.69
635.67	1108.92
636.01	1102.15
636.36	1095.39
636.70	1088.84
637.05	1082.25
637.39	1075.74
637.73	1069.26
638.08	1063.19
638.42	1057.26
638.77	1050.68
639.11	1044.12
639.45	1037.68
639.80	1031.01
640.14	1024.57
640.49	1017.99
640.83	1011.61
641.17	1005.34
641.52	999.01
641.86	992.49
642.20	986.59
642.55	980.19
642.89	973.76
643.23	967.07
643.58	961.20
643.92	955.02
644.26	949.13
644.61	943.01
644.95	936.96
645.29	930.48
645.64	923.71
645.98	917.34
646.32	911.35
646.66	905.25
647.01	899.34
647.35	893.60
647.69	887.72
648.04	882.14
648.38	876.37
648.72	870.41
649.06	864.40
649.41	858.52
649.75	852.55
650.09	846.46
650.43	840.73
650.78	834.53
651.12	828.50
651.46	822.56
651.80	816.88
652.14	811.34
652.49	805.88
652.83	800.70
653.17	795.09
653.51	789.46
653.85	784.04
654.20	778.48
654.54	772.43
654.88	766.64
655.22	760.70
655.56	754.97
655.90	749.37
656.25	744.10
656.59	738.67
656.93	733.56
657.27	728.44
657.61	722.97
657.95	717.89
658.29	712.85
658.64	707.61
658.98	702.22
659.32	696.80
659.66	691.60
660.00	686.29
660.34	681.27
660.68	676.24
661.02	671.18
661.36	666.45
661.70	661.92
662.05	657.55
662.39	653.31
662.73	648.85
663.07	644.52
663.41	640.05
663.75	635.63
664.09	631.04
664.43	626.59
664.77	622.53
665.11	618.26
665.45	614.00
665.79	609.93
666.13	605.81
666.47	601.67
666.81	597.45
667.15	593.29
667.49	589.38
667.83	585.56
668.17	581.60
668.51	577.44
668.85	573.44
669.19	569.49
669.53	565.64
669.87	561.81
670.21	557.99
670.55	554.40
670.89	550.89
671.23	547.47
671.57	543.96
671.91	540.43
672.25	536.85
672.58	533.40
672.92	529.94
673.26	526.71
673.60	523.53
673.94	520.48
674.28	517.52
674.62	514.54
674.96	511.45
675.30	508.48
675.64	505.58
675.97	502.72
676.31	499.86
676.65	496.86
676.99	494.05
677.33	491.16
677.67	488.27
678.01	485.25
678.34	482.24
678.68	479.33
679.02	476.42
679.36	473.65
679.70	470.85
680.04	468.07
680.37	465.20
680.71	462.36
681.05	459.64
681.39	456.87
681.73	454.21
682.06	451.65
682.40	449.13
682.74	446.50
683.08	443.91
683.42	441.32
683.75	438.81
684.09	436.20
684.43	433.78
684.77	431.30
685.10	428.87
685.44	426.54
685.78	424.22
686.12	421.88
686.45	419.55
686.79	417.24
687.13	415.00
687.46	412.82
687.80	410.69
688.14	408.43
688.48	406.40
688.81	404.12
689.15	401.92
689.49	399.73
689.82	397.64
690.16	395.52
690.50	393.51
690.83	391.57
691.17	389.60
691.51	387.63
691.84	385.75
692.18	383.82
692.52	381.76
692.85	379.78
693.19	377.92
693.52	376.10
693.86	374.24
694.20	372.43
694.53	370.57
694.87	368.66
695.21	366.83
695.54	364.98
695.88	363.24
696.21	361.46
696.55	359.77
696.88	358.03
697.22	356.36
697.56	354.64
697.89	352.94
698.23	351.30
698.56	349.71
698.90	348.10
699.23	346.45
699.57	344.89
699.90	343.35
700.24	341.78
700.58	340.22
700.91	338.73
701.25	337.29
701.58	335.92
701.92	334.53
702.25	333.18
702.59	331.79
702.92	330.44
703.26	329.14
703.59	327.86
703.93	326.73
704.26	325.49
704.60	324.28
704.93	323.01
705.26	321.75
705.60	320.49
705.93	319.31
706.27	318.27
706.60	317.26
706.94	316.14
707.27	315.03
707.61	313.92
707.94	312.87
708.27	311.73
708.61	310.59
708.94	309.58
709.28	308.58
709.61	307.58
709.94	306.58
710.28	305.54
710.61	304.48
710.95	303.34
711.28	302.41
711.61	301.43
711.95	300.52
712.28	299.57
712.61	298.60
712.95	297.65
713.28	296.71
713.61	295.78
713.95	294.95
714.28	294.08
714.61	293.21
714.95	292.33
715.28	291.50
715.61	290.66
715.95	289.79
716.28	288.90
716.61	288.03
716.95	287.20
717.28	286.41
717.61	285.65
717.94	284.90
718.28	284.08
718.61	283.34
718.94	282.59
719.27	281.94
719.61	281.29
719.94	280.61
720.27	279.90
720.60	279.20
720.94	278.51
721.27	277.92
721.60	277.38
721.93	276.81
722.27	276.22
722.60	275.66
722.93	275.07
723.26	274.52
723.59	273.98
723.93	273.39
724.26	272.85
724.59	272.27
724.92	271.71
725.25	271.20
725.59	270.64
725.92	270.13
726.25	269.58
726.58	269.05
726.91	268.57
727.24	268.06
727.57	267.55
727.91	267.01
728.24	266.51
728.57	265.96
728.90	265.48
729.23	264.95
729.56	264.50
729.89	264.00
730.22	263.52
730.55	263.02
730.89	262.59
731.22	262.15
731.55	261.75
731.88	261.31
732.21	260.88
732.54	260.44
732.87	259.99
733.20	259.58
733.53	259.18
733.86	258.77
734.19	258.39
734.52	258.04
734.85	257.74
735.18	257.30
735.51	256.95
735.84	256.56
736.17	256.24
736.50	255.84
736.83	255.61
737.16	255.26
737.49	254.94
737.82	254.60
738.15	254.23
738.48	253.87
738.81	253.57
739.14	253.23
739.47	252.93
739.80	252.63
740.13	252.35
740.46	252.03
740.79	251.73
741.12	251.38
741.45	251.06
741.78	250.69
742.11	250.43
742.44	250.12
742.77	249.85
743.10	249.55
743.43	249.28
743.75	248.90
744.08	248.73
744.41	248.48
744.74	248.22
745.07	247.92
745.40	247.66
745.73	247.43
746.06	247.16
746.39	246.90
746.71	246.62
747.04	246.33
747.37	246.06
747.70	245.80
748.03	245.59
748.36	245.38
748.68	245.16
749.01	244.91
749.34	244.66
749.67	244.41
750.00	244.18
750.33	243.99
750.65	243.77
750.98	243.44
751.31	243.22
751.64	242.99
751.97	242.86
752.29	242.63
752.62	242.35
752.95	242.14
753.28	241.91
753.60	241.69
753.93	241.51
754.26	241.32
754.59	241.11
754.91	240.90
755.24	240.69
755.57	240.50
755.90	240.29
756.22	240.09
756.55	239.88
756.88	239.65
757.20	239.42
757.53	239.23
757.86	239.04
758.19	238.86
758.51	238.67
758.84	238.45
759.17	238.28
759.49	238.12
759.82	237.99
760.15	237.85
760.47	237.70
760.80	237.50
761.13	237.34
761.45	237.13
761.78	236.94
762.11	236.79
762.43	236.64
762.76	236.46
763.08	236.35
763.41	236.20
763.74	236.07
764.06	235.90
764.39	235.72
764.71	235.57
765.04	235.43
765.37	235.29
765.69	235.14
766.02	234.99
766.34	234.86
766.67	234.70
767.00	234.58
767.32	234.55
767.65	234.50
767.97	234.42
768.30	234.37
768.62	234.26
768.95	234.14
769.27	233.99
769.60	233.91
769.92	233.77
770.25	233.65
770.57	233.54
770.90	233.43
771.22	233.35
771.55	233.28
771.87	233.16
772.20	233.05
772.52	233.07
772.85	233.11
773.17	232.99
773.50	232.88
773.82	232.77
774.15	232.59
774.47	232.46
774.80	232.29
775.12	232.14
775.45	232.07
775.77	231.95
776.09	231.89
776.42	231.81
776.74	231.74
777.07	231.69
777.39	231.61
777.72	231.55
778.04	231.50
778.36	231.41
778.69	231.37
779.01	231.32
779.33	231.13
779.66	230.94
779.98	230.90
780.31	230.84
780.63	230.85
780.95	230.80
781.28	230.73
781.60	230.74
781.92	230.72
782.25	230.67
782.57	230.63
782.89	230.55
783.22	230.49
783.54	230.41
783.86	230.36
784.19	230.30
784.51	230.30
784.83	230.21
785.16	230.16
785.48	230.12
785.80	230.06
786.12	230.05
786.45	230.02
786.77	230.00
787.09	229.98
787.42	229.90
787.74	229.87
788.06	229.84
788.38	229.77
788.71	229.68
789.03	229.65
789.35	229.64
789.67	229.62
789.99	229.60
790.32	229.60
790.64	229.57
790.96	229.62
791.28	229.53
791.61	229.50
791.93	229.46
792.25	229.41
792.57	229.47
792.89	229.39
793.21	229.34
793.54	229.25
793.86	229.20
794.18	229.14
794.50	229.07
794.82	229.03
795.14	229.03
795.47	229.03
795.79	229.01
796.11	228.93
796.43	228.87
796.75	228.82
797.07	228.79
797.39	228.74
797.71	228.65
798.04	228.62
798.36	228.58
798.68	228.56
799.00	228.50
799.32	228.42
799.64	228.42
799.96	228.42
800.28	228.40
800.60	228.31
800.92	228.29
801.24	228.24
801.56	228.19
801.89	228.11
802.21	228.07
802.53	227.98
802.85	227.98
803.17	228.00
803.49	227.96
803.81	227.85
804.13	227.80
804.45	227.73
804.77	227.72
805.09	227.70
805.41	227.64
805.73	227.61
806.05	227.52
806.37	227.47
806.69	227.40
807.01	227.35
807.33	227.33
807.65	227.26
807.97	227.29
808.28	227.25
808.60	227.23
808.92	227.20
809.24	227.23
809.56	227.16
809.88	227.09
810.20	227.07
810.52	227.09
810.84	227.05
811.16	227.02
811.48	226.97
811.80	226.95
812.12	226.90
812.43	226.86
812.75	226.83
813.07	226.81
813.39	226.78
813.71	226.75
814.03	226.75
814.35	226.76
814.67	226.67
814.98	226.64
815.30	226.61
815.62	226.55
815.94	226.49
816.26	226.55
816.58	226.49
816.89	226.48
817.21	226.44
817.53	226.45
817.85	226.45
818.17	226.44
818.48	226.38
818.80	226.44
819.12	226.40
819.44	226.41
819.76	226.38
820.07	226.38
820.39	226.37
820.71	226.38
821.03	226.35
821.34	226.34
821.66	226.37
821.98	226.37
822.30	226.37
822.61	226.42
822.93	226.33
823.25	226.36
823.57	226.35
823.88	226.38
824.20	226.38
824.52	226.39
824.83	226.35
825.15	226.35
825.47	226.31
825.79	226.36
826.10	226.34
826.42	226.33
826.74	226.34
827.05	226.33
827.37	226.32
827.69	226.33
828.00	226.34
828.32	226.32
828.64	226.31
828.95	226.39
829.27	226.38
829.58	226.37
829.90	226.36
830.22	226.37
830.53	226.33
830.85	226.30
831.17	226.26
831.48	226.31
831.80	226.37
832.11	226.35
832.43	226.28
832.75	226.28
833.06	226.33
833.38	226.29
833.69	226.28
834.01	226.26
834.32	226.21
834.64	226.17
834.96	226.15
835.27	226.15
835.59	226.06
835.90	225.99
836.22	225.98
836.53	225.95
836.85	225.90
837.16	225.99
837.48	225.98
837.79	226.00
838.11	225.95
838.42	225.88
838.74	225.87
839.05	225.87
839.37	225.87
839.68	225.81
840.00	225.80
840.31	225.82
840.63	225.82
840.94	225.82
841.26	225.83
841.57	225.82
841.88	225.81
842.20	225.80
842.51	225.78
842.83	225.78
843.14	225.85
843.46	225.82
843.77	225.74
844.08	225.72
844.40	225.70
844.71	225.65
845.03	225.64
845.34	225.64
845.65	225.62
845.97	225.61
846.28	225.59
846.60	225.60
846.91	225.57
847.22	225.54
847.54	225.55
847.85	225.51
848.16	225.50
848.48	225.48
848.79	225.50
849.10	225.51
849.42	225.48
849.73	225.41
850.04	225.40
850.36	225.38
850.67	225.38
850.98	225.37
851.30	225.41
851.61	225.41
851.92	225.42
852.23	225.44
852.55	225.42
852.86	225.40
853.17	225.39
853.49	225.44
853.80	225.47
854.11	225.49
854.42	225.53
854.74	225.49
855.05	225.49
855.36	225.43
855.67	225.45
855.99	225.47
856.30	225.61
856.61	225.62
856.92	225.62
857.23	225.62
857.55	225.62
857.86	225.62
858.17	225.64
858.48	225.63
858.79	225.64
859.11	225.66
859.42	225.67
859.73	225.66
860.04	225.63
860.35	225.58
860.66	225.52
860.98	225.53
861.29	225.59
861.60	225.62
861.91	225.63
862.22	225.63
862.53	225.62
862.84	225.49
863.16	225.52
863.47	225.53
863.78	225.53
864.09	225.53
864.40	225.53
864.71	225.53
865.02	225.55
865.33	225.53
865.64	225.53
865.95	225.53
866.27	225.59
866.58	225.56
866.89	225.59
867.20	225.61
867.51	225.57
867.82	225.55
868.13	225.54
868.44	225.58
868.75	225.56
869.06	225.55
869.37	225.55
869.68	225.54
869.99	225.53
870.30	225.56
870.61	225.59
870.92	225.56
871.23	225.56
871.54	225.55
871.85	225.57
872.16	225.60
872.47	225.63
872.78	225.57
873.09	225.62
873.40	225.65
873.71	225.65
874.02	225.68
874.33	225.68
874.64	225.69
874.95	225.66
875.26	225.64
875.56	225.64
875.87	225.65
876.18	225.62
876.49	225.71
876.80	225.65
877.11	225.60
877.42	225.63
877.73	225.62
878.04	225.60
878.35	225.60
878.66	225.59
878.96	225.56
879.27	225.55
879.58	225.52
879.89	225.48
880.20	225.50
880.51	225.46
880.82	225.46
881.12	225.46
881.43	225.46
881.74	225.48
882.05	225.46
882.36	225.45
882.67	225.46
882.97	225.35
883.28	225.36
883.59	225.38
883.90	225.34
884.21	225.34
884.51	225.32
884.82	225.28
885.13	225.25
885.44	225.24
885.74	225.23
886.05	225.23
886.36	225.21
886.67	225.17
886.98	225.21
887.28	225.19
887.59	225.14
887.90	225.13
888.20	225.11
888.51	225.14
888.82	225.11
889.13	225.08
889.43	225.14
889.74	225.13
890.05	225.12
890.35	225.12
890.66	225.10
890.97	225.12
891.28	225.13
891.58	225.11
891.89	225.11
892.20	225.09
892.50	225.04
892.81	225.05
893.12	225.04
893.42	224.99
893.73	225.03
894.04	225.04
894.34	225.03
894.65	225.03
894.95	225.02
895.26	225.01
895.57	225.05
895.87	224.99
896.18	225.00
896.48	225.00
896.79	224.98
897.10	224.99
897.40	224.98
897.71	225.00
898.01	225.02
898.32	225.06
898.63	225.06
898.93	225.09
899.24	225.09
899.54	225.07
899.85	225.08
900.15	225.07
900.46	225.04
900.76	225.08
901.07	225.05
901.38	225.03
901.68	225.04
901.99	225.01
902.29	225.00
902.60	225.01
902.90	224.99
903.21	224.99
903.51	224.98
903.82	225.00
904.12	224.98
904.43	224.98
904.73	224.94
905.03	224.93
905.34	225.03
905.64	225.04
905.95	225.04
906.25	225.04
906.56	225.05
906.86	225.06
907.17	225.03
907.47	225.06
907.77	225.06
908.08	225.02
908.38	225.04
908.69	225.07
908.99	225.09
909.30	225.11
909.60	225.12
909.90	225.12
910.21	225.10
910.51	225.07
910.81	225.03
911.12	225.05
911.42	225.06
911.73	224.97
912.03	224.97
912.33	225.00
912.64	225.00
912.94	224.99
913.24	224.98
913.55	225.00
913.85	225.00
914.15	225.04
914.46	225.06
914.76	225.03
915.06	225.02
915.37	224.99
915.67	225.00
915.97	224.99
916.27	224.99
916.58	224.97
916.88	224.99
917.18	225.01
917.49	225.08
917.79	225.07
918.09	225.07
918.39	225.06
918.70	225.08
919.00	225.07
919.30	225.11
919.60	225.14
919.91	225.12
920.21	225.14
920.51	225.12
920.81	225.14
921.12	225.21
921.42	225.20
921.72	225.20
922.02	225.19
922.32	225.20
922.63	225.19
922.93	225.24
923.23	225.25
923.53	225.23
923.83	225.18
924.13	225.20
924.44	225.20
924.74	225.23
925.04	225.23
925.34	225.23
925.64	225.19
925.94	225.18
926.24	225.20
926.55	225.15
926.85	225.15
927.15	225.11
927.45	225.07
927.75	225.07
928.05	225.07
928.35	225.07
928.65	225.11
928.95	225.09
929.26	225.05
929.56	225.06
929.86	225.06
930.16	225.04
930.46	225.03
930.76	225.03
931.06	224.96
931.36	224.92
931.66	224.93
931.96	224.93
932.26	224.89
932.56	224.86
932.86	224.84
933.16	224.83
933.46	224.82
933.76	224.83
934.06	224.82
934.36	224.82
934.66	224.82
934.96	224.77
935.26	224.78
935.56	224.80
935.86	224.76
936.16	224.75
936.46	224.70
936.76	224.69
937.06	224.68
937.36	224.69
937.66	224.68
937.96	224.67
938.26	224.68
938.56	224.67
938.86	224.69
939.16	224.75
939.46	224.76
939.76	224.78
940.06	224.71
940.35	224.73
940.65	224.67
940.95	224.67
941.25	224.67
941.55	224.67
941.85	224.64
942.15	224.67
942.45	224.70
942.75	224.75
943.04	224.76
943.34	224.78
943.64	224.81
943.94	224.80
944.24	224.79
944.54	224.77
944.84	224.79
945.13	224.77
945.43	224.74
945.73	224.72
946.03	224.70
946.33	224.74
946.62	224.71
946.92	224.71
947.22	224.73
947.52	224.74
947.82	224.74
948.11	224.73
948.41	224.69
948.71	224.66
949.01	224.62
949.31	224.62
949.60	224.63
949.90	224.66
950.20	224.69
950.50	224.67
950.79	224.68
951.09	224.71
951.39	224.67
951.69	224.66
951.98	224.69
952.28	224.69
952.58	224.67
952.87	224.68
953.17	224.71
953.47	224.65
953.76	224.66
954.06	224.64
954.36	224.62
954.66	224.64
954.95	224.69
955.25	224.68
955.55	224.69
955.84	224.65
956.14	224.63
956.44	224.59
956.73	224.59
957.03	224.60
957.32	224.60
957.62	224.62
957.92	224.64
958.21	224.62
958.51	224.77
958.81	224.81
959.10	224.81
959.40	224.84
959.69	224.87
959.99	224.87
960.29	224.87
960.58	224.88
960.88	224.92
961.17	224.88
961.47	224.91
961.76	224.85
962.06	224.88
962.36	224.88
962.65	224.90
962.95	224.90
963.24	224.88
963.54	224.85
963.83	224.86
964.13	224.88
964.42	224.89
964.72	224.80
965.01	224.78
965.31	224.81
965.60	224.78
965.90	224.85
966.19	224.83
966.49	224.87
966.78	224.84
967.08	224.84
967.37	224.89
967.67	224.90
967.96	224.97
968.26	224.98
968.55	224.97
968.85	224.99
969.14	225.01
969.43	225.00
969.73	225.00
970.02	225.01
970.32	225.01
970.61	225.00
970.91	224.97
971.20	224.98
971.49	224.96
971.79	224.97
972.08	224.87
972.38	224.87
972.67	224.87
972.96	224.95
973.26	224.94
973.55	224.96
973.85	224.91
974.14	224.91
974.43	224.91
974.73	224.93
975.02	224.91
975.31	224.93
975.61	224.94
975.90	224.94
976.19	224.94
976.49	224.93
976.78	224.94
977.07	224.93
977.37	224.95
977.66	224.98
977.95	224.94
978.24	224.98
978.54	225.03
978.83	225.01
979.12	224.98
979.42	224.96
979.71	224.91
980.00	224.93
980.29	224.91
980.59	224.88
980.88	224.90
981.17	224.90
981.46	224.91
981.76	224.91
982.05	224.96
982.34	224.98
982.63	224.94
982.93	224.96
983.22	224.97
983.51	224.97
983.80	224.98
984.09	225.01
984.39	225.02
984.68	224.98
984.97	224.99
985.26	224.97
985.55	224.99
985.85	224.96
986.14	224.98
986.43	225.01
986.72	225.01
987.01	224.96
987.30	224.96
987.59	224.92
987.89	224.93
988.18	224.91
988.47	224.90
988.76	224.89
989.05	224.86
989.34	224.88
989.63	224.87
989.92	224.81
990.22	224.77
990.51	224.74
990.80	224.72
991.09	224.72
991.38	224.75
991.67	224.71
991.96	224.69
992.25	224.69
992.54	224.65
992.83	224.62
993.12	224.62
993.41	224.63
993.70	224.66
993.99	224.64
994.28	224.59
994.58	224.58
994.87	224.59
995.16	224.59
995.45	224.55
995.74	224.54
996.03	224.56
996.32	224.60
996.61	224.62
996.90	224.62
997.19	224.62
997.48	224.61
997.77	224.62
998.06	224.61
998.34	224.59
998.63	224.62
998.92	224.62
999.21	224.62
999.50	224.60
999.79	224.57
1000.08	224.58
1000.37	224.60
1000.66	224.60
1000.95	224.60
1001.24	224.62
1001.53	224.63
1001.82	224.64
1002.11	224.63
1002.40	224.65
1002.68	224.66
1002.97	224.74
1003.26	224.70
1003.55	224.66
1003.84	224.67
1004.13	224.72
1004.42	224.75
1004.71	224.71
1004.99	224.74
1005.28	224.74
1005.57	224.73
1005.86	224.74
1006.15	224.73
1006.44	224.71
1006.72	224.73
1007.01	224.76
1007.30	224.76
1007.59	224.75
1007.88	224.73
1008.17	224.73
1008.45	224.69
1008.74	224.65
1009.03	224.62
1009.32	224.63
1009.60	224.64
1009.89	224.61
1010.18	224.60
1010.47	224.59
1010.76	224.62
1011.04	224.60
1011.33	224.62
1011.62	224.66
1011.91	224.68
1012.19	224.69
1012.48	224.67
1012.77	224.65
1013.05	224.68
1013.34	224.69
1013.63	224.69
1013.92	224.71
1014.20	224.76
1014.49	224.78
1014.78	224.83
1015.06	224.80
1015.35	224.81
1015.64	224.85
1015.92	224.88
1016.21	224.87
1016.50	224.87
1016.78	224.88
1017.07	224.94
1017.36	224.91
1017.64	224.88
1017.93	224.89
1018.22	224.89
1018.50	224.90
1018.79	224.88
1019.08	224.84
1019.36	224.83
1019.65	224.79
1019.93	224.77
1020.22	224.75
1020.51	224.76
1020.79	224.73
1021.08	224.68
1021.36	224.16
1021.65	224.49
1021.94	224.80
1022.22	224.73
1022.51	223.79
1022.79	224.66
1023.08	224.72
1023.36	225.49
1023.65	224.53
>>>>>End Processed Spectral Data<<<<<
