SpectraSuite Data File
++++++++++++++++++++++++++++++++++++
Date: Fri Feb 01 17:45:23 EST 2013
User: group
Dark Spectrum Present: No
Reference Spectrum Present: No
Number of Sampled Component Spectra: 1
Spectrometers: USB2E7196
Integration Time (usec): 35000 (USB2E7196)
Spectra Averaged: 100 (USB2E7196)
Boxcar Smoothing: 10 (USB2E7196)
Correct for Electrical Dark: No (USB2E7196)
Strobe/Lamp Enabled: No (USB2E7196)
Correct for Detector Non-linearity: No (USB2E7196)
Correct for Stray Light: No (USB2E7196)
Number of Pixels in Processed Spectrum: 2048
>>>>>Begin Processed Spectral Data<<<<<
339.09	0.00
339.48	212.42
339.86	213.43
340.24	215.68
340.63	216.79
341.01	219.29
341.39	219.60
341.78	220.44
342.16	222.34
342.54	222.50
342.93	210.99
343.31	221.64
343.69	222.17
344.07	222.69
344.46	223.11
344.84	223.48
345.22	223.74
345.60	223.98
345.99	224.19
346.37	224.29
346.75	224.40
347.13	224.49
347.52	224.55
347.90	224.60
348.28	224.66
348.66	224.70
349.05	224.68
349.43	224.73
349.81	224.82
350.19	224.86
350.57	224.90
350.96	224.99
351.34	225.11
351.72	225.21
352.10	225.30
352.48	225.37
352.87	225.45
353.25	225.53
353.63	225.60
354.01	225.66
354.39	225.77
354.77	225.85
355.15	225.93
355.54	225.96
355.92	226.01
356.30	226.12
356.68	226.24
357.06	226.34
357.44	226.40
357.82	226.48
358.20	226.56
358.58	226.65
358.97	226.69
359.35	226.76
359.73	226.87
360.11	226.89
360.49	226.95
360.87	227.01
361.25	227.06
361.63	227.12
362.01	227.21
362.39	227.24
362.77	227.27
363.15	227.30
363.53	227.32
363.91	227.32
364.29	227.34
364.67	227.29
365.05	227.29
365.43	227.32
365.81	227.32
366.19	227.36
366.57	227.35
366.95	227.38
367.33	227.35
367.71	227.33
368.09	227.35
368.47	227.33
368.85	227.29
369.23	227.31
369.61	227.28
369.99	227.27
370.37	227.23
370.75	227.24
371.13	227.20
371.51	227.19
371.89	227.21
372.27	227.18
372.65	227.15
373.03	227.11
373.41	227.06
373.78	226.99
374.16	226.90
374.54	226.83
374.92	226.74
375.30	226.69
375.68	226.61
376.06	226.53
376.44	226.46
376.82	226.40
377.19	226.32
377.57	226.27
377.95	226.16
378.33	226.09
378.71	226.00
379.09	225.97
379.47	225.91
379.84	225.83
380.22	225.75
380.60	225.68
380.98	225.61
381.36	225.54
381.73	225.48
382.11	225.43
382.49	225.38
382.87	225.33
383.25	225.29
383.62	225.34
384.00	225.30
384.38	225.29
384.76	225.26
385.13	225.25
385.51	225.19
385.89	225.15
386.27	225.12
386.64	225.07
387.02	225.01
387.40	224.95
387.78	224.89
388.15	224.88
388.53	224.80
388.91	224.78
389.29	224.72
389.66	224.69
390.04	224.65
390.42	224.64
390.79	224.66
391.17	224.63
391.55	224.49
391.92	224.45
392.30	224.41
392.68	224.40
393.05	224.38
393.43	224.36
393.81	224.35
394.18	224.33
394.56	224.35
394.94	224.39
395.31	224.39
395.69	224.46
396.06	224.48
396.44	224.52
396.82	224.56
397.19	224.67
397.57	224.74
397.95	224.79
398.32	224.81
398.70	224.84
399.07	224.91
399.45	224.96
399.82	225.04
400.20	225.10
400.58	225.15
400.95	225.16
401.33	225.27
401.70	225.44
402.08	225.55
402.45	225.64
402.83	225.77
403.20	225.87
403.58	225.95
403.95	226.10
404.33	226.25
404.71	226.37
405.08	226.59
405.46	226.72
405.83	226.86
406.21	227.04
406.58	227.23
406.96	227.43
407.33	227.65
407.70	227.88
408.08	228.18
408.45	228.46
408.83	228.77
409.20	229.04
409.58	229.26
409.95	229.55
410.33	229.86
410.70	230.17
411.08	230.55
411.45	230.94
411.82	231.29
412.20	231.70
412.57	232.21
412.95	232.57
413.32	233.08
413.69	233.62
414.07	234.14
414.44	234.72
414.82	235.31
415.19	236.01
415.56	236.67
415.94	237.37
416.31	238.18
416.68	238.95
417.06	239.86
417.43	240.67
417.81	241.64
418.18	242.63
418.55	243.65
418.93	244.77
419.30	245.86
419.67	247.02
420.04	248.24
420.42	249.48
420.79	250.95
421.16	252.33
421.54	253.83
421.91	255.38
422.28	256.93
422.66	258.59
423.03	260.20
423.40	261.85
423.77	263.65
424.15	265.45
424.52	267.32
424.89	269.27
425.26	271.22
425.64	273.02
426.01	275.04
426.38	277.10
426.75	279.16
427.13	281.37
427.50	283.64
427.87	286.01
428.24	288.33
428.61	290.51
428.99	293.00
429.36	295.62
429.73	298.17
430.10	300.74
430.47	303.36
430.85	306.03
431.22	308.88
431.59	311.82
431.96	314.60
432.33	317.73
432.70	320.69
433.08	324.21
433.45	327.48
433.82	330.73
434.19	334.35
434.56	337.87
434.93	341.16
435.30	344.45
435.68	348.03
436.05	351.58
436.42	355.08
436.79	358.22
437.16	361.56
437.53	365.12
437.90	368.61
438.27	372.00
438.64	375.53
439.01	378.77
439.38	381.59
439.75	384.35
440.13	387.49
440.50	390.46
440.87	392.77
441.24	395.25
441.61	397.95
441.98	399.79
442.35	402.09
442.72	404.43
443.09	406.67
443.46	407.96
443.83	408.74
444.20	409.38
444.57	410.46
444.94	410.93
445.31	411.35
445.68	411.76
446.05	411.86
446.42	411.41
446.79	410.81
447.16	410.23
447.53	409.80
447.90	408.36
448.27	406.94
448.64	405.02
449.01	403.59
449.37	401.14
449.74	398.81
450.11	395.95
450.48	392.87
450.85	389.77
451.22	387.07
451.59	384.49
451.96	382.07
452.33	378.83
452.70	375.83
453.07	372.35
453.43	368.81
453.80	365.39
454.17	362.03
454.54	358.92
454.91	355.54
455.28	352.21
455.65	349.06
456.02	345.91
456.38	343.14
456.75	339.81
457.12	336.98
457.49	334.19
457.86	331.46
458.23	329.12
458.59	326.50
458.96	323.90
459.33	321.55
459.70	319.19
460.07	317.26
460.43	315.10
460.80	312.98
461.17	311.12
461.54	309.21
461.91	307.40
462.27	305.55
462.64	303.94
463.01	302.19
463.38	300.55
463.74	298.86
464.11	297.38
464.48	296.05
464.85	294.65
465.21	293.52
465.58	292.37
465.95	290.97
466.32	289.83
466.68	288.68
467.05	287.55
467.42	286.42
467.78	285.23
468.15	284.12
468.52	283.34
468.88	282.25
469.25	281.28
469.62	280.47
469.98	279.63
470.35	278.81
470.72	278.06
471.08	277.22
471.45	276.57
471.82	275.91
472.18	275.18
472.55	274.62
472.92	273.97
473.28	273.36
473.65	272.79
474.02	272.23
474.38	271.72
474.75	271.30
475.11	270.89
475.48	270.53
475.85	270.17
476.21	269.84
476.58	269.57
476.94	269.35
477.31	269.13
477.67	268.89
478.04	268.76
478.41	268.65
478.77	268.64
479.14	268.47
479.50	268.44
479.87	268.48
480.23	268.50
480.60	268.53
480.96	268.58
481.33	268.76
481.69	268.93
482.06	269.11
482.42	269.27
482.79	269.45
483.15	269.74
483.52	270.13
483.88	270.44
484.25	270.83
484.61	271.19
484.98	271.61
485.34	272.17
485.71	272.70
486.07	273.29
486.44	273.87
486.80	274.59
487.17	275.29
487.53	276.12
487.90	277.00
488.26	277.95
488.62	278.96
488.99	279.93
489.35	280.99
489.72	282.16
490.08	283.41
490.44	284.71
490.81	286.13
491.17	287.52
491.54	289.05
491.90	290.61
492.26	292.38
492.63	294.12
492.99	295.96
493.36	297.95
493.72	300.08
494.08	302.27
494.45	304.56
494.81	307.04
495.17	309.55
495.54	312.21
495.90	314.99
496.26	317.87
496.63	320.94
496.99	324.17
497.35	327.53
497.72	331.08
498.08	334.67
498.44	338.46
498.80	342.57
499.17	346.77
499.53	351.13
499.89	355.62
500.26	360.29
500.62	365.11
500.98	370.25
501.34	375.50
501.71	381.00
502.07	386.70
502.43	392.57
502.79	398.58
503.16	404.83
503.52	411.29
503.88	418.00
504.24	424.91
504.60	431.97
504.97	439.39
505.33	446.96
505.69	455.03
506.05	463.11
506.41	471.27
506.78	479.68
507.14	488.47
507.50	497.55
507.86	506.98
508.22	516.54
508.59	526.12
508.95	536.05
509.31	546.30
509.67	556.80
510.03	567.45
510.39	578.45
510.75	589.75
511.12	601.20
511.48	613.00
511.84	624.95
512.20	637.04
512.56	649.44
512.92	662.08
513.28	675.01
513.64	687.97
514.00	701.23
514.37	714.87
514.73	728.53
515.09	742.23
515.45	756.16
515.81	770.44
516.17	785.14
516.53	800.00
516.89	814.89
517.25	829.82
517.61	845.07
517.97	860.35
518.33	875.59
518.69	891.22
519.05	906.89
519.41	922.92
519.77	939.26
520.13	955.64
520.49	972.01
520.85	988.26
521.21	1004.94
521.57	1022.08
521.93	1038.77
522.29	1056.02
522.65	1073.25
523.01	1090.38
523.37	1107.50
523.73	1124.59
524.09	1141.78
524.45	1159.06
524.81	1176.74
525.17	1194.54
525.53	1212.53
525.89	1230.42
526.25	1248.31
526.61	1265.90
526.97	1283.69
527.33	1301.36
527.68	1319.06
528.04	1336.74
528.40	1354.50
528.76	1372.81
529.12	1390.66
529.48	1408.79
529.84	1426.11
530.20	1444.06
530.56	1462.27
530.91	1480.88
531.27	1499.06
531.63	1516.67
531.99	1534.63
532.35	1551.99
532.71	1569.29
533.07	1586.90
533.42	1604.28
533.78	1621.60
534.14	1639.28
534.50	1656.07
534.86	1673.33
535.21	1689.84
535.57	1707.12
535.93	1723.93
536.29	1740.13
536.65	1756.75
537.00	1772.70
537.36	1789.53
537.72	1805.38
538.08	1821.33
538.44	1836.67
538.79	1852.02
539.15	1867.13
539.51	1882.33
539.87	1898.23
540.22	1913.39
540.58	1928.54
540.94	1943.10
541.29	1957.47
541.65	1971.71
542.01	1986.53
542.37	2000.31
542.72	2014.34
543.08	2027.73
543.44	2041.87
543.79	2054.72
544.15	2067.12
544.51	2080.43
544.87	2092.90
545.22	2105.31
545.58	2117.26
545.94	2128.51
546.29	2139.96
546.65	2151.59
547.01	2162.30
547.36	2172.46
547.72	2182.63
548.07	2192.28
548.43	2202.09
548.79	2211.56
549.14	2220.77
549.50	2229.43
549.86	2238.59
550.21	2247.45
550.57	2256.13
550.92	2264.15
551.28	2272.73
551.64	2281.29
551.99	2289.23
552.35	2296.98
552.70	2304.60
553.06	2311.95
553.41	2319.74
553.77	2327.12
554.13	2334.46
554.48	2342.13
554.84	2349.19
555.19	2355.66
555.55	2362.03
555.90	2367.92
556.26	2374.36
556.61	2380.15
556.97	2385.99
557.32	2391.53
557.68	2396.93
558.03	2402.55
558.39	2407.42
558.74	2413.20
559.10	2418.31
559.45	2423.16
559.81	2428.35
560.16	2433.31
560.52	2437.69
560.87	2442.24
561.23	2446.07
561.58	2449.98
561.94	2453.59
562.29	2456.72
562.64	2460.73
563.00	2464.36
563.35	2469.04
563.71	2473.22
564.06	2477.30
564.42	2481.17
564.77	2484.69
565.12	2488.18
565.48	2491.00
565.83	2493.93
566.19	2496.14
566.54	2497.77
566.89	2500.03
567.25	2501.64
567.60	2503.80
567.96	2506.34
568.31	2507.99
568.66	2509.85
569.02	2511.47
569.37	2512.45
569.72	2514.01
570.08	2514.67
570.43	2515.30
570.78	2515.26
571.14	2514.21
571.49	2513.45
571.84	2513.40
572.20	2512.76
572.55	2512.15
572.90	2510.86
573.26	2509.85
573.61	2508.53
573.96	2507.43
574.31	2504.78
574.67	2502.05
575.02	2498.59
575.37	2495.34
575.72	2491.74
576.08	2488.53
576.43	2485.10
576.78	2481.86
577.13	2478.83
577.49	2475.79
577.84	2472.58
578.19	2468.69
578.54	2465.26
578.90	2461.34
579.25	2455.80
579.60	2450.99
579.95	2445.81
580.30	2440.77
580.66	2435.51
581.01	2430.33
581.36	2425.07
581.71	2420.80
582.06	2416.43
582.42	2412.06
582.77	2406.66
583.12	2402.03
583.47	2397.34
583.82	2392.38
584.17	2386.89
584.53	2381.33
584.88	2375.48
585.23	2369.42
585.58	2363.72
585.93	2357.84
586.28	2352.64
586.63	2347.56
586.98	2341.95
587.34	2336.89
587.69	2331.63
588.04	2326.23
588.39	2320.46
588.74	2313.68
589.09	2306.98
589.44	2299.58
589.79	2292.83
590.14	2286.70
590.49	2279.51
590.84	2272.45
591.19	2265.82
591.54	2258.77
591.89	2250.92
592.25	2243.68
592.60	2235.85
592.95	2227.89
593.30	2219.97
593.65	2211.68
594.00	2203.93
594.35	2196.14
594.70	2187.21
595.05	2179.67
595.40	2171.46
595.75	2163.05
596.10	2156.29
596.45	2149.01
596.80	2142.25
597.15	2135.16
597.50	2127.80
597.85	2120.66
598.19	2113.40
598.54	2105.85
598.89	2098.53
599.24	2091.92
599.59	2084.78
599.94	2077.78
600.29	2070.67
600.64	2063.40
600.99	2055.35
601.34	2047.80
601.69	2039.98
602.04	2032.58
602.39	2024.29
602.74	2016.83
603.08	2009.44
603.43	2001.87
603.78	1993.78
604.13	1985.69
604.48	1977.62
604.83	1969.83
605.18	1962.38
605.53	1953.45
605.87	1944.45
606.22	1936.27
606.57	1927.36
606.92	1918.74
607.27	1910.84
607.62	1903.08
607.96	1894.87
608.31	1887.53
608.66	1879.17
609.01	1870.90
609.36	1862.54
609.70	1853.58
610.05	1844.59
610.40	1836.10
610.75	1826.82
611.10	1818.30
611.44	1808.89
611.79	1799.91
612.14	1790.17
612.49	1779.67
612.83	1770.27
613.18	1761.02
613.53	1752.01
613.88	1742.47
614.22	1733.26
614.57	1723.47
614.92	1714.58
615.27	1706.30
615.61	1697.03
615.96	1687.79
616.31	1679.03
616.65	1670.66
617.00	1662.17
617.35	1653.40
617.70	1644.01
618.04	1634.45
618.39	1625.03
618.74	1616.55
619.08	1607.23
619.43	1598.66
619.78	1590.81
620.12	1582.78
620.47	1574.38
620.82	1565.02
621.16	1556.58
621.51	1547.92
621.85	1539.20
622.20	1529.63
622.55	1520.01
622.89	1511.02
623.24	1502.32
623.59	1493.92
623.93	1485.42
624.28	1477.19
624.62	1468.79
624.97	1460.64
625.32	1452.90
625.66	1444.91
626.01	1436.83
626.35	1428.56
626.70	1419.76
627.04	1411.05
627.39	1402.14
627.73	1393.64
628.08	1385.81
628.43	1377.67
628.77	1369.60
629.12	1361.11
629.46	1352.92
629.81	1344.47
630.15	1336.19
630.50	1327.94
630.84	1318.85
631.19	1309.83
631.53	1301.40
631.88	1292.79
632.22	1284.30
632.57	1276.04
632.91	1267.56
633.26	1259.19
633.60	1250.62
633.95	1242.51
634.29	1234.56
634.64	1227.14
634.98	1218.96
635.32	1211.02
635.67	1203.46
636.01	1195.86
636.36	1188.37
636.70	1181.00
637.05	1173.72
637.39	1166.50
637.73	1159.18
638.08	1152.42
638.42	1145.70
638.77	1138.44
639.11	1131.20
639.45	1123.89
639.80	1116.44
640.14	1109.33
640.49	1102.05
640.83	1094.96
641.17	1088.02
641.52	1080.99
641.86	1073.69
642.20	1067.12
642.55	1059.92
642.89	1052.77
643.23	1045.40
643.58	1038.97
643.92	1032.04
644.26	1025.22
644.61	1018.38
644.95	1011.74
645.29	1004.51
645.64	997.01
645.98	989.84
646.32	983.09
646.66	976.30
647.01	969.85
647.35	963.43
647.69	956.81
648.04	950.65
648.38	944.23
648.72	937.60
649.06	930.86
649.41	924.27
649.75	917.72
650.09	911.08
650.43	904.68
650.78	897.81
651.12	891.21
651.46	884.82
651.80	878.60
652.14	872.50
652.49	866.49
652.83	860.77
653.17	854.52
653.51	848.29
653.85	842.26
654.20	836.07
654.54	829.37
654.88	823.01
655.22	816.46
655.56	810.05
655.90	803.84
656.25	798.03
656.59	792.11
656.93	786.37
657.27	780.59
657.61	774.46
657.95	768.74
658.29	762.97
658.64	757.17
658.98	751.15
659.32	744.99
659.66	739.16
660.00	733.23
660.34	727.77
660.68	722.27
661.02	716.68
661.36	711.36
661.70	706.36
662.05	701.57
662.39	696.87
662.73	691.98
663.07	687.19
663.41	682.23
663.75	677.28
664.09	672.26
664.43	667.31
664.77	662.89
665.11	658.15
665.45	653.62
665.79	649.11
666.13	644.57
666.47	640.09
666.81	635.47
667.15	630.87
667.49	626.48
667.83	622.20
668.17	617.91
668.51	613.42
668.85	608.89
669.19	604.50
669.53	600.15
669.87	595.79
670.21	591.59
670.55	587.54
670.89	583.67
671.23	579.86
671.57	575.98
671.91	572.02
672.25	568.12
672.58	564.19
672.92	560.32
673.26	556.78
673.60	553.25
673.94	549.81
674.28	546.55
674.62	543.26
674.96	539.84
675.30	536.61
675.64	533.37
675.97	530.26
676.31	527.09
676.65	523.89
676.99	520.94
677.33	517.77
677.67	514.62
678.01	511.28
678.34	508.00
678.68	504.78
679.02	501.65
679.36	498.60
679.70	495.58
680.04	492.58
680.37	489.40
680.71	486.33
681.05	483.39
681.39	480.38
681.73	477.41
682.06	474.63
682.40	471.82
682.74	468.97
683.08	466.12
683.42	463.24
683.75	460.44
684.09	457.53
684.43	454.84
684.77	452.13
685.10	449.47
685.44	446.85
685.78	444.33
686.12	441.77
686.45	439.21
686.79	436.62
687.13	434.12
687.46	431.67
687.80	429.20
688.14	426.73
688.48	424.44
688.81	421.92
689.15	419.50
689.49	417.04
689.82	414.74
690.16	412.39
690.50	410.17
690.83	407.98
691.17	405.78
691.51	403.63
691.84	401.57
692.18	399.47
692.52	397.33
692.85	395.16
693.19	393.09
693.52	390.99
693.86	388.98
694.20	387.02
694.53	385.04
694.87	382.99
695.21	381.00
695.54	378.91
695.88	377.01
696.21	375.09
696.55	373.20
696.88	371.31
697.22	369.45
697.56	367.64
697.89	365.83
698.23	364.04
698.56	362.25
698.90	360.50
699.23	358.68
699.57	356.90
699.90	355.14
700.24	353.39
700.58	351.74
700.91	350.10
701.25	348.46
701.58	346.93
701.92	345.43
702.25	343.92
702.59	342.42
702.92	340.92
703.26	339.46
703.59	338.08
703.93	336.77
704.26	335.45
704.60	334.02
704.93	332.62
705.26	331.23
705.60	329.85
705.93	328.54
706.27	327.32
706.60	326.14
706.94	324.98
707.27	323.75
707.61	322.54
707.94	321.38
708.27	320.17
708.61	318.89
708.94	317.70
709.28	316.57
709.61	315.49
709.94	314.44
710.28	313.27
710.61	312.13
710.95	310.88
711.28	309.82
711.61	308.78
711.95	307.74
712.28	306.69
712.61	305.61
712.95	304.56
713.28	303.55
713.61	302.56
713.95	301.55
714.28	300.58
714.61	299.60
714.95	298.64
715.28	297.70
715.61	296.79
715.95	295.89
716.28	294.96
716.61	294.00
716.95	293.09
717.28	292.26
717.61	291.46
717.94	290.61
718.28	289.73
718.61	288.92
718.94	288.14
719.27	287.38
719.61	286.69
719.94	285.95
720.27	285.16
720.60	284.42
720.94	283.72
721.27	283.05
721.60	282.41
721.93	281.75
722.27	281.13
722.60	280.52
722.93	279.85
723.26	279.24
723.59	278.63
723.93	277.97
724.26	277.30
724.59	276.62
724.92	276.03
725.25	275.45
725.59	274.85
725.92	274.27
726.25	273.72
726.58	273.10
726.91	272.56
727.24	272.05
727.57	271.54
727.91	270.95
728.24	270.45
728.57	269.90
728.90	269.38
729.23	268.79
729.56	268.29
729.89	267.79
730.22	267.22
730.55	266.70
730.89	266.24
731.22	265.76
731.55	265.31
731.88	264.88
732.21	264.40
732.54	263.89
732.87	263.38
733.20	262.91
733.53	262.51
733.86	262.07
734.19	261.63
734.52	261.15
734.85	260.81
735.18	260.31
735.51	259.89
735.84	259.48
736.17	259.08
736.50	258.66
736.83	258.41
737.16	258.05
737.49	257.67
737.82	257.27
738.15	256.90
738.48	256.51
738.81	256.13
739.14	255.78
739.47	255.44
739.80	255.12
740.13	254.80
740.46	254.43
740.79	254.02
741.12	253.64
741.45	253.30
741.78	252.89
742.11	252.61
742.44	252.21
742.77	251.89
743.10	251.57
743.43	251.22
743.75	250.78
744.08	250.59
744.41	250.29
744.74	249.98
745.07	249.64
745.40	249.35
745.73	249.05
746.06	248.71
746.39	248.41
746.71	248.12
747.04	247.83
747.37	247.52
747.70	247.27
748.03	247.00
748.36	246.76
748.68	246.48
749.01	246.18
749.34	245.99
749.67	245.72
750.00	245.48
750.33	245.26
750.65	244.99
750.98	244.63
751.31	244.40
751.64	244.18
751.97	244.01
752.29	243.76
752.62	243.51
752.95	243.27
753.28	243.09
753.60	242.82
753.93	242.63
754.26	242.40
754.59	242.17
754.91	241.96
755.24	241.73
755.57	241.55
755.90	241.33
756.22	241.11
756.55	240.91
756.88	240.69
757.20	240.44
757.53	240.23
757.86	240.04
758.19	239.86
758.51	239.67
758.84	239.46
759.17	239.27
759.49	239.11
759.82	238.97
760.15	238.79
760.47	238.64
760.80	238.44
761.13	238.34
761.45	238.17
761.78	237.97
762.11	237.81
762.43	237.66
762.76	237.49
763.08	237.34
763.41	237.20
763.74	237.04
764.06	236.91
764.39	236.74
764.71	236.58
765.04	236.42
765.37	236.29
765.69	236.16
766.02	236.00
766.34	235.84
766.67	235.70
767.00	235.55
767.32	235.46
767.65	235.40
767.97	235.24
768.30	235.10
768.62	235.01
768.95	234.87
769.27	234.73
769.60	234.64
769.92	234.51
770.25	234.34
770.57	234.21
770.90	234.10
771.22	234.00
771.55	233.87
771.87	233.76
772.20	233.59
772.52	233.54
772.85	233.55
773.17	233.46
773.50	233.31
773.82	233.19
774.15	233.07
774.47	232.89
774.80	232.76
775.12	232.65
775.45	232.56
775.77	232.49
776.09	232.41
776.42	232.31
776.74	232.24
777.07	232.19
777.39	232.10
777.72	232.02
778.04	231.95
778.36	231.87
778.69	231.82
779.01	231.75
779.33	231.58
779.66	231.39
779.98	231.29
780.31	231.21
780.63	231.17
780.95	231.07
781.28	231.01
781.60	230.95
781.92	230.91
782.25	230.83
782.57	230.71
782.89	230.62
783.22	230.52
783.54	230.40
783.86	230.29
784.19	230.26
784.51	230.20
784.83	230.13
785.16	230.06
785.48	229.98
785.80	229.91
786.12	229.86
786.45	229.78
786.77	229.74
787.09	229.71
787.42	229.62
787.74	229.61
788.06	229.52
788.38	229.47
788.71	229.40
789.03	229.36
789.35	229.37
789.67	229.34
789.99	229.30
790.32	229.27
790.64	229.26
790.96	229.26
791.28	229.20
791.61	229.14
791.93	229.14
792.25	229.10
792.57	229.12
792.89	229.05
793.21	229.04
793.54	228.98
793.86	228.93
794.18	228.91
794.50	228.83
794.82	228.80
795.14	228.74
795.47	228.72
795.79	228.67
796.11	228.60
796.43	228.54
796.75	228.51
797.07	228.51
797.39	228.47
797.71	228.36
798.04	228.35
798.36	228.35
798.68	228.26
799.00	228.25
799.32	228.22
799.64	228.21
799.96	228.19
800.28	228.15
800.60	228.12
800.92	228.11
801.24	228.05
801.56	228.02
801.89	228.01
802.21	227.97
802.53	227.96
802.85	227.96
803.17	227.99
803.49	227.93
803.81	227.86
804.13	227.83
804.45	227.79
804.77	227.74
805.09	227.70
805.41	227.67
805.73	227.61
806.05	227.54
806.37	227.51
806.69	227.46
807.01	227.44
807.33	227.42
807.65	227.33
807.97	227.37
808.28	227.34
808.60	227.32
808.92	227.27
809.24	227.27
809.56	227.21
809.88	227.13
810.20	227.15
810.52	227.14
810.84	227.11
811.16	227.08
811.48	227.06
811.80	227.08
812.12	227.06
812.43	227.06
812.75	227.02
813.07	226.98
813.39	226.97
813.71	226.93
814.03	226.86
814.35	226.84
814.67	226.78
814.98	226.72
815.30	226.72
815.62	226.71
815.94	226.63
816.26	226.66
816.58	226.60
816.89	226.58
817.21	226.54
817.53	226.53
817.85	226.49
818.17	226.50
818.48	226.42
818.80	226.41
819.12	226.36
819.44	226.35
819.76	226.33
820.07	226.33
820.39	226.30
820.71	226.29
821.03	226.28
821.34	226.23
821.66	226.24
821.98	226.19
822.30	226.16
822.61	226.22
822.93	226.15
823.25	226.12
823.57	226.08
823.88	226.09
824.20	226.05
824.52	226.09
824.83	226.00
825.15	225.96
825.47	225.96
825.79	225.96
826.10	225.93
826.42	225.92
826.74	225.90
827.05	225.88
827.37	225.86
827.69	225.86
828.00	225.85
828.32	225.85
828.64	225.85
828.95	225.87
829.27	225.80
829.58	225.80
829.90	225.84
830.22	225.82
830.53	225.81
830.85	225.80
831.17	225.78
831.48	225.83
831.80	225.84
832.11	225.81
832.43	225.80
832.75	225.84
833.06	225.87
833.38	225.84
833.69	225.86
834.01	225.90
834.32	225.84
834.64	225.85
834.96	225.84
835.27	225.83
835.59	225.82
835.90	225.78
836.22	225.79
836.53	225.73
836.85	225.72
837.16	225.81
837.48	225.79
837.79	225.80
838.11	225.78
838.42	225.79
838.74	225.81
839.05	225.76
839.37	225.70
839.68	225.65
840.00	225.66
840.31	225.67
840.63	225.64
840.94	225.65
841.26	225.63
841.57	225.65
841.88	225.65
842.20	225.59
842.51	225.62
842.83	225.60
843.14	225.71
843.46	225.74
843.77	225.66
844.08	225.66
844.40	225.63
844.71	225.63
845.03	225.60
845.34	225.56
845.65	225.56
845.97	225.59
846.28	225.62
846.60	225.61
846.91	225.57
847.22	225.56
847.54	225.58
847.85	225.58
848.16	225.52
848.48	225.49
848.79	225.56
849.10	225.58
849.42	225.60
849.73	225.51
850.04	225.50
850.36	225.44
850.67	225.44
850.98	225.44
851.30	225.43
851.61	225.42
851.92	225.42
852.23	225.44
852.55	225.42
852.86	225.40
853.17	225.40
853.49	225.43
853.80	225.43
854.11	225.45
854.42	225.46
854.74	225.48
855.05	225.49
855.36	225.40
855.67	225.39
855.99	225.37
856.30	225.49
856.61	225.48
856.92	225.48
857.23	225.46
857.55	225.45
857.86	225.42
858.17	225.44
858.48	225.39
858.79	225.39
859.11	225.38
859.42	225.35
859.73	225.33
860.04	225.31
860.35	225.29
860.66	225.25
860.98	225.26
861.29	225.24
861.60	225.20
861.91	225.24
862.22	225.22
862.53	225.17
862.84	225.02
863.16	225.04
863.47	225.03
863.78	225.04
864.09	225.02
864.40	225.01
864.71	224.98
865.02	225.03
865.33	225.00
865.64	225.00
865.95	224.99
866.27	225.05
866.58	225.04
866.89	225.08
867.20	225.07
867.51	225.05
867.82	225.07
868.13	225.11
868.44	225.08
868.75	225.09
869.06	225.09
869.37	225.12
869.68	225.08
869.99	225.11
870.30	225.13
870.61	225.18
870.92	225.18
871.23	225.22
871.54	225.18
871.85	225.21
872.16	225.21
872.47	225.23
872.78	225.17
873.09	225.21
873.40	225.16
873.71	225.19
874.02	225.18
874.33	225.16
874.64	225.15
874.95	225.19
875.26	225.15
875.56	225.18
875.87	225.15
876.18	225.13
876.49	225.21
876.80	225.18
877.11	225.13
877.42	225.15
877.73	225.14
878.04	225.16
878.35	225.17
878.66	225.19
878.96	225.16
879.27	225.17
879.58	225.11
879.89	225.08
880.20	225.08
880.51	225.08
880.82	225.09
881.12	225.10
881.43	225.07
881.74	225.06
882.05	225.07
882.36	225.08
882.67	225.08
882.97	224.98
883.28	224.97
883.59	224.94
883.90	224.92
884.21	224.93
884.51	224.91
884.82	224.87
885.13	224.84
885.44	224.83
885.74	224.80
886.05	224.82
886.36	224.83
886.67	224.80
886.98	224.84
887.28	224.83
887.59	224.79
887.90	224.77
888.20	224.76
888.51	224.76
888.82	224.73
889.13	224.78
889.43	224.88
889.74	224.85
890.05	224.86
890.35	224.83
890.66	224.78
890.97	224.76
891.28	224.75
891.58	224.76
891.89	224.75
892.20	224.72
892.50	224.69
892.81	224.68
893.12	224.66
893.42	224.59
893.73	224.59
894.04	224.60
894.34	224.61
894.65	224.60
894.95	224.57
895.26	224.56
895.57	224.57
895.87	224.44
896.18	224.50
896.48	224.50
896.79	224.50
897.10	224.53
897.40	224.51
897.71	224.52
898.01	224.52
898.32	224.50
898.63	224.53
898.93	224.55
899.24	224.56
899.54	224.54
899.85	224.54
900.15	224.52
900.46	224.55
900.76	224.55
901.07	224.55
901.38	224.57
901.68	224.56
901.99	224.51
902.29	224.50
902.60	224.46
902.90	224.44
903.21	224.45
903.51	224.43
903.82	224.44
904.12	224.45
904.43	224.43
904.73	224.45
905.03	224.48
905.34	224.56
905.64	224.55
905.95	224.57
906.25	224.58
906.56	224.62
906.86	224.61
907.17	224.60
907.47	224.61
907.77	224.60
908.08	224.63
908.38	224.65
908.69	224.65
908.99	224.68
909.30	224.69
909.60	224.70
909.90	224.74
910.21	224.72
910.51	224.70
910.81	224.71
911.12	224.74
911.42	224.73
911.73	224.66
912.03	224.66
912.33	224.69
912.64	224.72
912.94	224.72
913.24	224.69
913.55	224.70
913.85	224.73
914.15	224.76
914.46	224.77
914.76	224.75
915.06	224.80
915.37	224.80
915.67	224.81
915.97	224.82
916.27	224.80
916.58	224.80
916.88	224.82
917.18	224.84
917.49	224.92
917.79	224.88
918.09	224.88
918.39	224.92
918.70	224.91
919.00	224.90
919.30	224.94
919.60	224.96
919.91	224.98
920.21	225.00
920.51	224.97
920.81	224.95
921.12	224.97
921.42	224.96
921.72	224.93
922.02	224.97
922.32	224.98
922.63	224.99
922.93	225.08
923.23	225.08
923.53	225.06
923.83	224.98
924.13	225.00
924.44	225.01
924.74	225.04
925.04	225.08
925.34	225.07
925.64	225.02
925.94	225.00
926.24	225.01
926.55	224.97
926.85	224.99
927.15	224.99
927.45	225.00
927.75	224.99
928.05	225.00
928.35	224.97
928.65	224.95
928.95	224.95
929.26	224.90
929.56	224.89
929.86	224.91
930.16	224.89
930.46	224.87
930.76	224.85
931.06	224.80
931.36	224.75
931.66	224.77
931.96	224.77
932.26	224.73
932.56	224.65
932.86	224.64
933.16	224.62
933.46	224.59
933.76	224.54
934.06	224.56
934.36	224.60
934.66	224.55
934.96	224.54
935.26	224.56
935.56	224.51
935.86	224.52
936.16	224.48
936.46	224.46
936.76	224.47
937.06	224.43
937.36	224.42
937.66	224.42
937.96	224.40
938.26	224.37
938.56	224.41
938.86	224.42
939.16	224.44
939.46	224.44
939.76	224.46
940.06	224.47
940.35	224.44
940.65	224.38
940.95	224.39
941.25	224.36
941.55	224.37
941.85	224.40
942.15	224.41
942.45	224.42
942.75	224.43
943.04	224.42
943.34	224.44
943.64	224.43
943.94	224.41
944.24	224.39
944.54	224.40
944.84	224.38
945.13	224.40
945.43	224.39
945.73	224.37
946.03	224.36
946.33	224.35
946.62	224.32
946.92	224.35
947.22	224.38
947.52	224.41
947.82	224.39
948.11	224.39
948.41	224.37
948.71	224.35
949.01	224.38
949.31	224.39
949.60	224.38
949.90	224.43
950.20	224.44
950.50	224.48
950.79	224.49
951.09	224.52
951.39	224.51
951.69	224.49
951.98	224.55
952.28	224.55
952.58	224.54
952.87	224.54
953.17	224.55
953.47	224.54
953.76	224.53
954.06	224.49
954.36	224.47
954.66	224.45
954.95	224.49
955.25	224.50
955.55	224.52
955.84	224.53
956.14	224.54
956.44	224.56
956.73	224.51
957.03	224.54
957.32	224.52
957.62	224.52
957.92	224.57
958.21	224.55
958.51	224.67
958.81	224.70
959.10	224.72
959.40	224.73
959.69	224.73
959.99	224.79
960.29	224.82
960.58	224.86
960.88	224.91
961.17	224.91
961.47	224.90
961.76	224.88
962.06	224.89
962.36	224.89
962.65	224.86
962.95	224.87
963.24	224.83
963.54	224.88
963.83	224.91
964.13	224.88
964.42	224.85
964.72	224.78
965.01	224.80
965.31	224.82
965.60	224.80
965.90	224.88
966.19	224.81
966.49	224.81
966.78	224.78
967.08	224.78
967.37	224.75
967.67	224.74
967.96	224.74
968.26	224.73
968.55	224.73
968.85	224.75
969.14	224.78
969.43	224.78
969.73	224.77
970.02	224.74
970.32	224.77
970.61	224.76
970.91	224.72
971.20	224.69
971.49	224.69
971.79	224.69
972.08	224.60
972.38	224.64
972.67	224.64
972.96	224.65
973.26	224.61
973.55	224.62
973.85	224.60
974.14	224.60
974.43	224.60
974.73	224.56
975.02	224.53
975.31	224.51
975.61	224.51
975.90	224.46
976.19	224.42
976.49	224.38
976.78	224.39
977.07	224.38
977.37	224.33
977.66	224.34
977.95	224.31
978.24	224.32
978.54	224.33
978.83	224.32
979.12	224.28
979.42	224.27
979.71	224.28
980.00	224.30
980.29	224.31
980.59	224.29
980.88	224.33
981.17	224.34
981.46	224.33
981.76	224.32
982.05	224.36
982.34	224.39
982.63	224.41
982.93	224.41
983.22	224.45
983.51	224.50
983.80	224.49
984.09	224.55
984.39	224.53
984.68	224.52
984.97	224.54
985.26	224.56
985.55	224.61
985.85	224.59
986.14	224.56
986.43	224.55
986.72	224.57
987.01	224.54
987.30	224.53
987.59	224.53
987.89	224.55
988.18	224.54
988.47	224.55
988.76	224.53
989.05	224.52
989.34	224.51
989.63	224.53
989.92	224.52
990.22	224.47
990.51	224.48
990.80	224.44
991.09	224.46
991.38	224.48
991.67	224.46
991.96	224.44
992.25	224.48
992.54	224.47
992.83	224.45
993.12	224.45
993.41	224.46
993.70	224.53
993.99	224.56
994.28	224.58
994.58	224.61
994.87	224.62
995.16	224.64
995.45	224.65
995.74	224.63
996.03	224.67
996.32	224.72
996.61	224.79
996.90	224.83
997.19	224.82
997.48	224.83
997.77	224.84
998.06	224.86
998.34	224.86
998.63	224.87
998.92	224.86
999.21	224.89
999.50	224.90
999.79	224.84
1000.08	224.86
1000.37	224.87
1000.66	224.83
1000.95	224.87
1001.24	224.85
1001.53	224.86
1001.82	224.89
1002.11	224.85
1002.40	224.86
1002.68	224.87
1002.97	224.91
1003.26	224.90
1003.55	224.86
1003.84	224.88
1004.13	224.91
1004.42	224.92
1004.71	224.92
1004.99	224.92
1005.28	224.94
1005.57	224.94
1005.86	224.93
1006.15	224.91
1006.44	224.86
1006.72	224.88
1007.01	224.86
1007.30	224.87
1007.59	224.84
1007.88	224.81
1008.17	224.84
1008.45	224.80
1008.74	224.75
1009.03	224.72
1009.32	224.74
1009.60	224.72
1009.89	224.66
1010.18	224.62
1010.47	224.58
1010.76	224.59
1011.04	224.61
1011.33	224.65
1011.62	224.68
1011.91	224.71
1012.19	224.72
1012.48	224.75
1012.77	224.74
1013.05	224.80
1013.34	224.79
1013.63	224.79
1013.92	224.81
1014.20	224.77
1014.49	224.76
1014.78	224.74
1015.06	224.70
1015.35	224.66
1015.64	224.68
1015.92	224.74
1016.21	224.73
1016.50	224.73
1016.78	224.77
1017.07	224.77
1017.36	224.70
1017.64	224.64
1017.93	224.63
1018.22	224.62
1018.50	224.64
1018.79	224.63
1019.08	224.55
1019.36	224.54
1019.65	224.52
1019.93	224.55
1020.22	224.57
1020.51	224.63
1020.79	224.63
1021.08	224.84
1021.36	225.00
1021.65	224.48
1021.94	224.28
1022.22	224.31
1022.51	224.49
1022.79	225.07
1023.08	224.70
1023.36	225.87
1023.65	224.14
>>>>>End Processed Spectral Data<<<<<
