SpectraSuite Data File
++++++++++++++++++++++++++++++++++++
Date: Fri Feb 01 16:38:12 EST 2013
User: group
Dark Spectrum Present: No
Reference Spectrum Present: No
Number of Sampled Component Spectra: 1
Spectrometers: USB2E7196
Integration Time (usec): 35000 (USB2E7196)
Spectra Averaged: 100 (USB2E7196)
Boxcar Smoothing: 10 (USB2E7196)
Correct for Electrical Dark: No (USB2E7196)
Strobe/Lamp Enabled: No (USB2E7196)
Correct for Detector Non-linearity: No (USB2E7196)
Correct for Stray Light: No (USB2E7196)
Number of Pixels in Processed Spectrum: 2048
>>>>>Begin Processed Spectral Data<<<<<
339.09	0.00
339.48	214.07
339.86	214.97
340.24	216.80
340.63	218.07
341.01	220.65
341.39	220.60
341.78	222.52
342.16	222.84
342.54	223.96
342.93	212.23
343.31	222.97
343.69	223.46
344.07	223.94
344.46	224.37
344.84	224.75
345.22	225.01
345.60	225.28
345.99	225.46
346.37	225.62
346.75	225.70
347.13	225.77
347.52	225.82
347.90	225.94
348.28	225.96
348.66	226.00
349.05	226.01
349.43	226.07
349.81	226.07
350.19	226.09
350.57	226.17
350.96	226.25
351.34	226.34
351.72	226.46
352.10	226.55
352.48	226.61
352.87	226.71
353.25	226.76
353.63	226.80
354.01	226.85
354.39	226.91
354.77	227.00
355.15	227.07
355.54	227.15
355.92	227.16
356.30	227.22
356.68	227.37
357.06	227.43
357.44	227.42
357.82	227.50
358.20	227.58
358.58	227.61
358.97	227.68
359.35	227.74
359.73	227.84
360.11	227.88
360.49	227.96
360.87	227.96
361.25	228.03
361.63	228.10
362.01	228.15
362.39	228.24
362.77	228.25
363.15	228.30
363.53	228.35
363.91	228.38
364.29	228.42
364.67	228.33
365.05	228.34
365.43	228.40
365.81	228.43
366.19	228.48
366.57	228.53
366.95	228.51
367.33	228.48
367.71	228.45
368.09	228.48
368.47	228.46
368.85	228.45
369.23	228.43
369.61	228.40
369.99	228.40
370.37	228.36
370.75	228.39
371.13	228.36
371.51	228.30
371.89	228.27
372.27	228.22
372.65	228.22
373.03	228.15
373.41	228.09
373.78	228.03
374.16	227.91
374.54	227.83
374.92	227.77
375.30	227.71
375.68	227.61
376.06	227.56
376.44	227.48
376.82	227.44
377.19	227.38
377.57	227.28
377.95	227.19
378.33	227.10
378.71	227.00
379.09	226.92
379.47	226.85
379.84	226.79
380.22	226.72
380.60	226.60
380.98	226.56
381.36	226.50
381.73	226.38
382.11	226.33
382.49	226.26
382.87	226.21
383.25	226.17
383.62	226.22
384.00	226.13
384.38	226.06
384.76	225.97
385.13	225.93
385.51	225.87
385.89	225.78
386.27	225.73
386.64	225.68
387.02	225.60
387.40	225.55
387.78	225.50
388.15	225.47
388.53	225.43
388.91	225.36
389.29	225.32
389.66	225.34
390.04	225.32
390.42	225.34
390.79	225.30
391.17	225.25
391.55	225.15
391.92	225.15
392.30	225.17
392.68	225.18
393.05	225.18
393.43	225.19
393.81	225.24
394.18	225.23
394.56	225.23
394.94	225.31
395.31	225.28
395.69	225.33
396.06	225.34
396.44	225.40
396.82	225.46
397.19	225.54
397.57	225.55
397.95	225.59
398.32	225.61
398.70	225.67
399.07	225.75
399.45	225.82
399.82	225.85
400.20	225.89
400.58	225.95
400.95	225.93
401.33	226.03
401.70	226.16
402.08	226.25
402.45	226.35
402.83	226.41
403.20	226.56
403.58	226.66
403.95	226.79
404.33	226.89
404.71	227.01
405.08	227.20
405.46	227.31
405.83	227.47
406.21	227.61
406.58	227.77
406.96	227.89
407.33	228.06
407.70	228.26
408.08	228.53
408.45	228.77
408.83	229.03
409.20	229.26
409.58	229.43
409.95	229.69
410.33	229.96
410.70	230.21
411.08	230.51
411.45	230.82
411.82	231.13
412.20	231.51
412.57	231.91
412.95	232.16
413.32	232.59
413.69	232.99
414.07	233.42
414.44	233.88
414.82	234.38
415.19	234.90
415.56	235.48
415.94	236.01
416.31	236.66
416.68	237.34
417.06	238.00
417.43	238.70
417.81	239.49
418.18	240.28
418.55	241.16
418.93	242.02
419.30	242.92
419.67	243.85
420.04	244.80
420.42	245.80
420.79	247.00
421.16	248.16
421.54	249.34
421.91	250.57
422.28	251.83
422.66	253.20
423.03	254.50
423.40	255.80
423.77	257.23
424.15	258.65
424.52	260.09
424.89	261.73
425.26	263.27
425.64	264.72
426.01	266.28
426.38	267.91
426.75	269.53
427.13	271.21
427.50	273.03
427.87	274.89
428.24	276.77
428.61	278.49
428.99	280.39
429.36	282.47
429.73	284.53
430.10	286.50
430.47	288.49
430.85	290.59
431.22	292.82
431.59	295.11
431.96	297.33
432.33	299.81
432.70	302.15
433.08	304.93
433.45	307.53
433.82	310.11
434.19	312.96
434.56	315.77
434.93	318.37
435.30	320.92
435.68	323.82
436.05	326.63
436.42	329.40
436.79	331.86
437.16	334.54
437.53	337.31
437.90	340.10
438.27	342.84
438.64	345.59
439.01	348.14
439.38	350.36
439.75	352.50
440.13	354.94
440.50	357.23
440.87	359.08
441.24	360.99
441.61	363.14
441.98	364.60
442.35	366.43
442.72	368.31
443.09	370.10
443.46	371.03
443.83	371.55
444.20	372.06
444.57	372.92
444.94	373.19
445.31	373.54
445.68	373.88
446.05	373.98
446.42	373.64
446.79	373.26
447.16	372.87
447.53	372.55
447.90	371.41
448.27	370.29
448.64	368.69
449.01	367.60
449.37	365.61
449.74	363.77
450.11	361.52
450.48	359.02
450.85	356.54
451.22	354.41
451.59	352.48
451.96	350.54
452.33	347.98
452.70	345.69
453.07	342.86
453.43	340.01
453.80	337.24
454.17	334.60
454.54	332.08
454.91	329.38
455.28	326.73
455.65	324.25
456.02	321.83
456.38	319.71
456.75	317.10
457.12	314.88
457.49	312.64
457.86	310.52
458.23	308.69
458.59	306.64
458.96	304.62
459.33	302.75
459.70	300.92
460.07	299.40
460.43	297.68
460.80	296.14
461.17	294.76
461.54	293.30
461.91	291.91
462.27	290.46
462.64	289.22
463.01	287.88
463.38	286.63
463.74	285.28
464.11	284.13
464.48	283.10
464.85	282.01
465.21	281.23
465.58	280.30
465.95	279.29
466.32	278.42
466.68	277.53
467.05	276.64
467.42	275.78
467.78	274.85
468.15	273.98
468.52	273.29
468.88	272.39
469.25	271.60
469.62	270.99
469.98	270.33
470.35	269.72
470.72	269.14
471.08	268.52
471.45	268.01
471.82	267.48
472.18	266.91
472.55	266.48
472.92	265.94
473.28	265.49
473.65	265.01
474.02	264.61
474.38	264.20
474.75	263.89
475.11	263.54
475.48	263.31
475.85	263.09
476.21	262.89
476.58	262.73
476.94	262.63
477.31	262.44
477.67	262.34
478.04	262.24
478.41	262.20
478.77	262.24
479.14	262.16
479.50	262.15
479.87	262.20
480.23	262.30
480.60	262.36
480.96	262.48
481.33	262.72
481.69	262.89
482.06	263.14
482.42	263.36
482.79	263.65
483.15	263.94
483.52	264.32
483.88	264.64
484.25	265.00
484.61	265.39
484.98	265.86
485.34	266.39
485.71	266.89
486.07	267.45
486.44	268.00
486.80	268.73
487.17	269.47
487.53	270.27
487.90	271.13
488.26	272.03
488.62	272.99
488.99	273.93
489.35	274.99
489.72	276.07
490.08	277.25
490.44	278.48
490.81	279.85
491.17	281.22
491.54	282.69
491.90	284.25
492.26	285.91
492.63	287.65
492.99	289.41
493.36	291.40
493.72	293.43
494.08	295.56
494.45	297.77
494.81	300.09
495.17	302.51
495.54	305.07
495.90	307.83
496.26	310.60
496.63	313.60
496.99	316.72
497.35	319.95
497.72	323.38
498.08	326.90
498.44	330.60
498.80	334.55
499.17	338.64
499.53	342.80
499.89	347.21
500.26	351.71
500.62	356.42
500.98	361.41
501.34	366.55
501.71	371.87
502.07	377.34
502.43	383.00
502.79	388.83
503.16	394.93
503.52	401.18
503.88	407.64
504.24	414.23
504.60	421.12
504.97	428.27
505.33	435.58
505.69	443.28
506.05	450.99
506.41	458.81
506.78	466.94
507.14	475.43
507.50	484.14
507.86	493.14
508.22	502.32
508.59	511.42
508.95	520.98
509.31	530.87
509.67	540.99
510.03	551.30
510.39	561.89
510.75	572.63
511.12	583.54
511.48	594.82
511.84	606.23
512.20	617.72
512.56	629.62
512.92	641.77
513.28	654.06
513.64	666.49
514.00	679.22
514.37	692.14
514.73	705.22
515.09	718.20
515.45	731.51
515.81	745.03
516.17	759.01
516.53	773.15
516.89	787.24
517.25	801.38
517.61	815.66
517.97	830.13
518.33	844.50
518.69	859.22
519.05	874.15
519.41	889.35
519.77	904.81
520.13	920.19
520.49	935.48
520.85	950.85
521.21	966.45
521.57	982.66
521.93	998.34
522.29	1014.51
522.65	1030.66
523.01	1046.70
523.37	1062.65
523.73	1078.73
524.09	1094.62
524.45	1110.72
524.81	1127.25
525.17	1144.10
525.53	1160.71
525.89	1177.50
526.25	1194.20
526.61	1210.41
526.97	1227.04
527.33	1243.35
527.68	1259.92
528.04	1276.30
528.40	1292.71
528.76	1309.87
529.12	1326.20
529.48	1342.97
529.84	1358.99
530.20	1375.42
530.56	1392.29
530.91	1409.52
531.27	1426.19
531.63	1442.64
531.99	1459.11
532.35	1474.98
532.71	1490.61
533.07	1506.89
533.42	1522.78
533.78	1538.71
534.14	1554.87
534.50	1569.99
534.86	1585.71
535.21	1600.70
535.57	1616.50
535.93	1631.86
536.29	1646.26
536.65	1661.28
537.00	1675.84
537.36	1690.93
537.72	1705.35
538.08	1719.73
538.44	1733.40
538.79	1747.10
539.15	1760.37
539.51	1773.80
539.87	1788.04
540.22	1801.65
540.58	1815.10
540.94	1827.95
541.29	1840.47
541.65	1852.91
542.01	1865.94
542.37	1878.18
542.72	1890.44
543.08	1902.08
543.44	1914.24
543.79	1925.49
544.15	1936.32
544.51	1947.77
544.87	1958.62
545.22	1969.41
545.58	1979.41
545.94	1989.19
546.29	1999.01
546.65	2008.92
547.01	2018.35
547.36	2026.90
547.72	2035.22
548.07	2043.04
548.43	2051.35
548.79	2059.40
549.14	2067.04
549.50	2074.23
549.86	2081.72
550.21	2089.01
550.57	2096.16
550.92	2102.80
551.28	2109.80
551.64	2116.74
551.99	2123.21
552.35	2129.30
552.70	2135.49
553.06	2141.46
553.41	2147.82
553.77	2153.72
554.13	2159.79
554.48	2165.76
554.84	2171.31
555.19	2176.65
555.55	2181.79
555.90	2186.22
556.26	2191.34
556.61	2196.03
556.97	2200.50
557.32	2204.70
557.68	2208.89
558.03	2213.04
558.39	2216.67
558.74	2221.31
559.10	2225.24
559.45	2228.84
559.81	2233.06
560.16	2236.76
560.52	2240.17
560.87	2243.34
561.23	2246.12
561.58	2248.93
561.94	2251.64
562.29	2253.78
562.64	2256.52
563.00	2259.10
563.35	2262.71
563.71	2265.70
564.06	2268.80
564.42	2271.76
564.77	2274.36
565.12	2276.86
565.48	2279.05
565.83	2281.13
566.19	2282.42
566.54	2283.32
566.89	2284.66
567.25	2285.53
567.60	2286.85
567.96	2288.66
568.31	2289.58
568.66	2290.70
569.02	2291.46
569.37	2291.85
569.72	2293.00
570.08	2293.28
570.43	2293.53
570.78	2293.06
571.14	2291.65
571.49	2290.39
571.84	2289.96
572.20	2288.92
572.55	2287.63
572.90	2285.96
573.26	2284.58
573.61	2282.74
573.96	2281.19
574.31	2278.30
574.67	2275.16
575.02	2271.55
575.37	2267.92
575.72	2264.22
576.08	2260.84
576.43	2257.45
576.78	2253.92
577.13	2250.58
577.49	2247.33
577.84	2243.89
578.19	2240.01
578.54	2236.54
578.90	2232.51
579.25	2227.08
579.60	2222.32
579.95	2217.50
580.30	2212.57
580.66	2207.36
581.01	2202.48
581.36	2197.57
581.71	2193.46
582.06	2189.26
582.42	2184.99
582.77	2179.99
583.12	2175.58
583.47	2171.07
583.82	2166.35
584.17	2161.14
584.53	2155.81
584.88	2150.38
585.23	2144.77
585.58	2139.34
585.93	2133.78
586.28	2128.89
586.63	2123.93
586.98	2118.76
587.34	2114.14
587.69	2109.32
588.04	2104.34
588.39	2098.91
588.74	2092.41
589.09	2086.37
589.44	2079.62
589.79	2073.47
590.14	2067.82
590.49	2061.24
590.84	2054.65
591.19	2048.53
591.54	2042.08
591.89	2034.95
592.25	2028.36
592.60	2021.13
592.95	2013.79
593.30	2006.48
593.65	1999.03
594.00	1991.99
594.35	1984.87
594.70	1976.60
595.05	1969.58
595.40	1962.21
595.75	1954.75
596.10	1948.73
596.45	1942.03
596.80	1935.87
597.15	1929.41
597.50	1922.63
597.85	1916.14
598.19	1909.79
598.54	1903.02
598.89	1896.42
599.24	1890.50
599.59	1883.99
599.94	1877.69
600.29	1871.45
600.64	1864.80
600.99	1857.47
601.34	1850.83
601.69	1843.79
602.04	1837.30
602.39	1829.95
602.74	1823.36
603.08	1816.72
603.43	1810.04
603.78	1802.78
604.13	1795.72
604.48	1788.62
604.83	1781.77
605.18	1775.06
605.53	1767.12
605.87	1759.09
606.22	1751.76
606.57	1743.78
606.92	1736.10
607.27	1729.23
607.62	1722.26
607.96	1715.30
608.31	1708.95
608.66	1701.35
609.01	1694.01
609.36	1686.48
609.70	1678.51
610.05	1670.51
610.40	1662.89
610.75	1654.62
611.10	1647.04
611.44	1638.49
611.79	1630.35
612.14	1621.55
612.49	1612.39
612.83	1603.97
613.18	1595.80
613.53	1587.82
613.88	1579.17
614.22	1571.09
614.57	1562.35
614.92	1554.39
615.27	1546.99
615.61	1538.54
615.96	1530.49
616.31	1522.78
616.65	1515.43
617.00	1507.80
617.35	1499.99
617.70	1491.75
618.04	1483.38
618.39	1475.15
618.74	1467.68
619.08	1459.45
619.43	1451.93
619.78	1444.94
620.12	1437.99
620.47	1430.43
620.82	1422.28
621.16	1414.97
621.51	1407.33
621.85	1399.65
622.20	1391.13
622.55	1382.61
622.89	1374.75
623.24	1367.06
623.59	1359.54
623.93	1351.93
624.28	1344.83
624.62	1337.41
624.97	1330.14
625.32	1323.19
625.66	1316.04
626.01	1308.83
626.35	1301.45
626.70	1293.68
627.04	1286.08
627.39	1278.12
627.73	1270.72
628.08	1263.81
628.43	1256.63
628.77	1249.31
629.12	1241.85
629.46	1234.75
629.81	1227.18
630.15	1219.98
630.50	1212.68
630.84	1204.67
631.19	1196.70
631.53	1189.04
631.88	1181.45
632.22	1173.93
632.57	1166.55
632.91	1159.09
633.26	1151.74
633.60	1144.33
633.95	1137.13
634.29	1129.92
634.64	1123.24
634.98	1115.96
635.32	1108.80
635.67	1102.15
636.01	1095.45
636.36	1088.62
636.70	1082.03
637.05	1075.59
637.39	1069.17
637.73	1062.66
638.08	1056.77
638.42	1050.82
638.77	1044.42
639.11	1037.94
639.45	1031.47
639.80	1024.88
640.14	1018.45
640.49	1011.86
640.83	1005.60
641.17	999.48
641.52	993.34
641.86	986.93
642.20	980.97
642.55	974.52
642.89	968.13
643.23	961.53
643.58	955.85
643.92	949.69
644.26	943.69
644.61	937.57
644.95	931.61
645.29	925.06
645.64	918.41
645.98	912.07
646.32	906.07
646.66	900.03
647.01	894.29
647.35	888.65
647.69	882.86
648.04	877.26
648.38	871.51
648.72	865.50
649.06	859.53
649.41	853.60
649.75	847.82
650.09	841.81
650.43	836.10
650.78	829.90
651.12	823.97
651.46	818.23
651.80	812.55
652.14	807.11
652.49	801.79
652.83	796.60
653.17	790.96
653.51	785.36
653.85	779.96
654.20	774.39
654.54	768.40
654.88	762.63
655.22	756.73
655.56	750.97
655.90	745.54
656.25	740.23
656.59	734.89
656.93	729.74
657.27	724.62
657.61	719.15
657.95	714.07
658.29	708.98
658.64	703.71
658.98	698.30
659.32	692.77
659.66	687.52
660.00	682.27
660.34	677.42
660.68	672.41
661.02	667.37
661.36	662.61
661.70	658.12
662.05	653.85
662.39	649.55
662.73	645.13
663.07	640.64
663.41	636.23
663.75	631.87
664.09	627.34
664.43	622.91
664.77	618.86
665.11	614.61
665.45	610.45
665.79	606.31
666.13	602.23
666.47	598.16
666.81	593.97
667.15	589.80
667.49	585.75
667.83	581.90
668.17	578.02
668.51	573.96
668.85	569.88
669.19	565.92
669.53	562.10
669.87	558.25
670.21	554.59
670.55	550.87
670.89	547.41
671.23	544.00
671.57	540.49
671.91	536.93
672.25	533.44
672.58	529.97
672.92	526.60
673.26	523.42
673.60	520.25
673.94	517.17
674.28	514.22
674.62	511.36
674.96	508.33
675.30	505.39
675.64	502.43
675.97	499.74
676.31	496.88
676.65	493.97
676.99	491.19
677.33	488.29
677.67	485.54
678.01	482.50
678.34	479.54
678.68	476.65
679.02	473.84
679.36	471.02
679.70	468.28
680.04	465.50
680.37	462.62
680.71	459.82
681.05	457.23
681.39	454.50
681.73	451.77
682.06	449.22
682.40	446.68
682.74	444.13
683.08	441.47
683.42	438.85
683.75	436.34
684.09	433.77
684.43	431.32
684.77	428.81
685.10	426.44
685.44	424.04
685.78	421.77
686.12	419.46
686.45	417.24
686.79	414.90
687.13	412.75
687.46	410.61
687.80	408.46
688.14	406.16
688.48	404.15
688.81	401.98
689.15	399.84
689.49	397.65
689.82	395.56
690.16	393.49
690.50	391.56
690.83	389.64
691.17	387.69
691.51	385.81
691.84	384.02
692.18	382.11
692.52	380.20
692.85	378.27
693.19	376.46
693.52	374.57
693.86	372.76
694.20	370.92
694.53	369.16
694.87	367.28
695.21	365.52
695.54	363.67
695.88	361.93
696.21	360.20
696.55	358.55
696.88	356.88
697.22	355.18
697.56	353.57
697.89	351.91
698.23	350.34
698.56	348.71
698.90	347.11
699.23	345.53
699.57	343.96
699.90	342.41
700.24	340.82
700.58	339.34
700.91	337.86
701.25	336.40
701.58	335.03
701.92	333.72
702.25	332.41
702.59	331.05
702.92	329.72
703.26	328.46
703.59	327.19
703.93	326.04
704.26	324.87
704.60	323.61
704.93	322.37
705.26	321.13
705.60	319.94
705.93	318.80
706.27	317.67
706.60	316.61
706.94	315.55
707.27	314.46
707.61	313.39
707.94	312.33
708.27	311.27
708.61	310.20
708.94	309.13
709.28	308.10
709.61	307.10
709.94	306.13
710.28	305.08
710.61	304.08
710.95	302.98
711.28	302.01
711.61	301.06
711.95	300.11
712.28	299.14
712.61	298.20
712.95	297.21
713.28	296.35
713.61	295.47
713.95	294.58
714.28	293.73
714.61	292.85
714.95	291.99
715.28	291.12
715.61	290.19
715.95	289.39
716.28	288.50
716.61	287.68
716.95	286.86
717.28	286.08
717.61	285.29
717.94	284.54
718.28	283.74
718.61	282.99
718.94	282.28
719.27	281.64
719.61	280.95
719.94	280.30
720.27	279.58
720.60	278.88
720.94	278.23
721.27	277.61
721.60	277.06
721.93	276.47
722.27	275.90
722.60	275.35
722.93	274.73
723.26	274.20
723.59	273.64
723.93	273.08
724.26	272.55
724.59	271.99
724.92	271.45
725.25	270.94
725.59	270.40
725.92	269.88
726.25	269.34
726.58	268.84
726.91	268.31
727.24	267.87
727.57	267.38
727.91	266.85
728.24	266.35
728.57	265.81
728.90	265.36
729.23	264.87
729.56	264.46
729.89	264.00
730.22	263.52
730.55	263.05
730.89	262.61
731.22	262.14
731.55	261.68
731.88	261.27
732.21	260.86
732.54	260.44
732.87	260.02
733.20	259.64
733.53	259.26
733.86	258.88
734.19	258.46
734.52	258.10
734.85	257.83
735.18	257.44
735.51	257.12
735.84	256.74
736.17	256.39
736.50	255.99
736.83	255.80
737.16	255.46
737.49	255.16
737.82	254.81
738.15	254.51
738.48	254.22
738.81	253.87
739.14	253.55
739.47	253.26
739.80	252.98
740.13	252.68
740.46	252.36
740.79	252.06
741.12	251.74
741.45	251.42
741.78	251.07
742.11	250.78
742.44	250.42
742.77	250.13
743.10	249.85
743.43	249.59
743.75	249.19
744.08	249.08
744.41	248.80
744.74	248.59
745.07	248.29
745.40	248.06
745.73	247.85
746.06	247.58
746.39	247.33
746.71	247.06
747.04	246.78
747.37	246.51
747.70	246.28
748.03	246.08
748.36	245.87
748.68	245.63
749.01	245.43
749.34	245.25
749.67	245.03
750.00	244.82
750.33	244.62
750.65	244.40
750.98	244.01
751.31	243.78
751.64	243.54
751.97	243.38
752.29	243.13
752.62	242.87
752.95	242.66
753.28	242.44
753.60	242.25
753.93	242.05
754.26	241.87
754.59	241.63
754.91	241.42
755.24	241.21
755.57	241.03
755.90	240.85
756.22	240.62
756.55	240.41
756.88	240.19
757.20	239.99
757.53	239.80
757.86	239.63
758.19	239.46
758.51	239.26
758.84	239.04
759.17	238.91
759.49	238.78
759.82	238.70
760.15	238.53
760.47	238.37
760.80	238.17
761.13	238.04
761.45	237.91
761.78	237.75
762.11	237.61
762.43	237.46
762.76	237.30
763.08	237.25
763.41	237.09
763.74	236.98
764.06	236.85
764.39	236.72
764.71	236.61
765.04	236.46
765.37	236.36
765.69	236.24
766.02	236.11
766.34	235.92
766.67	235.74
767.00	235.66
767.32	235.57
767.65	235.54
767.97	235.41
768.30	235.30
768.62	235.17
768.95	235.03
769.27	234.90
769.60	234.77
769.92	234.60
770.25	234.50
770.57	234.37
770.90	234.24
771.22	234.16
771.55	234.07
771.87	233.99
772.20	233.87
772.52	233.85
772.85	233.82
773.17	233.74
773.50	233.58
773.82	233.48
774.15	233.34
774.47	233.16
774.80	233.09
775.12	232.95
775.45	232.91
775.77	232.85
776.09	232.79
776.42	232.76
776.74	232.68
777.07	232.61
777.39	232.54
777.72	232.49
778.04	232.40
778.36	232.32
778.69	232.25
779.01	232.21
779.33	232.05
779.66	231.89
779.98	231.83
780.31	231.81
780.63	231.78
780.95	231.76
781.28	231.72
781.60	231.63
781.92	231.61
782.25	231.51
782.57	231.42
782.89	231.34
783.22	231.25
783.54	231.15
783.86	231.11
784.19	231.05
784.51	231.02
784.83	230.93
785.16	230.85
785.48	230.80
785.80	230.75
786.12	230.73
786.45	230.72
786.77	230.69
787.09	230.65
787.42	230.54
787.74	230.48
788.06	230.42
788.38	230.40
788.71	230.33
789.03	230.35
789.35	230.35
789.67	230.31
789.99	230.25
790.32	230.22
790.64	230.21
790.96	230.25
791.28	230.16
791.61	230.14
791.93	230.15
792.25	230.12
792.57	230.10
792.89	230.02
793.21	229.96
793.54	229.92
793.86	229.88
794.18	229.83
794.50	229.81
794.82	229.78
795.14	229.75
795.47	229.73
795.79	229.65
796.11	229.59
796.43	229.54
796.75	229.52
797.07	229.48
797.39	229.42
797.71	229.33
798.04	229.31
798.36	229.29
798.68	229.26
799.00	229.21
799.32	229.15
799.64	229.13
799.96	229.12
800.28	229.10
800.60	229.04
800.92	229.03
801.24	228.99
801.56	228.99
801.89	228.97
802.21	228.91
802.53	228.87
802.85	228.85
803.17	228.85
803.49	228.80
803.81	228.76
804.13	228.72
804.45	228.68
804.77	228.64
805.09	228.60
805.41	228.51
805.73	228.45
806.05	228.42
806.37	228.39
806.69	228.33
807.01	228.27
807.33	228.26
807.65	228.21
807.97	228.22
808.28	228.14
808.60	228.08
808.92	228.07
809.24	228.10
809.56	228.04
809.88	227.98
810.20	227.96
810.52	227.95
810.84	227.91
811.16	227.87
811.48	227.85
811.80	227.84
812.12	227.87
812.43	227.90
812.75	227.86
813.07	227.83
813.39	227.79
813.71	227.77
814.03	227.76
814.35	227.73
814.67	227.67
814.98	227.62
815.30	227.60
815.62	227.58
815.94	227.51
816.26	227.53
816.58	227.50
816.89	227.51
817.21	227.50
817.53	227.48
817.85	227.47
818.17	227.46
818.48	227.42
818.80	227.42
819.12	227.38
819.44	227.39
819.76	227.36
820.07	227.37
820.39	227.38
820.71	227.37
821.03	227.35
821.34	227.34
821.66	227.38
821.98	227.37
822.30	227.36
822.61	227.39
822.93	227.36
823.25	227.34
823.57	227.34
823.88	227.37
824.20	227.36
824.52	227.36
824.83	227.34
825.15	227.32
825.47	227.30
825.79	227.31
826.10	227.28
826.42	227.28
826.74	227.29
827.05	227.25
827.37	227.25
827.69	227.27
828.00	227.24
828.32	227.26
828.64	227.25
828.95	227.31
829.27	227.27
829.58	227.29
829.90	227.31
830.22	227.31
830.53	227.29
830.85	227.29
831.17	227.29
831.48	227.25
831.80	227.23
832.11	227.22
832.43	227.21
832.75	227.22
833.06	227.26
833.38	227.24
833.69	227.22
834.01	227.19
834.32	227.18
834.64	227.21
834.96	227.16
835.27	227.18
835.59	227.12
835.90	227.12
836.22	227.08
836.53	227.05
836.85	227.04
837.16	227.10
837.48	227.09
837.79	227.07
838.11	227.08
838.42	227.13
838.74	227.11
839.05	227.06
839.37	227.03
839.68	226.96
840.00	226.95
840.31	226.96
840.63	226.97
840.94	226.94
841.26	226.89
841.57	226.92
841.88	226.90
842.20	226.90
842.51	226.85
842.83	226.85
843.14	226.94
843.46	226.92
843.77	226.85
844.08	226.85
844.40	226.81
844.71	226.84
845.03	226.78
845.34	226.75
845.65	226.75
845.97	226.75
846.28	226.78
846.60	226.75
846.91	226.69
847.22	226.64
847.54	226.65
847.85	226.65
848.16	226.63
848.48	226.59
848.79	226.61
849.10	226.64
849.42	226.62
849.73	226.48
850.04	226.46
850.36	226.40
850.67	226.39
850.98	226.41
851.30	226.37
851.61	226.37
851.92	226.41
852.23	226.45
852.55	226.45
852.86	226.43
853.17	226.42
853.49	226.49
853.80	226.49
854.11	226.49
854.42	226.47
854.74	226.44
855.05	226.41
855.36	226.35
855.67	226.32
855.99	226.33
856.30	226.47
856.61	226.44
856.92	226.45
857.23	226.42
857.55	226.37
857.86	226.33
858.17	226.32
858.48	226.24
858.79	226.21
859.11	226.23
859.42	226.19
859.73	226.17
860.04	226.18
860.35	226.14
860.66	226.13
860.98	226.15
861.29	226.15
861.60	226.17
861.91	226.18
862.22	226.17
862.53	226.15
862.84	226.03
863.16	226.07
863.47	226.06
863.78	226.07
864.09	226.10
864.40	226.17
864.71	226.18
865.02	226.21
865.33	226.20
865.64	226.15
865.95	226.21
866.27	226.29
866.58	226.23
866.89	226.30
867.20	226.29
867.51	226.27
867.82	226.26
868.13	226.30
868.44	226.31
868.75	226.34
869.06	226.37
869.37	226.40
869.68	226.35
869.99	226.37
870.30	226.40
870.61	226.41
870.92	226.38
871.23	226.39
871.54	226.42
871.85	226.43
872.16	226.46
872.47	226.42
872.78	226.37
873.09	226.40
873.40	226.38
873.71	226.39
874.02	226.41
874.33	226.40
874.64	226.35
874.95	226.34
875.26	226.32
875.56	226.31
875.87	226.30
876.18	226.33
876.49	226.41
876.80	226.38
877.11	226.35
877.42	226.35
877.73	226.34
878.04	226.32
878.35	226.35
878.66	226.32
878.96	226.32
879.27	226.31
879.58	226.31
879.89	226.29
880.20	226.32
880.51	226.27
880.82	226.30
881.12	226.33
881.43	226.33
881.74	226.31
882.05	226.27
882.36	226.26
882.67	226.25
882.97	226.17
883.28	226.16
883.59	226.17
883.90	226.15
884.21	226.14
884.51	226.12
884.82	226.07
885.13	226.11
885.44	226.10
885.74	226.09
886.05	226.08
886.36	226.09
886.67	226.03
886.98	226.11
887.28	226.12
887.59	226.10
887.90	226.11
888.20	226.10
888.51	226.14
888.82	226.14
889.13	226.14
889.43	226.19
889.74	226.18
890.05	226.18
890.35	226.18
890.66	226.15
890.97	226.15
891.28	226.15
891.58	226.10
891.89	226.08
892.20	226.05
892.50	226.01
892.81	226.00
893.12	225.99
893.42	225.94
893.73	225.90
894.04	225.90
894.34	225.90
894.65	225.90
894.95	225.87
895.26	225.87
895.57	225.90
895.87	225.81
896.18	225.80
896.48	225.78
896.79	225.79
897.10	225.86
897.40	225.89
897.71	225.89
898.01	225.90
898.32	225.94
898.63	225.94
898.93	225.97
899.24	225.96
899.54	225.97
899.85	225.95
900.15	225.97
900.46	225.96
900.76	225.96
901.07	225.94
901.38	225.96
901.68	225.96
901.99	225.93
902.29	225.93
902.60	225.97
902.90	225.97
903.21	225.96
903.51	225.93
903.82	225.95
904.12	225.96
904.43	225.97
904.73	225.96
905.03	225.96
905.34	226.03
905.64	226.01
905.95	226.04
906.25	226.06
906.56	226.04
906.86	226.04
907.17	226.01
907.47	226.03
907.77	226.03
908.08	226.01
908.38	226.01
908.69	226.02
908.99	226.02
909.30	226.03
909.60	226.04
909.90	226.04
910.21	225.98
910.51	225.96
910.81	225.94
911.12	225.95
911.42	225.97
911.73	225.90
912.03	225.94
912.33	225.94
912.64	225.94
912.94	225.97
913.24	225.95
913.55	225.99
913.85	225.99
914.15	225.99
914.46	226.00
914.76	226.00
915.06	226.00
915.37	225.97
915.67	225.96
915.97	225.97
916.27	225.97
916.58	225.98
916.88	225.99
917.18	225.99
917.49	226.03
917.79	226.04
918.09	226.07
918.39	226.10
918.70	226.10
919.00	226.11
919.30	226.14
919.60	226.15
919.91	226.14
920.21	226.13
920.51	226.12
920.81	226.09
921.12	226.13
921.42	226.11
921.72	226.12
922.02	226.12
922.32	226.12
922.63	226.11
922.93	226.17
923.23	226.18
923.53	226.15
923.83	226.11
924.13	226.10
924.44	226.07
924.74	226.09
925.04	226.11
925.34	226.10
925.64	226.04
925.94	226.02
926.24	226.06
926.55	226.04
926.85	226.04
927.15	226.04
927.45	226.02
927.75	226.01
928.05	226.01
928.35	226.03
928.65	226.05
928.95	226.02
929.26	225.95
929.56	225.97
929.86	225.99
930.16	225.95
930.46	225.94
930.76	225.95
931.06	225.86
931.36	225.79
931.66	225.79
931.96	225.80
932.26	225.79
932.56	225.73
932.86	225.73
933.16	225.75
933.46	225.77
933.76	225.77
934.06	225.80
934.36	225.84
934.66	225.82
934.96	225.79
935.26	225.81
935.56	225.81
935.86	225.77
936.16	225.77
936.46	225.77
936.76	225.75
937.06	225.74
937.36	225.76
937.66	225.76
937.96	225.77
938.26	225.75
938.56	225.77
938.86	225.80
939.16	225.84
939.46	225.84
939.76	225.81
940.06	225.82
940.35	225.79
940.65	225.75
940.95	225.76
941.25	225.77
941.55	225.78
941.85	225.80
942.15	225.82
942.45	225.85
942.75	225.86
943.04	225.88
943.34	225.90
943.64	225.90
943.94	225.91
944.24	225.89
944.54	225.89
944.84	225.91
945.13	225.87
945.43	225.86
945.73	225.86
946.03	225.86
946.33	225.83
946.62	225.83
946.92	225.82
947.22	225.83
947.52	225.83
947.82	225.85
948.11	225.81
948.41	225.82
948.71	225.80
949.01	225.79
949.31	225.79
949.60	225.77
949.90	225.79
950.20	225.79
950.50	225.77
950.79	225.82
951.09	225.79
951.39	225.82
951.69	225.78
951.98	225.78
952.28	225.82
952.58	225.84
952.87	225.82
953.17	225.82
953.47	225.82
953.76	225.82
954.06	225.78
954.36	225.79
954.66	225.77
954.95	225.76
955.25	225.78
955.55	225.77
955.84	225.79
956.14	225.78
956.44	225.79
956.73	225.79
957.03	225.77
957.32	225.77
957.62	225.73
957.92	225.79
958.21	225.80
958.51	225.89
958.81	225.90
959.10	225.91
959.40	225.96
959.69	225.98
959.99	225.97
960.29	226.02
960.58	226.02
960.88	226.07
961.17	226.07
961.47	226.05
961.76	226.07
962.06	226.09
962.36	226.08
962.65	226.10
962.95	226.12
963.24	226.10
963.54	226.12
963.83	226.15
964.13	226.13
964.42	226.10
964.72	226.01
965.01	225.99
965.31	226.00
965.60	225.97
965.90	226.02
966.19	225.99
966.49	225.94
966.78	225.93
967.08	225.92
967.37	225.90
967.67	225.87
967.96	225.87
968.26	225.84
968.55	225.86
968.85	225.83
969.14	225.80
969.43	225.80
969.73	225.79
970.02	225.80
970.32	225.80
970.61	225.79
970.91	225.76
971.20	225.74
971.49	225.73
971.79	225.72
972.08	225.65
972.38	225.66
972.67	225.68
972.96	225.70
973.26	225.66
973.55	225.73
973.85	225.76
974.14	225.78
974.43	225.80
974.73	225.78
975.02	225.81
975.31	225.82
975.61	225.83
975.90	225.81
976.19	225.80
976.49	225.81
976.78	225.80
977.07	225.80
977.37	225.78
977.66	225.80
977.95	225.79
978.24	225.80
978.54	225.83
978.83	225.83
979.12	225.80
979.42	225.80
979.71	225.73
980.00	225.72
980.29	225.71
980.59	225.71
980.88	225.74
981.17	225.68
981.46	225.70
981.76	225.69
982.05	225.72
982.34	225.71
982.63	225.72
982.93	225.72
983.22	225.78
983.51	225.80
983.80	225.80
984.09	225.81
984.39	225.80
984.68	225.77
984.97	225.78
985.26	225.81
985.55	225.82
985.85	225.85
986.14	225.88
986.43	225.89
986.72	225.87
987.01	225.82
987.30	225.86
987.59	225.85
987.89	225.87
988.18	225.86
988.47	225.86
988.76	225.87
989.05	225.88
989.34	225.85
989.63	225.89
989.92	225.88
990.22	225.86
990.51	225.87
990.80	225.88
991.09	225.90
991.38	225.90
991.67	225.91
991.96	225.87
992.25	225.86
992.54	225.84
992.83	225.81
993.12	225.82
993.41	225.81
993.70	225.82
993.99	225.83
994.28	225.82
994.58	225.83
994.87	225.80
995.16	225.75
995.45	225.76
995.74	225.72
996.03	225.74
996.32	225.77
996.61	225.78
996.90	225.78
997.19	225.77
997.48	225.78
997.77	225.76
998.06	225.79
998.34	225.79
998.63	225.78
998.92	225.82
999.21	225.83
999.50	225.87
999.79	225.87
1000.08	225.85
1000.37	225.86
1000.66	225.85
1000.95	225.89
1001.24	225.91
1001.53	225.92
1001.82	225.93
1002.11	225.91
1002.40	225.91
1002.68	225.95
1002.97	226.01
1003.26	225.97
1003.55	225.95
1003.84	225.95
1004.13	225.99
1004.42	225.98
1004.71	225.99
1004.99	225.98
1005.28	225.99
1005.57	225.94
1005.86	225.90
1006.15	225.88
1006.44	225.86
1006.72	225.87
1007.01	225.85
1007.30	225.87
1007.59	225.83
1007.88	225.82
1008.17	225.80
1008.45	225.75
1008.74	225.70
1009.03	225.65
1009.32	225.65
1009.60	225.62
1009.89	225.61
1010.18	225.57
1010.47	225.54
1010.76	225.52
1011.04	225.51
1011.33	225.48
1011.62	225.51
1011.91	225.54
1012.19	225.56
1012.48	225.57
1012.77	225.55
1013.05	225.59
1013.34	225.59
1013.63	225.57
1013.92	225.58
1014.20	225.56
1014.49	225.60
1014.78	225.57
1015.06	225.55
1015.35	225.60
1015.64	225.63
1015.92	225.65
1016.21	225.65
1016.50	225.67
1016.78	225.70
1017.07	225.68
1017.36	225.69
1017.64	225.67
1017.93	225.67
1018.22	225.70
1018.50	225.69
1018.79	225.67
1019.08	225.62
1019.36	225.62
1019.65	225.64
1019.93	225.66
1020.22	225.70
1020.51	225.71
1020.79	225.70
1021.08	226.19
1021.36	225.21
1021.65	225.22
1021.94	225.66
1022.22	225.85
1022.51	225.60
1022.79	226.07
1023.08	225.90
1023.36	226.22
1023.65	224.95
>>>>>End Processed Spectral Data<<<<<
