SpectraSuite Data File
++++++++++++++++++++++++++++++++++++
Date: Fri Feb 01 16:18:59 EST 2013
User: group
Dark Spectrum Present: No
Reference Spectrum Present: No
Number of Sampled Component Spectra: 1
Spectrometers: USB2E7196
Integration Time (usec): 35000 (USB2E7196)
Spectra Averaged: 100 (USB2E7196)
Boxcar Smoothing: 10 (USB2E7196)
Correct for Electrical Dark: No (USB2E7196)
Strobe/Lamp Enabled: No (USB2E7196)
Correct for Detector Non-linearity: No (USB2E7196)
Correct for Stray Light: No (USB2E7196)
Number of Pixels in Processed Spectrum: 2048
>>>>>Begin Processed Spectral Data<<<<<
339.09	0.00
339.48	214.32
339.86	215.61
340.24	217.12
340.63	218.52
341.01	220.99
341.39	220.80
341.78	221.64
342.16	223.16
342.54	223.79
342.93	212.33
343.31	223.07
343.69	223.58
344.07	224.04
344.46	224.44
344.84	224.80
345.22	225.03
345.60	225.26
345.99	225.48
346.37	225.62
346.75	225.71
347.13	225.76
347.52	225.85
347.90	225.93
348.28	225.94
348.66	225.98
349.05	225.98
349.43	226.01
349.81	226.04
350.19	226.11
350.57	226.17
350.96	226.24
351.34	226.31
351.72	226.42
352.10	226.50
352.48	226.56
352.87	226.65
353.25	226.72
353.63	226.80
354.01	226.88
354.39	226.97
354.77	227.04
355.15	227.19
355.54	227.24
355.92	227.29
356.30	227.38
356.68	227.52
357.06	227.57
357.44	227.65
357.82	227.72
358.20	227.80
358.58	227.84
358.97	227.89
359.35	227.97
359.73	228.03
360.11	228.10
360.49	228.16
360.87	228.15
361.25	228.21
361.63	228.29
362.01	228.32
362.39	228.32
362.77	228.40
363.15	228.39
363.53	228.43
363.91	228.42
364.29	228.44
364.67	228.37
365.05	228.42
365.43	228.42
365.81	228.49
366.19	228.55
366.57	228.60
366.95	228.58
367.33	228.57
367.71	228.56
368.09	228.59
368.47	228.59
368.85	228.61
369.23	228.64
369.61	228.60
369.99	228.61
370.37	228.58
370.75	228.60
371.13	228.54
371.51	228.51
371.89	228.51
372.27	228.46
372.65	228.44
373.03	228.36
373.41	228.34
373.78	228.22
374.16	228.13
374.54	228.08
374.92	228.06
375.30	227.98
375.68	227.91
376.06	227.81
376.44	227.73
376.82	227.64
377.19	227.55
377.57	227.50
377.95	227.39
378.33	227.34
378.71	227.19
379.09	227.13
379.47	227.05
379.84	226.99
380.22	226.93
380.60	226.81
380.98	226.76
381.36	226.70
381.73	226.65
382.11	226.59
382.49	226.50
382.87	226.41
383.25	226.37
383.62	226.44
384.00	226.37
384.38	226.34
384.76	226.35
385.13	226.35
385.51	226.28
385.89	226.19
386.27	226.15
386.64	226.12
387.02	226.08
387.40	226.06
387.78	226.01
388.15	225.92
388.53	225.91
388.91	225.87
389.29	225.78
389.66	225.77
390.04	225.75
390.42	225.74
390.79	225.73
391.17	225.71
391.55	225.55
391.92	225.56
392.30	225.54
392.68	225.49
393.05	225.46
393.43	225.45
393.81	225.50
394.18	225.49
394.56	225.49
394.94	225.52
395.31	225.49
395.69	225.52
396.06	225.59
396.44	225.62
396.82	225.65
397.19	225.74
397.57	225.77
397.95	225.78
398.32	225.81
398.70	225.85
399.07	225.94
399.45	225.99
399.82	226.03
400.20	226.08
400.58	226.14
400.95	226.18
401.33	226.26
401.70	226.40
402.08	226.50
402.45	226.59
402.83	226.69
403.20	226.79
403.58	226.90
403.95	227.02
404.33	227.17
404.71	227.31
405.08	227.49
405.46	227.61
405.83	227.76
406.21	227.92
406.58	228.12
406.96	228.23
407.33	228.41
407.70	228.59
408.08	228.89
408.45	229.10
408.83	229.35
409.20	229.55
409.58	229.74
409.95	229.99
410.33	230.25
410.70	230.48
411.08	230.80
411.45	231.11
411.82	231.39
412.20	231.73
412.57	232.14
412.95	232.42
413.32	232.81
413.69	233.23
414.07	233.64
414.44	234.05
414.82	234.52
415.19	235.08
415.56	235.64
415.94	236.16
416.31	236.78
416.68	237.39
417.06	238.14
417.43	238.84
417.81	239.59
418.18	240.38
418.55	241.26
418.93	242.09
419.30	242.95
419.67	243.92
420.04	244.86
420.42	245.85
420.79	247.06
421.16	248.26
421.54	249.43
421.91	250.65
422.28	251.93
422.66	253.29
423.03	254.60
423.40	255.91
423.77	257.32
424.15	258.76
424.52	260.25
424.89	261.83
425.26	263.40
425.64	264.86
426.01	266.47
426.38	268.10
426.75	269.79
427.13	271.52
427.50	273.31
427.87	275.19
428.24	277.03
428.61	278.74
428.99	280.67
429.36	282.81
429.73	284.90
430.10	286.96
430.47	289.01
430.85	291.11
431.22	293.38
431.59	295.76
431.96	298.02
432.33	300.52
432.70	302.91
433.08	305.73
433.45	308.33
433.82	310.93
434.19	313.78
434.56	316.59
434.93	319.26
435.30	321.88
435.68	324.76
436.05	327.57
436.42	330.40
436.79	332.91
437.16	335.55
437.53	338.37
437.90	341.16
438.27	343.90
438.64	346.74
439.01	349.32
439.38	351.54
439.75	353.71
440.13	356.20
440.50	358.53
440.87	360.33
441.24	362.24
441.61	364.36
441.98	365.88
442.35	367.67
442.72	369.50
443.09	371.29
443.46	372.28
443.83	372.88
444.20	373.40
444.57	374.19
444.94	374.45
445.31	374.78
445.68	375.12
446.05	375.17
446.42	374.76
446.79	374.35
447.16	373.89
447.53	373.53
447.90	372.36
448.27	371.21
448.64	369.62
449.01	368.53
449.37	366.56
449.74	364.66
450.11	362.42
450.48	359.95
450.85	357.44
451.22	355.29
451.59	353.28
451.96	351.37
452.33	348.78
452.70	346.45
453.07	343.62
453.43	340.68
453.80	337.93
454.17	335.27
454.54	332.70
454.91	329.97
455.28	327.29
455.65	324.79
456.02	322.34
456.38	320.20
456.75	317.56
457.12	315.32
457.49	313.10
457.86	310.95
458.23	309.13
458.59	307.10
458.96	305.02
459.33	303.16
459.70	301.23
460.07	299.71
460.43	298.00
460.80	296.40
461.17	294.98
461.54	293.47
461.91	292.04
462.27	290.59
462.64	289.36
463.01	288.00
463.38	286.69
463.74	285.32
464.11	284.15
464.48	283.13
464.85	282.05
465.21	281.21
465.58	280.25
465.95	279.17
466.32	278.27
466.68	277.39
467.05	276.48
467.42	275.61
467.78	274.72
468.15	273.85
468.52	273.16
468.88	272.32
469.25	271.58
469.62	270.97
469.98	270.33
470.35	269.73
470.72	269.16
471.08	268.57
471.45	268.04
471.82	267.57
472.18	266.95
472.55	266.51
472.92	265.99
473.28	265.55
473.65	265.11
474.02	264.68
474.38	264.35
474.75	264.04
475.11	263.69
475.48	263.44
475.85	263.23
476.21	263.01
476.58	262.85
476.94	262.72
477.31	262.54
477.67	262.42
478.04	262.30
478.41	262.25
478.77	262.30
479.14	262.22
479.50	262.22
479.87	262.28
480.23	262.38
480.60	262.48
480.96	262.60
481.33	262.83
481.69	263.03
482.06	263.22
482.42	263.44
482.79	263.72
483.15	264.05
483.52	264.45
483.88	264.83
484.25	265.23
484.61	265.67
484.98	266.14
485.34	266.72
485.71	267.32
486.07	267.94
486.44	268.53
486.80	269.30
487.17	270.03
487.53	270.89
487.90	271.72
488.26	272.65
488.62	273.63
488.99	274.57
489.35	275.64
489.72	276.76
490.08	277.96
490.44	279.19
490.81	280.51
491.17	281.85
491.54	283.33
491.90	284.86
492.26	286.48
492.63	288.24
492.99	290.01
493.36	291.91
493.72	293.89
494.08	295.97
494.45	298.21
494.81	300.56
495.17	302.98
495.54	305.56
495.90	308.24
496.26	311.06
496.63	314.00
496.99	317.13
497.35	320.41
497.72	323.81
498.08	327.32
498.44	330.98
498.80	334.91
499.17	338.91
499.53	343.07
499.89	347.44
500.26	351.93
500.62	356.59
500.98	361.54
501.34	366.67
501.71	372.06
502.07	377.47
502.43	383.10
502.79	388.91
503.16	394.97
503.52	401.20
503.88	407.56
504.24	414.20
504.60	421.02
504.97	428.12
505.33	435.45
505.69	443.19
506.05	450.98
506.41	458.85
506.78	466.98
507.14	475.49
507.50	484.22
507.86	493.28
508.22	502.49
508.59	511.67
508.95	521.18
509.31	530.91
509.67	541.07
510.03	551.38
510.39	562.00
510.75	572.84
511.12	583.85
511.48	595.19
511.84	606.65
512.20	618.18
512.56	630.13
512.92	642.29
513.28	654.66
513.64	667.17
514.00	679.94
514.37	692.97
514.73	706.01
515.09	719.03
515.45	732.31
515.81	745.93
516.17	760.02
516.53	774.18
516.89	788.35
517.25	802.51
517.61	816.88
517.97	831.29
518.33	845.60
518.69	860.40
519.05	875.41
519.41	890.64
519.77	906.23
520.13	921.65
520.49	937.00
520.85	952.36
521.21	968.09
521.57	984.32
521.93	999.96
522.29	1016.32
522.65	1032.54
523.01	1048.63
523.37	1064.62
523.73	1080.69
524.09	1096.74
524.45	1112.98
524.81	1129.49
525.17	1146.20
525.53	1163.11
525.89	1180.05
526.25	1196.75
526.61	1213.04
526.97	1229.75
527.33	1246.16
527.68	1262.79
528.04	1279.27
528.40	1295.83
528.76	1312.77
529.12	1329.24
529.48	1346.17
529.84	1362.04
530.20	1378.69
530.56	1395.74
530.91	1413.18
531.27	1429.89
531.63	1446.31
531.99	1462.95
532.35	1478.92
532.71	1494.86
533.07	1510.93
533.42	1526.78
533.78	1542.78
534.14	1559.04
534.50	1574.39
534.86	1590.20
535.21	1605.31
535.57	1621.21
535.93	1636.62
536.29	1651.36
536.65	1666.26
537.00	1680.91
537.36	1696.34
537.72	1710.85
538.08	1725.17
538.44	1738.78
538.79	1752.70
539.15	1766.30
539.51	1779.91
539.87	1794.30
540.22	1807.89
540.58	1821.71
540.94	1835.11
541.29	1848.00
541.65	1860.58
542.01	1873.63
542.37	1885.94
542.72	1898.35
543.08	1910.16
543.44	1922.62
543.79	1933.80
544.15	1944.77
544.51	1956.32
544.87	1967.17
545.22	1977.95
545.58	1988.18
545.94	1997.87
546.29	2007.66
546.65	2017.51
547.01	2026.69
547.36	2035.20
547.72	2043.75
548.07	2051.47
548.43	2059.42
548.79	2067.32
549.14	2074.85
549.50	2082.04
549.86	2089.55
550.21	2096.81
550.57	2103.82
550.92	2110.30
551.28	2117.34
551.64	2124.50
551.99	2130.93
552.35	2137.07
552.70	2143.08
553.06	2149.18
553.41	2155.59
553.77	2161.45
554.13	2167.53
554.48	2173.70
554.84	2179.29
555.19	2184.58
555.55	2189.79
555.90	2194.19
556.26	2199.17
556.61	2204.01
556.97	2208.45
557.32	2212.62
557.68	2216.74
558.03	2220.95
558.39	2224.58
558.74	2229.12
559.10	2233.01
559.45	2236.76
559.81	2241.01
560.16	2244.83
560.52	2247.94
560.87	2251.31
561.23	2254.05
561.58	2256.93
561.94	2259.48
562.29	2261.78
562.64	2264.37
563.00	2267.00
563.35	2270.58
563.71	2273.61
564.06	2276.80
564.42	2279.60
564.77	2282.26
565.12	2284.52
565.48	2286.53
565.83	2288.55
566.19	2290.01
566.54	2290.73
566.89	2291.92
567.25	2292.43
567.60	2293.77
567.96	2295.63
568.31	2296.43
568.66	2297.54
569.02	2298.13
569.37	2298.46
569.72	2299.22
570.08	2299.39
570.43	2299.48
570.78	2298.96
571.14	2297.54
571.49	2296.17
571.84	2295.95
572.20	2294.89
572.55	2293.88
572.90	2292.28
573.26	2290.92
573.61	2289.25
573.96	2287.71
574.31	2284.73
574.67	2281.97
575.02	2278.42
575.37	2274.88
575.72	2271.20
576.08	2268.04
576.43	2264.75
576.78	2261.08
577.13	2258.18
577.49	2255.15
577.84	2251.71
578.19	2248.17
578.54	2244.53
578.90	2240.27
579.25	2234.62
579.60	2229.63
579.95	2224.61
580.30	2219.72
580.66	2214.58
581.01	2209.74
581.36	2204.77
581.71	2200.75
582.06	2196.19
582.42	2191.68
582.77	2186.47
583.12	2182.03
583.47	2177.40
583.82	2172.58
584.17	2167.51
584.53	2161.98
584.88	2156.34
585.23	2150.57
585.58	2145.08
585.93	2139.69
586.28	2135.06
586.63	2130.15
586.98	2125.24
587.34	2120.65
587.69	2115.80
588.04	2110.53
588.39	2104.95
588.74	2098.60
589.09	2092.36
589.44	2085.77
589.79	2079.86
590.14	2074.31
590.49	2067.64
590.84	2061.23
591.19	2055.10
591.54	2048.60
591.89	2041.18
592.25	2034.54
592.60	2027.25
592.95	2019.61
593.30	2012.29
593.65	2004.70
594.00	1997.77
594.35	1990.45
594.70	1982.47
595.05	1975.18
595.40	1967.85
595.75	1960.22
596.10	1954.03
596.45	1947.41
596.80	1941.14
597.15	1934.62
597.50	1927.47
597.85	1921.25
598.19	1914.54
598.54	1907.52
598.89	1900.83
599.24	1895.05
599.59	1888.29
599.94	1882.33
600.29	1876.03
600.64	1869.52
600.99	1862.16
601.34	1855.22
601.69	1848.29
602.04	1841.38
602.39	1834.10
602.74	1827.42
603.08	1820.69
603.43	1814.01
603.78	1806.65
604.13	1799.46
604.48	1792.07
604.83	1785.37
605.18	1778.27
605.53	1770.36
605.87	1762.33
606.22	1755.22
606.57	1747.32
606.92	1740.02
607.27	1732.68
607.62	1725.74
607.96	1718.44
608.31	1711.75
608.66	1704.29
609.01	1696.75
609.36	1689.24
609.70	1681.27
610.05	1673.23
610.40	1665.56
610.75	1657.17
611.10	1649.58
611.44	1641.06
611.79	1633.11
612.14	1624.32
612.49	1615.17
612.83	1606.74
613.18	1598.66
613.53	1590.48
613.88	1581.79
614.22	1573.52
614.57	1564.98
614.92	1556.99
615.27	1549.33
615.61	1541.12
615.96	1532.97
616.31	1525.28
616.65	1517.92
617.00	1510.40
617.35	1502.70
617.70	1494.38
618.04	1485.88
618.39	1477.61
618.74	1470.18
619.08	1461.94
619.43	1454.28
619.78	1447.42
620.12	1440.28
620.47	1432.79
620.82	1424.75
621.16	1417.38
621.51	1409.75
621.85	1402.16
622.20	1393.56
622.55	1385.24
622.89	1377.33
623.24	1369.62
623.59	1362.29
623.93	1354.64
624.28	1347.52
624.62	1339.96
624.97	1332.83
625.32	1326.15
625.66	1319.08
626.01	1311.87
626.35	1304.38
626.70	1296.70
627.04	1288.92
627.39	1281.11
627.73	1273.64
628.08	1266.65
628.43	1259.33
628.77	1252.00
629.12	1244.38
629.46	1237.30
629.81	1229.92
630.15	1222.63
630.50	1215.29
630.84	1207.00
631.19	1199.11
631.53	1191.42
631.88	1183.88
632.22	1176.19
632.57	1168.81
632.91	1161.31
633.26	1153.89
633.60	1146.49
633.95	1139.48
634.29	1132.42
634.64	1125.70
634.98	1118.36
635.32	1111.18
635.67	1104.58
636.01	1097.92
636.36	1091.11
636.70	1084.51
637.05	1077.87
637.39	1071.40
637.73	1064.78
638.08	1058.77
638.42	1052.78
638.77	1046.32
639.11	1039.70
639.45	1033.26
639.80	1026.56
640.14	1020.14
640.49	1013.62
640.83	1007.28
641.17	1000.94
641.52	994.53
641.86	988.02
642.20	982.19
642.55	975.84
642.89	969.38
643.23	962.79
643.58	956.99
643.92	950.73
644.26	944.72
644.61	938.68
644.95	932.77
645.29	926.28
645.64	919.51
645.98	913.23
646.32	907.41
646.66	901.40
647.01	895.56
647.35	889.79
647.69	883.95
648.04	878.47
648.38	872.58
648.72	866.65
649.06	860.60
649.41	854.73
649.75	848.76
650.09	842.84
650.43	837.04
650.78	830.91
651.12	825.00
651.46	819.21
651.80	813.37
652.14	807.90
652.49	802.54
652.83	797.41
653.17	791.72
653.51	785.97
653.85	780.55
654.20	774.93
654.54	768.95
654.88	763.17
655.22	757.18
655.56	751.57
655.90	746.11
656.25	740.95
656.59	735.53
656.93	730.48
657.27	725.21
657.61	719.78
657.95	714.72
658.29	709.68
658.64	704.45
658.98	699.22
659.32	693.82
659.66	688.62
660.00	683.27
660.34	678.31
660.68	673.39
661.02	668.36
661.36	663.63
661.70	659.09
662.05	654.73
662.39	650.47
662.73	646.00
663.07	641.62
663.41	637.11
663.75	632.58
664.09	628.00
664.43	623.69
664.77	619.54
665.11	615.25
665.45	611.06
665.79	606.99
666.13	602.84
666.47	598.70
666.81	594.50
667.15	590.36
667.49	586.44
667.83	582.64
668.17	578.74
668.51	574.66
668.85	570.61
669.19	566.78
669.53	562.83
669.87	558.92
670.21	555.20
670.55	551.53
670.89	548.10
671.23	544.65
671.57	541.09
671.91	537.58
672.25	534.04
672.58	530.54
672.92	527.11
673.26	523.93
673.60	520.76
673.94	517.61
674.28	514.66
674.62	511.67
674.96	508.52
675.30	505.61
675.64	502.66
675.97	499.96
676.31	497.04
676.65	494.14
676.99	491.48
677.33	488.62
677.67	485.86
678.01	482.83
678.34	479.82
678.68	476.96
679.02	474.16
679.36	471.40
679.70	468.64
680.04	465.84
680.37	462.96
680.71	460.16
681.05	457.54
681.39	454.86
681.73	452.21
682.06	449.72
682.40	447.13
682.74	444.58
683.08	442.02
683.42	439.44
683.75	436.98
684.09	434.43
684.43	431.95
684.77	429.42
685.10	427.08
685.44	424.83
685.78	422.53
686.12	420.23
686.45	417.93
686.79	415.63
687.13	413.52
687.46	411.38
687.80	409.24
688.14	407.05
688.48	404.97
688.81	402.75
689.15	400.57
689.49	398.39
689.82	396.37
690.16	394.24
690.50	392.32
690.83	390.37
691.17	388.32
691.51	386.41
691.84	384.62
692.18	382.67
692.52	380.68
692.85	378.75
693.19	376.89
693.52	375.08
693.86	373.29
694.20	371.43
694.53	369.58
694.87	367.71
695.21	365.94
695.54	364.10
695.88	362.36
696.21	360.67
696.55	358.98
696.88	357.30
697.22	355.65
697.56	353.96
697.89	352.32
698.23	350.73
698.56	349.12
698.90	347.53
699.23	345.89
699.57	344.29
699.90	342.76
700.24	341.21
700.58	339.67
700.91	338.21
701.25	336.79
701.58	335.43
701.92	334.11
702.25	332.68
702.59	331.34
702.92	329.99
703.26	328.66
703.59	327.37
703.93	326.21
704.26	324.96
704.60	323.69
704.93	322.42
705.26	321.18
705.60	320.02
705.93	318.80
706.27	317.78
706.60	316.79
706.94	315.71
707.27	314.59
707.61	313.51
707.94	312.48
708.27	311.40
708.61	310.35
708.94	309.34
709.28	308.38
709.61	307.43
709.94	306.50
710.28	305.49
710.61	304.49
710.95	303.34
711.28	302.43
711.61	301.51
711.95	300.54
712.28	299.57
712.61	298.56
712.95	297.65
713.28	296.76
713.61	295.81
713.95	294.89
714.28	294.05
714.61	293.20
714.95	292.34
715.28	291.50
715.61	290.60
715.95	289.78
716.28	288.89
716.61	288.03
716.95	287.19
717.28	286.45
717.61	285.69
717.94	284.97
718.28	284.11
718.61	283.34
718.94	282.67
719.27	282.02
719.61	281.34
719.94	280.65
720.27	279.85
720.60	279.20
720.94	278.58
721.27	277.96
721.60	277.36
721.93	276.74
722.27	276.17
722.60	275.63
722.93	274.99
723.26	274.46
723.59	273.90
723.93	273.34
724.26	272.73
724.59	272.20
724.92	271.69
725.25	271.20
725.59	270.69
725.92	270.20
726.25	269.68
726.58	269.19
726.91	268.71
727.24	268.24
727.57	267.80
727.91	267.27
728.24	266.81
728.57	266.30
728.90	265.87
729.23	265.34
729.56	264.88
729.89	264.43
730.22	263.96
730.55	263.52
730.89	263.12
731.22	262.72
731.55	262.24
731.88	261.82
732.21	261.40
732.54	260.98
732.87	260.52
733.20	260.10
733.53	259.73
733.86	259.36
734.19	258.95
734.52	258.57
734.85	258.26
735.18	257.80
735.51	257.43
735.84	257.04
736.17	256.68
736.50	256.26
736.83	256.02
737.16	255.67
737.49	255.31
737.82	254.94
738.15	254.62
738.48	254.27
738.81	253.93
739.14	253.61
739.47	253.29
739.80	252.96
740.13	252.70
740.46	252.34
740.79	252.04
741.12	251.76
741.45	251.46
741.78	251.11
742.11	250.85
742.44	250.54
742.77	250.26
743.10	249.98
743.43	249.72
743.75	249.31
744.08	249.19
744.41	248.89
744.74	248.63
745.07	248.34
745.40	248.12
745.73	247.90
746.06	247.62
746.39	247.39
746.71	247.15
747.04	246.81
747.37	246.60
747.70	246.33
748.03	246.05
748.36	245.82
748.68	245.56
749.01	245.31
749.34	245.11
749.67	244.93
750.00	244.73
750.33	244.57
750.65	244.39
750.98	244.04
751.31	243.83
751.64	243.60
751.97	243.43
752.29	243.20
752.62	242.95
752.95	242.74
753.28	242.52
753.60	242.32
753.93	242.22
754.26	242.01
754.59	241.80
754.91	241.64
755.24	241.44
755.57	241.26
755.90	241.09
756.22	240.89
756.55	240.62
756.88	240.40
757.20	240.18
757.53	239.98
757.86	239.81
758.19	239.68
758.51	239.52
758.84	239.32
759.17	239.18
759.49	239.03
759.82	238.91
760.15	238.77
760.47	238.62
760.80	238.44
761.13	238.32
761.45	238.14
761.78	238.01
762.11	237.87
762.43	237.72
762.76	237.58
763.08	237.44
763.41	237.38
763.74	237.27
764.06	237.12
764.39	236.99
764.71	236.85
765.04	236.70
765.37	236.54
765.69	236.40
766.02	236.26
766.34	236.11
766.67	235.94
767.00	235.83
767.32	235.74
767.65	235.66
767.97	235.55
768.30	235.41
768.62	235.29
768.95	235.15
769.27	235.05
769.60	234.98
769.92	234.86
770.25	234.70
770.57	234.57
770.90	234.46
771.22	234.33
771.55	234.25
771.87	234.17
772.20	234.10
772.52	234.06
772.85	234.09
773.17	234.04
773.50	233.93
773.82	233.81
774.15	233.71
774.47	233.56
774.80	233.44
775.12	233.40
775.45	233.30
775.77	233.20
776.09	233.13
776.42	233.03
776.74	232.95
777.07	232.88
777.39	232.82
777.72	232.77
778.04	232.76
778.36	232.66
778.69	232.59
779.01	232.57
779.33	232.46
779.66	232.30
779.98	232.21
780.31	232.17
780.63	232.16
780.95	232.10
781.28	232.06
781.60	231.97
781.92	231.93
782.25	231.87
782.57	231.87
782.89	231.81
783.22	231.75
783.54	231.72
783.86	231.67
784.19	231.63
784.51	231.58
784.83	231.46
785.16	231.42
785.48	231.39
785.80	231.31
786.12	231.28
786.45	231.24
786.77	231.16
787.09	231.10
787.42	231.01
787.74	230.99
788.06	230.94
788.38	230.91
788.71	230.86
789.03	230.83
789.35	230.79
789.67	230.74
789.99	230.72
790.32	230.63
790.64	230.62
790.96	230.63
791.28	230.56
791.61	230.56
791.93	230.53
792.25	230.46
792.57	230.50
792.89	230.42
793.21	230.34
793.54	230.33
793.86	230.27
794.18	230.24
794.50	230.17
794.82	230.12
795.14	230.11
795.47	230.10
795.79	230.07
796.11	229.99
796.43	229.96
796.75	229.93
797.07	229.91
797.39	229.85
797.71	229.76
798.04	229.72
798.36	229.69
798.68	229.63
799.00	229.61
799.32	229.50
799.64	229.50
799.96	229.48
800.28	229.47
800.60	229.43
800.92	229.40
801.24	229.36
801.56	229.38
801.89	229.33
802.21	229.31
802.53	229.24
802.85	229.23
803.17	229.22
803.49	229.16
803.81	229.10
804.13	229.06
804.45	229.04
804.77	229.02
805.09	229.00
805.41	228.98
805.73	228.91
806.05	228.86
806.37	228.81
806.69	228.80
807.01	228.76
807.33	228.72
807.65	228.70
807.97	228.71
808.28	228.62
808.60	228.60
808.92	228.52
809.24	228.57
809.56	228.54
809.88	228.49
810.20	228.47
810.52	228.48
810.84	228.42
811.16	228.37
811.48	228.34
811.80	228.31
812.12	228.25
812.43	228.25
812.75	228.24
813.07	228.23
813.39	228.18
813.71	228.14
814.03	228.14
814.35	228.09
814.67	228.04
814.98	228.03
815.30	227.98
815.62	227.96
815.94	227.85
816.26	227.84
816.58	227.78
816.89	227.77
817.21	227.75
817.53	227.75
817.85	227.73
818.17	227.69
818.48	227.64
818.80	227.70
819.12	227.67
819.44	227.63
819.76	227.57
820.07	227.60
820.39	227.56
820.71	227.57
821.03	227.56
821.34	227.55
821.66	227.57
821.98	227.59
822.30	227.55
822.61	227.62
822.93	227.57
823.25	227.59
823.57	227.55
823.88	227.55
824.20	227.52
824.52	227.54
824.83	227.53
825.15	227.50
825.47	227.44
825.79	227.46
826.10	227.44
826.42	227.43
826.74	227.39
827.05	227.42
827.37	227.39
827.69	227.39
828.00	227.38
828.32	227.33
828.64	227.32
828.95	227.38
829.27	227.35
829.58	227.34
829.90	227.33
830.22	227.36
830.53	227.32
830.85	227.32
831.17	227.29
831.48	227.29
831.80	227.31
832.11	227.30
832.43	227.26
832.75	227.25
833.06	227.31
833.38	227.30
833.69	227.28
834.01	227.25
834.32	227.24
834.64	227.20
834.96	227.19
835.27	227.16
835.59	227.10
835.90	227.08
836.22	227.04
836.53	227.03
836.85	226.99
837.16	227.08
837.48	227.07
837.79	227.11
838.11	227.09
838.42	227.04
838.74	227.04
839.05	227.02
839.37	227.01
839.68	226.92
840.00	226.90
840.31	226.89
840.63	226.90
840.94	226.89
841.26	226.88
841.57	226.87
841.88	226.89
842.20	226.88
842.51	226.84
842.83	226.88
843.14	226.95
843.46	226.94
843.77	226.89
844.08	226.87
844.40	226.84
844.71	226.81
845.03	226.81
845.34	226.82
845.65	226.82
845.97	226.83
846.28	226.86
846.60	226.85
846.91	226.84
847.22	226.82
847.54	226.82
847.85	226.80
848.16	226.78
848.48	226.74
848.79	226.77
849.10	226.78
849.42	226.76
849.73	226.67
850.04	226.67
850.36	226.62
850.67	226.66
850.98	226.63
851.30	226.63
851.61	226.63
851.92	226.59
852.23	226.63
852.55	226.63
852.86	226.61
853.17	226.60
853.49	226.61
853.80	226.63
854.11	226.65
854.42	226.69
854.74	226.68
855.05	226.67
855.36	226.61
855.67	226.62
855.99	226.62
856.30	226.71
856.61	226.68
856.92	226.69
857.23	226.68
857.55	226.68
857.86	226.70
858.17	226.72
858.48	226.71
858.79	226.65
859.11	226.62
859.42	226.61
859.73	226.60
860.04	226.59
860.35	226.53
860.66	226.45
860.98	226.43
861.29	226.45
861.60	226.43
861.91	226.47
862.22	226.47
862.53	226.42
862.84	226.30
863.16	226.32
863.47	226.30
863.78	226.29
864.09	226.29
864.40	226.32
864.71	226.31
865.02	226.34
865.33	226.36
865.64	226.37
865.95	226.37
866.27	226.43
866.58	226.42
866.89	226.43
867.20	226.45
867.51	226.41
867.82	226.43
868.13	226.48
868.44	226.43
868.75	226.42
869.06	226.43
869.37	226.45
869.68	226.41
869.99	226.42
870.30	226.42
870.61	226.42
870.92	226.36
871.23	226.35
871.54	226.33
871.85	226.33
872.16	226.32
872.47	226.30
872.78	226.24
873.09	226.24
873.40	226.24
873.71	226.25
874.02	226.25
874.33	226.20
874.64	226.15
874.95	226.15
875.26	226.14
875.56	226.16
875.87	226.15
876.18	226.17
876.49	226.28
876.80	226.28
877.11	226.28
877.42	226.30
877.73	226.29
878.04	226.30
878.35	226.33
878.66	226.34
878.96	226.34
879.27	226.34
879.58	226.35
879.89	226.36
880.20	226.38
880.51	226.42
880.82	226.46
881.12	226.49
881.43	226.50
881.74	226.50
882.05	226.51
882.36	226.49
882.67	226.47
882.97	226.34
883.28	226.33
883.59	226.33
883.90	226.34
884.21	226.36
884.51	226.37
884.82	226.33
885.13	226.31
885.44	226.29
885.74	226.31
886.05	226.32
886.36	226.33
886.67	226.30
886.98	226.37
887.28	226.35
887.59	226.34
887.90	226.33
888.20	226.31
888.51	226.28
888.82	226.31
889.13	226.34
889.43	226.39
889.74	226.40
890.05	226.40
890.35	226.39
890.66	226.37
890.97	226.34
891.28	226.31
891.58	226.34
891.89	226.36
892.20	226.33
892.50	226.26
892.81	226.26
893.12	226.26
893.42	226.17
893.73	226.16
894.04	226.16
894.34	226.19
894.65	226.18
894.95	226.19
895.26	226.19
895.57	226.24
895.87	226.20
896.18	226.22
896.48	226.20
896.79	226.22
897.10	226.24
897.40	226.21
897.71	226.23
898.01	226.20
898.32	226.20
898.63	226.17
898.93	226.18
899.24	226.19
899.54	226.17
899.85	226.17
900.15	226.18
900.46	226.19
900.76	226.19
901.07	226.18
901.38	226.13
901.68	226.14
901.99	226.05
902.29	226.04
902.60	226.00
902.90	226.00
903.21	225.97
903.51	225.93
903.82	226.00
904.12	226.02
904.43	226.01
904.73	226.01
905.03	226.02
905.34	226.12
905.64	226.07
905.95	226.05
906.25	226.01
906.56	225.98
906.86	225.95
907.17	225.94
907.47	225.95
907.77	225.95
908.08	225.88
908.38	225.89
908.69	225.89
908.99	225.89
909.30	225.89
909.60	225.90
909.90	225.91
910.21	225.89
910.51	225.85
910.81	225.87
911.12	225.89
911.42	225.92
911.73	225.84
912.03	225.86
912.33	225.86
912.64	225.91
912.94	225.93
913.24	225.94
913.55	225.91
913.85	225.90
914.15	225.94
914.46	225.99
914.76	225.99
915.06	226.00
915.37	225.98
915.67	225.97
915.97	225.97
916.27	225.93
916.58	225.89
916.88	225.86
917.18	225.83
917.49	225.85
917.79	225.82
918.09	225.81
918.39	225.82
918.70	225.86
919.00	225.84
919.30	225.86
919.60	225.83
919.91	225.85
920.21	225.88
920.51	225.86
920.81	225.84
921.12	225.88
921.42	225.87
921.72	225.89
922.02	225.88
922.32	225.87
922.63	225.89
922.93	225.96
923.23	226.03
923.53	226.04
923.83	225.99
924.13	225.97
924.44	226.00
924.74	226.01
925.04	226.01
925.34	226.02
925.64	226.01
925.94	226.02
926.24	226.06
926.55	226.03
926.85	226.03
927.15	226.03
927.45	226.03
927.75	226.00
928.05	225.99
928.35	226.00
928.65	226.02
928.95	226.07
929.26	226.07
929.56	226.05
929.86	226.06
930.16	226.04
930.46	226.08
930.76	226.13
931.06	226.10
931.36	226.08
931.66	226.07
931.96	226.06
932.26	226.09
932.56	226.03
932.86	226.05
933.16	226.07
933.46	226.06
933.76	226.04
934.06	226.10
934.36	226.15
934.66	226.15
934.96	226.16
935.26	226.12
935.56	226.10
935.86	226.11
936.16	226.11
936.46	226.16
936.76	226.15
937.06	226.08
937.36	226.10
937.66	226.09
937.96	226.10
938.26	226.09
938.56	226.08
938.86	226.12
939.16	226.13
939.46	226.12
939.76	226.15
940.06	226.18
940.35	226.15
940.65	226.09
940.95	226.10
941.25	226.08
941.55	226.12
941.85	226.12
942.15	226.14
942.45	226.13
942.75	226.08
943.04	226.05
943.34	226.09
943.64	226.07
943.94	226.06
944.24	226.03
944.54	226.01
944.84	226.03
945.13	226.00
945.43	225.98
945.73	225.98
946.03	225.98
946.33	225.91
946.62	225.90
946.92	225.90
947.22	225.92
947.52	225.91
947.82	225.88
948.11	225.84
948.41	225.79
948.71	225.80
949.01	225.82
949.31	225.83
949.60	225.81
949.90	225.83
950.20	225.85
950.50	225.87
950.79	225.87
951.09	225.89
951.39	225.88
951.69	225.88
951.98	225.90
952.28	225.86
952.58	225.86
952.87	225.87
953.17	225.91
953.47	225.87
953.76	225.87
954.06	225.86
954.36	225.90
954.66	225.91
954.95	225.90
955.25	225.93
955.55	225.93
955.84	225.95
956.14	225.95
956.44	225.95
956.73	225.93
957.03	225.96
957.32	225.96
957.62	225.95
957.92	225.98
958.21	225.98
958.51	226.11
958.81	226.15
959.10	226.14
959.40	226.13
959.69	226.15
959.99	226.16
960.29	226.18
960.58	226.15
960.88	226.18
961.17	226.17
961.47	226.16
961.76	226.15
962.06	226.16
962.36	226.13
962.65	226.15
962.95	226.17
963.24	226.15
963.54	226.13
963.83	226.17
964.13	226.15
964.42	226.14
964.72	226.07
965.01	226.06
965.31	226.04
965.60	226.00
965.90	226.06
966.19	226.02
966.49	226.02
966.78	226.02
967.08	226.00
967.37	226.05
967.67	226.03
967.96	226.05
968.26	226.05
968.55	226.08
968.85	226.08
969.14	226.08
969.43	226.10
969.73	226.10
970.02	226.07
970.32	226.06
970.61	226.05
970.91	226.01
971.20	225.98
971.49	225.98
971.79	226.04
972.08	225.98
972.38	225.98
972.67	225.99
972.96	226.01
973.26	226.00
973.55	226.01
973.85	226.00
974.14	226.01
974.43	225.99
974.73	225.97
975.02	225.94
975.31	225.92
975.61	225.91
975.90	225.89
976.19	225.89
976.49	225.91
976.78	225.90
977.07	225.91
977.37	225.92
977.66	225.97
977.95	225.95
978.24	225.98
978.54	225.98
978.83	225.94
979.12	225.92
979.42	225.92
979.71	225.90
980.00	225.89
980.29	225.87
980.59	225.87
980.88	225.88
981.17	225.90
981.46	225.93
981.76	225.93
982.05	225.96
982.34	225.96
982.63	225.97
982.93	225.99
983.22	226.02
983.51	226.02
983.80	225.99
984.09	226.00
984.39	225.97
984.68	225.99
984.97	225.99
985.26	226.01
985.55	226.01
985.85	225.99
986.14	226.03
986.43	226.03
986.72	226.03
987.01	226.00
987.30	225.99
987.59	226.01
987.89	226.06
988.18	226.03
988.47	226.02
988.76	225.99
989.05	226.01
989.34	225.99
989.63	226.02
989.92	226.04
990.22	226.04
990.51	226.06
990.80	226.04
991.09	226.09
991.38	226.11
991.67	226.10
991.96	226.11
992.25	226.08
992.54	226.08
992.83	226.06
993.12	226.05
993.41	226.08
993.70	226.09
993.99	226.07
994.28	226.08
994.58	226.11
994.87	226.10
995.16	226.08
995.45	226.09
995.74	226.06
996.03	226.07
996.32	226.08
996.61	226.10
996.90	226.08
997.19	226.04
997.48	226.04
997.77	226.06
998.06	226.07
998.34	226.10
998.63	226.10
998.92	226.13
999.21	226.14
999.50	226.12
999.79	226.12
1000.08	226.11
1000.37	226.10
1000.66	226.10
1000.95	226.14
1001.24	226.16
1001.53	226.15
1001.82	226.19
1002.11	226.19
1002.40	226.17
1002.68	226.19
1002.97	226.27
1003.26	226.28
1003.55	226.26
1003.84	226.26
1004.13	226.26
1004.42	226.26
1004.71	226.26
1004.99	226.24
1005.28	226.28
1005.57	226.28
1005.86	226.26
1006.15	226.31
1006.44	226.30
1006.72	226.29
1007.01	226.26
1007.30	226.26
1007.59	226.24
1007.88	226.19
1008.17	226.18
1008.45	226.18
1008.74	226.16
1009.03	226.13
1009.32	226.13
1009.60	226.13
1009.89	226.12
1010.18	226.09
1010.47	226.06
1010.76	226.05
1011.04	226.03
1011.33	226.12
1011.62	226.09
1011.91	226.08
1012.19	226.04
1012.48	226.06
1012.77	226.06
1013.05	226.11
1013.34	226.12
1013.63	226.09
1013.92	226.09
1014.20	226.07
1014.49	226.08
1014.78	226.04
1015.06	226.03
1015.35	226.03
1015.64	226.02
1015.92	226.00
1016.21	225.99
1016.50	226.01
1016.78	226.02
1017.07	226.06
1017.36	225.95
1017.64	225.95
1017.93	225.98
1018.22	225.95
1018.50	225.93
1018.79	225.90
1019.08	225.86
1019.36	225.83
1019.65	225.82
1019.93	225.85
1020.22	225.87
1020.51	225.90
1020.79	225.92
1021.08	225.48
1021.36	225.70
1021.65	225.40
1021.94	225.78
1022.22	226.08
1022.51	225.15
1022.79	226.31
1023.08	226.25
1023.36	226.71
1023.65	225.83
>>>>>End Processed Spectral Data<<<<<
