SpectraSuite Data File
++++++++++++++++++++++++++++++++++++
Date: Fri Feb 01 15:15:17 EST 2013
User: group
Dark Spectrum Present: No
Reference Spectrum Present: No
Number of Sampled Component Spectra: 1
Spectrometers: USB2E7196
Integration Time (usec): 35000 (USB2E7196)
Spectra Averaged: 100 (USB2E7196)
Boxcar Smoothing: 10 (USB2E7196)
Correct for Electrical Dark: No (USB2E7196)
Strobe/Lamp Enabled: No (USB2E7196)
Correct for Detector Non-linearity: No (USB2E7196)
Correct for Stray Light: No (USB2E7196)
Number of Pixels in Processed Spectrum: 2048
>>>>>Begin Processed Spectral Data<<<<<
339.09	0.00
339.48	215.54
339.86	216.22
340.24	218.27
340.63	219.68
341.01	222.30
341.39	222.07
341.78	223.01
342.16	223.99
342.54	226.04
342.93	213.51
343.31	224.29
343.69	224.81
344.07	225.31
344.46	225.71
344.84	226.09
345.22	226.31
345.60	226.56
345.99	226.75
346.37	226.92
346.75	226.92
347.13	226.95
347.52	226.98
347.90	227.01
348.28	227.04
348.66	227.07
349.05	227.07
349.43	227.11
349.81	227.16
350.19	227.20
350.57	227.20
350.96	227.25
351.34	227.36
351.72	227.40
352.10	227.49
352.48	227.56
352.87	227.60
353.25	227.67
353.63	227.72
354.01	227.78
354.39	227.86
354.77	227.99
355.15	228.11
355.54	228.19
355.92	228.24
356.30	228.27
356.68	228.39
357.06	228.45
357.44	228.51
357.82	228.57
358.20	228.65
358.58	228.78
358.97	228.87
359.35	228.93
359.73	229.05
360.11	229.10
360.49	229.15
360.87	229.20
361.25	229.25
361.63	229.33
362.01	229.39
362.39	229.41
362.77	229.45
363.15	229.47
363.53	229.52
363.91	229.55
364.29	229.60
364.67	229.53
365.05	229.54
365.43	229.54
365.81	229.57
366.19	229.58
366.57	229.61
366.95	229.59
367.33	229.55
367.71	229.49
368.09	229.48
368.47	229.46
368.85	229.43
369.23	229.43
369.61	229.35
369.99	229.35
370.37	229.31
370.75	229.30
371.13	229.24
371.51	229.17
371.89	229.12
372.27	229.07
372.65	229.03
373.03	228.98
373.41	228.91
373.78	228.84
374.16	228.73
374.54	228.61
374.92	228.55
375.30	228.51
375.68	228.47
376.06	228.41
376.44	228.33
376.82	228.25
377.19	228.16
377.57	228.10
377.95	227.97
378.33	227.91
378.71	227.82
379.09	227.79
379.47	227.74
379.84	227.70
380.22	227.63
380.60	227.58
380.98	227.50
381.36	227.44
381.73	227.36
382.11	227.33
382.49	227.29
382.87	227.23
383.25	227.16
383.62	227.17
384.00	227.12
384.38	227.09
384.76	227.05
385.13	227.03
385.51	226.99
385.89	227.00
386.27	226.92
386.64	226.84
387.02	226.77
387.40	226.71
387.78	226.63
388.15	226.61
388.53	226.55
388.91	226.52
389.29	226.47
389.66	226.45
390.04	226.41
390.42	226.39
390.79	226.34
391.17	226.33
391.55	226.24
391.92	226.22
392.30	226.18
392.68	226.18
393.05	226.20
393.43	226.22
393.81	226.20
394.18	226.22
394.56	226.28
394.94	226.28
395.31	226.31
395.69	226.36
396.06	226.43
396.44	226.47
396.82	226.52
397.19	226.61
397.57	226.67
397.95	226.72
398.32	226.72
398.70	226.77
399.07	226.82
399.45	226.86
399.82	226.92
400.20	227.00
400.58	227.07
400.95	227.09
401.33	227.18
401.70	227.32
402.08	227.40
402.45	227.50
402.83	227.63
403.20	227.75
403.58	227.87
403.95	228.02
404.33	228.15
404.71	228.32
405.08	228.49
405.46	228.65
405.83	228.80
406.21	229.00
406.58	229.19
406.96	229.37
407.33	229.57
407.70	229.78
408.08	230.08
408.45	230.33
408.83	230.58
409.20	230.79
409.58	230.99
409.95	231.28
410.33	231.56
410.70	231.80
411.08	232.10
411.45	232.40
411.82	232.68
412.20	233.01
412.57	233.41
412.95	233.75
413.32	234.16
413.69	234.57
414.07	235.03
414.44	235.48
414.82	235.99
415.19	236.52
415.56	237.07
415.94	237.60
416.31	238.23
416.68	238.85
417.06	239.58
417.43	240.26
417.81	241.01
418.18	241.75
418.55	242.65
418.93	243.50
419.30	244.40
419.67	245.34
420.04	246.32
420.42	247.31
420.79	248.49
421.16	249.63
421.54	250.86
421.91	252.05
422.28	253.35
422.66	254.63
423.03	255.94
423.40	257.27
423.77	258.66
424.15	260.08
424.52	261.62
424.89	263.20
425.26	264.73
425.64	266.22
426.01	267.86
426.38	269.50
426.75	271.21
427.13	272.93
427.50	274.74
427.87	276.62
428.24	278.50
428.61	280.23
428.99	282.14
429.36	284.24
429.73	286.30
430.10	288.29
430.47	290.39
430.85	292.51
431.22	294.75
431.59	297.19
431.96	299.47
432.33	301.91
432.70	304.31
433.08	307.18
433.45	309.78
433.82	312.39
434.19	315.27
434.56	318.09
434.93	320.76
435.30	323.40
435.68	326.32
436.05	329.12
436.42	331.91
436.79	334.44
437.16	337.13
437.53	339.97
437.90	342.84
438.27	345.62
438.64	348.44
439.01	351.08
439.38	353.30
439.75	355.46
440.13	357.99
440.50	360.34
440.87	362.21
441.24	364.20
441.61	366.36
441.98	367.85
442.35	369.66
442.72	371.56
443.09	373.35
443.46	374.36
443.83	374.98
444.20	375.53
444.57	376.42
444.94	376.71
445.31	377.06
445.68	377.36
446.05	377.41
446.42	377.04
446.79	376.65
447.16	376.22
447.53	375.86
447.90	374.66
448.27	373.49
448.64	371.87
449.01	370.72
449.37	368.79
449.74	366.89
450.11	364.60
450.48	362.07
450.85	359.53
451.22	357.37
451.59	355.32
451.96	353.35
452.33	350.72
452.70	348.34
453.07	345.54
453.43	342.66
453.80	339.88
454.17	337.19
454.54	334.60
454.91	331.85
455.28	329.19
455.65	326.71
456.02	324.25
456.38	322.11
456.75	319.42
457.12	317.20
457.49	314.96
457.86	312.82
458.23	311.01
458.59	308.97
458.96	306.89
459.33	305.04
459.70	303.20
460.07	301.69
460.43	299.98
460.80	298.31
461.17	296.86
461.54	295.36
461.91	293.95
462.27	292.50
462.64	291.24
463.01	289.89
463.38	288.60
463.74	287.27
464.11	286.07
464.48	285.05
464.85	283.89
465.21	283.03
465.58	282.08
465.95	280.94
466.32	280.01
466.68	279.10
467.05	278.18
467.42	277.24
467.78	276.29
468.15	275.39
468.52	274.72
468.88	273.88
469.25	273.11
469.62	272.48
469.98	271.79
470.35	271.14
470.72	270.54
471.08	269.82
471.45	269.24
471.82	268.69
472.18	268.08
472.55	267.60
472.92	267.08
473.28	266.60
473.65	266.14
474.02	265.69
474.38	265.31
474.75	264.98
475.11	264.68
475.48	264.41
475.85	264.18
476.21	263.94
476.58	263.74
476.94	263.59
477.31	263.36
477.67	263.21
478.04	263.06
478.41	263.00
478.77	263.06
479.14	262.98
479.50	263.00
479.87	263.04
480.23	263.09
480.60	263.14
480.96	263.24
481.33	263.43
481.69	263.66
482.06	263.83
482.42	263.98
482.79	264.21
483.15	264.54
483.52	264.92
483.88	265.31
484.25	265.70
484.61	266.09
484.98	266.63
485.34	267.18
485.71	267.78
486.07	268.37
486.44	268.93
486.80	269.65
487.17	270.37
487.53	271.19
487.90	272.08
488.26	272.98
488.62	273.97
488.99	274.96
489.35	275.95
489.72	277.06
490.08	278.30
490.44	279.53
490.81	280.84
491.17	282.15
491.54	283.58
491.90	285.07
492.26	286.70
492.63	288.35
492.99	290.15
493.36	292.04
493.72	294.04
494.08	296.12
494.45	298.37
494.81	300.75
495.17	303.16
495.54	305.74
495.90	308.41
496.26	311.21
496.63	314.16
496.99	317.27
497.35	320.55
497.72	323.94
498.08	327.45
498.44	331.13
498.80	335.06
499.17	339.06
499.53	343.25
499.89	347.64
500.26	352.18
500.62	356.84
500.98	361.80
501.34	366.92
501.71	372.29
502.07	377.70
502.43	383.27
502.79	389.09
503.16	395.14
503.52	401.46
503.88	407.85
504.24	414.51
504.60	421.35
504.97	428.46
505.33	435.75
505.69	443.39
506.05	451.11
506.41	458.99
506.78	467.18
507.14	475.64
507.50	484.41
507.86	493.39
508.22	502.57
508.59	511.76
508.95	521.30
509.31	531.06
509.67	541.17
510.03	551.45
510.39	562.00
510.75	572.82
511.12	583.75
511.48	595.08
511.84	606.52
512.20	618.05
512.56	630.05
512.92	642.26
513.28	654.60
513.64	667.17
514.00	679.98
514.37	692.93
514.73	706.05
515.09	719.06
515.45	732.35
515.81	745.87
516.17	759.93
516.53	774.05
516.89	788.26
517.25	802.40
517.61	816.86
517.97	831.26
518.33	845.62
518.69	860.41
519.05	875.45
519.41	890.60
519.77	906.17
520.13	921.61
520.49	937.11
520.85	952.60
521.21	968.30
521.57	984.48
521.93	1000.34
522.29	1016.80
522.65	1033.08
523.01	1049.33
523.37	1065.51
523.73	1081.68
524.09	1097.87
524.45	1114.24
524.81	1131.10
525.17	1148.10
525.53	1165.13
525.89	1182.11
526.25	1198.94
526.61	1215.37
526.97	1232.17
527.33	1248.81
527.68	1265.45
528.04	1281.85
528.40	1298.49
528.76	1315.57
529.12	1332.26
529.48	1349.07
529.84	1365.04
530.20	1381.76
530.56	1398.92
530.91	1416.34
531.27	1433.11
531.63	1449.54
531.99	1466.21
532.35	1482.07
532.71	1497.93
533.07	1514.24
533.42	1530.13
533.78	1546.20
534.14	1562.45
534.50	1577.85
534.86	1593.81
535.21	1608.97
535.57	1625.05
535.93	1640.75
536.29	1655.67
536.65	1670.85
537.00	1685.91
537.36	1701.43
537.72	1716.01
538.08	1730.46
538.44	1744.53
538.79	1758.53
539.15	1772.31
539.51	1786.14
539.87	1800.66
540.22	1814.50
540.58	1828.43
540.94	1841.98
541.29	1855.05
541.65	1867.83
542.01	1881.26
542.37	1893.52
542.72	1906.06
543.08	1917.92
543.44	1930.30
543.79	1941.49
544.15	1952.47
544.51	1963.94
544.87	1974.93
545.22	1985.76
545.58	1996.02
545.94	2005.64
546.29	2015.66
546.65	2025.59
547.01	2034.88
547.36	2043.62
547.72	2052.14
548.07	2059.98
548.43	2068.10
548.79	2076.16
549.14	2083.73
549.50	2091.11
549.86	2099.00
550.21	2106.35
550.57	2113.57
550.92	2120.17
551.28	2127.33
551.64	2134.50
551.99	2141.06
552.35	2147.23
552.70	2153.38
553.06	2159.34
553.41	2165.73
553.77	2171.87
554.13	2178.10
554.48	2184.26
554.84	2189.69
555.19	2194.97
555.55	2200.07
555.90	2204.48
556.26	2209.25
556.61	2214.06
556.97	2218.15
557.32	2222.10
557.68	2226.36
558.03	2230.56
558.39	2234.28
558.74	2238.86
559.10	2242.61
559.45	2246.30
559.81	2250.61
560.16	2254.33
560.52	2257.61
560.87	2261.10
561.23	2263.45
561.58	2266.34
561.94	2268.72
562.29	2271.08
562.64	2273.76
563.00	2276.33
563.35	2280.03
563.71	2283.32
564.06	2286.49
564.42	2289.37
564.77	2291.92
565.12	2294.02
565.48	2295.93
565.83	2297.71
566.19	2298.90
566.54	2299.93
566.89	2301.06
567.25	2301.49
567.60	2302.85
567.96	2304.39
568.31	2305.10
568.66	2306.22
569.02	2306.67
569.37	2306.92
569.72	2307.60
570.08	2307.61
570.43	2307.40
570.78	2306.54
571.14	2304.82
571.49	2303.40
571.84	2303.01
572.20	2301.68
572.55	2300.54
572.90	2298.90
573.26	2297.28
573.61	2295.58
573.96	2293.41
574.31	2290.26
574.67	2287.12
575.02	2283.38
575.37	2279.88
575.72	2275.97
576.08	2272.59
576.43	2269.01
576.78	2265.33
577.13	2262.18
577.49	2259.02
577.84	2255.60
578.19	2251.90
578.54	2247.96
578.90	2243.70
579.25	2238.08
579.60	2233.06
579.95	2228.10
580.30	2222.96
580.66	2217.81
581.01	2212.71
581.36	2207.82
581.71	2203.60
582.06	2198.95
582.42	2194.21
582.77	2188.91
583.12	2184.32
583.47	2179.37
583.82	2174.23
584.17	2168.72
584.53	2163.13
584.88	2157.37
585.23	2151.46
585.58	2145.74
585.93	2140.43
586.28	2135.63
586.63	2130.41
586.98	2125.18
587.34	2120.34
587.69	2115.27
588.04	2109.98
588.39	2104.27
588.74	2097.88
589.09	2091.63
589.44	2084.79
589.79	2078.90
590.14	2073.17
590.49	2066.39
590.84	2059.98
591.19	2053.94
591.54	2047.58
591.89	2039.98
592.25	2033.16
592.60	2025.83
592.95	2018.22
593.30	2010.68
593.65	2002.80
594.00	1995.76
594.35	1988.55
594.70	1980.46
595.05	1973.07
595.40	1965.70
595.75	1958.17
596.10	1951.68
596.45	1944.86
596.80	1938.64
597.15	1931.93
597.50	1924.86
597.85	1918.40
598.19	1911.79
598.54	1904.69
598.89	1897.98
599.24	1892.08
599.59	1885.19
599.94	1879.03
600.29	1872.77
600.64	1866.24
600.99	1858.70
601.34	1851.73
601.69	1844.73
602.04	1837.57
602.39	1830.35
602.74	1823.46
603.08	1816.78
603.43	1810.06
603.78	1802.60
604.13	1795.33
604.48	1787.86
604.83	1780.87
605.18	1773.72
605.53	1765.63
605.87	1757.62
606.22	1750.40
606.57	1742.52
606.92	1735.20
607.27	1728.02
607.62	1720.95
607.96	1713.67
608.31	1707.08
608.66	1699.47
609.01	1691.79
609.36	1684.42
609.70	1676.34
610.05	1668.22
610.40	1660.34
610.75	1652.03
611.10	1644.49
611.44	1636.21
611.79	1628.42
612.14	1619.77
612.49	1610.74
612.83	1602.36
613.18	1594.19
613.53	1586.05
613.88	1577.39
614.22	1569.20
614.57	1560.63
614.92	1552.59
615.27	1544.96
615.61	1536.66
615.96	1528.62
616.31	1521.01
616.65	1513.54
617.00	1506.03
617.35	1498.34
617.70	1489.92
618.04	1481.45
618.39	1473.19
618.74	1465.63
619.08	1457.14
619.43	1449.63
619.78	1442.70
620.12	1435.46
620.47	1427.94
620.82	1419.83
621.16	1412.58
621.51	1404.92
621.85	1397.32
622.20	1388.91
622.55	1380.61
622.89	1372.77
623.24	1365.19
623.59	1357.88
623.93	1350.38
624.28	1343.12
624.62	1335.61
624.97	1328.56
625.32	1321.75
625.66	1314.70
626.01	1307.38
626.35	1300.04
626.70	1292.27
627.04	1284.50
627.39	1276.85
627.73	1269.50
628.08	1262.48
628.43	1255.07
628.77	1247.62
629.12	1240.03
629.46	1232.77
629.81	1225.37
630.15	1218.14
630.50	1210.77
630.84	1202.66
631.19	1194.85
631.53	1187.44
631.88	1179.92
632.22	1172.42
632.57	1165.16
632.91	1157.66
633.26	1150.25
633.60	1142.90
633.95	1135.86
634.29	1128.92
634.64	1122.17
634.98	1114.73
635.32	1107.72
635.67	1101.29
636.01	1094.75
636.36	1087.95
636.70	1081.49
637.05	1074.89
637.39	1068.51
637.73	1061.94
638.08	1055.98
638.42	1049.96
638.77	1043.45
639.11	1036.89
639.45	1030.50
639.80	1023.82
640.14	1017.44
640.49	1010.96
640.83	1004.70
641.17	998.48
641.52	992.12
641.86	985.78
642.20	980.11
642.55	973.84
642.89	967.31
643.23	960.81
643.58	955.02
643.92	948.80
644.26	942.73
644.61	936.72
644.95	930.78
645.29	924.20
645.64	917.48
645.98	911.17
646.32	905.35
646.66	899.28
647.01	893.56
647.35	887.85
647.69	882.10
648.04	876.64
648.38	870.84
648.72	864.85
649.06	858.78
649.41	852.76
649.75	846.70
650.09	840.73
650.43	834.91
650.78	828.78
651.12	822.93
651.46	817.21
651.80	811.34
652.14	805.91
652.49	800.58
652.83	795.31
653.17	789.63
653.51	783.89
653.85	778.49
654.20	772.78
654.54	766.81
654.88	761.03
655.22	755.13
655.56	749.43
655.90	743.96
656.25	738.72
656.59	733.42
656.93	728.31
657.27	723.16
657.61	717.79
657.95	712.67
658.29	707.59
658.64	702.39
658.98	697.13
659.32	691.68
659.66	686.41
660.00	681.14
660.34	676.21
660.68	671.32
661.02	666.31
661.36	661.70
661.70	657.20
662.05	652.83
662.39	648.49
662.73	644.06
663.07	639.78
663.41	635.35
663.75	630.86
664.09	626.35
664.43	622.02
664.77	617.90
665.11	613.72
665.45	609.61
665.79	605.52
666.13	601.40
666.47	597.33
666.81	593.24
667.15	589.13
667.49	585.29
667.83	581.51
668.17	577.60
668.51	573.48
668.85	569.51
669.19	565.69
669.53	561.84
669.87	557.96
670.21	554.24
670.55	550.65
670.89	547.22
671.23	543.78
671.57	540.20
671.91	536.73
672.25	533.22
672.58	529.69
672.92	526.30
673.26	523.20
673.60	520.05
673.94	516.94
674.28	514.11
674.62	511.13
674.96	508.05
675.30	505.09
675.64	502.20
675.97	499.47
676.31	496.62
676.65	493.66
676.99	490.96
677.33	488.11
677.67	485.24
678.01	482.21
678.34	479.27
678.68	476.41
679.02	473.54
679.36	470.77
679.70	468.05
680.04	465.29
680.37	462.41
680.71	459.71
681.05	457.11
681.39	454.44
681.73	451.80
682.06	449.27
682.40	446.79
682.74	444.25
683.08	441.66
683.42	439.07
683.75	436.61
684.09	434.12
684.43	431.66
684.77	429.23
685.10	426.95
685.44	424.68
685.78	422.44
686.12	420.27
686.45	418.02
686.79	415.78
687.13	413.62
687.46	411.49
687.80	409.28
688.14	407.10
688.48	405.04
688.81	402.79
689.15	400.69
689.49	398.52
689.82	396.48
690.16	394.41
690.50	392.49
690.83	390.58
691.17	388.57
691.51	386.68
691.84	384.80
692.18	382.82
692.52	380.81
692.85	378.89
693.19	377.00
693.52	375.19
693.86	373.37
694.20	371.60
694.53	369.83
694.87	368.03
695.21	366.21
695.54	364.36
695.88	362.68
696.21	360.94
696.55	359.30
696.88	357.59
697.22	355.98
697.56	354.38
697.89	352.72
698.23	351.16
698.56	349.53
698.90	348.00
699.23	346.38
699.57	344.83
699.90	343.31
700.24	341.75
700.58	340.19
700.91	338.67
701.25	337.23
701.58	335.83
701.92	334.47
702.25	333.10
702.59	331.77
702.92	330.43
703.26	329.13
703.59	327.87
703.93	326.74
704.26	325.50
704.60	324.16
704.93	322.87
705.26	321.61
705.60	320.45
705.93	319.28
706.27	318.24
706.60	317.16
706.94	316.05
707.27	314.92
707.61	313.90
707.94	312.88
708.27	311.77
708.61	310.69
708.94	309.66
709.28	308.69
709.61	307.73
709.94	306.80
710.28	305.77
710.61	304.74
710.95	303.64
711.28	302.70
711.61	301.78
711.95	300.86
712.28	299.92
712.61	298.97
712.95	298.07
713.28	297.21
713.61	296.36
713.95	295.49
714.28	294.68
714.61	293.81
714.95	292.97
715.28	292.13
715.61	291.25
715.95	290.42
716.28	289.53
716.61	288.69
716.95	287.88
717.28	287.14
717.61	286.39
717.94	285.65
718.28	284.88
718.61	284.15
718.94	283.48
719.27	282.83
719.61	282.13
719.94	281.42
720.27	280.68
720.60	280.02
720.94	279.41
721.27	278.80
721.60	278.21
721.93	277.63
722.27	277.09
722.60	276.54
722.93	275.94
723.26	275.42
723.59	274.88
723.93	274.32
724.26	273.78
724.59	273.20
724.92	272.70
725.25	272.17
725.59	271.64
725.92	271.14
726.25	270.62
726.58	270.16
726.91	269.66
727.24	269.18
727.57	268.73
727.91	268.22
728.24	267.75
728.57	267.28
728.90	266.85
729.23	266.34
729.56	265.95
729.89	265.53
730.22	265.04
730.55	264.57
730.89	264.13
731.22	263.68
731.55	263.27
731.88	262.83
732.21	262.43
732.54	262.02
732.87	261.60
733.20	261.20
733.53	260.81
733.86	260.47
734.19	260.12
734.52	259.73
734.85	259.42
735.18	259.02
735.51	258.63
735.84	258.23
736.17	257.89
736.50	257.50
736.83	257.28
737.16	256.93
737.49	256.60
737.82	256.25
738.15	255.94
738.48	255.62
738.81	255.32
739.14	254.97
739.47	254.66
739.80	254.34
740.13	254.05
740.46	253.72
740.79	253.37
741.12	253.05
741.45	252.76
741.78	252.41
742.11	252.11
742.44	251.82
742.77	251.52
743.10	251.22
743.43	250.93
743.75	250.52
744.08	250.39
744.41	250.11
744.74	249.85
745.07	249.54
745.40	249.28
745.73	249.02
746.06	248.76
746.39	248.50
746.71	248.22
747.04	247.93
747.37	247.66
747.70	247.43
748.03	247.19
748.36	246.94
748.68	246.68
749.01	246.44
749.34	246.17
749.67	245.96
750.00	245.75
750.33	245.54
750.65	245.33
750.98	244.98
751.31	244.80
751.64	244.55
751.97	244.40
752.29	244.21
752.62	243.94
752.95	243.74
753.28	243.50
753.60	243.28
753.93	243.12
754.26	242.94
754.59	242.70
754.91	242.48
755.24	242.26
755.57	242.09
755.90	241.89
756.22	241.73
756.55	241.52
756.88	241.31
757.20	241.09
757.53	240.90
757.86	240.74
758.19	240.54
758.51	240.37
758.84	240.15
759.17	239.97
759.49	239.80
759.82	239.69
760.15	239.56
760.47	239.42
760.80	239.25
761.13	239.12
761.45	239.00
761.78	238.87
762.11	238.74
762.43	238.59
762.76	238.49
763.08	238.34
763.41	238.21
763.74	238.13
764.06	237.99
764.39	237.82
764.71	237.69
765.04	237.55
765.37	237.40
765.69	237.29
766.02	237.15
766.34	237.04
766.67	236.90
767.00	236.82
767.32	236.76
767.65	236.72
767.97	236.62
768.30	236.49
768.62	236.37
768.95	236.25
769.27	236.14
769.60	236.04
769.92	235.94
770.25	235.81
770.57	235.66
770.90	235.54
771.22	235.44
771.55	235.34
771.87	235.25
772.20	235.19
772.52	235.21
772.85	235.22
773.17	235.13
773.50	235.01
773.82	234.91
774.15	234.77
774.47	234.60
774.80	234.51
775.12	234.42
775.45	234.31
775.77	234.22
776.09	234.15
776.42	234.03
776.74	233.96
777.07	233.88
777.39	233.84
777.72	233.81
778.04	233.78
778.36	233.69
778.69	233.59
779.01	233.52
779.33	233.37
779.66	233.20
779.98	233.13
780.31	233.05
780.63	233.00
780.95	232.95
781.28	232.88
781.60	232.79
781.92	232.75
782.25	232.68
782.57	232.65
782.89	232.58
783.22	232.54
783.54	232.47
783.86	232.44
784.19	232.33
784.51	232.26
784.83	232.22
785.16	232.19
785.48	232.19
785.80	232.12
786.12	232.06
786.45	232.01
786.77	231.95
787.09	231.93
787.42	231.83
787.74	231.78
788.06	231.73
788.38	231.67
788.71	231.59
789.03	231.55
789.35	231.52
789.67	231.46
789.99	231.41
790.32	231.34
790.64	231.29
790.96	231.31
791.28	231.24
791.61	231.14
791.93	231.10
792.25	231.04
792.57	231.07
792.89	231.00
793.21	230.96
793.54	230.93
793.86	230.87
794.18	230.81
794.50	230.76
794.82	230.74
795.14	230.71
795.47	230.69
795.79	230.69
796.11	230.61
796.43	230.55
796.75	230.52
797.07	230.49
797.39	230.47
797.71	230.39
798.04	230.35
798.36	230.34
798.68	230.32
799.00	230.26
799.32	230.19
799.64	230.17
799.96	230.11
800.28	230.09
800.60	230.08
800.92	230.11
801.24	230.08
801.56	230.05
801.89	230.00
802.21	230.02
802.53	229.95
802.85	229.95
803.17	230.01
803.49	229.98
803.81	229.93
804.13	229.91
804.45	229.87
804.77	229.87
805.09	229.84
805.41	229.82
805.73	229.80
806.05	229.75
806.37	229.72
806.69	229.70
807.01	229.70
807.33	229.68
807.65	229.61
807.97	229.64
808.28	229.61
808.60	229.60
808.92	229.51
809.24	229.56
809.56	229.54
809.88	229.47
810.20	229.44
810.52	229.46
810.84	229.40
811.16	229.38
811.48	229.35
811.80	229.38
812.12	229.34
812.43	229.30
812.75	229.29
813.07	229.25
813.39	229.25
813.71	229.20
814.03	229.15
814.35	229.13
814.67	229.03
814.98	229.01
815.30	228.98
815.62	228.97
815.94	228.89
816.26	228.86
816.58	228.79
816.89	228.78
817.21	228.72
817.53	228.71
817.85	228.70
818.17	228.65
818.48	228.57
818.80	228.55
819.12	228.55
819.44	228.49
819.76	228.47
820.07	228.48
820.39	228.44
820.71	228.45
821.03	228.44
821.34	228.44
821.66	228.43
821.98	228.46
822.30	228.41
822.61	228.45
822.93	228.44
823.25	228.44
823.57	228.42
823.88	228.42
824.20	228.41
824.52	228.42
824.83	228.42
825.15	228.42
825.47	228.42
825.79	228.40
826.10	228.39
826.42	228.39
826.74	228.34
827.05	228.31
827.37	228.28
827.69	228.27
828.00	228.25
828.32	228.22
828.64	228.19
828.95	228.24
829.27	228.19
829.58	228.18
829.90	228.18
830.22	228.19
830.53	228.17
830.85	228.15
831.17	228.10
831.48	228.10
831.80	228.08
832.11	228.07
832.43	228.02
832.75	228.02
833.06	228.09
833.38	228.05
833.69	228.06
834.01	228.07
834.32	228.05
834.64	228.03
834.96	228.02
835.27	228.00
835.59	228.00
835.90	227.99
836.22	228.01
836.53	228.01
836.85	228.01
837.16	228.10
837.48	228.11
837.79	228.13
838.11	228.14
838.42	228.14
838.74	228.17
839.05	228.17
839.37	228.18
839.68	228.12
840.00	228.13
840.31	228.10
840.63	228.10
840.94	228.08
841.26	228.07
841.57	228.07
841.88	228.09
842.20	228.06
842.51	228.04
842.83	228.00
843.14	228.06
843.46	228.05
843.77	228.00
844.08	227.99
844.40	227.97
844.71	227.98
845.03	227.99
845.34	227.95
845.65	227.97
845.97	227.96
846.28	227.95
846.60	227.96
846.91	227.97
847.22	227.95
847.54	227.98
847.85	228.00
848.16	228.00
848.48	227.98
848.79	228.01
849.10	228.01
849.42	228.01
849.73	227.94
850.04	227.92
850.36	227.89
850.67	227.91
850.98	227.90
851.30	227.87
851.61	227.85
851.92	227.86
852.23	227.89
852.55	227.88
852.86	227.89
853.17	227.91
853.49	227.93
853.80	227.95
854.11	227.96
854.42	227.95
854.74	227.96
855.05	227.95
855.36	227.88
855.67	227.90
855.99	227.89
856.30	227.96
856.61	227.94
856.92	227.92
857.23	227.89
857.55	227.86
857.86	227.84
858.17	227.88
858.48	227.84
858.79	227.79
859.11	227.78
859.42	227.73
859.73	227.71
860.04	227.69
860.35	227.66
860.66	227.61
860.98	227.61
861.29	227.62
861.60	227.59
861.91	227.63
862.22	227.58
862.53	227.59
862.84	227.49
863.16	227.51
863.47	227.52
863.78	227.50
864.09	227.51
864.40	227.49
864.71	227.44
865.02	227.45
865.33	227.47
865.64	227.45
865.95	227.47
866.27	227.52
866.58	227.50
866.89	227.51
867.20	227.52
867.51	227.47
867.82	227.45
868.13	227.49
868.44	227.48
868.75	227.48
869.06	227.45
869.37	227.45
869.68	227.43
869.99	227.45
870.30	227.44
870.61	227.45
870.92	227.46
871.23	227.49
871.54	227.50
871.85	227.47
872.16	227.50
872.47	227.48
872.78	227.44
873.09	227.45
873.40	227.43
873.71	227.39
874.02	227.40
874.33	227.39
874.64	227.37
874.95	227.39
875.26	227.38
875.56	227.37
875.87	227.37
876.18	227.35
876.49	227.40
876.80	227.39
877.11	227.36
877.42	227.39
877.73	227.37
878.04	227.34
878.35	227.35
878.66	227.35
878.96	227.38
879.27	227.37
879.58	227.37
879.89	227.37
880.20	227.45
880.51	227.46
880.82	227.44
881.12	227.43
881.43	227.40
881.74	227.41
882.05	227.42
882.36	227.42
882.67	227.46
882.97	227.37
883.28	227.37
883.59	227.38
883.90	227.39
884.21	227.39
884.51	227.44
884.82	227.44
885.13	227.42
885.44	227.39
885.74	227.39
886.05	227.38
886.36	227.36
886.67	227.32
886.98	227.37
887.28	227.39
887.59	227.43
887.90	227.43
888.20	227.43
888.51	227.43
888.82	227.46
889.13	227.45
889.43	227.51
889.74	227.53
890.05	227.50
890.35	227.50
890.66	227.49
890.97	227.45
891.28	227.40
891.58	227.41
891.89	227.42
892.20	227.40
892.50	227.39
892.81	227.38
893.12	227.37
893.42	227.34
893.73	227.33
894.04	227.33
894.34	227.32
894.65	227.29
894.95	227.27
895.26	227.26
895.57	227.33
895.87	227.25
896.18	227.24
896.48	227.25
896.79	227.21
897.10	227.23
897.40	227.21
897.71	227.24
898.01	227.22
898.32	227.26
898.63	227.23
898.93	227.23
899.24	227.27
899.54	227.27
899.85	227.21
900.15	227.23
900.46	227.19
900.76	227.21
901.07	227.21
901.38	227.22
901.68	227.20
901.99	227.14
902.29	227.16
902.60	227.13
902.90	227.11
903.21	227.10
903.51	227.09
903.82	227.10
904.12	227.10
904.43	227.11
904.73	227.04
905.03	227.07
905.34	227.15
905.64	227.14
905.95	227.16
906.25	227.16
906.56	227.14
906.86	227.15
907.17	227.14
907.47	227.14
907.77	227.12
908.08	227.10
908.38	227.08
908.69	227.10
908.99	227.15
909.30	227.14
909.60	227.17
909.90	227.14
910.21	227.13
910.51	227.12
910.81	227.13
911.12	227.18
911.42	227.19
911.73	227.08
912.03	227.09
912.33	227.09
912.64	227.11
912.94	227.07
913.24	227.05
913.55	227.04
913.85	227.06
914.15	227.12
914.46	227.13
914.76	227.11
915.06	227.09
915.37	227.07
915.67	227.11
915.97	227.12
916.27	227.16
916.58	227.17
916.88	227.15
917.18	227.14
917.49	227.20
917.79	227.22
918.09	227.24
918.39	227.26
918.70	227.23
919.00	227.23
919.30	227.28
919.60	227.31
919.91	227.31
920.21	227.28
920.51	227.27
920.81	227.30
921.12	227.35
921.42	227.37
921.72	227.38
922.02	227.40
922.32	227.43
922.63	227.40
922.93	227.44
923.23	227.47
923.53	227.46
923.83	227.40
924.13	227.40
924.44	227.39
924.74	227.40
925.04	227.44
925.34	227.41
925.64	227.38
925.94	227.35
926.24	227.41
926.55	227.43
926.85	227.44
927.15	227.42
927.45	227.42
927.75	227.39
928.05	227.37
928.35	227.32
928.65	227.32
928.95	227.34
929.26	227.34
929.56	227.35
929.86	227.37
930.16	227.36
930.46	227.35
930.76	227.38
931.06	227.32
931.36	227.31
931.66	227.35
931.96	227.36
932.26	227.37
932.56	227.33
932.86	227.34
933.16	227.31
933.46	227.30
933.76	227.24
934.06	227.29
934.36	227.33
934.66	227.34
934.96	227.30
935.26	227.27
935.56	227.26
935.86	227.21
936.16	227.23
936.46	227.22
936.76	227.22
937.06	227.21
937.36	227.21
937.66	227.20
937.96	227.20
938.26	227.14
938.56	227.14
938.86	227.10
939.16	227.08
939.46	227.14
939.76	227.13
940.06	227.16
940.35	227.09
940.65	227.05
940.95	227.05
941.25	227.03
941.55	227.02
941.85	227.00
942.15	227.02
942.45	227.02
942.75	227.00
943.04	226.99
943.34	227.02
943.64	227.02
943.94	227.02
944.24	226.99
944.54	227.03
944.84	227.02
945.13	227.05
945.43	227.06
945.73	226.99
946.03	226.99
946.33	226.96
946.62	226.96
946.92	226.96
947.22	226.99
947.52	226.97
947.82	226.98
948.11	226.98
948.41	226.95
948.71	226.93
949.01	226.96
949.31	226.93
949.60	226.90
949.90	226.92
950.20	226.91
950.50	226.92
950.79	226.88
951.09	226.88
951.39	226.86
951.69	226.83
951.98	226.89
952.28	226.86
952.58	226.89
952.87	226.89
953.17	226.93
953.47	226.90
953.76	226.91
954.06	226.90
954.36	226.89
954.66	226.89
954.95	226.90
955.25	226.89
955.55	226.93
955.84	226.94
956.14	226.96
956.44	226.95
956.73	226.93
957.03	226.94
957.32	226.96
957.62	227.00
957.92	227.02
958.21	226.99
958.51	227.11
958.81	227.12
959.10	227.12
959.40	227.12
959.69	227.10
959.99	227.11
960.29	227.12
960.58	227.13
960.88	227.16
961.17	227.16
961.47	227.18
961.76	227.16
962.06	227.15
962.36	227.12
962.65	227.16
962.95	227.17
963.24	227.17
963.54	227.18
963.83	227.16
964.13	227.17
964.42	227.12
964.72	227.07
965.01	227.07
965.31	227.07
965.60	227.04
965.90	227.12
966.19	227.12
966.49	227.15
966.78	227.15
967.08	227.14
967.37	227.13
967.67	227.10
967.96	227.11
968.26	227.10
968.55	227.11
968.85	227.05
969.14	227.06
969.43	227.08
969.73	227.04
970.02	227.04
970.32	227.03
970.61	227.09
970.91	227.05
971.20	227.03
971.49	227.06
971.79	227.09
972.08	227.02
972.38	227.00
972.67	227.02
972.96	227.05
973.26	227.05
973.55	227.07
973.85	227.07
974.14	227.04
974.43	227.06
974.73	227.05
975.02	227.08
975.31	227.09
975.61	227.06
975.90	227.04
976.19	227.04
976.49	227.05
976.78	227.03
977.07	227.04
977.37	227.04
977.66	227.04
977.95	227.01
978.24	227.01
978.54	227.05
978.83	227.00
979.12	226.97
979.42	226.96
979.71	226.93
980.00	226.92
980.29	226.94
980.59	226.93
980.88	226.95
981.17	226.93
981.46	226.90
981.76	226.92
982.05	226.98
982.34	226.98
982.63	226.98
982.93	226.98
983.22	227.00
983.51	227.01
983.80	227.03
984.09	227.04
984.39	227.06
984.68	227.05
984.97	227.05
985.26	227.02
985.55	227.03
985.85	227.02
986.14	227.02
986.43	227.02
986.72	227.01
987.01	226.98
987.30	226.99
987.59	227.00
987.89	227.01
988.18	226.97
988.47	226.94
988.76	226.93
989.05	226.94
989.34	226.92
989.63	226.96
989.92	226.94
990.22	226.92
990.51	226.90
990.80	226.90
991.09	226.93
991.38	226.97
991.67	226.97
991.96	226.97
992.25	227.01
992.54	227.00
992.83	226.99
993.12	227.01
993.41	227.05
993.70	227.12
993.99	227.12
994.28	227.14
994.58	227.16
994.87	227.14
995.16	227.11
995.45	227.10
995.74	227.04
996.03	227.02
996.32	227.06
996.61	227.09
996.90	227.09
997.19	227.08
997.48	227.07
997.77	227.08
998.06	227.08
998.34	227.05
998.63	227.05
998.92	227.08
999.21	227.08
999.50	227.06
999.79	227.03
1000.08	227.03
1000.37	227.03
1000.66	227.06
1000.95	227.10
1001.24	227.12
1001.53	227.14
1001.82	227.15
1002.11	227.14
1002.40	227.14
1002.68	227.13
1002.97	227.17
1003.26	227.14
1003.55	227.15
1003.84	227.18
1004.13	227.21
1004.42	227.21
1004.71	227.22
1004.99	227.22
1005.28	227.24
1005.57	227.21
1005.86	227.18
1006.15	227.20
1006.44	227.16
1006.72	227.14
1007.01	227.11
1007.30	227.14
1007.59	227.11
1007.88	227.13
1008.17	227.12
1008.45	227.09
1008.74	227.05
1009.03	227.05
1009.32	227.08
1009.60	227.05
1009.89	227.02
1010.18	226.97
1010.47	226.98
1010.76	226.99
1011.04	226.98
1011.33	226.97
1011.62	227.00
1011.91	227.03
1012.19	227.00
1012.48	227.03
1012.77	227.02
1013.05	227.09
1013.34	227.08
1013.63	227.11
1013.92	227.10
1014.20	227.12
1014.49	227.15
1014.78	227.17
1015.06	227.13
1015.35	227.15
1015.64	227.17
1015.92	227.17
1016.21	227.22
1016.50	227.19
1016.78	227.18
1017.07	227.18
1017.36	227.16
1017.64	227.14
1017.93	227.11
1018.22	227.10
1018.50	227.08
1018.79	227.10
1019.08	227.04
1019.36	227.07
1019.65	227.06
1019.93	227.08
1020.22	227.08
1020.51	227.10
1020.79	227.11
1021.08	226.65
1021.36	226.66
1021.65	227.34
1021.94	226.84
1022.22	227.71
1022.51	227.15
1022.79	227.72
1023.08	226.98
1023.36	228.10
1023.65	227.18
>>>>>End Processed Spectral Data<<<<<
