SpectraSuite Data File
++++++++++++++++++++++++++++++++++++
Date: Fri Feb 01 15:52:16 EST 2013
User: group
Dark Spectrum Present: No
Reference Spectrum Present: No
Number of Sampled Component Spectra: 1
Spectrometers: USB2E7196
Integration Time (usec): 35000 (USB2E7196)
Spectra Averaged: 100 (USB2E7196)
Boxcar Smoothing: 10 (USB2E7196)
Correct for Electrical Dark: No (USB2E7196)
Strobe/Lamp Enabled: No (USB2E7196)
Correct for Detector Non-linearity: No (USB2E7196)
Correct for Stray Light: No (USB2E7196)
Number of Pixels in Processed Spectrum: 2048
>>>>>Begin Processed Spectral Data<<<<<
339.09	0.00
339.48	215.22
339.86	215.91
340.24	217.55
340.63	218.39
341.01	222.70
341.39	221.41
341.78	223.54
342.16	223.71
342.54	225.02
342.93	213.11
343.31	223.90
343.69	224.42
344.07	224.91
344.46	225.37
344.84	225.79
345.22	226.00
345.60	226.27
345.99	226.45
346.37	226.59
346.75	226.67
347.13	226.77
347.52	226.83
347.90	226.90
348.28	226.92
348.66	226.99
349.05	226.99
349.43	227.05
349.81	227.10
350.19	227.15
350.57	227.22
350.96	227.32
351.34	227.42
351.72	227.51
352.10	227.62
352.48	227.65
352.87	227.67
353.25	227.74
353.63	227.78
354.01	227.83
354.39	227.92
354.77	228.03
355.15	228.13
355.54	228.18
355.92	228.23
356.30	228.31
356.68	228.41
357.06	228.47
357.44	228.51
357.82	228.57
358.20	228.64
358.58	228.69
358.97	228.76
359.35	228.79
359.73	228.87
360.11	228.89
360.49	228.94
360.87	228.98
361.25	229.04
361.63	229.15
362.01	229.19
362.39	229.20
362.77	229.21
363.15	229.22
363.53	229.23
363.91	229.24
364.29	229.26
364.67	229.18
365.05	229.21
365.43	229.24
365.81	229.28
366.19	229.31
366.57	229.34
366.95	229.33
367.33	229.30
367.71	229.28
368.09	229.29
368.47	229.29
368.85	229.24
369.23	229.23
369.61	229.14
369.99	229.10
370.37	229.10
370.75	229.09
371.13	229.08
371.51	229.00
371.89	228.95
372.27	228.89
372.65	228.85
373.03	228.77
373.41	228.70
373.78	228.62
374.16	228.53
374.54	228.43
374.92	228.34
375.30	228.29
375.68	228.20
376.06	228.13
376.44	228.06
376.82	228.07
377.19	228.00
377.57	227.91
377.95	227.85
378.33	227.78
378.71	227.68
379.09	227.61
379.47	227.62
379.84	227.57
380.22	227.50
380.60	227.42
380.98	227.35
381.36	227.31
381.73	227.23
382.11	227.19
382.49	227.12
382.87	227.09
383.25	227.03
383.62	227.11
384.00	227.06
384.38	227.01
384.76	226.94
385.13	226.92
385.51	226.87
385.89	226.80
386.27	226.77
386.64	226.75
387.02	226.67
387.40	226.61
387.78	226.57
388.15	226.57
388.53	226.53
388.91	226.50
389.29	226.47
389.66	226.46
390.04	226.42
390.42	226.42
390.79	226.41
391.17	226.41
391.55	226.27
391.92	226.28
392.30	226.28
392.68	226.24
393.05	226.24
393.43	226.28
393.81	226.30
394.18	226.29
394.56	226.31
394.94	226.36
395.31	226.36
395.69	226.41
396.06	226.45
396.44	226.50
396.82	226.56
397.19	226.63
397.57	226.67
397.95	226.71
398.32	226.72
398.70	226.76
399.07	226.82
399.45	226.90
399.82	226.95
400.20	227.00
400.58	227.13
400.95	227.15
401.33	227.23
401.70	227.41
402.08	227.49
402.45	227.57
402.83	227.70
403.20	227.80
403.58	227.89
403.95	228.03
404.33	228.15
404.71	228.26
405.08	228.41
405.46	228.52
405.83	228.71
406.21	228.91
406.58	229.09
406.96	229.26
407.33	229.43
407.70	229.63
408.08	229.87
408.45	230.06
408.83	230.31
409.20	230.51
409.58	230.63
409.95	230.92
410.33	231.21
410.70	231.45
411.08	231.79
411.45	232.13
411.82	232.41
412.20	232.79
412.57	233.21
412.95	233.52
413.32	233.94
413.69	234.33
414.07	234.75
414.44	235.22
414.82	235.74
415.19	236.29
415.56	236.81
415.94	237.40
416.31	238.05
416.68	238.68
417.06	239.44
417.43	240.15
417.81	240.92
418.18	241.69
418.55	242.56
418.93	243.42
419.30	244.30
419.67	245.28
420.04	246.20
420.42	247.19
420.79	248.38
421.16	249.55
421.54	250.73
421.91	251.93
422.28	253.15
422.66	254.45
423.03	255.75
423.40	257.10
423.77	258.51
424.15	259.97
424.52	261.44
424.89	263.04
425.26	264.63
425.64	266.08
426.01	267.70
426.38	269.33
426.75	270.98
427.13	272.69
427.50	274.46
427.87	276.35
428.24	278.21
428.61	279.96
428.99	281.90
429.36	284.03
429.73	286.09
430.10	288.13
430.47	290.21
430.85	292.33
431.22	294.60
431.59	296.99
431.96	299.26
432.33	301.78
432.70	304.12
433.08	306.86
433.45	309.50
433.82	312.09
434.19	314.99
434.56	317.84
434.93	320.49
435.30	323.10
435.68	326.00
436.05	328.81
436.42	331.60
436.79	334.13
437.16	336.80
437.53	339.65
437.90	342.47
438.27	345.18
438.64	347.96
439.01	350.49
439.38	352.70
439.75	354.81
440.13	357.29
440.50	359.65
440.87	361.57
441.24	363.50
441.61	365.62
441.98	367.04
442.35	368.79
442.72	370.65
443.09	372.45
443.46	373.43
443.83	374.06
444.20	374.56
444.57	375.37
444.94	375.63
445.31	375.95
445.68	376.29
446.05	376.39
446.42	376.05
446.79	375.63
447.16	375.16
447.53	374.82
447.90	373.59
448.27	372.42
448.64	370.80
449.01	369.61
449.37	367.64
449.74	365.78
450.11	363.56
450.48	361.08
450.85	358.59
451.22	356.45
451.59	354.42
451.96	352.44
452.33	349.83
452.70	347.49
453.07	344.68
453.43	341.78
453.80	338.96
454.17	336.26
454.54	333.73
454.91	331.00
455.28	328.32
455.65	325.86
456.02	323.42
456.38	321.30
456.75	318.70
457.12	316.45
457.49	314.27
457.86	312.08
458.23	310.23
458.59	308.20
458.96	306.14
459.33	304.24
459.70	302.38
460.07	300.87
460.43	299.16
460.80	297.53
461.17	296.06
461.54	294.62
461.91	293.23
462.27	291.82
462.64	290.59
463.01	289.27
463.38	287.98
463.74	286.60
464.11	285.41
464.48	284.39
464.85	283.32
465.21	282.42
465.58	281.49
465.95	280.39
466.32	279.46
466.68	278.52
467.05	277.63
467.42	276.77
467.78	275.84
468.15	274.99
468.52	274.33
468.88	273.53
469.25	272.71
469.62	272.11
469.98	271.41
470.35	270.80
470.72	270.20
471.08	269.58
471.45	269.03
471.82	268.48
472.18	267.86
472.55	267.37
472.92	266.84
473.28	266.43
473.65	265.96
474.02	265.53
474.38	265.18
474.75	264.88
475.11	264.53
475.48	264.26
475.85	264.04
476.21	263.79
476.58	263.63
476.94	263.48
477.31	263.27
477.67	263.17
478.04	263.06
478.41	263.03
478.77	263.05
479.14	262.99
479.50	263.03
479.87	263.13
480.23	263.25
480.60	263.32
480.96	263.40
481.33	263.63
481.69	263.83
482.06	264.02
482.42	264.25
482.79	264.52
483.15	264.85
483.52	265.21
483.88	265.59
484.25	265.96
484.61	266.42
484.98	266.85
485.34	267.36
485.71	267.92
486.07	268.47
486.44	269.04
486.80	269.79
487.17	270.51
487.53	271.28
487.90	272.11
488.26	273.05
488.62	274.03
488.99	275.00
489.35	275.99
489.72	277.08
490.08	278.26
490.44	279.49
490.81	280.83
491.17	282.17
491.54	283.64
491.90	285.12
492.26	286.74
492.63	288.49
492.99	290.30
493.36	292.19
493.72	294.25
494.08	296.37
494.45	298.59
494.81	300.93
495.17	303.39
495.54	305.96
495.90	308.63
496.26	311.47
496.63	314.41
496.99	317.55
497.35	320.85
497.72	324.23
498.08	327.74
498.44	331.38
498.80	335.28
499.17	339.28
499.53	343.51
499.89	347.92
500.26	352.46
500.62	357.14
500.98	362.11
501.34	367.19
501.71	372.47
502.07	377.87
502.43	383.48
502.79	389.31
503.16	395.37
503.52	401.63
503.88	408.04
504.24	414.73
504.60	421.65
504.97	428.75
505.33	436.09
505.69	443.82
506.05	451.67
506.41	459.57
506.78	467.73
507.14	476.17
507.50	484.93
507.86	493.93
508.22	503.12
508.59	512.33
508.95	521.95
509.31	531.78
509.67	541.92
510.03	552.22
510.39	562.76
510.75	573.55
511.12	584.48
511.48	595.73
511.84	607.14
512.20	618.68
512.56	630.66
512.92	642.85
513.28	655.20
513.64	667.66
514.00	680.34
514.37	693.29
514.73	706.35
515.09	719.35
515.45	732.66
515.81	746.28
516.17	760.27
516.53	774.27
516.89	788.44
517.25	802.66
517.61	817.12
517.97	831.58
518.33	846.04
518.69	860.78
519.05	875.76
519.41	890.95
519.77	906.44
520.13	921.92
520.49	937.29
520.85	952.68
521.21	968.36
521.57	984.63
521.93	1000.44
522.29	1016.87
522.65	1033.13
523.01	1049.32
523.37	1065.31
523.73	1081.47
524.09	1097.64
524.45	1113.98
524.81	1130.59
525.17	1147.37
525.53	1164.14
525.89	1180.96
526.25	1197.85
526.61	1214.24
526.97	1230.91
527.33	1247.42
527.68	1264.00
528.04	1280.55
528.40	1297.08
528.76	1314.20
529.12	1330.88
529.48	1347.69
529.84	1363.65
530.20	1380.20
530.56	1397.24
530.91	1414.69
531.27	1431.37
531.63	1447.80
531.99	1464.29
532.35	1480.19
532.71	1496.10
533.07	1512.40
533.42	1528.33
533.78	1544.38
534.14	1560.67
534.50	1576.03
534.86	1591.89
535.21	1606.99
535.57	1622.81
535.93	1638.48
536.29	1653.20
536.65	1668.09
537.00	1682.89
537.36	1698.27
537.72	1712.79
538.08	1727.10
538.44	1740.82
538.79	1754.69
539.15	1768.29
539.51	1782.10
539.87	1796.38
540.22	1810.13
540.58	1823.90
540.94	1837.16
541.29	1850.03
541.65	1862.68
542.01	1875.94
542.37	1888.15
542.72	1900.56
543.08	1912.33
543.44	1924.51
543.79	1935.77
544.15	1946.76
544.51	1958.41
544.87	1969.29
545.22	1980.19
545.58	1990.34
545.94	2000.15
546.29	2010.04
546.65	2019.97
547.01	2029.21
547.36	2038.00
547.72	2046.41
548.07	2054.19
548.43	2062.38
548.79	2070.37
549.14	2077.82
549.50	2085.19
549.86	2092.91
550.21	2100.31
550.57	2107.56
550.92	2114.09
551.28	2121.07
551.64	2128.24
551.99	2134.68
552.35	2140.76
552.70	2146.88
553.06	2152.92
553.41	2159.36
553.77	2165.42
554.13	2171.43
554.48	2177.50
554.84	2182.94
555.19	2188.18
555.55	2193.43
555.90	2197.90
556.26	2202.72
556.61	2207.60
556.97	2211.88
557.32	2215.87
557.68	2219.95
558.03	2224.13
558.39	2227.97
558.74	2232.66
559.10	2236.50
559.45	2240.17
559.81	2244.67
560.16	2248.40
560.52	2251.66
560.87	2254.99
561.23	2257.68
561.58	2260.69
561.94	2263.19
562.29	2265.55
562.64	2268.18
563.00	2270.75
563.35	2274.28
563.71	2277.44
564.06	2280.55
564.42	2283.22
564.77	2285.81
565.12	2288.15
565.48	2289.99
565.83	2291.85
566.19	2292.98
566.54	2293.82
566.89	2294.79
567.25	2295.15
567.60	2296.43
567.96	2298.01
568.31	2298.78
568.66	2299.72
569.02	2300.29
569.37	2300.75
569.72	2301.50
570.08	2301.73
570.43	2301.69
570.78	2301.16
571.14	2299.55
571.49	2298.21
571.84	2297.88
572.20	2296.80
572.55	2295.83
572.90	2294.33
573.26	2293.00
573.61	2291.58
573.96	2289.84
574.31	2287.01
574.67	2284.06
575.02	2280.53
575.37	2277.17
575.72	2273.26
576.08	2270.05
576.43	2266.76
576.78	2262.99
577.13	2259.97
577.49	2256.84
577.84	2253.50
578.19	2249.63
578.54	2245.98
578.90	2241.78
579.25	2236.31
579.60	2231.25
579.95	2226.07
580.30	2221.14
580.66	2215.99
581.01	2210.96
581.36	2206.08
581.71	2201.86
582.06	2197.24
582.42	2192.75
582.77	2187.52
583.12	2183.02
583.47	2178.16
583.82	2173.06
584.17	2167.81
584.53	2162.34
584.88	2156.69
585.23	2150.85
585.58	2145.44
585.93	2140.05
586.28	2135.29
586.63	2130.23
586.98	2125.27
587.34	2120.56
587.69	2115.47
588.04	2110.04
588.39	2104.30
588.74	2097.81
589.09	2091.69
589.44	2084.91
589.79	2078.82
590.14	2073.37
590.49	2066.82
590.84	2060.64
591.19	2054.70
591.54	2048.26
591.89	2040.70
592.25	2033.93
592.60	2026.77
592.95	2019.16
593.30	2011.79
593.65	2004.32
594.00	1997.19
594.35	1989.94
594.70	1981.87
595.05	1974.79
595.40	1967.48
595.75	1960.05
596.10	1953.72
596.45	1947.03
596.80	1941.07
597.15	1934.43
597.50	1927.11
597.85	1920.65
598.19	1913.93
598.54	1906.79
598.89	1900.15
599.24	1894.31
599.59	1887.64
599.94	1881.51
600.29	1875.22
600.64	1868.70
600.99	1861.12
601.34	1854.39
601.69	1847.49
602.04	1840.64
602.39	1833.27
602.74	1826.42
603.08	1819.72
603.43	1813.11
603.78	1805.79
604.13	1798.48
604.48	1791.23
604.83	1784.51
605.18	1777.55
605.53	1769.55
605.87	1761.53
606.22	1754.28
606.57	1746.37
606.92	1739.08
607.27	1731.78
607.62	1724.82
607.96	1717.45
608.31	1710.81
608.66	1703.21
609.01	1695.58
609.36	1688.01
609.70	1680.10
610.05	1672.05
610.40	1664.20
610.75	1655.85
611.10	1648.10
611.44	1639.66
611.79	1631.72
612.14	1622.94
612.49	1613.86
612.83	1605.44
613.18	1597.35
613.53	1589.25
613.88	1580.74
614.22	1572.29
614.57	1563.71
614.92	1555.67
615.27	1548.01
615.61	1539.70
615.96	1531.63
616.31	1523.98
616.65	1516.55
617.00	1508.91
617.35	1501.35
617.70	1492.90
618.04	1484.29
618.39	1475.98
618.74	1468.52
619.08	1460.21
619.43	1452.69
619.78	1445.80
620.12	1438.59
620.47	1430.89
620.82	1422.73
621.16	1415.33
621.51	1407.72
621.85	1400.12
622.20	1391.64
622.55	1383.35
622.89	1375.50
623.24	1367.89
623.59	1360.57
623.93	1353.03
624.28	1345.78
624.62	1338.24
624.97	1331.17
625.32	1324.55
625.66	1317.50
626.01	1310.23
626.35	1302.75
626.70	1295.02
627.04	1287.10
627.39	1279.50
627.73	1272.21
628.08	1265.29
628.43	1257.84
628.77	1250.49
629.12	1242.88
629.46	1235.63
629.81	1228.32
630.15	1221.02
630.50	1213.54
630.84	1205.26
631.19	1197.43
631.53	1190.01
631.88	1182.41
632.22	1174.87
632.57	1167.52
632.91	1160.07
633.26	1152.67
633.60	1145.31
633.95	1138.22
634.29	1131.35
634.64	1124.60
634.98	1117.19
635.32	1110.05
635.67	1103.63
636.01	1097.05
636.36	1090.32
636.70	1083.85
637.05	1077.22
637.39	1070.82
637.73	1064.32
638.08	1058.45
638.42	1052.36
638.77	1045.80
639.11	1039.23
639.45	1032.80
639.80	1026.17
640.14	1019.72
640.49	1013.18
640.83	1006.84
641.17	1000.47
641.52	994.03
641.86	987.51
642.20	981.76
642.55	975.38
642.89	968.80
643.23	962.19
643.58	956.33
643.92	950.12
644.26	944.00
644.61	937.93
644.95	931.88
645.29	925.19
645.64	918.49
645.98	912.11
646.32	906.22
646.66	900.18
647.01	894.31
647.35	888.63
647.69	882.77
648.04	877.26
648.38	871.52
648.72	865.58
649.06	859.49
649.41	853.55
649.75	847.68
650.09	841.82
650.43	836.10
650.78	829.97
651.12	824.02
651.46	818.27
651.80	812.56
652.14	807.23
652.49	802.01
652.83	796.92
653.17	791.19
653.51	785.50
653.85	780.11
654.20	774.44
654.54	768.49
654.88	762.85
655.22	757.01
655.56	751.34
655.90	745.86
656.25	740.66
656.59	735.29
656.93	730.14
657.27	724.89
657.61	719.47
657.95	714.38
658.29	709.29
658.64	704.10
658.98	698.80
659.32	693.37
659.66	688.10
660.00	682.73
660.34	677.86
660.68	672.96
661.02	667.89
661.36	663.23
661.70	658.65
662.05	654.19
662.39	649.84
662.73	645.38
663.07	641.04
663.41	636.53
663.75	632.02
664.09	627.51
664.43	623.13
664.77	618.98
665.11	614.76
665.45	610.68
665.79	606.60
666.13	602.43
666.47	598.29
666.81	594.17
667.15	590.01
667.49	586.12
667.83	582.36
668.17	578.46
668.51	574.37
668.85	570.35
669.19	566.52
669.53	562.69
669.87	558.80
670.21	555.06
670.55	551.46
670.89	548.07
671.23	544.60
671.57	541.10
671.91	537.55
672.25	533.99
672.58	530.43
672.92	527.02
673.26	523.87
673.60	520.69
673.94	517.57
674.28	514.72
674.62	511.74
674.96	508.59
675.30	505.64
675.64	502.68
675.97	499.94
676.31	497.11
676.65	494.16
676.99	491.44
677.33	488.58
677.67	485.76
678.01	482.70
678.34	479.70
678.68	476.85
679.02	474.04
679.36	471.37
679.70	468.69
680.04	465.92
680.37	463.01
680.71	460.23
681.05	457.60
681.39	454.91
681.73	452.24
682.06	449.69
682.40	447.18
682.74	444.68
683.08	442.14
683.42	439.56
683.75	437.05
684.09	434.51
684.43	432.03
684.77	429.55
685.10	427.22
685.44	424.96
685.78	422.73
686.12	420.48
686.45	418.08
686.79	415.75
687.13	413.57
687.46	411.40
687.80	409.28
688.14	407.09
688.48	404.99
688.81	402.77
689.15	400.64
689.49	398.51
689.82	396.42
690.16	394.36
690.50	392.37
690.83	390.44
691.17	388.46
691.51	386.56
691.84	384.73
692.18	382.82
692.52	380.80
692.85	378.81
693.19	376.95
693.52	375.19
693.86	373.35
694.20	371.61
694.53	369.86
694.87	368.02
695.21	366.27
695.54	364.43
695.88	362.72
696.21	361.04
696.55	359.36
696.88	357.70
697.22	356.03
697.56	354.42
697.89	352.76
698.23	351.18
698.56	349.57
698.90	348.00
699.23	346.35
699.57	344.83
699.90	343.25
700.24	341.71
700.58	340.18
700.91	338.72
701.25	337.25
701.58	335.88
701.92	334.53
702.25	333.09
702.59	331.77
702.92	330.41
703.26	329.07
703.59	327.75
703.93	326.58
704.26	325.35
704.60	324.08
704.93	322.79
705.26	321.55
705.60	320.38
705.93	319.21
706.27	318.17
706.60	317.13
706.94	316.08
707.27	314.95
707.61	313.89
707.94	312.89
708.27	311.77
708.61	310.73
708.94	309.75
709.28	308.81
709.61	307.85
709.94	306.93
710.28	305.93
710.61	304.98
710.95	303.93
711.28	302.97
711.61	302.02
711.95	301.12
712.28	300.16
712.61	299.17
712.95	298.22
713.28	297.39
713.61	296.50
713.95	295.62
714.28	294.79
714.61	293.91
714.95	293.05
715.28	292.21
715.61	291.32
715.95	290.41
716.28	289.57
716.61	288.73
716.95	287.87
717.28	287.10
717.61	286.36
717.94	285.59
718.28	284.79
718.61	284.05
718.94	283.36
719.27	282.70
719.61	282.04
719.94	281.40
720.27	280.59
720.60	279.91
720.94	279.28
721.27	278.63
721.60	278.03
721.93	277.41
722.27	276.89
722.60	276.33
722.93	275.78
723.26	275.23
723.59	274.69
723.93	274.15
724.26	273.63
724.59	273.04
724.92	272.49
725.25	271.99
725.59	271.46
725.92	270.97
726.25	270.43
726.58	269.97
726.91	269.48
727.24	269.02
727.57	268.57
727.91	268.08
728.24	267.62
728.57	267.13
728.90	266.74
729.23	266.22
729.56	265.82
729.89	265.36
730.22	264.85
730.55	264.36
730.89	263.96
731.22	263.50
731.55	263.05
731.88	262.66
732.21	262.27
732.54	261.82
732.87	261.39
733.20	260.99
733.53	260.59
733.86	260.20
734.19	259.84
734.52	259.43
734.85	259.09
735.18	258.70
735.51	258.37
735.84	257.97
736.17	257.63
736.50	257.19
736.83	256.94
737.16	256.65
737.49	256.30
737.82	255.92
738.15	255.60
738.48	255.33
738.81	254.98
739.14	254.68
739.47	254.38
739.80	254.06
740.13	253.80
740.46	253.48
740.79	253.17
741.12	252.87
741.45	252.55
741.78	252.20
742.11	251.91
742.44	251.59
742.77	251.32
743.10	250.99
743.43	250.71
743.75	250.35
744.08	250.19
744.41	249.93
744.74	249.66
745.07	249.39
745.40	249.10
745.73	248.88
746.06	248.58
746.39	248.32
746.71	248.10
747.04	247.82
747.37	247.58
747.70	247.34
748.03	247.08
748.36	246.86
748.68	246.62
749.01	246.40
749.34	246.15
749.67	245.93
750.00	245.73
750.33	245.59
750.65	245.35
750.98	245.00
751.31	244.80
751.64	244.60
751.97	244.43
752.29	244.23
752.62	243.98
752.95	243.80
753.28	243.59
753.60	243.32
753.93	243.15
754.26	242.92
754.59	242.69
754.91	242.49
755.24	242.31
755.57	242.13
755.90	241.92
756.22	241.75
756.55	241.52
756.88	241.33
757.20	241.08
757.53	240.89
757.86	240.72
758.19	240.56
758.51	240.37
758.84	240.16
759.17	239.96
759.49	239.81
759.82	239.66
760.15	239.48
760.47	239.32
760.80	239.13
761.13	239.00
761.45	238.83
761.78	238.68
762.11	238.53
762.43	238.36
762.76	238.20
763.08	238.06
763.41	237.91
763.74	237.80
764.06	237.68
764.39	237.50
764.71	237.31
765.04	237.18
765.37	237.04
765.69	236.88
766.02	236.76
766.34	236.57
766.67	236.41
767.00	236.32
767.32	236.26
767.65	236.21
767.97	236.09
768.30	235.97
768.62	235.83
768.95	235.68
769.27	235.55
769.60	235.47
769.92	235.33
770.25	235.22
770.57	235.07
770.90	234.94
771.22	234.86
771.55	234.79
771.87	234.68
772.20	234.60
772.52	234.60
772.85	234.62
773.17	234.55
773.50	234.46
773.82	234.37
774.15	234.25
774.47	234.09
774.80	234.03
775.12	233.98
775.45	233.91
775.77	233.86
776.09	233.79
776.42	233.71
776.74	233.68
777.07	233.62
777.39	233.54
777.72	233.47
778.04	233.45
778.36	233.39
778.69	233.33
779.01	233.27
779.33	233.13
779.66	232.96
779.98	232.93
780.31	232.82
780.63	232.81
780.95	232.77
781.28	232.70
781.60	232.61
781.92	232.55
782.25	232.53
782.57	232.48
782.89	232.42
783.22	232.35
783.54	232.29
783.86	232.26
784.19	232.19
784.51	232.18
784.83	232.09
785.16	232.05
785.48	231.99
785.80	231.95
786.12	231.93
786.45	231.88
786.77	231.82
787.09	231.80
787.42	231.71
787.74	231.65
788.06	231.63
788.38	231.59
788.71	231.54
789.03	231.49
789.35	231.48
789.67	231.43
789.99	231.43
790.32	231.38
790.64	231.36
790.96	231.41
791.28	231.33
791.61	231.31
791.93	231.28
792.25	231.26
792.57	231.26
792.89	231.17
793.21	231.15
793.54	231.11
793.86	231.06
794.18	231.02
794.50	230.97
794.82	230.94
795.14	230.91
795.47	230.89
795.79	230.86
796.11	230.77
796.43	230.74
796.75	230.67
797.07	230.61
797.39	230.54
797.71	230.47
798.04	230.43
798.36	230.39
798.68	230.32
799.00	230.27
799.32	230.17
799.64	230.19
799.96	230.15
800.28	230.13
800.60	230.13
800.92	230.08
801.24	230.03
801.56	229.98
801.89	229.95
802.21	229.94
802.53	229.88
802.85	229.89
803.17	229.92
803.49	229.87
803.81	229.86
804.13	229.81
804.45	229.77
804.77	229.75
805.09	229.71
805.41	229.70
805.73	229.66
806.05	229.61
806.37	229.56
806.69	229.50
807.01	229.44
807.33	229.40
807.65	229.36
807.97	229.39
808.28	229.34
808.60	229.31
808.92	229.24
809.24	229.28
809.56	229.20
809.88	229.15
810.20	229.14
810.52	229.13
810.84	229.07
811.16	229.04
811.48	229.03
811.80	229.04
812.12	228.98
812.43	228.97
812.75	228.99
813.07	228.95
813.39	228.98
813.71	228.98
814.03	228.92
814.35	228.91
814.67	228.85
814.98	228.85
815.30	228.80
815.62	228.75
815.94	228.66
816.26	228.68
816.58	228.62
816.89	228.62
817.21	228.57
817.53	228.59
817.85	228.59
818.17	228.57
818.48	228.50
818.80	228.52
819.12	228.50
819.44	228.45
819.76	228.43
820.07	228.40
820.39	228.35
820.71	228.37
821.03	228.35
821.34	228.35
821.66	228.34
821.98	228.39
822.30	228.40
822.61	228.45
822.93	228.42
823.25	228.43
823.57	228.41
823.88	228.40
824.20	228.37
824.52	228.33
824.83	228.31
825.15	228.29
825.47	228.26
825.79	228.29
826.10	228.28
826.42	228.29
826.74	228.31
827.05	228.32
827.37	228.32
827.69	228.33
828.00	228.33
828.32	228.32
828.64	228.29
828.95	228.35
829.27	228.31
829.58	228.29
829.90	228.28
830.22	228.27
830.53	228.27
830.85	228.30
831.17	228.30
831.48	228.30
831.80	228.31
832.11	228.31
832.43	228.24
832.75	228.25
833.06	228.30
833.38	228.26
833.69	228.26
834.01	228.28
834.32	228.25
834.64	228.24
834.96	228.24
835.27	228.19
835.59	228.12
835.90	228.10
836.22	228.11
836.53	228.13
836.85	228.11
837.16	228.20
837.48	228.15
837.79	228.18
838.11	228.20
838.42	228.21
838.74	228.22
839.05	228.22
839.37	228.20
839.68	228.12
840.00	228.08
840.31	228.06
840.63	228.02
840.94	228.01
841.26	227.96
841.57	227.93
841.88	227.93
842.20	227.90
842.51	227.86
842.83	227.82
843.14	227.86
843.46	227.87
843.77	227.76
844.08	227.76
844.40	227.71
844.71	227.65
845.03	227.62
845.34	227.62
845.65	227.60
845.97	227.59
846.28	227.59
846.60	227.59
846.91	227.61
847.22	227.57
847.54	227.57
847.85	227.57
848.16	227.56
848.48	227.53
848.79	227.58
849.10	227.60
849.42	227.60
849.73	227.53
850.04	227.47
850.36	227.46
850.67	227.45
850.98	227.45
851.30	227.48
851.61	227.45
851.92	227.42
852.23	227.43
852.55	227.39
852.86	227.37
853.17	227.38
853.49	227.35
853.80	227.39
854.11	227.42
854.42	227.44
854.74	227.43
855.05	227.44
855.36	227.38
855.67	227.38
855.99	227.37
856.30	227.45
856.61	227.47
856.92	227.47
857.23	227.46
857.55	227.42
857.86	227.41
858.17	227.45
858.48	227.42
858.79	227.39
859.11	227.41
859.42	227.44
859.73	227.42
860.04	227.40
860.35	227.35
860.66	227.28
860.98	227.29
861.29	227.33
861.60	227.32
861.91	227.36
862.22	227.31
862.53	227.30
862.84	227.16
863.16	227.20
863.47	227.16
863.78	227.18
864.09	227.18
864.40	227.13
864.71	227.12
865.02	227.13
865.33	227.15
865.64	227.14
865.95	227.14
866.27	227.18
866.58	227.19
866.89	227.21
867.20	227.22
867.51	227.17
867.82	227.14
868.13	227.18
868.44	227.15
868.75	227.19
869.06	227.22
869.37	227.25
869.68	227.21
869.99	227.27
870.30	227.27
870.61	227.30
870.92	227.30
871.23	227.30
871.54	227.32
871.85	227.32
872.16	227.34
872.47	227.32
872.78	227.26
873.09	227.28
873.40	227.29
873.71	227.30
874.02	227.33
874.33	227.31
874.64	227.29
874.95	227.30
875.26	227.26
875.56	227.24
875.87	227.23
876.18	227.21
876.49	227.26
876.80	227.27
877.11	227.23
877.42	227.23
877.73	227.22
878.04	227.20
878.35	227.20
878.66	227.17
878.96	227.16
879.27	227.18
879.58	227.16
879.89	227.11
880.20	227.14
880.51	227.12
880.82	227.13
881.12	227.13
881.43	227.07
881.74	227.05
882.05	227.05
882.36	227.04
882.67	227.06
882.97	226.96
883.28	226.94
883.59	226.96
883.90	226.97
884.21	226.96
884.51	226.97
884.82	226.96
885.13	226.98
885.44	226.97
885.74	226.95
886.05	226.94
886.36	226.96
886.67	226.89
886.98	226.92
887.28	226.94
887.59	226.93
887.90	226.95
888.20	226.95
888.51	226.95
888.82	226.93
889.13	226.92
889.43	227.01
889.74	226.98
890.05	226.95
890.35	226.94
890.66	226.94
890.97	226.90
891.28	226.88
891.58	226.87
891.89	226.87
892.20	226.87
892.50	226.89
892.81	226.89
893.12	226.93
893.42	226.89
893.73	226.87
894.04	226.86
894.34	226.88
894.65	226.90
894.95	226.89
895.26	226.89
895.57	226.93
895.87	226.82
896.18	226.85
896.48	226.91
896.79	226.91
897.10	226.92
897.40	226.95
897.71	226.98
898.01	227.02
898.32	227.04
898.63	227.04
898.93	227.05
899.24	227.04
899.54	227.03
899.85	227.02
900.15	226.99
900.46	227.00
900.76	226.97
901.07	226.96
901.38	226.96
901.68	226.98
901.99	226.95
902.29	226.99
902.60	226.99
902.90	226.95
903.21	226.95
903.51	226.97
903.82	226.99
904.12	226.95
904.43	226.93
904.73	226.94
905.03	226.93
905.34	227.05
905.64	227.05
905.95	227.07
906.25	227.06
906.56	227.07
906.86	227.08
907.17	227.09
907.47	227.11
907.77	227.12
908.08	227.13
908.38	227.15
908.69	227.13
908.99	227.15
909.30	227.16
909.60	227.16
909.90	227.16
910.21	227.12
910.51	227.12
910.81	227.15
911.12	227.14
911.42	227.16
911.73	227.04
912.03	227.05
912.33	227.08
912.64	227.08
912.94	227.08
913.24	227.08
913.55	227.06
913.85	227.05
914.15	227.09
914.46	227.05
914.76	227.03
915.06	227.06
915.37	227.03
915.67	227.04
915.97	227.05
916.27	227.00
916.58	227.02
916.88	227.04
917.18	227.03
917.49	227.08
917.79	227.04
918.09	227.03
918.39	227.05
918.70	227.04
919.00	227.03
919.30	227.10
919.60	227.09
919.91	227.10
920.21	227.08
920.51	227.05
920.81	227.07
921.12	227.08
921.42	227.02
921.72	227.01
922.02	227.01
922.32	226.97
922.63	226.99
922.93	227.00
923.23	226.94
923.53	226.89
923.83	226.83
924.13	226.85
924.44	226.88
924.74	226.90
925.04	226.90
925.34	226.92
925.64	226.86
925.94	226.83
926.24	226.85
926.55	226.88
926.85	226.91
927.15	226.91
927.45	226.91
927.75	226.94
928.05	226.94
928.35	226.92
928.65	226.95
928.95	226.92
929.26	226.91
929.56	226.93
929.86	226.94
930.16	226.92
930.46	226.93
930.76	226.89
931.06	226.86
931.36	226.87
931.66	226.87
931.96	226.90
932.26	226.93
932.56	226.90
932.86	226.86
933.16	226.80
933.46	226.80
933.76	226.78
934.06	226.81
934.36	226.85
934.66	226.85
934.96	226.87
935.26	226.90
935.56	226.91
935.86	226.93
936.16	226.96
936.46	226.96
936.76	226.95
937.06	226.95
937.36	226.93
937.66	226.89
937.96	226.90
938.26	226.88
938.56	226.89
938.86	226.90
939.16	226.96
939.46	227.00
939.76	227.00
940.06	227.00
940.35	227.00
940.65	226.95
940.95	226.96
941.25	226.93
941.55	226.90
941.85	226.90
942.15	226.90
942.45	226.92
942.75	226.93
943.04	226.93
943.34	226.93
943.64	226.91
943.94	226.92
944.24	226.89
944.54	226.85
944.84	226.86
945.13	226.88
945.43	226.83
945.73	226.83
946.03	226.83
946.33	226.81
946.62	226.80
946.92	226.78
947.22	226.79
947.52	226.78
947.82	226.80
948.11	226.79
948.41	226.75
948.71	226.70
949.01	226.70
949.31	226.68
949.60	226.68
949.90	226.70
950.20	226.70
950.50	226.69
950.79	226.69
951.09	226.68
951.39	226.64
951.69	226.64
951.98	226.62
952.28	226.63
952.58	226.60
952.87	226.59
953.17	226.59
953.47	226.57
953.76	226.59
954.06	226.56
954.36	226.57
954.66	226.58
954.95	226.61
955.25	226.62
955.55	226.65
955.84	226.65
956.14	226.65
956.44	226.62
956.73	226.61
957.03	226.62
957.32	226.60
957.62	226.60
957.92	226.62
958.21	226.61
958.51	226.66
958.81	226.70
959.10	226.70
959.40	226.70
959.69	226.72
959.99	226.70
960.29	226.70
960.58	226.67
960.88	226.74
961.17	226.71
961.47	226.71
961.76	226.67
962.06	226.65
962.36	226.66
962.65	226.66
962.95	226.68
963.24	226.69
963.54	226.68
963.83	226.66
964.13	226.67
964.42	226.64
964.72	226.61
965.01	226.61
965.31	226.62
965.60	226.63
965.90	226.70
966.19	226.71
966.49	226.74
966.78	226.75
967.08	226.71
967.37	226.72
967.67	226.70
967.96	226.73
968.26	226.77
968.55	226.80
968.85	226.83
969.14	226.86
969.43	226.86
969.73	226.91
970.02	226.95
970.32	226.93
970.61	226.95
970.91	226.93
971.20	226.93
971.49	226.91
971.79	226.96
972.08	226.91
972.38	226.90
972.67	226.91
972.96	226.95
973.26	226.96
973.55	227.00
973.85	227.03
974.14	227.02
974.43	227.02
974.73	227.00
975.02	226.97
975.31	226.96
975.61	226.96
975.90	226.94
976.19	226.96
976.49	226.99
976.78	227.01
977.07	227.03
977.37	227.04
977.66	227.07
977.95	227.04
978.24	227.02
978.54	227.05
978.83	227.01
979.12	227.01
979.42	227.03
979.71	226.98
980.00	226.98
980.29	227.01
980.59	226.99
980.88	227.03
981.17	227.05
981.46	227.07
981.76	227.08
982.05	227.11
982.34	227.08
982.63	227.08
982.93	227.08
983.22	227.07
983.51	227.06
983.80	227.05
984.09	227.06
984.39	227.08
984.68	227.07
984.97	227.11
985.26	227.08
985.55	227.06
985.85	227.09
986.14	227.09
986.43	227.07
986.72	227.06
987.01	227.02
987.30	227.01
987.59	226.98
987.89	227.00
988.18	226.96
988.47	226.98
988.76	226.95
989.05	226.91
989.34	226.94
989.63	226.96
989.92	226.95
990.22	226.93
990.51	226.91
990.80	226.89
991.09	226.86
991.38	226.85
991.67	226.84
991.96	226.80
992.25	226.76
992.54	226.74
992.83	226.72
993.12	226.69
993.41	226.68
993.70	226.72
993.99	226.70
994.28	226.70
994.58	226.68
994.87	226.67
995.16	226.66
995.45	226.64
995.74	226.60
996.03	226.62
996.32	226.65
996.61	226.65
996.90	226.64
997.19	226.62
997.48	226.63
997.77	226.60
998.06	226.59
998.34	226.61
998.63	226.58
998.92	226.60
999.21	226.63
999.50	226.66
999.79	226.63
1000.08	226.62
1000.37	226.61
1000.66	226.57
1000.95	226.60
1001.24	226.63
1001.53	226.64
1001.82	226.65
1002.11	226.59
1002.40	226.58
1002.68	226.61
1002.97	226.67
1003.26	226.67
1003.55	226.64
1003.84	226.67
1004.13	226.72
1004.42	226.71
1004.71	226.74
1004.99	226.73
1005.28	226.75
1005.57	226.72
1005.86	226.70
1006.15	226.68
1006.44	226.70
1006.72	226.75
1007.01	226.74
1007.30	226.73
1007.59	226.73
1007.88	226.72
1008.17	226.76
1008.45	226.75
1008.74	226.71
1009.03	226.70
1009.32	226.70
1009.60	226.73
1009.89	226.71
1010.18	226.68
1010.47	226.68
1010.76	226.67
1011.04	226.64
1011.33	226.65
1011.62	226.66
1011.91	226.69
1012.19	226.69
1012.48	226.66
1012.77	226.67
1013.05	226.74
1013.34	226.74
1013.63	226.71
1013.92	226.74
1014.20	226.70
1014.49	226.70
1014.78	226.70
1015.06	226.64
1015.35	226.68
1015.64	226.69
1015.92	226.69
1016.21	226.66
1016.50	226.67
1016.78	226.71
1017.07	226.78
1017.36	226.74
1017.64	226.74
1017.93	226.74
1018.22	226.76
1018.50	226.77
1018.79	226.76
1019.08	226.68
1019.36	226.66
1019.65	226.64
1019.93	226.66
1020.22	226.70
1020.51	226.74
1020.79	226.75
1021.08	226.88
1021.36	226.58
1021.65	226.94
1021.94	226.36
1022.22	226.19
1022.51	226.04
1022.79	227.59
1023.08	226.77
1023.36	227.57
1023.65	226.81
>>>>>End Processed Spectral Data<<<<<
