SpectraSuite Data File
++++++++++++++++++++++++++++++++++++
Date: Fri Feb 01 16:40:37 EST 2013
User: group
Dark Spectrum Present: No
Reference Spectrum Present: No
Number of Sampled Component Spectra: 1
Spectrometers: USB2E7196
Integration Time (usec): 35000 (USB2E7196)
Spectra Averaged: 100 (USB2E7196)
Boxcar Smoothing: 10 (USB2E7196)
Correct for Electrical Dark: No (USB2E7196)
Strobe/Lamp Enabled: No (USB2E7196)
Correct for Detector Non-linearity: No (USB2E7196)
Correct for Stray Light: No (USB2E7196)
Number of Pixels in Processed Spectrum: 2048
>>>>>Begin Processed Spectral Data<<<<<
339.09	0.00
339.48	213.92
339.86	214.95
340.24	216.78
340.63	218.23
341.01	220.78
341.39	220.18
341.78	221.78
342.16	223.84
342.54	223.24
342.93	212.19
343.31	222.93
343.69	223.48
344.07	223.98
344.46	224.40
344.84	224.77
345.22	225.01
345.60	225.29
345.99	225.51
346.37	225.60
346.75	225.71
347.13	225.76
347.52	225.79
347.90	225.86
348.28	225.89
348.66	225.92
349.05	225.91
349.43	225.95
349.81	225.98
350.19	226.02
350.57	226.10
350.96	226.20
351.34	226.26
351.72	226.33
352.10	226.39
352.48	226.47
352.87	226.50
353.25	226.56
353.63	226.61
354.01	226.67
354.39	226.75
354.77	226.83
355.15	226.93
355.54	227.00
355.92	227.03
356.30	227.11
356.68	227.22
357.06	227.31
357.44	227.34
357.82	227.42
358.20	227.47
358.58	227.52
358.97	227.59
359.35	227.66
359.73	227.73
360.11	227.80
360.49	227.84
360.87	227.88
361.25	227.94
361.63	228.02
362.01	228.01
362.39	228.02
362.77	228.06
363.15	228.08
363.53	228.08
363.91	228.10
364.29	228.11
364.67	228.01
365.05	228.01
365.43	228.05
365.81	228.07
366.19	228.13
366.57	228.18
366.95	228.13
367.33	228.07
367.71	228.06
368.09	228.05
368.47	228.04
368.85	228.00
369.23	228.01
369.61	227.94
369.99	227.99
370.37	227.96
370.75	227.99
371.13	227.93
371.51	227.90
371.89	227.87
372.27	227.84
372.65	227.84
373.03	227.81
373.41	227.75
373.78	227.70
374.16	227.59
374.54	227.50
374.92	227.43
375.30	227.43
375.68	227.34
376.06	227.27
376.44	227.20
376.82	227.18
377.19	227.11
377.57	227.03
377.95	226.94
378.33	226.87
378.71	226.76
379.09	226.69
379.47	226.65
379.84	226.57
380.22	226.53
380.60	226.43
380.98	226.39
381.36	226.31
381.73	226.22
382.11	226.21
382.49	226.17
382.87	226.12
383.25	226.05
383.62	226.11
384.00	226.06
384.38	226.02
384.76	226.00
385.13	225.99
385.51	225.94
385.89	225.90
386.27	225.88
386.64	225.86
387.02	225.84
387.40	225.78
387.78	225.76
388.15	225.72
388.53	225.72
388.91	225.66
389.29	225.67
389.66	225.66
390.04	225.61
390.42	225.60
390.79	225.62
391.17	225.58
391.55	225.47
391.92	225.44
392.30	225.45
392.68	225.40
393.05	225.41
393.43	225.41
393.81	225.41
394.18	225.40
394.56	225.42
394.94	225.45
395.31	225.47
395.69	225.52
396.06	225.54
396.44	225.57
396.82	225.57
397.19	225.64
397.57	225.66
397.95	225.72
398.32	225.74
398.70	225.80
399.07	225.89
399.45	225.92
399.82	225.98
400.20	226.03
400.58	226.09
400.95	226.08
401.33	226.19
401.70	226.31
402.08	226.37
402.45	226.45
402.83	226.56
403.20	226.63
403.58	226.72
403.95	226.82
404.33	226.91
404.71	227.04
405.08	227.21
405.46	227.33
405.83	227.44
406.21	227.57
406.58	227.71
406.96	227.86
407.33	228.02
407.70	228.25
408.08	228.52
408.45	228.70
408.83	228.96
409.20	229.14
409.58	229.33
409.95	229.61
410.33	229.85
410.70	230.07
411.08	230.35
411.45	230.63
411.82	230.93
412.20	231.28
412.57	231.66
412.95	231.94
413.32	232.34
413.69	232.75
414.07	233.18
414.44	233.65
414.82	234.10
415.19	234.65
415.56	235.15
415.94	235.66
416.31	236.32
416.68	236.93
417.06	237.67
417.43	238.35
417.81	239.09
418.18	239.86
418.55	240.73
418.93	241.61
419.30	242.51
419.67	243.45
420.04	244.44
420.42	245.45
420.79	246.60
421.16	247.76
421.54	248.97
421.91	250.20
422.28	251.42
422.66	252.79
423.03	254.11
423.40	255.46
423.77	256.89
424.15	258.31
424.52	259.79
424.89	261.39
425.26	262.94
425.64	264.38
426.01	266.00
426.38	267.65
426.75	269.32
427.13	271.00
427.50	272.78
427.87	274.63
428.24	276.53
428.61	278.25
428.99	280.20
429.36	282.31
429.73	284.33
430.10	286.36
430.47	288.39
430.85	290.48
431.22	292.69
431.59	295.05
431.96	297.31
432.33	299.78
432.70	302.14
433.08	304.92
433.45	307.54
433.82	310.13
434.19	312.97
434.56	315.72
434.93	318.41
435.30	321.06
435.68	323.91
436.05	326.69
436.42	329.44
436.79	331.92
437.16	334.60
437.53	337.39
437.90	340.17
438.27	342.90
438.64	345.70
439.01	348.31
439.38	350.54
439.75	352.64
440.13	355.12
440.50	357.43
440.87	359.24
441.24	361.16
441.61	363.31
441.98	364.74
442.35	366.52
442.72	368.38
443.09	370.14
443.46	371.12
443.83	371.72
444.20	372.27
444.57	373.08
444.94	373.34
445.31	373.67
445.68	374.04
446.05	374.10
446.42	373.74
446.79	373.31
447.16	372.81
447.53	372.50
447.90	371.34
448.27	370.18
448.64	368.65
449.01	367.55
449.37	365.60
449.74	363.76
450.11	361.55
450.48	359.05
450.85	356.56
451.22	354.48
451.59	352.47
451.96	350.55
452.33	347.96
452.70	345.64
453.07	342.86
453.43	339.97
453.80	337.20
454.17	334.51
454.54	331.97
454.91	329.30
455.28	326.65
455.65	324.22
456.02	321.82
456.38	319.68
456.75	317.05
457.12	314.80
457.49	312.59
457.86	310.44
458.23	308.60
458.59	306.56
458.96	304.50
459.33	302.60
459.70	300.75
460.07	299.24
460.43	297.51
460.80	295.91
461.17	294.49
461.54	293.04
461.91	291.66
462.27	290.19
462.64	288.92
463.01	287.60
463.38	286.27
463.74	284.90
464.11	283.73
464.48	282.68
464.85	281.60
465.21	280.76
465.58	279.83
465.95	278.75
466.32	277.86
466.68	276.92
467.05	276.05
467.42	275.19
467.78	274.31
468.15	273.45
468.52	272.78
468.88	271.97
469.25	271.21
469.62	270.58
469.98	269.98
470.35	269.39
470.72	268.76
471.08	268.10
471.45	267.62
471.82	267.11
472.18	266.52
472.55	266.11
472.92	265.58
473.28	265.15
473.65	264.69
474.02	264.25
474.38	263.92
474.75	263.61
475.11	263.26
475.48	262.98
475.85	262.79
476.21	262.54
476.58	262.33
476.94	262.17
477.31	262.01
477.67	261.86
478.04	261.78
478.41	261.78
478.77	261.85
479.14	261.75
479.50	261.75
479.87	261.81
480.23	261.90
480.60	261.96
480.96	262.04
481.33	262.29
481.69	262.51
482.06	262.68
482.42	262.88
482.79	263.17
483.15	263.49
483.52	263.86
483.88	264.25
484.25	264.69
484.61	265.12
484.98	265.57
485.34	266.16
485.71	266.73
486.07	267.32
486.44	267.87
486.80	268.59
487.17	269.33
487.53	270.19
487.90	271.04
488.26	272.00
488.62	273.02
488.99	274.01
489.35	275.06
489.72	276.24
490.08	277.47
490.44	278.69
490.81	280.03
491.17	281.38
491.54	282.89
491.90	284.35
492.26	286.02
492.63	287.77
492.99	289.53
493.36	291.42
493.72	293.49
494.08	295.66
494.45	297.92
494.81	300.24
495.17	302.66
495.54	305.23
495.90	307.98
496.26	310.81
496.63	313.79
496.99	316.91
497.35	320.16
497.72	323.56
498.08	327.11
498.44	330.81
498.80	334.79
499.17	338.80
499.53	343.04
499.89	347.41
500.26	351.90
500.62	356.54
500.98	361.56
501.34	366.64
501.71	371.96
502.07	377.42
502.43	383.12
502.79	388.95
503.16	395.04
503.52	401.25
503.88	407.66
504.24	414.28
504.60	421.17
504.97	428.28
505.33	435.61
505.69	443.35
506.05	451.07
506.41	458.90
506.78	467.05
507.14	475.47
507.50	484.14
507.86	493.23
508.22	502.42
508.59	511.62
508.95	521.18
509.31	530.97
509.67	541.12
510.03	551.33
510.39	561.84
510.75	572.62
511.12	583.46
511.48	594.72
511.84	606.17
512.20	617.60
512.56	629.54
512.92	641.65
513.28	653.88
513.64	666.37
514.00	679.06
514.37	692.02
514.73	705.11
515.09	718.05
515.45	731.19
515.81	744.68
516.17	758.61
516.53	772.66
516.89	786.81
517.25	800.88
517.61	815.23
517.97	829.58
518.33	843.88
518.69	858.64
519.05	873.42
519.41	888.49
519.77	903.92
520.13	919.22
520.49	934.52
520.85	949.88
521.21	965.51
521.57	981.59
521.93	997.24
522.29	1013.38
522.65	1029.59
523.01	1045.70
523.37	1061.67
523.73	1077.65
524.09	1093.55
524.45	1109.67
524.81	1126.16
525.17	1142.74
525.53	1159.45
525.89	1176.27
526.25	1193.01
526.61	1209.32
526.97	1225.95
527.33	1242.34
527.68	1258.78
528.04	1275.23
528.40	1291.71
528.76	1308.56
529.12	1324.96
529.48	1341.78
529.84	1357.66
530.20	1374.19
530.56	1391.03
530.91	1408.25
531.27	1425.01
531.63	1441.40
531.99	1457.74
532.35	1473.61
532.71	1489.42
533.07	1505.70
533.42	1521.49
533.78	1537.40
534.14	1553.56
534.50	1568.74
534.86	1584.51
535.21	1599.59
535.57	1615.16
535.93	1630.40
536.29	1645.00
536.65	1659.98
537.00	1674.46
537.36	1689.66
537.72	1703.99
538.08	1718.26
538.44	1731.91
538.79	1745.48
539.15	1758.82
539.51	1772.39
539.87	1786.45
540.22	1800.00
540.58	1813.46
540.94	1826.40
541.29	1838.95
541.65	1851.41
542.01	1864.32
542.37	1876.45
542.72	1888.60
543.08	1900.33
543.44	1912.59
543.79	1923.71
544.15	1934.54
544.51	1945.90
544.87	1956.73
545.22	1967.49
545.58	1977.64
545.94	1987.27
546.29	1996.95
546.65	2006.85
547.01	2016.19
547.36	2024.87
547.72	2033.27
548.07	2041.10
548.43	2049.23
548.79	2057.26
549.14	2064.90
549.50	2072.27
549.86	2079.85
550.21	2087.22
550.57	2094.32
550.92	2100.80
551.28	2107.89
551.64	2114.97
551.99	2121.47
552.35	2127.59
552.70	2133.63
553.06	2139.55
553.41	2145.96
553.77	2151.96
554.13	2158.16
554.48	2164.23
554.84	2169.75
555.19	2174.97
555.55	2180.20
555.90	2184.99
556.26	2189.97
556.61	2194.56
556.97	2198.93
557.32	2203.16
557.68	2207.39
558.03	2211.62
558.39	2215.38
558.74	2219.97
559.10	2223.74
559.45	2227.46
559.81	2231.64
560.16	2235.36
560.52	2238.54
560.87	2241.97
561.23	2244.69
561.58	2247.57
561.94	2250.20
562.29	2252.44
562.64	2255.22
563.00	2257.72
563.35	2260.92
563.71	2264.01
564.06	2267.18
564.42	2270.06
564.77	2272.72
565.12	2275.09
565.48	2277.12
565.83	2279.02
566.19	2280.42
566.54	2281.40
566.89	2282.74
567.25	2283.54
567.60	2284.79
567.96	2286.86
568.31	2287.62
568.66	2288.88
569.02	2289.51
569.37	2289.81
569.72	2290.87
570.08	2291.08
570.43	2291.13
570.78	2290.77
571.14	2289.22
571.49	2287.84
571.84	2287.38
572.20	2286.27
572.55	2285.22
572.90	2283.51
573.26	2282.34
573.61	2280.55
573.96	2279.01
574.31	2276.12
574.67	2273.09
575.02	2269.75
575.37	2266.12
575.72	2262.53
576.08	2259.20
576.43	2255.81
576.78	2252.34
577.13	2249.16
577.49	2246.12
577.84	2242.71
578.19	2238.98
578.54	2235.55
578.90	2231.61
579.25	2226.35
579.60	2221.52
579.95	2216.66
580.30	2211.83
580.66	2206.57
581.01	2201.72
581.36	2196.77
581.71	2192.71
582.06	2188.44
582.42	2184.18
582.77	2179.11
583.12	2174.73
583.47	2170.20
583.82	2165.50
584.17	2160.17
584.53	2154.83
584.88	2149.29
585.23	2143.79
585.58	2138.39
585.93	2132.89
586.28	2128.04
586.63	2123.07
586.98	2117.87
587.34	2113.12
587.69	2108.32
588.04	2103.26
588.39	2097.71
588.74	2091.19
589.09	2084.90
589.44	2078.23
589.79	2072.13
590.14	2066.51
590.49	2059.83
590.84	2053.31
591.19	2047.34
591.54	2041.01
591.89	2033.88
592.25	2027.28
592.60	2020.03
592.95	2012.66
593.30	2005.50
593.65	1997.94
594.00	1990.89
594.35	1983.72
594.70	1975.68
595.05	1968.81
595.40	1961.66
595.75	1954.20
596.10	1948.22
596.45	1941.72
596.80	1935.59
597.15	1928.99
597.50	1922.18
597.85	1915.78
598.19	1909.36
598.54	1902.37
598.89	1895.73
599.24	1889.78
599.59	1883.16
599.94	1877.00
600.29	1870.65
600.64	1863.97
600.99	1856.73
601.34	1849.93
601.69	1842.91
602.04	1836.20
602.39	1828.66
602.74	1821.83
603.08	1815.24
603.43	1808.57
603.78	1801.22
604.13	1794.07
604.48	1787.03
604.83	1780.12
605.18	1773.34
605.53	1765.39
605.87	1757.26
606.22	1750.01
606.57	1742.00
606.92	1734.50
607.27	1727.41
607.62	1720.61
607.96	1713.46
608.31	1707.03
608.66	1699.50
609.01	1692.32
609.36	1684.86
609.70	1676.87
610.05	1668.90
610.40	1661.25
610.75	1652.96
611.10	1645.35
611.44	1636.89
611.79	1628.85
612.14	1620.28
612.49	1611.05
612.83	1602.69
613.18	1594.71
613.53	1586.79
613.88	1578.34
614.22	1570.25
614.57	1561.58
614.92	1553.54
615.27	1546.27
615.61	1537.95
615.96	1530.01
616.31	1522.26
616.65	1514.95
617.00	1507.45
617.35	1499.77
617.70	1491.51
618.04	1483.11
618.39	1474.88
618.74	1467.39
619.08	1459.12
619.43	1451.52
619.78	1444.65
620.12	1437.52
620.47	1429.91
620.82	1421.71
621.16	1414.27
621.51	1406.51
621.85	1398.96
622.20	1390.49
622.55	1382.05
622.89	1374.21
623.24	1366.46
623.59	1358.94
623.93	1351.35
624.28	1344.25
624.62	1336.72
624.97	1329.61
625.32	1322.73
625.66	1315.74
626.01	1308.62
626.35	1301.42
626.70	1293.62
627.04	1285.95
627.39	1278.19
627.73	1270.85
628.08	1263.90
628.43	1256.70
628.77	1249.52
629.12	1242.00
629.46	1234.86
629.81	1227.28
630.15	1220.00
630.50	1212.68
630.84	1204.69
631.19	1196.75
631.53	1189.12
631.88	1181.59
632.22	1173.94
632.57	1166.67
632.91	1159.08
633.26	1151.78
633.60	1144.15
633.95	1136.98
634.29	1129.91
634.64	1123.19
634.98	1115.88
635.32	1108.82
635.67	1102.13
636.01	1095.53
636.36	1088.88
636.70	1082.28
637.05	1075.83
637.39	1069.46
637.73	1063.03
638.08	1056.99
638.42	1051.06
638.77	1044.75
639.11	1038.26
639.45	1031.85
639.80	1025.25
640.14	1018.94
640.49	1012.33
640.83	1006.13
641.17	1000.02
641.52	993.85
641.86	987.35
642.20	981.44
642.55	975.11
642.89	968.74
643.23	962.06
643.58	956.20
643.92	950.01
644.26	944.03
644.61	937.86
644.95	931.88
645.29	925.34
645.64	918.56
645.98	912.15
646.32	906.22
646.66	900.19
647.01	894.35
647.35	888.65
647.69	882.76
648.04	877.14
648.38	871.34
648.72	865.27
649.06	859.32
649.41	853.40
649.75	847.42
650.09	841.43
650.43	835.70
650.78	829.61
651.12	823.81
651.46	817.97
651.80	812.36
652.14	806.93
652.49	801.66
652.83	796.54
653.17	790.96
653.51	785.36
653.85	779.92
654.20	774.36
654.54	768.33
654.88	762.59
655.22	756.77
655.56	751.04
655.90	745.59
656.25	740.40
656.59	735.05
656.93	729.96
657.27	724.83
657.61	719.39
657.95	714.24
658.29	709.10
658.64	703.82
658.98	698.43
659.32	692.99
659.66	687.81
660.00	682.54
660.34	677.61
660.68	672.60
661.02	667.57
661.36	662.83
661.70	658.36
662.05	654.02
662.39	649.69
662.73	645.24
663.07	640.87
663.41	636.39
663.75	632.00
664.09	627.45
664.43	623.06
664.77	619.07
665.11	614.85
665.45	610.67
665.79	606.66
666.13	602.57
666.47	598.41
666.81	594.24
667.15	590.07
667.49	586.13
667.83	582.25
668.17	578.36
668.51	574.33
668.85	570.32
669.19	566.42
669.53	562.56
669.87	558.75
670.21	555.03
670.55	551.40
670.89	547.88
671.23	544.42
671.57	540.86
671.91	537.31
672.25	533.82
672.58	530.33
672.92	526.90
673.26	523.73
673.60	520.58
673.94	517.49
674.28	514.52
674.62	511.53
674.96	508.45
675.30	505.55
675.64	502.63
675.97	499.77
676.31	496.91
676.65	493.96
676.99	491.20
677.33	488.29
677.67	485.42
678.01	482.42
678.34	479.51
678.68	476.62
679.02	473.74
679.36	470.93
679.70	468.20
680.04	465.42
680.37	462.55
680.71	459.76
681.05	457.10
681.39	454.38
681.73	451.72
682.06	449.23
682.40	446.67
682.74	444.08
683.08	441.48
683.42	438.87
683.75	436.40
684.09	433.81
684.43	431.35
684.77	428.92
685.10	426.56
685.44	424.18
685.78	421.89
686.12	419.61
686.45	417.29
686.79	415.01
687.13	412.83
687.46	410.65
687.80	408.43
688.14	406.15
688.48	404.09
688.81	401.87
689.15	399.64
689.49	397.47
689.82	395.43
690.16	393.36
690.50	391.40
690.83	389.47
691.17	387.53
691.51	385.65
691.84	383.76
692.18	381.84
692.52	379.94
692.85	378.04
693.19	376.14
693.52	374.29
693.86	372.42
694.20	370.60
694.53	368.77
694.87	366.95
695.21	365.20
695.54	363.40
695.88	361.71
696.21	360.05
696.55	358.39
696.88	356.65
697.22	355.03
697.56	353.41
697.89	351.79
698.23	350.17
698.56	348.54
698.90	346.96
699.23	345.36
699.57	343.83
699.90	342.24
700.24	340.72
700.58	339.24
700.91	337.82
701.25	336.42
701.58	335.10
701.92	333.70
702.25	332.31
702.59	331.01
702.92	329.65
703.26	328.31
703.59	327.03
703.93	325.89
704.26	324.67
704.60	323.36
704.93	322.04
705.26	320.74
705.60	319.56
705.93	318.38
706.27	317.33
706.60	316.22
706.94	315.21
707.27	314.05
707.61	312.96
707.94	311.90
708.27	310.79
708.61	309.66
708.94	308.70
709.28	307.77
709.61	306.77
709.94	305.83
710.28	304.81
710.61	303.80
710.95	302.69
711.28	301.75
711.61	300.84
711.95	299.91
712.28	299.04
712.61	298.10
712.95	297.22
713.28	296.29
713.61	295.39
713.95	294.46
714.28	293.63
714.61	292.77
714.95	291.92
715.28	291.08
715.61	290.23
715.95	289.34
716.28	288.43
716.61	287.57
716.95	286.74
717.28	285.97
717.61	285.20
717.94	284.48
718.28	283.64
718.61	282.90
718.94	282.20
719.27	281.52
719.61	280.87
719.94	280.17
720.27	279.47
720.60	278.83
720.94	278.22
721.27	277.64
721.60	277.07
721.93	276.49
722.27	275.92
722.60	275.37
722.93	274.81
723.26	274.28
723.59	273.72
723.93	273.16
724.26	272.62
724.59	272.02
724.92	271.46
725.25	271.00
725.59	270.44
725.92	269.98
726.25	269.46
726.58	268.91
726.91	268.40
727.24	267.96
727.57	267.44
727.91	266.93
728.24	266.42
728.57	265.91
728.90	265.43
729.23	264.95
729.56	264.56
729.89	264.10
730.22	263.63
730.55	263.15
730.89	262.68
731.22	262.22
731.55	261.82
731.88	261.41
732.21	260.98
732.54	260.57
732.87	260.11
733.20	259.69
733.53	259.32
733.86	258.94
734.19	258.51
734.52	258.13
734.85	257.81
735.18	257.41
735.51	257.05
735.84	256.67
736.17	256.31
736.50	255.85
736.83	255.60
737.16	255.25
737.49	254.92
737.82	254.59
738.15	254.28
738.48	253.96
738.81	253.64
739.14	253.28
739.47	252.96
739.80	252.64
740.13	252.32
740.46	252.00
740.79	251.66
741.12	251.34
741.45	251.05
741.78	250.68
742.11	250.43
742.44	250.10
742.77	249.79
743.10	249.50
743.43	249.21
743.75	248.84
744.08	248.69
744.41	248.45
744.74	248.18
745.07	247.91
745.40	247.63
745.73	247.38
746.06	247.10
746.39	246.83
746.71	246.57
747.04	246.36
747.37	246.07
747.70	245.87
748.03	245.62
748.36	245.40
748.68	245.16
749.01	244.91
749.34	244.70
749.67	244.49
750.00	244.29
750.33	244.13
750.65	243.95
750.98	243.63
751.31	243.39
751.64	243.18
751.97	242.99
752.29	242.81
752.62	242.56
752.95	242.38
753.28	242.19
753.60	241.99
753.93	241.76
754.26	241.60
754.59	241.37
754.91	241.17
755.24	240.96
755.57	240.80
755.90	240.61
756.22	240.43
756.55	240.23
756.88	240.01
757.20	239.80
757.53	239.57
757.86	239.37
758.19	239.18
758.51	239.01
758.84	238.82
759.17	238.64
759.49	238.50
759.82	238.37
760.15	238.23
760.47	238.07
760.80	237.89
761.13	237.73
761.45	237.59
761.78	237.46
762.11	237.31
762.43	237.14
762.76	237.00
763.08	236.88
763.41	236.73
763.74	236.60
764.06	236.45
764.39	236.31
764.71	236.17
765.04	236.05
765.37	235.93
765.69	235.79
766.02	235.70
766.34	235.58
766.67	235.43
767.00	235.29
767.32	235.23
767.65	235.18
767.97	235.06
768.30	234.92
768.62	234.82
768.95	234.72
769.27	234.60
769.60	234.49
769.92	234.36
770.25	234.26
770.57	234.15
770.90	234.03
771.22	233.91
771.55	233.82
771.87	233.75
772.20	233.69
772.52	233.68
772.85	233.67
773.17	233.59
773.50	233.50
773.82	233.42
774.15	233.30
774.47	233.14
774.80	233.05
775.12	233.01
775.45	232.92
775.77	232.87
776.09	232.81
776.42	232.76
776.74	232.68
777.07	232.61
777.39	232.56
777.72	232.51
778.04	232.48
778.36	232.40
778.69	232.30
779.01	232.23
779.33	232.09
779.66	231.91
779.98	231.82
780.31	231.76
780.63	231.73
780.95	231.69
781.28	231.63
781.60	231.57
781.92	231.46
782.25	231.42
782.57	231.33
782.89	231.27
783.22	231.19
783.54	231.12
783.86	231.09
784.19	231.02
784.51	230.99
784.83	230.92
785.16	230.87
785.48	230.84
785.80	230.78
786.12	230.72
786.45	230.64
786.77	230.56
787.09	230.51
787.42	230.43
787.74	230.37
788.06	230.30
788.38	230.29
788.71	230.26
789.03	230.20
789.35	230.16
789.67	230.12
789.99	230.10
790.32	230.09
790.64	230.06
790.96	230.12
791.28	230.04
791.61	230.01
791.93	229.98
792.25	229.90
792.57	229.89
792.89	229.87
793.21	229.91
793.54	229.88
793.86	229.80
794.18	229.76
794.50	229.74
794.82	229.71
795.14	229.65
795.47	229.61
795.79	229.58
796.11	229.53
796.43	229.48
796.75	229.45
797.07	229.38
797.39	229.30
797.71	229.16
798.04	229.09
798.36	229.05
798.68	229.03
799.00	229.00
799.32	228.95
799.64	228.92
799.96	228.84
800.28	228.83
800.60	228.81
800.92	228.83
801.24	228.76
801.56	228.76
801.89	228.74
802.21	228.74
802.53	228.71
802.85	228.72
803.17	228.73
803.49	228.66
803.81	228.60
804.13	228.59
804.45	228.55
804.77	228.53
805.09	228.48
805.41	228.45
805.73	228.40
806.05	228.37
806.37	228.34
806.69	228.29
807.01	228.23
807.33	228.22
807.65	228.11
807.97	228.14
808.28	228.10
808.60	228.06
808.92	227.98
809.24	227.99
809.56	227.95
809.88	227.91
810.20	227.87
810.52	227.89
810.84	227.83
811.16	227.80
811.48	227.80
811.80	227.83
812.12	227.76
812.43	227.76
812.75	227.74
813.07	227.70
813.39	227.72
813.71	227.70
814.03	227.70
814.35	227.70
814.67	227.63
814.98	227.62
815.30	227.59
815.62	227.58
815.94	227.51
816.26	227.51
816.58	227.45
816.89	227.45
817.21	227.41
817.53	227.44
817.85	227.44
818.17	227.41
818.48	227.35
818.80	227.40
819.12	227.37
819.44	227.37
819.76	227.36
820.07	227.34
820.39	227.35
820.71	227.36
821.03	227.36
821.34	227.37
821.66	227.35
821.98	227.36
822.30	227.35
822.61	227.41
822.93	227.34
823.25	227.35
823.57	227.34
823.88	227.36
824.20	227.35
824.52	227.35
824.83	227.33
825.15	227.32
825.47	227.28
825.79	227.29
826.10	227.27
826.42	227.28
826.74	227.27
827.05	227.27
827.37	227.24
827.69	227.23
828.00	227.22
828.32	227.23
828.64	227.20
828.95	227.25
829.27	227.22
829.58	227.23
829.90	227.25
830.22	227.22
830.53	227.19
830.85	227.16
831.17	227.12
831.48	227.13
831.80	227.14
832.11	227.16
832.43	227.14
832.75	227.10
833.06	227.15
833.38	227.13
833.69	227.09
834.01	227.05
834.32	227.03
834.64	226.99
834.96	226.99
835.27	226.95
835.59	226.89
835.90	226.85
836.22	226.80
836.53	226.73
836.85	226.72
837.16	226.79
837.48	226.79
837.79	226.82
838.11	226.79
838.42	226.76
838.74	226.72
839.05	226.69
839.37	226.69
839.68	226.59
840.00	226.54
840.31	226.53
840.63	226.50
840.94	226.45
841.26	226.45
841.57	226.42
841.88	226.42
842.20	226.40
842.51	226.38
842.83	226.40
843.14	226.51
843.46	226.50
843.77	226.44
844.08	226.42
844.40	226.38
844.71	226.38
845.03	226.34
845.34	226.30
845.65	226.30
845.97	226.30
846.28	226.31
846.60	226.33
846.91	226.32
847.22	226.33
847.54	226.37
847.85	226.40
848.16	226.40
848.48	226.41
848.79	226.44
849.10	226.44
849.42	226.44
849.73	226.34
850.04	226.36
850.36	226.36
850.67	226.35
850.98	226.36
851.30	226.39
851.61	226.38
851.92	226.40
852.23	226.43
852.55	226.42
852.86	226.42
853.17	226.38
853.49	226.40
853.80	226.40
854.11	226.42
854.42	226.38
854.74	226.34
855.05	226.31
855.36	226.26
855.67	226.30
855.99	226.31
856.30	226.40
856.61	226.38
856.92	226.37
857.23	226.39
857.55	226.38
857.86	226.36
858.17	226.42
858.48	226.43
858.79	226.38
859.11	226.38
859.42	226.39
859.73	226.42
860.04	226.43
860.35	226.43
860.66	226.41
860.98	226.43
861.29	226.45
861.60	226.47
861.91	226.50
862.22	226.49
862.53	226.49
862.84	226.37
863.16	226.40
863.47	226.39
863.78	226.38
864.09	226.40
864.40	226.39
864.71	226.38
865.02	226.37
865.33	226.37
865.64	226.40
865.95	226.42
866.27	226.48
866.58	226.48
866.89	226.50
867.20	226.52
867.51	226.48
867.82	226.49
868.13	226.53
868.44	226.50
868.75	226.50
869.06	226.47
869.37	226.51
869.68	226.47
869.99	226.51
870.30	226.52
870.61	226.53
870.92	226.54
871.23	226.53
871.54	226.56
871.85	226.61
872.16	226.58
872.47	226.56
872.78	226.50
873.09	226.50
873.40	226.50
873.71	226.49
874.02	226.51
874.33	226.50
874.64	226.46
874.95	226.49
875.26	226.48
875.56	226.47
875.87	226.47
876.18	226.48
876.49	226.58
876.80	226.55
877.11	226.55
877.42	226.53
877.73	226.56
878.04	226.54
878.35	226.55
878.66	226.53
878.96	226.52
879.27	226.51
879.58	226.51
879.89	226.50
880.20	226.53
880.51	226.50
880.82	226.51
881.12	226.50
881.43	226.45
881.74	226.42
882.05	226.44
882.36	226.40
882.67	226.44
882.97	226.30
883.28	226.29
883.59	226.26
883.90	226.28
884.21	226.26
884.51	226.25
884.82	226.22
885.13	226.20
885.44	226.17
885.74	226.16
886.05	226.12
886.36	226.09
886.67	226.06
886.98	226.13
887.28	226.12
887.59	226.15
887.90	226.15
888.20	226.14
888.51	226.15
888.82	226.14
889.13	226.11
889.43	226.16
889.74	226.13
890.05	226.11
890.35	226.08
890.66	226.07
890.97	226.04
891.28	226.02
891.58	226.04
891.89	226.06
892.20	226.08
892.50	226.04
892.81	226.04
893.12	226.02
893.42	225.94
893.73	225.93
894.04	225.91
894.34	225.92
894.65	225.94
894.95	225.90
895.26	225.92
895.57	225.98
895.87	225.89
896.18	225.92
896.48	225.92
896.79	225.95
897.10	225.95
897.40	225.96
897.71	225.97
898.01	225.98
898.32	226.00
898.63	225.98
898.93	226.02
899.24	226.04
899.54	226.04
899.85	226.06
900.15	226.05
900.46	226.04
900.76	226.06
901.07	226.03
901.38	226.10
901.68	226.12
901.99	226.05
902.29	226.07
902.60	226.06
902.90	226.08
903.21	226.08
903.51	226.06
903.82	226.07
904.12	226.05
904.43	226.05
904.73	226.05
905.03	226.10
905.34	226.19
905.64	226.18
905.95	226.17
906.25	226.16
906.56	226.18
906.86	226.19
907.17	226.19
907.47	226.19
907.77	226.14
908.08	226.11
908.38	226.15
908.69	226.17
908.99	226.20
909.30	226.17
909.60	226.18
909.90	226.20
910.21	226.18
910.51	226.19
910.81	226.17
911.12	226.18
911.42	226.15
911.73	226.04
912.03	226.06
912.33	226.09
912.64	226.08
912.94	226.08
913.24	226.08
913.55	226.05
913.85	226.07
914.15	226.08
914.46	226.13
914.76	226.10
915.06	226.11
915.37	226.10
915.67	226.11
915.97	226.12
916.27	226.09
916.58	226.10
916.88	226.09
917.18	226.10
917.49	226.14
917.79	226.13
918.09	226.18
918.39	226.22
918.70	226.22
919.00	226.23
919.30	226.27
919.60	226.26
919.91	226.26
920.21	226.28
920.51	226.27
920.81	226.23
921.12	226.24
921.42	226.23
921.72	226.19
922.02	226.19
922.32	226.20
922.63	226.22
922.93	226.26
923.23	226.27
923.53	226.24
923.83	226.18
924.13	226.21
924.44	226.19
924.74	226.19
925.04	226.17
925.34	226.16
925.64	226.11
925.94	226.07
926.24	226.13
926.55	226.08
926.85	226.08
927.15	226.10
927.45	226.07
927.75	226.06
928.05	226.07
928.35	226.06
928.65	226.05
928.95	226.04
929.26	225.97
929.56	225.99
929.86	226.03
930.16	226.02
930.46	226.00
930.76	225.96
931.06	225.90
931.36	225.87
931.66	225.89
931.96	225.87
932.26	225.90
932.56	225.83
932.86	225.84
933.16	225.81
933.46	225.81
933.76	225.82
934.06	225.79
934.36	225.83
934.66	225.80
934.96	225.78
935.26	225.76
935.56	225.77
935.86	225.72
936.16	225.68
936.46	225.67
936.76	225.64
937.06	225.65
937.36	225.66
937.66	225.66
937.96	225.66
938.26	225.65
938.56	225.63
938.86	225.62
939.16	225.65
939.46	225.65
939.76	225.64
940.06	225.64
940.35	225.67
940.65	225.60
940.95	225.60
941.25	225.59
941.55	225.57
941.85	225.55
942.15	225.60
942.45	225.63
942.75	225.61
943.04	225.61
943.34	225.63
943.64	225.62
943.94	225.63
944.24	225.64
944.54	225.66
944.84	225.67
945.13	225.67
945.43	225.64
945.73	225.68
946.03	225.65
946.33	225.62
946.62	225.60
946.92	225.61
947.22	225.63
947.52	225.63
947.82	225.67
948.11	225.67
948.41	225.64
948.71	225.61
949.01	225.62
949.31	225.61
949.60	225.61
949.90	225.63
950.20	225.60
950.50	225.60
950.79	225.58
951.09	225.60
951.39	225.62
951.69	225.62
951.98	225.62
952.28	225.61
952.58	225.61
952.87	225.60
953.17	225.64
953.47	225.60
953.76	225.61
954.06	225.59
954.36	225.58
954.66	225.59
954.95	225.62
955.25	225.63
955.55	225.63
955.84	225.60
956.14	225.58
956.44	225.59
956.73	225.55
957.03	225.56
957.32	225.54
957.62	225.52
957.92	225.52
958.21	225.50
958.51	225.63
958.81	225.64
959.10	225.62
959.40	225.64
959.69	225.68
959.99	225.66
960.29	225.67
960.58	225.65
960.88	225.69
961.17	225.64
961.47	225.64
961.76	225.65
962.06	225.65
962.36	225.64
962.65	225.65
962.95	225.67
963.24	225.67
963.54	225.68
963.83	225.67
964.13	225.68
964.42	225.66
964.72	225.60
965.01	225.60
965.31	225.61
965.60	225.60
965.90	225.66
966.19	225.65
966.49	225.65
966.78	225.65
967.08	225.66
967.37	225.70
967.67	225.71
967.96	225.72
968.26	225.75
968.55	225.76
968.85	225.74
969.14	225.70
969.43	225.69
969.73	225.68
970.02	225.68
970.32	225.68
970.61	225.69
970.91	225.62
971.20	225.63
971.49	225.63
971.79	225.63
972.08	225.54
972.38	225.54
972.67	225.51
972.96	225.53
973.26	225.50
973.55	225.51
973.85	225.50
974.14	225.51
974.43	225.49
974.73	225.46
975.02	225.46
975.31	225.48
975.61	225.48
975.90	225.51
976.19	225.49
976.49	225.49
976.78	225.48
977.07	225.50
977.37	225.46
977.66	225.47
977.95	225.44
978.24	225.46
978.54	225.47
978.83	225.47
979.12	225.47
979.42	225.51
979.71	225.50
980.00	225.49
980.29	225.48
980.59	225.51
980.88	225.56
981.17	225.57
981.46	225.56
981.76	225.53
982.05	225.54
982.34	225.58
982.63	225.59
982.93	225.59
983.22	225.65
983.51	225.68
983.80	225.71
984.09	225.77
984.39	225.78
984.68	225.77
984.97	225.77
985.26	225.74
985.55	225.71
985.85	225.66
986.14	225.68
986.43	225.69
986.72	225.63
987.01	225.61
987.30	225.60
987.59	225.64
987.89	225.65
988.18	225.64
988.47	225.62
988.76	225.61
989.05	225.60
989.34	225.61
989.63	225.62
989.92	225.61
990.22	225.56
990.51	225.56
990.80	225.57
991.09	225.60
991.38	225.62
991.67	225.58
991.96	225.60
992.25	225.58
992.54	225.57
992.83	225.57
993.12	225.56
993.41	225.57
993.70	225.60
993.99	225.60
994.28	225.63
994.58	225.62
994.87	225.61
995.16	225.64
995.45	225.59
995.74	225.58
996.03	225.59
996.32	225.63
996.61	225.62
996.90	225.62
997.19	225.59
997.48	225.58
997.77	225.60
998.06	225.58
998.34	225.60
998.63	225.60
998.92	225.63
999.21	225.63
999.50	225.68
999.79	225.61
1000.08	225.64
1000.37	225.60
1000.66	225.60
1000.95	225.63
1001.24	225.59
1001.53	225.61
1001.82	225.57
1002.11	225.55
1002.40	225.52
1002.68	225.54
1002.97	225.62
1003.26	225.61
1003.55	225.63
1003.84	225.64
1004.13	225.67
1004.42	225.64
1004.71	225.64
1004.99	225.61
1005.28	225.64
1005.57	225.62
1005.86	225.63
1006.15	225.63
1006.44	225.59
1006.72	225.61
1007.01	225.56
1007.30	225.57
1007.59	225.55
1007.88	225.56
1008.17	225.56
1008.45	225.55
1008.74	225.49
1009.03	225.46
1009.32	225.46
1009.60	225.45
1009.89	225.44
1010.18	225.39
1010.47	225.41
1010.76	225.40
1011.04	225.43
1011.33	225.43
1011.62	225.42
1011.91	225.42
1012.19	225.41
1012.48	225.44
1012.77	225.45
1013.05	225.51
1013.34	225.53
1013.63	225.52
1013.92	225.53
1014.20	225.55
1014.49	225.56
1014.78	225.58
1015.06	225.54
1015.35	225.53
1015.64	225.54
1015.92	225.56
1016.21	225.60
1016.50	225.63
1016.78	225.65
1017.07	225.64
1017.36	225.63
1017.64	225.62
1017.93	225.64
1018.22	225.63
1018.50	225.65
1018.79	225.65
1019.08	225.62
1019.36	225.63
1019.65	225.64
1019.93	225.67
1020.22	225.68
1020.51	225.76
1020.79	225.81
1021.08	225.33
1021.36	225.79
1021.65	225.72
1021.94	225.65
1022.22	226.07
1022.51	225.68
1022.79	226.22
1023.08	225.74
1023.36	227.37
1023.65	226.38
>>>>>End Processed Spectral Data<<<<<
