SpectraSuite Data File
++++++++++++++++++++++++++++++++++++
Date: Fri Feb 01 17:37:20 EST 2013
User: group
Dark Spectrum Present: No
Reference Spectrum Present: No
Number of Sampled Component Spectra: 1
Spectrometers: USB2E7196
Integration Time (usec): 35000 (USB2E7196)
Spectra Averaged: 100 (USB2E7196)
Boxcar Smoothing: 10 (USB2E7196)
Correct for Electrical Dark: No (USB2E7196)
Strobe/Lamp Enabled: No (USB2E7196)
Correct for Detector Non-linearity: No (USB2E7196)
Correct for Stray Light: No (USB2E7196)
Number of Pixels in Processed Spectrum: 2048
>>>>>Begin Processed Spectral Data<<<<<
339.09	0.00
339.48	212.97
339.86	215.53
340.24	215.23
340.63	217.01
341.01	220.91
341.39	220.12
341.78	221.35
342.16	222.87
342.54	223.44
342.93	211.64
343.31	222.36
343.69	222.91
344.07	223.32
344.46	223.78
344.84	224.18
345.22	224.37
345.60	224.63
345.99	224.79
346.37	224.92
346.75	225.02
347.13	225.08
347.52	225.13
347.90	225.22
348.28	225.24
348.66	225.30
349.05	225.28
349.43	225.31
349.81	225.33
350.19	225.36
350.57	225.40
350.96	225.49
351.34	225.53
351.72	225.62
352.10	225.71
352.48	225.77
352.87	225.85
353.25	225.91
353.63	225.96
354.01	226.02
354.39	226.07
354.77	226.14
355.15	226.25
355.54	226.31
355.92	226.37
356.30	226.43
356.68	226.54
357.06	226.59
357.44	226.65
357.82	226.70
358.20	226.76
358.58	226.82
358.97	226.86
359.35	226.92
359.73	227.01
360.11	227.05
360.49	227.13
360.87	227.14
361.25	227.19
361.63	227.27
362.01	227.35
362.39	227.38
362.77	227.40
363.15	227.40
363.53	227.44
363.91	227.43
364.29	227.49
364.67	227.40
365.05	227.44
365.43	227.45
365.81	227.47
366.19	227.52
366.57	227.54
366.95	227.54
367.33	227.53
367.71	227.47
368.09	227.49
368.47	227.47
368.85	227.47
369.23	227.47
369.61	227.40
369.99	227.41
370.37	227.43
370.75	227.43
371.13	227.40
371.51	227.33
371.89	227.32
372.27	227.24
372.65	227.22
373.03	227.21
373.41	227.17
373.78	227.15
374.16	227.06
374.54	227.01
374.92	226.96
375.30	226.93
375.68	226.86
376.06	226.82
376.44	226.71
376.82	226.64
377.19	226.57
377.57	226.51
377.95	226.39
378.33	226.30
378.71	226.20
379.09	226.15
379.47	226.13
379.84	226.04
380.22	226.02
380.60	225.91
380.98	225.83
381.36	225.74
381.73	225.65
382.11	225.59
382.49	225.52
382.87	225.42
383.25	225.34
383.62	225.41
384.00	225.34
384.38	225.33
384.76	225.29
385.13	225.29
385.51	225.24
385.89	225.19
386.27	225.16
386.64	225.13
387.02	225.06
387.40	224.98
387.78	224.98
388.15	224.94
388.53	224.92
388.91	224.86
389.29	224.83
389.66	224.80
390.04	224.80
390.42	224.82
390.79	224.82
391.17	224.82
391.55	224.69
391.92	224.67
392.30	224.64
392.68	224.64
393.05	224.63
393.43	224.65
393.81	224.66
394.18	224.62
394.56	224.61
394.94	224.66
395.31	224.67
395.69	224.70
396.06	224.69
396.44	224.73
396.82	224.77
397.19	224.88
397.57	224.91
397.95	224.95
398.32	224.93
398.70	224.95
399.07	224.99
399.45	225.06
399.82	225.10
400.20	225.15
400.58	225.20
400.95	225.21
401.33	225.29
401.70	225.44
402.08	225.56
402.45	225.64
402.83	225.71
403.20	225.79
403.58	225.86
403.95	225.98
404.33	226.10
404.71	226.22
405.08	226.35
405.46	226.47
405.83	226.59
406.21	226.76
406.58	226.92
406.96	227.12
407.33	227.28
407.70	227.47
408.08	227.75
408.45	227.95
408.83	228.19
409.20	228.38
409.58	228.54
409.95	228.78
410.33	229.06
410.70	229.35
411.08	229.66
411.45	229.98
411.82	230.32
412.20	230.69
412.57	231.14
412.95	231.43
413.32	231.84
413.69	232.26
414.07	232.73
414.44	233.20
414.82	233.64
415.19	234.17
415.56	234.76
415.94	235.34
416.31	236.00
416.68	236.63
417.06	237.42
417.43	238.15
417.81	238.95
418.18	239.77
418.55	240.61
418.93	241.49
419.30	242.43
419.67	243.40
420.04	244.41
420.42	245.42
420.79	246.68
421.16	247.89
421.54	249.15
421.91	250.36
422.28	251.70
422.66	253.09
423.03	254.48
423.40	255.85
423.77	257.31
424.15	258.82
424.52	260.40
424.89	262.05
425.26	263.64
425.64	265.16
426.01	266.84
426.38	268.55
426.75	270.30
427.13	272.08
427.50	273.95
427.87	275.89
428.24	277.81
428.61	279.66
428.99	281.72
429.36	283.92
429.73	286.09
430.10	288.18
430.47	290.33
430.85	292.57
431.22	294.90
431.59	297.37
431.96	299.68
432.33	302.33
432.70	304.81
433.08	307.74
433.45	310.51
433.82	313.22
434.19	316.24
434.56	319.20
434.93	322.02
435.30	324.81
435.68	327.82
436.05	330.81
436.42	333.71
436.79	336.31
437.16	339.12
437.53	342.10
437.90	345.09
438.27	347.99
438.64	350.91
439.01	353.65
439.38	355.96
439.75	358.19
440.13	360.75
440.50	363.16
440.87	365.14
441.24	367.13
441.61	369.36
441.98	370.94
442.35	372.81
442.72	374.71
443.09	376.60
443.46	377.63
443.83	378.23
444.20	378.74
444.57	379.65
444.94	379.97
445.31	380.34
445.68	380.67
446.05	380.78
446.42	380.42
446.79	379.98
447.16	379.57
447.53	379.28
447.90	378.05
448.27	376.91
448.64	375.29
449.01	374.14
449.37	372.13
449.74	370.16
450.11	367.85
450.48	365.31
450.85	362.65
451.22	360.44
451.59	358.33
451.96	356.34
452.33	353.64
452.70	351.18
453.07	348.23
453.43	345.26
453.80	342.32
454.17	339.56
454.54	336.92
454.91	334.07
455.28	331.28
455.65	328.74
456.02	326.16
456.38	323.90
456.75	321.11
457.12	318.79
457.49	316.52
457.86	314.22
458.23	312.27
458.59	310.13
458.96	307.96
459.33	306.06
459.70	304.09
460.07	302.50
460.43	300.71
460.80	299.01
461.17	297.50
461.54	295.94
461.91	294.47
462.27	292.96
462.64	291.67
463.01	290.25
463.38	288.89
463.74	287.46
464.11	286.20
464.48	285.10
464.85	283.89
465.21	282.97
465.58	282.01
465.95	280.84
466.32	279.91
466.68	278.97
467.05	278.03
467.42	277.08
467.78	276.14
468.15	275.22
468.52	274.52
468.88	273.58
469.25	272.79
469.62	272.09
469.98	271.39
470.35	270.72
470.72	270.13
471.08	269.43
471.45	268.89
471.82	268.34
472.18	267.75
472.55	267.29
472.92	266.76
473.28	266.28
473.65	265.88
474.02	265.40
474.38	265.02
474.75	264.70
475.11	264.35
475.48	264.06
475.85	263.83
476.21	263.59
476.58	263.45
476.94	263.30
477.31	263.12
477.67	262.95
478.04	262.87
478.41	262.76
478.77	262.82
479.14	262.76
479.50	262.74
479.87	262.83
480.23	262.95
480.60	263.00
480.96	263.08
481.33	263.25
481.69	263.46
482.06	263.64
482.42	263.85
482.79	264.09
483.15	264.42
483.52	264.78
483.88	265.14
484.25	265.49
484.61	265.89
484.98	266.35
485.34	266.94
485.71	267.48
486.07	268.12
486.44	268.66
486.80	269.36
487.17	270.12
487.53	270.88
487.90	271.73
488.26	272.67
488.62	273.67
488.99	274.64
489.35	275.69
489.72	276.82
490.08	277.95
490.44	279.21
490.81	280.52
491.17	281.81
491.54	283.30
491.90	284.82
492.26	286.48
492.63	288.20
492.99	289.92
493.36	291.82
493.72	293.89
494.08	295.97
494.45	298.19
494.81	300.51
495.17	302.92
495.54	305.42
495.90	308.05
496.26	310.82
496.63	313.71
496.99	316.76
497.35	319.95
497.72	323.34
498.08	326.81
498.44	330.46
498.80	334.37
499.17	338.37
499.53	342.55
499.89	346.86
500.26	351.27
500.62	355.91
500.98	360.85
501.34	365.78
501.71	371.05
502.07	376.46
502.43	381.97
502.79	387.69
503.16	393.68
503.52	399.82
503.88	406.09
504.24	412.61
504.60	419.36
504.97	426.38
505.33	433.58
505.69	441.17
506.05	448.79
506.41	456.50
506.78	464.45
507.14	472.72
507.50	481.27
507.86	490.17
508.22	499.18
508.59	508.13
508.95	517.43
509.31	526.99
509.67	536.75
510.03	546.84
510.39	557.17
510.75	567.65
511.12	578.30
511.48	589.32
511.84	600.51
512.20	611.78
512.56	623.43
512.92	635.30
513.28	647.30
513.64	659.43
514.00	671.85
514.37	684.49
514.73	697.14
515.09	709.75
515.45	722.63
515.81	735.74
516.17	749.29
516.53	763.15
516.89	776.96
517.25	790.76
517.61	804.67
517.97	818.70
518.33	832.79
518.69	847.17
519.05	861.69
519.41	876.37
519.77	891.30
520.13	906.25
520.49	921.13
520.85	935.92
521.21	951.01
521.57	966.69
521.93	981.94
522.29	997.64
522.65	1013.38
523.01	1029.07
523.37	1044.64
523.73	1060.33
524.09	1075.89
524.45	1091.64
524.81	1107.78
525.17	1124.02
525.53	1140.34
525.89	1156.67
526.25	1172.98
526.61	1188.86
526.97	1205.14
527.33	1221.22
527.68	1237.24
528.04	1253.24
528.40	1269.35
528.76	1286.00
529.12	1302.10
529.48	1318.50
529.84	1334.13
530.20	1350.17
530.56	1366.59
530.91	1383.38
531.27	1399.62
531.63	1415.53
531.99	1431.57
532.35	1447.24
532.71	1462.71
533.07	1478.63
533.42	1494.18
533.78	1509.83
534.14	1525.65
534.50	1540.62
534.86	1556.06
535.21	1570.95
535.57	1586.33
535.93	1601.49
536.29	1615.82
536.65	1630.42
537.00	1644.70
537.36	1659.76
537.72	1673.96
538.08	1688.11
538.44	1701.73
538.79	1715.35
539.15	1728.74
539.51	1742.22
539.87	1756.20
540.22	1769.65
540.58	1782.98
540.94	1795.91
541.29	1808.37
541.65	1820.84
542.01	1833.56
542.37	1845.70
542.72	1857.90
543.08	1869.64
543.44	1881.90
543.79	1893.08
544.15	1904.07
544.51	1915.64
544.87	1926.41
545.22	1937.36
545.58	1947.54
545.94	1957.31
546.29	1967.05
546.65	1976.96
547.01	1986.37
547.36	1995.14
547.72	2003.80
548.07	2011.94
548.43	2020.24
548.79	2028.30
549.14	2036.05
549.50	2043.66
549.86	2051.36
550.21	2058.89
550.57	2066.33
550.92	2073.21
551.28	2080.59
551.64	2087.92
551.99	2094.55
552.35	2100.99
552.70	2107.40
553.06	2113.85
553.41	2120.36
553.77	2126.61
554.13	2132.82
554.48	2139.24
554.84	2145.07
555.19	2150.54
555.55	2156.00
555.90	2160.76
556.26	2166.29
556.61	2171.31
556.97	2176.21
557.32	2180.83
557.68	2185.29
558.03	2189.81
558.39	2193.70
558.74	2198.52
559.10	2202.71
559.45	2206.83
559.81	2211.33
560.16	2215.40
560.52	2218.85
560.87	2222.66
561.23	2225.83
561.58	2229.24
561.94	2232.10
562.29	2234.71
562.64	2238.03
563.00	2240.91
563.35	2244.71
563.71	2248.12
564.06	2251.53
564.42	2254.74
564.77	2257.66
565.12	2260.57
565.48	2263.04
565.83	2265.49
566.19	2267.43
566.54	2268.59
566.89	2270.21
567.25	2271.54
567.60	2273.20
567.96	2275.39
568.31	2276.73
568.66	2278.24
569.02	2279.33
569.37	2280.09
569.72	2281.45
570.08	2282.09
570.43	2282.65
570.78	2282.74
571.14	2281.75
571.49	2280.90
571.84	2280.86
572.20	2280.26
572.55	2279.49
572.90	2278.12
573.26	2277.18
573.61	2275.67
573.96	2274.64
574.31	2272.09
574.67	2269.56
575.02	2266.34
575.37	2263.35
575.72	2260.15
576.08	2257.21
576.43	2253.99
576.78	2250.94
577.13	2247.90
577.49	2244.85
577.84	2241.71
578.19	2238.11
578.54	2234.87
578.90	2231.23
579.25	2226.09
579.60	2221.68
579.95	2217.13
580.30	2212.62
580.66	2207.73
581.01	2203.14
581.36	2198.55
581.71	2194.90
582.06	2190.81
582.42	2186.89
582.77	2182.01
583.12	2177.68
583.47	2173.53
583.82	2169.16
584.17	2164.10
584.53	2159.14
584.88	2154.00
585.23	2148.75
585.58	2143.79
585.93	2138.54
586.28	2133.85
586.63	2129.23
586.98	2124.25
587.34	2119.70
587.69	2115.04
588.04	2110.20
588.39	2104.93
588.74	2098.63
589.09	2092.74
589.44	2086.26
589.79	2080.27
590.14	2074.89
590.49	2068.55
590.84	2062.27
591.19	2056.56
591.54	2050.34
591.89	2043.34
592.25	2036.96
592.60	2029.90
592.95	2022.70
593.30	2015.60
593.65	2008.31
594.00	2001.50
594.35	1994.49
594.70	1986.55
595.05	1979.79
595.40	1972.74
595.75	1965.37
596.10	1959.52
596.45	1952.99
596.80	1947.00
597.15	1940.79
597.50	1934.11
597.85	1927.70
598.19	1921.25
598.54	1914.38
598.89	1907.96
599.24	1902.06
599.59	1895.46
599.94	1889.35
600.29	1883.04
600.64	1876.49
600.99	1869.30
601.34	1862.62
601.69	1855.57
602.04	1849.08
602.39	1841.69
602.74	1834.94
603.08	1828.38
603.43	1821.68
603.78	1814.53
604.13	1807.31
604.48	1800.02
604.83	1793.20
605.18	1786.53
605.53	1778.63
605.87	1770.68
606.22	1763.36
606.57	1755.54
606.92	1748.04
607.27	1740.95
607.62	1734.20
607.96	1727.08
608.31	1720.70
608.66	1713.13
609.01	1705.86
609.36	1698.37
609.70	1690.40
610.05	1682.36
610.40	1674.74
610.75	1666.40
611.10	1658.58
611.44	1650.10
611.79	1641.91
612.14	1633.20
612.49	1623.97
612.83	1615.47
613.18	1607.20
613.53	1599.13
613.88	1590.60
614.22	1582.45
614.57	1573.78
614.92	1565.53
615.27	1558.14
615.61	1549.59
615.96	1541.47
616.31	1533.63
616.65	1526.09
617.00	1518.52
617.35	1510.76
617.70	1502.41
618.04	1493.89
618.39	1485.55
618.74	1477.98
619.08	1469.78
619.43	1461.99
619.78	1454.92
620.12	1447.86
620.47	1440.28
620.82	1431.97
621.16	1424.36
621.51	1416.66
621.85	1408.83
622.20	1400.30
622.55	1391.70
622.89	1383.82
623.24	1375.95
623.59	1368.41
623.93	1360.83
624.28	1353.45
624.62	1345.91
624.97	1338.61
625.32	1331.61
625.66	1324.46
626.01	1317.21
626.35	1309.87
626.70	1301.97
627.04	1294.23
627.39	1286.28
627.73	1278.73
628.08	1271.80
628.43	1264.60
628.77	1257.19
629.12	1249.73
629.46	1242.44
629.81	1234.83
630.15	1227.39
630.50	1220.02
630.84	1211.89
631.19	1203.78
631.53	1196.16
631.88	1188.41
632.22	1180.72
632.57	1173.39
632.91	1165.79
633.26	1158.32
633.60	1150.72
633.95	1143.56
634.29	1136.40
634.64	1129.60
634.98	1122.16
635.32	1114.90
635.67	1108.09
636.01	1101.30
636.36	1094.47
636.70	1087.88
637.05	1081.28
637.39	1074.89
637.73	1068.41
638.08	1062.37
638.42	1056.34
638.77	1049.84
639.11	1043.34
639.45	1036.92
639.80	1030.22
640.14	1023.84
640.49	1017.32
640.83	1010.91
641.17	1004.66
641.52	998.28
641.86	991.76
642.20	985.97
642.55	979.64
642.89	973.15
643.23	966.52
643.58	960.64
643.92	954.45
644.26	948.51
644.61	942.26
644.95	936.22
645.29	929.71
645.64	922.90
645.98	916.59
646.32	910.58
646.66	904.46
647.01	898.61
647.35	892.83
647.69	886.82
648.04	881.40
648.38	875.59
648.72	869.71
649.06	863.75
649.41	857.73
649.75	851.82
650.09	845.86
650.43	840.12
650.78	833.95
651.12	827.94
651.46	822.13
651.80	816.63
652.14	811.09
652.49	805.75
652.83	800.63
653.17	795.05
653.51	789.38
653.85	783.89
654.20	778.33
654.54	772.40
654.88	766.60
655.22	760.60
655.56	754.88
655.90	749.32
656.25	744.03
656.59	738.69
656.93	733.60
657.27	728.44
657.61	722.97
657.95	717.87
658.29	712.80
658.64	707.49
658.98	701.98
659.32	696.52
659.66	691.25
660.00	685.99
660.34	680.90
660.68	675.96
661.02	671.05
661.36	666.26
661.70	661.77
662.05	657.50
662.39	653.21
662.73	648.75
663.07	644.35
663.41	639.88
663.75	635.44
664.09	630.79
664.43	626.40
664.77	622.33
665.11	618.05
665.45	613.87
665.79	609.88
666.13	605.79
666.47	601.64
666.81	597.52
667.15	593.29
667.49	589.34
667.83	585.40
668.17	581.37
668.51	577.36
668.85	573.30
669.19	569.37
669.53	565.55
669.87	561.68
670.21	557.92
670.55	554.28
670.89	550.80
671.23	547.36
671.57	543.77
671.91	540.19
672.25	536.70
672.58	533.21
672.92	529.68
673.26	526.46
673.60	523.31
673.94	520.19
674.28	517.22
674.62	514.28
674.96	511.21
675.30	508.36
675.64	505.40
675.97	502.52
676.31	499.63
676.65	496.62
676.99	493.84
677.33	491.00
677.67	488.12
678.01	485.08
678.34	482.19
678.68	479.31
679.02	476.52
679.36	473.64
679.70	470.85
680.04	468.07
680.37	465.24
680.71	462.45
681.05	459.82
681.39	457.09
681.73	454.38
682.06	451.88
682.40	449.27
682.74	446.72
683.08	444.16
683.42	441.54
683.75	439.06
684.09	436.55
684.43	434.01
684.77	431.56
685.10	429.19
685.44	426.75
685.78	424.42
686.12	422.14
686.45	419.88
686.79	417.60
687.13	415.35
687.46	413.17
687.80	411.01
688.14	408.71
688.48	406.64
688.81	404.45
689.15	402.24
689.49	400.08
689.82	397.96
690.16	395.81
690.50	393.86
690.83	391.91
691.17	389.85
691.51	387.97
691.84	386.13
692.18	384.19
692.52	382.23
692.85	380.24
693.19	378.34
693.52	376.44
693.86	374.61
694.20	372.78
694.53	370.95
694.87	369.07
695.21	367.22
695.54	365.36
695.88	363.57
696.21	361.83
696.55	360.12
696.88	358.38
697.22	356.70
697.56	355.02
697.89	353.32
698.23	351.74
698.56	350.11
698.90	348.49
699.23	346.84
699.57	345.30
699.90	343.83
700.24	342.24
700.58	340.75
700.91	339.24
701.25	337.80
701.58	336.41
701.92	334.99
702.25	333.62
702.59	332.27
702.92	330.91
703.26	329.58
703.59	328.27
703.93	327.06
704.26	325.83
704.60	324.54
704.93	323.27
705.26	321.95
705.60	320.70
705.93	319.44
706.27	318.36
706.60	317.25
706.94	316.10
707.27	314.93
707.61	313.79
707.94	312.72
708.27	311.61
708.61	310.49
708.94	309.47
709.28	308.50
709.61	307.50
709.94	306.51
710.28	305.49
710.61	304.48
710.95	303.38
711.28	302.46
711.61	301.49
711.95	300.57
712.28	299.63
712.61	298.64
712.95	297.71
713.28	296.78
713.61	295.86
713.95	294.97
714.28	294.15
714.61	293.29
714.95	292.43
715.28	291.56
715.61	290.66
715.95	289.76
716.28	288.85
716.61	287.99
716.95	287.15
717.28	286.38
717.61	285.63
717.94	284.88
718.28	284.05
718.61	283.28
718.94	282.54
719.27	281.86
719.61	281.22
719.94	280.53
720.27	279.84
720.60	279.17
720.94	278.55
721.27	277.93
721.60	277.31
721.93	276.72
722.27	276.15
722.60	275.60
722.93	275.04
723.26	274.50
723.59	273.97
723.93	273.43
724.26	272.87
724.59	272.29
724.92	271.75
725.25	271.20
725.59	270.68
725.92	270.16
726.25	269.61
726.58	269.11
726.91	268.63
727.24	268.18
727.57	267.67
727.91	267.14
728.24	266.67
728.57	266.18
728.90	265.71
729.23	265.22
729.56	264.81
729.89	264.34
730.22	263.84
730.55	263.36
730.89	262.90
731.22	262.47
731.55	262.02
731.88	261.59
732.21	261.16
732.54	260.74
732.87	260.31
733.20	259.92
733.53	259.51
733.86	259.13
734.19	258.68
734.52	258.32
734.85	257.98
735.18	257.53
735.51	257.18
735.84	256.75
736.17	256.40
736.50	255.94
736.83	255.69
737.16	255.34
737.49	255.00
737.82	254.66
738.15	254.29
738.48	253.94
738.81	253.61
739.14	253.28
739.47	252.99
739.80	252.67
740.13	252.35
740.46	252.01
740.79	251.65
741.12	251.32
741.45	250.99
741.78	250.64
742.11	250.37
742.44	250.00
742.77	249.75
743.10	249.40
743.43	249.16
743.75	248.74
744.08	248.61
744.41	248.34
744.74	248.05
745.07	247.75
745.40	247.49
745.73	247.24
746.06	246.92
746.39	246.63
746.71	246.36
747.04	246.08
747.37	245.83
747.70	245.61
748.03	245.36
748.36	245.10
748.68	244.85
749.01	244.61
749.34	244.38
749.67	244.14
750.00	243.91
750.33	243.73
750.65	243.56
750.98	243.20
751.31	242.94
751.64	242.74
751.97	242.59
752.29	242.40
752.62	242.15
752.95	241.97
753.28	241.75
753.60	241.54
753.93	241.38
754.26	241.15
754.59	240.92
754.91	240.71
755.24	240.51
755.57	240.31
755.90	240.11
756.22	239.95
756.55	239.76
756.88	239.58
757.20	239.30
757.53	239.08
757.86	238.91
758.19	238.77
758.51	238.61
758.84	238.40
759.17	238.24
759.49	238.07
759.82	237.95
760.15	237.81
760.47	237.69
760.80	237.49
761.13	237.39
761.45	237.26
761.78	237.12
762.11	236.99
762.43	236.86
762.76	236.71
763.08	236.58
763.41	236.46
763.74	236.33
764.06	236.22
764.39	236.11
764.71	235.95
765.04	235.78
765.37	235.64
765.69	235.51
766.02	235.34
766.34	235.22
766.67	235.07
767.00	234.99
767.32	234.92
767.65	234.88
767.97	234.75
768.30	234.62
768.62	234.52
768.95	234.41
769.27	234.32
769.60	234.23
769.92	234.14
770.25	234.01
770.57	233.89
770.90	233.81
771.22	233.70
771.55	233.65
771.87	233.62
772.20	233.51
772.52	233.51
772.85	233.53
773.17	233.42
773.50	233.34
773.82	233.20
774.15	233.05
774.47	232.88
774.80	232.78
775.12	232.69
775.45	232.62
775.77	232.53
776.09	232.45
776.42	232.37
776.74	232.30
777.07	232.20
777.39	232.17
777.72	232.06
778.04	231.98
778.36	231.85
778.69	231.75
779.01	231.70
779.33	231.54
779.66	231.36
779.98	231.27
780.31	231.22
780.63	231.22
780.95	231.13
781.28	231.04
781.60	230.96
781.92	230.91
782.25	230.84
782.57	230.79
782.89	230.70
783.22	230.62
783.54	230.53
783.86	230.50
784.19	230.42
784.51	230.38
784.83	230.31
785.16	230.26
785.48	230.21
785.80	230.14
786.12	230.05
786.45	230.02
786.77	230.02
787.09	229.93
787.42	229.83
787.74	229.83
788.06	229.81
788.38	229.75
788.71	229.66
789.03	229.59
789.35	229.53
789.67	229.45
789.99	229.41
790.32	229.36
790.64	229.30
790.96	229.31
791.28	229.23
791.61	229.19
791.93	229.16
792.25	229.11
792.57	229.12
792.89	229.08
793.21	229.03
793.54	229.00
793.86	228.94
794.18	228.90
794.50	228.82
794.82	228.79
795.14	228.78
795.47	228.79
795.79	228.78
796.11	228.71
796.43	228.72
796.75	228.69
797.07	228.63
797.39	228.61
797.71	228.51
798.04	228.48
798.36	228.46
798.68	228.42
799.00	228.41
799.32	228.33
799.64	228.31
799.96	228.30
800.28	228.24
800.60	228.21
800.92	228.17
801.24	228.13
801.56	228.12
801.89	228.07
802.21	228.03
802.53	227.95
802.85	227.97
803.17	227.96
803.49	227.93
803.81	227.94
804.13	227.92
804.45	227.89
804.77	227.88
805.09	227.86
805.41	227.81
805.73	227.75
806.05	227.71
806.37	227.67
806.69	227.63
807.01	227.64
807.33	227.63
807.65	227.60
807.97	227.64
808.28	227.58
808.60	227.55
808.92	227.50
809.24	227.56
809.56	227.51
809.88	227.48
810.20	227.44
810.52	227.41
810.84	227.37
811.16	227.32
811.48	227.30
811.80	227.31
812.12	227.27
812.43	227.28
812.75	227.28
813.07	227.25
813.39	227.25
813.71	227.19
814.03	227.17
814.35	227.19
814.67	227.12
814.98	227.11
815.30	227.07
815.62	227.05
815.94	226.95
816.26	226.96
816.58	226.90
816.89	226.88
817.21	226.84
817.53	226.83
817.85	226.80
818.17	226.78
818.48	226.74
818.80	226.75
819.12	226.70
819.44	226.66
819.76	226.64
820.07	226.58
820.39	226.57
820.71	226.53
821.03	226.48
821.34	226.48
821.66	226.44
821.98	226.44
822.30	226.43
822.61	226.49
822.93	226.45
823.25	226.45
823.57	226.44
823.88	226.44
824.20	226.41
824.52	226.43
824.83	226.38
825.15	226.35
825.47	226.33
825.79	226.32
826.10	226.31
826.42	226.28
826.74	226.30
827.05	226.30
827.37	226.27
827.69	226.25
828.00	226.22
828.32	226.20
828.64	226.16
828.95	226.20
829.27	226.18
829.58	226.17
829.90	226.15
830.22	226.15
830.53	226.12
830.85	226.13
831.17	226.09
831.48	226.08
831.80	226.08
832.11	226.07
832.43	226.03
832.75	225.99
833.06	226.06
833.38	226.02
833.69	225.97
834.01	225.98
834.32	226.00
834.64	225.97
834.96	225.97
835.27	225.99
835.59	225.95
835.90	225.86
836.22	225.87
836.53	225.81
836.85	225.79
837.16	225.86
837.48	225.86
837.79	225.90
838.11	225.91
838.42	225.92
838.74	225.91
839.05	225.94
839.37	225.93
839.68	225.85
840.00	225.84
840.31	225.86
840.63	225.84
840.94	225.79
841.26	225.78
841.57	225.77
841.88	225.76
842.20	225.77
842.51	225.79
842.83	225.77
843.14	225.85
843.46	225.85
843.77	225.82
844.08	225.79
844.40	225.73
844.71	225.72
845.03	225.70
845.34	225.66
845.65	225.65
845.97	225.64
846.28	225.65
846.60	225.63
846.91	225.62
847.22	225.63
847.54	225.67
847.85	225.67
848.16	225.67
848.48	225.65
848.79	225.66
849.10	225.69
849.42	225.68
849.73	225.61
850.04	225.62
850.36	225.59
850.67	225.61
850.98	225.65
851.30	225.64
851.61	225.59
851.92	225.59
852.23	225.61
852.55	225.64
852.86	225.67
853.17	225.69
853.49	225.69
853.80	225.69
854.11	225.67
854.42	225.68
854.74	225.67
855.05	225.68
855.36	225.64
855.67	225.63
855.99	225.65
856.30	225.78
856.61	225.74
856.92	225.70
857.23	225.71
857.55	225.67
857.86	225.66
858.17	225.68
858.48	225.67
858.79	225.66
859.11	225.63
859.42	225.61
859.73	225.59
860.04	225.60
860.35	225.58
860.66	225.55
860.98	225.57
861.29	225.60
861.60	225.58
861.91	225.61
862.22	225.61
862.53	225.58
862.84	225.47
863.16	225.53
863.47	225.52
863.78	225.49
864.09	225.52
864.40	225.52
864.71	225.52
865.02	225.58
865.33	225.55
865.64	225.56
865.95	225.54
866.27	225.63
866.58	225.61
866.89	225.62
867.20	225.63
867.51	225.60
867.82	225.60
868.13	225.63
868.44	225.57
868.75	225.57
869.06	225.55
869.37	225.54
869.68	225.47
869.99	225.49
870.30	225.48
870.61	225.46
870.92	225.47
871.23	225.44
871.54	225.43
871.85	225.47
872.16	225.47
872.47	225.44
872.78	225.36
873.09	225.36
873.40	225.36
873.71	225.35
874.02	225.35
874.33	225.32
874.64	225.31
874.95	225.36
875.26	225.32
875.56	225.33
875.87	225.31
876.18	225.29
876.49	225.39
876.80	225.37
877.11	225.35
877.42	225.35
877.73	225.38
878.04	225.35
878.35	225.35
878.66	225.36
878.96	225.37
879.27	225.36
879.58	225.37
879.89	225.36
880.20	225.35
880.51	225.35
880.82	225.33
881.12	225.31
881.43	225.26
881.74	225.26
882.05	225.25
882.36	225.26
882.67	225.25
882.97	225.13
883.28	225.11
883.59	225.10
883.90	225.08
884.21	225.08
884.51	225.06
884.82	225.01
885.13	225.01
885.44	225.00
885.74	225.01
886.05	224.98
886.36	224.97
886.67	224.95
886.98	224.99
887.28	225.01
887.59	224.99
887.90	225.02
888.20	225.00
888.51	225.03
888.82	225.01
889.13	225.04
889.43	225.13
889.74	225.18
890.05	225.18
890.35	225.21
890.66	225.22
890.97	225.23
891.28	225.22
891.58	225.20
891.89	225.18
892.20	225.15
892.50	225.15
892.81	225.16
893.12	225.17
893.42	225.12
893.73	225.12
894.04	225.18
894.34	225.14
894.65	225.14
894.95	225.11
895.26	225.13
895.57	225.17
895.87	225.03
896.18	225.02
896.48	225.05
896.79	225.03
897.10	225.02
897.40	225.01
897.71	225.07
898.01	225.08
898.32	225.09
898.63	225.11
898.93	225.12
899.24	225.10
899.54	225.10
899.85	225.12
900.15	225.12
900.46	225.06
900.76	225.08
901.07	225.08
901.38	225.12
901.68	225.13
901.99	225.11
902.29	225.15
902.60	225.15
902.90	225.11
903.21	225.13
903.51	225.12
903.82	225.15
904.12	225.13
904.43	225.13
904.73	225.16
905.03	225.16
905.34	225.25
905.64	225.27
905.95	225.27
906.25	225.28
906.56	225.28
906.86	225.28
907.17	225.28
907.47	225.29
907.77	225.25
908.08	225.22
908.38	225.22
908.69	225.23
908.99	225.21
909.30	225.24
909.60	225.23
909.90	225.24
910.21	225.23
910.51	225.19
910.81	225.18
911.12	225.16
911.42	225.14
911.73	225.04
912.03	225.05
912.33	225.06
912.64	225.05
912.94	225.04
913.24	225.07
913.55	225.07
913.85	225.06
914.15	225.08
914.46	225.09
914.76	225.08
915.06	225.06
915.37	225.07
915.67	225.02
915.97	225.01
916.27	224.97
916.58	224.96
916.88	224.95
917.18	224.98
917.49	225.06
917.79	225.07
918.09	225.08
918.39	225.09
918.70	225.10
919.00	225.08
919.30	225.11
919.60	225.09
919.91	225.08
920.21	225.13
920.51	225.11
920.81	225.09
921.12	225.11
921.42	225.09
921.72	225.09
922.02	225.13
922.32	225.16
922.63	225.19
922.93	225.26
923.23	225.28
923.53	225.27
923.83	225.22
924.13	225.23
924.44	225.23
924.74	225.25
925.04	225.25
925.34	225.26
925.64	225.23
925.94	225.19
926.24	225.26
926.55	225.21
926.85	225.20
927.15	225.23
927.45	225.25
927.75	225.27
928.05	225.30
928.35	225.32
928.65	225.30
928.95	225.30
929.26	225.26
929.56	225.26
929.86	225.25
930.16	225.22
930.46	225.18
930.76	225.20
931.06	225.15
931.36	225.14
931.66	225.14
931.96	225.15
932.26	225.15
932.56	225.07
932.86	225.10
933.16	225.12
933.46	225.07
933.76	225.03
934.06	225.05
934.36	225.07
934.66	225.06
934.96	225.08
935.26	225.07
935.56	225.08
935.86	225.05
936.16	225.05
936.46	225.04
936.76	225.03
937.06	225.01
937.36	225.03
937.66	225.01
937.96	225.01
938.26	225.00
938.56	225.03
938.86	225.06
939.16	225.06
939.46	225.05
939.76	225.10
940.06	225.11
940.35	225.08
940.65	225.01
940.95	224.99
941.25	224.96
941.55	224.97
941.85	224.94
942.15	224.94
942.45	224.98
942.75	224.95
943.04	224.98
943.34	225.02
943.64	224.99
943.94	224.99
944.24	224.98
944.54	224.96
944.84	224.94
945.13	224.95
945.43	224.92
945.73	224.90
946.03	224.90
946.33	224.87
946.62	224.86
946.92	224.85
947.22	224.87
947.52	224.88
947.82	224.90
948.11	224.91
948.41	224.93
948.71	224.87
949.01	224.91
949.31	224.90
949.60	224.85
949.90	224.87
950.20	224.84
950.50	224.88
950.79	224.88
951.09	224.90
951.39	224.88
951.69	224.86
951.98	224.89
952.28	224.87
952.58	224.88
952.87	224.87
953.17	224.88
953.47	224.85
953.76	224.84
954.06	224.80
954.36	224.77
954.66	224.74
954.95	224.78
955.25	224.76
955.55	224.77
955.84	224.80
956.14	224.81
956.44	224.81
956.73	224.76
957.03	224.74
957.32	224.76
957.62	224.74
957.92	224.78
958.21	224.78
958.51	224.90
958.81	224.88
959.10	224.91
959.40	224.95
959.69	224.98
959.99	224.99
960.29	225.00
960.58	225.00
960.88	225.04
961.17	225.01
961.47	225.03
961.76	225.03
962.06	224.99
962.36	225.02
962.65	225.02
962.95	225.04
963.24	225.07
963.54	225.06
963.83	225.07
964.13	225.05
964.42	225.04
964.72	224.97
965.01	225.01
965.31	225.03
965.60	224.99
965.90	225.04
966.19	225.04
966.49	225.04
966.78	225.06
967.08	225.05
967.37	225.07
967.67	225.06
967.96	225.09
968.26	225.14
968.55	225.13
968.85	225.17
969.14	225.15
969.43	225.13
969.73	225.14
970.02	225.13
970.32	225.11
970.61	225.13
970.91	225.11
971.20	225.09
971.49	225.07
971.79	225.11
972.08	225.04
972.38	225.07
972.67	225.06
972.96	225.09
973.26	225.08
973.55	225.11
973.85	225.11
974.14	225.08
974.43	225.07
974.73	225.05
975.02	225.03
975.31	225.04
975.61	225.02
975.90	225.01
976.19	225.01
976.49	225.04
976.78	225.03
977.07	225.04
977.37	225.06
977.66	225.06
977.95	225.03
978.24	225.03
978.54	225.04
978.83	225.03
979.12	224.99
979.42	224.99
979.71	224.95
980.00	224.93
980.29	224.94
980.59	224.91
980.88	224.92
981.17	224.92
981.46	224.93
981.76	224.95
982.05	224.98
982.34	224.97
982.63	224.96
982.93	224.98
983.22	224.99
983.51	224.97
983.80	224.99
984.09	224.97
984.39	224.97
984.68	224.93
984.97	224.94
985.26	224.94
985.55	224.94
985.85	224.90
986.14	224.90
986.43	224.86
986.72	224.83
987.01	224.80
987.30	224.80
987.59	224.78
987.89	224.79
988.18	224.76
988.47	224.76
988.76	224.74
989.05	224.68
989.34	224.65
989.63	224.63
989.92	224.60
990.22	224.62
990.51	224.61
990.80	224.58
991.09	224.55
991.38	224.54
991.67	224.54
991.96	224.57
992.25	224.56
992.54	224.55
992.83	224.58
993.12	224.59
993.41	224.60
993.70	224.62
993.99	224.60
994.28	224.60
994.58	224.61
994.87	224.59
995.16	224.61
995.45	224.58
995.74	224.55
996.03	224.55
996.32	224.56
996.61	224.61
996.90	224.63
997.19	224.65
997.48	224.67
997.77	224.66
998.06	224.64
998.34	224.66
998.63	224.66
998.92	224.69
999.21	224.67
999.50	224.66
999.79	224.61
1000.08	224.63
1000.37	224.63
1000.66	224.62
1000.95	224.67
1001.24	224.68
1001.53	224.71
1001.82	224.71
1002.11	224.69
1002.40	224.71
1002.68	224.70
1002.97	224.76
1003.26	224.75
1003.55	224.74
1003.84	224.73
1004.13	224.78
1004.42	224.77
1004.71	224.79
1004.99	224.78
1005.28	224.85
1005.57	224.84
1005.86	224.84
1006.15	224.83
1006.44	224.80
1006.72	224.81
1007.01	224.78
1007.30	224.79
1007.59	224.79
1007.88	224.83
1008.17	224.86
1008.45	224.85
1008.74	224.82
1009.03	224.79
1009.32	224.81
1009.60	224.80
1009.89	224.79
1010.18	224.78
1010.47	224.80
1010.76	224.78
1011.04	224.76
1011.33	224.75
1011.62	224.78
1011.91	224.82
1012.19	224.82
1012.48	224.84
1012.77	224.85
1013.05	224.93
1013.34	224.96
1013.63	224.96
1013.92	224.98
1014.20	224.96
1014.49	224.99
1014.78	225.00
1015.06	224.97
1015.35	224.98
1015.64	225.02
1015.92	225.05
1016.21	225.05
1016.50	225.02
1016.78	225.05
1017.07	225.07
1017.36	225.03
1017.64	225.03
1017.93	225.03
1018.22	225.06
1018.50	225.04
1018.79	225.04
1019.08	224.96
1019.36	224.92
1019.65	224.91
1019.93	224.89
1020.22	224.92
1020.51	224.97
1020.79	224.93
1021.08	225.11
1021.36	224.37
1021.65	224.95
1021.94	224.42
1022.22	225.13
1022.51	224.71
1022.79	224.87
1023.08	225.07
1023.36	226.56
1023.65	224.20
>>>>>End Processed Spectral Data<<<<<
