SpectraSuite Data File
++++++++++++++++++++++++++++++++++++
Date: Fri Feb 01 15:09:23 EST 2013
User: group
Dark Spectrum Present: No
Reference Spectrum Present: No
Number of Sampled Component Spectra: 1
Spectrometers: USB2E7196
Integration Time (usec): 35000 (USB2E7196)
Spectra Averaged: 100 (USB2E7196)
Boxcar Smoothing: 10 (USB2E7196)
Correct for Electrical Dark: No (USB2E7196)
Strobe/Lamp Enabled: No (USB2E7196)
Correct for Detector Non-linearity: No (USB2E7196)
Correct for Stray Light: No (USB2E7196)
Number of Pixels in Processed Spectrum: 2048
>>>>>Begin Processed Spectral Data<<<<<
339.09	0.00
339.48	215.40
339.86	216.64
340.24	218.12
340.63	219.00
341.01	222.24
341.39	222.41
341.78	223.30
342.16	224.67
342.54	225.09
342.93	213.61
343.31	224.40
343.69	224.94
344.07	225.37
344.46	225.79
344.84	226.15
345.22	226.38
345.60	226.62
345.99	226.78
346.37	226.93
346.75	227.01
347.13	227.08
347.52	227.13
347.90	227.17
348.28	227.20
348.66	227.21
349.05	227.21
349.43	227.20
349.81	227.24
350.19	227.27
350.57	227.35
350.96	227.43
351.34	227.49
351.72	227.57
352.10	227.68
352.48	227.76
352.87	227.85
353.25	227.93
353.63	227.99
354.01	228.07
354.39	228.13
354.77	228.24
355.15	228.34
355.54	228.36
355.92	228.41
356.30	228.48
356.68	228.63
357.06	228.66
357.44	228.71
357.82	228.74
358.20	228.83
358.58	228.88
358.97	228.93
359.35	229.03
359.73	229.06
360.11	229.14
360.49	229.18
360.87	229.21
361.25	229.25
361.63	229.30
362.01	229.33
362.39	229.37
362.77	229.39
363.15	229.39
363.53	229.40
363.91	229.41
364.29	229.40
364.67	229.31
365.05	229.32
365.43	229.37
365.81	229.40
366.19	229.41
366.57	229.43
366.95	229.42
367.33	229.37
367.71	229.37
368.09	229.33
368.47	229.33
368.85	229.31
369.23	229.28
369.61	229.23
369.99	229.23
370.37	229.17
370.75	229.17
371.13	229.12
371.51	229.12
371.89	229.09
372.27	229.05
372.65	228.99
373.03	228.96
373.41	228.88
373.78	228.82
374.16	228.71
374.54	228.62
374.92	228.57
375.30	228.51
375.68	228.42
376.06	228.36
376.44	228.25
376.82	228.17
377.19	228.11
377.57	228.03
377.95	227.94
378.33	227.87
378.71	227.73
379.09	227.68
379.47	227.64
379.84	227.56
380.22	227.47
380.60	227.38
380.98	227.30
381.36	227.22
381.73	227.16
382.11	227.10
382.49	227.05
382.87	226.96
383.25	226.87
383.62	226.93
384.00	226.84
384.38	226.80
384.76	226.82
385.13	226.81
385.51	226.74
385.89	226.64
386.27	226.60
386.64	226.57
387.02	226.53
387.40	226.46
387.78	226.43
388.15	226.38
388.53	226.36
388.91	226.34
389.29	226.30
389.66	226.28
390.04	226.29
390.42	226.25
390.79	226.22
391.17	226.21
391.55	226.08
391.92	226.12
392.30	226.11
392.68	226.06
393.05	226.05
393.43	226.07
393.81	226.14
394.18	226.16
394.56	226.18
394.94	226.21
395.31	226.22
395.69	226.29
396.06	226.37
396.44	226.40
396.82	226.43
397.19	226.55
397.57	226.60
397.95	226.66
398.32	226.71
398.70	226.81
399.07	226.90
399.45	227.02
399.82	227.07
400.20	227.15
400.58	227.22
400.95	227.26
401.33	227.38
401.70	227.52
402.08	227.61
402.45	227.74
402.83	227.85
403.20	227.94
403.58	228.05
403.95	228.17
404.33	228.32
404.71	228.47
405.08	228.63
405.46	228.78
405.83	228.96
406.21	229.09
406.58	229.24
406.96	229.42
407.33	229.58
407.70	229.77
408.08	230.05
408.45	230.28
408.83	230.54
409.20	230.75
409.58	230.94
409.95	231.20
410.33	231.47
410.70	231.70
411.08	232.04
411.45	232.35
411.82	232.67
412.20	233.06
412.57	233.47
412.95	233.80
413.32	234.22
413.69	234.63
414.07	235.10
414.44	235.62
414.82	236.09
415.19	236.66
415.56	237.24
415.94	237.79
416.31	238.44
416.68	239.06
417.06	239.78
417.43	240.45
417.81	241.20
418.18	241.95
418.55	242.84
418.93	243.69
419.30	244.58
419.67	245.48
420.04	246.40
420.42	247.36
420.79	248.51
421.16	249.63
421.54	250.81
421.91	252.03
422.28	253.28
422.66	254.59
423.03	255.85
423.40	257.20
423.77	258.63
424.15	260.07
424.52	261.54
424.89	263.16
425.26	264.71
425.64	266.19
426.01	267.80
426.38	269.45
426.75	271.13
427.13	272.86
427.50	274.72
427.87	276.59
428.24	278.51
428.61	280.26
428.99	282.21
429.36	284.29
429.73	286.33
430.10	288.33
430.47	290.40
430.85	292.54
431.22	294.77
431.59	297.15
431.96	299.41
432.33	301.92
432.70	304.31
433.08	307.13
433.45	309.80
433.82	312.42
434.19	315.33
434.56	318.14
434.93	320.78
435.30	323.39
435.68	326.32
436.05	329.12
436.42	331.94
436.79	334.52
437.16	337.28
437.53	340.11
437.90	342.95
438.27	345.74
438.64	348.56
439.01	351.18
439.38	353.42
439.75	355.55
440.13	358.04
440.50	360.34
440.87	362.23
441.24	364.18
441.61	366.31
441.98	367.82
442.35	369.68
442.72	371.58
443.09	373.38
443.46	374.38
443.83	374.99
444.20	375.52
444.57	376.34
444.94	376.56
445.31	376.92
445.68	377.22
446.05	377.30
446.42	376.98
446.79	376.57
447.16	376.10
447.53	375.80
447.90	374.68
448.27	373.53
448.64	371.95
449.01	370.77
449.37	368.82
449.74	366.90
450.11	364.60
450.48	362.09
450.85	359.58
451.22	357.46
451.59	355.42
451.96	353.41
452.33	350.75
452.70	348.40
453.07	345.57
453.43	342.71
453.80	339.91
454.17	337.16
454.54	334.56
454.91	331.82
455.28	329.11
455.65	326.58
456.02	324.15
456.38	321.96
456.75	319.31
457.12	317.07
457.49	314.86
457.86	312.67
458.23	310.80
458.59	308.76
458.96	306.63
459.33	304.80
459.70	302.93
460.07	301.42
460.43	299.73
460.80	298.06
461.17	296.58
461.54	295.10
461.91	293.69
462.27	292.24
462.64	290.97
463.01	289.61
463.38	288.29
463.74	286.89
464.11	285.69
464.48	284.67
464.85	283.52
465.21	282.64
465.58	281.73
465.95	280.60
466.32	279.69
466.68	278.75
467.05	277.82
467.42	276.94
467.78	276.03
468.15	275.17
468.52	274.54
468.88	273.69
469.25	272.91
469.62	272.28
469.98	271.60
470.35	270.98
470.72	270.38
471.08	269.74
471.45	269.19
471.82	268.67
472.18	268.05
472.55	267.58
472.92	267.04
473.28	266.56
473.65	266.14
474.02	265.70
474.38	265.36
474.75	265.03
475.11	264.66
475.48	264.38
475.85	264.11
476.21	263.81
476.58	263.61
476.94	263.47
477.31	263.26
477.67	263.11
478.04	263.00
478.41	262.97
478.77	263.01
479.14	262.97
479.50	262.98
479.87	263.04
480.23	263.15
480.60	263.19
480.96	263.28
481.33	263.46
481.69	263.63
482.06	263.78
482.42	263.97
482.79	264.24
483.15	264.55
483.52	264.91
483.88	265.29
484.25	265.68
484.61	266.11
484.98	266.60
485.34	267.16
485.71	267.73
486.07	268.34
486.44	268.88
486.80	269.56
487.17	270.28
487.53	271.09
487.90	271.91
488.26	272.88
488.62	273.84
488.99	274.80
489.35	275.86
489.72	277.03
490.08	278.21
490.44	279.44
490.81	280.76
491.17	282.10
491.54	283.55
491.90	285.08
492.26	286.69
492.63	288.37
492.99	290.13
493.36	292.04
493.72	294.04
494.08	296.16
494.45	298.42
494.81	300.78
495.17	303.21
495.54	305.75
495.90	308.43
496.26	311.20
496.63	314.19
496.99	317.27
497.35	320.46
497.72	323.86
498.08	327.37
498.44	331.01
498.80	334.91
499.17	338.98
499.53	343.09
499.89	347.44
500.26	352.01
500.62	356.68
500.98	361.65
501.34	366.71
501.71	371.99
502.07	377.43
502.43	383.00
502.79	388.81
503.16	394.88
503.52	401.15
503.88	407.58
504.24	414.17
504.60	421.00
504.97	428.15
505.33	435.47
505.69	443.18
506.05	450.95
506.41	458.84
506.78	466.96
507.14	475.45
507.50	484.15
507.86	493.15
508.22	502.27
508.59	511.43
508.95	521.02
509.31	530.78
509.67	540.82
510.03	551.09
510.39	561.63
510.75	572.40
511.12	583.32
511.48	594.58
511.84	606.04
512.20	617.63
512.56	629.51
512.92	641.71
513.28	653.93
513.64	666.43
514.00	679.13
514.37	692.04
514.73	705.12
515.09	718.14
515.45	731.46
515.81	745.06
516.17	759.08
516.53	773.16
516.89	787.44
517.25	801.58
517.61	815.98
517.97	830.41
518.33	844.96
518.69	859.76
519.05	874.74
519.41	889.89
519.77	905.47
520.13	921.03
520.49	936.36
520.85	951.94
521.21	967.80
521.57	984.10
521.93	1000.02
522.29	1016.42
522.65	1032.78
523.01	1049.00
523.37	1065.10
523.73	1081.36
524.09	1097.62
524.45	1113.90
524.81	1130.72
525.17	1147.76
525.53	1164.80
525.89	1181.64
526.25	1198.48
526.61	1214.89
526.97	1231.71
527.33	1248.19
527.68	1264.90
528.04	1281.50
528.40	1298.12
528.76	1315.01
529.12	1331.72
529.48	1348.61
529.84	1364.72
530.20	1381.33
530.56	1398.41
530.91	1415.85
531.27	1432.63
531.63	1449.03
531.99	1465.76
532.35	1481.71
532.71	1497.66
533.07	1513.86
533.42	1529.80
533.78	1545.86
534.14	1562.32
534.50	1577.69
534.86	1593.66
535.21	1608.71
535.57	1624.74
535.93	1640.50
536.29	1655.56
536.65	1670.69
537.00	1685.60
537.36	1700.97
537.72	1715.66
538.08	1730.16
538.44	1744.18
538.79	1758.22
539.15	1772.10
539.51	1785.93
539.87	1800.41
540.22	1814.14
540.58	1828.14
540.94	1841.59
541.29	1854.67
541.65	1867.45
542.01	1880.80
542.37	1893.15
542.72	1905.80
543.08	1917.65
543.44	1929.96
543.79	1941.21
544.15	1952.26
544.51	1963.91
544.87	1975.03
545.22	1985.84
545.58	1996.09
545.94	2005.83
546.29	2015.69
546.65	2025.53
547.01	2034.81
547.36	2043.59
547.72	2052.12
548.07	2059.88
548.43	2068.12
548.79	2076.18
549.14	2083.69
549.50	2091.13
549.86	2098.91
550.21	2106.24
550.57	2113.51
550.92	2120.12
551.28	2127.17
551.64	2134.25
551.99	2140.78
552.35	2146.96
552.70	2153.14
553.06	2159.11
553.41	2165.49
553.77	2171.52
554.13	2177.60
554.48	2183.67
554.84	2189.06
555.19	2194.39
555.55	2199.47
555.90	2203.95
556.26	2208.80
556.61	2213.56
556.97	2217.79
557.32	2221.83
557.68	2225.93
558.03	2230.15
558.39	2233.83
558.74	2238.46
559.10	2242.23
559.45	2245.75
559.81	2250.03
560.16	2253.79
560.52	2257.13
560.87	2260.49
561.23	2263.05
561.58	2265.89
561.94	2268.39
562.29	2270.86
562.64	2273.45
563.00	2276.12
563.35	2279.61
563.71	2282.65
564.06	2285.77
564.42	2288.53
564.77	2291.01
565.12	2293.11
565.48	2294.89
565.83	2296.66
566.19	2297.95
566.54	2298.85
566.89	2299.93
567.25	2300.26
567.60	2301.53
567.96	2302.92
568.31	2303.68
568.66	2304.86
569.02	2305.34
569.37	2305.58
569.72	2306.10
570.08	2306.12
570.43	2305.92
570.78	2305.08
571.14	2303.58
571.49	2302.14
571.84	2301.72
572.20	2300.30
572.55	2299.15
572.90	2297.60
573.26	2296.03
573.61	2294.15
573.96	2292.08
574.31	2289.02
574.67	2285.99
575.02	2282.33
575.37	2278.89
575.72	2274.88
576.08	2271.40
576.43	2268.11
576.78	2264.34
577.13	2261.22
577.49	2257.88
577.84	2254.38
578.19	2250.67
578.54	2246.82
578.90	2242.33
579.25	2236.64
579.60	2231.65
579.95	2226.61
580.30	2221.30
580.66	2216.16
581.01	2211.14
581.36	2206.14
581.71	2201.75
582.06	2197.02
582.42	2192.34
582.77	2187.06
583.12	2182.39
583.47	2177.48
583.82	2172.24
584.17	2166.87
584.53	2161.18
584.88	2155.51
585.23	2149.71
585.58	2144.13
585.93	2138.61
586.28	2133.84
586.63	2128.72
586.98	2123.64
587.34	2118.87
587.69	2113.98
588.04	2108.52
588.39	2102.61
588.74	2096.20
589.09	2090.11
589.44	2083.34
589.79	2077.20
590.14	2071.51
590.49	2064.87
590.84	2058.40
591.19	2052.33
591.54	2045.77
591.89	2038.20
592.25	2031.30
592.60	2023.88
592.95	2016.20
593.30	2008.68
593.65	2000.93
594.00	1993.79
594.35	1986.39
594.70	1978.36
595.05	1971.08
595.40	1963.80
595.75	1956.38
596.10	1950.09
596.45	1943.08
596.80	1936.79
597.15	1930.01
597.50	1922.59
597.85	1916.14
598.19	1909.30
598.54	1902.15
598.89	1895.43
599.24	1889.66
599.59	1882.86
599.94	1876.57
600.29	1870.13
600.64	1863.56
600.99	1856.25
601.34	1849.22
601.69	1842.24
602.04	1835.18
602.39	1827.77
602.74	1820.88
603.08	1813.99
603.43	1807.17
603.78	1799.95
604.13	1792.85
604.48	1785.62
604.83	1778.90
605.18	1771.73
605.53	1763.72
605.87	1755.64
606.22	1748.40
606.57	1740.35
606.92	1733.10
607.27	1725.98
607.62	1719.10
607.96	1711.66
608.31	1704.89
608.66	1697.37
609.01	1689.81
609.36	1682.18
609.70	1674.02
610.05	1665.79
610.40	1658.14
610.75	1649.90
611.10	1642.16
611.44	1633.68
611.79	1625.74
612.14	1617.10
612.49	1608.20
612.83	1599.80
613.18	1591.79
613.53	1583.77
613.88	1575.27
614.22	1567.18
614.57	1558.64
614.92	1550.59
615.27	1543.05
615.61	1534.77
615.96	1526.85
616.31	1519.24
616.65	1511.97
617.00	1504.51
617.35	1497.02
617.70	1488.64
618.04	1480.00
618.39	1471.84
618.74	1464.24
619.08	1455.89
619.43	1448.37
619.78	1441.47
620.12	1434.36
620.47	1426.65
620.82	1418.50
621.16	1411.18
621.51	1403.46
621.85	1395.85
622.20	1387.35
622.55	1379.11
622.89	1371.31
623.24	1363.65
623.59	1356.45
623.93	1348.91
624.28	1341.78
624.62	1334.26
624.97	1327.22
625.32	1320.67
625.66	1313.69
626.01	1306.44
626.35	1298.99
626.70	1291.28
627.04	1283.43
627.39	1275.77
627.73	1268.44
628.08	1261.51
628.43	1254.02
628.77	1246.57
629.12	1239.00
629.46	1231.83
629.81	1224.48
630.15	1217.27
630.50	1209.96
630.84	1201.73
631.19	1193.91
631.53	1186.39
631.88	1178.83
632.22	1171.25
632.57	1163.91
632.91	1156.41
633.26	1149.10
633.60	1141.88
633.95	1134.80
634.29	1127.81
634.64	1121.15
634.98	1113.92
635.32	1106.79
635.67	1100.56
636.01	1094.02
636.36	1087.20
636.70	1080.79
637.05	1074.31
637.39	1067.89
637.73	1061.34
638.08	1055.51
638.42	1049.61
638.77	1043.25
639.11	1036.61
639.45	1030.22
639.80	1023.59
640.14	1017.17
640.49	1010.74
640.83	1004.40
641.17	998.22
641.52	991.92
641.86	985.50
642.20	979.68
642.55	973.41
642.89	966.75
643.23	960.19
643.58	954.47
643.92	948.21
644.26	942.01
644.61	936.02
644.95	930.01
645.29	923.37
645.64	916.52
645.98	910.14
646.32	904.45
646.66	898.45
647.01	892.62
647.35	886.96
647.69	881.11
648.04	875.65
648.38	869.76
648.72	863.77
649.06	857.64
649.41	851.70
649.75	845.69
650.09	839.77
650.43	834.06
650.78	827.94
651.12	822.05
651.46	816.30
651.80	810.50
652.14	805.06
652.49	799.75
652.83	794.63
653.17	788.89
653.51	783.11
653.85	777.74
654.20	772.08
654.54	766.05
654.88	760.36
655.22	754.40
655.56	748.67
655.90	743.20
656.25	738.04
656.59	732.72
656.93	727.73
657.27	722.58
657.61	717.13
657.95	711.98
658.29	706.92
658.64	701.77
658.98	696.50
659.32	691.07
659.66	685.85
660.00	680.57
660.34	675.70
660.68	670.86
661.02	665.80
661.36	661.12
661.70	656.66
662.05	652.31
662.39	648.03
662.73	643.65
663.07	639.37
663.41	634.95
663.75	630.46
664.09	625.81
664.43	621.47
664.77	617.38
665.11	613.19
665.45	609.05
665.79	604.99
666.13	600.89
666.47	596.88
666.81	592.73
667.15	588.58
667.49	584.69
667.83	580.88
668.17	576.94
668.51	572.95
668.85	568.94
669.19	565.14
669.53	561.31
669.87	557.48
670.21	553.73
670.55	550.12
670.89	546.75
671.23	543.41
671.57	539.94
671.91	536.45
672.25	533.01
672.58	529.55
672.92	526.17
673.26	523.05
673.60	519.89
673.94	516.76
674.28	513.96
674.62	511.09
674.96	507.99
675.30	505.13
675.64	502.20
675.97	499.46
676.31	496.55
676.65	493.70
676.99	491.02
677.33	488.24
677.67	485.43
678.01	482.37
678.34	479.45
678.68	476.62
679.02	473.81
679.36	471.08
679.70	468.44
680.04	465.67
680.37	462.80
680.71	460.02
681.05	457.42
681.39	454.71
681.73	452.01
682.06	449.52
682.40	447.03
682.74	444.55
683.08	442.04
683.42	439.46
683.75	436.92
684.09	434.39
684.43	431.92
684.77	429.43
685.10	427.12
685.44	424.78
685.78	422.46
686.12	420.23
686.45	417.93
686.79	415.57
687.13	413.46
687.46	411.30
687.80	409.21
688.14	407.05
688.48	405.00
688.81	402.79
689.15	400.61
689.49	398.39
689.82	396.26
690.16	394.14
690.50	392.21
690.83	390.27
691.17	388.29
691.51	386.37
691.84	384.56
692.18	382.64
692.52	380.68
692.85	378.72
693.19	376.79
693.52	374.98
693.86	373.18
694.20	371.38
694.53	369.56
694.87	367.67
695.21	365.86
695.54	364.02
695.88	362.26
696.21	360.55
696.55	358.91
696.88	357.22
697.22	355.55
697.56	353.92
697.89	352.25
698.23	350.62
698.56	349.03
698.90	347.44
699.23	345.79
699.57	344.21
699.90	342.68
700.24	341.17
700.58	339.62
700.91	338.10
701.25	336.66
701.58	335.30
701.92	333.96
702.25	332.57
702.59	331.19
702.92	329.90
703.26	328.56
703.59	327.27
703.93	326.09
704.26	324.88
704.60	323.59
704.93	322.32
705.26	321.11
705.60	319.96
705.93	318.81
706.27	317.77
706.60	316.75
706.94	315.69
707.27	314.54
707.61	313.53
707.94	312.53
708.27	311.44
708.61	310.38
708.94	309.35
709.28	308.40
709.61	307.45
709.94	306.49
710.28	305.54
710.61	304.58
710.95	303.58
711.28	302.68
711.61	301.77
711.95	300.89
712.28	299.95
712.61	298.95
712.95	298.04
713.28	297.15
713.61	296.22
713.95	295.36
714.28	294.54
714.61	293.69
714.95	292.85
715.28	292.02
715.61	291.16
715.95	290.36
716.28	289.54
716.61	288.72
716.95	287.95
717.28	287.17
717.61	286.45
717.94	285.70
718.28	284.91
718.61	284.18
718.94	283.46
719.27	282.83
719.61	282.20
719.94	281.54
720.27	280.89
720.60	280.29
720.94	279.67
721.27	279.10
721.60	278.53
721.93	277.95
722.27	277.37
722.60	276.87
722.93	276.31
723.26	275.73
723.59	275.15
723.93	274.62
724.26	274.12
724.59	273.53
724.92	273.00
725.25	272.52
725.59	272.01
725.92	271.52
726.25	270.99
726.58	270.50
726.91	270.01
727.24	269.53
727.57	269.02
727.91	268.49
728.24	268.01
728.57	267.49
728.90	267.02
729.23	266.57
729.56	266.12
729.89	265.61
730.22	265.15
730.55	264.70
730.89	264.24
731.22	263.74
731.55	263.29
731.88	262.88
732.21	262.44
732.54	261.97
732.87	261.58
733.20	261.23
733.53	260.78
733.86	260.39
734.19	259.95
734.52	259.57
734.85	259.28
735.18	258.84
735.51	258.48
735.84	258.10
736.17	257.71
736.50	257.29
736.83	257.04
737.16	256.72
737.49	256.41
737.82	256.08
738.15	255.76
738.48	255.41
738.81	255.05
739.14	254.74
739.47	254.42
739.80	254.07
740.13	253.71
740.46	253.37
740.79	253.05
741.12	252.79
741.45	252.48
741.78	252.12
742.11	251.84
742.44	251.49
742.77	251.23
743.10	250.92
743.43	250.63
743.75	250.25
744.08	250.10
744.41	249.79
744.74	249.47
745.07	249.17
745.40	248.94
745.73	248.70
746.06	248.41
746.39	248.19
746.71	247.91
747.04	247.64
747.37	247.44
747.70	247.21
748.03	246.92
748.36	246.70
748.68	246.46
749.01	246.20
749.34	246.00
749.67	245.76
750.00	245.58
750.33	245.44
750.65	245.22
750.98	244.87
751.31	244.66
751.64	244.48
751.97	244.36
752.29	244.16
752.62	243.92
752.95	243.69
753.28	243.48
753.60	243.32
753.93	243.16
754.26	242.94
754.59	242.70
754.91	242.52
755.24	242.31
755.57	242.14
755.90	242.01
756.22	241.82
756.55	241.62
756.88	241.42
757.20	241.18
757.53	240.98
757.86	240.80
758.19	240.64
758.51	240.46
758.84	240.23
759.17	240.07
759.49	239.94
759.82	239.81
760.15	239.66
760.47	239.51
760.80	239.32
761.13	239.18
761.45	239.03
761.78	238.89
762.11	238.77
762.43	238.60
762.76	238.44
763.08	238.32
763.41	238.17
763.74	238.06
764.06	237.93
764.39	237.79
764.71	237.66
765.04	237.54
765.37	237.39
765.69	237.25
766.02	237.12
766.34	236.97
766.67	236.83
767.00	236.70
767.32	236.62
767.65	236.59
767.97	236.47
768.30	236.39
768.62	236.26
768.95	236.13
769.27	236.00
769.60	235.91
769.92	235.79
770.25	235.68
770.57	235.52
770.90	235.40
771.22	235.29
771.55	235.20
771.87	235.12
772.20	235.04
772.52	235.05
772.85	235.06
773.17	234.97
773.50	234.90
773.82	234.83
774.15	234.70
774.47	234.55
774.80	234.46
775.12	234.35
775.45	234.27
775.77	234.19
776.09	234.10
776.42	234.00
776.74	233.95
777.07	233.88
777.39	233.81
777.72	233.74
778.04	233.70
778.36	233.60
778.69	233.53
779.01	233.50
779.33	233.33
779.66	233.18
779.98	233.08
780.31	233.04
780.63	233.00
780.95	232.97
781.28	232.87
781.60	232.81
781.92	232.73
782.25	232.66
782.57	232.59
782.89	232.57
783.22	232.51
783.54	232.44
783.86	232.36
784.19	232.31
784.51	232.28
784.83	232.22
785.16	232.19
785.48	232.15
785.80	232.05
786.12	232.01
786.45	231.97
786.77	231.95
787.09	231.91
787.42	231.79
787.74	231.73
788.06	231.74
788.38	231.70
788.71	231.66
789.03	231.65
789.35	231.63
789.67	231.58
789.99	231.56
790.32	231.51
790.64	231.51
790.96	231.56
791.28	231.49
791.61	231.45
791.93	231.38
792.25	231.30
792.57	231.38
792.89	231.32
793.21	231.28
793.54	231.24
793.86	231.19
794.18	231.20
794.50	231.13
794.82	231.08
795.14	231.08
795.47	231.07
795.79	231.03
796.11	230.96
796.43	230.93
796.75	230.88
797.07	230.83
797.39	230.78
797.71	230.65
798.04	230.63
798.36	230.59
798.68	230.56
799.00	230.58
799.32	230.46
799.64	230.46
799.96	230.42
800.28	230.39
800.60	230.35
800.92	230.30
801.24	230.31
801.56	230.26
801.89	230.19
802.21	230.18
802.53	230.14
802.85	230.16
803.17	230.16
803.49	230.13
803.81	230.10
804.13	230.05
804.45	230.05
804.77	230.03
805.09	230.04
805.41	230.04
805.73	229.97
806.05	229.94
806.37	229.91
806.69	229.88
807.01	229.85
807.33	229.83
807.65	229.78
807.97	229.76
808.28	229.74
808.60	229.69
808.92	229.66
809.24	229.69
809.56	229.64
809.88	229.57
810.20	229.56
810.52	229.56
810.84	229.55
811.16	229.52
811.48	229.47
811.80	229.46
812.12	229.38
812.43	229.36
812.75	229.34
813.07	229.30
813.39	229.29
813.71	229.23
814.03	229.22
814.35	229.19
814.67	229.16
814.98	229.12
815.30	229.08
815.62	229.03
815.94	228.92
816.26	228.96
816.58	228.95
816.89	228.92
817.21	228.92
817.53	228.90
817.85	228.88
818.17	228.86
818.48	228.79
818.80	228.84
819.12	228.81
819.44	228.77
819.76	228.78
820.07	228.76
820.39	228.77
820.71	228.74
821.03	228.76
821.34	228.73
821.66	228.75
821.98	228.80
822.30	228.80
822.61	228.88
822.93	228.80
823.25	228.78
823.57	228.76
823.88	228.74
824.20	228.73
824.52	228.73
824.83	228.70
825.15	228.69
825.47	228.63
825.79	228.65
826.10	228.64
826.42	228.59
826.74	228.55
827.05	228.54
827.37	228.53
827.69	228.50
828.00	228.50
828.32	228.50
828.64	228.44
828.95	228.49
829.27	228.44
829.58	228.43
829.90	228.43
830.22	228.44
830.53	228.41
830.85	228.43
831.17	228.38
831.48	228.39
831.80	228.39
832.11	228.41
832.43	228.44
832.75	228.41
833.06	228.51
833.38	228.49
833.69	228.47
834.01	228.48
834.32	228.48
834.64	228.45
834.96	228.42
835.27	228.44
835.59	228.38
835.90	228.37
836.22	228.35
836.53	228.33
836.85	228.33
837.16	228.43
837.48	228.37
837.79	228.40
838.11	228.41
838.42	228.38
838.74	228.40
839.05	228.33
839.37	228.33
839.68	228.24
840.00	228.21
840.31	228.23
840.63	228.15
840.94	228.11
841.26	228.09
841.57	228.06
841.88	228.05
842.20	228.04
842.51	228.02
842.83	228.02
843.14	228.09
843.46	228.09
843.77	227.95
844.08	227.96
844.40	227.91
844.71	227.88
845.03	227.87
845.34	227.83
845.65	227.82
845.97	227.77
846.28	227.75
846.60	227.77
846.91	227.72
847.22	227.73
847.54	227.75
847.85	227.78
848.16	227.80
848.48	227.77
848.79	227.82
849.10	227.81
849.42	227.79
849.73	227.70
850.04	227.65
850.36	227.65
850.67	227.66
850.98	227.67
851.30	227.68
851.61	227.68
851.92	227.69
852.23	227.71
852.55	227.76
852.86	227.75
853.17	227.74
853.49	227.77
853.80	227.81
854.11	227.82
854.42	227.79
854.74	227.75
855.05	227.76
855.36	227.70
855.67	227.69
855.99	227.69
856.30	227.78
856.61	227.78
856.92	227.81
857.23	227.82
857.55	227.84
857.86	227.83
858.17	227.85
858.48	227.84
858.79	227.81
859.11	227.80
859.42	227.79
859.73	227.79
860.04	227.77
860.35	227.74
860.66	227.70
860.98	227.70
861.29	227.70
861.60	227.67
861.91	227.70
862.22	227.67
862.53	227.66
862.84	227.54
863.16	227.55
863.47	227.48
863.78	227.47
864.09	227.45
864.40	227.43
864.71	227.44
865.02	227.45
865.33	227.43
865.64	227.40
865.95	227.45
866.27	227.49
866.58	227.49
866.89	227.53
867.20	227.51
867.51	227.50
867.82	227.50
868.13	227.52
868.44	227.50
868.75	227.51
869.06	227.51
869.37	227.50
869.68	227.50
869.99	227.53
870.30	227.52
870.61	227.52
870.92	227.51
871.23	227.48
871.54	227.50
871.85	227.50
872.16	227.54
872.47	227.52
872.78	227.47
873.09	227.50
873.40	227.47
873.71	227.48
874.02	227.51
874.33	227.48
874.64	227.47
874.95	227.46
875.26	227.47
875.56	227.47
875.87	227.48
876.18	227.42
876.49	227.53
876.80	227.54
877.11	227.51
877.42	227.51
877.73	227.49
878.04	227.48
878.35	227.49
878.66	227.45
878.96	227.45
879.27	227.44
879.58	227.42
879.89	227.41
880.20	227.43
880.51	227.38
880.82	227.41
881.12	227.40
881.43	227.35
881.74	227.34
882.05	227.31
882.36	227.29
882.67	227.30
882.97	227.17
883.28	227.12
883.59	227.12
883.90	227.12
884.21	227.15
884.51	227.11
884.82	227.09
885.13	227.11
885.44	227.10
885.74	227.06
886.05	227.02
886.36	227.01
886.67	226.97
886.98	227.05
887.28	227.04
887.59	227.07
887.90	227.09
888.20	227.06
888.51	227.08
888.82	227.10
889.13	227.15
889.43	227.25
889.74	227.30
890.05	227.30
890.35	227.32
890.66	227.31
890.97	227.29
891.28	227.30
891.58	227.29
891.89	227.28
892.20	227.30
892.50	227.31
892.81	227.32
893.12	227.30
893.42	227.25
893.73	227.31
894.04	227.29
894.34	227.28
894.65	227.27
894.95	227.29
895.26	227.30
895.57	227.34
895.87	227.26
896.18	227.23
896.48	227.25
896.79	227.24
897.10	227.22
897.40	227.25
897.71	227.27
898.01	227.27
898.32	227.28
898.63	227.28
898.93	227.32
899.24	227.32
899.54	227.33
899.85	227.32
900.15	227.30
900.46	227.28
900.76	227.31
901.07	227.33
901.38	227.35
901.68	227.37
901.99	227.33
902.29	227.35
902.60	227.37
902.90	227.38
903.21	227.38
903.51	227.39
903.82	227.41
904.12	227.38
904.43	227.38
904.73	227.39
905.03	227.37
905.34	227.46
905.64	227.46
905.95	227.49
906.25	227.50
906.56	227.47
906.86	227.48
907.17	227.50
907.47	227.50
907.77	227.47
908.08	227.46
908.38	227.42
908.69	227.41
908.99	227.40
909.30	227.40
909.60	227.40
909.90	227.43
910.21	227.42
910.51	227.43
910.81	227.42
911.12	227.42
911.42	227.45
911.73	227.31
912.03	227.31
912.33	227.29
912.64	227.26
912.94	227.29
913.24	227.29
913.55	227.26
913.85	227.28
914.15	227.29
914.46	227.29
914.76	227.32
915.06	227.31
915.37	227.29
915.67	227.28
915.97	227.28
916.27	227.27
916.58	227.28
916.88	227.25
917.18	227.26
917.49	227.33
917.79	227.33
918.09	227.36
918.39	227.40
918.70	227.41
919.00	227.41
919.30	227.41
919.60	227.41
919.91	227.40
920.21	227.40
920.51	227.37
920.81	227.37
921.12	227.36
921.42	227.37
921.72	227.37
922.02	227.36
922.32	227.38
922.63	227.37
922.93	227.39
923.23	227.39
923.53	227.36
923.83	227.29
924.13	227.31
924.44	227.32
924.74	227.32
925.04	227.36
925.34	227.37
925.64	227.33
925.94	227.34
926.24	227.40
926.55	227.39
926.85	227.39
927.15	227.42
927.45	227.43
927.75	227.41
928.05	227.43
928.35	227.41
928.65	227.39
928.95	227.39
929.26	227.34
929.56	227.35
929.86	227.37
930.16	227.37
930.46	227.35
930.76	227.33
931.06	227.28
931.36	227.23
931.66	227.26
931.96	227.28
932.26	227.27
932.56	227.22
932.86	227.22
933.16	227.22
933.46	227.15
933.76	227.11
934.06	227.16
934.36	227.17
934.66	227.20
934.96	227.20
935.26	227.19
935.56	227.23
935.86	227.21
936.16	227.16
936.46	227.16
936.76	227.17
937.06	227.19
937.36	227.19
937.66	227.22
937.96	227.19
938.26	227.18
938.56	227.16
938.86	227.16
939.16	227.18
939.46	227.19
939.76	227.24
940.06	227.25
940.35	227.20
940.65	227.14
940.95	227.13
941.25	227.08
941.55	227.08
941.85	227.07
942.15	227.08
942.45	227.12
942.75	227.11
943.04	227.11
943.34	227.09
943.64	227.10
943.94	227.06
944.24	227.08
944.54	227.10
944.84	227.10
945.13	227.10
945.43	227.07
945.73	227.08
946.03	227.06
946.33	227.05
946.62	227.02
946.92	227.03
947.22	227.05
947.52	227.06
947.82	227.05
948.11	227.01
948.41	227.01
948.71	226.97
949.01	226.96
949.31	226.94
949.60	226.95
949.90	226.98
950.20	226.99
950.50	226.98
950.79	226.96
951.09	226.97
951.39	226.94
951.69	226.94
951.98	226.97
952.28	226.99
952.58	226.97
952.87	226.97
953.17	226.99
953.47	226.97
953.76	227.01
954.06	227.03
954.36	227.05
954.66	227.05
954.95	227.13
955.25	227.14
955.55	227.16
955.84	227.14
956.14	227.12
956.44	227.10
956.73	227.08
957.03	227.08
957.32	227.09
957.62	227.11
957.92	227.14
958.21	227.11
958.51	227.24
958.81	227.27
959.10	227.33
959.40	227.36
959.69	227.39
959.99	227.39
960.29	227.36
960.58	227.37
960.88	227.40
961.17	227.39
961.47	227.41
961.76	227.38
962.06	227.42
962.36	227.44
962.65	227.47
962.95	227.48
963.24	227.49
963.54	227.54
963.83	227.53
964.13	227.50
964.42	227.49
964.72	227.39
965.01	227.36
965.31	227.35
965.60	227.31
965.90	227.34
966.19	227.33
966.49	227.36
966.78	227.38
967.08	227.39
967.37	227.38
967.67	227.34
967.96	227.36
968.26	227.38
968.55	227.37
968.85	227.37
969.14	227.36
969.43	227.35
969.73	227.31
970.02	227.32
970.32	227.32
970.61	227.32
970.91	227.29
971.20	227.28
971.49	227.27
971.79	227.28
972.08	227.20
972.38	227.20
972.67	227.20
972.96	227.21
973.26	227.18
973.55	227.18
973.85	227.15
974.14	227.13
974.43	227.11
974.73	227.10
975.02	227.04
975.31	227.05
975.61	227.03
975.90	226.99
976.19	226.96
976.49	226.96
976.78	226.94
977.07	226.95
977.37	226.94
977.66	226.92
977.95	226.90
978.24	226.93
978.54	226.93
978.83	226.93
979.12	226.89
979.42	226.92
979.71	226.92
980.00	226.94
980.29	226.95
980.59	226.90
980.88	226.93
981.17	226.95
981.46	226.93
981.76	226.91
982.05	226.95
982.34	226.96
982.63	226.96
982.93	226.95
983.22	226.95
983.51	226.96
983.80	226.99
984.09	226.98
984.39	226.94
984.68	226.92
984.97	226.90
985.26	226.90
985.55	226.87
985.85	226.82
986.14	226.83
986.43	226.85
986.72	226.84
987.01	226.80
987.30	226.80
987.59	226.80
987.89	226.82
988.18	226.77
988.47	226.75
988.76	226.76
989.05	226.77
989.34	226.76
989.63	226.79
989.92	226.76
990.22	226.78
990.51	226.80
990.80	226.80
991.09	226.81
991.38	226.84
991.67	226.84
991.96	226.86
992.25	226.86
992.54	226.85
992.83	226.89
993.12	226.87
993.41	226.91
993.70	226.97
993.99	226.98
994.28	227.04
994.58	227.08
994.87	227.07
995.16	227.08
995.45	227.08
995.74	227.08
996.03	227.12
996.32	227.10
996.61	227.13
996.90	227.13
997.19	227.13
997.48	227.12
997.77	227.13
998.06	227.16
998.34	227.18
998.63	227.16
998.92	227.15
999.21	227.18
999.50	227.18
999.79	227.12
1000.08	227.15
1000.37	227.14
1000.66	227.14
1000.95	227.18
1001.24	227.21
1001.53	227.21
1001.82	227.20
1002.11	227.15
1002.40	227.20
1002.68	227.22
1002.97	227.28
1003.26	227.28
1003.55	227.28
1003.84	227.29
1004.13	227.32
1004.42	227.31
1004.71	227.34
1004.99	227.34
1005.28	227.40
1005.57	227.36
1005.86	227.35
1006.15	227.34
1006.44	227.31
1006.72	227.31
1007.01	227.29
1007.30	227.28
1007.59	227.29
1007.88	227.28
1008.17	227.29
1008.45	227.28
1008.74	227.23
1009.03	227.21
1009.32	227.17
1009.60	227.15
1009.89	227.11
1010.18	227.03
1010.47	227.04
1010.76	227.01
1011.04	226.98
1011.33	226.95
1011.62	226.96
1011.91	226.97
1012.19	226.95
1012.48	226.95
1012.77	226.91
1013.05	226.96
1013.34	226.95
1013.63	226.91
1013.92	226.88
1014.20	226.86
1014.49	226.86
1014.78	226.85
1015.06	226.83
1015.35	226.83
1015.64	226.81
1015.92	226.81
1016.21	226.79
1016.50	226.77
1016.78	226.80
1017.07	226.82
1017.36	226.78
1017.64	226.77
1017.93	226.77
1018.22	226.76
1018.50	226.74
1018.79	226.74
1019.08	226.67
1019.36	226.67
1019.65	226.68
1019.93	226.73
1020.22	226.73
1020.51	226.76
1020.79	226.74
1021.08	226.71
1021.36	226.31
1021.65	226.83
1021.94	226.64
1022.22	227.03
1022.51	226.74
1022.79	227.00
1023.08	226.44
1023.36	227.88
1023.65	226.45
>>>>>End Processed Spectral Data<<<<<
