SpectraSuite Data File
++++++++++++++++++++++++++++++++++++
Date: Fri Feb 01 15:58:56 EST 2013
User: group
Dark Spectrum Present: No
Reference Spectrum Present: No
Number of Sampled Component Spectra: 1
Spectrometers: USB2E7196
Integration Time (usec): 35000 (USB2E7196)
Spectra Averaged: 100 (USB2E7196)
Boxcar Smoothing: 10 (USB2E7196)
Correct for Electrical Dark: No (USB2E7196)
Strobe/Lamp Enabled: No (USB2E7196)
Correct for Detector Non-linearity: No (USB2E7196)
Correct for Stray Light: No (USB2E7196)
Number of Pixels in Processed Spectrum: 2048
>>>>>Begin Processed Spectral Data<<<<<
339.09	0.00
339.48	215.58
339.86	216.69
340.24	217.91
340.63	219.15
341.01	221.97
341.39	221.65
341.78	223.13
342.16	223.88
342.54	225.23
342.93	213.33
343.31	224.14
343.69	224.67
344.07	225.11
344.46	225.54
344.84	225.93
345.22	226.17
345.60	226.42
345.99	226.63
346.37	226.78
346.75	226.86
347.13	226.92
347.52	226.94
347.90	226.99
348.28	227.00
348.66	227.04
349.05	227.07
349.43	227.14
349.81	227.16
350.19	227.21
350.57	227.27
350.96	227.39
351.34	227.44
351.72	227.52
352.10	227.62
352.48	227.69
352.87	227.75
353.25	227.84
353.63	227.93
354.01	228.00
354.39	228.10
354.77	228.20
355.15	228.29
355.54	228.37
355.92	228.41
356.30	228.48
356.68	228.63
357.06	228.67
357.44	228.70
357.82	228.75
358.20	228.81
358.58	228.83
358.97	228.88
359.35	228.95
359.73	229.03
360.11	229.08
360.49	229.15
360.87	229.18
361.25	229.18
361.63	229.25
362.01	229.27
362.39	229.24
362.77	229.24
363.15	229.26
363.53	229.25
363.91	229.28
364.29	229.29
364.67	229.17
365.05	229.19
365.43	229.21
365.81	229.25
366.19	229.27
366.57	229.33
366.95	229.31
367.33	229.28
367.71	229.24
368.09	229.23
368.47	229.19
368.85	229.17
369.23	229.16
369.61	229.08
369.99	229.06
370.37	229.08
370.75	229.10
371.13	229.03
371.51	229.00
371.89	228.98
372.27	228.95
372.65	228.92
373.03	228.86
373.41	228.80
373.78	228.72
374.16	228.64
374.54	228.56
374.92	228.50
375.30	228.43
375.68	228.33
376.06	228.28
376.44	228.18
376.82	228.11
377.19	228.04
377.57	227.96
377.95	227.87
378.33	227.79
378.71	227.64
379.09	227.60
379.47	227.50
379.84	227.39
380.22	227.31
380.60	227.23
380.98	227.17
381.36	227.11
381.73	227.02
382.11	226.97
382.49	226.91
382.87	226.84
383.25	226.78
383.62	226.84
384.00	226.78
384.38	226.75
384.76	226.72
385.13	226.71
385.51	226.70
385.89	226.63
386.27	226.57
386.64	226.56
387.02	226.52
387.40	226.51
387.78	226.49
388.15	226.46
388.53	226.46
388.91	226.44
389.29	226.39
389.66	226.42
390.04	226.38
390.42	226.33
390.79	226.34
391.17	226.34
391.55	226.24
391.92	226.21
392.30	226.21
392.68	226.20
393.05	226.22
393.43	226.20
393.81	226.25
394.18	226.28
394.56	226.30
394.94	226.36
395.31	226.36
395.69	226.41
396.06	226.45
396.44	226.48
396.82	226.52
397.19	226.63
397.57	226.64
397.95	226.69
398.32	226.76
398.70	226.85
399.07	226.92
399.45	226.99
399.82	227.05
400.20	227.12
400.58	227.20
400.95	227.22
401.33	227.32
401.70	227.46
402.08	227.55
402.45	227.64
402.83	227.79
403.20	227.92
403.58	228.00
403.95	228.16
404.33	228.30
404.71	228.46
405.08	228.65
405.46	228.80
405.83	228.97
406.21	229.11
406.58	229.26
406.96	229.43
407.33	229.60
407.70	229.82
408.08	230.09
408.45	230.28
408.83	230.51
409.20	230.73
409.58	230.90
409.95	231.13
410.33	231.38
410.70	231.57
411.08	231.85
411.45	232.18
411.82	232.45
412.20	232.79
412.57	233.15
412.95	233.40
413.32	233.86
413.69	234.25
414.07	234.66
414.44	235.11
414.82	235.59
415.19	236.14
415.56	236.67
415.94	237.18
416.31	237.88
416.68	238.49
417.06	239.21
417.43	239.89
417.81	240.67
418.18	241.46
418.55	242.28
418.93	243.17
419.30	244.02
419.67	244.96
420.04	245.91
420.42	246.88
420.79	248.06
421.16	249.17
421.54	250.33
421.91	251.58
422.28	252.81
422.66	254.11
423.03	255.39
423.40	256.73
423.77	258.15
424.15	259.55
424.52	261.06
424.89	262.65
425.26	264.19
425.64	265.65
426.01	267.23
426.38	268.96
426.75	270.62
427.13	272.37
427.50	274.13
427.87	275.99
428.24	277.87
428.61	279.63
428.99	281.55
429.36	283.67
429.73	285.71
430.10	287.75
430.47	289.81
430.85	291.93
431.22	294.18
431.59	296.55
431.96	298.76
432.33	301.25
432.70	303.65
433.08	306.45
433.45	309.03
433.82	311.64
434.19	314.46
434.56	317.27
434.93	319.93
435.30	322.55
435.68	325.42
436.05	328.25
436.42	331.01
436.79	333.51
437.16	336.20
437.53	339.03
437.90	341.81
438.27	344.57
438.64	347.41
439.01	349.98
439.38	352.21
439.75	354.37
440.13	356.86
440.50	359.13
440.87	360.97
441.24	362.92
441.61	365.12
441.98	366.68
442.35	368.48
442.72	370.32
443.09	372.16
443.46	373.20
443.83	373.78
444.20	374.32
444.57	375.18
444.94	375.46
445.31	375.79
445.68	376.11
446.05	376.17
446.42	375.82
446.79	375.41
447.16	374.92
447.53	374.63
447.90	373.46
448.27	372.31
448.64	370.79
449.01	369.70
449.37	367.73
449.74	365.77
450.11	363.49
450.48	361.02
450.85	358.51
451.22	356.33
451.59	354.31
451.96	352.31
452.33	349.72
452.70	347.36
453.07	344.50
453.43	341.65
453.80	338.90
454.17	336.18
454.54	333.65
454.91	330.97
455.28	328.26
455.65	325.78
456.02	323.35
456.38	321.18
456.75	318.49
457.12	316.21
457.49	313.98
457.86	311.84
458.23	309.97
458.59	307.92
458.96	305.84
459.33	303.98
459.70	302.17
460.07	300.67
460.43	298.96
460.80	297.34
461.17	295.89
461.54	294.39
461.91	292.98
462.27	291.53
462.64	290.26
463.01	288.91
463.38	287.62
463.74	286.26
464.11	285.06
464.48	284.07
464.85	282.99
465.21	282.14
465.58	281.22
465.95	280.12
466.32	279.19
466.68	278.27
467.05	277.39
467.42	276.47
467.78	275.54
468.15	274.65
468.52	274.03
468.88	273.17
469.25	272.40
469.62	271.77
469.98	271.12
470.35	270.51
470.72	269.95
471.08	269.28
471.45	268.74
471.82	268.23
472.18	267.58
472.55	267.12
472.92	266.61
473.28	266.17
473.65	265.73
474.02	265.30
474.38	265.00
474.75	264.69
475.11	264.35
475.48	264.11
475.85	263.89
476.21	263.65
476.58	263.49
476.94	263.34
477.31	263.14
477.67	262.99
478.04	262.86
478.41	262.81
478.77	262.86
479.14	262.82
479.50	262.80
479.87	262.93
480.23	263.01
480.60	263.06
480.96	263.16
481.33	263.37
481.69	263.54
482.06	263.75
482.42	263.95
482.79	264.25
483.15	264.56
483.52	264.96
483.88	265.33
484.25	265.69
484.61	266.10
484.98	266.59
485.34	267.16
485.71	267.75
486.07	268.32
486.44	268.91
486.80	269.59
487.17	270.34
487.53	271.14
487.90	272.01
488.26	272.98
488.62	273.91
488.99	274.92
489.35	276.01
489.72	277.09
490.08	278.28
490.44	279.49
490.81	280.83
491.17	282.18
491.54	283.66
491.90	285.23
492.26	286.90
492.63	288.65
492.99	290.41
493.36	292.31
493.72	294.37
494.08	296.49
494.45	298.76
494.81	301.14
495.17	303.61
495.54	306.18
495.90	308.86
496.26	311.70
496.63	314.67
496.99	317.78
497.35	321.10
497.72	324.54
498.08	328.10
498.44	331.73
498.80	335.66
499.17	339.68
499.53	343.87
499.89	348.30
500.26	352.80
500.62	357.49
500.98	362.48
501.34	367.58
501.71	372.91
502.07	378.37
502.43	384.03
502.79	389.83
503.16	395.91
503.52	402.18
503.88	408.61
504.24	415.26
504.60	422.18
504.97	429.26
505.33	436.63
505.69	444.35
506.05	452.16
506.41	460.07
506.78	468.19
507.14	476.59
507.50	485.29
507.86	494.29
508.22	503.48
508.59	512.68
508.95	522.24
509.31	532.10
509.67	542.22
510.03	552.52
510.39	563.05
510.75	573.83
511.12	584.75
511.48	596.09
511.84	607.52
512.20	618.97
512.56	630.88
512.92	643.03
513.28	655.31
513.64	667.76
514.00	680.44
514.37	693.37
514.73	706.50
515.09	719.50
515.45	732.79
515.81	746.37
516.17	760.42
516.53	774.59
516.89	788.70
517.25	802.84
517.61	817.20
517.97	831.62
518.33	846.03
518.69	860.81
519.05	875.71
519.41	890.92
519.77	906.51
520.13	921.98
520.49	937.28
520.85	952.75
521.21	968.44
521.57	984.70
521.93	1000.50
522.29	1016.85
522.65	1033.04
523.01	1049.22
523.37	1065.30
523.73	1081.36
524.09	1097.33
524.45	1113.65
524.81	1130.21
525.17	1147.02
525.53	1163.94
525.89	1180.83
526.25	1197.60
526.61	1214.01
526.97	1230.67
527.33	1247.12
527.68	1263.69
528.04	1280.20
528.40	1296.70
528.76	1313.68
529.12	1330.22
529.48	1347.02
529.84	1363.01
530.20	1379.63
530.56	1396.76
530.91	1414.03
531.27	1430.87
531.63	1447.26
531.99	1463.69
532.35	1479.60
532.71	1495.39
533.07	1511.62
533.42	1527.47
533.78	1543.48
534.14	1559.72
534.50	1574.99
534.86	1590.92
535.21	1606.03
535.57	1622.03
535.93	1637.64
536.29	1652.56
536.65	1667.56
537.00	1682.31
537.36	1697.62
537.72	1712.12
538.08	1726.44
538.44	1740.26
538.79	1754.04
539.15	1767.82
539.51	1781.64
539.87	1795.97
540.22	1809.72
540.58	1823.42
540.94	1836.75
541.29	1849.66
541.65	1862.29
542.01	1875.54
542.37	1887.63
542.72	1900.05
543.08	1911.66
543.44	1923.96
543.79	1935.04
544.15	1946.00
544.51	1957.52
544.87	1968.31
545.22	1979.12
545.58	1989.26
545.94	1998.98
546.29	2008.88
546.65	2018.63
547.01	2027.87
547.36	2036.49
547.72	2044.90
548.07	2052.66
548.43	2060.78
548.79	2068.77
549.14	2076.21
549.50	2083.43
549.86	2091.17
550.21	2098.52
550.57	2105.78
550.92	2112.18
551.28	2119.23
551.64	2126.25
551.99	2132.79
552.35	2138.98
552.70	2145.21
553.06	2151.15
553.41	2157.42
553.77	2163.38
554.13	2169.34
554.48	2175.46
554.84	2181.05
555.19	2186.33
555.55	2191.55
555.90	2195.95
556.26	2200.85
556.61	2205.74
556.97	2210.07
557.32	2214.21
557.68	2218.31
558.03	2222.50
558.39	2226.22
558.74	2230.97
559.10	2234.86
559.45	2238.61
559.81	2242.95
560.16	2246.71
560.52	2249.95
560.87	2253.43
561.23	2256.15
561.58	2259.23
561.94	2261.65
562.29	2264.02
562.64	2266.66
563.00	2269.12
563.35	2272.65
563.71	2275.87
564.06	2279.02
564.42	2281.93
564.77	2284.43
565.12	2286.61
565.48	2288.45
565.83	2290.47
566.19	2291.64
566.54	2292.52
566.89	2293.67
567.25	2294.28
567.60	2295.62
567.96	2297.40
568.31	2298.16
568.66	2299.31
569.02	2300.01
569.37	2300.21
569.72	2301.07
570.08	2301.23
570.43	2301.43
570.78	2300.93
571.14	2299.22
571.49	2297.96
571.84	2297.45
572.20	2296.30
572.55	2295.32
572.90	2294.00
573.26	2292.59
573.61	2290.90
573.96	2289.23
574.31	2286.06
574.67	2283.25
575.02	2279.58
575.37	2276.23
575.72	2272.57
576.08	2269.14
576.43	2265.74
576.78	2262.34
577.13	2259.22
577.49	2256.17
577.84	2252.63
578.19	2248.93
578.54	2245.40
578.90	2240.93
579.25	2235.71
579.60	2230.78
579.95	2225.80
580.30	2220.67
580.66	2215.49
581.01	2210.60
581.36	2205.67
581.71	2201.61
582.06	2197.06
582.42	2192.56
582.77	2187.20
583.12	2182.68
583.47	2177.95
583.82	2172.94
584.17	2167.62
584.53	2162.07
584.88	2156.53
585.23	2150.77
585.58	2145.26
585.93	2139.87
586.28	2135.28
586.63	2130.10
586.98	2125.08
587.34	2120.42
587.69	2115.56
588.04	2110.23
588.39	2104.66
588.74	2098.28
589.09	2092.15
589.44	2085.25
589.79	2079.51
590.14	2074.09
590.49	2067.42
590.84	2061.14
591.19	2055.09
591.54	2048.69
591.89	2041.33
592.25	2034.45
592.60	2027.27
592.95	2019.75
593.30	2012.21
593.65	2004.56
594.00	1997.49
594.35	1990.20
594.70	1982.22
595.05	1974.94
595.40	1967.70
595.75	1960.07
596.10	1953.76
596.45	1947.07
596.80	1940.92
597.15	1934.07
597.50	1926.75
597.85	1920.32
598.19	1913.58
598.54	1906.52
598.89	1899.80
599.24	1893.91
599.59	1887.24
599.94	1881.08
600.29	1874.72
600.64	1868.26
600.99	1860.98
601.34	1854.14
601.69	1847.24
602.04	1840.33
602.39	1833.12
602.74	1826.29
603.08	1819.67
603.43	1812.92
603.78	1805.59
604.13	1798.39
604.48	1791.07
604.83	1784.34
605.18	1777.42
605.53	1769.41
605.87	1761.41
606.22	1754.23
606.57	1746.33
606.92	1738.98
607.27	1731.74
607.62	1724.79
607.96	1717.49
608.31	1710.76
608.66	1703.18
609.01	1695.78
609.36	1688.07
609.70	1680.03
610.05	1672.05
610.40	1664.24
610.75	1655.96
611.10	1648.39
611.44	1639.97
611.79	1632.10
612.14	1623.31
612.49	1614.08
612.83	1605.81
613.18	1597.63
613.53	1589.56
613.88	1580.92
614.22	1572.58
614.57	1564.12
614.92	1555.98
615.27	1548.42
615.61	1540.04
615.96	1531.97
616.31	1524.19
616.65	1516.83
617.00	1509.12
617.35	1501.39
617.70	1493.19
618.04	1484.71
618.39	1476.37
618.74	1468.78
619.08	1460.32
619.43	1452.82
619.78	1445.97
620.12	1438.70
620.47	1431.14
620.82	1422.96
621.16	1415.61
621.51	1408.11
621.85	1400.45
622.20	1392.01
622.55	1383.62
622.89	1375.83
623.24	1368.17
623.59	1360.76
623.93	1353.30
624.28	1346.10
624.62	1338.62
624.97	1331.32
625.32	1324.55
625.66	1317.52
626.01	1310.37
626.35	1303.01
626.70	1295.27
627.04	1287.45
627.39	1279.70
627.73	1272.33
628.08	1265.38
628.43	1258.05
628.77	1250.76
629.12	1243.18
629.46	1235.99
629.81	1228.57
630.15	1221.33
630.50	1213.97
630.84	1205.84
631.19	1197.91
631.53	1190.42
631.88	1182.83
632.22	1175.23
632.57	1167.83
632.91	1160.33
633.26	1152.95
633.60	1145.59
633.95	1138.45
634.29	1131.51
634.64	1124.84
634.98	1117.43
635.32	1110.32
635.67	1103.70
636.01	1096.96
636.36	1090.13
636.70	1083.62
637.05	1077.11
637.39	1070.60
637.73	1064.05
638.08	1058.15
638.42	1052.18
638.77	1045.70
639.11	1039.06
639.45	1032.70
639.80	1026.12
640.14	1019.69
640.49	1013.06
640.83	1006.72
641.17	1000.41
641.52	994.01
641.86	987.57
642.20	981.73
642.55	975.34
642.89	968.86
643.23	962.35
643.58	956.55
643.92	950.39
644.26	944.26
644.61	938.31
644.95	932.33
645.29	925.70
645.64	918.95
645.98	912.72
646.32	906.93
646.66	900.91
647.01	895.09
647.35	889.35
647.69	883.49
648.04	878.00
648.38	872.22
648.72	866.21
649.06	860.13
649.41	854.30
649.75	848.45
650.09	842.49
650.43	836.71
650.78	830.52
651.12	824.56
651.46	818.83
651.80	813.09
652.14	807.69
652.49	802.25
652.83	797.05
653.17	791.27
653.51	785.57
653.85	780.14
654.20	774.46
654.54	768.48
654.88	762.77
655.22	756.80
655.56	751.13
655.90	745.75
656.25	740.46
656.59	735.08
656.93	729.93
657.27	724.78
657.61	719.32
657.95	714.28
658.29	709.20
658.64	703.97
658.98	698.61
659.32	693.08
659.66	687.93
660.00	682.57
660.34	677.65
660.68	672.72
661.02	667.71
661.36	663.01
661.70	658.48
662.05	654.21
662.39	649.89
662.73	645.49
663.07	641.11
663.41	636.74
663.75	632.21
664.09	627.59
664.43	623.24
664.77	619.15
665.11	614.82
665.45	610.66
665.79	606.56
666.13	602.49
666.47	598.43
666.81	594.30
667.15	590.27
667.49	586.42
667.83	582.60
668.17	578.63
668.51	574.54
668.85	570.62
669.19	566.75
669.53	562.89
669.87	558.98
670.21	555.29
670.55	551.63
670.89	548.27
671.23	544.93
671.57	541.38
671.91	537.85
672.25	534.41
672.58	530.93
672.92	527.56
673.26	524.33
673.60	521.17
673.94	518.03
674.28	515.07
674.62	512.06
674.96	508.94
675.30	506.03
675.64	503.16
675.97	500.30
676.31	497.42
676.65	494.50
676.99	491.84
677.33	488.97
677.67	486.16
678.01	483.04
678.34	480.05
678.68	477.23
679.02	474.40
679.36	471.65
679.70	468.92
680.04	466.18
680.37	463.34
680.71	460.53
681.05	457.89
681.39	455.22
681.73	452.58
682.06	450.04
682.40	447.52
682.74	444.95
683.08	442.44
683.42	439.82
683.75	437.35
684.09	434.74
684.43	432.26
684.77	429.75
685.10	427.42
685.44	425.12
685.78	422.73
686.12	420.47
686.45	418.20
686.79	415.88
687.13	413.61
687.46	411.46
687.80	409.34
688.14	407.17
688.48	405.08
688.81	402.82
689.15	400.68
689.49	398.54
689.82	396.48
690.16	394.42
690.50	392.50
690.83	390.52
691.17	388.59
691.51	386.67
691.84	384.82
692.18	382.91
692.52	380.89
692.85	379.04
693.19	377.16
693.52	375.32
693.86	373.51
694.20	371.76
694.53	369.94
694.87	368.11
695.21	366.30
695.54	364.50
695.88	362.80
696.21	361.11
696.55	359.45
696.88	357.77
697.22	356.14
697.56	354.55
697.89	352.91
698.23	351.26
698.56	349.63
698.90	348.06
699.23	346.44
699.57	344.89
699.90	343.33
700.24	341.79
700.58	340.26
700.91	338.77
701.25	337.34
701.58	335.92
701.92	334.58
702.25	333.22
702.59	331.81
702.92	330.46
703.26	329.15
703.59	327.83
703.93	326.63
704.26	325.35
704.60	323.97
704.93	322.68
705.26	321.41
705.60	320.30
705.93	319.11
706.27	318.05
706.60	317.00
706.94	315.90
707.27	314.77
707.61	313.72
707.94	312.71
708.27	311.65
708.61	310.61
708.94	309.60
709.28	308.62
709.61	307.72
709.94	306.77
710.28	305.74
710.61	304.80
710.95	303.70
711.28	302.78
711.61	301.84
711.95	300.96
712.28	300.07
712.61	299.07
712.95	298.14
713.28	297.27
713.61	296.36
713.95	295.49
714.28	294.65
714.61	293.74
714.95	292.87
715.28	292.00
715.61	291.13
715.95	290.24
716.28	289.38
716.61	288.51
716.95	287.69
717.28	286.98
717.61	286.18
717.94	285.49
718.28	284.66
718.61	283.97
718.94	283.25
719.27	282.59
719.61	281.93
719.94	281.32
720.27	280.58
720.60	279.94
720.94	279.32
721.27	278.76
721.60	278.18
721.93	277.59
722.27	277.03
722.60	276.48
722.93	275.92
723.26	275.39
723.59	274.84
723.93	274.33
724.26	273.75
724.59	273.20
724.92	272.64
725.25	272.15
725.59	271.65
725.92	271.14
726.25	270.59
726.58	270.12
726.91	269.59
727.24	269.14
727.57	268.69
727.91	268.18
728.24	267.70
728.57	267.23
728.90	266.76
729.23	266.25
729.56	265.84
729.89	265.39
730.22	264.90
730.55	264.46
730.89	263.97
731.22	263.49
731.55	263.03
731.88	262.61
732.21	262.19
732.54	261.74
732.87	261.33
733.20	260.93
733.53	260.50
733.86	260.13
734.19	259.69
734.52	259.31
734.85	259.01
735.18	258.56
735.51	258.23
735.84	257.85
736.17	257.53
736.50	257.11
736.83	256.89
737.16	256.55
737.49	256.22
737.82	255.89
738.15	255.55
738.48	255.21
738.81	254.92
739.14	254.60
739.47	254.28
739.80	253.96
740.13	253.66
740.46	253.32
740.79	252.98
741.12	252.74
741.45	252.40
741.78	252.07
742.11	251.81
742.44	251.47
742.77	251.17
743.10	250.88
743.43	250.59
743.75	250.17
744.08	250.02
744.41	249.75
744.74	249.51
745.07	249.27
745.40	249.05
745.73	248.81
746.06	248.56
746.39	248.33
746.71	248.06
747.04	247.79
747.37	247.56
747.70	247.35
748.03	247.07
748.36	246.85
748.68	246.59
749.01	246.33
749.34	246.10
749.67	245.86
750.00	245.63
750.33	245.48
750.65	245.28
750.98	244.90
751.31	244.70
751.64	244.46
751.97	244.27
752.29	244.04
752.62	243.77
752.95	243.51
753.28	243.28
753.60	243.11
753.93	242.94
754.26	242.75
754.59	242.51
754.91	242.30
755.24	242.11
755.57	241.93
755.90	241.73
756.22	241.55
756.55	241.38
756.88	241.17
757.20	240.95
757.53	240.77
757.86	240.62
758.19	240.46
758.51	240.28
758.84	240.09
759.17	239.93
759.49	239.77
759.82	239.68
760.15	239.54
760.47	239.36
760.80	239.18
761.13	239.06
761.45	238.92
761.78	238.75
762.11	238.63
762.43	238.47
762.76	238.33
763.08	238.20
763.41	238.02
763.74	237.89
764.06	237.73
764.39	237.57
764.71	237.43
765.04	237.27
765.37	237.12
765.69	236.98
766.02	236.82
766.34	236.67
766.67	236.48
767.00	236.37
767.32	236.30
767.65	236.24
767.97	236.10
768.30	235.97
768.62	235.83
768.95	235.67
769.27	235.56
769.60	235.48
769.92	235.34
770.25	235.25
770.57	235.12
770.90	235.04
771.22	234.89
771.55	234.80
771.87	234.68
772.20	234.56
772.52	234.56
772.85	234.55
773.17	234.49
773.50	234.39
773.82	234.26
774.15	234.12
774.47	233.97
774.80	233.88
775.12	233.79
775.45	233.77
775.77	233.73
776.09	233.66
776.42	233.57
776.74	233.51
777.07	233.44
777.39	233.37
777.72	233.27
778.04	233.24
778.36	233.14
778.69	233.11
779.01	233.05
779.33	232.92
779.66	232.79
779.98	232.73
780.31	232.68
780.63	232.64
780.95	232.61
781.28	232.53
781.60	232.49
781.92	232.45
782.25	232.37
782.57	232.30
782.89	232.22
783.22	232.17
783.54	232.11
783.86	232.07
784.19	232.02
784.51	232.02
784.83	231.95
785.16	231.92
785.48	231.89
785.80	231.87
786.12	231.81
786.45	231.77
786.77	231.71
787.09	231.66
787.42	231.59
787.74	231.55
788.06	231.52
788.38	231.46
788.71	231.40
789.03	231.38
789.35	231.36
789.67	231.34
789.99	231.30
790.32	231.27
790.64	231.24
790.96	231.31
791.28	231.23
791.61	231.21
791.93	231.17
792.25	231.07
792.57	231.12
792.89	231.05
793.21	231.01
793.54	230.99
793.86	230.94
794.18	230.89
794.50	230.84
794.82	230.79
795.14	230.77
795.47	230.74
795.79	230.68
796.11	230.60
796.43	230.52
796.75	230.48
797.07	230.44
797.39	230.40
797.71	230.28
798.04	230.24
798.36	230.19
798.68	230.15
799.00	230.15
799.32	230.06
799.64	230.04
799.96	230.00
800.28	229.96
800.60	229.94
800.92	229.96
801.24	229.91
801.56	229.88
801.89	229.82
802.21	229.79
802.53	229.78
802.85	229.77
803.17	229.83
803.49	229.77
803.81	229.76
804.13	229.70
804.45	229.63
804.77	229.62
805.09	229.59
805.41	229.56
805.73	229.53
806.05	229.48
806.37	229.46
806.69	229.41
807.01	229.38
807.33	229.34
807.65	229.28
807.97	229.30
808.28	229.29
808.60	229.29
808.92	229.26
809.24	229.25
809.56	229.20
809.88	229.13
810.20	229.14
810.52	229.10
810.84	229.10
811.16	229.08
811.48	229.02
811.80	229.05
812.12	229.05
812.43	229.03
812.75	229.00
813.07	228.95
813.39	228.96
813.71	228.92
814.03	228.91
814.35	228.87
814.67	228.83
814.98	228.80
815.30	228.75
815.62	228.71
815.94	228.66
816.26	228.67
816.58	228.63
816.89	228.59
817.21	228.54
817.53	228.50
817.85	228.46
818.17	228.44
818.48	228.39
818.80	228.37
819.12	228.34
819.44	228.30
819.76	228.30
820.07	228.29
820.39	228.29
820.71	228.29
821.03	228.28
821.34	228.25
821.66	228.24
821.98	228.26
822.30	228.27
822.61	228.33
822.93	228.29
823.25	228.29
823.57	228.28
823.88	228.33
824.20	228.34
824.52	228.37
824.83	228.34
825.15	228.33
825.47	228.32
825.79	228.29
826.10	228.31
826.42	228.29
826.74	228.27
827.05	228.26
827.37	228.21
827.69	228.22
828.00	228.21
828.32	228.20
828.64	228.19
828.95	228.23
829.27	228.19
829.58	228.18
829.90	228.19
830.22	228.18
830.53	228.12
830.85	228.10
831.17	228.06
831.48	228.09
831.80	228.07
832.11	228.05
832.43	228.07
832.75	228.05
833.06	228.11
833.38	228.11
833.69	228.11
834.01	228.13
834.32	228.11
834.64	228.12
834.96	228.11
835.27	228.07
835.59	228.02
835.90	227.98
836.22	227.99
836.53	227.96
836.85	227.98
837.16	228.08
837.48	228.12
837.79	228.15
838.11	228.12
838.42	228.15
838.74	228.16
839.05	228.16
839.37	228.14
839.68	228.05
840.00	228.02
840.31	228.03
840.63	228.02
840.94	228.02
841.26	227.99
841.57	228.00
841.88	228.02
842.20	228.01
842.51	227.98
842.83	227.97
843.14	228.04
843.46	227.98
843.77	227.91
844.08	227.87
844.40	227.85
844.71	227.88
845.03	227.86
845.34	227.84
845.65	227.80
845.97	227.83
846.28	227.82
846.60	227.79
846.91	227.78
847.22	227.78
847.54	227.78
847.85	227.77
848.16	227.74
848.48	227.72
848.79	227.77
849.10	227.78
849.42	227.78
849.73	227.71
850.04	227.73
850.36	227.70
850.67	227.68
850.98	227.66
851.30	227.63
851.61	227.60
851.92	227.61
852.23	227.64
852.55	227.63
852.86	227.67
853.17	227.69
853.49	227.70
853.80	227.68
854.11	227.69
854.42	227.73
854.74	227.71
855.05	227.69
855.36	227.63
855.67	227.64
855.99	227.61
856.30	227.69
856.61	227.69
856.92	227.69
857.23	227.71
857.55	227.73
857.86	227.73
858.17	227.74
858.48	227.69
858.79	227.66
859.11	227.69
859.42	227.67
859.73	227.62
860.04	227.62
860.35	227.59
860.66	227.56
860.98	227.52
861.29	227.55
861.60	227.55
861.91	227.54
862.22	227.52
862.53	227.52
862.84	227.38
863.16	227.41
863.47	227.38
863.78	227.35
864.09	227.34
864.40	227.32
864.71	227.32
865.02	227.34
865.33	227.35
865.64	227.31
865.95	227.31
866.27	227.40
866.58	227.38
866.89	227.42
867.20	227.39
867.51	227.39
867.82	227.38
868.13	227.42
868.44	227.42
868.75	227.43
869.06	227.46
869.37	227.53
869.68	227.50
869.99	227.55
870.30	227.55
870.61	227.53
870.92	227.55
871.23	227.57
871.54	227.58
871.85	227.57
872.16	227.58
872.47	227.60
872.78	227.54
873.09	227.55
873.40	227.51
873.71	227.52
874.02	227.54
874.33	227.53
874.64	227.50
874.95	227.53
875.26	227.52
875.56	227.51
875.87	227.48
876.18	227.47
876.49	227.52
876.80	227.53
877.11	227.53
877.42	227.51
877.73	227.48
878.04	227.50
878.35	227.53
878.66	227.52
878.96	227.48
879.27	227.48
879.58	227.49
879.89	227.48
880.20	227.53
880.51	227.52
880.82	227.52
881.12	227.52
881.43	227.49
881.74	227.50
882.05	227.48
882.36	227.48
882.67	227.50
882.97	227.42
883.28	227.40
883.59	227.44
883.90	227.46
884.21	227.48
884.51	227.45
884.82	227.43
885.13	227.43
885.44	227.42
885.74	227.40
886.05	227.38
886.36	227.40
886.67	227.32
886.98	227.35
887.28	227.34
887.59	227.32
887.90	227.32
888.20	227.28
888.51	227.29
888.82	227.27
889.13	227.23
889.43	227.29
889.74	227.27
890.05	227.23
890.35	227.20
890.66	227.16
890.97	227.14
891.28	227.14
891.58	227.12
891.89	227.09
892.20	227.08
892.50	227.07
892.81	227.06
893.12	227.07
893.42	227.01
893.73	227.01
894.04	226.99
894.34	227.00
894.65	227.01
894.95	226.97
895.26	226.97
895.57	226.99
895.87	226.90
896.18	226.94
896.48	226.95
896.79	226.97
897.10	227.01
897.40	227.02
897.71	227.03
898.01	227.00
898.32	227.04
898.63	227.03
898.93	227.02
899.24	227.02
899.54	227.01
899.85	226.99
900.15	227.00
900.46	227.01
900.76	227.00
901.07	226.99
901.38	226.98
901.68	227.00
901.99	226.98
902.29	226.98
902.60	226.95
902.90	226.93
903.21	226.87
903.51	226.83
903.82	226.82
904.12	226.80
904.43	226.82
904.73	226.84
905.03	226.84
905.34	226.95
905.64	226.97
905.95	227.00
906.25	227.02
906.56	227.04
906.86	227.02
907.17	227.03
907.47	227.02
907.77	227.04
908.08	227.04
908.38	227.02
908.69	227.03
908.99	227.04
909.30	227.08
909.60	227.12
909.90	227.12
910.21	227.12
910.51	227.10
910.81	227.10
911.12	227.13
911.42	227.11
911.73	227.02
912.03	227.02
912.33	227.03
912.64	227.02
912.94	227.02
913.24	227.04
913.55	227.01
913.85	227.01
914.15	227.05
914.46	227.05
914.76	227.07
915.06	227.08
915.37	227.06
915.67	227.05
915.97	227.04
916.27	227.03
916.58	227.01
916.88	227.02
917.18	227.02
917.49	227.04
917.79	227.05
918.09	227.05
918.39	227.09
918.70	227.08
919.00	227.07
919.30	227.09
919.60	227.07
919.91	227.08
920.21	227.09
920.51	227.07
920.81	227.07
921.12	227.08
921.42	227.05
921.72	227.11
922.02	227.11
922.32	227.14
922.63	227.14
922.93	227.20
923.23	227.19
923.53	227.19
923.83	227.12
924.13	227.14
924.44	227.13
924.74	227.11
925.04	227.11
925.34	227.07
925.64	227.03
925.94	227.02
926.24	227.05
926.55	227.01
926.85	226.98
927.15	226.96
927.45	226.97
927.75	226.99
928.05	226.94
928.35	226.92
928.65	226.92
928.95	226.92
929.26	226.88
929.56	226.88
929.86	226.88
930.16	226.88
930.46	226.84
930.76	226.83
931.06	226.80
931.36	226.80
931.66	226.84
931.96	226.86
932.26	226.87
932.56	226.82
932.86	226.85
933.16	226.86
933.46	226.85
933.76	226.79
934.06	226.79
934.36	226.83
934.66	226.84
934.96	226.83
935.26	226.87
935.56	226.88
935.86	226.87
936.16	226.87
936.46	226.86
936.76	226.89
937.06	226.89
937.36	226.88
937.66	226.89
937.96	226.86
938.26	226.83
938.56	226.84
938.86	226.84
939.16	226.84
939.46	226.84
939.76	226.85
940.06	226.85
940.35	226.82
940.65	226.78
940.95	226.79
941.25	226.76
941.55	226.74
941.85	226.71
942.15	226.75
942.45	226.78
942.75	226.80
943.04	226.78
943.34	226.82
943.64	226.79
943.94	226.75
944.24	226.76
944.54	226.75
944.84	226.76
945.13	226.75
945.43	226.74
945.73	226.75
946.03	226.79
946.33	226.79
946.62	226.80
946.92	226.77
947.22	226.75
947.52	226.74
947.82	226.74
948.11	226.78
948.41	226.73
948.71	226.70
949.01	226.69
949.31	226.70
949.60	226.67
949.90	226.70
950.20	226.75
950.50	226.75
950.79	226.76
951.09	226.75
951.39	226.75
951.69	226.74
951.98	226.73
952.28	226.68
952.58	226.70
952.87	226.71
953.17	226.74
953.47	226.75
953.76	226.76
954.06	226.74
954.36	226.71
954.66	226.72
954.95	226.75
955.25	226.76
955.55	226.78
955.84	226.76
956.14	226.78
956.44	226.72
956.73	226.69
957.03	226.72
957.32	226.73
957.62	226.72
957.92	226.77
958.21	226.81
958.51	226.92
958.81	226.92
959.10	226.90
959.40	226.93
959.69	226.92
959.99	226.94
960.29	226.95
960.58	226.92
960.88	226.96
961.17	226.94
961.47	226.91
961.76	226.85
962.06	226.89
962.36	226.86
962.65	226.89
962.95	226.93
963.24	226.91
963.54	226.94
963.83	226.91
964.13	226.89
964.42	226.85
964.72	226.77
965.01	226.79
965.31	226.81
965.60	226.75
965.90	226.81
966.19	226.79
966.49	226.79
966.78	226.80
967.08	226.76
967.37	226.73
967.67	226.74
967.96	226.76
968.26	226.75
968.55	226.74
968.85	226.73
969.14	226.71
969.43	226.72
969.73	226.66
970.02	226.72
970.32	226.68
970.61	226.69
970.91	226.63
971.20	226.60
971.49	226.58
971.79	226.63
972.08	226.60
972.38	226.62
972.67	226.62
972.96	226.63
973.26	226.63
973.55	226.64
973.85	226.62
974.14	226.64
974.43	226.65
974.73	226.68
975.02	226.69
975.31	226.69
975.61	226.65
975.90	226.68
976.19	226.66
976.49	226.70
976.78	226.70
977.07	226.73
977.37	226.73
977.66	226.76
977.95	226.76
978.24	226.73
978.54	226.73
978.83	226.72
979.12	226.71
979.42	226.73
979.71	226.74
980.00	226.77
980.29	226.78
980.59	226.75
980.88	226.77
981.17	226.78
981.46	226.78
981.76	226.79
982.05	226.83
982.34	226.84
982.63	226.80
982.93	226.80
983.22	226.81
983.51	226.81
983.80	226.80
984.09	226.81
984.39	226.81
984.68	226.80
984.97	226.80
985.26	226.81
985.55	226.81
985.85	226.80
986.14	226.81
986.43	226.80
986.72	226.81
987.01	226.74
987.30	226.73
987.59	226.73
987.89	226.75
988.18	226.74
988.47	226.72
988.76	226.73
989.05	226.74
989.34	226.73
989.63	226.78
989.92	226.74
990.22	226.74
990.51	226.74
990.80	226.73
991.09	226.76
991.38	226.76
991.67	226.77
991.96	226.76
992.25	226.74
992.54	226.72
992.83	226.71
993.12	226.72
993.41	226.78
993.70	226.84
993.99	226.86
994.28	226.84
994.58	226.86
994.87	226.87
995.16	226.86
995.45	226.86
995.74	226.80
996.03	226.83
996.32	226.86
996.61	226.89
996.90	226.88
997.19	226.88
997.48	226.90
997.77	226.89
998.06	226.89
998.34	226.92
998.63	226.93
998.92	226.94
999.21	226.97
999.50	226.92
999.79	226.87
1000.08	226.82
1000.37	226.83
1000.66	226.82
1000.95	226.81
1001.24	226.83
1001.53	226.85
1001.82	226.86
1002.11	226.85
1002.40	226.84
1002.68	226.88
1002.97	226.93
1003.26	226.90
1003.55	226.87
1003.84	226.86
1004.13	226.89
1004.42	226.85
1004.71	226.84
1004.99	226.86
1005.28	226.89
1005.57	226.90
1005.86	226.89
1006.15	226.91
1006.44	226.90
1006.72	226.89
1007.01	226.90
1007.30	226.89
1007.59	226.90
1007.88	226.89
1008.17	226.87
1008.45	226.86
1008.74	226.81
1009.03	226.78
1009.32	226.79
1009.60	226.82
1009.89	226.80
1010.18	226.78
1010.47	226.79
1010.76	226.80
1011.04	226.80
1011.33	226.76
1011.62	226.77
1011.91	226.77
1012.19	226.77
1012.48	226.78
1012.77	226.79
1013.05	226.81
1013.34	226.84
1013.63	226.82
1013.92	226.84
1014.20	226.84
1014.49	226.82
1014.78	226.82
1015.06	226.78
1015.35	226.78
1015.64	226.76
1015.92	226.80
1016.21	226.78
1016.50	226.78
1016.78	226.76
1017.07	226.77
1017.36	226.75
1017.64	226.74
1017.93	226.74
1018.22	226.73
1018.50	226.72
1018.79	226.70
1019.08	226.67
1019.36	226.65
1019.65	226.65
1019.93	226.69
1020.22	226.73
1020.51	226.77
1020.79	226.77
1021.08	226.34
1021.36	226.67
1021.65	226.59
1021.94	226.67
1022.22	226.91
1022.51	226.89
1022.79	227.52
1023.08	227.02
1023.36	227.78
1023.65	226.57
>>>>>End Processed Spectral Data<<<<<
