SpectraSuite Data File
++++++++++++++++++++++++++++++++++++
Date: Fri Feb 01 15:35:34 EST 2013
User: group
Dark Spectrum Present: No
Reference Spectrum Present: No
Number of Sampled Component Spectra: 1
Spectrometers: USB2E7196
Integration Time (usec): 35000 (USB2E7196)
Spectra Averaged: 100 (USB2E7196)
Boxcar Smoothing: 10 (USB2E7196)
Correct for Electrical Dark: No (USB2E7196)
Strobe/Lamp Enabled: No (USB2E7196)
Correct for Detector Non-linearity: No (USB2E7196)
Correct for Stray Light: No (USB2E7196)
Number of Pixels in Processed Spectrum: 2048
>>>>>Begin Processed Spectral Data<<<<<
339.09	0.00
339.48	214.97
339.86	216.48
340.24	217.87
340.63	219.67
341.01	222.02
341.39	221.76
341.78	223.53
342.16	224.39
342.54	225.34
342.93	213.40
343.31	224.18
343.69	224.73
344.07	225.17
344.46	225.60
344.84	225.96
345.22	226.22
345.60	226.47
345.99	226.63
346.37	226.76
346.75	226.85
347.13	226.91
347.52	226.93
347.90	226.99
348.28	227.03
348.66	227.06
349.05	227.07
349.43	227.08
349.81	227.14
350.19	227.19
350.57	227.23
350.96	227.31
351.34	227.41
351.72	227.50
352.10	227.60
352.48	227.66
352.87	227.69
353.25	227.70
353.63	227.73
354.01	227.82
354.39	227.88
354.77	227.93
355.15	228.05
355.54	228.12
355.92	228.12
356.30	228.19
356.68	228.32
357.06	228.35
357.44	228.41
357.82	228.43
358.20	228.52
358.58	228.56
358.97	228.63
359.35	228.68
359.73	228.74
360.11	228.77
360.49	228.80
360.87	228.84
361.25	228.91
361.63	229.04
362.01	229.09
362.39	229.13
362.77	229.17
363.15	229.17
363.53	229.17
363.91	229.24
364.29	229.23
364.67	229.16
365.05	229.23
365.43	229.25
365.81	229.31
366.19	229.30
366.57	229.34
366.95	229.35
367.33	229.32
367.71	229.29
368.09	229.32
368.47	229.31
368.85	229.31
369.23	229.32
369.61	229.22
369.99	229.20
370.37	229.18
370.75	229.17
371.13	229.12
371.51	229.08
371.89	229.03
372.27	229.03
372.65	228.98
373.03	228.91
373.41	228.86
373.78	228.81
374.16	228.72
374.54	228.61
374.92	228.49
375.30	228.47
375.68	228.39
376.06	228.32
376.44	228.26
376.82	228.20
377.19	228.14
377.57	228.09
377.95	228.03
378.33	227.98
378.71	227.85
379.09	227.82
379.47	227.75
379.84	227.67
380.22	227.57
380.60	227.47
380.98	227.41
381.36	227.32
381.73	227.23
382.11	227.18
382.49	227.16
382.87	227.15
383.25	227.05
383.62	227.09
384.00	227.02
384.38	226.99
384.76	226.96
385.13	226.95
385.51	226.91
385.89	226.82
386.27	226.76
386.64	226.74
387.02	226.65
387.40	226.62
387.78	226.61
388.15	226.57
388.53	226.55
388.91	226.48
389.29	226.47
389.66	226.46
390.04	226.42
390.42	226.38
390.79	226.33
391.17	226.34
391.55	226.23
391.92	226.20
392.30	226.15
392.68	226.14
393.05	226.10
393.43	226.07
393.81	226.11
394.18	226.11
394.56	226.11
394.94	226.16
395.31	226.19
395.69	226.22
396.06	226.26
396.44	226.29
396.82	226.36
397.19	226.44
397.57	226.48
397.95	226.55
398.32	226.59
398.70	226.63
399.07	226.71
399.45	226.77
399.82	226.81
400.20	226.90
400.58	227.00
400.95	227.00
401.33	227.11
401.70	227.25
402.08	227.32
402.45	227.41
402.83	227.54
403.20	227.66
403.58	227.76
403.95	227.88
404.33	228.04
404.71	228.16
405.08	228.35
405.46	228.50
405.83	228.66
406.21	228.80
406.58	229.00
406.96	229.14
407.33	229.33
407.70	229.57
408.08	229.85
408.45	230.04
408.83	230.32
409.20	230.51
409.58	230.68
409.95	230.94
410.33	231.22
410.70	231.49
411.08	231.78
411.45	232.08
411.82	232.40
412.20	232.75
412.57	233.15
412.95	233.44
413.32	233.83
413.69	234.27
414.07	234.75
414.44	235.21
414.82	235.71
415.19	236.27
415.56	236.83
415.94	237.37
416.31	238.03
416.68	238.63
417.06	239.38
417.43	240.07
417.81	240.86
418.18	241.66
418.55	242.49
418.93	243.34
419.30	244.26
419.67	245.25
420.04	246.22
420.42	247.23
420.79	248.41
421.16	249.57
421.54	250.74
421.91	251.93
422.28	253.19
422.66	254.48
423.03	255.83
423.40	257.19
423.77	258.63
424.15	260.08
424.52	261.57
424.89	263.19
425.26	264.75
425.64	266.18
426.01	267.81
426.38	269.46
426.75	271.17
427.13	272.92
427.50	274.66
427.87	276.55
428.24	278.40
428.61	280.15
428.99	282.11
429.36	284.22
429.73	286.34
430.10	288.38
430.47	290.47
430.85	292.55
431.22	294.76
431.59	297.13
431.96	299.38
432.33	301.90
432.70	304.30
433.08	307.13
433.45	309.83
433.82	312.43
434.19	315.29
434.56	318.08
434.93	320.72
435.30	323.38
435.68	326.22
436.05	329.07
436.42	331.92
436.79	334.44
437.16	337.10
437.53	339.91
437.90	342.72
438.27	345.46
438.64	348.28
439.01	350.90
439.38	353.10
439.75	355.26
440.13	357.71
440.50	360.03
440.87	361.87
441.24	363.74
441.61	365.90
441.98	367.39
442.35	369.19
442.72	371.06
443.09	372.86
443.46	373.85
443.83	374.41
444.20	374.87
444.57	375.65
444.94	375.95
445.31	376.27
445.68	376.59
446.05	376.66
446.42	376.28
446.79	375.85
447.16	375.44
447.53	375.07
447.90	373.91
448.27	372.72
448.64	371.15
449.01	370.07
449.37	368.06
449.74	366.19
450.11	363.92
450.48	361.40
450.85	358.85
451.22	356.72
451.59	354.69
451.96	352.70
452.33	350.15
452.70	347.78
453.07	344.90
453.43	341.99
453.80	339.22
454.17	336.55
454.54	333.94
454.91	331.18
455.28	328.52
455.65	326.07
456.02	323.61
456.38	321.40
456.75	318.71
457.12	316.44
457.49	314.21
457.86	312.03
458.23	310.20
458.59	308.13
458.96	306.01
459.33	304.16
459.70	302.30
460.07	300.79
460.43	299.06
460.80	297.50
461.17	296.07
461.54	294.57
461.91	293.10
462.27	291.74
462.64	290.49
463.01	289.14
463.38	287.80
463.74	286.44
464.11	285.32
464.48	284.27
464.85	283.17
465.21	282.32
465.58	281.42
465.95	280.31
466.32	279.44
466.68	278.56
467.05	277.67
467.42	276.84
467.78	275.87
468.15	275.00
468.52	274.32
468.88	273.47
469.25	272.69
469.62	272.12
469.98	271.43
470.35	270.83
470.72	270.23
471.08	269.61
471.45	269.10
471.82	268.57
472.18	267.97
472.55	267.57
472.92	267.03
473.28	266.56
473.65	266.11
474.02	265.68
474.38	265.32
474.75	264.99
475.11	264.59
475.48	264.34
475.85	264.11
476.21	263.89
476.58	263.67
476.94	263.56
477.31	263.36
477.67	263.18
478.04	263.06
478.41	263.00
478.77	263.07
479.14	262.99
479.50	262.97
479.87	263.08
480.23	263.16
480.60	263.25
480.96	263.33
481.33	263.56
481.69	263.73
482.06	263.94
482.42	264.18
482.79	264.45
483.15	264.76
483.52	265.13
483.88	265.47
484.25	265.86
484.61	266.27
484.98	266.74
485.34	267.38
485.71	267.93
486.07	268.54
486.44	269.09
486.80	269.78
487.17	270.48
487.53	271.27
487.90	272.05
488.26	272.99
488.62	274.01
488.99	274.98
489.35	276.06
489.72	277.16
490.08	278.33
490.44	279.57
490.81	280.93
491.17	282.27
491.54	283.74
491.90	285.31
492.26	286.94
492.63	288.68
492.99	290.38
493.36	292.27
493.72	294.32
494.08	296.42
494.45	298.70
494.81	301.07
495.17	303.51
495.54	306.12
495.90	308.74
496.26	311.55
496.63	314.51
496.99	317.59
497.35	320.85
497.72	324.22
498.08	327.76
498.44	331.41
498.80	335.37
499.17	339.42
499.53	343.54
499.89	347.94
500.26	352.39
500.62	357.08
500.98	362.08
501.34	367.12
501.71	372.41
502.07	377.81
502.43	383.42
502.79	389.22
503.16	395.32
503.52	401.60
503.88	407.98
504.24	414.56
504.60	421.43
504.97	428.55
505.33	435.86
505.69	443.52
506.05	451.31
506.41	459.21
506.78	467.42
507.14	475.91
507.50	484.63
507.86	493.71
508.22	502.85
508.59	512.00
508.95	521.63
509.31	531.47
509.67	541.61
510.03	551.95
510.39	562.48
510.75	573.28
511.12	584.27
511.48	595.54
511.84	607.02
512.20	618.56
512.56	630.59
512.92	642.82
513.28	655.25
513.64	667.79
514.00	680.46
514.37	693.37
514.73	706.46
515.09	719.51
515.45	732.80
515.81	746.43
516.17	760.40
516.53	774.52
516.89	788.71
517.25	802.88
517.61	817.32
517.97	831.85
518.33	846.32
518.69	861.14
519.05	876.13
519.41	891.24
519.77	906.82
520.13	922.28
520.49	937.58
520.85	952.98
521.21	968.73
521.57	985.05
521.93	1000.81
522.29	1017.19
522.65	1033.44
523.01	1049.73
523.37	1065.91
523.73	1082.18
524.09	1098.26
524.45	1114.63
524.81	1131.31
525.17	1148.07
525.53	1165.03
525.89	1181.90
526.25	1198.77
526.61	1215.29
526.97	1232.13
527.33	1248.56
527.68	1265.19
528.04	1281.83
528.40	1298.54
528.76	1315.63
529.12	1332.25
529.48	1349.15
529.84	1365.29
530.20	1381.96
530.56	1399.02
530.91	1416.40
531.27	1433.12
531.63	1449.55
531.99	1466.21
532.35	1482.12
532.71	1498.15
533.07	1514.34
533.42	1530.17
533.78	1546.20
534.14	1562.46
534.50	1577.90
534.86	1593.80
535.21	1608.96
535.57	1624.89
535.93	1640.32
536.29	1655.01
536.65	1670.20
537.00	1685.03
537.36	1700.30
537.72	1714.85
538.08	1729.17
538.44	1742.89
538.79	1756.89
539.15	1770.71
539.51	1784.35
539.87	1798.79
540.22	1812.47
540.58	1826.38
540.94	1839.91
541.29	1852.86
541.65	1865.70
542.01	1878.96
542.37	1891.35
542.72	1903.83
543.08	1915.71
543.44	1928.14
543.79	1939.48
544.15	1950.32
544.51	1961.85
544.87	1972.77
545.22	1983.68
545.58	1993.89
545.94	2003.71
546.29	2013.56
546.65	2023.49
547.01	2032.87
547.36	2041.56
547.72	2050.07
548.07	2057.80
548.43	2065.83
548.79	2073.88
549.14	2081.38
549.50	2088.69
549.86	2096.40
550.21	2103.64
550.57	2110.70
550.92	2117.26
551.28	2124.34
551.64	2131.41
551.99	2138.09
552.35	2144.21
552.70	2150.27
553.06	2156.35
553.41	2162.80
553.77	2168.83
554.13	2174.90
554.48	2180.97
554.84	2186.39
555.19	2191.85
555.55	2197.07
555.90	2201.66
556.26	2206.41
556.61	2211.10
556.97	2215.30
557.32	2219.35
557.68	2223.52
558.03	2227.99
558.39	2231.73
558.74	2236.33
559.10	2240.20
559.45	2243.83
559.81	2248.30
560.16	2252.19
560.52	2255.42
560.87	2258.74
561.23	2261.43
561.58	2264.39
561.94	2266.94
562.29	2269.49
562.64	2272.03
563.00	2274.68
563.35	2278.16
563.71	2281.43
564.06	2284.64
564.42	2287.59
564.77	2290.13
565.12	2292.47
565.48	2294.10
565.83	2295.98
566.19	2297.26
566.54	2298.25
566.89	2299.38
567.25	2299.88
567.60	2301.13
567.96	2302.72
568.31	2303.67
568.66	2304.71
569.02	2305.33
569.37	2305.62
569.72	2306.38
570.08	2306.53
570.43	2306.51
570.78	2305.82
571.14	2304.08
571.49	2302.77
571.84	2302.43
572.20	2301.18
572.55	2300.10
572.90	2298.78
573.26	2297.34
573.61	2295.59
573.96	2293.69
574.31	2290.59
574.67	2287.46
575.02	2283.81
575.37	2280.40
575.72	2276.50
576.08	2273.16
576.43	2269.63
576.78	2265.86
577.13	2262.60
577.49	2259.39
577.84	2255.82
578.19	2252.08
578.54	2248.39
578.90	2243.97
579.25	2238.20
579.60	2233.20
579.95	2228.10
580.30	2222.83
580.66	2217.59
581.01	2212.59
581.36	2207.64
581.71	2203.34
582.06	2198.76
582.42	2194.12
582.77	2188.86
583.12	2184.21
583.47	2179.27
583.82	2174.08
584.17	2168.70
584.53	2163.16
584.88	2157.36
585.23	2151.53
585.58	2145.98
585.93	2140.59
586.28	2135.92
586.63	2130.99
586.98	2125.87
587.34	2121.13
587.69	2116.14
588.04	2110.77
588.39	2104.95
588.74	2098.52
589.09	2092.55
589.44	2085.83
589.79	2079.97
590.14	2074.35
590.49	2067.70
590.84	2061.44
591.19	2055.53
591.54	2049.09
591.89	2041.58
592.25	2034.89
592.60	2027.63
592.95	2019.90
593.30	2012.57
593.65	2004.95
594.00	1997.86
594.35	1990.77
594.70	1982.65
595.05	1975.43
595.40	1968.16
595.75	1960.68
596.10	1954.10
596.45	1947.09
596.80	1940.85
597.15	1934.21
597.50	1927.05
597.85	1920.58
598.19	1913.75
598.54	1906.47
598.89	1899.98
599.24	1894.09
599.59	1887.26
599.94	1880.98
600.29	1874.75
600.64	1868.04
600.99	1860.34
601.34	1853.35
601.69	1846.35
602.04	1839.41
602.39	1832.11
602.74	1825.29
603.08	1818.55
603.43	1811.97
603.78	1804.71
604.13	1797.43
604.48	1789.93
604.83	1783.09
605.18	1776.05
605.53	1768.07
605.87	1760.16
606.22	1752.76
606.57	1744.87
606.92	1737.62
607.27	1730.46
607.62	1723.45
607.96	1716.18
608.31	1709.64
608.66	1701.98
609.01	1694.32
609.36	1686.75
609.70	1678.68
610.05	1670.45
610.40	1662.73
610.75	1654.34
611.10	1646.72
611.44	1638.42
611.79	1630.51
612.14	1621.70
612.49	1612.56
612.83	1604.23
613.18	1596.09
613.53	1588.12
613.88	1579.50
614.22	1571.16
614.57	1562.58
614.92	1554.55
615.27	1546.97
615.61	1538.60
615.96	1530.73
616.31	1523.09
616.65	1515.78
617.00	1508.24
617.35	1500.67
617.70	1492.20
618.04	1483.80
618.39	1475.52
618.74	1467.96
619.08	1459.59
619.43	1452.09
619.78	1445.21
620.12	1437.96
620.47	1430.44
620.82	1422.16
621.16	1414.80
621.51	1407.31
621.85	1399.74
622.20	1391.25
622.55	1382.94
622.89	1375.19
623.24	1367.49
623.59	1360.11
623.93	1352.52
624.28	1345.32
624.62	1337.85
624.97	1330.86
625.32	1324.20
625.66	1317.29
626.01	1309.98
626.35	1302.56
626.70	1294.81
627.04	1286.93
627.39	1279.25
627.73	1271.79
628.08	1264.90
628.43	1257.53
628.77	1249.95
629.12	1242.35
629.46	1235.14
629.81	1227.72
630.15	1220.44
630.50	1213.09
630.84	1204.87
631.19	1196.99
631.53	1189.40
631.88	1181.82
632.22	1174.13
632.57	1166.72
632.91	1159.13
633.26	1151.76
633.60	1144.46
633.95	1137.37
634.29	1130.48
634.64	1123.82
634.98	1116.42
635.32	1109.16
635.67	1102.65
636.01	1096.19
636.36	1089.34
636.70	1082.81
637.05	1076.17
637.39	1069.69
637.73	1063.17
638.08	1057.28
638.42	1051.29
638.77	1044.93
639.11	1038.27
639.45	1031.95
639.80	1025.34
640.14	1018.90
640.49	1012.38
640.83	1006.03
641.17	999.76
641.52	993.37
641.86	986.91
642.20	981.12
642.55	974.95
642.89	968.43
643.23	961.84
643.58	956.12
643.92	949.97
644.26	943.88
644.61	937.88
644.95	931.85
645.29	925.28
645.64	918.47
645.98	912.12
646.32	906.40
646.66	900.33
647.01	894.45
647.35	888.79
647.69	882.93
648.04	877.48
648.38	871.71
648.72	865.69
649.06	859.60
649.41	853.76
649.75	847.75
650.09	841.81
650.43	836.01
650.78	829.87
651.12	823.92
651.46	818.27
651.80	812.49
652.14	807.08
652.49	801.66
652.83	796.54
653.17	790.81
653.51	785.00
653.85	779.64
654.20	774.00
654.54	767.88
654.88	762.28
655.22	756.39
655.56	750.66
655.90	745.27
656.25	740.06
656.59	734.67
656.93	729.58
657.27	724.45
657.61	719.02
657.95	713.94
658.29	708.86
658.64	703.62
658.98	698.28
659.32	692.81
659.66	687.62
660.00	682.29
660.34	677.37
660.68	672.53
661.02	667.54
661.36	662.87
661.70	658.39
662.05	653.97
662.39	649.55
662.73	645.15
663.07	640.69
663.41	636.17
663.75	631.72
664.09	627.10
664.43	622.72
664.77	618.61
665.11	614.33
665.45	610.28
665.79	606.24
666.13	602.19
666.47	598.13
666.81	593.97
667.15	589.86
667.49	585.95
667.83	582.10
668.17	578.17
668.51	574.13
668.85	570.18
669.19	566.32
669.53	562.51
669.87	558.56
670.21	554.95
670.55	551.42
670.89	547.98
671.23	544.62
671.57	541.09
671.91	537.61
672.25	534.16
672.58	530.59
672.92	527.17
673.26	524.01
673.60	520.90
673.94	517.80
674.28	514.92
674.62	511.93
674.96	508.81
675.30	505.88
675.64	502.97
675.97	500.16
676.31	497.28
676.65	494.32
676.99	491.66
677.33	488.75
677.67	485.91
678.01	482.91
678.34	479.84
678.68	477.01
679.02	474.11
679.36	471.35
679.70	468.60
680.04	465.79
680.37	462.87
680.71	460.02
681.05	457.43
681.39	454.71
681.73	452.15
682.06	449.68
682.40	447.14
682.74	444.63
683.08	442.12
683.42	439.56
683.75	437.07
684.09	434.58
684.43	432.13
684.77	429.68
685.10	427.31
685.44	425.08
685.78	422.80
686.12	420.56
686.45	418.26
686.79	416.01
687.13	413.85
687.46	411.70
687.80	409.51
688.14	407.30
688.48	405.27
688.81	402.98
689.15	400.82
689.49	398.69
689.82	396.62
690.16	394.52
690.50	392.60
690.83	390.67
691.17	388.64
691.51	386.77
691.84	384.95
692.18	383.06
692.52	381.07
692.85	379.13
693.19	377.30
693.52	375.50
693.86	373.63
694.20	371.85
694.53	370.08
694.87	368.27
695.21	366.50
695.54	364.68
695.88	362.98
696.21	361.25
696.55	359.49
696.88	357.75
697.22	356.14
697.56	354.48
697.89	352.81
698.23	351.22
698.56	349.60
698.90	347.96
699.23	346.30
699.57	344.75
699.90	343.22
700.24	341.67
700.58	340.13
700.91	338.68
701.25	337.21
701.58	335.84
701.92	334.50
702.25	333.08
702.59	331.66
702.92	330.31
703.26	329.02
703.59	327.78
703.93	326.61
704.26	325.33
704.60	324.01
704.93	322.75
705.26	321.52
705.60	320.36
705.93	319.21
706.27	318.16
706.60	317.11
706.94	316.07
707.27	314.90
707.61	313.83
707.94	312.79
708.27	311.70
708.61	310.65
708.94	309.70
709.28	308.75
709.61	307.83
709.94	306.93
710.28	305.92
710.61	304.96
710.95	303.87
711.28	302.97
711.61	302.01
711.95	301.08
712.28	300.12
712.61	299.09
712.95	298.18
713.28	297.30
713.61	296.37
713.95	295.49
714.28	294.63
714.61	293.77
714.95	292.97
715.28	292.13
715.61	291.26
715.95	290.36
716.28	289.51
716.61	288.70
716.95	287.86
717.28	287.11
717.61	286.36
717.94	285.64
718.28	284.86
718.61	284.18
718.94	283.49
719.27	282.84
719.61	282.20
719.94	281.50
720.27	280.77
720.60	280.10
720.94	279.43
721.27	278.85
721.60	278.24
721.93	277.61
722.27	277.08
722.60	276.51
722.93	275.95
723.26	275.42
723.59	274.85
723.93	274.29
724.26	273.71
724.59	273.12
724.92	272.60
725.25	272.09
725.59	271.59
725.92	271.10
726.25	270.64
726.58	270.17
726.91	269.71
727.24	269.24
727.57	268.82
727.91	268.32
728.24	267.88
728.57	267.43
728.90	266.98
729.23	266.50
729.56	266.06
729.89	265.56
730.22	265.07
730.55	264.61
730.89	264.17
731.22	263.76
731.55	263.31
731.88	262.88
732.21	262.48
732.54	262.00
732.87	261.53
733.20	261.10
733.53	260.72
733.86	260.33
734.19	259.94
734.52	259.55
734.85	259.27
735.18	258.87
735.51	258.51
735.84	258.12
736.17	257.76
736.50	257.37
736.83	257.14
737.16	256.82
737.49	256.45
737.82	256.09
738.15	255.79
738.48	255.44
738.81	255.13
739.14	254.81
739.47	254.52
739.80	254.24
740.13	253.93
740.46	253.61
740.79	253.31
741.12	252.99
741.45	252.68
741.78	252.28
742.11	251.98
742.44	251.66
742.77	251.40
743.10	251.09
743.43	250.78
743.75	250.41
744.08	250.29
744.41	250.04
744.74	249.78
745.07	249.46
745.40	249.24
745.73	248.98
746.06	248.67
746.39	248.41
746.71	248.17
747.04	247.88
747.37	247.59
747.70	247.35
748.03	247.12
748.36	246.91
748.68	246.70
749.01	246.45
749.34	246.26
749.67	246.00
750.00	245.79
750.33	245.63
750.65	245.39
750.98	245.02
751.31	244.78
751.64	244.56
751.97	244.40
752.29	244.14
752.62	243.86
752.95	243.66
753.28	243.43
753.60	243.20
753.93	243.03
754.26	242.86
754.59	242.63
754.91	242.44
755.24	242.20
755.57	242.00
755.90	241.83
756.22	241.58
756.55	241.40
756.88	241.16
757.20	240.91
757.53	240.73
757.86	240.55
758.19	240.40
758.51	240.25
758.84	240.03
759.17	239.89
759.49	239.75
759.82	239.66
760.15	239.51
760.47	239.35
760.80	239.18
761.13	239.03
761.45	238.89
761.78	238.73
762.11	238.60
762.43	238.45
762.76	238.28
763.08	238.15
763.41	238.04
763.74	237.95
764.06	237.83
764.39	237.67
764.71	237.51
765.04	237.41
765.37	237.27
765.69	237.15
766.02	237.01
766.34	236.90
766.67	236.68
767.00	236.55
767.32	236.48
767.65	236.43
767.97	236.31
768.30	236.18
768.62	236.06
768.95	235.93
769.27	235.80
769.60	235.69
769.92	235.61
770.25	235.47
770.57	235.34
770.90	235.23
771.22	235.16
771.55	235.06
771.87	234.93
772.20	234.85
772.52	234.83
772.85	234.86
773.17	234.76
773.50	234.71
773.82	234.66
774.15	234.50
774.47	234.36
774.80	234.23
775.12	234.15
775.45	234.05
775.77	233.97
776.09	233.90
776.42	233.82
776.74	233.73
777.07	233.65
777.39	233.59
777.72	233.48
778.04	233.39
778.36	233.34
778.69	233.29
779.01	233.22
779.33	233.06
779.66	232.90
779.98	232.86
780.31	232.83
780.63	232.77
780.95	232.76
781.28	232.67
781.60	232.64
781.92	232.58
782.25	232.51
782.57	232.46
782.89	232.40
783.22	232.34
783.54	232.29
783.86	232.25
784.19	232.18
784.51	232.19
784.83	232.14
785.16	232.10
785.48	232.05
785.80	231.95
786.12	231.93
786.45	231.88
786.77	231.81
787.09	231.77
787.42	231.70
787.74	231.66
788.06	231.66
788.38	231.59
788.71	231.54
789.03	231.55
789.35	231.52
789.67	231.48
789.99	231.44
790.32	231.36
790.64	231.33
790.96	231.37
791.28	231.30
791.61	231.28
791.93	231.25
792.25	231.23
792.57	231.31
792.89	231.25
793.21	231.23
793.54	231.20
793.86	231.12
794.18	231.10
794.50	231.05
794.82	231.01
795.14	230.99
795.47	230.99
795.79	230.98
796.11	230.93
796.43	230.91
796.75	230.90
797.07	230.89
797.39	230.86
797.71	230.76
798.04	230.71
798.36	230.66
798.68	230.60
799.00	230.54
799.32	230.41
799.64	230.40
799.96	230.36
800.28	230.32
800.60	230.30
800.92	230.27
801.24	230.23
801.56	230.21
801.89	230.19
802.21	230.14
802.53	230.07
802.85	230.07
803.17	230.07
803.49	230.02
803.81	229.99
804.13	229.95
804.45	229.91
804.77	229.90
805.09	229.88
805.41	229.84
805.73	229.78
806.05	229.77
806.37	229.73
806.69	229.73
807.01	229.68
807.33	229.62
807.65	229.55
807.97	229.58
808.28	229.51
808.60	229.48
808.92	229.47
809.24	229.50
809.56	229.42
809.88	229.36
810.20	229.33
810.52	229.35
810.84	229.31
811.16	229.30
811.48	229.28
811.80	229.27
812.12	229.27
812.43	229.27
812.75	229.20
813.07	229.19
813.39	229.13
813.71	229.08
814.03	229.06
814.35	229.04
814.67	228.96
814.98	228.95
815.30	228.90
815.62	228.82
815.94	228.71
816.26	228.75
816.58	228.69
816.89	228.69
817.21	228.64
817.53	228.60
817.85	228.57
818.17	228.52
818.48	228.50
818.80	228.47
819.12	228.44
819.44	228.44
819.76	228.41
820.07	228.40
820.39	228.39
820.71	228.40
821.03	228.37
821.34	228.37
821.66	228.35
821.98	228.37
822.30	228.34
822.61	228.39
822.93	228.33
823.25	228.30
823.57	228.26
823.88	228.26
824.20	228.27
824.52	228.27
824.83	228.25
825.15	228.22
825.47	228.22
825.79	228.23
826.10	228.20
826.42	228.18
826.74	228.19
827.05	228.20
827.37	228.19
827.69	228.18
828.00	228.17
828.32	228.16
828.64	228.14
828.95	228.22
829.27	228.22
829.58	228.20
829.90	228.21
830.22	228.21
830.53	228.19
830.85	228.19
831.17	228.16
831.48	228.17
831.80	228.15
832.11	228.16
832.43	228.15
832.75	228.13
833.06	228.18
833.38	228.18
833.69	228.15
834.01	228.15
834.32	228.16
834.64	228.14
834.96	228.11
835.27	228.11
835.59	228.07
835.90	228.05
836.22	228.05
836.53	228.02
836.85	228.04
837.16	228.12
837.48	228.13
837.79	228.13
838.11	228.14
838.42	228.14
838.74	228.14
839.05	228.11
839.37	228.16
839.68	228.07
840.00	228.05
840.31	228.08
840.63	228.05
840.94	228.03
841.26	228.01
841.57	228.04
841.88	228.06
842.20	228.04
842.51	228.01
842.83	228.00
843.14	228.11
843.46	228.06
843.77	228.01
844.08	227.99
844.40	227.99
844.71	227.97
845.03	227.92
845.34	227.88
845.65	227.84
845.97	227.81
846.28	227.84
846.60	227.83
846.91	227.82
847.22	227.83
847.54	227.85
847.85	227.84
848.16	227.80
848.48	227.76
848.79	227.80
849.10	227.81
849.42	227.81
849.73	227.71
850.04	227.73
850.36	227.65
850.67	227.65
850.98	227.61
851.30	227.61
851.61	227.61
851.92	227.60
852.23	227.69
852.55	227.69
852.86	227.67
853.17	227.65
853.49	227.67
853.80	227.66
854.11	227.66
854.42	227.66
854.74	227.66
855.05	227.66
855.36	227.58
855.67	227.59
855.99	227.59
856.30	227.68
856.61	227.67
856.92	227.69
857.23	227.69
857.55	227.67
857.86	227.66
858.17	227.68
858.48	227.68
858.79	227.62
859.11	227.63
859.42	227.62
859.73	227.63
860.04	227.57
860.35	227.54
860.66	227.50
860.98	227.50
861.29	227.51
861.60	227.48
861.91	227.51
862.22	227.46
862.53	227.43
862.84	227.34
863.16	227.36
863.47	227.33
863.78	227.30
864.09	227.32
864.40	227.33
864.71	227.33
865.02	227.35
865.33	227.32
865.64	227.28
865.95	227.26
866.27	227.29
866.58	227.29
866.89	227.31
867.20	227.32
867.51	227.30
867.82	227.30
868.13	227.36
868.44	227.36
868.75	227.37
869.06	227.39
869.37	227.37
869.68	227.35
869.99	227.38
870.30	227.43
870.61	227.40
870.92	227.39
871.23	227.41
871.54	227.41
871.85	227.46
872.16	227.52
872.47	227.53
872.78	227.50
873.09	227.51
873.40	227.50
873.71	227.50
874.02	227.51
874.33	227.49
874.64	227.43
874.95	227.44
875.26	227.40
875.56	227.35
875.87	227.39
876.18	227.38
876.49	227.46
876.80	227.44
877.11	227.45
877.42	227.42
877.73	227.40
878.04	227.41
878.35	227.42
878.66	227.38
878.96	227.40
879.27	227.39
879.58	227.38
879.89	227.39
880.20	227.40
880.51	227.38
880.82	227.39
881.12	227.39
881.43	227.35
881.74	227.34
882.05	227.34
882.36	227.30
882.67	227.28
882.97	227.20
883.28	227.17
883.59	227.14
883.90	227.18
884.21	227.19
884.51	227.16
884.82	227.13
885.13	227.11
885.44	227.09
885.74	227.09
886.05	227.09
886.36	227.09
886.67	227.04
886.98	227.09
887.28	227.09
887.59	227.10
887.90	227.10
888.20	227.12
888.51	227.15
888.82	227.20
889.13	227.22
889.43	227.29
889.74	227.28
890.05	227.29
890.35	227.27
890.66	227.25
890.97	227.21
891.28	227.17
891.58	227.18
891.89	227.19
892.20	227.15
892.50	227.14
892.81	227.12
893.12	227.13
893.42	227.07
893.73	227.04
894.04	227.04
894.34	227.03
894.65	227.02
894.95	227.00
895.26	226.97
895.57	226.97
895.87	226.87
896.18	226.87
896.48	226.87
896.79	226.86
897.10	226.85
897.40	226.85
897.71	226.87
898.01	226.84
898.32	226.80
898.63	226.79
898.93	226.76
899.24	226.74
899.54	226.71
899.85	226.73
900.15	226.74
900.46	226.74
900.76	226.77
901.07	226.76
901.38	226.79
901.68	226.78
901.99	226.77
902.29	226.75
902.60	226.75
902.90	226.75
903.21	226.74
903.51	226.72
903.82	226.73
904.12	226.72
904.43	226.74
904.73	226.76
905.03	226.75
905.34	226.85
905.64	226.85
905.95	226.88
906.25	226.87
906.56	226.83
906.86	226.84
907.17	226.83
907.47	226.84
907.77	226.82
908.08	226.81
908.38	226.81
908.69	226.82
908.99	226.83
909.30	226.84
909.60	226.86
909.90	226.89
910.21	226.87
910.51	226.83
910.81	226.84
911.12	226.87
911.42	226.87
911.73	226.78
912.03	226.80
912.33	226.85
912.64	226.87
912.94	226.88
913.24	226.88
913.55	226.87
913.85	226.88
914.15	226.92
914.46	226.94
914.76	226.95
915.06	226.98
915.37	227.01
915.67	227.00
915.97	227.02
916.27	227.00
916.58	227.04
916.88	227.08
917.18	227.09
917.49	227.17
917.79	227.20
918.09	227.22
918.39	227.26
918.70	227.22
919.00	227.24
919.30	227.30
919.60	227.28
919.91	227.25
920.21	227.24
920.51	227.21
920.81	227.21
921.12	227.19
921.42	227.19
921.72	227.17
922.02	227.17
922.32	227.18
922.63	227.19
922.93	227.24
923.23	227.24
923.53	227.26
923.83	227.17
924.13	227.16
924.44	227.16
924.74	227.18
925.04	227.20
925.34	227.20
925.64	227.13
925.94	227.13
926.24	227.22
926.55	227.24
926.85	227.22
927.15	227.23
927.45	227.23
927.75	227.21
928.05	227.22
928.35	227.23
928.65	227.18
928.95	227.18
929.26	227.14
929.56	227.13
929.86	227.11
930.16	227.11
930.46	227.09
930.76	227.09
931.06	227.01
931.36	227.00
931.66	227.00
931.96	227.02
932.26	227.01
932.56	226.97
932.86	226.96
933.16	226.97
933.46	226.95
933.76	226.95
934.06	226.96
934.36	226.96
934.66	226.94
934.96	226.92
935.26	226.92
935.56	226.94
935.86	226.90
936.16	226.88
936.46	226.85
936.76	226.86
937.06	226.86
937.36	226.86
937.66	226.86
937.96	226.85
938.26	226.83
938.56	226.84
938.86	226.80
939.16	226.81
939.46	226.81
939.76	226.80
940.06	226.80
940.35	226.77
940.65	226.75
940.95	226.77
941.25	226.76
941.55	226.76
941.85	226.75
942.15	226.76
942.45	226.82
942.75	226.80
943.04	226.82
943.34	226.81
943.64	226.81
943.94	226.80
944.24	226.79
944.54	226.82
944.84	226.83
945.13	226.85
945.43	226.85
945.73	226.85
946.03	226.87
946.33	226.83
946.62	226.85
946.92	226.87
947.22	226.88
947.52	226.91
947.82	226.93
948.11	226.90
948.41	226.89
948.71	226.84
949.01	226.86
949.31	226.86
949.60	226.86
949.90	226.90
950.20	226.87
950.50	226.89
950.79	226.87
951.09	226.93
951.39	226.89
951.69	226.89
951.98	226.91
952.28	226.92
952.58	226.96
952.87	226.95
953.17	226.95
953.47	226.95
953.76	226.91
954.06	226.89
954.36	226.88
954.66	226.92
954.95	226.96
955.25	227.00
955.55	227.02
955.84	227.02
956.14	227.00
956.44	227.03
956.73	227.01
957.03	227.01
957.32	226.96
957.62	226.99
957.92	227.00
958.21	227.00
958.51	227.10
958.81	227.11
959.10	227.14
959.40	227.14
959.69	227.12
959.99	227.18
960.29	227.18
960.58	227.19
960.88	227.22
961.17	227.22
961.47	227.22
961.76	227.19
962.06	227.18
962.36	227.18
962.65	227.17
962.95	227.19
963.24	227.19
963.54	227.20
963.83	227.15
964.13	227.13
964.42	227.10
964.72	227.00
965.01	226.97
965.31	226.95
965.60	226.92
965.90	227.01
966.19	226.99
966.49	227.00
966.78	227.01
967.08	226.96
967.37	226.92
967.67	226.88
967.96	226.90
968.26	226.90
968.55	226.92
968.85	226.88
969.14	226.88
969.43	226.88
969.73	226.83
970.02	226.84
970.32	226.84
970.61	226.81
970.91	226.78
971.20	226.80
971.49	226.79
971.79	226.80
972.08	226.71
972.38	226.70
972.67	226.66
972.96	226.66
973.26	226.67
973.55	226.70
973.85	226.71
974.14	226.69
974.43	226.71
974.73	226.68
975.02	226.69
975.31	226.66
975.61	226.64
975.90	226.63
976.19	226.65
976.49	226.66
976.78	226.67
977.07	226.64
977.37	226.64
977.66	226.61
977.95	226.57
978.24	226.59
978.54	226.61
978.83	226.60
979.12	226.60
979.42	226.60
979.71	226.59
980.00	226.59
980.29	226.62
980.59	226.58
980.88	226.61
981.17	226.63
981.46	226.67
981.76	226.70
982.05	226.73
982.34	226.73
982.63	226.75
982.93	226.76
983.22	226.82
983.51	226.81
983.80	226.86
984.09	226.91
984.39	226.90
984.68	226.88
984.97	226.91
985.26	226.92
985.55	226.89
985.85	226.87
986.14	226.89
986.43	226.91
986.72	226.93
987.01	226.92
987.30	226.93
987.59	226.93
987.89	226.92
988.18	226.91
988.47	226.92
988.76	226.93
989.05	226.91
989.34	226.89
989.63	226.92
989.92	226.90
990.22	226.88
990.51	226.90
990.80	226.89
991.09	226.89
991.38	226.92
991.67	226.94
991.96	226.94
992.25	226.94
992.54	226.91
992.83	226.89
993.12	226.85
993.41	226.84
993.70	226.88
993.99	226.90
994.28	226.92
994.58	226.94
994.87	226.90
995.16	226.94
995.45	226.94
995.74	226.92
996.03	226.94
996.32	226.95
996.61	227.00
996.90	227.02
997.19	227.04
997.48	227.01
997.77	227.03
998.06	227.04
998.34	227.04
998.63	227.05
998.92	227.04
999.21	227.07
999.50	227.07
999.79	227.03
1000.08	226.99
1000.37	227.00
1000.66	226.99
1000.95	227.01
1001.24	227.00
1001.53	227.01
1001.82	227.00
1002.11	227.01
1002.40	227.05
1002.68	227.04
1002.97	227.11
1003.26	227.09
1003.55	227.07
1003.84	227.05
1004.13	227.07
1004.42	227.07
1004.71	227.05
1004.99	227.06
1005.28	227.09
1005.57	227.10
1005.86	227.08
1006.15	227.11
1006.44	227.11
1006.72	227.14
1007.01	227.15
1007.30	227.12
1007.59	227.09
1007.88	227.10
1008.17	227.04
1008.45	226.98
1008.74	226.96
1009.03	226.91
1009.32	226.90
1009.60	226.90
1009.89	226.91
1010.18	226.88
1010.47	226.87
1010.76	226.87
1011.04	226.83
1011.33	226.86
1011.62	226.89
1011.91	226.92
1012.19	226.90
1012.48	226.86
1012.77	226.83
1013.05	226.85
1013.34	226.87
1013.63	226.90
1013.92	226.90
1014.20	226.91
1014.49	226.92
1014.78	226.92
1015.06	226.91
1015.35	226.93
1015.64	226.93
1015.92	226.94
1016.21	226.96
1016.50	226.93
1016.78	226.94
1017.07	226.96
1017.36	226.90
1017.64	226.85
1017.93	226.84
1018.22	226.85
1018.50	226.87
1018.79	226.84
1019.08	226.83
1019.36	226.84
1019.65	226.80
1019.93	226.84
1020.22	226.88
1020.51	226.95
1020.79	226.92
1021.08	226.96
1021.36	226.76
1021.65	226.48
1021.94	227.11
1022.22	226.98
1022.51	226.35
1022.79	227.65
1023.08	227.43
1023.36	228.34
1023.65	226.42
>>>>>End Processed Spectral Data<<<<<
