SpectraSuite Data File
++++++++++++++++++++++++++++++++++++
Date: Fri Feb 01 16:26:31 EST 2013
User: group
Dark Spectrum Present: No
Reference Spectrum Present: No
Number of Sampled Component Spectra: 1
Spectrometers: USB2E7196
Integration Time (usec): 35000 (USB2E7196)
Spectra Averaged: 100 (USB2E7196)
Boxcar Smoothing: 10 (USB2E7196)
Correct for Electrical Dark: No (USB2E7196)
Strobe/Lamp Enabled: No (USB2E7196)
Correct for Detector Non-linearity: No (USB2E7196)
Correct for Stray Light: No (USB2E7196)
Number of Pixels in Processed Spectrum: 2048
>>>>>Begin Processed Spectral Data<<<<<
339.09	0.00
339.48	213.26
339.86	215.79
340.24	216.95
340.63	218.54
341.01	221.32
341.39	221.35
341.78	222.46
342.16	223.51
342.54	223.74
342.93	212.56
343.31	223.28
343.69	223.90
344.07	224.35
344.46	224.80
344.84	225.17
345.22	225.40
345.60	225.62
345.99	225.82
346.37	225.94
346.75	226.06
347.13	226.12
347.52	226.18
347.90	226.24
348.28	226.26
348.66	226.31
349.05	226.30
349.43	226.38
349.81	226.38
350.19	226.42
350.57	226.48
350.96	226.53
351.34	226.62
351.72	226.68
352.10	226.82
352.48	226.89
352.87	226.94
353.25	227.03
353.63	227.14
354.01	227.18
354.39	227.27
354.77	227.35
355.15	227.46
355.54	227.51
355.92	227.56
356.30	227.63
356.68	227.76
357.06	227.84
357.44	227.89
357.82	227.96
358.20	228.02
358.58	228.07
358.97	228.11
359.35	228.23
359.73	228.26
360.11	228.26
360.49	228.27
360.87	228.32
361.25	228.35
361.63	228.41
362.01	228.44
362.39	228.49
362.77	228.53
363.15	228.54
363.53	228.55
363.91	228.57
364.29	228.58
364.67	228.48
365.05	228.50
365.43	228.51
365.81	228.53
366.19	228.54
366.57	228.57
366.95	228.54
367.33	228.47
367.71	228.49
368.09	228.51
368.47	228.49
368.85	228.46
369.23	228.45
369.61	228.36
369.99	228.37
370.37	228.31
370.75	228.29
371.13	228.23
371.51	228.20
371.89	228.18
372.27	228.14
372.65	228.09
373.03	228.02
373.41	227.97
373.78	227.89
374.16	227.80
374.54	227.73
374.92	227.70
375.30	227.65
375.68	227.57
376.06	227.53
376.44	227.47
376.82	227.43
377.19	227.37
377.57	227.33
377.95	227.22
378.33	227.16
378.71	227.08
379.09	227.06
379.47	226.99
379.84	226.93
380.22	226.89
380.60	226.86
380.98	226.81
381.36	226.72
381.73	226.66
382.11	226.61
382.49	226.55
382.87	226.47
383.25	226.39
383.62	226.45
384.00	226.35
384.38	226.31
384.76	226.28
385.13	226.23
385.51	226.18
385.89	226.15
386.27	226.10
386.64	226.03
387.02	225.95
387.40	225.91
387.78	225.85
388.15	225.78
388.53	225.72
388.91	225.67
389.29	225.66
389.66	225.65
390.04	225.64
390.42	225.64
390.79	225.63
391.17	225.65
391.55	225.52
391.92	225.52
392.30	225.51
392.68	225.50
393.05	225.50
393.43	225.51
393.81	225.52
394.18	225.51
394.56	225.53
394.94	225.55
395.31	225.55
395.69	225.61
396.06	225.64
396.44	225.69
396.82	225.76
397.19	225.84
397.57	225.89
397.95	225.92
398.32	225.92
398.70	225.97
399.07	226.02
399.45	226.08
399.82	226.15
400.20	226.20
400.58	226.25
400.95	226.24
401.33	226.30
401.70	226.39
402.08	226.47
402.45	226.56
402.83	226.68
403.20	226.75
403.58	226.82
403.95	226.96
404.33	227.08
404.71	227.16
405.08	227.32
405.46	227.42
405.83	227.58
406.21	227.73
406.58	227.90
406.96	228.04
407.33	228.21
407.70	228.37
408.08	228.65
408.45	228.89
408.83	229.17
409.20	229.39
409.58	229.62
409.95	229.88
410.33	230.16
410.70	230.38
411.08	230.73
411.45	231.00
411.82	231.28
412.20	231.63
412.57	232.05
412.95	232.33
413.32	232.74
413.69	233.12
414.07	233.54
414.44	234.02
414.82	234.51
415.19	235.05
415.56	235.63
415.94	236.14
416.31	236.78
416.68	237.39
417.06	238.12
417.43	238.77
417.81	239.56
418.18	240.35
418.55	241.20
418.93	242.05
419.30	242.98
419.67	243.91
420.04	244.87
420.42	245.84
420.79	247.05
421.16	248.19
421.54	249.40
421.91	250.62
422.28	251.88
422.66	253.21
423.03	254.51
423.40	255.84
423.77	257.24
424.15	258.66
424.52	260.17
424.89	261.81
425.26	263.40
425.64	264.84
426.01	266.42
426.38	268.08
426.75	269.75
427.13	271.47
427.50	273.30
427.87	275.16
428.24	277.06
428.61	278.79
428.99	280.73
429.36	282.84
429.73	284.87
430.10	286.87
430.47	288.90
430.85	291.00
431.22	293.23
431.59	295.58
431.96	297.78
432.33	300.23
432.70	302.59
433.08	305.32
433.45	307.90
433.82	310.49
434.19	313.37
434.56	316.19
434.93	318.87
435.30	321.44
435.68	324.29
436.05	327.08
436.42	329.85
436.79	332.34
437.16	335.00
437.53	337.88
437.90	340.67
438.27	343.39
438.64	346.24
439.01	348.81
439.38	351.06
439.75	353.26
440.13	355.75
440.50	358.05
440.87	359.90
441.24	361.89
441.61	364.03
441.98	365.47
442.35	367.23
442.72	368.98
443.09	370.83
443.46	371.85
443.83	372.43
444.20	372.97
444.57	373.79
444.94	374.08
445.31	374.41
445.68	374.78
446.05	374.88
446.42	374.50
446.79	374.05
447.16	373.60
447.53	373.30
447.90	372.13
448.27	370.95
448.64	369.37
449.01	368.19
449.37	366.20
449.74	364.33
450.11	362.10
450.48	359.69
450.85	357.12
451.22	354.96
451.59	352.94
451.96	350.99
452.33	348.43
452.70	346.14
453.07	343.33
453.43	340.41
453.80	337.66
454.17	334.96
454.54	332.45
454.91	329.75
455.28	327.09
455.65	324.60
456.02	322.18
456.38	320.07
456.75	317.44
457.12	315.25
457.49	313.04
457.86	310.87
458.23	309.06
458.59	307.04
458.96	304.95
459.33	303.09
459.70	301.22
460.07	299.70
460.43	297.96
460.80	296.32
461.17	294.90
461.54	293.41
461.91	292.03
462.27	290.61
462.64	289.39
463.01	288.05
463.38	286.73
463.74	285.40
464.11	284.25
464.48	283.28
464.85	282.14
465.21	281.27
465.58	280.38
465.95	279.28
466.32	278.40
466.68	277.52
467.05	276.70
467.42	275.78
467.78	274.90
468.15	274.05
468.52	273.42
468.88	272.57
469.25	271.78
469.62	271.18
469.98	270.50
470.35	269.89
470.72	269.28
471.08	268.67
471.45	268.13
471.82	267.60
472.18	266.94
472.55	266.53
472.92	266.04
473.28	265.59
473.65	265.14
474.02	264.69
474.38	264.35
474.75	264.03
475.11	263.75
475.48	263.47
475.85	263.22
476.21	262.98
476.58	262.83
476.94	262.72
477.31	262.54
477.67	262.37
478.04	262.25
478.41	262.17
478.77	262.21
479.14	262.16
479.50	262.20
479.87	262.30
480.23	262.40
480.60	262.53
480.96	262.63
481.33	262.87
481.69	263.09
482.06	263.31
482.42	263.50
482.79	263.76
483.15	264.10
483.52	264.49
483.88	264.86
484.25	265.25
484.61	265.71
484.98	266.18
485.34	266.77
485.71	267.36
486.07	268.02
486.44	268.60
486.80	269.32
487.17	270.02
487.53	270.85
487.90	271.71
488.26	272.61
488.62	273.58
488.99	274.53
489.35	275.54
489.72	276.67
490.08	277.88
490.44	279.11
490.81	280.45
491.17	281.76
491.54	283.26
491.90	284.77
492.26	286.39
492.63	288.11
492.99	289.88
493.36	291.74
493.72	293.73
494.08	295.83
494.45	298.04
494.81	300.40
495.17	302.81
495.54	305.37
495.90	308.06
496.26	310.89
496.63	313.84
496.99	316.94
497.35	320.22
497.72	323.61
498.08	327.15
498.44	330.81
498.80	334.78
499.17	338.80
499.53	343.02
499.89	347.42
500.26	351.95
500.62	356.64
500.98	361.64
501.34	366.79
501.71	372.14
502.07	377.64
502.43	383.29
502.79	389.15
503.16	395.23
503.52	401.51
503.88	407.89
504.24	414.53
504.60	421.50
504.97	428.66
505.33	435.97
505.69	443.65
506.05	451.45
506.41	459.37
506.78	467.54
507.14	475.97
507.50	484.64
507.86	493.63
508.22	502.87
508.59	512.04
508.95	521.57
509.31	531.40
509.67	541.49
510.03	551.79
510.39	562.31
510.75	573.07
511.12	583.98
511.48	595.35
511.84	606.84
512.20	618.28
512.56	630.17
512.92	642.38
513.28	654.74
513.64	667.21
514.00	679.79
514.37	692.72
514.73	705.77
515.09	718.74
515.45	731.99
515.81	745.51
516.17	759.50
516.53	773.66
516.89	787.80
517.25	801.91
517.61	816.21
517.97	830.68
518.33	845.16
518.69	860.02
519.05	874.93
519.41	889.97
519.77	905.50
520.13	920.90
520.49	936.27
520.85	951.63
521.21	967.38
521.57	983.71
521.93	999.36
522.29	1015.61
522.65	1031.95
523.01	1048.15
523.37	1064.14
523.73	1080.23
524.09	1096.18
524.45	1112.49
524.81	1129.10
525.17	1145.93
525.53	1162.74
525.89	1179.49
526.25	1196.15
526.61	1212.53
526.97	1229.29
527.33	1245.72
527.68	1262.33
528.04	1278.71
528.40	1295.28
528.76	1312.14
529.12	1328.58
529.48	1345.42
529.84	1361.39
530.20	1377.91
530.56	1394.89
530.91	1412.17
531.27	1428.87
531.63	1445.27
531.99	1461.68
532.35	1477.50
532.71	1493.25
533.07	1509.39
533.42	1525.18
533.78	1541.10
534.14	1557.26
534.50	1572.44
534.86	1588.23
535.21	1603.14
535.57	1618.93
535.93	1634.26
536.29	1649.05
536.65	1663.99
537.00	1678.64
537.36	1693.77
537.72	1708.16
538.08	1722.36
538.44	1736.11
538.79	1749.85
539.15	1763.48
539.51	1777.04
539.87	1791.29
540.22	1804.93
540.58	1818.64
540.94	1831.92
541.29	1844.62
541.65	1857.14
542.01	1870.23
542.37	1882.42
542.72	1894.80
543.08	1906.46
543.44	1918.77
543.79	1929.81
544.15	1940.54
544.51	1952.11
544.87	1962.97
545.22	1973.64
545.58	1983.77
545.94	1993.41
546.29	2003.29
546.65	2013.00
547.01	2022.28
547.36	2030.94
547.72	2039.38
548.07	2047.01
548.43	2055.20
548.79	2063.21
549.14	2070.66
549.50	2077.92
549.86	2085.53
550.21	2092.83
550.57	2099.97
550.92	2106.49
551.28	2113.61
551.64	2120.89
551.99	2127.37
552.35	2133.70
552.70	2139.96
553.06	2146.03
553.41	2152.39
553.77	2158.43
554.13	2164.50
554.48	2170.68
554.84	2176.16
555.19	2181.34
555.55	2186.59
555.90	2190.95
556.26	2195.77
556.61	2200.54
556.97	2205.01
557.32	2209.12
557.68	2213.23
558.03	2217.56
558.39	2221.25
558.74	2225.81
559.10	2229.64
559.45	2233.18
559.81	2237.31
560.16	2241.09
560.52	2244.24
560.87	2247.71
561.23	2250.41
561.58	2253.41
561.94	2255.95
562.29	2258.31
562.64	2261.08
563.00	2263.69
563.35	2267.18
563.71	2270.39
564.06	2273.59
564.42	2276.43
564.77	2279.06
565.12	2281.41
565.48	2283.42
565.83	2285.40
566.19	2286.68
566.54	2287.57
566.89	2288.85
567.25	2289.61
567.60	2290.95
567.96	2292.77
568.31	2293.62
568.66	2294.76
569.02	2295.34
569.37	2295.65
569.72	2296.51
570.08	2296.68
570.43	2296.88
570.78	2296.38
571.14	2294.92
571.49	2293.65
571.84	2293.35
572.20	2292.25
572.55	2291.25
572.90	2289.61
573.26	2288.29
573.61	2286.71
573.96	2284.94
574.31	2281.99
574.67	2279.11
575.02	2275.57
575.37	2272.13
575.72	2268.38
576.08	2265.05
576.43	2261.90
576.78	2258.28
577.13	2255.18
577.49	2252.18
577.84	2248.59
578.19	2245.00
578.54	2241.51
578.90	2237.30
579.25	2231.93
579.60	2226.97
579.95	2221.95
580.30	2217.03
580.66	2211.84
581.01	2206.97
581.36	2202.29
581.71	2198.19
582.06	2193.67
582.42	2189.28
582.77	2184.28
583.12	2179.80
583.47	2175.05
583.82	2169.99
584.17	2164.79
584.53	2159.32
584.88	2153.72
585.23	2148.07
585.58	2142.65
585.93	2137.20
586.28	2132.46
586.63	2127.46
586.98	2122.53
587.34	2118.03
587.69	2113.19
588.04	2108.02
588.39	2102.33
588.74	2095.98
589.09	2089.91
589.44	2083.16
589.79	2077.13
590.14	2071.37
590.49	2064.81
590.84	2058.49
591.19	2052.48
591.54	2046.05
591.89	2038.90
592.25	2032.17
592.60	2024.91
592.95	2017.42
593.30	2010.13
593.65	2002.71
594.00	1995.49
594.35	1988.24
594.70	1980.15
595.05	1973.06
595.40	1965.84
595.75	1958.40
596.10	1952.05
596.45	1945.38
596.80	1939.37
597.15	1932.79
597.50	1925.83
597.85	1919.36
598.19	1912.82
598.54	1905.70
598.89	1899.14
599.24	1893.22
599.59	1886.56
599.94	1880.50
600.29	1874.07
600.64	1867.46
600.99	1860.17
601.34	1853.38
601.69	1846.49
602.04	1839.57
602.39	1832.18
602.74	1825.40
603.08	1818.62
603.43	1811.96
603.78	1804.71
604.13	1797.46
604.48	1790.20
604.83	1783.33
605.18	1776.55
605.53	1768.59
605.87	1760.66
606.22	1753.37
606.57	1745.46
606.92	1738.15
607.27	1730.98
607.62	1724.07
607.96	1716.98
608.31	1710.27
608.66	1702.77
609.01	1695.25
609.36	1687.76
609.70	1679.69
610.05	1671.61
610.40	1664.09
610.75	1655.83
611.10	1648.09
611.44	1639.57
611.79	1631.63
612.14	1623.05
612.49	1613.81
612.83	1605.39
613.18	1597.35
613.53	1589.46
613.88	1580.88
614.22	1572.69
614.57	1564.12
614.92	1556.12
615.27	1548.52
615.61	1540.29
615.96	1532.22
616.31	1524.57
616.65	1517.17
617.00	1509.73
617.35	1502.08
617.70	1493.60
618.04	1485.07
618.39	1476.92
618.74	1469.43
619.08	1461.05
619.43	1453.45
619.78	1446.57
620.12	1439.39
620.47	1431.78
620.82	1423.48
621.16	1416.10
621.51	1408.39
621.85	1400.83
622.20	1392.33
622.55	1383.88
622.89	1375.94
623.24	1368.31
623.59	1360.90
623.93	1353.40
624.28	1346.20
624.62	1338.66
624.97	1331.61
625.32	1324.82
625.66	1317.82
626.01	1310.66
626.35	1303.30
626.70	1295.51
627.04	1287.78
627.39	1279.93
627.73	1272.69
628.08	1265.84
628.43	1258.59
628.77	1251.20
629.12	1243.56
629.46	1236.44
629.81	1229.04
630.15	1221.90
630.50	1214.61
630.84	1206.44
631.19	1198.61
631.53	1191.08
631.88	1183.55
632.22	1175.96
632.57	1168.72
632.91	1161.14
633.26	1153.71
633.60	1146.35
633.95	1139.21
634.29	1132.15
634.64	1125.53
634.98	1118.10
635.32	1110.89
635.67	1104.18
636.01	1097.59
636.36	1090.82
636.70	1084.25
637.05	1077.71
637.39	1071.07
637.73	1064.47
638.08	1058.47
638.42	1052.37
638.77	1045.85
639.11	1039.23
639.45	1032.77
639.80	1026.11
640.14	1019.69
640.49	1013.11
640.83	1006.75
641.17	1000.46
641.52	994.11
641.86	987.64
642.20	981.67
642.55	975.28
642.89	968.86
643.23	962.31
643.58	956.48
643.92	950.29
644.26	944.24
644.61	938.28
644.95	932.22
645.29	925.70
645.64	918.98
645.98	912.65
646.32	906.94
646.66	900.97
647.01	895.09
647.35	889.39
647.69	883.55
648.04	877.98
648.38	872.28
648.72	866.32
649.06	860.19
649.41	854.35
649.75	848.45
650.09	842.56
650.43	836.74
650.78	830.62
651.12	824.65
651.46	818.86
651.80	813.10
652.14	807.73
652.49	802.35
652.83	797.20
653.17	791.53
653.51	785.64
653.85	780.26
654.20	774.64
654.54	768.52
654.88	762.82
655.22	756.88
655.56	751.14
655.90	745.67
656.25	740.51
656.59	735.14
656.93	730.06
657.27	724.78
657.61	719.42
657.95	714.35
658.29	709.24
658.64	704.03
658.98	698.76
659.32	693.30
659.66	688.04
660.00	682.74
660.34	677.79
660.68	672.96
661.02	667.79
661.36	663.08
661.70	658.62
662.05	654.26
662.39	650.05
662.73	645.64
663.07	641.31
663.41	636.81
663.75	632.34
664.09	627.78
664.43	623.41
664.77	619.22
665.11	614.90
665.45	610.78
665.79	606.67
666.13	602.52
666.47	598.44
666.81	594.31
667.15	590.19
667.49	586.26
667.83	582.37
668.17	578.52
668.51	574.40
668.85	570.38
669.19	566.54
669.53	562.72
669.87	558.87
670.21	555.14
670.55	551.54
670.89	548.11
671.23	544.69
671.57	541.24
671.91	537.79
672.25	534.34
672.58	530.81
672.92	527.40
673.26	524.20
673.60	521.03
673.94	517.88
674.28	514.90
674.62	511.99
674.96	508.87
675.30	505.94
675.64	502.98
675.97	500.20
676.31	497.35
676.65	494.37
676.99	491.61
677.33	488.70
677.67	485.86
678.01	482.78
678.34	479.74
678.68	476.84
679.02	473.95
679.36	471.16
679.70	468.43
680.04	465.68
680.37	462.83
680.71	460.02
681.05	457.42
681.39	454.75
681.73	452.08
682.06	449.60
682.40	447.03
682.74	444.48
683.08	441.90
683.42	439.29
683.75	436.76
684.09	434.17
684.43	431.72
684.77	429.29
685.10	426.95
685.44	424.66
685.78	422.34
686.12	420.07
686.45	417.75
686.79	415.45
687.13	413.21
687.46	411.05
687.80	408.92
688.14	406.70
688.48	404.60
688.81	402.30
689.15	400.12
689.49	398.02
689.82	396.01
690.16	393.95
690.50	391.92
690.83	389.97
691.17	387.99
691.51	386.10
691.84	384.23
692.18	382.28
692.52	380.35
692.85	378.43
693.19	376.60
693.52	374.75
693.86	372.94
694.20	371.22
694.53	369.41
694.87	367.53
695.21	365.75
695.54	363.95
695.88	362.26
696.21	360.52
696.55	358.83
696.88	357.12
697.22	355.44
697.56	353.89
697.89	352.25
698.23	350.67
698.56	349.03
698.90	347.47
699.23	345.84
699.57	344.28
699.90	342.71
700.24	341.15
700.58	339.64
700.91	338.18
701.25	336.69
701.58	335.34
701.92	334.01
702.25	332.63
702.59	331.26
702.92	329.96
703.26	328.67
703.59	327.38
703.93	326.23
704.26	325.03
704.60	323.73
704.93	322.47
705.26	321.26
705.60	320.09
705.93	318.90
706.27	317.87
706.60	316.83
706.94	315.76
707.27	314.60
707.61	313.59
707.94	312.54
708.27	311.47
708.61	310.35
708.94	309.31
709.28	308.35
709.61	307.38
709.94	306.42
710.28	305.36
710.61	304.44
710.95	303.33
711.28	302.41
711.61	301.43
711.95	300.51
712.28	299.53
712.61	298.53
712.95	297.57
713.28	296.70
713.61	295.80
713.95	294.95
714.28	294.14
714.61	293.24
714.95	292.40
715.28	291.50
715.61	290.63
715.95	289.75
716.28	288.87
716.61	288.02
716.95	287.19
717.28	286.48
717.61	285.68
717.94	284.96
718.28	284.14
718.61	283.40
718.94	282.70
719.27	282.01
719.61	281.37
719.94	280.69
720.27	279.93
720.60	279.23
720.94	278.58
721.27	277.94
721.60	277.38
721.93	276.74
722.27	276.22
722.60	275.67
722.93	275.14
723.26	274.59
723.59	274.04
723.93	273.49
724.26	272.91
724.59	272.33
724.92	271.78
725.25	271.24
725.59	270.74
725.92	270.22
726.25	269.75
726.58	269.25
726.91	268.78
727.24	268.35
727.57	267.88
727.91	267.35
728.24	266.89
728.57	266.36
728.90	265.94
729.23	265.42
729.56	264.99
729.89	264.49
730.22	264.03
730.55	263.55
730.89	263.09
731.22	262.64
731.55	262.21
731.88	261.78
732.21	261.34
732.54	260.91
732.87	260.47
733.20	260.05
733.53	259.67
733.86	259.31
734.19	258.88
734.52	258.48
734.85	258.19
735.18	257.80
735.51	257.46
735.84	257.08
736.17	256.78
736.50	256.36
736.83	256.11
737.16	255.81
737.49	255.47
737.82	255.13
738.15	254.82
738.48	254.50
738.81	254.22
739.14	253.92
739.47	253.63
739.80	253.32
740.13	253.02
740.46	252.68
740.79	252.34
741.12	252.07
741.45	251.76
741.78	251.41
742.11	251.10
742.44	250.76
742.77	250.48
743.10	250.18
743.43	249.89
743.75	249.52
744.08	249.34
744.41	249.10
744.74	248.85
745.07	248.59
745.40	248.34
745.73	248.06
746.06	247.80
746.39	247.53
746.71	247.28
747.04	247.01
747.37	246.77
747.70	246.55
748.03	246.26
748.36	246.03
748.68	245.80
749.01	245.58
749.34	245.35
749.67	245.13
750.00	244.88
750.33	244.73
750.65	244.53
750.98	244.17
751.31	243.93
751.64	243.73
751.97	243.55
752.29	243.32
752.62	243.07
752.95	242.87
753.28	242.65
753.60	242.45
753.93	242.29
754.26	242.08
754.59	241.87
754.91	241.68
755.24	241.45
755.57	241.25
755.90	241.03
756.22	240.84
756.55	240.65
756.88	240.46
757.20	240.23
757.53	240.02
757.86	239.86
758.19	239.69
758.51	239.51
758.84	239.30
759.17	239.13
759.49	239.00
759.82	238.87
760.15	238.75
760.47	238.60
760.80	238.41
761.13	238.31
761.45	238.15
761.78	238.02
762.11	237.92
762.43	237.74
762.76	237.63
763.08	237.53
763.41	237.39
763.74	237.25
764.06	237.11
764.39	236.99
764.71	236.85
765.04	236.74
765.37	236.58
765.69	236.42
766.02	236.28
766.34	236.10
766.67	235.93
767.00	235.79
767.32	235.72
767.65	235.65
767.97	235.51
768.30	235.35
768.62	235.22
768.95	235.08
769.27	235.03
769.60	234.91
769.92	234.77
770.25	234.65
770.57	234.51
770.90	234.41
771.22	234.30
771.55	234.24
771.87	234.15
772.20	234.05
772.52	234.08
772.85	234.14
773.17	234.04
773.50	233.96
773.82	233.85
774.15	233.71
774.47	233.54
774.80	233.46
775.12	233.41
775.45	233.32
775.77	233.23
776.09	233.13
776.42	233.03
776.74	232.99
777.07	232.90
777.39	232.87
777.72	232.80
778.04	232.75
778.36	232.65
778.69	232.58
779.01	232.51
779.33	232.30
779.66	232.11
779.98	232.08
780.31	232.02
780.63	232.00
780.95	231.94
781.28	231.91
781.60	231.83
781.92	231.76
782.25	231.69
782.57	231.67
782.89	231.61
783.22	231.57
783.54	231.47
783.86	231.45
784.19	231.36
784.51	231.32
784.83	231.23
785.16	231.16
785.48	231.10
785.80	231.06
786.12	231.04
786.45	231.00
786.77	230.96
787.09	230.87
787.42	230.82
787.74	230.73
788.06	230.68
788.38	230.61
788.71	230.58
789.03	230.59
789.35	230.53
789.67	230.47
789.99	230.44
790.32	230.43
790.64	230.37
790.96	230.45
791.28	230.37
791.61	230.35
791.93	230.34
792.25	230.29
792.57	230.33
792.89	230.30
793.21	230.27
793.54	230.22
793.86	230.21
794.18	230.18
794.50	230.17
794.82	230.12
795.14	230.13
795.47	230.11
795.79	230.04
796.11	229.99
796.43	229.95
796.75	229.90
797.07	229.81
797.39	229.78
797.71	229.67
798.04	229.66
798.36	229.58
798.68	229.53
799.00	229.50
799.32	229.44
799.64	229.42
799.96	229.37
800.28	229.35
800.60	229.34
800.92	229.30
801.24	229.25
801.56	229.23
801.89	229.18
802.21	229.17
802.53	229.13
802.85	229.12
803.17	229.11
803.49	229.09
803.81	229.08
804.13	229.02
804.45	228.97
804.77	228.94
805.09	228.95
805.41	228.92
805.73	228.89
806.05	228.83
806.37	228.77
806.69	228.75
807.01	228.70
807.33	228.67
807.65	228.61
807.97	228.63
808.28	228.60
808.60	228.56
808.92	228.45
809.24	228.50
809.56	228.48
809.88	228.43
810.20	228.43
810.52	228.39
810.84	228.36
811.16	228.33
811.48	228.32
811.80	228.34
812.12	228.32
812.43	228.31
812.75	228.30
813.07	228.26
813.39	228.25
813.71	228.22
814.03	228.20
814.35	228.18
814.67	228.10
814.98	228.08
815.30	228.02
815.62	228.01
815.94	227.94
816.26	227.93
816.58	227.94
816.89	227.93
817.21	227.89
817.53	227.86
817.85	227.86
818.17	227.81
818.48	227.73
818.80	227.71
819.12	227.66
819.44	227.63
819.76	227.62
820.07	227.59
820.39	227.59
820.71	227.54
821.03	227.49
821.34	227.49
821.66	227.48
821.98	227.49
822.30	227.48
822.61	227.50
822.93	227.46
823.25	227.41
823.57	227.37
823.88	227.39
824.20	227.41
824.52	227.40
824.83	227.38
825.15	227.35
825.47	227.33
825.79	227.32
826.10	227.29
826.42	227.30
826.74	227.28
827.05	227.28
827.37	227.29
827.69	227.28
828.00	227.27
828.32	227.25
828.64	227.22
828.95	227.26
829.27	227.22
829.58	227.20
829.90	227.22
830.22	227.22
830.53	227.20
830.85	227.19
831.17	227.16
831.48	227.15
831.80	227.16
832.11	227.15
832.43	227.18
832.75	227.19
833.06	227.25
833.38	227.25
833.69	227.22
834.01	227.20
834.32	227.20
834.64	227.20
834.96	227.21
835.27	227.22
835.59	227.19
835.90	227.18
836.22	227.17
836.53	227.14
836.85	227.12
837.16	227.20
837.48	227.20
837.79	227.19
838.11	227.20
838.42	227.24
838.74	227.26
839.05	227.24
839.37	227.23
839.68	227.14
840.00	227.13
840.31	227.13
840.63	227.12
840.94	227.10
841.26	227.07
841.57	227.05
841.88	227.04
842.20	227.01
842.51	226.97
842.83	226.96
843.14	227.03
843.46	227.01
843.77	226.94
844.08	226.94
844.40	226.90
844.71	226.89
845.03	226.85
845.34	226.83
845.65	226.80
845.97	226.80
846.28	226.80
846.60	226.81
846.91	226.81
847.22	226.81
847.54	226.82
847.85	226.84
848.16	226.85
848.48	226.81
848.79	226.88
849.10	226.91
849.42	226.90
849.73	226.80
850.04	226.83
850.36	226.81
850.67	226.80
850.98	226.83
851.30	226.83
851.61	226.81
851.92	226.80
852.23	226.83
852.55	226.79
852.86	226.77
853.17	226.75
853.49	226.77
853.80	226.78
854.11	226.79
854.42	226.76
854.74	226.75
855.05	226.76
855.36	226.67
855.67	226.67
855.99	226.69
856.30	226.78
856.61	226.76
856.92	226.75
857.23	226.74
857.55	226.70
857.86	226.66
858.17	226.67
858.48	226.65
858.79	226.61
859.11	226.64
859.42	226.66
859.73	226.64
860.04	226.60
860.35	226.56
860.66	226.51
860.98	226.50
861.29	226.49
861.60	226.52
861.91	226.54
862.22	226.49
862.53	226.48
862.84	226.35
863.16	226.38
863.47	226.34
863.78	226.34
864.09	226.34
864.40	226.38
864.71	226.39
865.02	226.38
865.33	226.36
865.64	226.31
865.95	226.30
866.27	226.38
866.58	226.41
866.89	226.41
867.20	226.43
867.51	226.44
867.82	226.45
868.13	226.44
868.44	226.43
868.75	226.47
869.06	226.48
869.37	226.49
869.68	226.45
869.99	226.49
870.30	226.50
870.61	226.53
870.92	226.53
871.23	226.51
871.54	226.55
871.85	226.59
872.16	226.62
872.47	226.59
872.78	226.51
873.09	226.48
873.40	226.47
873.71	226.47
874.02	226.46
874.33	226.44
874.64	226.42
874.95	226.44
875.26	226.41
875.56	226.41
875.87	226.43
876.18	226.44
876.49	226.52
876.80	226.48
877.11	226.44
877.42	226.42
877.73	226.40
878.04	226.35
878.35	226.34
878.66	226.34
878.96	226.35
879.27	226.36
879.58	226.39
879.89	226.38
880.20	226.42
880.51	226.45
880.82	226.46
881.12	226.48
881.43	226.45
881.74	226.44
882.05	226.44
882.36	226.43
882.67	226.45
882.97	226.37
883.28	226.39
883.59	226.41
883.90	226.45
884.21	226.47
884.51	226.48
884.82	226.50
885.13	226.53
885.44	226.55
885.74	226.54
886.05	226.52
886.36	226.51
886.67	226.45
886.98	226.48
887.28	226.45
887.59	226.43
887.90	226.40
888.20	226.39
888.51	226.38
888.82	226.36
889.13	226.35
889.43	226.43
889.74	226.37
890.05	226.36
890.35	226.34
890.66	226.38
890.97	226.37
891.28	226.34
891.58	226.31
891.89	226.29
892.20	226.29
892.50	226.27
892.81	226.27
893.12	226.30
893.42	226.26
893.73	226.31
894.04	226.34
894.34	226.37
894.65	226.34
894.95	226.35
895.26	226.35
895.57	226.35
895.87	226.27
896.18	226.30
896.48	226.30
896.79	226.27
897.10	226.25
897.40	226.27
897.71	226.26
898.01	226.27
898.32	226.26
898.63	226.26
898.93	226.27
899.24	226.28
899.54	226.25
899.85	226.25
900.15	226.22
900.46	226.16
900.76	226.18
901.07	226.22
901.38	226.22
901.68	226.24
901.99	226.22
902.29	226.23
902.60	226.24
902.90	226.24
903.21	226.25
903.51	226.21
903.82	226.21
904.12	226.21
904.43	226.21
904.73	226.19
905.03	226.17
905.34	226.28
905.64	226.24
905.95	226.26
906.25	226.23
906.56	226.23
906.86	226.24
907.17	226.22
907.47	226.21
907.77	226.18
908.08	226.17
908.38	226.19
908.69	226.18
908.99	226.19
909.30	226.18
909.60	226.20
909.90	226.21
910.21	226.16
910.51	226.16
910.81	226.15
911.12	226.16
911.42	226.18
911.73	226.03
912.03	226.07
912.33	226.06
912.64	226.06
912.94	226.05
913.24	226.03
913.55	226.00
913.85	226.03
914.15	226.04
914.46	226.04
914.76	226.00
915.06	226.01
915.37	226.00
915.67	225.98
915.97	225.98
916.27	225.96
916.58	225.97
916.88	225.93
917.18	225.95
917.49	226.01
917.79	226.00
918.09	226.03
918.39	226.03
918.70	226.03
919.00	226.05
919.30	226.10
919.60	226.09
919.91	226.08
920.21	226.07
920.51	226.03
920.81	226.00
921.12	226.04
921.42	226.02
921.72	226.01
922.02	226.04
922.32	226.03
922.63	226.05
922.93	226.12
923.23	226.14
923.53	226.11
923.83	226.07
924.13	226.08
924.44	226.08
924.74	226.10
925.04	226.14
925.34	226.13
925.64	226.07
925.94	226.08
926.24	226.14
926.55	226.15
926.85	226.19
927.15	226.19
927.45	226.15
927.75	226.14
928.05	226.15
928.35	226.08
928.65	226.09
928.95	226.11
929.26	226.06
929.56	226.08
929.86	226.08
930.16	226.04
930.46	226.03
930.76	226.06
931.06	226.01
931.36	225.94
931.66	225.96
931.96	225.97
932.26	225.99
932.56	225.96
932.86	225.96
933.16	225.99
933.46	225.99
933.76	225.99
934.06	226.01
934.36	226.01
934.66	226.07
934.96	226.07
935.26	226.07
935.56	226.10
935.86	226.06
936.16	226.05
936.46	226.07
936.76	226.08
937.06	226.07
937.36	226.11
937.66	226.14
937.96	226.13
938.26	226.13
938.56	226.10
938.86	226.10
939.16	226.11
939.46	226.11
939.76	226.14
940.06	226.14
940.35	226.13
940.65	226.08
940.95	226.06
941.25	226.03
941.55	226.00
941.85	225.99
942.15	226.06
942.45	226.09
942.75	226.08
943.04	226.06
943.34	226.06
943.64	226.03
943.94	225.99
944.24	225.98
944.54	226.01
944.84	226.02
945.13	226.02
945.43	226.00
945.73	226.00
946.03	225.96
946.33	225.97
946.62	225.95
946.92	225.97
947.22	225.98
947.52	226.00
947.82	226.01
948.11	226.01
948.41	225.96
948.71	225.95
949.01	225.95
949.31	225.95
949.60	225.95
949.90	225.99
950.20	225.99
950.50	226.00
950.79	225.95
951.09	225.98
951.39	225.98
951.69	225.98
951.98	225.98
952.28	226.01
952.58	225.98
952.87	225.99
953.17	226.02
953.47	226.03
953.76	226.02
954.06	225.99
954.36	225.99
954.66	225.98
954.95	226.01
955.25	226.04
955.55	226.05
955.84	226.03
956.14	226.03
956.44	226.03
956.73	226.00
957.03	226.01
957.32	226.00
957.62	226.00
957.92	226.01
958.21	226.00
958.51	226.09
958.81	226.13
959.10	226.17
959.40	226.16
959.69	226.16
959.99	226.20
960.29	226.20
960.58	226.19
960.88	226.24
961.17	226.24
961.47	226.21
961.76	226.20
962.06	226.24
962.36	226.25
962.65	226.29
962.95	226.32
963.24	226.31
963.54	226.31
963.83	226.28
964.13	226.25
964.42	226.24
964.72	226.15
965.01	226.14
965.31	226.09
965.60	226.07
965.90	226.14
966.19	226.08
966.49	226.08
966.78	226.10
967.08	226.11
967.37	226.09
967.67	226.09
967.96	226.12
968.26	226.10
968.55	226.08
968.85	226.07
969.14	226.06
969.43	226.09
969.73	226.09
970.02	226.12
970.32	226.12
970.61	226.12
970.91	226.09
971.20	226.08
971.49	226.07
971.79	226.09
972.08	226.00
972.38	226.04
972.67	226.04
972.96	226.04
973.26	226.01
973.55	226.04
973.85	226.02
974.14	226.00
974.43	226.00
974.73	225.97
975.02	225.94
975.31	225.97
975.61	225.97
975.90	225.99
976.19	225.96
976.49	225.98
976.78	226.00
977.07	226.02
977.37	226.04
977.66	226.11
977.95	226.10
978.24	226.12
978.54	226.13
978.83	226.12
979.12	226.13
979.42	226.12
979.71	226.13
980.00	226.13
980.29	226.15
980.59	226.13
980.88	226.18
981.17	226.19
981.46	226.17
981.76	226.17
982.05	226.19
982.34	226.21
982.63	226.20
982.93	226.19
983.22	226.22
983.51	226.19
983.80	226.17
984.09	226.17
984.39	226.16
984.68	226.14
984.97	226.12
985.26	226.10
985.55	226.12
985.85	226.06
986.14	226.09
986.43	226.08
986.72	226.06
987.01	226.02
987.30	226.05
987.59	226.05
987.89	226.01
988.18	225.97
988.47	225.95
988.76	225.93
989.05	225.91
989.34	225.88
989.63	225.91
989.92	225.89
990.22	225.86
990.51	225.84
990.80	225.82
991.09	225.86
991.38	225.86
991.67	225.84
991.96	225.84
992.25	225.81
992.54	225.82
992.83	225.81
993.12	225.78
993.41	225.77
993.70	225.80
993.99	225.84
994.28	225.85
994.58	225.87
994.87	225.87
995.16	225.84
995.45	225.84
995.74	225.79
996.03	225.80
996.32	225.84
996.61	225.87
996.90	225.89
997.19	225.88
997.48	225.91
997.77	225.89
998.06	225.91
998.34	225.94
998.63	225.91
998.92	225.91
999.21	225.96
999.50	225.95
999.79	225.93
1000.08	225.93
1000.37	225.93
1000.66	225.92
1000.95	225.94
1001.24	225.96
1001.53	225.98
1001.82	225.98
1002.11	225.98
1002.40	225.99
1002.68	226.01
1002.97	226.06
1003.26	226.03
1003.55	226.00
1003.84	226.01
1004.13	226.04
1004.42	226.02
1004.71	226.04
1004.99	226.06
1005.28	226.07
1005.57	226.08
1005.86	226.07
1006.15	226.07
1006.44	226.04
1006.72	226.06
1007.01	226.07
1007.30	226.11
1007.59	226.09
1007.88	226.11
1008.17	226.11
1008.45	226.10
1008.74	226.05
1009.03	225.99
1009.32	226.01
1009.60	226.03
1009.89	226.02
1010.18	225.98
1010.47	225.97
1010.76	225.95
1011.04	225.97
1011.33	225.96
1011.62	225.99
1011.91	225.97
1012.19	225.98
1012.48	226.00
1012.77	226.00
1013.05	226.04
1013.34	226.02
1013.63	226.03
1013.92	226.03
1014.20	226.03
1014.49	226.03
1014.78	226.05
1015.06	226.04
1015.35	226.06
1015.64	226.04
1015.92	226.07
1016.21	226.07
1016.50	226.07
1016.78	226.07
1017.07	226.05
1017.36	226.05
1017.64	226.02
1017.93	226.06
1018.22	226.05
1018.50	226.02
1018.79	226.00
1019.08	225.96
1019.36	225.95
1019.65	225.92
1019.93	225.96
1020.22	225.95
1020.51	225.99
1020.79	226.00
1021.08	226.06
1021.36	225.23
1021.65	226.02
1021.94	226.36
1022.22	225.65
1022.51	225.64
1022.79	226.50
1023.08	225.84
1023.36	227.00
1023.65	226.27
>>>>>End Processed Spectral Data<<<<<
