SpectraSuite Data File
++++++++++++++++++++++++++++++++++++
Date: Fri Feb 01 16:12:22 EST 2013
User: group
Dark Spectrum Present: No
Reference Spectrum Present: No
Number of Sampled Component Spectra: 1
Spectrometers: USB2E7196
Integration Time (usec): 35000 (USB2E7196)
Spectra Averaged: 100 (USB2E7196)
Boxcar Smoothing: 10 (USB2E7196)
Correct for Electrical Dark: No (USB2E7196)
Strobe/Lamp Enabled: No (USB2E7196)
Correct for Detector Non-linearity: No (USB2E7196)
Correct for Stray Light: No (USB2E7196)
Number of Pixels in Processed Spectrum: 2048
>>>>>Begin Processed Spectral Data<<<<<
339.09	0.00
339.48	214.28
339.86	215.70
340.24	217.13
340.63	218.63
341.01	221.66
341.39	221.31
341.78	222.92
342.16	224.24
342.54	224.41
342.93	212.74
343.31	223.48
343.69	224.02
344.07	224.48
344.46	224.91
344.84	225.27
345.22	225.47
345.60	225.72
345.99	225.87
346.37	225.98
346.75	226.09
347.13	226.14
347.52	226.21
347.90	226.25
348.28	226.29
348.66	226.34
349.05	226.33
349.43	226.33
349.81	226.37
350.19	226.41
350.57	226.46
350.96	226.53
351.34	226.57
351.72	226.65
352.10	226.73
352.48	226.78
352.87	226.88
353.25	226.97
353.63	227.00
354.01	227.04
354.39	227.17
354.77	227.23
355.15	227.31
355.54	227.38
355.92	227.42
356.30	227.48
356.68	227.58
357.06	227.67
357.44	227.75
357.82	227.80
358.20	227.89
358.58	227.95
358.97	228.01
359.35	228.12
359.73	228.21
360.11	228.28
360.49	228.37
360.87	228.40
361.25	228.45
361.63	228.54
362.01	228.65
362.39	228.60
362.77	228.64
363.15	228.68
363.53	228.72
363.91	228.75
364.29	228.78
364.67	228.75
365.05	228.77
365.43	228.81
365.81	228.83
366.19	228.88
366.57	228.96
366.95	228.97
367.33	228.94
367.71	228.92
368.09	228.92
368.47	228.90
368.85	228.89
369.23	228.91
369.61	228.86
369.99	228.84
370.37	228.85
370.75	228.88
371.13	228.85
371.51	228.79
371.89	228.75
372.27	228.72
372.65	228.66
373.03	228.61
373.41	228.56
373.78	228.51
374.16	228.42
374.54	228.33
374.92	228.23
375.30	228.21
375.68	228.13
376.06	228.07
376.44	227.99
376.82	227.90
377.19	227.83
377.57	227.76
377.95	227.66
378.33	227.61
378.71	227.47
379.09	227.43
379.47	227.39
379.84	227.30
380.22	227.25
380.60	227.13
380.98	227.06
381.36	227.01
381.73	226.92
382.11	226.85
382.49	226.78
382.87	226.71
383.25	226.64
383.62	226.71
384.00	226.64
384.38	226.60
384.76	226.58
385.13	226.55
385.51	226.50
385.89	226.43
386.27	226.34
386.64	226.33
387.02	226.28
387.40	226.23
387.78	226.22
388.15	226.18
388.53	226.16
388.91	226.12
389.29	226.05
389.66	226.06
390.04	226.02
390.42	226.02
390.79	225.97
391.17	225.95
391.55	225.82
391.92	225.79
392.30	225.78
392.68	225.74
393.05	225.74
393.43	225.74
393.81	225.76
394.18	225.77
394.56	225.78
394.94	225.79
395.31	225.84
395.69	225.85
396.06	225.89
396.44	225.93
396.82	225.94
397.19	226.06
397.57	226.04
397.95	226.10
398.32	226.09
398.70	226.17
399.07	226.24
399.45	226.32
399.82	226.39
400.20	226.43
400.58	226.49
400.95	226.54
401.33	226.64
401.70	226.76
402.08	226.85
402.45	226.94
402.83	227.06
403.20	227.11
403.58	227.21
403.95	227.34
404.33	227.49
404.71	227.61
405.08	227.76
405.46	227.92
405.83	228.07
406.21	228.21
406.58	228.40
406.96	228.55
407.33	228.71
407.70	228.89
408.08	229.16
408.45	229.38
408.83	229.59
409.20	229.78
409.58	229.99
409.95	230.26
410.33	230.51
410.70	230.73
411.08	231.06
411.45	231.37
411.82	231.63
412.20	231.97
412.57	232.40
412.95	232.68
413.32	233.10
413.69	233.50
414.07	233.95
414.44	234.43
414.82	234.93
415.19	235.47
415.56	236.03
415.94	236.57
416.31	237.22
416.68	237.85
417.06	238.56
417.43	239.26
417.81	240.01
418.18	240.81
418.55	241.65
418.93	242.52
419.30	243.38
419.67	244.35
420.04	245.30
420.42	246.29
420.79	247.48
421.16	248.62
421.54	249.80
421.91	251.04
422.28	252.25
422.66	253.56
423.03	254.85
423.40	256.24
423.77	257.63
424.15	259.02
424.52	260.49
424.89	262.08
425.26	263.59
425.64	265.06
426.01	266.64
426.38	268.31
426.75	269.94
427.13	271.71
427.50	273.53
427.87	275.39
428.24	277.26
428.61	279.02
428.99	280.98
429.36	283.08
429.73	285.14
430.10	287.12
430.47	289.17
430.85	291.29
431.22	293.48
431.59	295.87
431.96	298.12
432.33	300.64
432.70	303.03
433.08	305.85
433.45	308.48
433.82	311.07
434.19	313.97
434.56	316.76
434.93	319.39
435.30	321.95
435.68	324.82
436.05	327.59
436.42	330.34
436.79	332.80
437.16	335.48
437.53	338.30
437.90	341.17
438.27	343.92
438.64	346.74
439.01	349.32
439.38	351.59
439.75	353.77
440.13	356.22
440.50	358.56
440.87	360.39
441.24	362.29
441.61	364.48
441.98	365.93
442.35	367.75
442.72	369.59
443.09	371.40
443.46	372.39
443.83	373.00
444.20	373.50
444.57	374.37
444.94	374.63
445.31	374.97
445.68	375.25
446.05	375.36
446.42	374.93
446.79	374.49
447.16	374.01
447.53	373.64
447.90	372.48
448.27	371.31
448.64	369.71
449.01	368.56
449.37	366.56
449.74	364.67
450.11	362.45
450.48	360.00
450.85	357.52
451.22	355.42
451.59	353.43
451.96	351.51
452.33	348.87
452.70	346.52
453.07	343.68
453.43	340.80
453.80	338.02
454.17	335.38
454.54	332.87
454.91	330.15
455.28	327.53
455.65	325.08
456.02	322.62
456.38	320.50
456.75	317.88
457.12	315.62
457.49	313.40
457.86	311.22
458.23	309.37
458.59	307.31
458.96	305.25
459.33	303.43
459.70	301.54
460.07	300.08
460.43	298.40
460.80	296.82
461.17	295.43
461.54	293.94
461.91	292.53
462.27	291.09
462.64	289.86
463.01	288.51
463.38	287.22
463.74	285.87
464.11	284.75
464.48	283.72
464.85	282.65
465.21	281.81
465.58	280.93
465.95	279.83
466.32	278.94
466.68	278.01
467.05	277.11
467.42	276.27
467.78	275.36
468.15	274.49
468.52	273.80
468.88	272.96
469.25	272.21
469.62	271.63
469.98	271.02
470.35	270.37
470.72	269.79
471.08	269.15
471.45	268.64
471.82	268.11
472.18	267.52
472.55	267.07
472.92	266.53
473.28	266.05
473.65	265.59
474.02	265.14
474.38	264.78
474.75	264.45
475.11	264.10
475.48	263.83
475.85	263.61
476.21	263.41
476.58	263.21
476.94	263.07
477.31	262.88
477.67	262.67
478.04	262.61
478.41	262.55
478.77	262.59
479.14	262.55
479.50	262.53
479.87	262.60
480.23	262.70
480.60	262.76
480.96	262.86
481.33	263.09
481.69	263.28
482.06	263.50
482.42	263.69
482.79	263.99
483.15	264.30
483.52	264.65
483.88	265.01
484.25	265.36
484.61	265.77
484.98	266.22
485.34	266.78
485.71	267.32
486.07	267.93
486.44	268.51
486.80	269.19
487.17	269.94
487.53	270.75
487.90	271.59
488.26	272.56
488.62	273.56
488.99	274.49
489.35	275.50
489.72	276.65
490.08	277.87
490.44	279.05
490.81	280.35
491.17	281.70
491.54	283.17
491.90	284.72
492.26	286.32
492.63	288.05
492.99	289.85
493.36	291.77
493.72	293.79
494.08	295.88
494.45	298.15
494.81	300.50
495.17	302.95
495.54	305.56
495.90	308.26
496.26	311.05
496.63	314.04
496.99	317.16
497.35	320.39
497.72	323.78
498.08	327.36
498.44	331.06
498.80	335.00
499.17	339.03
499.53	343.20
499.89	347.65
500.26	352.18
500.62	356.84
500.98	361.82
501.34	366.95
501.71	372.28
502.07	377.65
502.43	383.26
502.79	389.12
503.16	395.15
503.52	401.43
503.88	407.82
504.24	414.51
504.60	421.45
504.97	428.59
505.33	435.97
505.69	443.66
506.05	451.49
506.41	459.41
506.78	467.61
507.14	476.13
507.50	484.82
507.86	493.84
508.22	503.09
508.59	512.30
508.95	521.82
509.31	531.59
509.67	541.80
510.03	552.11
510.39	562.66
510.75	573.49
511.12	584.39
511.48	595.74
511.84	607.18
512.20	618.66
512.56	630.58
512.92	642.68
513.28	655.05
513.64	667.57
514.00	680.33
514.37	693.28
514.73	706.27
515.09	719.36
515.45	732.58
515.81	746.17
516.17	760.08
516.53	774.25
516.89	788.43
517.25	802.60
517.61	817.00
517.97	831.45
518.33	845.84
518.69	860.58
519.05	875.55
519.41	890.66
519.77	906.26
520.13	921.71
520.49	937.10
520.85	952.32
521.21	968.01
521.57	984.23
521.93	999.94
522.29	1016.27
522.65	1032.52
523.01	1048.74
523.37	1064.80
523.73	1080.90
524.09	1096.95
524.45	1113.25
524.81	1129.76
525.17	1146.49
525.53	1163.34
525.89	1180.25
526.25	1197.08
526.61	1213.42
526.97	1230.21
527.33	1246.55
527.68	1263.15
528.04	1279.57
528.40	1296.29
528.76	1313.19
529.12	1329.63
529.48	1346.43
529.84	1362.35
530.20	1378.76
530.56	1395.73
530.91	1413.10
531.27	1430.01
531.63	1446.44
531.99	1462.93
532.35	1478.89
532.71	1494.74
533.07	1510.89
533.42	1526.67
533.78	1542.75
534.14	1558.87
534.50	1574.07
534.86	1589.91
535.21	1605.07
535.57	1620.96
535.93	1636.33
536.29	1651.03
536.65	1666.08
537.00	1680.84
537.36	1696.20
537.72	1710.72
538.08	1725.08
538.44	1738.86
538.79	1752.48
539.15	1765.91
539.51	1779.57
539.87	1793.83
540.22	1807.42
540.58	1821.02
540.94	1834.14
541.29	1846.78
541.65	1859.41
542.01	1872.62
542.37	1884.91
542.72	1897.26
543.08	1908.96
543.44	1921.21
543.79	1932.52
544.15	1943.49
544.51	1954.96
544.87	1965.71
545.22	1976.48
545.58	1986.65
545.94	1996.25
546.29	2006.16
546.65	2016.17
547.01	2025.44
547.36	2034.13
547.72	2042.55
548.07	2050.48
548.43	2058.54
548.79	2066.46
549.14	2074.09
549.50	2081.32
549.86	2088.74
550.21	2095.97
550.57	2103.19
550.92	2109.86
551.28	2116.86
551.64	2123.84
551.99	2130.28
552.35	2136.46
552.70	2142.65
553.06	2148.70
553.41	2155.00
553.77	2161.00
554.13	2166.96
554.48	2172.99
554.84	2178.61
555.19	2183.92
555.55	2189.11
555.90	2193.81
556.26	2198.81
556.61	2203.34
556.97	2207.69
557.32	2211.93
557.68	2216.04
558.03	2220.21
558.39	2223.95
558.74	2228.45
559.10	2232.29
559.45	2236.00
559.81	2240.36
560.16	2244.24
560.52	2247.38
560.87	2250.78
561.23	2253.35
561.58	2256.34
561.94	2258.95
562.29	2261.08
562.64	2264.00
563.00	2266.47
563.35	2269.87
563.71	2273.00
564.06	2276.25
564.42	2279.13
564.77	2281.83
565.12	2284.18
565.48	2286.12
565.83	2288.03
566.19	2289.41
566.54	2290.15
566.89	2291.42
567.25	2292.19
567.60	2293.44
567.96	2295.27
568.31	2296.07
568.66	2297.41
569.02	2298.00
569.37	2298.38
569.72	2299.31
570.08	2299.44
570.43	2299.50
570.78	2299.09
571.14	2297.66
571.49	2296.35
571.84	2296.11
572.20	2294.99
572.55	2293.84
572.90	2292.23
573.26	2290.80
573.61	2289.00
573.96	2287.51
574.31	2284.62
574.67	2281.51
575.02	2277.86
575.37	2274.34
575.72	2270.75
576.08	2267.14
576.43	2263.62
576.78	2260.02
577.13	2256.90
577.49	2253.55
577.84	2250.22
578.19	2246.37
578.54	2242.74
578.90	2238.56
579.25	2233.02
579.60	2228.11
579.95	2223.20
580.30	2218.36
580.66	2213.17
581.01	2208.40
581.36	2203.54
581.71	2199.37
582.06	2195.00
582.42	2190.66
582.77	2185.61
583.12	2181.05
583.47	2176.62
583.82	2172.00
584.17	2166.78
584.53	2161.27
584.88	2155.83
585.23	2150.17
585.58	2144.80
585.93	2139.32
586.28	2134.56
586.63	2129.50
586.98	2124.38
587.34	2119.71
587.69	2114.70
588.04	2109.53
588.39	2103.77
588.74	2097.28
589.09	2091.03
589.44	2084.30
589.79	2078.09
590.14	2072.34
590.49	2065.64
590.84	2059.16
591.19	2053.04
591.54	2046.53
591.89	2039.28
592.25	2032.52
592.60	2025.30
592.95	2017.69
593.30	2010.39
593.65	2002.85
594.00	1995.85
594.35	1988.63
594.70	1980.46
595.05	1973.50
595.40	1966.26
595.75	1958.92
596.10	1952.76
596.45	1946.15
596.80	1940.08
597.15	1933.63
597.50	1926.73
597.85	1920.30
598.19	1913.76
598.54	1906.68
598.89	1900.08
599.24	1894.20
599.59	1887.65
599.94	1881.36
600.29	1875.01
600.64	1868.31
600.99	1861.00
601.34	1854.18
601.69	1847.09
602.04	1840.31
602.39	1832.87
602.74	1826.05
603.08	1819.30
603.43	1812.47
603.78	1805.06
604.13	1797.65
604.48	1790.43
604.83	1783.50
605.18	1776.69
605.53	1768.63
605.87	1760.65
606.22	1753.39
606.57	1745.46
606.92	1738.00
607.27	1730.99
607.62	1724.20
607.96	1717.09
608.31	1710.54
608.66	1702.92
609.01	1695.56
609.36	1688.10
609.70	1680.05
610.05	1672.12
610.40	1664.42
610.75	1656.22
611.10	1648.59
611.44	1640.25
611.79	1632.19
612.14	1623.52
612.49	1614.20
612.83	1605.73
613.18	1597.51
613.53	1589.47
613.88	1580.85
614.22	1572.58
614.57	1563.85
614.92	1555.88
615.27	1548.45
615.61	1540.08
615.96	1532.03
616.31	1524.29
616.65	1516.86
617.00	1509.44
617.35	1501.63
617.70	1493.34
618.04	1484.87
618.39	1476.65
618.74	1469.08
619.08	1460.76
619.43	1453.11
619.78	1446.25
620.12	1439.23
620.47	1431.87
620.82	1423.55
621.16	1416.09
621.51	1408.60
621.85	1400.93
622.20	1392.31
622.55	1383.90
622.89	1376.03
623.24	1368.43
623.59	1361.04
623.93	1353.52
624.28	1346.19
624.62	1338.68
624.97	1331.47
625.32	1324.51
625.66	1317.60
626.01	1310.49
626.35	1303.14
626.70	1295.38
627.04	1287.69
627.39	1279.77
627.73	1272.30
628.08	1265.46
628.43	1258.30
628.77	1250.86
629.12	1243.32
629.46	1236.26
629.81	1228.62
630.15	1221.35
630.50	1213.88
630.84	1205.70
631.19	1197.74
631.53	1190.22
631.88	1182.71
632.22	1174.97
632.57	1167.77
632.91	1160.12
633.26	1152.68
633.60	1145.20
633.95	1138.09
634.29	1131.00
634.64	1124.37
634.98	1116.92
635.32	1109.77
635.67	1103.02
636.01	1096.35
636.36	1089.61
636.70	1083.02
637.05	1076.52
637.39	1070.09
637.73	1063.66
638.08	1057.82
638.42	1051.98
638.77	1045.52
639.11	1038.94
639.45	1032.65
639.80	1026.03
640.14	1019.67
640.49	1013.13
640.83	1006.84
641.17	1000.71
641.52	994.40
641.86	987.89
642.20	982.12
642.55	975.81
642.89	969.42
643.23	962.82
643.58	957.04
643.92	950.83
644.26	944.95
644.61	938.89
644.95	932.82
645.29	926.25
645.64	919.41
645.98	913.00
646.32	906.98
646.66	900.92
647.01	895.11
647.35	889.35
647.69	883.47
648.04	877.85
648.38	872.00
648.72	866.09
649.06	860.09
649.41	854.18
649.75	848.27
650.09	842.35
650.43	836.53
650.78	830.36
651.12	824.45
651.46	818.59
651.80	812.91
652.14	807.55
652.49	802.18
652.83	796.98
653.17	791.41
653.51	785.87
653.85	780.52
654.20	774.90
654.54	768.93
654.88	763.14
655.22	757.29
655.56	751.55
655.90	746.07
656.25	740.80
656.59	735.45
656.93	730.24
657.27	725.09
657.61	719.67
657.95	714.56
658.29	709.40
658.64	704.09
658.98	698.65
659.32	693.16
659.66	687.93
660.00	682.67
660.34	677.72
660.68	672.79
661.02	667.71
661.36	662.96
661.70	658.40
662.05	654.13
662.39	649.85
662.73	645.41
663.07	641.03
663.41	636.62
663.75	632.17
664.09	627.68
664.43	623.27
664.77	619.26
665.11	615.00
665.45	610.83
665.79	606.83
666.13	602.75
666.47	598.64
666.81	594.47
667.15	590.35
667.49	586.37
667.83	582.49
668.17	578.58
668.51	574.50
668.85	570.52
669.19	566.66
669.53	562.84
669.87	558.97
670.21	555.25
670.55	551.60
670.89	548.11
671.23	544.67
671.57	541.15
671.91	537.58
672.25	534.12
672.58	530.66
672.92	527.22
673.26	524.05
673.60	520.87
673.94	517.79
674.28	514.86
674.62	511.98
674.96	508.93
675.30	506.04
675.64	503.16
675.97	500.38
676.31	497.50
676.65	494.49
676.99	491.83
677.33	488.95
677.67	486.16
678.01	483.13
678.34	480.18
678.68	477.31
679.02	474.48
679.36	471.67
679.70	468.97
680.04	466.22
680.37	463.30
680.71	460.52
681.05	457.87
681.39	455.18
681.73	452.44
682.06	449.90
682.40	447.33
682.74	444.79
683.08	442.19
683.42	439.56
683.75	437.12
684.09	434.50
684.43	432.00
684.77	429.52
685.10	427.15
685.44	424.84
685.78	422.52
686.12	420.23
686.45	417.96
686.79	415.62
687.13	413.40
687.46	411.30
687.80	409.10
688.14	406.87
688.48	404.80
688.81	402.61
689.15	400.40
689.49	398.21
689.82	396.10
690.16	394.01
690.50	392.06
690.83	390.10
691.17	388.12
691.51	386.22
691.84	384.37
692.18	382.44
692.52	380.46
692.85	378.56
693.19	376.70
693.52	374.83
693.86	373.02
694.20	371.25
694.53	369.42
694.87	367.58
695.21	365.80
695.54	363.93
695.88	362.15
696.21	360.42
696.55	358.77
696.88	357.04
697.22	355.37
697.56	353.73
697.89	352.05
698.23	350.46
698.56	348.85
698.90	347.26
699.23	345.64
699.57	344.08
699.90	342.50
700.24	340.94
700.58	339.44
700.91	337.99
701.25	336.53
701.58	335.19
701.92	333.86
702.25	332.50
702.59	331.17
702.92	329.88
703.26	328.60
703.59	327.27
703.93	326.09
704.26	324.86
704.60	323.56
704.93	322.32
705.26	321.04
705.60	319.89
705.93	318.74
706.27	317.74
706.60	316.69
706.94	315.62
707.27	314.51
707.61	313.43
707.94	312.36
708.27	311.26
708.61	310.12
708.94	309.15
709.28	308.15
709.61	307.20
709.94	306.21
710.28	305.26
710.61	304.30
710.95	303.26
711.28	302.37
711.61	301.43
711.95	300.51
712.28	299.58
712.61	298.63
712.95	297.70
713.28	296.74
713.61	295.86
713.95	295.01
714.28	294.15
714.61	293.33
714.95	292.51
715.28	291.68
715.61	290.85
715.95	289.99
716.28	289.15
716.61	288.31
716.95	287.51
717.28	286.71
717.61	285.98
717.94	285.25
718.28	284.47
718.61	283.76
718.94	283.08
719.27	282.45
719.61	281.76
719.94	281.11
720.27	280.45
720.60	279.78
720.94	279.12
721.27	278.51
721.60	277.94
721.93	277.36
722.27	276.85
722.60	276.27
722.93	275.69
723.26	275.14
723.59	274.57
723.93	274.07
724.26	273.52
724.59	272.94
724.92	272.39
725.25	271.85
725.59	271.31
725.92	270.80
726.25	270.27
726.58	269.77
726.91	269.25
727.24	268.79
727.57	268.32
727.91	267.82
728.24	267.37
728.57	266.85
728.90	266.36
729.23	265.83
729.56	265.42
729.89	264.95
730.22	264.49
730.55	264.04
730.89	263.57
731.22	263.16
731.55	262.75
731.88	262.36
732.21	261.94
732.54	261.49
732.87	261.07
733.20	260.68
733.53	260.27
733.86	259.90
734.19	259.48
734.52	259.09
734.85	258.79
735.18	258.39
735.51	258.02
735.84	257.64
736.17	257.29
736.50	256.87
736.83	256.59
737.16	256.24
737.49	255.91
737.82	255.55
738.15	255.20
738.48	254.85
738.81	254.48
739.14	254.16
739.47	253.86
739.80	253.56
740.13	253.22
740.46	252.89
740.79	252.56
741.12	252.24
741.45	251.92
741.78	251.60
742.11	251.32
742.44	251.00
742.77	250.72
743.10	250.45
743.43	250.16
743.75	249.80
744.08	249.67
744.41	249.38
744.74	249.13
745.07	248.85
745.40	248.63
745.73	248.42
746.06	248.10
746.39	247.84
746.71	247.56
747.04	247.30
747.37	247.07
747.70	246.80
748.03	246.59
748.36	246.32
748.68	246.05
749.01	245.77
749.34	245.56
749.67	245.32
750.00	245.06
750.33	244.90
750.65	244.70
750.98	244.30
751.31	244.06
751.64	243.84
751.97	243.69
752.29	243.44
752.62	243.15
752.95	242.96
753.28	242.74
753.60	242.52
753.93	242.37
754.26	242.15
754.59	241.98
754.91	241.73
755.24	241.55
755.57	241.36
755.90	241.16
756.22	240.97
756.55	240.77
756.88	240.54
757.20	240.32
757.53	240.10
757.86	239.97
758.19	239.83
758.51	239.65
758.84	239.42
759.17	239.24
759.49	239.10
759.82	238.98
760.15	238.84
760.47	238.71
760.80	238.48
761.13	238.39
761.45	238.20
761.78	238.07
762.11	237.95
762.43	237.80
762.76	237.65
763.08	237.52
763.41	237.37
763.74	237.24
764.06	237.14
764.39	237.01
764.71	236.88
765.04	236.72
765.37	236.59
765.69	236.44
766.02	236.35
766.34	236.22
766.67	236.07
767.00	235.95
767.32	235.86
767.65	235.85
767.97	235.72
768.30	235.61
768.62	235.47
768.95	235.35
769.27	235.26
769.60	235.19
769.92	235.08
770.25	234.98
770.57	234.89
770.90	234.77
771.22	234.64
771.55	234.57
771.87	234.47
772.20	234.39
772.52	234.40
772.85	234.40
773.17	234.30
773.50	234.21
773.82	234.15
774.15	234.01
774.47	233.85
774.80	233.75
775.12	233.67
775.45	233.63
775.77	233.56
776.09	233.47
776.42	233.40
776.74	233.33
777.07	233.27
777.39	233.19
777.72	233.11
778.04	233.06
778.36	232.97
778.69	232.91
779.01	232.82
779.33	232.63
779.66	232.47
779.98	232.40
780.31	232.35
780.63	232.30
780.95	232.25
781.28	232.19
781.60	232.12
781.92	232.08
782.25	232.00
782.57	231.96
782.89	231.90
783.22	231.81
783.54	231.75
783.86	231.66
784.19	231.59
784.51	231.56
784.83	231.49
785.16	231.41
785.48	231.34
785.80	231.31
786.12	231.27
786.45	231.21
786.77	231.21
787.09	231.12
787.42	231.06
787.74	231.04
788.06	230.99
788.38	230.95
788.71	230.90
789.03	230.87
789.35	230.83
789.67	230.78
789.99	230.75
790.32	230.70
790.64	230.70
790.96	230.73
791.28	230.64
791.61	230.60
791.93	230.59
792.25	230.56
792.57	230.59
792.89	230.55
793.21	230.53
793.54	230.44
793.86	230.43
794.18	230.39
794.50	230.33
794.82	230.29
795.14	230.26
795.47	230.22
795.79	230.17
796.11	230.10
796.43	230.07
796.75	230.04
797.07	230.02
797.39	229.96
797.71	229.86
798.04	229.85
798.36	229.83
798.68	229.78
799.00	229.77
799.32	229.69
799.64	229.69
799.96	229.63
800.28	229.63
800.60	229.56
800.92	229.53
801.24	229.48
801.56	229.46
801.89	229.43
802.21	229.43
802.53	229.37
802.85	229.36
803.17	229.37
803.49	229.31
803.81	229.27
804.13	229.27
804.45	229.26
804.77	229.23
805.09	229.22
805.41	229.19
805.73	229.11
806.05	229.08
806.37	229.05
806.69	229.03
807.01	229.03
807.33	229.01
807.65	228.96
807.97	228.98
808.28	228.95
808.60	228.94
808.92	228.89
809.24	228.94
809.56	228.87
809.88	228.80
810.20	228.78
810.52	228.78
810.84	228.73
811.16	228.70
811.48	228.68
811.80	228.68
812.12	228.65
812.43	228.66
812.75	228.61
813.07	228.56
813.39	228.55
813.71	228.47
814.03	228.45
814.35	228.44
814.67	228.39
814.98	228.38
815.30	228.32
815.62	228.28
815.94	228.17
816.26	228.22
816.58	228.19
816.89	228.21
817.21	228.15
817.53	228.15
817.85	228.12
818.17	228.07
818.48	228.01
818.80	228.01
819.12	227.97
819.44	227.95
819.76	227.94
820.07	227.93
820.39	227.94
820.71	227.91
821.03	227.87
821.34	227.84
821.66	227.82
821.98	227.85
822.30	227.82
822.61	227.86
822.93	227.82
823.25	227.80
823.57	227.74
823.88	227.75
824.20	227.70
824.52	227.70
824.83	227.73
825.15	227.69
825.47	227.65
825.79	227.67
826.10	227.66
826.42	227.68
826.74	227.69
827.05	227.65
827.37	227.65
827.69	227.64
828.00	227.66
828.32	227.62
828.64	227.58
828.95	227.65
829.27	227.66
829.58	227.65
829.90	227.65
830.22	227.64
830.53	227.59
830.85	227.62
831.17	227.59
831.48	227.53
831.80	227.53
832.11	227.53
832.43	227.50
832.75	227.49
833.06	227.51
833.38	227.47
833.69	227.46
834.01	227.49
834.32	227.49
834.64	227.46
834.96	227.45
835.27	227.45
835.59	227.40
835.90	227.34
836.22	227.33
836.53	227.32
836.85	227.33
837.16	227.43
837.48	227.40
837.79	227.43
838.11	227.47
838.42	227.47
838.74	227.49
839.05	227.48
839.37	227.47
839.68	227.39
840.00	227.39
840.31	227.40
840.63	227.36
840.94	227.34
841.26	227.32
841.57	227.34
841.88	227.35
842.20	227.33
842.51	227.32
842.83	227.32
843.14	227.39
843.46	227.35
843.77	227.28
844.08	227.24
844.40	227.20
844.71	227.19
845.03	227.15
845.34	227.15
845.65	227.14
845.97	227.13
846.28	227.15
846.60	227.11
846.91	227.10
847.22	227.09
847.54	227.12
847.85	227.14
848.16	227.12
848.48	227.10
848.79	227.11
849.10	227.13
849.42	227.11
849.73	227.03
850.04	227.05
850.36	227.01
850.67	227.02
850.98	227.04
851.30	227.02
851.61	227.07
851.92	227.05
852.23	227.08
852.55	227.09
852.86	227.06
853.17	227.10
853.49	227.11
853.80	227.10
854.11	227.08
854.42	227.06
854.74	227.06
855.05	227.03
855.36	226.99
855.67	226.96
855.99	226.97
856.30	227.07
856.61	227.06
856.92	227.06
857.23	227.05
857.55	227.01
857.86	227.03
858.17	227.01
858.48	226.97
858.79	226.92
859.11	226.90
859.42	226.90
859.73	226.85
860.04	226.83
860.35	226.83
860.66	226.77
860.98	226.75
861.29	226.73
861.60	226.72
861.91	226.73
862.22	226.73
862.53	226.70
862.84	226.59
863.16	226.61
863.47	226.60
863.78	226.62
864.09	226.65
864.40	226.61
864.71	226.64
865.02	226.65
865.33	226.66
865.64	226.68
865.95	226.70
866.27	226.74
866.58	226.76
866.89	226.76
867.20	226.79
867.51	226.79
867.82	226.82
868.13	226.85
868.44	226.83
868.75	226.84
869.06	226.86
869.37	226.86
869.68	226.84
869.99	226.87
870.30	226.86
870.61	226.89
870.92	226.89
871.23	226.87
871.54	226.86
871.85	226.91
872.16	226.89
872.47	226.87
872.78	226.85
873.09	226.84
873.40	226.84
873.71	226.87
874.02	226.92
874.33	226.91
874.64	226.88
874.95	226.92
875.26	226.88
875.56	226.89
875.87	226.90
876.18	226.88
876.49	226.93
876.80	226.97
877.11	226.92
877.42	226.94
877.73	226.90
878.04	226.93
878.35	226.90
878.66	226.90
878.96	226.91
879.27	226.87
879.58	226.88
879.89	226.86
880.20	226.86
880.51	226.84
880.82	226.82
881.12	226.85
881.43	226.81
881.74	226.81
882.05	226.78
882.36	226.78
882.67	226.82
882.97	226.71
883.28	226.68
883.59	226.67
883.90	226.64
884.21	226.68
884.51	226.68
884.82	226.65
885.13	226.64
885.44	226.60
885.74	226.60
886.05	226.57
886.36	226.57
886.67	226.53
886.98	226.54
887.28	226.52
887.59	226.52
887.90	226.51
888.20	226.51
888.51	226.53
888.82	226.49
889.13	226.47
889.43	226.55
889.74	226.50
890.05	226.47
890.35	226.47
890.66	226.42
890.97	226.37
891.28	226.34
891.58	226.32
891.89	226.30
892.20	226.30
892.50	226.28
892.81	226.25
893.12	226.23
893.42	226.19
893.73	226.19
894.04	226.17
894.34	226.17
894.65	226.20
894.95	226.20
895.26	226.17
895.57	226.22
895.87	226.15
896.18	226.17
896.48	226.16
896.79	226.14
897.10	226.19
897.40	226.22
897.71	226.22
898.01	226.22
898.32	226.24
898.63	226.26
898.93	226.26
899.24	226.27
899.54	226.28
899.85	226.28
900.15	226.28
900.46	226.28
900.76	226.31
901.07	226.27
901.38	226.25
901.68	226.28
901.99	226.20
902.29	226.18
902.60	226.19
902.90	226.21
903.21	226.24
903.51	226.21
903.82	226.24
904.12	226.27
904.43	226.31
904.73	226.33
905.03	226.31
905.34	226.44
905.64	226.47
905.95	226.49
906.25	226.50
906.56	226.50
906.86	226.52
907.17	226.54
907.47	226.54
907.77	226.49
908.08	226.52
908.38	226.58
908.69	226.62
908.99	226.65
909.30	226.66
909.60	226.65
909.90	226.68
910.21	226.66
910.51	226.66
910.81	226.66
911.12	226.64
911.42	226.67
911.73	226.57
912.03	226.57
912.33	226.58
912.64	226.55
912.94	226.58
913.24	226.59
913.55	226.56
913.85	226.58
914.15	226.66
914.46	226.67
914.76	226.61
915.06	226.60
915.37	226.55
915.67	226.56
915.97	226.60
916.27	226.58
916.58	226.61
916.88	226.58
917.18	226.58
917.49	226.69
917.79	226.66
918.09	226.70
918.39	226.72
918.70	226.72
919.00	226.75
919.30	226.78
919.60	226.75
919.91	226.72
920.21	226.74
920.51	226.69
920.81	226.70
921.12	226.74
921.42	226.76
921.72	226.78
922.02	226.74
922.32	226.72
922.63	226.70
922.93	226.72
923.23	226.75
923.53	226.77
923.83	226.68
924.13	226.71
924.44	226.68
924.74	226.70
925.04	226.73
925.34	226.75
925.64	226.67
925.94	226.65
926.24	226.72
926.55	226.68
926.85	226.70
927.15	226.69
927.45	226.69
927.75	226.63
928.05	226.62
928.35	226.65
928.65	226.67
928.95	226.67
929.26	226.63
929.56	226.61
929.86	226.59
930.16	226.57
930.46	226.53
930.76	226.51
931.06	226.43
931.36	226.38
931.66	226.35
931.96	226.38
932.26	226.37
932.56	226.32
932.86	226.33
933.16	226.31
933.46	226.30
933.76	226.26
934.06	226.35
934.36	226.39
934.66	226.34
934.96	226.31
935.26	226.30
935.56	226.30
935.86	226.28
936.16	226.24
936.46	226.20
936.76	226.22
937.06	226.22
937.36	226.26
937.66	226.23
937.96	226.22
938.26	226.17
938.56	226.15
938.86	226.13
939.16	226.15
939.46	226.17
939.76	226.15
940.06	226.15
940.35	226.10
940.65	226.04
940.95	226.08
941.25	226.05
941.55	226.04
941.85	226.03
942.15	226.06
942.45	226.11
942.75	226.11
943.04	226.13
943.34	226.12
943.64	226.10
943.94	226.11
944.24	226.12
944.54	226.14
944.84	226.16
945.13	226.20
945.43	226.19
945.73	226.18
946.03	226.19
946.33	226.21
946.62	226.20
946.92	226.20
947.22	226.24
947.52	226.29
947.82	226.28
948.11	226.30
948.41	226.27
948.71	226.24
949.01	226.29
949.31	226.30
949.60	226.28
949.90	226.30
950.20	226.31
950.50	226.31
950.79	226.33
951.09	226.34
951.39	226.32
951.69	226.31
951.98	226.34
952.28	226.33
952.58	226.32
952.87	226.33
953.17	226.35
953.47	226.33
953.76	226.34
954.06	226.37
954.36	226.37
954.66	226.40
954.95	226.44
955.25	226.44
955.55	226.48
955.84	226.50
956.14	226.51
956.44	226.53
956.73	226.52
957.03	226.50
957.32	226.52
957.62	226.50
957.92	226.52
958.21	226.53
958.51	226.66
958.81	226.67
959.10	226.67
959.40	226.70
959.69	226.72
959.99	226.69
960.29	226.71
960.58	226.66
960.88	226.70
961.17	226.69
961.47	226.67
961.76	226.66
962.06	226.65
962.36	226.63
962.65	226.62
962.95	226.64
963.24	226.62
963.54	226.62
963.83	226.68
964.13	226.68
964.42	226.66
964.72	226.56
965.01	226.53
965.31	226.55
965.60	226.50
965.90	226.53
966.19	226.52
966.49	226.52
966.78	226.49
967.08	226.46
967.37	226.41
967.67	226.41
967.96	226.41
968.26	226.44
968.55	226.46
968.85	226.49
969.14	226.47
969.43	226.50
969.73	226.49
970.02	226.47
970.32	226.45
970.61	226.44
970.91	226.41
971.20	226.40
971.49	226.39
971.79	226.40
972.08	226.34
972.38	226.30
972.67	226.28
972.96	226.32
973.26	226.30
973.55	226.34
973.85	226.32
974.14	226.29
974.43	226.25
974.73	226.22
975.02	226.16
975.31	226.14
975.61	226.13
975.90	226.08
976.19	226.06
976.49	226.04
976.78	226.02
977.07	225.99
977.37	225.99
977.66	225.98
977.95	225.96
978.24	225.94
978.54	225.98
978.83	225.97
979.12	225.97
979.42	225.98
979.71	225.98
980.00	226.00
980.29	226.00
980.59	225.99
980.88	226.01
981.17	226.00
981.46	225.99
981.76	226.00
982.05	226.03
982.34	226.03
982.63	226.04
982.93	226.06
983.22	226.11
983.51	226.12
983.80	226.13
984.09	226.13
984.39	226.15
984.68	226.13
984.97	226.13
985.26	226.12
985.55	226.11
985.85	226.08
986.14	226.09
986.43	226.10
986.72	226.09
987.01	226.07
987.30	226.08
987.59	226.07
987.89	226.08
988.18	226.08
988.47	226.09
988.76	226.09
989.05	226.06
989.34	226.02
989.63	226.04
989.92	226.00
990.22	226.05
990.51	226.02
990.80	226.03
991.09	226.02
991.38	226.03
991.67	226.02
991.96	226.06
992.25	226.04
992.54	225.99
992.83	225.96
993.12	225.95
993.41	225.99
993.70	226.05
993.99	226.07
994.28	226.04
994.58	226.06
994.87	226.05
995.16	226.07
995.45	226.09
995.74	226.05
996.03	226.08
996.32	226.07
996.61	226.13
996.90	226.14
997.19	226.16
997.48	226.16
997.77	226.13
998.06	226.12
998.34	226.13
998.63	226.16
998.92	226.22
999.21	226.26
999.50	226.24
999.79	226.17
1000.08	226.16
1000.37	226.20
1000.66	226.17
1000.95	226.17
1001.24	226.15
1001.53	226.13
1001.82	226.13
1002.11	226.11
1002.40	226.12
1002.68	226.12
1002.97	226.19
1003.26	226.17
1003.55	226.14
1003.84	226.17
1004.13	226.18
1004.42	226.18
1004.71	226.19
1004.99	226.18
1005.28	226.16
1005.57	226.16
1005.86	226.17
1006.15	226.21
1006.44	226.19
1006.72	226.23
1007.01	226.22
1007.30	226.26
1007.59	226.25
1007.88	226.24
1008.17	226.23
1008.45	226.16
1008.74	226.11
1009.03	226.03
1009.32	226.03
1009.60	226.03
1009.89	226.00
1010.18	225.96
1010.47	225.96
1010.76	225.94
1011.04	225.91
1011.33	225.92
1011.62	225.90
1011.91	225.91
1012.19	225.89
1012.48	225.91
1012.77	225.87
1013.05	225.94
1013.34	225.92
1013.63	225.93
1013.92	225.96
1014.20	225.98
1014.49	226.01
1014.78	226.01
1015.06	226.00
1015.35	225.99
1015.64	226.00
1015.92	226.03
1016.21	226.03
1016.50	226.00
1016.78	225.98
1017.07	226.02
1017.36	226.01
1017.64	226.01
1017.93	226.00
1018.22	225.97
1018.50	225.96
1018.79	225.94
1019.08	225.86
1019.36	225.87
1019.65	225.84
1019.93	225.87
1020.22	225.88
1020.51	225.94
1020.79	225.95
1021.08	225.87
1021.36	226.02
1021.65	225.60
1021.94	225.75
1022.22	226.14
1022.51	225.16
1022.79	226.77
1023.08	226.33
1023.36	227.19
1023.65	226.20
>>>>>End Processed Spectral Data<<<<<
