SpectraSuite Data File
++++++++++++++++++++++++++++++++++++
Date: Fri Feb 01 15:29:42 EST 2013
User: group
Dark Spectrum Present: No
Reference Spectrum Present: No
Number of Sampled Component Spectra: 1
Spectrometers: USB2E7196
Integration Time (usec): 35000 (USB2E7196)
Spectra Averaged: 100 (USB2E7196)
Boxcar Smoothing: 10 (USB2E7196)
Correct for Electrical Dark: No (USB2E7196)
Strobe/Lamp Enabled: No (USB2E7196)
Correct for Detector Non-linearity: No (USB2E7196)
Correct for Stray Light: No (USB2E7196)
Number of Pixels in Processed Spectrum: 2048
>>>>>Begin Processed Spectral Data<<<<<
339.09	0.00
339.48	215.14
339.86	216.71
340.24	218.43
340.63	219.59
341.01	222.93
341.39	222.31
341.78	223.62
342.16	225.04
342.54	225.13
342.93	213.74
343.31	224.54
343.69	225.10
344.07	225.59
344.46	226.01
344.84	226.38
345.22	226.60
345.60	226.85
345.99	227.04
346.37	227.18
346.75	227.27
347.13	227.32
347.52	227.38
347.90	227.43
348.28	227.39
348.66	227.42
349.05	227.41
349.43	227.40
349.81	227.39
350.19	227.44
350.57	227.49
350.96	227.56
351.34	227.61
351.72	227.67
352.10	227.74
352.48	227.79
352.87	227.83
353.25	227.87
353.63	227.92
354.01	227.99
354.39	228.04
354.77	228.12
355.15	228.20
355.54	228.24
355.92	228.29
356.30	228.36
356.68	228.51
357.06	228.59
357.44	228.64
357.82	228.71
358.20	228.76
358.58	228.81
358.97	228.86
359.35	228.97
359.73	229.03
360.11	229.06
360.49	229.13
360.87	229.16
361.25	229.19
361.63	229.24
362.01	229.25
362.39	229.25
362.77	229.32
363.15	229.33
363.53	229.35
363.91	229.37
364.29	229.38
364.67	229.28
365.05	229.30
365.43	229.33
365.81	229.37
366.19	229.40
366.57	229.45
366.95	229.44
367.33	229.39
367.71	229.40
368.09	229.40
368.47	229.37
368.85	229.36
369.23	229.39
369.61	229.35
369.99	229.36
370.37	229.33
370.75	229.30
371.13	229.27
371.51	229.20
371.89	229.17
372.27	229.12
372.65	229.10
373.03	229.00
373.41	228.93
373.78	228.86
374.16	228.80
374.54	228.68
374.92	228.65
375.30	228.59
375.68	228.47
376.06	228.42
376.44	228.34
376.82	228.27
377.19	228.18
377.57	228.10
377.95	227.99
378.33	227.96
378.71	227.84
379.09	227.78
379.47	227.74
379.84	227.67
380.22	227.61
380.60	227.54
380.98	227.52
381.36	227.45
381.73	227.38
382.11	227.30
382.49	227.24
382.87	227.16
383.25	227.08
383.62	227.15
384.00	227.07
384.38	227.05
384.76	227.04
385.13	227.04
385.51	227.01
385.89	227.00
386.27	226.94
386.64	226.93
387.02	226.87
387.40	226.85
387.78	226.82
388.15	226.79
388.53	226.77
388.91	226.73
389.29	226.71
389.66	226.68
390.04	226.67
390.42	226.68
390.79	226.67
391.17	226.66
391.55	226.56
391.92	226.57
392.30	226.56
392.68	226.55
393.05	226.53
393.43	226.57
393.81	226.55
394.18	226.55
394.56	226.55
394.94	226.60
395.31	226.58
395.69	226.66
396.06	226.73
396.44	226.75
396.82	226.77
397.19	226.86
397.57	226.89
397.95	226.97
398.32	226.99
398.70	227.01
399.07	227.11
399.45	227.16
399.82	227.18
400.20	227.24
400.58	227.28
400.95	227.30
401.33	227.37
401.70	227.52
402.08	227.61
402.45	227.73
402.83	227.86
403.20	227.98
403.58	228.02
403.95	228.11
404.33	228.26
404.71	228.38
405.08	228.52
405.46	228.68
405.83	228.81
406.21	228.96
406.58	229.19
406.96	229.32
407.33	229.53
407.70	229.76
408.08	230.02
408.45	230.24
408.83	230.47
409.20	230.66
409.58	230.85
409.95	231.09
410.33	231.34
410.70	231.57
411.08	231.90
411.45	232.22
411.82	232.49
412.20	232.82
412.57	233.26
412.95	233.57
413.32	233.94
413.69	234.37
414.07	234.80
414.44	235.22
414.82	235.71
415.19	236.26
415.56	236.76
415.94	237.31
416.31	237.97
416.68	238.63
417.06	239.37
417.43	240.02
417.81	240.83
418.18	241.61
418.55	242.45
418.93	243.28
419.30	244.17
419.67	245.16
420.04	246.14
420.42	247.15
420.79	248.35
421.16	249.49
421.54	250.64
421.91	251.91
422.28	253.18
422.66	254.52
423.03	255.80
423.40	257.19
423.77	258.62
424.15	260.04
424.52	261.51
424.89	263.13
425.26	264.71
425.64	266.13
426.01	267.72
426.38	269.38
426.75	271.06
427.13	272.81
427.50	274.60
427.87	276.48
428.24	278.33
428.61	280.11
428.99	282.09
429.36	284.24
429.73	286.28
430.10	288.36
430.47	290.42
430.85	292.55
431.22	294.78
431.59	297.19
431.96	299.42
432.33	301.93
432.70	304.30
433.08	307.12
433.45	309.77
433.82	312.42
434.19	315.30
434.56	318.14
434.93	320.80
435.30	323.46
435.68	326.40
436.05	329.22
436.42	332.01
436.79	334.55
437.16	337.26
437.53	340.13
437.90	342.93
438.27	345.71
438.64	348.57
439.01	351.17
439.38	353.38
439.75	355.56
440.13	358.08
440.50	360.44
440.87	362.31
441.24	364.30
441.61	366.44
441.98	367.94
442.35	369.71
442.72	371.58
443.09	373.37
443.46	374.30
443.83	374.93
444.20	375.43
444.57	376.25
444.94	376.49
445.31	376.80
445.68	377.10
446.05	377.15
446.42	376.76
446.79	376.33
447.16	375.86
447.53	375.50
447.90	374.28
448.27	373.08
448.64	371.48
449.01	370.27
449.37	368.25
449.74	366.33
450.11	364.14
450.48	361.65
450.85	359.10
451.22	356.95
451.59	354.91
451.96	352.98
452.33	350.33
452.70	347.97
453.07	345.10
453.43	342.21
453.80	339.42
454.17	336.72
454.54	334.13
454.91	331.42
455.28	328.77
455.65	326.27
456.02	323.85
456.38	321.65
456.75	318.97
457.12	316.73
457.49	314.48
457.86	312.27
458.23	310.41
458.59	308.35
458.96	306.24
459.33	304.34
459.70	302.45
460.07	300.97
460.43	299.23
460.80	297.60
461.17	296.16
461.54	294.66
461.91	293.22
462.27	291.78
462.64	290.51
463.01	289.17
463.38	287.88
463.74	286.50
464.11	285.34
464.48	284.34
464.85	283.29
465.21	282.45
465.58	281.51
465.95	280.41
466.32	279.52
466.68	278.61
467.05	277.71
467.42	276.80
467.78	275.87
468.15	275.01
468.52	274.39
468.88	273.48
469.25	272.72
469.62	272.10
469.98	271.42
470.35	270.80
470.72	270.21
471.08	269.57
471.45	269.03
471.82	268.49
472.18	267.88
472.55	267.41
472.92	266.92
473.28	266.45
473.65	266.03
474.02	265.58
474.38	265.23
474.75	264.92
475.11	264.59
475.48	264.36
475.85	264.14
476.21	263.88
476.58	263.75
476.94	263.57
477.31	263.40
477.67	263.30
478.04	263.18
478.41	263.12
478.77	263.16
479.14	263.11
479.50	263.13
479.87	263.21
480.23	263.26
480.60	263.31
480.96	263.42
481.33	263.57
481.69	263.78
482.06	263.96
482.42	264.15
482.79	264.40
483.15	264.71
483.52	265.06
483.88	265.41
484.25	265.76
484.61	266.22
484.98	266.64
485.34	267.16
485.71	267.76
486.07	268.35
486.44	268.89
486.80	269.57
487.17	270.29
487.53	271.10
487.90	271.94
488.26	272.88
488.62	273.86
488.99	274.86
489.35	275.90
489.72	277.02
490.08	278.19
490.44	279.42
490.81	280.77
491.17	282.11
491.54	283.60
491.90	285.12
492.26	286.76
492.63	288.50
492.99	290.27
493.36	292.16
493.72	294.17
494.08	296.31
494.45	298.55
494.81	300.88
495.17	303.28
495.54	305.87
495.90	308.53
496.26	311.32
496.63	314.26
496.99	317.40
497.35	320.66
497.72	324.12
498.08	327.63
498.44	331.28
498.80	335.24
499.17	339.26
499.53	343.47
499.89	347.83
500.26	352.33
500.62	356.96
500.98	361.98
501.34	367.07
501.71	372.42
502.07	377.87
502.43	383.52
502.79	389.37
503.16	395.46
503.52	401.73
503.88	408.16
504.24	414.82
504.60	421.63
504.97	428.77
505.33	436.08
505.69	443.76
506.05	451.52
506.41	459.42
506.78	467.59
507.14	476.03
507.50	484.78
507.86	493.78
508.22	503.04
508.59	512.21
508.95	521.81
509.31	531.56
509.67	541.63
510.03	551.93
510.39	562.52
510.75	573.38
511.12	584.35
511.48	595.61
511.84	607.04
512.20	618.58
512.56	630.53
512.92	642.76
513.28	655.14
513.64	667.71
514.00	680.40
514.37	693.32
514.73	706.36
515.09	719.42
515.45	732.77
515.81	746.37
516.17	760.43
516.53	774.58
516.89	788.78
517.25	803.03
517.61	817.56
517.97	832.03
518.33	846.47
518.69	861.23
519.05	876.32
519.41	891.53
519.77	907.14
520.13	922.58
520.49	937.91
520.85	953.38
521.21	969.10
521.57	985.38
521.93	1001.20
522.29	1017.69
522.65	1033.94
523.01	1050.27
523.37	1066.30
523.73	1082.46
524.09	1098.64
524.45	1115.18
524.81	1131.99
525.17	1148.78
525.53	1165.85
525.89	1182.73
526.25	1199.66
526.61	1216.13
526.97	1232.97
527.33	1249.49
527.68	1266.21
528.04	1282.86
528.40	1299.49
528.76	1316.60
529.12	1333.29
529.48	1350.27
529.84	1366.30
530.20	1383.03
530.56	1400.09
530.91	1417.65
531.27	1434.52
531.63	1450.98
531.99	1467.59
532.35	1483.51
532.71	1499.57
533.07	1515.81
533.42	1531.76
533.78	1547.87
534.14	1564.22
534.50	1579.54
534.86	1595.52
535.21	1610.77
535.57	1626.81
535.93	1642.36
536.29	1657.25
536.65	1672.38
537.00	1687.20
537.36	1702.65
537.72	1717.24
538.08	1731.66
538.44	1745.46
538.79	1759.37
539.15	1773.29
539.51	1787.02
539.87	1801.45
540.22	1815.07
540.58	1828.91
540.94	1842.36
541.29	1855.29
541.65	1868.09
542.01	1881.43
542.37	1893.64
542.72	1906.11
543.08	1917.88
543.44	1930.46
543.79	1941.79
544.15	1952.77
544.51	1964.51
544.87	1975.45
545.22	1986.36
545.58	1996.69
545.94	2006.63
546.29	2016.49
546.65	2026.24
547.01	2035.54
547.36	2044.41
547.72	2053.05
548.07	2060.95
548.43	2069.11
548.79	2077.28
549.14	2084.73
549.50	2092.21
549.86	2100.09
550.21	2107.45
550.57	2114.70
550.92	2121.29
551.28	2128.38
551.64	2135.50
551.99	2142.03
552.35	2148.29
552.70	2154.33
553.06	2160.34
553.41	2166.62
553.77	2172.76
554.13	2178.87
554.48	2184.99
554.84	2190.10
555.19	2195.49
555.55	2200.56
555.90	2204.99
556.26	2209.67
556.61	2214.52
556.97	2218.56
557.32	2222.64
557.68	2226.84
558.03	2231.05
558.39	2234.66
558.74	2239.15
559.10	2242.89
559.45	2246.30
559.81	2250.66
560.16	2254.42
560.52	2257.71
560.87	2261.15
561.23	2263.62
561.58	2266.58
561.94	2269.20
562.29	2271.77
562.64	2274.29
563.00	2276.88
563.35	2280.44
563.71	2283.80
564.06	2286.81
564.42	2289.77
564.77	2292.26
565.12	2294.48
565.48	2296.31
565.83	2298.27
566.19	2299.62
566.54	2300.64
566.89	2302.02
567.25	2302.44
567.60	2303.96
567.96	2305.53
568.31	2306.42
568.66	2307.61
569.02	2308.06
569.37	2308.28
569.72	2309.07
570.08	2309.09
570.43	2309.08
570.78	2308.41
571.14	2306.66
571.49	2305.38
571.84	2304.99
572.20	2303.70
572.55	2302.60
572.90	2301.05
573.26	2299.44
573.61	2297.62
573.96	2295.87
574.31	2292.71
574.67	2289.55
575.02	2285.77
575.37	2282.34
575.72	2278.33
576.08	2275.03
576.43	2271.71
576.78	2267.80
577.13	2264.63
577.49	2261.56
577.84	2258.03
578.19	2254.30
578.54	2250.72
578.90	2246.34
579.25	2240.87
579.60	2236.07
579.95	2230.96
580.30	2225.80
580.66	2220.65
581.01	2215.78
581.36	2210.69
581.71	2206.45
582.06	2202.04
582.42	2197.44
582.77	2191.99
583.12	2187.38
583.47	2182.52
583.82	2177.40
584.17	2172.21
584.53	2166.61
584.88	2160.73
585.23	2154.93
585.58	2149.37
585.93	2143.86
586.28	2139.17
586.63	2133.95
586.98	2128.74
587.34	2123.95
587.69	2119.10
588.04	2113.84
588.39	2108.09
588.74	2101.67
589.09	2095.42
589.44	2088.63
589.79	2082.62
590.14	2077.06
590.49	2070.43
590.84	2063.87
591.19	2057.78
591.54	2051.36
591.89	2043.92
592.25	2037.25
592.60	2029.93
592.95	2022.19
593.30	2014.68
593.65	2006.92
594.00	1999.86
594.35	1992.56
594.70	1984.43
595.05	1977.16
595.40	1969.70
595.75	1961.99
596.10	1955.43
596.45	1948.65
596.80	1942.36
597.15	1935.57
597.50	1928.24
597.85	1921.75
598.19	1915.16
598.54	1907.97
598.89	1901.15
599.24	1895.35
599.59	1888.51
599.94	1882.28
600.29	1876.03
600.64	1869.38
600.99	1861.94
601.34	1854.91
601.69	1847.82
602.04	1840.84
602.39	1833.38
602.74	1826.64
603.08	1819.87
603.43	1813.35
603.78	1806.00
604.13	1798.67
604.48	1791.49
604.83	1784.73
605.18	1777.77
605.53	1769.66
605.87	1761.64
606.22	1754.37
606.57	1746.23
606.92	1738.88
607.27	1731.56
607.62	1724.61
607.96	1717.32
608.31	1710.60
608.66	1702.91
609.01	1695.32
609.36	1687.83
609.70	1679.86
610.05	1671.58
610.40	1663.80
610.75	1655.37
611.10	1647.66
611.44	1639.45
611.79	1631.34
612.14	1622.61
612.49	1613.37
612.83	1605.04
613.18	1596.94
613.53	1588.89
613.88	1580.38
614.22	1572.14
614.57	1563.70
614.92	1555.55
615.27	1547.93
615.61	1539.60
615.96	1531.75
616.31	1524.22
616.65	1516.89
617.00	1509.24
617.35	1501.70
617.70	1493.42
618.04	1484.94
618.39	1476.75
618.74	1469.02
619.08	1460.72
619.43	1453.13
619.78	1446.22
620.12	1439.01
620.47	1431.53
620.82	1423.23
621.16	1415.85
621.51	1408.19
621.85	1400.44
622.20	1391.93
622.55	1383.61
622.89	1375.83
623.24	1368.21
623.59	1360.73
623.93	1353.11
624.28	1345.91
624.62	1338.42
624.97	1331.21
625.32	1324.42
625.66	1317.41
626.01	1310.15
626.35	1302.66
626.70	1295.01
627.04	1287.25
627.39	1279.44
627.73	1271.89
628.08	1265.01
628.43	1257.66
628.77	1250.38
629.12	1242.78
629.46	1235.61
629.81	1228.17
630.15	1220.93
630.50	1213.45
630.84	1205.34
631.19	1197.45
631.53	1189.96
631.88	1182.34
632.22	1174.76
632.57	1167.49
632.91	1159.86
633.26	1152.49
633.60	1145.18
633.95	1138.00
634.29	1131.01
634.64	1124.36
634.98	1117.10
635.32	1110.01
635.67	1103.49
636.01	1096.82
636.36	1090.11
636.70	1083.58
637.05	1077.02
637.39	1070.61
637.73	1064.14
638.08	1058.27
638.42	1052.31
638.77	1045.86
639.11	1039.25
639.45	1032.89
639.80	1026.17
640.14	1019.85
640.49	1013.36
640.83	1007.02
641.17	1000.80
641.52	994.43
641.86	988.04
642.20	982.18
642.55	975.88
642.89	969.35
643.23	962.83
643.58	957.06
643.92	950.87
644.26	944.83
644.61	938.75
644.95	932.65
645.29	926.06
645.64	919.31
645.98	912.89
646.32	907.06
646.66	901.01
647.01	895.28
647.35	889.55
647.69	883.66
648.04	878.11
648.38	872.32
648.72	866.29
649.06	860.12
649.41	854.26
649.75	848.21
650.09	842.23
650.43	836.43
650.78	830.31
651.12	824.40
651.46	818.64
651.80	812.83
652.14	807.53
652.49	802.05
652.83	796.85
653.17	791.12
653.51	785.37
653.85	779.91
654.20	774.20
654.54	768.23
654.88	762.55
655.22	756.69
655.56	751.06
655.90	745.65
656.25	740.43
656.59	735.01
656.93	729.93
657.27	724.75
657.61	719.33
657.95	714.14
658.29	708.98
658.64	703.79
658.98	698.51
659.32	692.98
659.66	687.76
660.00	682.42
660.34	677.54
660.68	672.65
661.02	667.69
661.36	662.95
661.70	658.40
662.05	653.99
662.39	649.63
662.73	645.14
663.07	640.74
663.41	636.25
663.75	631.75
664.09	627.24
664.43	622.89
664.77	618.76
665.11	614.54
665.45	610.45
665.79	606.28
666.13	602.13
666.47	597.99
666.81	593.82
667.15	589.72
667.49	585.85
667.83	582.00
668.17	578.10
668.51	574.09
668.85	570.06
669.19	566.27
669.53	562.48
669.87	558.57
670.21	554.84
670.55	551.25
670.89	547.87
671.23	544.43
671.57	540.86
671.91	537.30
672.25	533.80
672.58	530.32
672.92	526.96
673.26	523.84
673.60	520.72
673.94	517.72
674.28	514.83
674.62	511.88
674.96	508.85
675.30	505.89
675.64	502.99
675.97	500.28
676.31	497.36
676.65	494.42
676.99	491.69
677.33	488.89
677.67	486.13
678.01	483.08
678.34	480.09
678.68	477.22
679.02	474.40
679.36	471.62
679.70	468.88
680.04	466.14
680.37	463.23
680.71	460.46
681.05	457.79
681.39	455.04
681.73	452.37
682.06	449.83
682.40	447.23
682.74	444.67
683.08	442.09
683.42	439.50
683.75	436.95
684.09	434.46
684.43	432.00
684.77	429.48
685.10	427.15
685.44	424.85
685.78	422.59
686.12	420.35
686.45	418.10
686.79	415.80
687.13	413.57
687.46	411.44
687.80	409.28
688.14	407.06
688.48	405.01
688.81	402.74
689.15	400.57
689.49	398.46
689.82	396.38
690.16	394.31
690.50	392.36
690.83	390.46
691.17	388.48
691.51	386.52
691.84	384.67
692.18	382.74
692.52	380.74
692.85	378.82
693.19	376.97
693.52	375.11
693.86	373.30
694.20	371.52
694.53	369.71
694.87	367.84
695.21	366.11
695.54	364.30
695.88	362.65
696.21	360.95
696.55	359.28
696.88	357.58
697.22	355.94
697.56	354.34
697.89	352.69
698.23	351.05
698.56	349.44
698.90	347.84
699.23	346.18
699.57	344.62
699.90	343.07
700.24	341.52
700.58	340.01
700.91	338.52
701.25	337.14
701.58	335.76
701.92	334.45
702.25	332.99
702.59	331.66
702.92	330.33
703.26	328.99
703.59	327.73
703.93	326.58
704.26	325.34
704.60	324.02
704.93	322.76
705.26	321.57
705.60	320.45
705.93	319.34
706.27	318.36
706.60	317.38
706.94	316.35
707.27	315.22
707.61	314.14
707.94	313.14
708.27	311.99
708.61	310.93
708.94	309.91
709.28	309.00
709.61	308.05
709.94	307.11
710.28	306.14
710.61	305.14
710.95	304.08
711.28	303.16
711.61	302.25
711.95	301.35
712.28	300.35
712.61	299.34
712.95	298.35
713.28	297.44
713.61	296.48
713.95	295.56
714.28	294.76
714.61	293.93
714.95	293.04
715.28	292.22
715.61	291.35
715.95	290.50
716.28	289.64
716.61	288.81
716.95	287.94
717.28	287.17
717.61	286.44
717.94	285.68
718.28	284.87
718.61	284.12
718.94	283.42
719.27	282.79
719.61	282.17
719.94	281.55
720.27	280.84
720.60	280.18
720.94	279.56
721.27	278.92
721.60	278.33
721.93	277.72
722.27	277.16
722.60	276.60
722.93	276.02
723.26	275.48
723.59	274.90
723.93	274.33
724.26	273.80
724.59	273.21
724.92	272.68
725.25	272.20
725.59	271.69
725.92	271.19
726.25	270.66
726.58	270.17
726.91	269.67
727.24	269.22
727.57	268.74
727.91	268.19
728.24	267.75
728.57	267.23
728.90	266.77
729.23	266.27
729.56	265.84
729.89	265.34
730.22	264.84
730.55	264.39
730.89	263.98
731.22	263.51
731.55	263.08
731.88	262.68
732.21	262.23
732.54	261.78
732.87	261.32
733.20	260.92
733.53	260.49
733.86	260.14
734.19	259.71
734.52	259.34
734.85	259.06
735.18	258.65
735.51	258.30
735.84	257.97
736.17	257.64
736.50	257.22
736.83	257.01
737.16	256.68
737.49	256.38
737.82	256.06
738.15	255.75
738.48	255.42
738.81	255.08
739.14	254.78
739.47	254.45
739.80	254.18
740.13	253.87
740.46	253.59
740.79	253.24
741.12	252.93
741.45	252.62
741.78	252.26
742.11	251.97
742.44	251.67
742.77	251.36
743.10	251.03
743.43	250.77
743.75	250.41
744.08	250.24
744.41	249.91
744.74	249.61
745.07	249.33
745.40	249.05
745.73	248.85
746.06	248.59
746.39	248.34
746.71	248.07
747.04	247.84
747.37	247.59
747.70	247.34
748.03	247.11
748.36	246.93
748.68	246.72
749.01	246.51
749.34	246.31
749.67	246.10
750.00	245.87
750.33	245.70
750.65	245.48
750.98	245.14
751.31	244.95
751.64	244.75
751.97	244.60
752.29	244.41
752.62	244.15
752.95	243.93
753.28	243.72
753.60	243.54
753.93	243.34
754.26	243.11
754.59	242.89
754.91	242.69
755.24	242.45
755.57	242.26
755.90	242.04
756.22	241.80
756.55	241.60
756.88	241.45
757.20	241.24
757.53	241.03
757.86	240.86
758.19	240.68
758.51	240.52
758.84	240.29
759.17	240.10
759.49	239.94
759.82	239.83
760.15	239.69
760.47	239.51
760.80	239.33
761.13	239.20
761.45	239.04
761.78	238.88
762.11	238.74
762.43	238.59
762.76	238.44
763.08	238.35
763.41	238.19
763.74	238.04
764.06	237.89
764.39	237.76
764.71	237.64
765.04	237.53
765.37	237.37
765.69	237.26
766.02	237.14
766.34	237.02
766.67	236.84
767.00	236.76
767.32	236.67
767.65	236.63
767.97	236.48
768.30	236.39
768.62	236.29
768.95	236.15
769.27	236.01
769.60	235.91
769.92	235.76
770.25	235.64
770.57	235.52
770.90	235.42
771.22	235.32
771.55	235.25
771.87	235.13
772.20	235.05
772.52	235.02
772.85	235.04
773.17	234.96
773.50	234.88
773.82	234.76
774.15	234.65
774.47	234.49
774.80	234.43
775.12	234.34
775.45	234.25
775.77	234.22
776.09	234.16
776.42	234.10
776.74	234.11
777.07	234.07
777.39	233.98
777.72	233.92
778.04	233.88
778.36	233.77
778.69	233.75
779.01	233.70
779.33	233.54
779.66	233.38
779.98	233.31
780.31	233.24
780.63	233.20
780.95	233.16
781.28	233.08
781.60	233.03
781.92	232.98
782.25	232.94
782.57	232.84
782.89	232.78
783.22	232.71
783.54	232.60
783.86	232.55
784.19	232.48
784.51	232.44
784.83	232.34
785.16	232.32
785.48	232.23
785.80	232.16
786.12	232.14
786.45	232.07
786.77	232.03
787.09	232.00
787.42	231.94
787.74	231.88
788.06	231.87
788.38	231.78
788.71	231.73
789.03	231.68
789.35	231.65
789.67	231.62
789.99	231.58
790.32	231.53
790.64	231.48
790.96	231.52
791.28	231.45
791.61	231.39
791.93	231.31
792.25	231.30
792.57	231.33
792.89	231.26
793.21	231.21
793.54	231.16
793.86	231.08
794.18	231.04
794.50	230.97
794.82	230.90
795.14	230.89
795.47	230.87
795.79	230.82
796.11	230.79
796.43	230.72
796.75	230.70
797.07	230.67
797.39	230.64
797.71	230.53
798.04	230.49
798.36	230.47
798.68	230.44
799.00	230.38
799.32	230.29
799.64	230.26
799.96	230.22
800.28	230.20
800.60	230.17
800.92	230.13
801.24	230.10
801.56	230.05
801.89	229.99
802.21	229.94
802.53	229.89
802.85	229.89
803.17	229.91
803.49	229.86
803.81	229.81
804.13	229.78
804.45	229.74
804.77	229.73
805.09	229.67
805.41	229.69
805.73	229.63
806.05	229.60
806.37	229.58
806.69	229.55
807.01	229.49
807.33	229.46
807.65	229.40
807.97	229.41
808.28	229.39
808.60	229.38
808.92	229.35
809.24	229.39
809.56	229.33
809.88	229.28
810.20	229.25
810.52	229.26
810.84	229.23
811.16	229.21
811.48	229.20
811.80	229.24
812.12	229.18
812.43	229.20
812.75	229.20
813.07	229.17
813.39	229.13
813.71	229.12
814.03	229.09
814.35	229.11
814.67	229.10
814.98	229.08
815.30	229.07
815.62	229.04
815.94	228.97
816.26	229.01
816.58	228.98
816.89	229.00
817.21	228.95
817.53	228.96
817.85	228.95
818.17	228.92
818.48	228.89
818.80	228.90
819.12	228.87
819.44	228.82
819.76	228.83
820.07	228.86
820.39	228.88
820.71	228.89
821.03	228.87
821.34	228.84
821.66	228.87
821.98	228.90
822.30	228.88
822.61	228.90
822.93	228.81
823.25	228.84
823.57	228.76
823.88	228.78
824.20	228.74
824.52	228.72
824.83	228.70
825.15	228.67
825.47	228.66
825.79	228.67
826.10	228.69
826.42	228.68
826.74	228.69
827.05	228.66
827.37	228.64
827.69	228.62
828.00	228.61
828.32	228.56
828.64	228.50
828.95	228.53
829.27	228.49
829.58	228.48
829.90	228.45
830.22	228.49
830.53	228.45
830.85	228.44
831.17	228.44
831.48	228.43
831.80	228.42
832.11	228.38
832.43	228.34
832.75	228.32
833.06	228.34
833.38	228.26
833.69	228.28
834.01	228.26
834.32	228.25
834.64	228.21
834.96	228.23
835.27	228.24
835.59	228.21
835.90	228.22
836.22	228.19
836.53	228.18
836.85	228.16
837.16	228.26
837.48	228.22
837.79	228.22
838.11	228.21
838.42	228.21
838.74	228.22
839.05	228.20
839.37	228.16
839.68	228.05
840.00	228.05
840.31	228.04
840.63	228.01
840.94	227.97
841.26	227.95
841.57	227.95
841.88	227.93
842.20	227.90
842.51	227.86
842.83	227.84
843.14	227.88
843.46	227.85
843.77	227.75
844.08	227.73
844.40	227.68
844.71	227.67
845.03	227.63
845.34	227.64
845.65	227.60
845.97	227.62
846.28	227.64
846.60	227.64
846.91	227.61
847.22	227.61
847.54	227.62
847.85	227.62
848.16	227.58
848.48	227.55
848.79	227.60
849.10	227.60
849.42	227.63
849.73	227.55
850.04	227.52
850.36	227.49
850.67	227.53
850.98	227.55
851.30	227.56
851.61	227.56
851.92	227.53
852.23	227.61
852.55	227.59
852.86	227.61
853.17	227.59
853.49	227.62
853.80	227.65
854.11	227.67
854.42	227.71
854.74	227.72
855.05	227.73
855.36	227.65
855.67	227.66
855.99	227.66
856.30	227.77
856.61	227.77
856.92	227.80
857.23	227.80
857.55	227.83
857.86	227.80
858.17	227.79
858.48	227.77
858.79	227.71
859.11	227.72
859.42	227.69
859.73	227.71
860.04	227.70
860.35	227.66
860.66	227.62
860.98	227.61
861.29	227.62
861.60	227.65
861.91	227.66
862.22	227.65
862.53	227.61
862.84	227.54
863.16	227.57
863.47	227.55
863.78	227.56
864.09	227.51
864.40	227.54
864.71	227.54
865.02	227.53
865.33	227.55
865.64	227.51
865.95	227.50
866.27	227.52
866.58	227.50
866.89	227.52
867.20	227.54
867.51	227.51
867.82	227.52
868.13	227.53
868.44	227.54
868.75	227.55
869.06	227.58
869.37	227.56
869.68	227.52
869.99	227.55
870.30	227.55
870.61	227.53
870.92	227.49
871.23	227.49
871.54	227.51
871.85	227.52
872.16	227.53
872.47	227.53
872.78	227.51
873.09	227.48
873.40	227.48
873.71	227.47
874.02	227.48
874.33	227.44
874.64	227.42
874.95	227.44
875.26	227.42
875.56	227.38
875.87	227.40
876.18	227.42
876.49	227.50
876.80	227.45
877.11	227.47
877.42	227.49
877.73	227.51
878.04	227.50
878.35	227.49
878.66	227.52
878.96	227.53
879.27	227.49
879.58	227.53
879.89	227.52
880.20	227.55
880.51	227.55
880.82	227.50
881.12	227.48
881.43	227.42
881.74	227.39
882.05	227.39
882.36	227.36
882.67	227.35
882.97	227.25
883.28	227.26
883.59	227.23
883.90	227.24
884.21	227.24
884.51	227.23
884.82	227.23
885.13	227.20
885.44	227.21
885.74	227.20
886.05	227.16
886.36	227.14
886.67	227.10
886.98	227.11
887.28	227.16
887.59	227.18
887.90	227.18
888.20	227.19
888.51	227.20
888.82	227.22
889.13	227.24
889.43	227.31
889.74	227.32
890.05	227.33
890.35	227.31
890.66	227.29
890.97	227.27
891.28	227.24
891.58	227.24
891.89	227.24
892.20	227.23
892.50	227.27
892.81	227.27
893.12	227.30
893.42	227.26
893.73	227.26
894.04	227.26
894.34	227.25
894.65	227.26
894.95	227.25
895.26	227.23
895.57	227.29
895.87	227.19
896.18	227.15
896.48	227.13
896.79	227.15
897.10	227.15
897.40	227.18
897.71	227.20
898.01	227.18
898.32	227.19
898.63	227.20
898.93	227.18
899.24	227.19
899.54	227.19
899.85	227.19
900.15	227.18
900.46	227.15
900.76	227.19
901.07	227.16
901.38	227.15
901.68	227.19
901.99	227.11
902.29	227.12
902.60	227.13
902.90	227.17
903.21	227.17
903.51	227.18
903.82	227.20
904.12	227.14
904.43	227.16
904.73	227.15
905.03	227.15
905.34	227.25
905.64	227.24
905.95	227.19
906.25	227.18
906.56	227.16
906.86	227.17
907.17	227.17
907.47	227.17
907.77	227.18
908.08	227.13
908.38	227.13
908.69	227.16
908.99	227.20
909.30	227.18
909.60	227.19
909.90	227.19
910.21	227.13
910.51	227.20
910.81	227.16
911.12	227.15
911.42	227.17
911.73	227.10
912.03	227.10
912.33	227.14
912.64	227.15
912.94	227.18
913.24	227.18
913.55	227.17
913.85	227.19
914.15	227.22
914.46	227.23
914.76	227.22
915.06	227.19
915.37	227.11
915.67	227.10
915.97	227.06
916.27	227.04
916.58	227.07
916.88	227.05
917.18	227.09
917.49	227.13
917.79	227.09
918.09	227.07
918.39	227.07
918.70	227.05
919.00	227.03
919.30	227.03
919.60	227.02
919.91	227.00
920.21	226.96
920.51	226.96
920.81	226.94
921.12	226.95
921.42	226.96
921.72	227.02
922.02	227.05
922.32	227.07
922.63	227.07
922.93	227.12
923.23	227.13
923.53	227.08
923.83	227.04
924.13	227.08
924.44	227.11
924.74	227.14
925.04	227.19
925.34	227.19
925.64	227.18
925.94	227.21
926.24	227.28
926.55	227.32
926.85	227.33
927.15	227.35
927.45	227.37
927.75	227.37
928.05	227.36
928.35	227.36
928.65	227.40
928.95	227.40
929.26	227.36
929.56	227.40
929.86	227.45
930.16	227.45
930.46	227.43
930.76	227.40
931.06	227.35
931.36	227.30
931.66	227.33
931.96	227.33
932.26	227.31
932.56	227.27
932.86	227.26
933.16	227.27
933.46	227.23
933.76	227.19
934.06	227.19
934.36	227.20
934.66	227.19
934.96	227.18
935.26	227.19
935.56	227.21
935.86	227.17
936.16	227.14
936.46	227.11
936.76	227.11
937.06	227.09
937.36	227.11
937.66	227.11
937.96	227.10
938.26	227.09
938.56	227.05
938.86	227.05
939.16	227.04
939.46	227.03
939.76	227.04
940.06	227.03
940.35	226.99
940.65	226.94
940.95	226.94
941.25	226.87
941.55	226.87
941.85	226.83
942.15	226.83
942.45	226.87
942.75	226.90
943.04	226.88
943.34	226.91
943.64	226.88
943.94	226.84
944.24	226.82
944.54	226.80
944.84	226.83
945.13	226.82
945.43	226.78
945.73	226.76
946.03	226.75
946.33	226.76
946.62	226.77
946.92	226.77
947.22	226.77
947.52	226.77
947.82	226.76
948.11	226.75
948.41	226.71
948.71	226.71
949.01	226.73
949.31	226.72
949.60	226.70
949.90	226.70
950.20	226.72
950.50	226.69
950.79	226.71
951.09	226.70
951.39	226.72
951.69	226.71
951.98	226.75
952.28	226.78
952.58	226.76
952.87	226.77
953.17	226.78
953.47	226.78
953.76	226.77
954.06	226.78
954.36	226.76
954.66	226.78
954.95	226.78
955.25	226.76
955.55	226.80
955.84	226.76
956.14	226.80
956.44	226.80
956.73	226.84
957.03	226.84
957.32	226.85
957.62	226.84
957.92	226.89
958.21	226.87
958.51	226.95
958.81	226.96
959.10	226.96
959.40	226.98
959.69	226.98
959.99	227.01
960.29	226.98
960.58	227.02
960.88	227.06
961.17	227.06
961.47	227.07
961.76	227.06
962.06	227.10
962.36	227.09
962.65	227.11
962.95	227.10
963.24	227.08
963.54	227.07
963.83	227.08
964.13	227.04
964.42	227.03
964.72	227.01
965.01	227.02
965.31	227.05
965.60	227.04
965.90	227.11
966.19	227.09
966.49	227.11
966.78	227.10
967.08	227.09
967.37	227.09
967.67	227.08
967.96	227.10
968.26	227.14
968.55	227.15
968.85	227.14
969.14	227.15
969.43	227.19
969.73	227.20
970.02	227.20
970.32	227.22
970.61	227.22
970.91	227.15
971.20	227.16
971.49	227.13
971.79	227.16
972.08	227.08
972.38	227.09
972.67	227.10
972.96	227.10
973.26	227.10
973.55	227.11
973.85	227.11
974.14	227.10
974.43	227.08
974.73	227.06
975.02	227.07
975.31	227.04
975.61	227.04
975.90	227.05
976.19	227.04
976.49	227.03
976.78	227.03
977.07	227.04
977.37	227.04
977.66	227.03
977.95	227.03
978.24	227.04
978.54	227.07
978.83	227.07
979.12	227.05
979.42	227.03
979.71	227.03
980.00	227.03
980.29	227.04
980.59	227.01
980.88	227.01
981.17	226.99
981.46	227.00
981.76	226.99
982.05	226.99
982.34	227.02
982.63	227.04
982.93	227.04
983.22	227.09
983.51	227.06
983.80	227.07
984.09	227.03
984.39	227.04
984.68	227.00
984.97	226.99
985.26	226.97
985.55	226.97
985.85	226.91
986.14	226.91
986.43	226.92
986.72	226.90
987.01	226.89
987.30	226.89
987.59	226.89
987.89	226.88
988.18	226.85
988.47	226.82
988.76	226.79
989.05	226.76
989.34	226.71
989.63	226.71
989.92	226.73
990.22	226.71
990.51	226.67
990.80	226.69
991.09	226.70
991.38	226.71
991.67	226.72
991.96	226.72
992.25	226.73
992.54	226.70
992.83	226.71
993.12	226.71
993.41	226.71
993.70	226.74
993.99	226.76
994.28	226.78
994.58	226.80
994.87	226.81
995.16	226.80
995.45	226.80
995.74	226.79
996.03	226.78
996.32	226.83
996.61	226.86
996.90	226.83
997.19	226.85
997.48	226.84
997.77	226.82
998.06	226.88
998.34	226.86
998.63	226.87
998.92	226.91
999.21	226.95
999.50	226.95
999.79	226.95
1000.08	226.94
1000.37	226.92
1000.66	226.90
1000.95	226.91
1001.24	226.93
1001.53	226.95
1001.82	226.98
1002.11	226.97
1002.40	226.98
1002.68	227.00
1002.97	227.10
1003.26	227.10
1003.55	227.10
1003.84	227.12
1004.13	227.12
1004.42	227.11
1004.71	227.09
1004.99	227.05
1005.28	227.06
1005.57	227.04
1005.86	227.04
1006.15	227.02
1006.44	227.03
1006.72	227.03
1007.01	227.03
1007.30	227.02
1007.59	227.00
1007.88	226.98
1008.17	226.99
1008.45	226.99
1008.74	226.94
1009.03	226.87
1009.32	226.84
1009.60	226.85
1009.89	226.82
1010.18	226.76
1010.47	226.78
1010.76	226.80
1011.04	226.79
1011.33	226.81
1011.62	226.85
1011.91	226.84
1012.19	226.85
1012.48	226.88
1012.77	226.90
1013.05	226.90
1013.34	226.91
1013.63	226.93
1013.92	226.94
1014.20	226.92
1014.49	226.90
1014.78	226.91
1015.06	226.88
1015.35	226.89
1015.64	226.91
1015.92	226.94
1016.21	226.97
1016.50	226.94
1016.78	226.96
1017.07	226.97
1017.36	226.92
1017.64	226.89
1017.93	226.90
1018.22	226.90
1018.50	226.86
1018.79	226.85
1019.08	226.84
1019.36	226.83
1019.65	226.80
1019.93	226.82
1020.22	226.81
1020.51	226.86
1020.79	226.85
1021.08	226.98
1021.36	226.47
1021.65	227.02
1021.94	226.73
1022.22	226.59
1022.51	226.79
1022.79	227.18
1023.08	226.62
1023.36	227.80
1023.65	226.53
>>>>>End Processed Spectral Data<<<<<
