SpectraSuite Data File
++++++++++++++++++++++++++++++++++++
Date: Fri Feb 01 17:34:32 EST 2013
User: group
Dark Spectrum Present: No
Reference Spectrum Present: No
Number of Sampled Component Spectra: 1
Spectrometers: USB2E7196
Integration Time (usec): 35000 (USB2E7196)
Spectra Averaged: 100 (USB2E7196)
Boxcar Smoothing: 10 (USB2E7196)
Correct for Electrical Dark: No (USB2E7196)
Strobe/Lamp Enabled: No (USB2E7196)
Correct for Detector Non-linearity: No (USB2E7196)
Correct for Stray Light: No (USB2E7196)
Number of Pixels in Processed Spectrum: 2048
>>>>>Begin Processed Spectral Data<<<<<
339.09	0.00
339.48	212.56
339.86	214.19
340.24	215.72
340.63	216.94
341.01	219.53
341.39	219.85
341.78	221.12
342.16	222.09
342.54	223.27
342.93	211.19
343.31	221.87
343.69	222.39
344.07	222.83
344.46	223.24
344.84	223.65
345.22	223.90
345.60	224.12
345.99	224.30
346.37	224.45
346.75	224.54
347.13	224.60
347.52	224.66
347.90	224.73
348.28	224.75
348.66	224.78
349.05	224.75
349.43	224.78
349.81	224.81
350.19	224.88
350.57	224.93
350.96	225.01
351.34	225.10
351.72	225.23
352.10	225.36
352.48	225.44
352.87	225.46
353.25	225.51
353.63	225.60
354.01	225.65
354.39	225.72
354.77	225.80
355.15	225.90
355.54	225.98
355.92	226.05
356.30	226.14
356.68	226.28
357.06	226.36
357.44	226.45
357.82	226.50
358.20	226.56
358.58	226.63
358.97	226.69
359.35	226.75
359.73	226.82
360.11	226.88
360.49	226.92
360.87	227.01
361.25	227.11
361.63	227.17
362.01	227.25
362.39	227.29
362.77	227.32
363.15	227.37
363.53	227.42
363.91	227.45
364.29	227.48
364.67	227.45
365.05	227.48
365.43	227.50
365.81	227.54
366.19	227.60
366.57	227.64
366.95	227.66
367.33	227.66
367.71	227.62
368.09	227.63
368.47	227.65
368.85	227.61
369.23	227.60
369.61	227.58
369.99	227.61
370.37	227.57
370.75	227.57
371.13	227.51
371.51	227.50
371.89	227.44
372.27	227.40
372.65	227.35
373.03	227.33
373.41	227.28
373.78	227.26
374.16	227.15
374.54	227.13
374.92	227.06
375.30	226.99
375.68	226.97
376.06	226.91
376.44	226.84
376.82	226.76
377.19	226.70
377.57	226.61
377.95	226.50
378.33	226.46
378.71	226.35
379.09	226.31
379.47	226.23
379.84	226.18
380.22	226.14
380.60	226.07
380.98	226.00
381.36	225.91
381.73	225.83
382.11	225.81
382.49	225.72
382.87	225.64
383.25	225.59
383.62	225.65
384.00	225.54
384.38	225.51
384.76	225.50
385.13	225.47
385.51	225.45
385.89	225.38
386.27	225.38
386.64	225.33
387.02	225.26
387.40	225.21
387.78	225.15
388.15	225.09
388.53	225.05
388.91	225.01
389.29	224.99
389.66	224.95
390.04	224.93
390.42	224.91
390.79	224.89
391.17	224.89
391.55	224.74
391.92	224.76
392.30	224.73
392.68	224.69
393.05	224.67
393.43	224.67
393.81	224.69
394.18	224.63
394.56	224.66
394.94	224.70
395.31	224.68
395.69	224.74
396.06	224.76
396.44	224.79
396.82	224.82
397.19	224.89
397.57	224.93
397.95	224.95
398.32	224.96
398.70	225.02
399.07	225.07
399.45	225.14
399.82	225.16
400.20	225.24
400.58	225.32
400.95	225.37
401.33	225.49
401.70	225.63
402.08	225.73
402.45	225.80
402.83	225.92
403.20	226.05
403.58	226.11
403.95	226.23
404.33	226.33
404.71	226.46
405.08	226.63
405.46	226.75
405.83	226.89
406.21	227.05
406.58	227.21
406.96	227.37
407.33	227.55
407.70	227.76
408.08	228.02
408.45	228.27
408.83	228.49
409.20	228.64
409.58	228.80
409.95	229.05
410.33	229.33
410.70	229.55
411.08	229.84
411.45	230.16
411.82	230.50
412.20	230.91
412.57	231.31
412.95	231.63
413.32	232.07
413.69	232.50
414.07	232.92
414.44	233.40
414.82	233.88
415.19	234.44
415.56	235.02
415.94	235.56
416.31	236.19
416.68	236.85
417.06	237.63
417.43	238.38
417.81	239.18
418.18	239.99
418.55	240.87
418.93	241.79
419.30	242.74
419.67	243.71
420.04	244.67
420.42	245.74
420.79	246.96
421.16	248.14
421.54	249.39
421.91	250.73
422.28	252.00
422.66	253.41
423.03	254.79
423.40	256.19
423.77	257.69
424.15	259.19
424.52	260.72
424.89	262.39
425.26	264.01
425.64	265.55
426.01	267.23
426.38	268.96
426.75	270.72
427.13	272.54
427.50	274.41
427.87	276.37
428.24	278.29
428.61	280.12
428.99	282.19
429.36	284.39
429.73	286.51
430.10	288.68
430.47	290.77
430.85	292.98
431.22	295.30
431.59	297.77
431.96	300.09
432.33	302.68
432.70	305.12
433.08	308.04
433.45	310.77
433.82	313.46
434.19	316.47
434.56	319.38
434.93	322.12
435.30	324.82
435.68	327.80
436.05	330.78
436.42	333.68
436.79	336.27
437.16	339.09
437.53	342.03
437.90	344.98
438.27	347.87
438.64	350.81
439.01	353.47
439.38	355.74
439.75	357.98
440.13	360.55
440.50	363.00
440.87	364.94
441.24	366.99
441.61	369.23
441.98	370.80
442.35	372.68
442.72	374.62
443.09	376.55
443.46	377.59
443.83	378.17
444.20	378.76
444.57	379.66
444.94	379.97
445.31	380.33
445.68	380.68
446.05	380.73
446.42	380.34
446.79	379.97
447.16	379.54
447.53	379.25
447.90	378.09
448.27	376.90
448.64	375.25
449.01	374.08
449.37	372.06
449.74	370.10
450.11	367.75
450.48	365.21
450.85	362.59
451.22	360.42
451.59	358.32
451.96	356.27
452.33	353.52
452.70	351.02
453.07	348.10
453.43	345.04
453.80	342.22
454.17	339.46
454.54	336.82
454.91	334.04
455.28	331.29
455.65	328.68
456.02	326.11
456.38	323.89
456.75	321.15
457.12	318.79
457.49	316.45
457.86	314.18
458.23	312.23
458.59	310.13
458.96	307.92
459.33	306.00
459.70	304.07
460.07	302.53
460.43	300.79
460.80	299.10
461.17	297.62
461.54	296.05
461.91	294.54
462.27	293.01
462.64	291.68
463.01	290.24
463.38	288.92
463.74	287.53
464.11	286.29
464.48	285.16
464.85	284.03
465.21	283.15
465.58	282.24
465.95	281.07
466.32	280.09
466.68	279.15
467.05	278.22
467.42	277.27
467.78	276.27
468.15	275.33
468.52	274.65
468.88	273.74
469.25	272.93
469.62	272.27
469.98	271.54
470.35	270.90
470.72	270.27
471.08	269.56
471.45	268.98
471.82	268.42
472.18	267.78
472.55	267.27
472.92	266.75
473.28	266.24
473.65	265.82
474.02	265.40
474.38	265.02
474.75	264.66
475.11	264.29
475.48	264.06
475.85	263.79
476.21	263.51
476.58	263.36
476.94	263.21
477.31	263.06
477.67	262.92
478.04	262.79
478.41	262.73
478.77	262.79
479.14	262.73
479.50	262.74
479.87	262.82
480.23	262.91
480.60	262.93
480.96	263.03
481.33	263.21
481.69	263.39
482.06	263.58
482.42	263.80
482.79	264.08
483.15	264.41
483.52	264.81
483.88	265.16
484.25	265.54
484.61	265.95
484.98	266.39
485.34	266.95
485.71	267.49
486.07	268.07
486.44	268.59
486.80	269.30
487.17	270.01
487.53	270.83
487.90	271.65
488.26	272.60
488.62	273.57
488.99	274.53
489.35	275.56
489.72	276.69
490.08	277.86
490.44	279.11
490.81	280.40
491.17	281.72
491.54	283.20
491.90	284.73
492.26	286.32
492.63	288.07
492.99	289.85
493.36	291.74
493.72	293.77
494.08	295.88
494.45	298.10
494.81	300.46
495.17	302.86
495.54	305.44
495.90	308.09
496.26	310.88
496.63	313.82
496.99	316.85
497.35	320.06
497.72	323.46
498.08	326.91
498.44	330.55
498.80	334.45
499.17	338.48
499.53	342.54
499.89	346.93
500.26	351.36
500.62	355.93
500.98	360.90
501.34	365.91
501.71	371.14
502.07	376.51
502.43	382.04
502.79	387.75
503.16	393.70
503.52	399.82
503.88	406.08
504.24	412.62
504.60	419.42
504.97	426.44
505.33	433.60
505.69	441.16
506.05	448.82
506.41	456.51
506.78	464.52
507.14	472.81
507.50	481.31
507.86	490.15
508.22	499.12
508.59	508.09
508.95	517.48
509.31	527.12
509.67	537.06
510.03	547.12
510.39	557.52
510.75	568.04
511.12	578.73
511.48	589.77
511.84	600.89
512.20	612.15
512.56	623.76
512.92	635.62
513.28	647.70
513.64	659.79
514.00	672.18
514.37	684.75
514.73	697.50
515.09	710.14
515.45	723.02
515.81	736.31
516.17	749.90
516.53	763.62
516.89	777.42
517.25	791.18
517.61	805.17
517.97	819.17
518.33	833.23
518.69	847.56
519.05	862.07
519.41	876.86
519.77	891.84
520.13	906.81
520.49	921.75
520.85	936.63
521.21	951.86
521.57	967.55
521.93	982.74
522.29	998.56
522.65	1014.38
523.01	1030.08
523.37	1045.57
523.73	1061.18
524.09	1076.82
524.45	1092.53
524.81	1108.53
525.17	1124.75
525.53	1140.99
525.89	1157.24
526.25	1173.65
526.61	1189.49
526.97	1205.70
527.33	1221.74
527.68	1237.74
528.04	1253.72
528.40	1269.69
528.76	1286.22
529.12	1302.30
529.48	1318.79
529.84	1334.33
530.20	1350.44
530.56	1366.78
530.91	1383.66
531.27	1399.95
531.63	1415.93
531.99	1432.08
532.35	1447.70
532.71	1463.21
533.07	1479.24
533.42	1494.90
533.78	1510.52
534.14	1526.50
534.50	1541.49
534.86	1556.83
535.21	1571.70
535.57	1587.20
535.93	1602.45
536.29	1616.93
536.65	1631.59
537.00	1645.89
537.36	1660.98
537.72	1675.12
538.08	1689.40
538.44	1702.85
538.79	1716.46
539.15	1729.62
539.51	1743.04
539.87	1757.11
540.22	1770.43
540.58	1783.80
540.94	1796.70
541.29	1809.22
541.65	1821.63
542.01	1834.53
542.37	1846.85
542.72	1859.21
543.08	1871.00
543.44	1883.23
543.79	1894.38
544.15	1905.38
544.51	1917.00
544.87	1927.79
545.22	1938.74
545.58	1949.11
545.94	1958.98
546.29	1968.92
546.65	1979.05
547.01	1988.42
547.36	1997.28
547.72	2006.13
548.07	2014.34
548.43	2022.65
548.79	2030.75
549.14	2038.56
549.50	2046.02
549.86	2053.72
550.21	2061.11
550.57	2068.41
550.92	2075.31
551.28	2082.66
551.64	2089.96
551.99	2096.67
552.35	2103.19
552.70	2109.44
553.06	2115.64
553.41	2122.24
553.77	2128.52
554.13	2134.83
554.48	2141.26
554.84	2147.06
555.19	2152.42
555.55	2157.84
555.90	2162.67
556.26	2168.00
556.61	2172.96
556.97	2177.80
557.32	2182.31
557.68	2186.90
558.03	2191.43
558.39	2195.37
558.74	2200.22
559.10	2204.55
559.45	2208.55
559.81	2213.00
560.16	2217.23
560.52	2220.86
560.87	2224.67
561.23	2227.64
561.58	2230.78
561.94	2233.70
562.29	2236.28
562.64	2239.63
563.00	2242.44
563.35	2246.39
563.71	2250.05
564.06	2253.63
564.42	2256.81
564.77	2259.99
565.12	2262.79
565.48	2265.27
565.83	2267.65
566.19	2269.63
566.54	2270.79
566.89	2272.49
567.25	2273.68
567.60	2275.28
567.96	2277.44
568.31	2278.66
568.66	2280.28
569.02	2281.47
569.37	2282.25
569.72	2283.76
570.08	2284.16
570.43	2284.57
570.78	2284.42
571.14	2283.17
571.49	2282.08
571.84	2282.07
572.20	2281.34
572.55	2280.69
572.90	2279.40
573.26	2278.50
573.61	2277.06
573.96	2275.97
574.31	2273.34
574.67	2270.79
575.02	2267.65
575.37	2264.54
575.72	2261.36
576.08	2258.30
576.43	2255.18
576.78	2252.05
577.13	2249.05
577.49	2246.20
577.84	2243.36
578.19	2240.02
578.54	2237.02
578.90	2233.58
579.25	2228.46
579.60	2223.98
579.95	2219.38
580.30	2214.71
580.66	2209.78
581.01	2205.09
581.36	2200.35
581.71	2196.68
582.06	2192.59
582.42	2188.67
582.77	2183.81
583.12	2179.49
583.47	2175.33
583.82	2170.93
584.17	2166.01
584.53	2160.80
584.88	2155.71
585.23	2150.18
585.58	2144.91
585.93	2139.64
586.28	2134.87
586.63	2130.15
586.98	2125.17
587.34	2120.56
587.69	2115.87
588.04	2111.06
588.39	2105.66
588.74	2099.42
589.09	2093.51
589.44	2087.06
589.79	2081.06
590.14	2075.65
590.49	2069.26
590.84	2062.98
591.19	2057.08
591.54	2050.68
591.89	2043.83
592.25	2037.28
592.60	2030.33
592.95	2023.18
593.30	2015.97
593.65	2008.58
594.00	2001.66
594.35	1994.52
594.70	1986.63
595.05	1980.01
595.40	1972.84
595.75	1965.56
596.10	1959.61
596.45	1952.96
596.80	1946.94
597.15	1940.64
597.50	1933.96
597.85	1927.68
598.19	1921.30
598.54	1914.55
598.89	1908.19
599.24	1902.41
599.59	1896.01
599.94	1889.89
600.29	1883.58
600.64	1877.04
600.99	1869.96
601.34	1863.45
601.69	1856.61
602.04	1849.99
602.39	1842.59
602.74	1835.95
603.08	1829.52
603.43	1822.92
603.78	1815.84
604.13	1808.67
604.48	1801.49
604.83	1794.57
605.18	1787.82
605.53	1779.99
605.87	1771.97
606.22	1764.72
606.57	1756.63
606.92	1749.11
607.27	1742.06
607.62	1735.28
607.96	1728.22
608.31	1721.79
608.66	1714.12
609.01	1706.64
609.36	1699.21
609.70	1691.16
610.05	1683.12
610.40	1675.42
610.75	1666.94
611.10	1659.20
611.44	1650.71
611.79	1642.66
612.14	1633.91
612.49	1624.60
612.83	1615.96
613.18	1607.73
613.53	1599.52
613.88	1591.03
614.22	1582.66
614.57	1573.76
614.92	1565.65
615.27	1558.14
615.61	1549.60
615.96	1541.51
616.31	1533.75
616.65	1526.28
617.00	1518.62
617.35	1510.72
617.70	1502.27
618.04	1493.79
618.39	1485.29
618.74	1477.78
619.08	1469.32
619.43	1461.77
619.78	1454.66
620.12	1447.54
620.47	1440.00
620.82	1431.72
621.16	1424.02
621.51	1416.42
621.85	1408.79
622.20	1400.17
622.55	1391.60
622.89	1383.65
623.24	1375.90
623.59	1368.41
623.93	1360.78
624.28	1353.53
624.62	1346.00
624.97	1338.71
625.32	1331.81
625.66	1324.82
626.01	1317.51
626.35	1310.13
626.70	1302.16
627.04	1294.56
627.39	1286.67
627.73	1279.09
628.08	1272.12
628.43	1264.98
628.77	1257.62
629.12	1250.05
629.46	1242.72
629.81	1235.08
630.15	1227.69
630.50	1220.23
630.84	1212.11
631.19	1203.96
631.53	1196.26
631.88	1188.61
632.22	1180.92
632.57	1173.52
632.91	1165.92
633.26	1158.41
633.60	1150.87
633.95	1143.67
634.29	1136.46
634.64	1129.61
634.98	1122.24
635.32	1115.07
635.67	1108.27
636.01	1101.46
636.36	1094.67
636.70	1088.10
637.05	1081.53
637.39	1075.02
637.73	1068.47
638.08	1062.43
638.42	1056.49
638.77	1050.10
639.11	1043.56
639.45	1037.09
639.80	1030.43
640.14	1023.94
640.49	1017.41
640.83	1011.12
641.17	1004.87
641.52	998.59
641.86	992.03
642.20	986.15
642.55	979.70
642.89	973.25
643.23	966.61
643.58	960.78
643.92	954.67
644.26	948.79
644.61	942.70
644.95	936.71
645.29	930.20
645.64	923.39
645.98	917.02
646.32	910.97
646.66	904.89
647.01	899.14
647.35	893.43
647.69	887.50
648.04	881.85
648.38	876.06
648.72	870.11
649.06	864.20
649.41	858.21
649.75	852.34
650.09	846.40
650.43	840.66
650.78	834.51
651.12	828.52
651.46	822.67
651.80	817.13
652.14	811.61
652.49	806.19
652.83	801.02
653.17	795.40
653.51	789.77
653.85	784.31
654.20	778.64
654.54	772.68
654.88	766.87
655.22	760.98
655.56	755.23
655.90	749.66
656.25	744.36
656.59	739.02
656.93	733.89
657.27	728.79
657.61	723.34
657.95	718.20
658.29	713.02
658.64	707.66
658.98	702.17
659.32	696.75
659.66	691.46
660.00	686.18
660.34	681.13
660.68	676.10
661.02	671.10
661.36	666.38
661.70	661.80
662.05	657.48
662.39	653.14
662.73	648.65
663.07	644.27
663.41	639.78
663.75	635.29
664.09	630.66
664.43	626.20
664.77	622.13
665.11	617.87
665.45	613.73
665.79	609.69
666.13	605.60
666.47	601.46
666.81	597.28
667.15	593.00
667.49	589.01
667.83	585.19
668.17	581.23
668.51	577.16
668.85	573.15
669.19	569.25
669.53	565.42
669.87	561.59
670.21	557.79
670.55	554.13
670.89	550.66
671.23	547.23
671.57	543.63
671.91	540.06
672.25	536.49
672.58	533.00
672.92	529.53
673.26	526.22
673.60	523.05
673.94	519.98
674.28	517.08
674.62	514.18
674.96	511.13
675.30	508.23
675.64	505.25
675.97	502.45
676.31	499.54
676.65	496.60
676.99	493.83
677.33	490.95
677.67	488.13
678.01	485.14
678.34	482.22
678.68	479.38
679.02	476.52
679.36	473.69
679.70	470.89
680.04	468.16
680.37	465.33
680.71	462.46
681.05	459.77
681.39	457.00
681.73	454.33
682.06	451.79
682.40	449.24
682.74	446.69
683.08	444.08
683.42	441.49
683.75	438.99
684.09	436.39
684.43	433.90
684.77	431.46
685.10	429.06
685.44	426.67
685.78	424.34
686.12	422.08
686.45	419.78
686.79	417.49
687.13	415.27
687.46	413.09
687.80	410.92
688.14	408.68
688.48	406.68
688.81	404.43
689.15	402.23
689.49	400.01
689.82	397.92
690.16	395.81
690.50	393.83
690.83	391.90
691.17	389.91
691.51	387.99
691.84	386.09
692.18	384.12
692.52	382.18
692.85	380.23
693.19	378.31
693.52	376.47
693.86	374.67
694.20	372.82
694.53	371.00
694.87	369.14
695.21	367.40
695.54	365.53
695.88	363.70
696.21	361.93
696.55	360.23
696.88	358.47
697.22	356.76
697.56	355.04
697.89	353.27
698.23	351.63
698.56	350.04
698.90	348.43
699.23	346.79
699.57	345.20
699.90	343.65
700.24	342.07
700.58	340.55
700.91	339.01
701.25	337.51
701.58	336.11
701.92	334.72
702.25	333.26
702.59	331.86
702.92	330.53
703.26	329.21
703.59	327.90
703.93	326.71
704.26	325.47
704.60	324.21
704.93	322.98
705.26	321.69
705.60	320.43
705.93	319.22
706.27	318.12
706.60	317.03
706.94	315.88
707.27	314.74
707.61	313.64
707.94	312.58
708.27	311.49
708.61	310.39
708.94	309.36
709.28	308.42
709.61	307.47
709.94	306.49
710.28	305.47
710.61	304.49
710.95	303.45
711.28	302.50
711.61	301.51
711.95	300.55
712.28	299.62
712.61	298.66
712.95	297.77
713.28	296.91
713.61	295.97
713.95	295.11
714.28	294.26
714.61	293.35
714.95	292.49
715.28	291.61
715.61	290.72
715.95	289.87
716.28	288.94
716.61	288.06
716.95	287.24
717.28	286.50
717.61	285.74
717.94	284.97
718.28	284.16
718.61	283.45
718.94	282.71
719.27	282.07
719.61	281.41
719.94	280.73
720.27	279.98
720.60	279.30
720.94	278.63
721.27	278.03
721.60	277.45
721.93	276.82
722.27	276.24
722.60	275.71
722.93	275.15
723.26	274.63
723.59	274.09
723.93	273.51
724.26	272.93
724.59	272.34
724.92	271.78
725.25	271.27
725.59	270.72
725.92	270.23
726.25	269.69
726.58	269.20
726.91	268.68
727.24	268.20
727.57	267.72
727.91	267.18
728.24	266.69
728.57	266.17
728.90	265.69
729.23	265.23
729.56	264.79
729.89	264.29
730.22	263.80
730.55	263.29
730.89	262.83
731.22	262.34
731.55	261.88
731.88	261.47
732.21	261.04
732.54	260.63
732.87	260.20
733.20	259.77
733.53	259.35
733.86	258.96
734.19	258.54
734.52	258.14
734.85	257.84
735.18	257.38
735.51	257.03
735.84	256.68
736.17	256.32
736.50	255.86
736.83	255.61
737.16	255.28
737.49	254.94
737.82	254.59
738.15	254.28
738.48	253.98
738.81	253.63
739.14	253.31
739.47	252.96
739.80	252.64
740.13	252.36
740.46	252.04
740.79	251.76
741.12	251.47
741.45	251.15
741.78	250.80
742.11	250.54
742.44	250.25
742.77	249.94
743.10	249.64
743.43	249.32
743.75	248.93
744.08	248.74
744.41	248.47
744.74	248.21
745.07	247.94
745.40	247.65
745.73	247.40
746.06	247.12
746.39	246.88
746.71	246.59
747.04	246.28
747.37	245.98
747.70	245.66
748.03	245.38
748.36	245.13
748.68	244.89
749.01	244.65
749.34	244.37
749.67	244.16
750.00	243.90
750.33	243.78
750.65	243.55
750.98	243.22
751.31	243.01
751.64	242.79
751.97	242.61
752.29	242.37
752.62	242.14
752.95	241.88
753.28	241.64
753.60	241.43
753.93	241.26
754.26	241.05
754.59	240.86
754.91	240.66
755.24	240.45
755.57	240.27
755.90	240.06
756.22	239.89
756.55	239.66
756.88	239.48
757.20	239.25
757.53	239.06
757.86	238.88
758.19	238.70
758.51	238.54
758.84	238.31
759.17	238.14
759.49	237.97
759.82	237.89
760.15	237.74
760.47	237.59
760.80	237.39
761.13	237.25
761.45	237.09
761.78	236.93
762.11	236.79
762.43	236.65
762.76	236.50
763.08	236.36
763.41	236.22
763.74	236.09
764.06	235.92
764.39	235.75
764.71	235.60
765.04	235.44
765.37	235.27
765.69	235.15
766.02	235.04
766.34	234.87
766.67	234.68
767.00	234.59
767.32	234.55
767.65	234.50
767.97	234.40
768.30	234.32
768.62	234.23
768.95	234.09
769.27	233.98
769.60	233.89
769.92	233.76
770.25	233.67
770.57	233.55
770.90	233.43
771.22	233.38
771.55	233.29
771.87	233.19
772.20	233.12
772.52	233.11
772.85	233.14
773.17	233.08
773.50	233.02
773.82	232.90
774.15	232.73
774.47	232.60
774.80	232.50
775.12	232.35
775.45	232.27
775.77	232.24
776.09	232.15
776.42	232.10
776.74	232.08
777.07	232.01
777.39	231.94
777.72	231.88
778.04	231.80
778.36	231.70
778.69	231.65
779.01	231.60
779.33	231.41
779.66	231.24
779.98	231.16
780.31	231.06
780.63	231.06
780.95	231.03
781.28	230.94
781.60	230.84
781.92	230.84
782.25	230.76
782.57	230.69
782.89	230.62
783.22	230.51
783.54	230.40
783.86	230.32
784.19	230.28
784.51	230.23
784.83	230.15
785.16	230.11
785.48	230.06
785.80	230.00
786.12	230.00
786.45	229.91
786.77	229.88
787.09	229.85
787.42	229.76
787.74	229.71
788.06	229.68
788.38	229.67
788.71	229.60
789.03	229.58
789.35	229.53
789.67	229.48
789.99	229.47
790.32	229.44
790.64	229.41
790.96	229.42
791.28	229.36
791.61	229.33
791.93	229.31
792.25	229.26
792.57	229.30
792.89	229.23
793.21	229.19
793.54	229.16
793.86	229.10
794.18	229.06
794.50	228.99
794.82	228.96
795.14	228.95
795.47	228.96
795.79	228.93
796.11	228.86
796.43	228.81
796.75	228.75
797.07	228.71
797.39	228.69
797.71	228.59
798.04	228.55
798.36	228.53
798.68	228.47
799.00	228.45
799.32	228.35
799.64	228.35
799.96	228.32
800.28	228.26
800.60	228.24
800.92	228.20
801.24	228.18
801.56	228.13
801.89	228.07
802.21	228.05
802.53	227.99
802.85	227.97
803.17	228.01
803.49	227.97
803.81	227.93
804.13	227.87
804.45	227.84
804.77	227.84
805.09	227.80
805.41	227.77
805.73	227.72
806.05	227.65
806.37	227.61
806.69	227.59
807.01	227.58
807.33	227.58
807.65	227.51
807.97	227.53
808.28	227.50
808.60	227.49
808.92	227.43
809.24	227.45
809.56	227.43
809.88	227.35
810.20	227.32
810.52	227.32
810.84	227.29
811.16	227.23
811.48	227.19
811.80	227.19
812.12	227.17
812.43	227.16
812.75	227.18
813.07	227.16
813.39	227.13
813.71	227.07
814.03	227.03
814.35	227.02
814.67	226.94
814.98	226.93
815.30	226.86
815.62	226.84
815.94	226.75
816.26	226.76
816.58	226.72
816.89	226.72
817.21	226.68
817.53	226.69
817.85	226.69
818.17	226.64
818.48	226.59
818.80	226.61
819.12	226.58
819.44	226.51
819.76	226.45
820.07	226.44
820.39	226.44
820.71	226.41
821.03	226.38
821.34	226.38
821.66	226.36
821.98	226.37
822.30	226.35
822.61	226.41
822.93	226.38
823.25	226.35
823.57	226.32
823.88	226.31
824.20	226.24
824.52	226.26
824.83	226.27
825.15	226.23
825.47	226.18
825.79	226.18
826.10	226.22
826.42	226.21
826.74	226.23
827.05	226.20
827.37	226.20
827.69	226.22
828.00	226.22
828.32	226.23
828.64	226.23
828.95	226.23
829.27	226.19
829.58	226.15
829.90	226.18
830.22	226.17
830.53	226.17
830.85	226.17
831.17	226.13
831.48	226.12
831.80	226.10
832.11	226.12
832.43	226.07
832.75	226.02
833.06	226.09
833.38	226.03
833.69	226.04
834.01	226.04
834.32	226.02
834.64	226.01
834.96	225.98
835.27	225.96
835.59	225.94
835.90	225.92
836.22	225.90
836.53	225.87
836.85	225.88
837.16	225.93
837.48	225.93
837.79	225.97
838.11	225.96
838.42	225.98
838.74	225.96
839.05	225.97
839.37	225.96
839.68	225.90
840.00	225.89
840.31	225.89
840.63	225.88
840.94	225.83
841.26	225.79
841.57	225.76
841.88	225.79
842.20	225.77
842.51	225.75
842.83	225.77
843.14	225.87
843.46	225.86
843.77	225.78
844.08	225.79
844.40	225.72
844.71	225.74
845.03	225.73
845.34	225.72
845.65	225.69
845.97	225.66
846.28	225.66
846.60	225.65
846.91	225.63
847.22	225.62
847.54	225.65
847.85	225.64
848.16	225.64
848.48	225.58
848.79	225.61
849.10	225.64
849.42	225.62
849.73	225.51
850.04	225.51
850.36	225.51
850.67	225.50
850.98	225.50
851.30	225.47
851.61	225.45
851.92	225.46
852.23	225.49
852.55	225.54
852.86	225.53
853.17	225.56
853.49	225.55
853.80	225.53
854.11	225.56
854.42	225.60
854.74	225.59
855.05	225.60
855.36	225.56
855.67	225.57
855.99	225.58
856.30	225.70
856.61	225.69
856.92	225.67
857.23	225.69
857.55	225.69
857.86	225.72
858.17	225.73
858.48	225.75
858.79	225.75
859.11	225.74
859.42	225.76
859.73	225.71
860.04	225.72
860.35	225.72
860.66	225.67
860.98	225.66
861.29	225.65
861.60	225.65
861.91	225.66
862.22	225.62
862.53	225.57
862.84	225.46
863.16	225.46
863.47	225.44
863.78	225.43
864.09	225.46
864.40	225.46
864.71	225.47
865.02	225.47
865.33	225.44
865.64	225.42
865.95	225.40
866.27	225.49
866.58	225.51
866.89	225.53
867.20	225.54
867.51	225.50
867.82	225.50
868.13	225.58
868.44	225.54
868.75	225.54
869.06	225.59
869.37	225.60
869.68	225.58
869.99	225.59
870.30	225.60
870.61	225.58
870.92	225.55
871.23	225.52
871.54	225.50
871.85	225.53
872.16	225.56
872.47	225.56
872.78	225.52
873.09	225.51
873.40	225.46
873.71	225.46
874.02	225.52
874.33	225.51
874.64	225.46
874.95	225.49
875.26	225.49
875.56	225.45
875.87	225.45
876.18	225.46
876.49	225.57
876.80	225.54
877.11	225.54
877.42	225.52
877.73	225.54
878.04	225.54
878.35	225.52
878.66	225.50
878.96	225.52
879.27	225.49
879.58	225.48
879.89	225.51
880.20	225.56
880.51	225.54
880.82	225.54
881.12	225.54
881.43	225.51
881.74	225.48
882.05	225.50
882.36	225.50
882.67	225.49
882.97	225.38
883.28	225.39
883.59	225.39
883.90	225.43
884.21	225.46
884.51	225.44
884.82	225.46
885.13	225.44
885.44	225.41
885.74	225.42
886.05	225.39
886.36	225.41
886.67	225.33
886.98	225.35
887.28	225.35
887.59	225.33
887.90	225.33
888.20	225.35
888.51	225.34
888.82	225.29
889.13	225.30
889.43	225.36
889.74	225.37
890.05	225.36
890.35	225.31
890.66	225.23
890.97	225.23
891.28	225.18
891.58	225.19
891.89	225.18
892.20	225.16
892.50	225.14
892.81	225.12
893.12	225.10
893.42	225.06
893.73	225.02
894.04	225.02
894.34	225.03
894.65	225.01
894.95	225.00
895.26	225.03
895.57	225.05
895.87	224.94
896.18	224.93
896.48	224.91
896.79	224.92
897.10	224.95
897.40	224.97
897.71	224.95
898.01	224.94
898.32	224.97
898.63	224.98
898.93	224.98
899.24	224.98
899.54	224.97
899.85	224.96
900.15	224.99
900.46	225.00
900.76	225.00
901.07	224.99
901.38	225.01
901.68	225.03
901.99	225.01
902.29	225.02
902.60	225.02
902.90	225.02
903.21	225.03
903.51	225.03
903.82	225.06
904.12	225.09
904.43	225.11
904.73	225.13
905.03	225.12
905.34	225.24
905.64	225.23
905.95	225.21
906.25	225.22
906.56	225.22
906.86	225.24
907.17	225.24
907.47	225.27
907.77	225.28
908.08	225.27
908.38	225.23
908.69	225.26
908.99	225.29
909.30	225.33
909.60	225.33
909.90	225.32
910.21	225.30
910.51	225.31
910.81	225.28
911.12	225.28
911.42	225.29
911.73	225.21
912.03	225.25
912.33	225.31
912.64	225.36
912.94	225.33
913.24	225.34
913.55	225.36
913.85	225.36
914.15	225.34
914.46	225.36
914.76	225.39
915.06	225.43
915.37	225.45
915.67	225.44
915.97	225.41
916.27	225.38
916.58	225.38
916.88	225.36
917.18	225.39
917.49	225.44
917.79	225.46
918.09	225.48
918.39	225.49
918.70	225.49
919.00	225.48
919.30	225.55
919.60	225.52
919.91	225.50
920.21	225.52
920.51	225.50
920.81	225.49
921.12	225.52
921.42	225.48
921.72	225.42
922.02	225.42
922.32	225.47
922.63	225.50
922.93	225.51
923.23	225.55
923.53	225.51
923.83	225.47
924.13	225.47
924.44	225.41
924.74	225.44
925.04	225.46
925.34	225.43
925.64	225.38
925.94	225.41
926.24	225.47
926.55	225.44
926.85	225.44
927.15	225.42
927.45	225.39
927.75	225.41
928.05	225.38
928.35	225.34
928.65	225.35
928.95	225.34
929.26	225.33
929.56	225.29
929.86	225.29
930.16	225.26
930.46	225.21
930.76	225.23
931.06	225.12
931.36	225.06
931.66	225.07
931.96	225.05
932.26	225.03
932.56	224.93
932.86	224.93
933.16	224.93
933.46	224.90
933.76	224.90
934.06	224.86
934.36	224.91
934.66	224.93
934.96	224.89
935.26	224.91
935.56	224.91
935.86	224.86
936.16	224.84
936.46	224.82
936.76	224.82
937.06	224.79
937.36	224.84
937.66	224.86
937.96	224.86
938.26	224.84
938.56	224.81
938.86	224.83
939.16	224.85
939.46	224.86
939.76	224.90
940.06	224.87
940.35	224.87
940.65	224.84
940.95	224.86
941.25	224.83
941.55	224.82
941.85	224.79
942.15	224.84
942.45	224.88
942.75	224.89
943.04	224.90
943.34	224.93
943.64	224.90
943.94	224.90
944.24	224.90
944.54	224.95
944.84	224.98
945.13	225.00
945.43	224.96
945.73	224.96
946.03	224.92
946.33	224.94
946.62	224.92
946.92	224.91
947.22	224.89
947.52	224.93
947.82	224.95
948.11	224.98
948.41	224.99
948.71	224.93
949.01	224.97
949.31	224.97
949.60	224.97
949.90	224.99
950.20	224.98
950.50	224.97
950.79	224.92
951.09	224.95
951.39	224.92
951.69	224.92
951.98	224.96
952.28	224.99
952.58	224.97
952.87	224.98
953.17	225.01
953.47	225.02
953.76	225.01
954.06	225.00
954.36	224.97
954.66	224.95
954.95	224.98
955.25	224.96
955.55	224.95
955.84	224.95
956.14	224.97
956.44	224.98
956.73	224.96
957.03	224.98
957.32	224.95
957.62	224.94
957.92	224.96
958.21	224.90
958.51	224.98
958.81	224.98
959.10	225.00
959.40	225.01
959.69	225.03
959.99	225.04
960.29	225.02
960.58	225.02
960.88	225.06
961.17	225.05
961.47	225.05
961.76	225.05
962.06	225.04
962.36	225.03
962.65	225.02
962.95	225.02
963.24	225.01
963.54	225.00
963.83	225.07
964.13	225.03
964.42	225.02
964.72	224.95
965.01	224.94
965.31	224.95
965.60	224.89
965.90	224.92
966.19	224.89
966.49	224.89
966.78	224.87
967.08	224.86
967.37	224.87
967.67	224.86
967.96	224.89
968.26	224.88
968.55	224.88
968.85	224.85
969.14	224.83
969.43	224.83
969.73	224.82
970.02	224.74
970.32	224.77
970.61	224.77
970.91	224.74
971.20	224.74
971.49	224.69
971.79	224.71
972.08	224.66
972.38	224.65
972.67	224.65
972.96	224.67
973.26	224.64
973.55	224.65
973.85	224.62
974.14	224.58
974.43	224.60
974.73	224.56
975.02	224.55
975.31	224.59
975.61	224.59
975.90	224.57
976.19	224.58
976.49	224.57
976.78	224.58
977.07	224.57
977.37	224.55
977.66	224.57
977.95	224.56
978.24	224.53
978.54	224.56
978.83	224.55
979.12	224.56
979.42	224.55
979.71	224.52
980.00	224.56
980.29	224.58
980.59	224.60
980.88	224.62
981.17	224.63
981.46	224.58
981.76	224.57
982.05	224.64
982.34	224.64
982.63	224.68
982.93	224.69
983.22	224.74
983.51	224.80
983.80	224.82
984.09	224.87
984.39	224.90
984.68	224.91
984.97	224.91
985.26	224.92
985.55	224.98
985.85	224.97
986.14	225.02
986.43	225.05
986.72	225.02
987.01	225.03
987.30	225.05
987.59	225.08
987.89	225.13
988.18	225.10
988.47	225.09
988.76	225.06
989.05	225.03
989.34	225.02
989.63	225.05
989.92	225.05
990.22	225.01
990.51	225.02
990.80	225.04
991.09	225.06
991.38	225.08
991.67	225.05
991.96	225.07
992.25	225.06
992.54	225.01
992.83	225.02
993.12	225.00
993.41	225.00
993.70	225.02
993.99	225.02
994.28	225.04
994.58	225.07
994.87	225.08
995.16	225.10
995.45	225.11
995.74	225.05
996.03	225.05
996.32	225.05
996.61	225.06
996.90	225.03
997.19	225.01
997.48	225.01
997.77	224.96
998.06	224.98
998.34	224.94
998.63	224.97
998.92	224.96
999.21	224.97
999.50	224.97
999.79	224.94
1000.08	224.94
1000.37	224.94
1000.66	224.93
1000.95	224.95
1001.24	224.94
1001.53	224.94
1001.82	224.94
1002.11	224.93
1002.40	224.93
1002.68	224.93
1002.97	225.00
1003.26	224.97
1003.55	224.95
1003.84	224.96
1004.13	224.94
1004.42	224.90
1004.71	224.88
1004.99	224.85
1005.28	224.86
1005.57	224.86
1005.86	224.87
1006.15	224.84
1006.44	224.81
1006.72	224.81
1007.01	224.77
1007.30	224.79
1007.59	224.76
1007.88	224.74
1008.17	224.76
1008.45	224.79
1008.74	224.72
1009.03	224.68
1009.32	224.71
1009.60	224.72
1009.89	224.73
1010.18	224.72
1010.47	224.75
1010.76	224.70
1011.04	224.70
1011.33	224.73
1011.62	224.71
1011.91	224.74
1012.19	224.76
1012.48	224.77
1012.77	224.73
1013.05	224.78
1013.34	224.77
1013.63	224.79
1013.92	224.80
1014.20	224.76
1014.49	224.71
1014.78	224.71
1015.06	224.69
1015.35	224.70
1015.64	224.71
1015.92	224.71
1016.21	224.69
1016.50	224.68
1016.78	224.75
1017.07	224.75
1017.36	224.71
1017.64	224.72
1017.93	224.70
1018.22	224.67
1018.50	224.67
1018.79	224.69
1019.08	224.66
1019.36	224.66
1019.65	224.60
1019.93	224.66
1020.22	224.70
1020.51	224.78
1020.79	224.79
1021.08	224.24
1021.36	224.95
1021.65	224.48
1021.94	224.76
1022.22	224.64
1022.51	224.17
1022.79	225.64
1023.08	225.12
1023.36	226.21
1023.65	224.54
>>>>>End Processed Spectral Data<<<<<
