SpectraSuite Data File
++++++++++++++++++++++++++++++++++++
Date: Fri Feb 01 17:22:37 EST 2013
User: group
Dark Spectrum Present: No
Reference Spectrum Present: No
Number of Sampled Component Spectra: 1
Spectrometers: USB2E7196
Integration Time (usec): 35000 (USB2E7196)
Spectra Averaged: 100 (USB2E7196)
Boxcar Smoothing: 10 (USB2E7196)
Correct for Electrical Dark: No (USB2E7196)
Strobe/Lamp Enabled: No (USB2E7196)
Correct for Detector Non-linearity: No (USB2E7196)
Correct for Stray Light: No (USB2E7196)
Number of Pixels in Processed Spectrum: 2048
>>>>>Begin Processed Spectral Data<<<<<
339.09	0.00
339.48	212.73
339.86	214.41
340.24	216.00
340.63	217.33
341.01	220.34
341.39	220.12
341.78	221.39
342.16	222.78
342.54	223.06
342.93	211.47
343.31	222.17
343.69	222.73
344.07	223.18
344.46	223.59
344.84	223.97
345.22	224.21
345.60	224.48
345.99	224.69
346.37	224.81
346.75	224.91
347.13	224.99
347.52	225.06
347.90	225.12
348.28	225.13
348.66	225.18
349.05	225.18
349.43	225.20
349.81	225.27
350.19	225.30
350.57	225.32
350.96	225.39
351.34	225.49
351.72	225.56
352.10	225.68
352.48	225.74
352.87	225.80
353.25	225.85
353.63	225.88
354.01	225.92
354.39	225.98
354.77	226.04
355.15	226.11
355.54	226.17
355.92	226.19
356.30	226.27
356.68	226.39
357.06	226.46
357.44	226.50
357.82	226.55
358.20	226.61
358.58	226.69
358.97	226.77
359.35	226.79
359.73	226.87
360.11	226.91
360.49	226.96
360.87	227.00
361.25	227.07
361.63	227.15
362.01	227.20
362.39	227.25
362.77	227.29
363.15	227.34
363.53	227.36
363.91	227.41
364.29	227.42
364.67	227.32
365.05	227.32
365.43	227.35
365.81	227.36
366.19	227.41
366.57	227.46
366.95	227.43
367.33	227.44
367.71	227.42
368.09	227.39
368.47	227.35
368.85	227.34
369.23	227.31
369.61	227.19
369.99	227.18
370.37	227.13
370.75	227.13
371.13	227.06
371.51	227.01
371.89	226.97
372.27	226.94
372.65	226.94
373.03	226.91
373.41	226.87
373.78	226.81
374.16	226.70
374.54	226.58
374.92	226.55
375.30	226.48
375.68	226.39
376.06	226.34
376.44	226.29
376.82	226.20
377.19	226.17
377.57	226.14
377.95	226.04
378.33	225.98
378.71	225.87
379.09	225.85
379.47	225.79
379.84	225.70
380.22	225.61
380.60	225.55
380.98	225.48
381.36	225.42
381.73	225.37
382.11	225.33
382.49	225.28
382.87	225.23
383.25	225.18
383.62	225.25
384.00	225.20
384.38	225.16
384.76	225.16
385.13	225.15
385.51	225.09
385.89	225.03
386.27	225.03
386.64	224.97
387.02	224.93
387.40	224.88
387.78	224.88
388.15	224.87
388.53	224.82
388.91	224.81
389.29	224.77
389.66	224.76
390.04	224.76
390.42	224.77
390.79	224.75
391.17	224.74
391.55	224.62
391.92	224.64
392.30	224.63
392.68	224.60
393.05	224.59
393.43	224.62
393.81	224.64
394.18	224.60
394.56	224.62
394.94	224.65
395.31	224.69
395.69	224.74
396.06	224.77
396.44	224.81
396.82	224.81
397.19	224.87
397.57	224.88
397.95	224.92
398.32	224.95
398.70	224.99
399.07	225.06
399.45	225.13
399.82	225.16
400.20	225.23
400.58	225.30
400.95	225.32
401.33	225.40
401.70	225.57
402.08	225.65
402.45	225.76
402.83	225.85
403.20	225.94
403.58	226.01
403.95	226.16
404.33	226.30
404.71	226.42
405.08	226.64
405.46	226.77
405.83	226.88
406.21	227.05
406.58	227.20
406.96	227.33
407.33	227.52
407.70	227.71
408.08	227.98
408.45	228.19
408.83	228.44
409.20	228.66
409.58	228.82
409.95	229.09
410.33	229.34
410.70	229.57
411.08	229.88
411.45	230.14
411.82	230.43
412.20	230.75
412.57	231.18
412.95	231.48
413.32	231.90
413.69	232.33
414.07	232.76
414.44	233.24
414.82	233.74
415.19	234.30
415.56	234.88
415.94	235.47
416.31	236.11
416.68	236.74
417.06	237.50
417.43	238.20
417.81	238.99
418.18	239.83
418.55	240.73
418.93	241.62
419.30	242.59
419.67	243.55
420.04	244.57
420.42	245.62
420.79	246.84
421.16	248.02
421.54	249.28
421.91	250.54
422.28	251.84
422.66	253.24
423.03	254.56
423.40	255.93
423.77	257.39
424.15	258.83
424.52	260.37
424.89	262.03
425.26	263.64
425.64	265.12
426.01	266.79
426.38	268.50
426.75	270.26
427.13	272.04
427.50	273.93
427.87	275.86
428.24	277.76
428.61	279.57
428.99	281.58
429.36	283.75
429.73	285.85
430.10	287.92
430.47	289.99
430.85	292.21
431.22	294.51
431.59	296.94
431.96	299.27
432.33	301.87
432.70	304.33
433.08	307.28
433.45	310.04
433.82	312.71
434.19	315.73
434.56	318.64
434.93	321.36
435.30	324.09
435.68	327.06
436.05	329.98
436.42	332.87
436.79	335.46
437.16	338.27
437.53	341.23
437.90	344.16
438.27	347.05
438.64	349.97
439.01	352.63
439.38	354.96
439.75	357.27
440.13	359.83
440.50	362.26
440.87	364.12
441.24	366.12
441.61	368.34
441.98	369.90
442.35	371.73
442.72	373.66
443.09	375.55
443.46	376.64
443.83	377.26
444.20	377.79
444.57	378.70
444.94	378.96
445.31	379.32
445.68	379.77
446.05	379.87
446.42	379.50
446.79	379.11
447.16	378.66
447.53	378.32
447.90	377.19
448.27	375.97
448.64	374.37
449.01	373.22
449.37	371.23
449.74	369.28
450.11	367.00
450.48	364.45
450.85	361.81
451.22	359.59
451.59	357.53
451.96	355.59
452.33	352.87
452.70	350.45
453.07	347.52
453.43	344.45
453.80	341.58
454.17	338.82
454.54	336.22
454.91	333.42
455.28	330.62
455.65	327.99
456.02	325.48
456.38	323.21
456.75	320.41
457.12	318.06
457.49	315.72
457.86	313.45
458.23	311.58
458.59	309.45
458.96	307.28
459.33	305.31
459.70	303.31
460.07	301.78
460.43	299.99
460.80	298.30
461.17	296.82
461.54	295.23
461.91	293.72
462.27	292.20
462.64	290.86
463.01	289.46
463.38	288.13
463.74	286.71
464.11	285.53
464.48	284.49
464.85	283.34
465.21	282.48
465.58	281.54
465.95	280.35
466.32	279.43
466.68	278.50
467.05	277.61
467.42	276.73
467.78	275.75
468.15	274.85
468.52	274.16
468.88	273.29
469.25	272.54
469.62	271.92
469.98	271.22
470.35	270.63
470.72	270.04
471.08	269.36
471.45	268.83
471.82	268.27
472.18	267.69
472.55	267.24
472.92	266.66
473.28	266.16
473.65	265.70
474.02	265.24
474.38	264.85
474.75	264.50
475.11	264.11
475.48	263.84
475.85	263.62
476.21	263.36
476.58	263.16
476.94	263.02
477.31	262.82
477.67	262.69
478.04	262.53
478.41	262.44
478.77	262.48
479.14	262.41
479.50	262.41
479.87	262.47
480.23	262.52
480.60	262.59
480.96	262.72
481.33	262.95
481.69	263.16
482.06	263.35
482.42	263.56
482.79	263.86
483.15	264.17
483.52	264.55
483.88	264.94
484.25	265.30
484.61	265.69
484.98	266.16
485.34	266.67
485.71	267.27
486.07	267.92
486.44	268.49
486.80	269.20
487.17	269.96
487.53	270.78
487.90	271.64
488.26	272.59
488.62	273.56
488.99	274.53
489.35	275.54
489.72	276.68
490.08	277.87
490.44	279.08
490.81	280.41
491.17	281.75
491.54	283.21
491.90	284.75
492.26	286.43
492.63	288.13
492.99	289.93
493.36	291.79
493.72	293.83
494.08	295.93
494.45	298.18
494.81	300.50
495.17	302.88
495.54	305.50
495.90	308.17
496.26	310.95
496.63	313.91
496.99	317.02
497.35	320.25
497.72	323.63
498.08	327.12
498.44	330.76
498.80	334.66
499.17	338.67
499.53	342.86
499.89	347.19
500.26	351.64
500.62	356.31
500.98	361.23
501.34	366.23
501.71	371.48
502.07	376.87
502.43	382.42
502.79	388.17
503.16	394.13
503.52	400.35
503.88	406.67
504.24	413.22
504.60	420.02
504.97	427.03
505.33	434.29
505.69	441.94
506.05	449.64
506.41	457.43
506.78	465.53
507.14	473.81
507.50	482.36
507.86	491.24
508.22	500.26
508.59	509.29
508.95	518.70
509.31	528.39
509.67	538.35
510.03	548.51
510.39	558.94
510.75	569.50
511.12	580.19
511.48	591.26
511.84	602.46
512.20	613.72
512.56	625.49
512.92	637.41
513.28	649.38
513.64	661.59
514.00	673.99
514.37	686.65
514.73	699.44
515.09	712.18
515.45	725.19
515.81	738.49
516.17	752.21
516.53	766.06
516.89	779.89
517.25	793.61
517.61	807.62
517.97	821.65
518.33	835.68
518.69	850.10
519.05	864.76
519.41	879.57
519.77	894.77
520.13	909.79
520.49	924.84
520.85	939.92
521.21	955.15
521.57	971.04
521.93	986.37
522.29	1002.25
522.65	1018.21
523.01	1033.93
523.37	1049.59
523.73	1065.42
524.09	1081.12
524.45	1096.91
524.81	1113.13
525.17	1129.50
525.53	1145.94
525.89	1162.54
526.25	1178.89
526.61	1194.85
526.97	1211.27
527.33	1227.42
527.68	1243.59
528.04	1259.61
528.40	1275.79
528.76	1292.57
529.12	1308.73
529.48	1325.28
529.84	1340.98
530.20	1357.17
530.56	1373.83
530.91	1390.79
531.27	1407.23
531.63	1423.31
531.99	1439.58
532.35	1455.34
532.71	1470.96
533.07	1486.94
533.42	1502.46
533.78	1518.26
534.14	1534.28
534.50	1549.28
534.86	1564.76
535.21	1579.64
535.57	1595.26
535.93	1610.53
536.29	1624.92
536.65	1639.66
537.00	1653.96
537.36	1669.07
537.72	1683.35
538.08	1697.68
538.44	1711.37
538.79	1724.99
539.15	1738.28
539.51	1751.87
539.87	1765.96
540.22	1779.51
540.58	1793.09
540.94	1806.23
541.29	1818.97
541.65	1831.41
542.01	1844.41
542.37	1856.66
542.72	1868.95
543.08	1880.75
543.44	1893.06
543.79	1904.40
544.15	1915.36
544.51	1926.90
544.87	1937.90
545.22	1948.86
545.58	1959.08
545.94	1968.80
546.29	1978.67
546.65	1988.87
547.01	1998.26
547.36	2006.95
547.72	2015.49
548.07	2023.60
548.43	2031.77
548.79	2039.77
549.14	2047.51
549.50	2055.09
549.86	2062.80
550.21	2070.24
550.57	2077.56
550.92	2084.23
551.28	2091.43
551.64	2098.72
551.99	2105.54
552.35	2111.91
552.70	2118.07
553.06	2124.17
553.41	2130.72
553.77	2136.84
554.13	2143.00
554.48	2149.25
554.84	2155.18
555.19	2160.75
555.55	2166.14
555.90	2171.05
556.26	2176.45
556.61	2181.45
556.97	2186.18
557.32	2190.79
557.68	2195.21
558.03	2199.61
558.39	2203.55
558.74	2208.37
559.10	2212.63
559.45	2216.61
559.81	2221.06
560.16	2225.10
560.52	2228.74
560.87	2232.50
561.23	2235.62
561.58	2238.63
561.94	2241.66
562.29	2244.14
562.64	2247.31
563.00	2250.09
563.35	2253.83
563.71	2257.12
564.06	2260.71
564.42	2263.79
564.77	2266.70
565.12	2269.69
565.48	2272.25
565.83	2274.63
566.19	2276.51
566.54	2277.65
566.89	2279.30
567.25	2280.32
567.60	2282.13
567.96	2284.14
568.31	2285.28
568.66	2286.74
569.02	2287.93
569.37	2288.64
569.72	2290.03
570.08	2290.58
570.43	2291.10
570.78	2290.97
571.14	2289.97
571.49	2288.90
571.84	2288.90
572.20	2288.04
572.55	2287.20
572.90	2285.78
573.26	2284.92
573.61	2283.42
573.96	2282.28
574.31	2279.65
574.67	2277.04
575.02	2273.80
575.37	2270.83
575.72	2267.50
576.08	2264.42
576.43	2261.27
576.78	2257.98
577.13	2255.00
577.49	2251.95
577.84	2248.80
578.19	2245.34
578.54	2242.13
578.90	2238.32
579.25	2233.20
579.60	2228.72
579.95	2224.01
580.30	2219.35
580.66	2214.41
581.01	2209.68
581.36	2204.80
581.71	2201.01
582.06	2197.02
582.42	2192.87
582.77	2187.93
583.12	2183.77
583.47	2179.52
583.82	2175.02
584.17	2169.97
584.53	2164.78
584.88	2159.51
585.23	2154.14
585.58	2149.04
585.93	2143.69
586.28	2139.03
586.63	2134.14
586.98	2129.11
587.34	2124.61
587.69	2119.93
588.04	2114.96
588.39	2109.75
588.74	2103.51
589.09	2097.54
589.44	2090.89
589.79	2084.81
590.14	2079.39
590.49	2072.91
590.84	2066.58
591.19	2060.71
591.54	2054.42
591.89	2047.56
592.25	2041.06
592.60	2033.96
592.95	2026.51
593.30	2019.26
593.65	2011.88
594.00	2005.00
594.35	1998.04
594.70	1990.09
595.05	1983.32
595.40	1976.07
595.75	1968.53
596.10	1962.60
596.45	1956.15
596.80	1950.12
597.15	1943.71
597.50	1936.90
597.85	1930.48
598.19	1923.96
598.54	1917.26
598.89	1910.75
599.24	1904.76
599.59	1898.40
599.94	1892.14
600.29	1885.98
600.64	1879.54
600.99	1872.29
601.34	1865.62
601.69	1858.58
602.04	1851.86
602.39	1844.54
602.74	1837.96
603.08	1831.39
603.43	1824.76
603.78	1817.34
604.13	1810.13
604.48	1803.08
604.83	1796.18
605.18	1789.37
605.53	1781.59
605.87	1773.47
606.22	1766.16
606.57	1758.20
606.92	1750.63
607.27	1743.68
607.62	1736.80
607.96	1729.57
608.31	1723.01
608.66	1715.48
609.01	1708.05
609.36	1700.65
609.70	1692.47
610.05	1684.28
610.40	1676.62
610.75	1668.23
611.10	1660.50
611.44	1652.02
611.79	1643.84
612.14	1635.09
612.49	1625.78
612.83	1617.19
613.18	1609.01
613.53	1601.01
613.88	1592.45
614.22	1584.09
614.57	1575.31
614.92	1567.20
615.27	1559.72
615.61	1551.36
615.96	1543.18
616.31	1535.38
616.65	1527.81
617.00	1520.16
617.35	1512.36
617.70	1504.06
618.04	1495.47
618.39	1487.08
618.74	1479.47
619.08	1471.00
619.43	1463.38
619.78	1456.41
620.12	1449.30
620.47	1441.70
620.82	1433.33
621.16	1425.61
621.51	1417.88
621.85	1410.12
622.20	1401.43
622.55	1392.89
622.89	1384.93
623.24	1376.98
623.59	1369.51
623.93	1361.85
624.28	1354.52
624.62	1346.98
624.97	1339.58
625.32	1332.69
625.66	1325.61
626.01	1318.50
626.35	1311.26
626.70	1303.43
627.04	1295.62
627.39	1287.71
627.73	1280.13
628.08	1273.18
628.43	1266.09
628.77	1258.67
629.12	1251.04
629.46	1243.88
629.81	1236.30
630.15	1228.90
630.50	1221.53
630.84	1213.31
631.19	1205.28
631.53	1197.63
631.88	1189.93
632.22	1182.29
632.57	1174.76
632.91	1167.10
633.26	1159.43
633.60	1151.86
633.95	1144.47
634.29	1137.23
634.64	1130.40
634.98	1122.97
635.32	1115.73
635.67	1108.86
636.01	1102.16
636.36	1095.36
636.70	1088.72
637.05	1082.09
637.39	1075.55
637.73	1069.05
638.08	1062.99
638.42	1056.92
638.77	1050.40
639.11	1043.97
639.45	1037.47
639.80	1030.87
640.14	1024.47
640.49	1017.98
640.83	1011.67
641.17	1005.55
641.52	999.30
641.86	992.78
642.20	986.90
642.55	980.49
642.89	974.14
643.23	967.46
643.58	961.62
643.92	955.42
644.26	949.46
644.61	943.35
644.95	937.27
645.29	930.78
645.64	924.01
645.98	917.60
646.32	911.54
646.66	905.54
647.01	899.73
647.35	894.06
647.69	888.20
648.04	882.52
648.38	876.58
648.72	870.59
649.06	864.56
649.41	858.55
649.75	852.65
650.09	846.63
650.43	840.82
650.78	834.61
651.12	828.59
651.46	822.74
651.80	817.00
652.14	811.50
652.49	806.07
652.83	800.89
653.17	795.37
653.51	789.65
653.85	784.12
654.20	778.47
654.54	772.35
654.88	766.49
655.22	760.58
655.56	754.92
655.90	749.43
656.25	744.14
656.59	738.75
656.93	733.53
657.27	728.32
657.61	722.93
657.95	717.86
658.29	712.67
658.64	707.39
658.98	701.98
659.32	696.58
659.66	691.33
660.00	686.06
660.34	681.01
660.68	676.10
661.02	671.06
661.36	666.36
661.70	661.90
662.05	657.50
662.39	653.25
662.73	648.69
663.07	644.25
663.41	639.79
663.75	635.35
664.09	630.74
664.43	626.30
664.77	622.15
665.11	617.85
665.45	613.77
665.79	609.68
666.13	605.68
666.47	601.53
666.81	597.38
667.15	593.16
667.49	589.17
667.83	585.25
668.17	581.26
668.51	577.14
668.85	573.05
669.19	569.20
669.53	565.40
669.87	561.58
670.21	557.84
670.55	554.14
670.89	550.71
671.23	547.30
671.57	543.83
671.91	540.30
672.25	536.74
672.58	533.21
672.92	529.75
673.26	526.49
673.60	523.27
673.94	520.18
674.28	517.26
674.62	514.31
674.96	511.22
675.30	508.40
675.64	505.50
675.97	502.66
676.31	499.79
676.65	496.80
676.99	494.01
677.33	491.19
677.67	488.36
678.01	485.31
678.34	482.39
678.68	479.49
679.02	476.65
679.36	473.86
679.70	471.13
680.04	468.34
680.37	465.45
680.71	462.70
681.05	459.99
681.39	457.29
681.73	454.62
682.06	452.11
682.40	449.50
682.74	446.84
683.08	444.25
683.42	441.62
683.75	439.03
684.09	436.47
684.43	433.93
684.77	431.47
685.10	429.09
685.44	426.69
685.78	424.32
686.12	421.99
686.45	419.70
686.79	417.32
687.13	415.08
687.46	412.90
687.80	410.66
688.14	408.39
688.48	406.28
688.81	404.03
689.15	401.82
689.49	399.63
689.82	397.59
690.16	395.44
690.50	393.47
690.83	391.55
691.17	389.53
691.51	387.61
691.84	385.74
692.18	383.79
692.52	381.81
692.85	379.82
693.19	377.95
693.52	376.07
693.86	374.20
694.20	372.38
694.53	370.58
694.87	368.70
695.21	366.96
695.54	365.06
695.88	363.27
696.21	361.48
696.55	359.78
696.88	358.05
697.22	356.39
697.56	354.70
697.89	353.01
698.23	351.39
698.56	349.74
698.90	348.10
699.23	346.42
699.57	344.85
699.90	343.32
700.24	341.75
700.58	340.24
700.91	338.80
701.25	337.33
701.58	335.91
701.92	334.56
702.25	333.15
702.59	331.78
702.92	330.46
703.26	329.17
703.59	327.86
703.93	326.66
704.26	325.40
704.60	324.12
704.93	322.81
705.26	321.55
705.60	320.35
705.93	319.17
706.27	318.10
706.60	317.04
706.94	315.94
707.27	314.79
707.61	313.66
707.94	312.60
708.27	311.53
708.61	310.42
708.94	309.40
709.28	308.36
709.61	307.36
709.94	306.39
710.28	305.35
710.61	304.35
710.95	303.25
711.28	302.35
711.61	301.38
711.95	300.48
712.28	299.55
712.61	298.61
712.95	297.67
713.28	296.74
713.61	295.79
713.95	294.92
714.28	294.11
714.61	293.27
714.95	292.38
715.28	291.53
715.61	290.67
715.95	289.77
716.28	288.96
716.61	288.16
716.95	287.29
717.28	286.53
717.61	285.77
717.94	285.04
718.28	284.20
718.61	283.42
718.94	282.67
719.27	281.96
719.61	281.25
719.94	280.57
720.27	279.86
720.60	279.18
720.94	278.52
721.27	277.91
721.60	277.30
721.93	276.72
722.27	276.17
722.60	275.59
722.93	275.04
723.26	274.43
723.59	273.85
723.93	273.30
724.26	272.74
724.59	272.18
724.92	271.59
725.25	271.09
725.59	270.58
725.92	270.06
726.25	269.55
726.58	269.04
726.91	268.52
727.24	268.04
727.57	267.56
727.91	267.04
728.24	266.53
728.57	266.03
728.90	265.54
729.23	264.99
729.56	264.55
729.89	264.06
730.22	263.62
730.55	263.15
730.89	262.71
731.22	262.27
731.55	261.82
731.88	261.42
732.21	260.98
732.54	260.57
732.87	260.14
733.20	259.75
733.53	259.38
733.86	259.00
734.19	258.60
734.52	258.25
734.85	257.95
735.18	257.52
735.51	257.14
735.84	256.75
736.17	256.43
736.50	256.01
736.83	255.75
737.16	255.39
737.49	255.05
737.82	254.71
738.15	254.37
738.48	254.01
738.81	253.68
739.14	253.37
739.47	253.04
739.80	252.69
740.13	252.38
740.46	252.08
740.79	251.74
741.12	251.44
741.45	251.08
741.78	250.69
742.11	250.43
742.44	250.13
742.77	249.85
743.10	249.53
743.43	249.18
743.75	248.79
744.08	248.63
744.41	248.40
744.74	248.13
745.07	247.81
745.40	247.57
745.73	247.31
746.06	246.98
746.39	246.70
746.71	246.46
747.04	246.19
747.37	245.88
747.70	245.64
748.03	245.34
748.36	245.13
748.68	244.91
749.01	244.64
749.34	244.42
749.67	244.18
750.00	243.94
750.33	243.84
750.65	243.61
750.98	243.26
751.31	243.01
751.64	242.75
751.97	242.57
752.29	242.34
752.62	242.09
752.95	241.89
753.28	241.69
753.60	241.47
753.93	241.29
754.26	241.09
754.59	240.85
754.91	240.67
755.24	240.44
755.57	240.21
755.90	240.03
756.22	239.80
756.55	239.56
756.88	239.38
757.20	239.13
757.53	238.95
757.86	238.79
758.19	238.62
758.51	238.45
758.84	238.28
759.17	238.12
759.49	237.92
759.82	237.84
760.15	237.69
760.47	237.53
760.80	237.33
761.13	237.17
761.45	237.03
761.78	236.85
762.11	236.75
762.43	236.60
762.76	236.45
763.08	236.32
763.41	236.25
763.74	236.12
764.06	235.99
764.39	235.82
764.71	235.69
765.04	235.52
765.37	235.38
765.69	235.24
766.02	235.08
766.34	235.00
766.67	234.82
767.00	234.67
767.32	234.61
767.65	234.59
767.97	234.49
768.30	234.39
768.62	234.28
768.95	234.11
769.27	234.01
769.60	233.92
769.92	233.84
770.25	233.68
770.57	233.52
770.90	233.43
771.22	233.32
771.55	233.21
771.87	233.12
772.20	233.02
772.52	233.00
772.85	233.05
773.17	232.94
773.50	232.88
773.82	232.81
774.15	232.64
774.47	232.45
774.80	232.38
775.12	232.28
775.45	232.22
775.77	232.16
776.09	232.09
776.42	231.98
776.74	231.93
777.07	231.86
777.39	231.82
777.72	231.71
778.04	231.66
778.36	231.56
778.69	231.49
779.01	231.44
779.33	231.27
779.66	231.10
779.98	231.02
780.31	230.92
780.63	230.89
780.95	230.88
781.28	230.83
781.60	230.74
781.92	230.67
782.25	230.61
782.57	230.54
782.89	230.49
783.22	230.42
783.54	230.28
783.86	230.25
784.19	230.19
784.51	230.20
784.83	230.15
785.16	230.11
785.48	230.07
785.80	230.02
786.12	230.01
786.45	229.97
786.77	229.92
787.09	229.88
787.42	229.78
787.74	229.70
788.06	229.65
788.38	229.62
788.71	229.59
789.03	229.52
789.35	229.50
789.67	229.44
789.99	229.41
790.32	229.40
790.64	229.31
790.96	229.32
791.28	229.23
791.61	229.15
791.93	229.11
792.25	229.05
792.57	229.06
792.89	228.97
793.21	228.89
793.54	228.85
793.86	228.77
794.18	228.75
794.50	228.76
794.82	228.73
795.14	228.68
795.47	228.67
795.79	228.67
796.11	228.63
796.43	228.58
796.75	228.56
797.07	228.54
797.39	228.54
797.71	228.46
798.04	228.43
798.36	228.43
798.68	228.37
799.00	228.38
799.32	228.31
799.64	228.32
799.96	228.31
800.28	228.31
800.60	228.28
800.92	228.27
801.24	228.19
801.56	228.16
801.89	228.14
802.21	228.11
802.53	228.05
802.85	228.03
803.17	228.05
803.49	228.00
803.81	227.95
804.13	227.88
804.45	227.83
804.77	227.84
805.09	227.80
805.41	227.79
805.73	227.73
806.05	227.71
806.37	227.67
806.69	227.64
807.01	227.58
807.33	227.57
807.65	227.49
807.97	227.55
808.28	227.51
808.60	227.47
808.92	227.43
809.24	227.48
809.56	227.45
809.88	227.41
810.20	227.36
810.52	227.37
810.84	227.40
811.16	227.35
811.48	227.29
811.80	227.31
812.12	227.30
812.43	227.31
812.75	227.29
813.07	227.24
813.39	227.21
813.71	227.20
814.03	227.17
814.35	227.16
814.67	227.07
814.98	227.03
815.30	227.01
815.62	226.97
815.94	226.87
816.26	226.88
816.58	226.86
816.89	226.86
817.21	226.80
817.53	226.78
817.85	226.76
818.17	226.76
818.48	226.67
818.80	226.67
819.12	226.63
819.44	226.58
819.76	226.56
820.07	226.52
820.39	226.52
820.71	226.52
821.03	226.50
821.34	226.48
821.66	226.50
821.98	226.47
822.30	226.46
822.61	226.52
822.93	226.47
823.25	226.45
823.57	226.40
823.88	226.46
824.20	226.39
824.52	226.41
824.83	226.40
825.15	226.39
825.47	226.37
825.79	226.36
826.10	226.35
826.42	226.36
826.74	226.35
827.05	226.31
827.37	226.29
827.69	226.26
828.00	226.26
828.32	226.22
828.64	226.21
828.95	226.24
829.27	226.20
829.58	226.17
829.90	226.15
830.22	226.15
830.53	226.05
830.85	226.04
831.17	225.98
831.48	225.95
831.80	225.96
832.11	225.94
832.43	225.89
832.75	225.90
833.06	225.94
833.38	225.93
833.69	225.89
834.01	225.90
834.32	225.88
834.64	225.86
834.96	225.87
835.27	225.82
835.59	225.80
835.90	225.77
836.22	225.77
836.53	225.74
836.85	225.72
837.16	225.81
837.48	225.80
837.79	225.87
838.11	225.87
838.42	225.86
838.74	225.88
839.05	225.87
839.37	225.83
839.68	225.76
840.00	225.72
840.31	225.73
840.63	225.73
840.94	225.70
841.26	225.68
841.57	225.65
841.88	225.67
842.20	225.65
842.51	225.66
842.83	225.66
843.14	225.75
843.46	225.80
843.77	225.76
844.08	225.76
844.40	225.72
844.71	225.68
845.03	225.67
845.34	225.61
845.65	225.61
845.97	225.65
846.28	225.64
846.60	225.65
846.91	225.65
847.22	225.66
847.54	225.76
847.85	225.76
848.16	225.77
848.48	225.76
848.79	225.81
849.10	225.80
849.42	225.80
849.73	225.71
850.04	225.67
850.36	225.63
850.67	225.66
850.98	225.67
851.30	225.68
851.61	225.65
851.92	225.67
852.23	225.72
852.55	225.68
852.86	225.66
853.17	225.67
853.49	225.69
853.80	225.69
854.11	225.65
854.42	225.65
854.74	225.65
855.05	225.67
855.36	225.58
855.67	225.55
855.99	225.53
856.30	225.63
856.61	225.63
856.92	225.65
857.23	225.62
857.55	225.59
857.86	225.62
858.17	225.67
858.48	225.67
858.79	225.62
859.11	225.61
859.42	225.61
859.73	225.59
860.04	225.58
860.35	225.53
860.66	225.48
860.98	225.48
861.29	225.46
861.60	225.41
861.91	225.42
862.22	225.42
862.53	225.38
862.84	225.30
863.16	225.30
863.47	225.27
863.78	225.26
864.09	225.26
864.40	225.23
864.71	225.25
865.02	225.25
865.33	225.25
865.64	225.26
865.95	225.23
866.27	225.32
866.58	225.29
866.89	225.30
867.20	225.33
867.51	225.30
867.82	225.30
868.13	225.34
868.44	225.33
868.75	225.36
869.06	225.38
869.37	225.35
869.68	225.32
869.99	225.29
870.30	225.31
870.61	225.32
870.92	225.33
871.23	225.31
871.54	225.32
871.85	225.35
872.16	225.34
872.47	225.36
872.78	225.30
873.09	225.31
873.40	225.27
873.71	225.27
874.02	225.31
874.33	225.30
874.64	225.30
874.95	225.32
875.26	225.28
875.56	225.29
875.87	225.28
876.18	225.31
876.49	225.41
876.80	225.40
877.11	225.36
877.42	225.34
877.73	225.32
878.04	225.28
878.35	225.28
878.66	225.26
878.96	225.23
879.27	225.24
879.58	225.22
879.89	225.26
880.20	225.28
880.51	225.24
880.82	225.23
881.12	225.21
881.43	225.22
881.74	225.19
882.05	225.16
882.36	225.19
882.67	225.19
882.97	225.12
883.28	225.12
883.59	225.13
883.90	225.13
884.21	225.18
884.51	225.19
884.82	225.15
885.13	225.18
885.44	225.22
885.74	225.22
886.05	225.23
886.36	225.21
886.67	225.19
886.98	225.28
887.28	225.29
887.59	225.33
887.90	225.31
888.20	225.34
888.51	225.38
888.82	225.35
889.13	225.34
889.43	225.41
889.74	225.40
890.05	225.40
890.35	225.40
890.66	225.36
890.97	225.35
891.28	225.34
891.58	225.34
891.89	225.34
892.20	225.30
892.50	225.27
892.81	225.28
893.12	225.21
893.42	225.14
893.73	225.15
894.04	225.11
894.34	225.08
894.65	225.05
894.95	225.02
895.26	225.01
895.57	225.05
895.87	224.96
896.18	224.99
896.48	224.98
896.79	224.94
897.10	224.97
897.40	224.97
897.71	224.99
898.01	224.94
898.32	224.93
898.63	224.90
898.93	224.90
899.24	224.90
899.54	224.92
899.85	224.91
900.15	224.87
900.46	224.85
900.76	224.87
901.07	224.88
901.38	224.87
901.68	224.88
901.99	224.84
902.29	224.83
902.60	224.79
902.90	224.79
903.21	224.83
903.51	224.80
903.82	224.80
904.12	224.78
904.43	224.79
904.73	224.78
905.03	224.80
905.34	224.90
905.64	224.88
905.95	224.84
906.25	224.83
906.56	224.83
906.86	224.80
907.17	224.80
907.47	224.80
907.77	224.79
908.08	224.75
908.38	224.77
908.69	224.80
908.99	224.81
909.30	224.82
909.60	224.78
909.90	224.78
910.21	224.75
910.51	224.75
910.81	224.78
911.12	224.80
911.42	224.81
911.73	224.73
912.03	224.73
912.33	224.80
912.64	224.84
912.94	224.85
913.24	224.87
913.55	224.85
913.85	224.86
914.15	224.89
914.46	224.93
914.76	224.87
915.06	224.88
915.37	224.87
915.67	224.87
915.97	224.89
916.27	224.87
916.58	224.89
916.88	224.87
917.18	224.84
917.49	224.90
917.79	224.91
918.09	224.92
918.39	224.98
918.70	224.96
919.00	224.95
919.30	224.98
919.60	225.00
919.91	225.00
920.21	225.00
920.51	225.01
920.81	224.99
921.12	225.05
921.42	225.04
921.72	225.02
922.02	225.07
922.32	225.09
922.63	225.08
922.93	225.15
923.23	225.18
923.53	225.19
923.83	225.11
924.13	225.11
924.44	225.12
924.74	225.13
925.04	225.17
925.34	225.19
925.64	225.15
925.94	225.14
926.24	225.20
926.55	225.19
926.85	225.16
927.15	225.18
927.45	225.16
927.75	225.16
928.05	225.18
928.35	225.13
928.65	225.13
928.95	225.16
929.26	225.12
929.56	225.13
929.86	225.15
930.16	225.14
930.46	225.11
930.76	225.08
931.06	225.01
931.36	224.95
931.66	224.97
931.96	224.99
932.26	225.00
932.56	224.93
932.86	224.96
933.16	224.97
933.46	224.95
933.76	224.97
934.06	224.99
934.36	225.03
934.66	225.02
934.96	225.01
935.26	224.96
935.56	224.99
935.86	224.95
936.16	224.94
936.46	224.97
936.76	224.98
937.06	224.98
937.36	225.01
937.66	225.07
937.96	225.03
938.26	225.00
938.56	225.01
938.86	225.07
939.16	225.07
939.46	225.08
939.76	225.08
940.06	225.06
940.35	225.02
940.65	225.01
940.95	225.01
941.25	225.02
941.55	225.06
941.85	225.01
942.15	225.07
942.45	225.06
942.75	225.05
943.04	225.05
943.34	225.09
943.64	225.08
943.94	225.04
944.24	225.07
944.54	225.09
944.84	225.09
945.13	225.05
945.43	225.04
945.73	225.06
946.03	225.03
946.33	225.01
946.62	225.02
946.92	224.99
947.22	225.00
947.52	225.01
947.82	225.00
948.11	225.00
948.41	224.99
948.71	224.98
949.01	224.97
949.31	224.97
949.60	224.95
949.90	224.97
950.20	224.97
950.50	224.96
950.79	224.90
951.09	224.92
951.39	224.92
951.69	224.89
951.98	224.90
952.28	224.92
952.58	224.91
952.87	224.93
953.17	224.95
953.47	224.97
953.76	224.96
954.06	224.94
954.36	224.95
954.66	224.93
954.95	224.94
955.25	224.97
955.55	224.99
955.84	224.98
956.14	224.96
956.44	224.97
956.73	224.94
957.03	225.00
957.32	224.98
957.62	224.97
957.92	225.01
958.21	224.99
958.51	225.07
958.81	225.09
959.10	225.08
959.40	225.09
959.69	225.06
959.99	225.04
960.29	225.05
960.58	225.04
960.88	225.08
961.17	225.08
961.47	225.07
961.76	225.03
962.06	225.05
962.36	225.05
962.65	225.06
962.95	225.05
963.24	225.02
963.54	225.01
963.83	225.01
964.13	224.98
964.42	224.97
964.72	224.89
965.01	224.91
965.31	224.89
965.60	224.85
965.90	224.91
966.19	224.88
966.49	224.86
966.78	224.83
967.08	224.82
967.37	224.81
967.67	224.77
967.96	224.78
968.26	224.77
968.55	224.74
968.85	224.69
969.14	224.72
969.43	224.70
969.73	224.69
970.02	224.70
970.32	224.69
970.61	224.65
970.91	224.62
971.20	224.55
971.49	224.52
971.79	224.51
972.08	224.43
972.38	224.46
972.67	224.46
972.96	224.47
973.26	224.46
973.55	224.52
973.85	224.50
974.14	224.50
974.43	224.52
974.73	224.50
975.02	224.49
975.31	224.47
975.61	224.44
975.90	224.44
976.19	224.40
976.49	224.42
976.78	224.41
977.07	224.44
977.37	224.46
977.66	224.48
977.95	224.51
978.24	224.52
978.54	224.55
978.83	224.51
979.12	224.52
979.42	224.52
979.71	224.48
980.00	224.52
980.29	224.56
980.59	224.50
980.88	224.55
981.17	224.60
981.46	224.59
981.76	224.63
982.05	224.68
982.34	224.69
982.63	224.73
982.93	224.76
983.22	224.75
983.51	224.78
983.80	224.84
984.09	224.82
984.39	224.79
984.68	224.75
984.97	224.79
985.26	224.82
985.55	224.82
985.85	224.80
986.14	224.81
986.43	224.80
986.72	224.82
987.01	224.82
987.30	224.82
987.59	224.83
987.89	224.84
988.18	224.82
988.47	224.86
988.76	224.85
989.05	224.88
989.34	224.87
989.63	224.89
989.92	224.86
990.22	224.87
990.51	224.92
990.80	224.98
991.09	224.98
991.38	225.00
991.67	225.01
991.96	225.02
992.25	225.02
992.54	225.01
992.83	225.01
993.12	224.99
993.41	224.99
993.70	225.03
993.99	225.06
994.28	225.07
994.58	225.09
994.87	225.04
995.16	225.02
995.45	225.03
995.74	224.99
996.03	225.03
996.32	225.06
996.61	225.09
996.90	225.05
997.19	225.05
997.48	225.03
997.77	224.99
998.06	224.97
998.34	224.97
998.63	224.97
998.92	224.95
999.21	224.97
999.50	224.98
999.79	224.95
1000.08	224.94
1000.37	224.92
1000.66	224.90
1000.95	224.94
1001.24	224.95
1001.53	224.92
1001.82	224.92
1002.11	224.88
1002.40	224.84
1002.68	224.84
1002.97	224.91
1003.26	224.87
1003.55	224.85
1003.84	224.90
1004.13	224.93
1004.42	224.92
1004.71	224.92
1004.99	224.92
1005.28	224.92
1005.57	224.91
1005.86	224.90
1006.15	224.90
1006.44	224.87
1006.72	224.89
1007.01	224.85
1007.30	224.86
1007.59	224.86
1007.88	224.88
1008.17	224.87
1008.45	224.85
1008.74	224.77
1009.03	224.70
1009.32	224.69
1009.60	224.67
1009.89	224.64
1010.18	224.59
1010.47	224.58
1010.76	224.58
1011.04	224.56
1011.33	224.54
1011.62	224.53
1011.91	224.52
1012.19	224.51
1012.48	224.50
1012.77	224.47
1013.05	224.53
1013.34	224.52
1013.63	224.53
1013.92	224.50
1014.20	224.49
1014.49	224.51
1014.78	224.55
1015.06	224.56
1015.35	224.59
1015.64	224.63
1015.92	224.63
1016.21	224.63
1016.50	224.64
1016.78	224.64
1017.07	224.67
1017.36	224.70
1017.64	224.69
1017.93	224.70
1018.22	224.69
1018.50	224.71
1018.79	224.72
1019.08	224.64
1019.36	224.64
1019.65	224.62
1019.93	224.67
1020.22	224.69
1020.51	224.75
1020.79	224.72
1021.08	224.71
1021.36	224.47
1021.65	225.02
1021.94	224.18
1022.22	224.82
1022.51	224.17
1022.79	225.12
1023.08	224.75
1023.36	225.78
1023.65	224.39
>>>>>End Processed Spectral Data<<<<<
