SpectraSuite Data File
++++++++++++++++++++++++++++++++++++
Date: Fri Feb 01 15:24:45 EST 2013
User: group
Dark Spectrum Present: No
Reference Spectrum Present: No
Number of Sampled Component Spectra: 1
Spectrometers: USB2E7196
Integration Time (usec): 35000 (USB2E7196)
Spectra Averaged: 100 (USB2E7196)
Boxcar Smoothing: 10 (USB2E7196)
Correct for Electrical Dark: No (USB2E7196)
Strobe/Lamp Enabled: No (USB2E7196)
Correct for Detector Non-linearity: No (USB2E7196)
Correct for Stray Light: No (USB2E7196)
Number of Pixels in Processed Spectrum: 2048
>>>>>Begin Processed Spectral Data<<<<<
339.09	0.00
339.48	215.11
339.86	217.04
340.24	217.87
340.63	218.99
341.01	222.55
341.39	222.05
341.78	223.15
342.16	224.65
342.54	225.11
342.93	213.51
343.31	224.30
343.69	224.83
344.07	225.30
344.46	225.73
344.84	226.14
345.22	226.39
345.60	226.63
345.99	226.85
346.37	227.01
346.75	227.11
347.13	227.19
347.52	227.22
347.90	227.34
348.28	227.39
348.66	227.43
349.05	227.47
349.43	227.53
349.81	227.58
350.19	227.60
350.57	227.67
350.96	227.75
351.34	227.83
351.72	227.94
352.10	228.02
352.48	228.12
352.87	228.18
353.25	228.24
353.63	228.30
354.01	228.39
354.39	228.47
354.77	228.56
355.15	228.65
355.54	228.75
355.92	228.79
356.30	228.86
356.68	229.01
357.06	229.05
357.44	229.11
357.82	229.21
358.20	229.31
358.58	229.35
358.97	229.39
359.35	229.47
359.73	229.54
360.11	229.59
360.49	229.62
360.87	229.64
361.25	229.68
361.63	229.78
362.01	229.79
362.39	229.78
362.77	229.81
363.15	229.82
363.53	229.83
363.91	229.86
364.29	229.90
364.67	229.77
365.05	229.78
365.43	229.80
365.81	229.81
366.19	229.84
366.57	229.87
366.95	229.84
367.33	229.79
367.71	229.77
368.09	229.75
368.47	229.74
368.85	229.69
369.23	229.68
369.61	229.60
369.99	229.61
370.37	229.59
370.75	229.58
371.13	229.52
371.51	229.43
371.89	229.36
372.27	229.31
372.65	229.30
373.03	229.26
373.41	229.14
373.78	229.07
374.16	228.95
374.54	228.88
374.92	228.81
375.30	228.76
375.68	228.65
376.06	228.59
376.44	228.53
376.82	228.48
377.19	228.43
377.57	228.35
377.95	228.25
378.33	228.14
378.71	228.03
379.09	227.99
379.47	227.96
379.84	227.88
380.22	227.75
380.60	227.65
380.98	227.54
381.36	227.50
381.73	227.39
382.11	227.36
382.49	227.23
382.87	227.17
383.25	227.08
383.62	227.15
384.00	227.06
384.38	226.98
384.76	226.94
385.13	226.92
385.51	226.86
385.89	226.78
386.27	226.76
386.64	226.70
387.02	226.60
387.40	226.57
387.78	226.56
388.15	226.56
388.53	226.52
388.91	226.50
389.29	226.44
389.66	226.42
390.04	226.37
390.42	226.39
390.79	226.39
391.17	226.41
391.55	226.30
391.92	226.28
392.30	226.27
392.68	226.26
393.05	226.22
393.43	226.21
393.81	226.24
394.18	226.23
394.56	226.26
394.94	226.33
395.31	226.34
395.69	226.41
396.06	226.44
396.44	226.50
396.82	226.54
397.19	226.66
397.57	226.71
397.95	226.79
398.32	226.86
398.70	226.93
399.07	227.00
399.45	227.08
399.82	227.16
400.20	227.24
400.58	227.34
400.95	227.41
401.33	227.57
401.70	227.73
402.08	227.91
402.45	228.02
402.83	228.13
403.20	228.24
403.58	228.31
403.95	228.49
404.33	228.64
404.71	228.77
405.08	228.98
405.46	229.12
405.83	229.27
406.21	229.41
406.58	229.60
406.96	229.77
407.33	229.93
407.70	230.14
408.08	230.41
408.45	230.64
408.83	230.87
409.20	231.05
409.58	231.24
409.95	231.44
410.33	231.71
410.70	231.95
411.08	232.25
411.45	232.56
411.82	232.85
412.20	233.18
412.57	233.62
412.95	233.92
413.32	234.37
413.69	234.79
414.07	235.23
414.44	235.69
414.82	236.18
415.19	236.73
415.56	237.28
415.94	237.84
416.31	238.47
416.68	239.10
417.06	239.84
417.43	240.51
417.81	241.34
418.18	242.12
418.55	243.00
418.93	243.90
419.30	244.81
419.67	245.73
420.04	246.69
420.42	247.68
420.79	248.85
421.16	249.94
421.54	251.14
421.91	252.37
422.28	253.62
422.66	254.93
423.03	256.23
423.40	257.57
423.77	258.95
424.15	260.37
424.52	261.85
424.89	263.44
425.26	265.02
425.64	266.44
426.01	268.02
426.38	269.67
426.75	271.32
427.13	273.04
427.50	274.87
427.87	276.75
428.24	278.56
428.61	280.29
428.99	282.27
429.36	284.40
429.73	286.46
430.10	288.53
430.47	290.59
430.85	292.75
431.22	295.01
431.59	297.44
431.96	299.71
432.33	302.22
432.70	304.61
433.08	307.34
433.45	309.93
433.82	312.54
434.19	315.41
434.56	318.23
434.93	320.90
435.30	323.54
435.68	326.43
436.05	329.30
436.42	332.10
436.79	334.58
437.16	337.25
437.53	340.09
437.90	342.84
438.27	345.64
438.64	348.43
439.01	351.02
439.38	353.25
439.75	355.40
440.13	357.88
440.50	360.23
440.87	362.11
441.24	364.06
441.61	366.23
441.98	367.75
442.35	369.56
442.72	371.42
443.09	373.21
443.46	374.19
443.83	374.79
444.20	375.33
444.57	376.20
444.94	376.46
445.31	376.81
445.68	377.14
446.05	377.14
446.42	376.78
446.79	376.36
447.16	375.90
447.53	375.58
447.90	374.41
448.27	373.24
448.64	371.65
449.01	370.54
449.37	368.55
449.74	366.65
450.11	364.37
450.48	361.89
450.85	359.37
451.22	357.21
451.59	355.18
451.96	353.22
452.33	350.59
452.70	348.22
453.07	345.35
453.43	342.49
453.80	339.73
454.17	337.05
454.54	334.46
454.91	331.72
455.28	329.02
455.65	326.55
456.02	324.08
456.38	321.95
456.75	319.30
457.12	317.07
457.49	314.84
457.86	312.65
458.23	310.79
458.59	308.70
458.96	306.65
459.33	304.82
459.70	302.91
460.07	301.41
460.43	299.74
460.80	298.15
461.17	296.68
461.54	295.17
461.91	293.73
462.27	292.26
462.64	291.03
463.01	289.70
463.38	288.38
463.74	287.02
464.11	285.87
464.48	284.83
464.85	283.69
465.21	282.81
465.58	281.88
465.95	280.79
466.32	279.87
466.68	278.93
467.05	277.99
467.42	277.12
467.78	276.19
468.15	275.28
468.52	274.57
468.88	273.71
469.25	272.98
469.62	272.33
469.98	271.68
470.35	271.06
470.72	270.46
471.08	269.80
471.45	269.24
471.82	268.66
472.18	268.05
472.55	267.62
472.92	267.07
473.28	266.62
473.65	266.16
474.02	265.73
474.38	265.40
474.75	265.05
475.11	264.71
475.48	264.43
475.85	264.22
476.21	263.98
476.58	263.82
476.94	263.66
477.31	263.50
477.67	263.32
478.04	263.20
478.41	263.13
478.77	263.16
479.14	263.10
479.50	263.10
479.87	263.16
480.23	263.24
480.60	263.34
480.96	263.45
481.33	263.64
481.69	263.83
482.06	264.00
482.42	264.23
482.79	264.49
483.15	264.82
483.52	265.18
483.88	265.49
484.25	265.86
484.61	266.28
484.98	266.71
485.34	267.33
485.71	267.90
486.07	268.46
486.44	269.07
486.80	269.78
487.17	270.51
487.53	271.32
487.90	272.17
488.26	273.10
488.62	274.05
488.99	275.03
489.35	276.08
489.72	277.14
490.08	278.32
490.44	279.55
490.81	280.85
491.17	282.19
491.54	283.68
491.90	285.21
492.26	286.87
492.63	288.66
492.99	290.40
493.36	292.31
493.72	294.38
494.08	296.48
494.45	298.76
494.81	301.15
495.17	303.54
495.54	306.11
495.90	308.78
496.26	311.58
496.63	314.56
496.99	317.72
497.35	321.03
497.72	324.39
498.08	327.95
498.44	331.62
498.80	335.52
499.17	339.59
499.53	343.73
499.89	348.07
500.26	352.51
500.62	357.20
500.98	362.15
501.34	367.23
501.71	372.55
502.07	377.96
502.43	383.54
502.79	389.39
503.16	395.45
503.52	401.73
503.88	408.17
504.24	414.82
504.60	421.68
504.97	428.73
505.33	436.11
505.69	443.72
506.05	451.51
506.41	459.44
506.78	467.58
507.14	476.04
507.50	484.73
507.86	493.75
508.22	502.93
508.59	512.12
508.95	521.74
509.31	531.48
509.67	541.56
510.03	551.83
510.39	562.39
510.75	573.26
511.12	584.25
511.48	595.52
511.84	606.94
512.20	618.43
512.56	630.46
512.92	642.75
513.28	655.10
513.64	667.61
514.00	680.32
514.37	693.21
514.73	706.37
515.09	719.48
515.45	732.84
515.81	746.42
516.17	760.44
516.53	774.54
516.89	788.79
517.25	803.01
517.61	817.50
517.97	831.98
518.33	846.43
518.69	861.21
519.05	876.22
519.41	891.36
519.77	906.99
520.13	922.57
520.49	937.88
520.85	953.44
521.21	969.15
521.57	985.43
521.93	1001.40
522.29	1017.77
522.65	1034.02
523.01	1050.26
523.37	1066.41
523.73	1082.64
524.09	1098.81
524.45	1115.14
524.81	1131.86
525.17	1148.79
525.53	1165.82
525.89	1182.67
526.25	1199.47
526.61	1215.96
526.97	1232.83
527.33	1249.31
527.68	1265.81
528.04	1282.34
528.40	1298.99
528.76	1316.26
529.12	1332.86
529.48	1349.70
529.84	1365.78
530.20	1382.57
530.56	1399.74
530.91	1417.14
531.27	1434.04
531.63	1450.63
531.99	1467.40
532.35	1483.49
532.71	1499.37
533.07	1515.63
533.42	1531.62
533.78	1547.80
534.14	1564.15
534.50	1579.43
534.86	1595.44
535.21	1610.72
535.57	1626.74
535.93	1642.31
536.29	1656.97
536.65	1672.12
537.00	1686.92
537.36	1702.26
537.72	1716.92
538.08	1731.26
538.44	1745.05
538.79	1758.87
539.15	1772.62
539.51	1786.35
539.87	1800.82
540.22	1814.65
540.58	1828.54
540.94	1842.07
541.29	1855.11
541.65	1867.82
542.01	1881.26
542.37	1893.51
542.72	1905.89
543.08	1917.71
543.44	1930.12
543.79	1941.49
544.15	1952.54
544.51	1964.20
544.87	1975.26
545.22	1985.98
545.58	1996.27
545.94	2006.01
546.29	2015.97
546.65	2025.60
547.01	2034.87
547.36	2043.54
547.72	2052.02
548.07	2059.84
548.43	2067.92
548.79	2075.83
549.14	2083.42
549.50	2090.86
549.86	2098.60
550.21	2106.08
550.57	2113.33
550.92	2119.85
551.28	2126.90
551.64	2133.99
551.99	2140.64
552.35	2146.81
552.70	2152.96
553.06	2158.94
553.41	2165.43
553.77	2171.51
554.13	2177.75
554.48	2183.82
554.84	2189.13
555.19	2194.53
555.55	2199.69
555.90	2204.13
556.26	2208.93
556.61	2213.73
556.97	2217.73
557.32	2221.99
557.68	2226.13
558.03	2230.35
558.39	2234.29
558.74	2238.84
559.10	2242.68
559.45	2246.25
559.81	2250.61
560.16	2254.36
560.52	2257.50
560.87	2260.96
561.23	2263.40
561.58	2266.28
561.94	2268.82
562.29	2271.36
562.64	2273.82
563.00	2276.39
563.35	2280.00
563.71	2283.15
564.06	2286.30
564.42	2289.16
564.77	2291.57
565.12	2293.76
565.48	2295.63
565.83	2297.13
566.19	2298.56
566.54	2299.55
566.89	2300.71
567.25	2301.17
567.60	2302.61
567.96	2304.36
568.31	2305.18
568.66	2306.45
569.02	2306.99
569.37	2307.31
569.72	2308.03
570.08	2308.22
570.43	2308.28
570.78	2307.46
571.14	2306.01
571.49	2304.66
571.84	2304.36
572.20	2303.18
572.55	2302.13
572.90	2300.60
573.26	2299.35
573.61	2297.43
573.96	2295.46
574.31	2292.34
574.67	2289.33
575.02	2285.49
575.37	2282.06
575.72	2278.10
576.08	2274.72
576.43	2271.35
576.78	2267.57
577.13	2264.32
577.49	2261.22
577.84	2257.54
578.19	2253.72
578.54	2249.97
578.90	2245.60
579.25	2240.04
579.60	2234.86
579.95	2229.75
580.30	2224.69
580.66	2219.30
581.01	2214.42
581.36	2209.48
581.71	2205.26
582.06	2200.80
582.42	2196.32
582.77	2191.00
583.12	2186.34
583.47	2181.32
583.82	2176.20
584.17	2170.87
584.53	2165.26
584.88	2159.42
585.23	2153.45
585.58	2148.03
585.93	2142.47
586.28	2137.49
586.63	2132.36
586.98	2127.30
587.34	2122.51
587.69	2117.34
588.04	2112.13
588.39	2106.34
588.74	2099.95
589.09	2093.74
589.44	2086.72
589.79	2080.67
590.14	2075.05
590.49	2068.39
590.84	2062.20
591.19	2056.16
591.54	2049.71
591.89	2042.24
592.25	2035.52
592.60	2028.44
592.95	2020.72
593.30	2013.36
593.65	2005.93
594.00	1998.83
594.35	1991.55
594.70	1983.52
595.05	1976.15
595.40	1968.72
595.75	1961.17
596.10	1954.67
596.45	1947.79
596.80	1941.73
597.15	1934.88
597.50	1927.54
597.85	1921.18
598.19	1914.24
598.54	1907.18
598.89	1900.41
599.24	1894.46
599.59	1887.62
599.94	1881.45
600.29	1875.14
600.64	1868.58
600.99	1860.93
601.34	1853.89
601.69	1846.90
602.04	1839.87
602.39	1832.60
602.74	1825.89
603.08	1819.06
603.43	1812.28
603.78	1805.01
604.13	1797.57
604.48	1790.23
604.83	1783.40
605.18	1776.21
605.53	1768.17
605.87	1760.02
606.22	1752.86
606.57	1744.93
606.92	1737.55
607.27	1730.17
607.62	1723.21
607.96	1715.89
608.31	1709.31
608.66	1701.67
609.01	1694.11
609.36	1686.53
609.70	1678.56
610.05	1670.40
610.40	1662.64
610.75	1654.30
611.10	1646.58
611.44	1638.32
611.79	1630.54
612.14	1621.87
612.49	1612.81
612.83	1604.55
613.18	1596.54
613.53	1588.28
613.88	1579.74
614.22	1571.45
614.57	1562.99
614.92	1554.88
615.27	1547.15
615.61	1538.75
615.96	1530.85
616.31	1523.19
616.65	1515.83
617.00	1508.26
617.35	1500.56
617.70	1492.26
618.04	1483.82
618.39	1475.55
618.74	1467.84
619.08	1459.46
619.43	1451.84
619.78	1444.93
620.12	1437.70
620.47	1430.14
620.82	1422.14
621.16	1414.81
621.51	1407.26
621.85	1399.55
622.20	1391.07
622.55	1382.73
622.89	1374.94
623.24	1367.23
623.59	1359.82
623.93	1352.24
624.28	1345.07
624.62	1337.44
624.97	1330.29
625.32	1323.53
625.66	1316.59
626.01	1309.33
626.35	1301.78
626.70	1294.05
627.04	1286.30
627.39	1278.49
627.73	1270.99
628.08	1263.84
628.43	1256.34
628.77	1248.95
629.12	1241.39
629.46	1234.17
629.81	1226.74
630.15	1219.47
630.50	1212.08
630.84	1203.90
631.19	1196.13
631.53	1188.51
631.88	1181.01
632.22	1173.36
632.57	1165.99
632.91	1158.47
633.26	1151.14
633.60	1143.88
633.95	1136.86
634.29	1129.83
634.64	1123.11
634.98	1115.77
635.32	1108.77
635.67	1102.31
636.01	1095.71
636.36	1088.91
636.70	1082.50
637.05	1075.94
637.39	1069.56
637.73	1063.10
638.08	1057.22
638.42	1051.23
638.77	1044.79
639.11	1038.22
639.45	1031.92
639.80	1025.29
640.14	1018.82
640.49	1012.33
640.83	1006.01
641.17	999.80
641.52	993.48
641.86	987.17
642.20	981.39
642.55	975.06
642.89	968.50
643.23	961.93
643.58	956.12
643.92	949.88
644.26	943.88
644.61	937.87
644.95	931.73
645.29	925.18
645.64	918.32
645.98	912.05
646.32	906.23
646.66	900.21
647.01	894.43
647.35	888.72
647.69	882.86
648.04	877.37
648.38	871.53
648.72	865.52
649.06	859.40
649.41	853.58
649.75	847.55
650.09	841.61
650.43	835.72
650.78	829.61
651.12	823.58
651.46	817.80
651.80	811.94
652.14	806.61
652.49	801.15
652.83	795.93
653.17	790.25
653.51	784.55
653.85	779.07
654.20	773.40
654.54	767.37
654.88	761.60
655.22	755.73
655.56	750.07
655.90	744.64
656.25	739.44
656.59	734.01
656.93	728.98
657.27	723.88
657.61	718.53
657.95	713.45
658.29	708.43
658.64	703.30
658.98	698.07
659.32	692.73
659.66	687.59
660.00	682.41
660.34	677.46
660.68	672.63
661.02	667.65
661.36	662.98
661.70	658.48
662.05	654.24
662.39	649.89
662.73	645.40
663.07	641.08
663.41	636.63
663.75	632.14
664.09	627.63
664.43	623.25
664.77	619.08
665.11	614.80
665.45	610.67
665.79	606.54
666.13	602.37
666.47	598.24
666.81	594.03
667.15	589.88
667.49	586.03
667.83	582.17
668.17	578.27
668.51	574.24
668.85	570.27
669.19	566.40
669.53	562.51
669.87	558.68
670.21	554.95
670.55	551.33
670.89	547.88
671.23	544.46
671.57	541.00
671.91	537.55
672.25	534.12
672.58	530.62
672.92	527.21
673.26	524.06
673.60	520.89
673.94	517.77
674.28	514.87
674.62	511.90
674.96	508.76
675.30	505.79
675.64	502.85
675.97	500.15
676.31	497.29
676.65	494.36
676.99	491.62
677.33	488.79
677.67	485.94
678.01	482.91
678.34	479.89
678.68	476.97
679.02	474.10
679.36	471.37
679.70	468.63
680.04	465.84
680.37	462.94
680.71	460.17
681.05	457.55
681.39	454.82
681.73	452.12
682.06	449.62
682.40	447.13
682.74	444.63
683.08	442.01
683.42	439.36
683.75	436.90
684.09	434.36
684.43	431.86
684.77	429.39
685.10	427.07
685.44	424.80
685.78	422.51
686.12	420.29
686.45	417.95
686.79	415.64
687.13	413.50
687.46	411.39
687.80	409.28
688.14	407.11
688.48	405.08
688.81	402.89
689.15	400.71
689.49	398.50
689.82	396.40
690.16	394.30
690.50	392.39
690.83	390.45
691.17	388.43
691.51	386.54
691.84	384.73
692.18	382.77
692.52	380.76
692.85	378.85
693.19	376.98
693.52	375.17
693.86	373.38
694.20	371.54
694.53	369.71
694.87	367.80
695.21	366.02
695.54	364.20
695.88	362.48
696.21	360.77
696.55	359.12
696.88	357.47
697.22	355.87
697.56	354.25
697.89	352.61
698.23	351.06
698.56	349.47
698.90	347.83
699.23	346.19
699.57	344.68
699.90	343.12
700.24	341.59
700.58	340.06
700.91	338.60
701.25	337.19
701.58	335.87
701.92	334.53
702.25	333.18
702.59	331.84
702.92	330.53
703.26	329.26
703.59	328.00
703.93	326.81
704.26	325.54
704.60	324.25
704.93	322.98
705.26	321.73
705.60	320.56
705.93	319.45
706.27	318.45
706.60	317.38
706.94	316.39
707.27	315.26
707.61	314.19
707.94	313.15
708.27	312.08
708.61	311.01
708.94	310.03
709.28	309.02
709.61	308.09
709.94	307.13
710.28	306.14
710.61	305.16
710.95	304.08
711.28	303.19
711.61	302.25
711.95	301.32
712.28	300.34
712.61	299.36
712.95	298.43
713.28	297.53
713.61	296.66
713.95	295.70
714.28	294.85
714.61	294.01
714.95	293.17
715.28	292.34
715.61	291.48
715.95	290.61
716.28	289.76
716.61	288.87
716.95	288.04
717.28	287.31
717.61	286.56
717.94	285.78
718.28	284.95
718.61	284.23
718.94	283.56
719.27	282.91
719.61	282.25
719.94	281.61
720.27	280.89
720.60	280.18
720.94	279.59
721.27	278.98
721.60	278.37
721.93	277.76
722.27	277.19
722.60	276.62
722.93	276.02
723.26	275.49
723.59	274.94
723.93	274.40
724.26	273.79
724.59	273.23
724.92	272.75
725.25	272.25
725.59	271.71
725.92	271.16
726.25	270.65
726.58	270.19
726.91	269.65
727.24	269.18
727.57	268.74
727.91	268.18
728.24	267.76
728.57	267.29
728.90	266.84
729.23	266.36
729.56	265.95
729.89	265.54
730.22	265.04
730.55	264.57
730.89	264.13
731.22	263.69
731.55	263.24
731.88	262.76
732.21	262.35
732.54	261.92
732.87	261.51
733.20	261.12
733.53	260.71
733.86	260.35
734.19	259.96
734.52	259.59
734.85	259.32
735.18	258.89
735.51	258.50
735.84	258.12
736.17	257.77
736.50	257.34
736.83	257.12
737.16	256.79
737.49	256.51
737.82	256.16
738.15	255.83
738.48	255.49
738.81	255.21
739.14	254.90
739.47	254.59
739.80	254.29
740.13	253.98
740.46	253.67
740.79	253.36
741.12	253.05
741.45	252.74
741.78	252.40
742.11	252.11
742.44	251.80
742.77	251.57
743.10	251.27
743.43	250.98
743.75	250.56
744.08	250.43
744.41	250.13
744.74	249.88
745.07	249.64
745.40	249.41
745.73	249.20
746.06	248.92
746.39	248.65
746.71	248.38
747.04	248.09
747.37	247.83
747.70	247.58
748.03	247.33
748.36	247.12
748.68	246.85
749.01	246.62
749.34	246.42
749.67	246.15
750.00	245.95
750.33	245.81
750.65	245.63
750.98	245.30
751.31	245.10
751.64	244.89
751.97	244.67
752.29	244.41
752.62	244.13
752.95	243.91
753.28	243.69
753.60	243.52
753.93	243.32
754.26	243.14
754.59	242.92
754.91	242.71
755.24	242.48
755.57	242.31
755.90	242.14
756.22	241.93
756.55	241.73
756.88	241.54
757.20	241.29
757.53	241.08
757.86	240.88
758.19	240.74
758.51	240.54
758.84	240.37
759.17	240.21
759.49	240.04
759.82	239.92
760.15	239.80
760.47	239.62
760.80	239.47
761.13	239.33
761.45	239.20
761.78	239.04
762.11	238.90
762.43	238.72
762.76	238.54
763.08	238.38
763.41	238.24
763.74	238.11
764.06	237.98
764.39	237.84
764.71	237.71
765.04	237.50
765.37	237.36
765.69	237.22
766.02	237.12
766.34	237.00
766.67	236.82
767.00	236.73
767.32	236.67
767.65	236.60
767.97	236.45
768.30	236.32
768.62	236.20
768.95	236.04
769.27	235.95
769.60	235.86
769.92	235.76
770.25	235.66
770.57	235.47
770.90	235.33
771.22	235.20
771.55	235.15
771.87	235.06
772.20	234.96
772.52	234.91
772.85	234.94
773.17	234.86
773.50	234.75
773.82	234.63
774.15	234.47
774.47	234.35
774.80	234.26
775.12	234.15
775.45	234.10
775.77	234.05
776.09	233.97
776.42	233.91
776.74	233.85
777.07	233.79
777.39	233.74
777.72	233.69
778.04	233.65
778.36	233.56
778.69	233.54
779.01	233.47
779.33	233.38
779.66	233.19
779.98	233.12
780.31	233.07
780.63	233.05
780.95	233.02
781.28	232.96
781.60	232.89
781.92	232.83
782.25	232.78
782.57	232.73
782.89	232.66
783.22	232.60
783.54	232.53
783.86	232.44
784.19	232.41
784.51	232.39
784.83	232.30
785.16	232.23
785.48	232.17
785.80	232.13
786.12	232.08
786.45	232.03
786.77	232.01
787.09	231.98
787.42	231.88
787.74	231.89
788.06	231.82
788.38	231.77
788.71	231.74
789.03	231.71
789.35	231.69
789.67	231.63
789.99	231.60
790.32	231.54
790.64	231.56
790.96	231.62
791.28	231.56
791.61	231.54
791.93	231.53
792.25	231.49
792.57	231.54
792.89	231.49
793.21	231.46
793.54	231.40
793.86	231.33
794.18	231.32
794.50	231.23
794.82	231.22
795.14	231.22
795.47	231.18
795.79	231.16
796.11	231.08
796.43	231.06
796.75	231.04
797.07	231.00
797.39	230.93
797.71	230.80
798.04	230.75
798.36	230.73
798.68	230.67
799.00	230.63
799.32	230.55
799.64	230.53
799.96	230.50
800.28	230.50
800.60	230.50
800.92	230.47
801.24	230.43
801.56	230.41
801.89	230.36
802.21	230.36
802.53	230.29
802.85	230.31
803.17	230.35
803.49	230.29
803.81	230.28
804.13	230.24
804.45	230.20
804.77	230.23
805.09	230.20
805.41	230.16
805.73	230.12
806.05	230.06
806.37	230.03
806.69	230.00
807.01	229.95
807.33	229.91
807.65	229.85
807.97	229.85
808.28	229.80
808.60	229.78
808.92	229.73
809.24	229.74
809.56	229.67
809.88	229.60
810.20	229.58
810.52	229.57
810.84	229.54
811.16	229.48
811.48	229.39
811.80	229.38
812.12	229.36
812.43	229.37
812.75	229.35
813.07	229.32
813.39	229.30
813.71	229.25
814.03	229.24
814.35	229.21
814.67	229.18
814.98	229.15
815.30	229.13
815.62	229.10
815.94	229.00
816.26	229.04
816.58	229.00
816.89	229.00
817.21	228.95
817.53	228.92
817.85	228.95
818.17	228.95
818.48	228.89
818.80	228.88
819.12	228.83
819.44	228.82
819.76	228.80
820.07	228.79
820.39	228.78
820.71	228.75
821.03	228.75
821.34	228.72
821.66	228.76
821.98	228.73
822.30	228.75
822.61	228.84
822.93	228.76
823.25	228.75
823.57	228.73
823.88	228.73
824.20	228.74
824.52	228.71
824.83	228.72
825.15	228.72
825.47	228.72
825.79	228.74
826.10	228.72
826.42	228.70
826.74	228.67
827.05	228.66
827.37	228.66
827.69	228.65
828.00	228.64
828.32	228.59
828.64	228.58
828.95	228.61
829.27	228.56
829.58	228.58
829.90	228.59
830.22	228.56
830.53	228.53
830.85	228.49
831.17	228.48
831.48	228.45
831.80	228.40
832.11	228.39
832.43	228.37
832.75	228.34
833.06	228.38
833.38	228.33
833.69	228.34
834.01	228.35
834.32	228.37
834.64	228.34
834.96	228.36
835.27	228.38
835.59	228.34
835.90	228.33
836.22	228.31
836.53	228.27
836.85	228.28
837.16	228.39
837.48	228.39
837.79	228.40
838.11	228.41
838.42	228.44
838.74	228.44
839.05	228.42
839.37	228.42
839.68	228.34
840.00	228.36
840.31	228.36
840.63	228.33
840.94	228.27
841.26	228.28
841.57	228.26
841.88	228.20
842.20	228.16
842.51	228.15
842.83	228.15
843.14	228.25
843.46	228.25
843.77	228.15
844.08	228.15
844.40	228.13
844.71	228.09
845.03	228.07
845.34	228.04
845.65	228.03
845.97	228.02
846.28	228.02
846.60	228.02
846.91	227.99
847.22	227.94
847.54	227.96
847.85	227.95
848.16	227.96
848.48	227.97
848.79	228.04
849.10	228.05
849.42	228.03
849.73	227.92
850.04	227.93
850.36	227.94
850.67	227.96
850.98	227.95
851.30	227.97
851.61	227.95
851.92	227.96
852.23	228.02
852.55	228.05
852.86	228.07
853.17	228.07
853.49	228.08
853.80	228.11
854.11	228.13
854.42	228.13
854.74	228.10
855.05	228.09
855.36	228.02
855.67	228.00
855.99	228.01
856.30	228.13
856.61	228.09
856.92	228.09
857.23	228.08
857.55	228.06
857.86	228.07
858.17	228.09
858.48	228.09
858.79	228.06
859.11	228.03
859.42	228.00
859.73	228.00
860.04	228.02
860.35	228.03
860.66	227.98
860.98	227.98
861.29	227.99
861.60	227.98
861.91	228.00
862.22	228.00
862.53	227.98
862.84	227.85
863.16	227.89
863.47	227.85
863.78	227.83
864.09	227.83
864.40	227.83
864.71	227.83
865.02	227.83
865.33	227.81
865.64	227.80
865.95	227.81
866.27	227.86
866.58	227.82
866.89	227.83
867.20	227.79
867.51	227.77
867.82	227.74
868.13	227.77
868.44	227.74
868.75	227.76
869.06	227.76
869.37	227.76
869.68	227.73
869.99	227.74
870.30	227.76
870.61	227.78
870.92	227.76
871.23	227.72
871.54	227.72
871.85	227.73
872.16	227.73
872.47	227.74
872.78	227.70
873.09	227.71
873.40	227.67
873.71	227.70
874.02	227.71
874.33	227.74
874.64	227.73
874.95	227.73
875.26	227.69
875.56	227.71
875.87	227.70
876.18	227.66
876.49	227.73
876.80	227.71
877.11	227.67
877.42	227.66
877.73	227.68
878.04	227.64
878.35	227.61
878.66	227.59
878.96	227.56
879.27	227.53
879.58	227.55
879.89	227.55
880.20	227.59
880.51	227.59
880.82	227.52
881.12	227.52
881.43	227.52
881.74	227.52
882.05	227.51
882.36	227.54
882.67	227.58
882.97	227.47
883.28	227.48
883.59	227.50
883.90	227.52
884.21	227.53
884.51	227.56
884.82	227.58
885.13	227.56
885.44	227.55
885.74	227.57
886.05	227.56
886.36	227.57
886.67	227.51
886.98	227.53
887.28	227.57
887.59	227.57
887.90	227.57
888.20	227.56
888.51	227.59
888.82	227.59
889.13	227.61
889.43	227.71
889.74	227.73
890.05	227.70
890.35	227.67
890.66	227.66
890.97	227.65
891.28	227.61
891.58	227.64
891.89	227.65
892.20	227.61
892.50	227.59
892.81	227.59
893.12	227.64
893.42	227.66
893.73	227.64
894.04	227.64
894.34	227.65
894.65	227.63
894.95	227.59
895.26	227.60
895.57	227.61
895.87	227.53
896.18	227.51
896.48	227.54
896.79	227.55
897.10	227.56
897.40	227.59
897.71	227.64
898.01	227.62
898.32	227.65
898.63	227.67
898.93	227.67
899.24	227.67
899.54	227.65
899.85	227.60
900.15	227.63
900.46	227.64
900.76	227.68
901.07	227.69
901.38	227.69
901.68	227.67
901.99	227.62
902.29	227.60
902.60	227.61
902.90	227.59
903.21	227.58
903.51	227.57
903.82	227.54
904.12	227.52
904.43	227.56
904.73	227.52
905.03	227.54
905.34	227.62
905.64	227.62
905.95	227.60
906.25	227.60
906.56	227.59
906.86	227.55
907.17	227.51
907.47	227.51
907.77	227.50
908.08	227.43
908.38	227.43
908.69	227.43
908.99	227.45
909.30	227.41
909.60	227.40
909.90	227.40
910.21	227.39
910.51	227.36
910.81	227.31
911.12	227.32
911.42	227.30
911.73	227.19
912.03	227.19
912.33	227.21
912.64	227.19
912.94	227.17
913.24	227.15
913.55	227.13
913.85	227.11
914.15	227.11
914.46	227.15
914.76	227.14
915.06	227.14
915.37	227.08
915.67	227.08
915.97	227.08
916.27	227.06
916.58	227.06
916.88	227.06
917.18	227.04
917.49	227.10
917.79	227.08
918.09	227.05
918.39	227.10
918.70	227.11
919.00	227.12
919.30	227.18
919.60	227.20
919.91	227.18
920.21	227.18
920.51	227.18
920.81	227.16
921.12	227.17
921.42	227.15
921.72	227.17
922.02	227.17
922.32	227.18
922.63	227.16
922.93	227.20
923.23	227.21
923.53	227.24
923.83	227.20
924.13	227.22
924.44	227.25
924.74	227.21
925.04	227.19
925.34	227.19
925.64	227.14
925.94	227.14
926.24	227.22
926.55	227.22
926.85	227.23
927.15	227.23
927.45	227.26
927.75	227.27
928.05	227.28
928.35	227.30
928.65	227.34
928.95	227.38
929.26	227.36
929.56	227.40
929.86	227.41
930.16	227.42
930.46	227.39
930.76	227.37
931.06	227.38
931.36	227.36
931.66	227.38
931.96	227.40
932.26	227.38
932.56	227.37
932.86	227.38
933.16	227.39
933.46	227.41
933.76	227.41
934.06	227.43
934.36	227.46
934.66	227.46
934.96	227.44
935.26	227.42
935.56	227.43
935.86	227.35
936.16	227.34
936.46	227.31
936.76	227.33
937.06	227.33
937.36	227.29
937.66	227.30
937.96	227.30
938.26	227.28
938.56	227.29
938.86	227.29
939.16	227.30
939.46	227.31
939.76	227.31
940.06	227.29
940.35	227.29
940.65	227.24
940.95	227.23
941.25	227.16
941.55	227.15
941.85	227.14
942.15	227.18
942.45	227.21
942.75	227.20
943.04	227.18
943.34	227.23
943.64	227.25
943.94	227.22
944.24	227.21
944.54	227.21
944.84	227.22
945.13	227.18
945.43	227.14
945.73	227.11
946.03	227.07
946.33	227.05
946.62	227.02
946.92	227.05
947.22	227.06
947.52	227.11
947.82	227.12
948.11	227.09
948.41	227.07
948.71	227.03
949.01	227.04
949.31	227.07
949.60	227.01
949.90	227.04
950.20	227.06
950.50	227.04
950.79	227.02
951.09	227.02
951.39	227.01
951.69	227.03
951.98	227.06
952.28	227.08
952.58	227.09
952.87	227.08
953.17	227.06
953.47	227.06
953.76	227.03
954.06	227.03
954.36	227.04
954.66	227.04
954.95	227.06
955.25	227.07
955.55	227.04
955.84	227.04
956.14	227.03
956.44	227.02
956.73	227.02
957.03	227.02
957.32	227.00
957.62	226.99
957.92	227.01
958.21	226.94
958.51	227.06
958.81	227.06
959.10	227.05
959.40	227.09
959.69	227.11
959.99	227.13
960.29	227.15
960.58	227.12
960.88	227.18
961.17	227.19
961.47	227.21
961.76	227.24
962.06	227.26
962.36	227.25
962.65	227.28
962.95	227.30
963.24	227.32
963.54	227.36
963.83	227.38
964.13	227.40
964.42	227.42
964.72	227.33
965.01	227.36
965.31	227.38
965.60	227.36
965.90	227.41
966.19	227.39
966.49	227.42
966.78	227.43
967.08	227.41
967.37	227.42
967.67	227.40
967.96	227.41
968.26	227.40
968.55	227.44
968.85	227.44
969.14	227.43
969.43	227.43
969.73	227.41
970.02	227.42
970.32	227.41
970.61	227.43
970.91	227.43
971.20	227.44
971.49	227.42
971.79	227.43
972.08	227.35
972.38	227.39
972.67	227.35
972.96	227.36
973.26	227.35
973.55	227.37
973.85	227.35
974.14	227.35
974.43	227.38
974.73	227.34
975.02	227.35
975.31	227.38
975.61	227.38
975.90	227.35
976.19	227.31
976.49	227.32
976.78	227.33
977.07	227.30
977.37	227.27
977.66	227.29
977.95	227.28
978.24	227.31
978.54	227.33
978.83	227.32
979.12	227.32
979.42	227.30
979.71	227.25
980.00	227.27
980.29	227.25
980.59	227.21
980.88	227.26
981.17	227.23
981.46	227.18
981.76	227.17
982.05	227.23
982.34	227.24
982.63	227.23
982.93	227.18
983.22	227.21
983.51	227.23
983.80	227.24
984.09	227.23
984.39	227.22
984.68	227.16
984.97	227.16
985.26	227.13
985.55	227.11
985.85	227.12
986.14	227.11
986.43	227.10
986.72	227.11
987.01	227.04
987.30	227.03
987.59	227.03
987.89	227.04
988.18	226.96
988.47	226.98
988.76	226.97
989.05	226.98
989.34	226.95
989.63	226.96
989.92	226.90
990.22	226.89
990.51	226.85
990.80	226.86
991.09	226.88
991.38	226.89
991.67	226.92
991.96	226.91
992.25	226.94
992.54	226.94
992.83	226.95
993.12	226.92
993.41	226.94
993.70	226.99
993.99	227.02
994.28	227.04
994.58	227.07
994.87	227.04
995.16	227.04
995.45	227.04
995.74	227.02
996.03	227.06
996.32	227.08
996.61	227.14
996.90	227.17
997.19	227.15
997.48	227.19
997.77	227.15
998.06	227.17
998.34	227.18
998.63	227.15
998.92	227.16
999.21	227.23
999.50	227.24
999.79	227.16
1000.08	227.16
1000.37	227.18
1000.66	227.14
1000.95	227.19
1001.24	227.17
1001.53	227.21
1001.82	227.23
1002.11	227.21
1002.40	227.21
1002.68	227.23
1002.97	227.27
1003.26	227.26
1003.55	227.25
1003.84	227.29
1004.13	227.34
1004.42	227.30
1004.71	227.32
1004.99	227.31
1005.28	227.33
1005.57	227.33
1005.86	227.38
1006.15	227.35
1006.44	227.33
1006.72	227.36
1007.01	227.35
1007.30	227.42
1007.59	227.40
1007.88	227.39
1008.17	227.44
1008.45	227.43
1008.74	227.39
1009.03	227.36
1009.32	227.37
1009.60	227.38
1009.89	227.36
1010.18	227.27
1010.47	227.30
1010.76	227.34
1011.04	227.35
1011.33	227.34
1011.62	227.35
1011.91	227.35
1012.19	227.34
1012.48	227.36
1012.77	227.32
1013.05	227.39
1013.34	227.39
1013.63	227.38
1013.92	227.39
1014.20	227.33
1014.49	227.35
1014.78	227.35
1015.06	227.32
1015.35	227.31
1015.64	227.28
1015.92	227.30
1016.21	227.31
1016.50	227.29
1016.78	227.26
1017.07	227.26
1017.36	227.24
1017.64	227.23
1017.93	227.22
1018.22	227.25
1018.50	227.23
1018.79	227.23
1019.08	227.14
1019.36	227.11
1019.65	227.08
1019.93	227.09
1020.22	227.13
1020.51	227.16
1020.79	227.13
1021.08	227.09
1021.36	226.90
1021.65	226.93
1021.94	226.97
1022.22	226.95
1022.51	226.75
1022.79	227.30
1023.08	227.60
1023.36	228.03
1023.65	226.73
>>>>>End Processed Spectral Data<<<<<
