SpectraSuite Data File
++++++++++++++++++++++++++++++++++++
Date: Fri Feb 01 15:39:01 EST 2013
User: group
Dark Spectrum Present: No
Reference Spectrum Present: No
Number of Sampled Component Spectra: 1
Spectrometers: USB2E7196
Integration Time (usec): 35000 (USB2E7196)
Spectra Averaged: 100 (USB2E7196)
Boxcar Smoothing: 10 (USB2E7196)
Correct for Electrical Dark: No (USB2E7196)
Strobe/Lamp Enabled: No (USB2E7196)
Correct for Detector Non-linearity: No (USB2E7196)
Correct for Stray Light: No (USB2E7196)
Number of Pixels in Processed Spectrum: 2048
>>>>>Begin Processed Spectral Data<<<<<
339.09	0.00
339.48	214.88
339.86	216.38
340.24	217.54
340.63	219.48
341.01	222.01
341.39	221.97
341.78	222.91
342.16	224.23
342.54	224.54
342.93	213.07
343.31	223.84
343.69	224.39
344.07	224.86
344.46	225.29
344.84	225.66
345.22	225.88
345.60	226.10
345.99	226.28
346.37	226.37
346.75	226.48
347.13	226.53
347.52	226.60
347.90	226.64
348.28	226.67
348.66	226.69
349.05	226.69
349.43	226.72
349.81	226.77
350.19	226.83
350.57	226.89
350.96	226.99
351.34	227.07
351.72	227.14
352.10	227.19
352.48	227.27
352.87	227.29
353.25	227.39
353.63	227.47
354.01	227.55
354.39	227.70
354.77	227.76
355.15	227.88
355.54	227.95
355.92	228.02
356.30	228.09
356.68	228.21
357.06	228.28
357.44	228.35
357.82	228.41
358.20	228.47
358.58	228.55
358.97	228.59
359.35	228.69
359.73	228.78
360.11	228.85
360.49	228.90
360.87	228.97
361.25	229.00
361.63	229.06
362.01	229.10
362.39	229.12
362.77	229.18
363.15	229.21
363.53	229.24
363.91	229.28
364.29	229.30
364.67	229.26
365.05	229.28
365.43	229.30
365.81	229.33
366.19	229.39
366.57	229.40
366.95	229.42
367.33	229.37
367.71	229.35
368.09	229.36
368.47	229.36
368.85	229.33
369.23	229.35
369.61	229.30
369.99	229.30
370.37	229.28
370.75	229.30
371.13	229.26
371.51	229.21
371.89	229.13
372.27	229.13
372.65	229.12
373.03	229.05
373.41	229.02
373.78	228.97
374.16	228.87
374.54	228.80
374.92	228.75
375.30	228.71
375.68	228.61
376.06	228.57
376.44	228.50
376.82	228.45
377.19	228.36
377.57	228.30
377.95	228.21
378.33	228.13
378.71	227.99
379.09	227.92
379.47	227.88
379.84	227.79
380.22	227.68
380.60	227.57
380.98	227.51
381.36	227.44
381.73	227.36
382.11	227.32
382.49	227.24
382.87	227.20
383.25	227.12
383.62	227.20
384.00	227.10
384.38	227.00
384.76	226.95
385.13	226.93
385.51	226.88
385.89	226.83
386.27	226.76
386.64	226.73
387.02	226.69
387.40	226.61
387.78	226.58
388.15	226.58
388.53	226.52
388.91	226.48
389.29	226.46
389.66	226.46
390.04	226.43
390.42	226.43
390.79	226.35
391.17	226.35
391.55	226.22
391.92	226.26
392.30	226.29
392.68	226.25
393.05	226.24
393.43	226.25
393.81	226.27
394.18	226.28
394.56	226.27
394.94	226.30
395.31	226.31
395.69	226.38
396.06	226.39
396.44	226.43
396.82	226.46
397.19	226.51
397.57	226.49
397.95	226.52
398.32	226.52
398.70	226.60
399.07	226.69
399.45	226.76
399.82	226.79
400.20	226.81
400.58	226.91
400.95	226.95
401.33	227.03
401.70	227.16
402.08	227.23
402.45	227.35
402.83	227.47
403.20	227.61
403.58	227.68
403.95	227.81
404.33	227.95
404.71	228.07
405.08	228.25
405.46	228.40
405.83	228.53
406.21	228.68
406.58	228.82
406.96	228.94
407.33	229.11
407.70	229.30
408.08	229.57
408.45	229.81
408.83	230.02
409.20	230.24
409.58	230.43
409.95	230.72
410.33	231.00
410.70	231.22
411.08	231.50
411.45	231.81
411.82	232.11
412.20	232.49
412.57	232.93
412.95	233.22
413.32	233.63
413.69	234.05
414.07	234.50
414.44	234.99
414.82	235.51
415.19	236.06
415.56	236.63
415.94	237.21
416.31	237.82
416.68	238.49
417.06	239.17
417.43	239.83
417.81	240.61
418.18	241.38
418.55	242.23
418.93	243.06
419.30	244.01
419.67	244.95
420.04	245.92
420.42	246.87
420.79	248.07
421.16	249.25
421.54	250.49
421.91	251.69
422.28	252.95
422.66	254.27
423.03	255.58
423.40	256.94
423.77	258.31
424.15	259.73
424.52	261.21
424.89	262.83
425.26	264.41
425.64	265.84
426.01	267.40
426.38	269.06
426.75	270.76
427.13	272.44
427.50	274.24
427.87	276.09
428.24	277.94
428.61	279.66
428.99	281.61
429.36	283.68
429.73	285.75
430.10	287.77
430.47	289.83
430.85	291.97
431.22	294.17
431.59	296.59
431.96	298.87
432.33	301.34
432.70	303.71
433.08	306.50
433.45	309.15
433.82	311.77
434.19	314.66
434.56	317.49
434.93	320.16
435.30	322.78
435.68	325.66
436.05	328.52
436.42	331.34
436.79	333.79
437.16	336.52
437.53	339.38
437.90	342.22
438.27	344.96
438.64	347.76
439.01	350.36
439.38	352.55
439.75	354.67
440.13	357.18
440.50	359.54
440.87	361.38
441.24	363.34
441.61	365.51
441.98	367.00
442.35	368.78
442.72	370.65
443.09	372.50
443.46	373.54
443.83	374.15
444.20	374.64
444.57	375.55
444.94	375.81
445.31	376.12
445.68	376.43
446.05	376.45
446.42	376.09
446.79	375.65
447.16	375.23
447.53	374.88
447.90	373.68
448.27	372.49
448.64	370.92
449.01	369.76
449.37	367.81
449.74	365.90
450.11	363.66
450.48	361.18
450.85	358.63
451.22	356.45
451.59	354.39
451.96	352.45
452.33	349.83
452.70	347.51
453.07	344.66
453.43	341.80
453.80	339.02
454.17	336.33
454.54	333.83
454.91	331.08
455.28	328.46
455.65	326.00
456.02	323.56
456.38	321.41
456.75	318.74
457.12	316.45
457.49	314.25
457.86	312.07
458.23	310.23
458.59	308.18
458.96	306.12
459.33	304.26
459.70	302.42
460.07	300.90
460.43	299.15
460.80	297.58
461.17	296.09
461.54	294.59
461.91	293.16
462.27	291.67
462.64	290.45
463.01	289.09
463.38	287.80
463.74	286.39
464.11	285.24
464.48	284.20
464.85	283.10
465.21	282.25
465.58	281.33
465.95	280.19
466.32	279.27
466.68	278.32
467.05	277.45
467.42	276.50
467.78	275.57
468.15	274.66
468.52	273.99
468.88	273.12
469.25	272.42
469.62	271.75
469.98	271.11
470.35	270.47
470.72	269.87
471.08	269.22
471.45	268.71
471.82	268.17
472.18	267.59
472.55	267.19
472.92	266.66
473.28	266.19
473.65	265.77
474.02	265.32
474.38	264.99
474.75	264.65
475.11	264.33
475.48	264.07
475.85	263.91
476.21	263.66
476.58	263.49
476.94	263.34
477.31	263.21
477.67	263.10
478.04	262.97
478.41	262.92
478.77	262.95
479.14	262.93
479.50	262.94
479.87	263.01
480.23	263.06
480.60	263.12
480.96	263.21
481.33	263.44
481.69	263.63
482.06	263.83
482.42	264.10
482.79	264.40
483.15	264.71
483.52	265.06
483.88	265.45
484.25	265.86
484.61	266.27
484.98	266.72
485.34	267.23
485.71	267.84
486.07	268.44
486.44	269.03
486.80	269.73
487.17	270.46
487.53	271.25
487.90	272.08
488.26	273.05
488.62	274.07
488.99	275.02
489.35	276.10
489.72	277.22
490.08	278.40
490.44	279.62
490.81	280.98
491.17	282.31
491.54	283.76
491.90	285.30
492.26	286.95
492.63	288.72
492.99	290.52
493.36	292.41
493.72	294.43
494.08	296.53
494.45	298.79
494.81	301.16
495.17	303.65
495.54	306.24
495.90	308.92
496.26	311.75
496.63	314.72
496.99	317.83
497.35	321.11
497.72	324.50
498.08	327.97
498.44	331.66
498.80	335.60
499.17	339.64
499.53	343.81
499.89	348.21
500.26	352.70
500.62	357.34
500.98	362.29
501.34	367.41
501.71	372.72
502.07	378.12
502.43	383.73
502.79	389.56
503.16	395.64
503.52	401.91
503.88	408.25
504.24	414.91
504.60	421.78
504.97	428.85
505.33	436.16
505.69	443.85
506.05	451.57
506.41	459.45
506.78	467.55
507.14	476.01
507.50	484.71
507.86	493.71
508.22	502.96
508.59	512.17
508.95	521.78
509.31	531.67
509.67	541.78
510.03	552.09
510.39	562.57
510.75	573.38
511.12	584.30
511.48	595.66
511.84	607.06
512.20	618.60
512.56	630.62
512.92	642.81
513.28	655.18
513.64	667.74
514.00	680.51
514.37	693.49
514.73	706.51
515.09	719.52
515.45	732.81
515.81	746.34
516.17	760.40
516.53	774.49
516.89	788.59
517.25	802.83
517.61	817.16
517.97	831.65
518.33	846.17
518.69	860.97
519.05	875.97
519.41	891.26
519.77	906.78
520.13	922.25
520.49	937.60
520.85	953.08
521.21	968.80
521.57	984.95
521.93	1000.78
522.29	1017.27
522.65	1033.55
523.01	1049.81
523.37	1065.93
523.73	1082.04
524.09	1098.20
524.45	1114.55
524.81	1131.14
525.17	1148.10
525.53	1164.95
525.89	1181.81
526.25	1198.57
526.61	1214.99
526.97	1231.64
527.33	1248.16
527.68	1264.74
528.04	1281.29
528.40	1298.00
528.76	1315.04
529.12	1331.67
529.48	1348.54
529.84	1364.50
530.20	1381.14
530.56	1398.25
530.91	1415.67
531.27	1432.39
531.63	1448.73
531.99	1465.45
532.35	1481.35
532.71	1497.13
533.07	1513.49
533.42	1529.32
533.78	1545.42
534.14	1561.74
534.50	1577.14
534.86	1592.96
535.21	1608.15
535.57	1624.15
535.93	1639.61
536.29	1654.41
536.65	1669.43
537.00	1684.21
537.36	1699.54
537.72	1714.12
538.08	1728.51
538.44	1742.28
538.79	1756.30
539.15	1770.20
539.51	1783.84
539.87	1798.37
540.22	1812.28
540.58	1826.12
540.94	1839.49
541.29	1852.43
541.65	1865.10
542.01	1878.36
542.37	1890.69
542.72	1903.17
543.08	1914.95
543.44	1927.30
543.79	1938.63
544.15	1949.64
544.51	1961.28
544.87	1972.28
545.22	1983.01
545.58	1993.09
545.94	2002.79
546.29	2012.65
546.65	2022.40
547.01	2031.70
547.36	2040.32
547.72	2048.79
548.07	2056.63
548.43	2064.80
548.79	2072.84
549.14	2080.31
549.50	2087.63
549.86	2095.27
550.21	2102.57
550.57	2109.73
550.92	2116.36
551.28	2123.30
551.64	2130.26
551.99	2136.83
552.35	2142.88
552.70	2149.15
553.06	2155.14
553.41	2161.61
553.77	2167.58
554.13	2173.59
554.48	2179.70
554.84	2185.16
555.19	2190.34
555.55	2195.22
555.90	2199.69
556.26	2204.56
556.61	2209.31
556.97	2213.39
557.32	2217.62
557.68	2221.75
558.03	2225.97
558.39	2229.69
558.74	2234.39
559.10	2238.47
559.45	2242.01
559.81	2246.44
560.16	2250.34
560.52	2253.78
560.87	2257.14
561.23	2259.86
561.58	2262.86
561.94	2265.46
562.29	2267.87
562.64	2270.62
563.00	2273.38
563.35	2276.89
563.71	2280.08
564.06	2283.35
564.42	2286.43
564.77	2288.85
565.12	2290.93
565.48	2292.80
565.83	2294.61
566.19	2295.81
566.54	2296.67
566.89	2297.80
567.25	2298.30
567.60	2299.54
567.96	2301.05
568.31	2301.90
568.66	2302.99
569.02	2303.57
569.37	2303.88
569.72	2304.72
570.08	2304.74
570.43	2304.85
570.78	2304.29
571.14	2302.77
571.49	2301.40
571.84	2300.86
572.20	2299.73
572.55	2298.78
572.90	2297.32
573.26	2295.85
573.61	2294.21
573.96	2292.50
574.31	2289.53
574.67	2286.41
575.02	2282.71
575.37	2279.39
575.72	2275.46
576.08	2271.96
576.43	2268.57
576.78	2264.71
577.13	2261.52
577.49	2258.59
577.84	2254.92
578.19	2251.25
578.54	2247.47
578.90	2243.12
579.25	2237.60
579.60	2232.60
579.95	2227.48
580.30	2222.33
580.66	2217.17
581.01	2212.20
581.36	2207.19
581.71	2203.11
582.06	2198.75
582.42	2194.25
582.77	2188.87
583.12	2184.27
583.47	2179.45
583.82	2174.42
584.17	2169.17
584.53	2163.64
584.88	2157.79
585.23	2152.04
585.58	2146.40
585.93	2140.94
586.28	2136.12
586.63	2131.12
586.98	2126.08
587.34	2121.49
587.69	2116.71
588.04	2111.38
588.39	2105.58
588.74	2099.06
589.09	2092.72
589.44	2085.93
589.79	2079.95
590.14	2074.45
590.49	2067.92
590.84	2061.63
591.19	2055.50
591.54	2049.03
591.89	2041.43
592.25	2034.66
592.60	2027.43
592.95	2019.70
593.30	2012.18
593.65	2004.68
594.00	1997.57
594.35	1990.29
594.70	1982.20
595.05	1974.76
595.40	1967.49
595.75	1959.94
596.10	1953.59
596.45	1946.76
596.80	1940.47
597.15	1933.77
597.50	1926.52
597.85	1920.15
598.19	1913.38
598.54	1906.30
598.89	1899.70
599.24	1893.94
599.59	1887.06
599.94	1880.76
600.29	1874.50
600.64	1868.09
600.99	1860.62
601.34	1853.79
601.69	1846.78
602.04	1839.85
602.39	1832.53
602.74	1825.69
603.08	1818.97
603.43	1812.28
603.78	1804.92
604.13	1797.82
604.48	1790.41
604.83	1783.54
605.18	1776.51
605.53	1768.54
605.87	1760.60
606.22	1753.42
606.57	1745.40
606.92	1738.24
607.27	1731.14
607.62	1724.19
607.96	1716.76
608.31	1710.01
608.66	1702.30
609.01	1694.72
609.36	1687.16
609.70	1679.17
610.05	1670.96
610.40	1663.19
610.75	1654.83
611.10	1647.18
611.44	1638.69
611.79	1630.74
612.14	1622.11
612.49	1612.90
612.83	1604.49
613.18	1596.31
613.53	1588.16
613.88	1579.58
614.22	1571.25
614.57	1562.67
614.92	1554.59
615.27	1546.97
615.61	1538.60
615.96	1530.71
616.31	1523.05
616.65	1515.67
617.00	1508.12
617.35	1500.55
617.70	1492.25
618.04	1483.70
618.39	1475.50
618.74	1467.86
619.08	1459.65
619.43	1452.02
619.78	1445.10
620.12	1437.84
620.47	1430.24
620.82	1422.06
621.16	1414.82
621.51	1407.37
621.85	1399.70
622.20	1391.20
622.55	1382.98
622.89	1375.21
623.24	1367.46
623.59	1360.21
623.93	1352.67
624.28	1345.33
624.62	1337.73
624.97	1330.57
625.32	1324.01
625.66	1316.99
626.01	1309.88
626.35	1302.31
626.70	1294.56
627.04	1286.85
627.39	1279.17
627.73	1271.78
628.08	1264.77
628.43	1257.34
628.77	1249.74
629.12	1242.17
629.46	1235.10
629.81	1227.73
630.15	1220.52
630.50	1213.19
630.84	1204.89
631.19	1196.94
631.53	1189.53
631.88	1182.01
632.22	1174.44
632.57	1167.12
632.91	1159.68
633.26	1152.13
633.60	1144.81
633.95	1137.78
634.29	1130.74
634.64	1124.12
634.98	1116.83
635.32	1109.72
635.67	1103.16
636.01	1096.64
636.36	1089.83
636.70	1083.31
637.05	1076.63
637.39	1070.20
637.73	1063.61
638.08	1057.71
638.42	1051.78
638.77	1045.40
639.11	1038.85
639.45	1032.54
639.80	1025.77
640.14	1019.21
640.49	1012.78
640.83	1006.52
641.17	1000.19
641.52	993.82
641.86	987.37
642.20	981.39
642.55	975.10
642.89	968.62
643.23	961.98
643.58	956.24
643.92	950.02
644.26	943.89
644.61	937.81
644.95	931.90
645.29	925.36
645.64	918.56
645.98	912.16
646.32	906.29
646.66	900.08
647.01	894.28
647.35	888.57
647.69	882.84
648.04	877.32
648.38	871.56
648.72	865.52
649.06	859.37
649.41	853.63
649.75	847.64
650.09	841.70
650.43	835.92
650.78	829.69
651.12	823.67
651.46	818.06
651.80	812.29
652.14	806.81
652.49	801.43
652.83	796.33
653.17	790.67
653.51	784.94
653.85	779.63
654.20	773.99
654.54	768.07
654.88	762.25
655.22	756.34
655.56	750.70
655.90	745.31
656.25	740.12
656.59	734.68
656.93	729.62
657.27	724.45
657.61	719.12
657.95	714.03
658.29	708.99
658.64	703.70
658.98	698.42
659.32	692.96
659.66	687.78
660.00	682.34
660.34	677.37
660.68	672.41
661.02	667.38
661.36	662.63
661.70	658.17
662.05	653.82
662.39	649.48
662.73	645.03
663.07	640.66
663.41	636.18
663.75	631.73
664.09	627.16
664.43	622.72
664.77	618.58
665.11	614.36
665.45	610.27
665.79	606.22
666.13	602.10
666.47	598.02
666.81	593.80
667.15	589.78
667.49	585.92
667.83	582.22
668.17	578.32
668.51	574.26
668.85	570.24
669.19	566.38
669.53	562.48
669.87	558.58
670.21	554.90
670.55	551.33
670.89	547.91
671.23	544.46
671.57	541.03
671.91	537.49
672.25	534.00
672.58	530.46
672.92	527.07
673.26	523.93
673.60	520.78
673.94	517.64
674.28	514.76
674.62	511.80
674.96	508.64
675.30	505.71
675.64	502.85
675.97	500.05
676.31	497.22
676.65	494.33
676.99	491.58
677.33	488.67
677.67	485.77
678.01	482.73
678.34	479.79
678.68	476.88
679.02	474.12
679.36	471.38
679.70	468.71
680.04	465.94
680.37	463.04
680.71	460.29
681.05	457.73
681.39	455.02
681.73	452.38
682.06	449.84
682.40	447.34
682.74	444.76
683.08	442.20
683.42	439.54
683.75	437.05
684.09	434.49
684.43	432.02
684.77	429.60
685.10	427.23
685.44	424.91
685.78	422.61
686.12	420.34
686.45	418.06
686.79	415.68
687.13	413.52
687.46	411.38
687.80	409.22
688.14	407.04
688.48	404.96
688.81	402.75
689.15	400.68
689.49	398.48
689.82	396.37
690.16	394.30
690.50	392.33
690.83	390.39
691.17	388.46
691.51	386.63
691.84	384.78
692.18	382.82
692.52	380.83
692.85	378.92
693.19	377.06
693.52	375.22
693.86	373.46
694.20	371.65
694.53	369.84
694.87	367.99
695.21	366.21
695.54	364.42
695.88	362.70
696.21	360.94
696.55	359.33
696.88	357.71
697.22	356.10
697.56	354.52
697.89	352.85
698.23	351.23
698.56	349.60
698.90	348.01
699.23	346.41
699.57	344.87
699.90	343.33
700.24	341.79
700.58	340.23
700.91	338.70
701.25	337.25
701.58	335.88
701.92	334.52
702.25	333.14
702.59	331.75
702.92	330.44
703.26	329.16
703.59	327.79
703.93	326.61
704.26	325.32
704.60	324.01
704.93	322.74
705.26	321.49
705.60	320.32
705.93	319.16
706.27	318.15
706.60	317.14
706.94	316.05
707.27	314.89
707.61	313.86
707.94	312.85
708.27	311.74
708.61	310.66
708.94	309.63
709.28	308.62
709.61	307.65
709.94	306.66
710.28	305.61
710.61	304.70
710.95	303.56
711.28	302.66
711.61	301.75
711.95	300.85
712.28	299.92
712.61	298.93
712.95	298.00
713.28	297.16
713.61	296.25
713.95	295.38
714.28	294.55
714.61	293.67
714.95	292.83
715.28	291.99
715.61	291.10
715.95	290.30
716.28	289.43
716.61	288.57
716.95	287.75
717.28	287.00
717.61	286.19
717.94	285.47
718.28	284.67
718.61	283.94
718.94	283.24
719.27	282.59
719.61	281.95
719.94	281.30
720.27	280.52
720.60	279.86
720.94	279.22
721.27	278.60
721.60	278.05
721.93	277.46
722.27	276.93
722.60	276.38
722.93	275.79
723.26	275.26
723.59	274.73
723.93	274.17
724.26	273.62
724.59	273.09
724.92	272.61
725.25	272.11
725.59	271.55
725.92	271.05
726.25	270.51
726.58	270.00
726.91	269.51
727.24	269.05
727.57	268.60
727.91	268.11
728.24	267.69
728.57	267.18
728.90	266.73
729.23	266.24
729.56	265.84
729.89	265.37
730.22	264.92
730.55	264.46
730.89	264.01
731.22	263.57
731.55	263.11
731.88	262.63
732.21	262.18
732.54	261.76
732.87	261.32
733.20	260.94
733.53	260.55
733.86	260.20
734.19	259.80
734.52	259.39
734.85	259.09
735.18	258.64
735.51	258.29
735.84	257.89
736.17	257.53
736.50	257.09
736.83	256.88
737.16	256.53
737.49	256.18
737.82	255.82
738.15	255.48
738.48	255.15
738.81	254.86
739.14	254.57
739.47	254.26
739.80	253.95
740.13	253.67
740.46	253.32
740.79	252.95
741.12	252.64
741.45	252.29
741.78	251.95
742.11	251.72
742.44	251.40
742.77	251.16
743.10	250.85
743.43	250.57
743.75	250.18
744.08	250.04
744.41	249.78
744.74	249.53
745.07	249.28
745.40	249.08
745.73	248.86
746.06	248.59
746.39	248.35
746.71	248.07
747.04	247.77
747.37	247.55
747.70	247.29
748.03	247.05
748.36	246.85
748.68	246.58
749.01	246.28
749.34	246.03
749.67	245.77
750.00	245.54
750.33	245.37
750.65	245.19
750.98	244.83
751.31	244.61
751.64	244.40
751.97	244.26
752.29	244.01
752.62	243.75
752.95	243.53
753.28	243.32
753.60	243.13
753.93	242.96
754.26	242.76
754.59	242.57
754.91	242.37
755.24	242.19
755.57	242.01
755.90	241.79
756.22	241.64
756.55	241.44
756.88	241.28
757.20	241.07
757.53	240.83
757.86	240.65
758.19	240.49
758.51	240.33
758.84	240.09
759.17	239.91
759.49	239.77
759.82	239.64
760.15	239.51
760.47	239.37
760.80	239.20
761.13	239.06
761.45	238.88
761.78	238.73
762.11	238.59
762.43	238.44
762.76	238.32
763.08	238.17
763.41	238.06
763.74	237.92
764.06	237.76
764.39	237.62
764.71	237.48
765.04	237.34
765.37	237.19
765.69	237.04
766.02	236.90
766.34	236.76
766.67	236.63
767.00	236.48
767.32	236.40
767.65	236.34
767.97	236.24
768.30	236.16
768.62	236.06
768.95	235.91
769.27	235.80
769.60	235.72
769.92	235.60
770.25	235.48
770.57	235.37
770.90	235.31
771.22	235.19
771.55	235.10
771.87	235.00
772.20	234.93
772.52	234.93
772.85	234.94
773.17	234.85
773.50	234.71
773.82	234.64
774.15	234.52
774.47	234.39
774.80	234.28
775.12	234.18
775.45	234.09
775.77	234.05
776.09	234.01
776.42	233.93
776.74	233.89
777.07	233.82
777.39	233.75
777.72	233.64
778.04	233.61
778.36	233.56
778.69	233.54
779.01	233.42
779.33	233.24
779.66	233.08
779.98	232.98
780.31	232.94
780.63	232.87
780.95	232.79
781.28	232.70
781.60	232.63
781.92	232.57
782.25	232.52
782.57	232.42
782.89	232.30
783.22	232.21
783.54	232.14
783.86	232.10
784.19	232.02
784.51	232.01
784.83	231.91
785.16	231.80
785.48	231.71
785.80	231.70
786.12	231.65
786.45	231.62
786.77	231.58
787.09	231.51
787.42	231.43
787.74	231.38
788.06	231.33
788.38	231.27
788.71	231.20
789.03	231.11
789.35	231.08
789.67	231.05
789.99	231.03
790.32	230.95
790.64	230.88
790.96	230.90
791.28	230.82
791.61	230.78
791.93	230.77
792.25	230.72
792.57	230.74
792.89	230.69
793.21	230.65
793.54	230.62
793.86	230.57
794.18	230.54
794.50	230.47
794.82	230.46
795.14	230.45
795.47	230.46
795.79	230.43
796.11	230.37
796.43	230.34
796.75	230.30
797.07	230.25
797.39	230.20
797.71	230.12
798.04	230.09
798.36	230.04
798.68	229.98
799.00	229.96
799.32	229.90
799.64	229.89
799.96	229.89
800.28	229.88
800.60	229.86
800.92	229.86
801.24	229.85
801.56	229.80
801.89	229.74
802.21	229.70
802.53	229.69
802.85	229.67
803.17	229.69
803.49	229.67
803.81	229.64
804.13	229.62
804.45	229.59
804.77	229.57
805.09	229.60
805.41	229.59
805.73	229.56
806.05	229.56
806.37	229.53
806.69	229.47
807.01	229.44
807.33	229.43
807.65	229.37
807.97	229.42
808.28	229.37
808.60	229.37
808.92	229.36
809.24	229.39
809.56	229.37
809.88	229.29
810.20	229.28
810.52	229.29
810.84	229.27
811.16	229.23
811.48	229.20
811.80	229.19
812.12	229.18
812.43	229.16
812.75	229.07
813.07	229.03
813.39	229.01
813.71	228.98
814.03	228.95
814.35	228.96
814.67	228.91
814.98	228.93
815.30	228.95
815.62	228.90
815.94	228.81
816.26	228.84
816.58	228.82
816.89	228.83
817.21	228.79
817.53	228.79
817.85	228.76
818.17	228.74
818.48	228.70
818.80	228.67
819.12	228.68
819.44	228.65
819.76	228.62
820.07	228.61
820.39	228.57
820.71	228.56
821.03	228.53
821.34	228.49
821.66	228.47
821.98	228.42
822.30	228.40
822.61	228.47
822.93	228.44
823.25	228.41
823.57	228.39
823.88	228.40
824.20	228.37
824.52	228.40
824.83	228.37
825.15	228.34
825.47	228.34
825.79	228.32
826.10	228.31
826.42	228.30
826.74	228.30
827.05	228.27
827.37	228.27
827.69	228.22
828.00	228.21
828.32	228.19
828.64	228.18
828.95	228.23
829.27	228.18
829.58	228.15
829.90	228.19
830.22	228.13
830.53	228.11
830.85	228.12
831.17	228.06
831.48	228.06
831.80	228.08
832.11	228.04
832.43	227.99
832.75	228.00
833.06	228.08
833.38	228.06
833.69	228.07
834.01	228.07
834.32	228.09
834.64	228.12
834.96	228.09
835.27	228.06
835.59	228.02
835.90	227.95
836.22	227.97
836.53	227.89
836.85	227.87
837.16	227.91
837.48	227.88
837.79	227.93
838.11	227.94
838.42	227.91
838.74	227.93
839.05	227.94
839.37	227.89
839.68	227.80
840.00	227.78
840.31	227.79
840.63	227.78
840.94	227.78
841.26	227.74
841.57	227.76
841.88	227.75
842.20	227.70
842.51	227.70
842.83	227.69
843.14	227.78
843.46	227.77
843.77	227.75
844.08	227.76
844.40	227.76
844.71	227.72
845.03	227.71
845.34	227.71
845.65	227.68
845.97	227.73
846.28	227.71
846.60	227.73
846.91	227.68
847.22	227.65
847.54	227.62
847.85	227.61
848.16	227.58
848.48	227.55
848.79	227.62
849.10	227.61
849.42	227.61
849.73	227.52
850.04	227.53
850.36	227.48
850.67	227.47
850.98	227.43
851.30	227.42
851.61	227.43
851.92	227.40
852.23	227.45
852.55	227.46
852.86	227.49
853.17	227.47
853.49	227.52
853.80	227.55
854.11	227.59
854.42	227.62
854.74	227.61
855.05	227.62
855.36	227.59
855.67	227.62
855.99	227.62
856.30	227.73
856.61	227.73
856.92	227.75
857.23	227.74
857.55	227.75
857.86	227.77
858.17	227.75
858.48	227.72
858.79	227.70
859.11	227.68
859.42	227.66
859.73	227.63
860.04	227.64
860.35	227.59
860.66	227.56
860.98	227.53
861.29	227.56
861.60	227.55
861.91	227.55
862.22	227.54
862.53	227.52
862.84	227.39
863.16	227.40
863.47	227.35
863.78	227.37
864.09	227.38
864.40	227.39
864.71	227.38
865.02	227.37
865.33	227.36
865.64	227.35
865.95	227.37
866.27	227.48
866.58	227.47
866.89	227.49
867.20	227.46
867.51	227.43
867.82	227.43
868.13	227.47
868.44	227.43
868.75	227.43
869.06	227.46
869.37	227.49
869.68	227.49
869.99	227.53
870.30	227.50
870.61	227.51
870.92	227.49
871.23	227.49
871.54	227.51
871.85	227.54
872.16	227.53
872.47	227.49
872.78	227.38
873.09	227.33
873.40	227.32
873.71	227.33
874.02	227.32
874.33	227.27
874.64	227.23
874.95	227.25
875.26	227.23
875.56	227.22
875.87	227.17
876.18	227.14
876.49	227.20
876.80	227.19
877.11	227.17
877.42	227.18
877.73	227.18
878.04	227.18
878.35	227.16
878.66	227.15
878.96	227.15
879.27	227.13
879.58	227.14
879.89	227.11
880.20	227.12
880.51	227.14
880.82	227.15
881.12	227.15
881.43	227.12
881.74	227.10
882.05	227.07
882.36	227.10
882.67	227.10
882.97	227.05
883.28	227.06
883.59	227.06
883.90	227.06
884.21	227.06
884.51	227.05
884.82	227.06
885.13	227.08
885.44	227.07
885.74	227.08
886.05	227.09
886.36	227.12
886.67	227.10
886.98	227.18
887.28	227.18
887.59	227.19
887.90	227.23
888.20	227.25
888.51	227.27
888.82	227.21
889.13	227.25
889.43	227.28
889.74	227.28
890.05	227.30
890.35	227.28
890.66	227.24
890.97	227.24
891.28	227.21
891.58	227.22
891.89	227.24
892.20	227.23
892.50	227.22
892.81	227.21
893.12	227.21
893.42	227.13
893.73	227.15
894.04	227.14
894.34	227.13
894.65	227.13
894.95	227.12
895.26	227.17
895.57	227.20
895.87	227.09
896.18	227.10
896.48	227.06
896.79	227.08
897.10	227.10
897.40	227.07
897.71	227.09
898.01	227.10
898.32	227.11
898.63	227.09
898.93	227.09
899.24	227.08
899.54	227.06
899.85	227.03
900.15	227.00
900.46	227.01
900.76	226.99
901.07	227.00
901.38	227.01
901.68	227.01
901.99	226.98
902.29	227.00
902.60	226.97
902.90	226.97
903.21	226.95
903.51	226.94
903.82	226.95
904.12	226.96
904.43	226.92
904.73	226.92
905.03	226.96
905.34	227.04
905.64	227.06
905.95	227.08
906.25	227.12
906.56	227.14
906.86	227.13
907.17	227.16
907.47	227.15
907.77	227.11
908.08	227.07
908.38	227.03
908.69	227.05
908.99	227.09
909.30	227.10
909.60	227.09
909.90	227.08
910.21	227.07
910.51	227.03
910.81	227.03
911.12	227.02
911.42	227.01
911.73	226.89
912.03	226.87
912.33	226.86
912.64	226.86
912.94	226.85
913.24	226.84
913.55	226.84
913.85	226.83
914.15	226.86
914.46	226.88
914.76	226.90
915.06	226.91
915.37	226.87
915.67	226.90
915.97	226.87
916.27	226.84
916.58	226.88
916.88	226.88
917.18	226.89
917.49	226.96
917.79	226.96
918.09	226.99
918.39	227.03
918.70	227.04
919.00	227.03
919.30	227.04
919.60	227.02
919.91	227.02
920.21	227.01
920.51	226.99
920.81	227.00
921.12	227.02
921.42	227.00
921.72	227.02
922.02	226.99
922.32	227.03
922.63	227.03
922.93	227.06
923.23	227.08
923.53	227.06
923.83	226.99
924.13	227.01
924.44	227.01
924.74	227.06
925.04	227.06
925.34	227.05
925.64	227.06
925.94	227.06
926.24	227.08
926.55	227.10
926.85	227.12
927.15	227.15
927.45	227.14
927.75	227.14
928.05	227.13
928.35	227.14
928.65	227.18
928.95	227.22
929.26	227.19
929.56	227.20
929.86	227.24
930.16	227.24
930.46	227.19
930.76	227.19
931.06	227.12
931.36	227.10
931.66	227.14
931.96	227.15
932.26	227.15
932.56	227.12
932.86	227.11
933.16	227.09
933.46	227.07
933.76	227.03
934.06	227.06
934.36	227.09
934.66	227.08
934.96	227.05
935.26	227.05
935.56	227.10
935.86	227.08
936.16	227.03
936.46	227.04
936.76	227.08
937.06	227.07
937.36	227.11
937.66	227.11
937.96	227.09
938.26	227.05
938.56	227.05
938.86	227.05
939.16	227.09
939.46	227.09
939.76	227.08
940.06	227.10
940.35	227.07
940.65	227.02
940.95	227.03
941.25	227.02
941.55	226.98
941.85	226.93
942.15	226.94
942.45	226.99
942.75	226.98
943.04	227.01
943.34	227.00
943.64	226.94
943.94	226.91
944.24	226.89
944.54	226.92
944.84	226.95
945.13	226.92
945.43	226.90
945.73	226.89
946.03	226.90
946.33	226.88
946.62	226.85
946.92	226.84
947.22	226.82
947.52	226.81
947.82	226.82
948.11	226.82
948.41	226.79
948.71	226.71
949.01	226.71
949.31	226.66
949.60	226.68
949.90	226.72
950.20	226.72
950.50	226.75
950.79	226.72
951.09	226.72
951.39	226.71
951.69	226.70
951.98	226.74
952.28	226.73
952.58	226.72
952.87	226.72
953.17	226.77
953.47	226.76
953.76	226.75
954.06	226.73
954.36	226.72
954.66	226.72
954.95	226.80
955.25	226.80
955.55	226.79
955.84	226.77
956.14	226.79
956.44	226.81
956.73	226.74
957.03	226.75
957.32	226.76
957.62	226.76
957.92	226.77
958.21	226.74
958.51	226.85
958.81	226.86
959.10	226.90
959.40	226.90
959.69	226.92
959.99	226.97
960.29	226.96
960.58	226.94
960.88	227.00
961.17	226.96
961.47	226.97
961.76	227.00
962.06	226.99
962.36	226.97
962.65	226.99
962.95	227.06
963.24	227.07
963.54	227.05
963.83	227.09
964.13	227.12
964.42	227.11
964.72	227.04
965.01	227.07
965.31	227.04
965.60	227.03
965.90	227.08
966.19	227.05
966.49	227.06
966.78	227.05
967.08	227.01
967.37	227.01
967.67	227.01
967.96	227.02
968.26	227.03
968.55	227.06
968.85	227.03
969.14	226.99
969.43	226.96
969.73	226.96
970.02	226.92
970.32	226.88
970.61	226.88
970.91	226.84
971.20	226.82
971.49	226.83
971.79	226.82
972.08	226.76
972.38	226.74
972.67	226.76
972.96	226.82
973.26	226.80
973.55	226.84
973.85	226.80
974.14	226.76
974.43	226.75
974.73	226.73
975.02	226.71
975.31	226.69
975.61	226.72
975.90	226.71
976.19	226.72
976.49	226.74
976.78	226.75
977.07	226.76
977.37	226.77
977.66	226.77
977.95	226.77
978.24	226.78
978.54	226.83
978.83	226.82
979.12	226.78
979.42	226.83
979.71	226.80
980.00	226.82
980.29	226.83
980.59	226.83
980.88	226.85
981.17	226.85
981.46	226.87
981.76	226.84
982.05	226.90
982.34	226.91
982.63	226.88
982.93	226.86
983.22	226.86
983.51	226.84
983.80	226.83
984.09	226.82
984.39	226.82
984.68	226.79
984.97	226.79
985.26	226.80
985.55	226.77
985.85	226.75
986.14	226.75
986.43	226.78
986.72	226.79
987.01	226.76
987.30	226.73
987.59	226.72
987.89	226.72
988.18	226.66
988.47	226.64
988.76	226.63
989.05	226.61
989.34	226.64
989.63	226.66
989.92	226.64
990.22	226.64
990.51	226.65
990.80	226.64
991.09	226.65
991.38	226.64
991.67	226.62
991.96	226.63
992.25	226.62
992.54	226.57
992.83	226.53
993.12	226.53
993.41	226.60
993.70	226.67
993.99	226.69
994.28	226.70
994.58	226.75
994.87	226.74
995.16	226.79
995.45	226.75
995.74	226.71
996.03	226.74
996.32	226.74
996.61	226.72
996.90	226.71
997.19	226.72
997.48	226.75
997.77	226.75
998.06	226.72
998.34	226.72
998.63	226.72
998.92	226.76
999.21	226.79
999.50	226.76
999.79	226.70
1000.08	226.70
1000.37	226.70
1000.66	226.67
1000.95	226.69
1001.24	226.67
1001.53	226.69
1001.82	226.69
1002.11	226.69
1002.40	226.71
1002.68	226.78
1002.97	226.84
1003.26	226.84
1003.55	226.79
1003.84	226.81
1004.13	226.86
1004.42	226.84
1004.71	226.86
1004.99	226.84
1005.28	226.84
1005.57	226.82
1005.86	226.81
1006.15	226.82
1006.44	226.79
1006.72	226.80
1007.01	226.77
1007.30	226.76
1007.59	226.77
1007.88	226.80
1008.17	226.77
1008.45	226.74
1008.74	226.70
1009.03	226.67
1009.32	226.67
1009.60	226.68
1009.89	226.67
1010.18	226.64
1010.47	226.64
1010.76	226.62
1011.04	226.63
1011.33	226.63
1011.62	226.61
1011.91	226.63
1012.19	226.59
1012.48	226.59
1012.77	226.60
1013.05	226.66
1013.34	226.69
1013.63	226.68
1013.92	226.65
1014.20	226.65
1014.49	226.64
1014.78	226.61
1015.06	226.59
1015.35	226.60
1015.64	226.61
1015.92	226.62
1016.21	226.64
1016.50	226.63
1016.78	226.63
1017.07	226.63
1017.36	226.61
1017.64	226.62
1017.93	226.62
1018.22	226.66
1018.50	226.68
1018.79	226.69
1019.08	226.63
1019.36	226.64
1019.65	226.63
1019.93	226.68
1020.22	226.70
1020.51	226.78
1020.79	226.78
1021.08	227.16
1021.36	226.62
1021.65	226.98
1021.94	226.58
1022.22	227.01
1022.51	226.79
1022.79	227.17
1023.08	226.83
1023.36	228.12
1023.65	226.53
>>>>>End Processed Spectral Data<<<<<
