SpectraSuite Data File
++++++++++++++++++++++++++++++++++++
Date: Fri Feb 01 15:50:16 EST 2013
User: group
Dark Spectrum Present: No
Reference Spectrum Present: No
Number of Sampled Component Spectra: 1
Spectrometers: USB2E7196
Integration Time (usec): 35000 (USB2E7196)
Spectra Averaged: 100 (USB2E7196)
Boxcar Smoothing: 10 (USB2E7196)
Correct for Electrical Dark: No (USB2E7196)
Strobe/Lamp Enabled: No (USB2E7196)
Correct for Detector Non-linearity: No (USB2E7196)
Correct for Stray Light: No (USB2E7196)
Number of Pixels in Processed Spectrum: 2048
>>>>>Begin Processed Spectral Data<<<<<
339.09	0.00
339.48	214.58
339.86	216.01
340.24	217.62
340.63	218.59
341.01	221.31
341.39	220.95
341.78	222.34
342.16	223.96
342.54	225.08
342.93	212.93
343.31	223.71
343.69	224.26
344.07	224.73
344.46	225.15
344.84	225.54
345.22	225.78
345.60	226.06
345.99	226.27
346.37	226.42
346.75	226.51
347.13	226.56
347.52	226.61
347.90	226.70
348.28	226.72
348.66	226.77
349.05	226.80
349.43	226.83
349.81	226.92
350.19	226.98
350.57	227.06
350.96	227.13
351.34	227.19
351.72	227.28
352.10	227.40
352.48	227.48
352.87	227.58
353.25	227.69
353.63	227.78
354.01	227.86
354.39	227.94
354.77	228.03
355.15	228.17
355.54	228.23
355.92	228.29
356.30	228.35
356.68	228.43
357.06	228.49
357.44	228.54
357.82	228.60
358.20	228.66
358.58	228.73
358.97	228.79
359.35	228.89
359.73	228.95
360.11	229.00
360.49	229.08
360.87	229.11
361.25	229.16
361.63	229.22
362.01	229.26
362.39	229.28
362.77	229.33
363.15	229.35
363.53	229.38
363.91	229.39
364.29	229.42
364.67	229.39
365.05	229.39
365.43	229.45
365.81	229.48
366.19	229.52
366.57	229.52
366.95	229.48
367.33	229.44
367.71	229.43
368.09	229.44
368.47	229.39
368.85	229.33
369.23	229.35
369.61	229.26
369.99	229.27
370.37	229.28
370.75	229.27
371.13	229.22
371.51	229.15
371.89	229.14
372.27	229.06
372.65	229.02
373.03	228.97
373.41	228.89
373.78	228.82
374.16	228.74
374.54	228.66
374.92	228.64
375.30	228.57
375.68	228.49
376.06	228.38
376.44	228.33
376.82	228.29
377.19	228.17
377.57	228.14
377.95	228.03
378.33	227.92
378.71	227.81
379.09	227.72
379.47	227.70
379.84	227.62
380.22	227.57
380.60	227.48
380.98	227.40
381.36	227.32
381.73	227.25
382.11	227.15
382.49	227.09
382.87	227.01
383.25	226.96
383.62	227.02
384.00	226.96
384.38	226.91
384.76	226.87
385.13	226.85
385.51	226.77
385.89	226.69
386.27	226.65
386.64	226.59
387.02	226.55
387.40	226.48
387.78	226.41
388.15	226.39
388.53	226.36
388.91	226.33
389.29	226.32
389.66	226.30
390.04	226.29
390.42	226.28
390.79	226.27
391.17	226.23
391.55	226.11
391.92	226.09
392.30	226.11
392.68	226.08
393.05	226.05
393.43	226.06
393.81	226.11
394.18	226.14
394.56	226.16
394.94	226.21
395.31	226.21
395.69	226.28
396.06	226.33
396.44	226.36
396.82	226.38
397.19	226.43
397.57	226.47
397.95	226.55
398.32	226.54
398.70	226.63
399.07	226.74
399.45	226.77
399.82	226.84
400.20	226.87
400.58	226.97
400.95	227.03
401.33	227.14
401.70	227.26
402.08	227.32
402.45	227.43
402.83	227.53
403.20	227.65
403.58	227.76
403.95	227.86
404.33	228.00
404.71	228.12
405.08	228.33
405.46	228.46
405.83	228.62
406.21	228.76
406.58	228.92
406.96	229.07
407.33	229.26
407.70	229.49
408.08	229.79
408.45	229.96
408.83	230.20
409.20	230.41
409.58	230.58
409.95	230.87
410.33	231.11
410.70	231.36
411.08	231.66
411.45	231.96
411.82	232.26
412.20	232.59
412.57	233.00
412.95	233.28
413.32	233.68
413.69	234.08
414.07	234.55
414.44	235.00
414.82	235.47
415.19	236.05
415.56	236.60
415.94	237.12
416.31	237.77
416.68	238.40
417.06	239.12
417.43	239.81
417.81	240.54
418.18	241.33
418.55	242.16
418.93	243.02
419.30	243.90
419.67	244.85
420.04	245.80
420.42	246.78
420.79	247.95
421.16	249.11
421.54	250.29
421.91	251.50
422.28	252.75
422.66	254.08
423.03	255.38
423.40	256.70
423.77	258.10
424.15	259.55
424.52	261.04
424.89	262.64
425.26	264.18
425.64	265.65
426.01	267.25
426.38	268.91
426.75	270.55
427.13	272.30
427.50	274.07
427.87	275.95
428.24	277.81
428.61	279.57
428.99	281.52
429.36	283.63
429.73	285.68
430.10	287.68
430.47	289.73
430.85	291.82
431.22	294.07
431.59	296.44
431.96	298.64
432.33	301.11
432.70	303.51
433.08	306.33
433.45	308.99
433.82	311.57
434.19	314.50
434.56	317.34
434.93	319.99
435.30	322.61
435.68	325.51
436.05	328.35
436.42	331.17
436.79	333.70
437.16	336.39
437.53	339.26
437.90	342.10
438.27	344.90
438.64	347.73
439.01	350.29
439.38	352.53
439.75	354.73
440.13	357.27
440.50	359.58
440.87	361.46
441.24	363.37
441.61	365.47
441.98	366.91
442.35	368.74
442.72	370.57
443.09	372.40
443.46	373.42
443.83	374.05
444.20	374.49
444.57	375.30
444.94	375.60
445.31	375.95
445.68	376.30
446.05	376.30
446.42	375.96
446.79	375.59
447.16	375.17
447.53	374.87
447.90	373.69
448.27	372.56
448.64	370.95
449.01	369.84
449.37	367.98
449.74	366.11
450.11	363.85
450.48	361.39
450.85	358.87
451.22	356.69
451.59	354.68
451.96	352.80
452.33	350.20
452.70	347.88
453.07	345.00
453.43	342.07
453.80	339.31
454.17	336.61
454.54	334.05
454.91	331.30
455.28	328.63
455.65	326.13
456.02	323.68
456.38	321.54
456.75	318.90
457.12	316.63
457.49	314.41
457.86	312.28
458.23	310.46
458.59	308.42
458.96	306.35
459.33	304.46
459.70	302.59
460.07	301.09
460.43	299.31
460.80	297.69
461.17	296.29
461.54	294.82
461.91	293.37
462.27	291.95
462.64	290.70
463.01	289.34
463.38	288.05
463.74	286.71
464.11	285.54
464.48	284.48
464.85	283.38
465.21	282.51
465.58	281.53
465.95	280.41
466.32	279.52
466.68	278.63
467.05	277.74
467.42	276.83
467.78	275.92
468.15	275.11
468.52	274.48
468.88	273.63
469.25	272.84
469.62	272.22
469.98	271.50
470.35	270.88
470.72	270.29
471.08	269.64
471.45	269.07
471.82	268.57
472.18	267.98
472.55	267.54
472.92	266.99
473.28	266.55
473.65	266.10
474.02	265.62
474.38	265.25
474.75	264.95
475.11	264.60
475.48	264.32
475.85	264.04
476.21	263.82
476.58	263.66
476.94	263.55
477.31	263.38
477.67	263.26
478.04	263.11
478.41	263.00
478.77	263.01
479.14	262.94
479.50	262.93
479.87	263.00
480.23	263.05
480.60	263.14
480.96	263.22
481.33	263.44
481.69	263.65
482.06	263.89
482.42	264.08
482.79	264.32
483.15	264.66
483.52	265.06
483.88	265.38
484.25	265.76
484.61	266.18
484.98	266.63
485.34	267.17
485.71	267.79
486.07	268.41
486.44	269.01
486.80	269.73
487.17	270.48
487.53	271.31
487.90	272.17
488.26	273.10
488.62	274.08
488.99	275.03
489.35	276.08
489.72	277.17
490.08	278.37
490.44	279.62
490.81	280.89
491.17	282.21
491.54	283.70
491.90	285.17
492.26	286.77
492.63	288.52
492.99	290.34
493.36	292.21
493.72	294.27
494.08	296.36
494.45	298.60
494.81	300.95
495.17	303.32
495.54	305.89
495.90	308.56
496.26	311.36
496.63	314.33
496.99	317.45
497.35	320.66
497.72	324.00
498.08	327.52
498.44	331.16
498.80	335.09
499.17	339.08
499.53	343.30
499.89	347.71
500.26	352.19
500.62	356.82
500.98	361.82
501.34	366.93
501.71	372.27
502.07	377.70
502.43	383.34
502.79	389.24
503.16	395.33
503.52	401.60
503.88	408.04
504.24	414.65
504.60	421.53
504.97	428.70
505.33	436.10
505.69	443.83
506.05	451.63
506.41	459.49
506.78	467.70
507.14	476.16
507.50	484.84
507.86	493.90
508.22	503.10
508.59	512.25
508.95	521.82
509.31	531.60
509.67	541.75
510.03	552.02
510.39	562.50
510.75	573.31
511.12	584.30
511.48	595.57
511.84	607.06
512.20	618.68
512.56	630.61
512.92	642.81
513.28	655.25
513.64	667.71
514.00	680.50
514.37	693.47
514.73	706.61
515.09	719.67
515.45	732.95
515.81	746.60
516.17	760.66
516.53	774.74
516.89	789.00
517.25	803.22
517.61	817.57
517.97	832.02
518.33	846.36
518.69	861.09
519.05	876.12
519.41	891.30
519.77	906.78
520.13	922.25
520.49	937.52
520.85	952.85
521.21	968.64
521.57	984.87
521.93	1000.58
522.29	1016.92
522.65	1033.16
523.01	1049.41
523.37	1065.37
523.73	1081.57
524.09	1097.69
524.45	1113.95
524.81	1130.58
525.17	1147.48
525.53	1164.49
525.89	1181.49
526.25	1198.27
526.61	1214.61
526.97	1231.32
527.33	1247.71
527.68	1264.31
528.04	1280.89
528.40	1297.53
528.76	1314.65
529.12	1331.18
529.48	1348.10
529.84	1364.10
530.20	1380.69
530.56	1397.74
530.91	1415.16
531.27	1431.86
531.63	1448.37
531.99	1464.90
532.35	1480.81
532.71	1496.61
533.07	1512.81
533.42	1528.61
533.78	1544.65
534.14	1561.00
534.50	1576.38
534.86	1592.23
535.21	1607.24
535.57	1623.06
535.93	1638.49
536.29	1653.15
536.65	1668.22
537.00	1683.01
537.36	1698.33
537.72	1712.85
538.08	1727.20
538.44	1741.00
538.79	1754.92
539.15	1768.46
539.51	1782.22
539.87	1796.47
540.22	1810.20
540.58	1824.03
540.94	1837.33
541.29	1850.20
541.65	1862.71
542.01	1875.87
542.37	1888.27
542.72	1900.79
543.08	1912.60
543.44	1924.93
543.79	1936.04
544.15	1947.02
544.51	1958.44
544.87	1969.40
545.22	1980.17
545.58	1990.33
545.94	1999.99
546.29	2009.74
546.65	2019.54
547.01	2028.68
547.36	2037.50
547.72	2046.02
548.07	2053.72
548.43	2061.94
548.79	2070.06
549.14	2077.65
549.50	2085.05
549.86	2092.71
550.21	2100.03
550.57	2107.22
550.92	2113.73
551.28	2120.87
551.64	2127.89
551.99	2134.47
552.35	2140.61
552.70	2146.75
553.06	2152.89
553.41	2159.24
553.77	2165.39
554.13	2171.64
554.48	2177.86
554.84	2183.23
555.19	2188.46
555.55	2193.62
555.90	2198.04
556.26	2202.90
556.61	2207.69
556.97	2211.92
557.32	2215.98
557.68	2220.15
558.03	2224.51
558.39	2228.38
558.74	2233.07
559.10	2237.03
559.45	2240.61
559.81	2244.90
560.16	2248.72
560.52	2251.69
560.87	2255.16
561.23	2257.79
561.58	2260.72
561.94	2263.24
562.29	2265.65
562.64	2268.35
563.00	2271.03
563.35	2274.58
563.71	2277.69
564.06	2280.93
564.42	2283.83
564.77	2286.46
565.12	2288.71
565.48	2290.52
565.83	2292.38
566.19	2293.65
566.54	2294.52
566.89	2295.75
567.25	2296.28
567.60	2297.65
567.96	2299.48
568.31	2300.37
568.66	2301.33
569.02	2301.92
569.37	2302.30
569.72	2303.18
570.08	2303.22
570.43	2303.23
570.78	2302.61
571.14	2300.87
571.49	2299.53
571.84	2299.07
572.20	2297.80
572.55	2296.76
572.90	2295.21
573.26	2293.83
573.61	2292.31
573.96	2290.52
574.31	2287.50
574.67	2284.54
575.02	2280.92
575.37	2277.47
575.72	2273.58
576.08	2270.46
576.43	2267.15
576.78	2263.37
577.13	2260.22
577.49	2257.21
577.84	2253.65
578.19	2250.02
578.54	2246.46
578.90	2242.14
579.25	2236.70
579.60	2231.59
579.95	2226.60
580.30	2221.66
580.66	2216.34
581.01	2211.23
581.36	2206.32
581.71	2202.15
582.06	2197.50
582.42	2193.07
582.77	2187.80
583.12	2183.18
583.47	2178.35
583.82	2173.18
584.17	2167.99
584.53	2162.45
584.88	2156.94
585.23	2151.13
585.58	2145.58
585.93	2140.13
586.28	2135.41
586.63	2130.35
586.98	2125.51
587.34	2120.81
587.69	2115.80
588.04	2110.54
588.39	2104.97
588.74	2098.41
589.09	2092.26
589.44	2085.68
589.79	2079.59
590.14	2074.08
590.49	2067.53
590.84	2061.11
591.19	2055.10
591.54	2048.60
591.89	2041.13
592.25	2034.11
592.60	2026.85
592.95	2019.33
593.30	2012.00
593.65	2004.25
594.00	1997.08
594.35	1989.82
594.70	1981.77
595.05	1974.52
595.40	1967.29
595.75	1959.67
596.10	1953.49
596.45	1946.59
596.80	1940.41
597.15	1933.79
597.50	1926.63
597.85	1920.33
598.19	1913.58
598.54	1906.41
598.89	1899.81
599.24	1893.98
599.59	1887.32
599.94	1881.33
600.29	1874.91
600.64	1868.30
600.99	1860.90
601.34	1854.22
601.69	1847.24
602.04	1840.34
602.39	1833.11
602.74	1826.20
603.08	1819.50
603.43	1812.83
603.78	1805.65
604.13	1798.32
604.48	1790.97
604.83	1784.17
605.18	1776.98
605.53	1769.00
605.87	1761.05
606.22	1753.74
606.57	1745.76
606.92	1738.61
607.27	1731.23
607.62	1724.25
607.96	1716.97
608.31	1710.46
608.66	1702.74
609.01	1695.14
609.36	1687.46
609.70	1679.30
610.05	1671.21
610.40	1663.49
610.75	1655.18
611.10	1647.42
611.44	1639.18
611.79	1631.20
612.14	1622.57
612.49	1613.54
612.83	1605.30
613.18	1597.23
613.53	1589.01
613.88	1580.44
614.22	1572.10
614.57	1563.63
614.92	1555.55
615.27	1548.01
615.61	1539.68
615.96	1531.71
616.31	1524.12
616.65	1516.94
617.00	1509.53
617.35	1501.97
617.70	1493.57
618.04	1485.04
618.39	1476.94
618.74	1469.18
619.08	1460.80
619.43	1453.14
619.78	1446.32
620.12	1439.08
620.47	1431.50
620.82	1423.49
621.16	1416.14
621.51	1408.50
621.85	1400.94
622.20	1392.46
622.55	1384.18
622.89	1376.26
623.24	1368.61
623.59	1361.19
623.93	1353.59
624.28	1346.38
624.62	1338.82
624.97	1331.66
625.32	1324.94
625.66	1317.93
626.01	1310.80
626.35	1303.51
626.70	1295.76
627.04	1287.87
627.39	1280.12
627.73	1272.76
628.08	1265.87
628.43	1258.61
628.77	1251.14
629.12	1243.50
629.46	1236.32
629.81	1228.92
630.15	1221.76
630.50	1214.29
630.84	1206.10
631.19	1198.14
631.53	1190.66
631.88	1183.16
632.22	1175.59
632.57	1168.17
632.91	1160.66
633.26	1153.18
633.60	1145.74
633.95	1138.74
634.29	1131.74
634.64	1124.98
634.98	1117.49
635.32	1110.32
635.67	1103.74
636.01	1097.21
636.36	1090.34
636.70	1083.88
637.05	1077.23
637.39	1070.65
637.73	1064.06
638.08	1058.18
638.42	1052.16
638.77	1045.59
639.11	1038.93
639.45	1032.51
639.80	1025.86
640.14	1019.34
640.49	1012.87
640.83	1006.55
641.17	1000.08
641.52	993.72
641.86	987.22
642.20	981.49
642.55	975.19
642.89	968.52
643.23	962.05
643.58	956.32
643.92	950.07
644.26	943.98
644.61	937.98
644.95	932.10
645.29	925.50
645.64	918.79
645.98	912.47
646.32	906.66
646.66	900.62
647.01	894.92
647.35	889.16
647.69	883.35
648.04	877.96
648.38	872.31
648.72	866.28
649.06	860.26
649.41	854.32
649.75	848.31
650.09	842.47
650.43	836.53
650.78	830.27
651.12	824.33
651.46	818.64
651.80	812.94
652.14	807.49
652.49	802.12
652.83	796.93
653.17	791.16
653.51	785.47
653.85	780.13
654.20	774.42
654.54	768.46
654.88	762.74
655.22	756.75
655.56	751.07
655.90	745.69
656.25	740.52
656.59	735.19
656.93	730.10
657.27	724.97
657.61	719.59
657.95	714.60
658.29	709.56
658.64	704.33
658.98	698.98
659.32	693.52
659.66	688.30
660.00	682.96
660.34	678.02
660.68	673.10
661.02	668.11
661.36	663.38
661.70	658.86
662.05	654.47
662.39	650.17
662.73	645.58
663.07	641.18
663.41	636.71
663.75	632.19
664.09	627.60
664.43	623.22
664.77	619.15
665.11	614.88
665.45	610.69
665.79	606.64
666.13	602.56
666.47	598.47
666.81	594.39
667.15	590.31
667.49	586.43
667.83	582.60
668.17	578.56
668.51	574.52
668.85	570.51
669.19	566.62
669.53	562.67
669.87	558.83
670.21	555.15
670.55	551.57
670.89	548.19
671.23	544.81
671.57	541.34
671.91	537.72
672.25	534.26
672.58	530.80
672.92	527.33
673.26	524.13
673.60	520.98
673.94	517.82
674.28	514.95
674.62	512.02
674.96	508.91
675.30	506.05
675.64	503.13
675.97	500.40
676.31	497.51
676.65	494.65
676.99	491.98
677.33	489.06
677.67	486.21
678.01	483.16
678.34	480.14
678.68	477.24
679.02	474.40
679.36	471.65
679.70	468.90
680.04	466.19
680.37	463.26
680.71	460.49
681.05	457.89
681.39	455.13
681.73	452.43
682.06	449.87
682.40	447.25
682.74	444.70
683.08	442.11
683.42	439.53
683.75	437.05
684.09	434.47
684.43	432.02
684.77	429.55
685.10	427.17
685.44	424.89
685.78	422.58
686.12	420.39
686.45	418.08
686.79	415.79
687.13	413.55
687.46	411.45
687.80	409.31
688.14	407.10
688.48	405.03
688.81	402.83
689.15	400.70
689.49	398.61
689.82	396.54
690.16	394.48
690.50	392.55
690.83	390.62
691.17	388.66
691.51	386.74
691.84	384.80
692.18	382.88
692.52	380.93
692.85	379.00
693.19	377.07
693.52	375.20
693.86	373.39
694.20	371.62
694.53	369.80
694.87	367.96
695.21	366.17
695.54	364.34
695.88	362.64
696.21	360.91
696.55	359.22
696.88	357.54
697.22	355.87
697.56	354.23
697.89	352.51
698.23	350.91
698.56	349.36
698.90	347.83
699.23	346.17
699.57	344.59
699.90	343.06
700.24	341.53
700.58	340.02
700.91	338.56
701.25	337.09
701.58	335.76
701.92	334.39
702.25	332.98
702.59	331.63
702.92	330.30
703.26	329.02
703.59	327.75
703.93	326.59
704.26	325.35
704.60	324.08
704.93	322.89
705.26	321.66
705.60	320.46
705.93	319.35
706.27	318.33
706.60	317.30
706.94	316.25
707.27	315.12
707.61	314.09
707.94	313.03
708.27	311.96
708.61	310.86
708.94	309.86
709.28	308.92
709.61	307.97
709.94	307.03
710.28	306.01
710.61	305.04
710.95	303.95
711.28	303.08
711.61	302.11
711.95	301.19
712.28	300.23
712.61	299.27
712.95	298.32
713.28	297.48
713.61	296.62
713.95	295.73
714.28	294.91
714.61	294.04
714.95	293.20
715.28	292.35
715.61	291.48
715.95	290.61
716.28	289.72
716.61	288.87
716.95	288.03
717.28	287.30
717.61	286.53
717.94	285.76
718.28	284.90
718.61	284.19
718.94	283.46
719.27	282.78
719.61	282.13
719.94	281.45
720.27	280.69
720.60	279.99
720.94	279.34
721.27	278.71
721.60	278.13
721.93	277.50
722.27	276.98
722.60	276.41
722.93	275.87
723.26	275.35
723.59	274.82
723.93	274.28
724.26	273.70
724.59	273.13
724.92	272.59
725.25	272.14
725.59	271.62
725.92	271.10
726.25	270.61
726.58	270.09
726.91	269.55
727.24	269.06
727.57	268.56
727.91	268.04
728.24	267.54
728.57	267.05
728.90	266.58
729.23	266.03
729.56	265.59
729.89	265.08
730.22	264.56
730.55	264.08
730.89	263.59
731.22	263.14
731.55	262.69
731.88	262.30
732.21	261.83
732.54	261.39
732.87	260.96
733.20	260.56
733.53	260.15
733.86	259.80
734.19	259.42
734.52	259.03
734.85	258.71
735.18	258.32
735.51	257.93
735.84	257.55
736.17	257.25
736.50	256.86
736.83	256.64
737.16	256.31
737.49	255.98
737.82	255.66
738.15	255.34
738.48	255.02
738.81	254.69
739.14	254.40
739.47	254.09
739.80	253.79
740.13	253.49
740.46	253.20
740.79	252.87
741.12	252.56
741.45	252.26
741.78	251.92
742.11	251.64
742.44	251.38
742.77	251.11
743.10	250.77
743.43	250.47
743.75	250.11
744.08	249.99
744.41	249.72
744.74	249.46
745.07	249.23
745.40	249.02
745.73	248.78
746.06	248.45
746.39	248.20
746.71	247.97
747.04	247.69
747.37	247.44
747.70	247.19
748.03	246.96
748.36	246.78
748.68	246.56
749.01	246.33
749.34	246.09
749.67	245.88
750.00	245.65
750.33	245.52
750.65	245.28
750.98	244.94
751.31	244.74
751.64	244.50
751.97	244.29
752.29	244.03
752.62	243.78
752.95	243.59
753.28	243.38
753.60	243.14
753.93	243.01
754.26	242.83
754.59	242.62
754.91	242.41
755.24	242.19
755.57	242.02
755.90	241.83
756.22	241.62
756.55	241.41
756.88	241.24
757.20	240.99
757.53	240.80
757.86	240.64
758.19	240.46
758.51	240.29
758.84	240.04
759.17	239.87
759.49	239.71
759.82	239.55
760.15	239.40
760.47	239.25
760.80	239.04
761.13	238.89
761.45	238.70
761.78	238.53
762.11	238.35
762.43	238.16
762.76	238.02
763.08	237.88
763.41	237.75
763.74	237.59
764.06	237.46
764.39	237.30
764.71	237.15
765.04	237.01
765.37	236.86
765.69	236.76
766.02	236.64
766.34	236.49
766.67	236.38
767.00	236.26
767.32	236.21
767.65	236.13
767.97	236.01
768.30	235.91
768.62	235.78
768.95	235.67
769.27	235.58
769.60	235.44
769.92	235.32
770.25	235.21
770.57	235.12
770.90	234.99
771.22	234.92
771.55	234.80
771.87	234.73
772.20	234.63
772.52	234.66
772.85	234.68
773.17	234.62
773.50	234.52
773.82	234.42
774.15	234.26
774.47	234.13
774.80	234.03
775.12	233.94
775.45	233.89
775.77	233.82
776.09	233.73
776.42	233.66
776.74	233.59
777.07	233.53
777.39	233.46
777.72	233.39
778.04	233.32
778.36	233.26
778.69	233.19
779.01	233.17
779.33	232.99
779.66	232.86
779.98	232.80
780.31	232.75
780.63	232.76
780.95	232.69
781.28	232.69
781.60	232.60
781.92	232.58
782.25	232.55
782.57	232.50
782.89	232.47
783.22	232.44
783.54	232.37
783.86	232.33
784.19	232.28
784.51	232.27
784.83	232.20
785.16	232.16
785.48	232.13
785.80	232.09
786.12	232.05
786.45	231.98
786.77	231.95
787.09	231.88
787.42	231.80
787.74	231.77
788.06	231.70
788.38	231.68
788.71	231.63
789.03	231.62
789.35	231.62
789.67	231.59
789.99	231.53
790.32	231.51
790.64	231.45
790.96	231.48
791.28	231.37
791.61	231.32
791.93	231.29
792.25	231.22
792.57	231.23
792.89	231.17
793.21	231.15
793.54	231.10
793.86	231.05
794.18	231.00
794.50	230.98
794.82	230.93
795.14	230.91
795.47	230.87
795.79	230.77
796.11	230.68
796.43	230.62
796.75	230.61
797.07	230.57
797.39	230.55
797.71	230.43
798.04	230.40
798.36	230.41
798.68	230.32
799.00	230.30
799.32	230.20
799.64	230.20
799.96	230.13
800.28	230.09
800.60	230.08
800.92	230.04
801.24	229.97
801.56	229.92
801.89	229.86
802.21	229.85
802.53	229.83
802.85	229.82
803.17	229.79
803.49	229.71
803.81	229.65
804.13	229.61
804.45	229.61
804.77	229.58
805.09	229.54
805.41	229.50
805.73	229.46
806.05	229.45
806.37	229.36
806.69	229.36
807.01	229.34
807.33	229.30
807.65	229.22
807.97	229.27
808.28	229.25
808.60	229.22
808.92	229.15
809.24	229.17
809.56	229.13
809.88	229.09
810.20	229.05
810.52	229.05
810.84	229.01
811.16	228.96
811.48	228.97
811.80	228.95
812.12	228.98
812.43	229.00
812.75	228.96
813.07	228.93
813.39	228.85
813.71	228.82
814.03	228.81
814.35	228.84
814.67	228.75
814.98	228.75
815.30	228.71
815.62	228.70
815.94	228.62
816.26	228.67
816.58	228.66
816.89	228.68
817.21	228.66
817.53	228.65
817.85	228.64
818.17	228.62
818.48	228.60
818.80	228.59
819.12	228.54
819.44	228.51
819.76	228.47
820.07	228.48
820.39	228.48
820.71	228.46
821.03	228.43
821.34	228.43
821.66	228.42
821.98	228.44
822.30	228.41
822.61	228.49
822.93	228.40
823.25	228.38
823.57	228.37
823.88	228.36
824.20	228.36
824.52	228.39
824.83	228.37
825.15	228.35
825.47	228.33
825.79	228.35
826.10	228.37
826.42	228.37
826.74	228.37
827.05	228.35
827.37	228.36
827.69	228.36
828.00	228.35
828.32	228.34
828.64	228.32
828.95	228.41
829.27	228.38
829.58	228.37
829.90	228.38
830.22	228.38
830.53	228.37
830.85	228.36
831.17	228.33
831.48	228.31
831.80	228.31
832.11	228.29
832.43	228.24
832.75	228.23
833.06	228.29
833.38	228.28
833.69	228.28
834.01	228.26
834.32	228.24
834.64	228.21
834.96	228.21
835.27	228.19
835.59	228.10
835.90	228.01
836.22	227.96
836.53	227.92
836.85	227.89
837.16	227.97
837.48	227.95
837.79	227.94
838.11	227.92
838.42	227.90
838.74	227.87
839.05	227.85
839.37	227.85
839.68	227.79
840.00	227.75
840.31	227.74
840.63	227.75
840.94	227.74
841.26	227.71
841.57	227.70
841.88	227.69
842.20	227.67
842.51	227.70
842.83	227.72
843.14	227.82
843.46	227.82
843.77	227.74
844.08	227.69
844.40	227.64
844.71	227.63
845.03	227.62
845.34	227.61
845.65	227.61
845.97	227.58
846.28	227.54
846.60	227.53
846.91	227.51
847.22	227.47
847.54	227.46
847.85	227.47
848.16	227.42
848.48	227.40
848.79	227.46
849.10	227.44
849.42	227.43
849.73	227.35
850.04	227.34
850.36	227.30
850.67	227.30
850.98	227.32
851.30	227.35
851.61	227.35
851.92	227.37
852.23	227.41
852.55	227.43
852.86	227.43
853.17	227.45
853.49	227.43
853.80	227.46
854.11	227.47
854.42	227.48
854.74	227.48
855.05	227.47
855.36	227.39
855.67	227.39
855.99	227.39
856.30	227.47
856.61	227.47
856.92	227.51
857.23	227.50
857.55	227.48
857.86	227.45
858.17	227.44
858.48	227.40
858.79	227.35
859.11	227.35
859.42	227.38
859.73	227.39
860.04	227.41
860.35	227.37
860.66	227.36
860.98	227.37
861.29	227.39
861.60	227.40
861.91	227.43
862.22	227.43
862.53	227.39
862.84	227.29
863.16	227.29
863.47	227.27
863.78	227.26
864.09	227.29
864.40	227.31
864.71	227.29
865.02	227.31
865.33	227.29
865.64	227.27
865.95	227.26
866.27	227.30
866.58	227.29
866.89	227.31
867.20	227.33
867.51	227.31
867.82	227.29
868.13	227.32
868.44	227.30
868.75	227.32
869.06	227.35
869.37	227.35
869.68	227.34
869.99	227.34
870.30	227.35
870.61	227.35
870.92	227.30
871.23	227.34
871.54	227.36
871.85	227.41
872.16	227.42
872.47	227.38
872.78	227.35
873.09	227.35
873.40	227.34
873.71	227.37
874.02	227.34
874.33	227.33
874.64	227.30
874.95	227.33
875.26	227.30
875.56	227.31
875.87	227.29
876.18	227.29
876.49	227.35
876.80	227.36
877.11	227.36
877.42	227.40
877.73	227.36
878.04	227.33
878.35	227.31
878.66	227.30
878.96	227.33
879.27	227.28
879.58	227.28
879.89	227.28
880.20	227.25
880.51	227.25
880.82	227.26
881.12	227.25
881.43	227.24
881.74	227.19
882.05	227.21
882.36	227.19
882.67	227.16
882.97	227.09
883.28	227.05
883.59	227.01
883.90	227.00
884.21	227.02
884.51	227.00
884.82	227.00
885.13	227.00
885.44	226.96
885.74	226.98
886.05	226.97
886.36	226.93
886.67	226.89
886.98	226.93
887.28	226.91
887.59	226.89
887.90	226.88
888.20	226.89
888.51	226.90
888.82	226.89
889.13	226.89
889.43	226.95
889.74	226.96
890.05	226.97
890.35	226.97
890.66	226.95
890.97	226.95
891.28	226.89
891.58	226.86
891.89	226.87
892.20	226.85
892.50	226.84
892.81	226.85
893.12	226.85
893.42	226.81
893.73	226.80
894.04	226.78
894.34	226.81
894.65	226.80
894.95	226.77
895.26	226.77
895.57	226.87
895.87	226.81
896.18	226.82
896.48	226.83
896.79	226.82
897.10	226.84
897.40	226.83
897.71	226.84
898.01	226.84
898.32	226.84
898.63	226.85
898.93	226.86
899.24	226.88
899.54	226.88
899.85	226.86
900.15	226.86
900.46	226.89
900.76	226.92
901.07	226.91
901.38	226.95
901.68	226.94
901.99	226.89
902.29	226.89
902.60	226.88
902.90	226.87
903.21	226.87
903.51	226.84
903.82	226.88
904.12	226.89
904.43	226.94
904.73	226.95
905.03	226.94
905.34	227.02
905.64	227.00
905.95	226.98
906.25	226.99
906.56	227.02
906.86	227.02
907.17	226.97
907.47	226.99
907.77	226.96
908.08	226.99
908.38	226.94
908.69	226.95
908.99	226.96
909.30	226.99
909.60	226.99
909.90	227.02
910.21	226.97
910.51	227.00
910.81	226.97
911.12	226.98
911.42	226.96
911.73	226.88
912.03	226.89
912.33	226.91
912.64	226.92
912.94	226.89
913.24	226.87
913.55	226.85
913.85	226.85
914.15	226.87
914.46	226.85
914.76	226.88
915.06	226.89
915.37	226.87
915.67	226.84
915.97	226.84
916.27	226.78
916.58	226.83
916.88	226.82
917.18	226.78
917.49	226.86
917.79	226.91
918.09	226.92
918.39	226.95
918.70	226.96
919.00	226.97
919.30	227.02
919.60	227.03
919.91	227.04
920.21	227.03
920.51	227.02
920.81	226.97
921.12	226.99
921.42	226.99
921.72	226.98
922.02	226.99
922.32	227.00
922.63	227.02
922.93	227.06
923.23	227.04
923.53	227.07
923.83	226.97
924.13	226.96
924.44	226.94
924.74	226.94
925.04	226.97
925.34	226.98
925.64	226.96
925.94	226.95
926.24	227.02
926.55	227.00
926.85	227.00
927.15	227.00
927.45	226.99
927.75	226.97
928.05	226.97
928.35	226.95
928.65	226.94
928.95	226.93
929.26	226.85
929.56	226.88
929.86	226.88
930.16	226.88
930.46	226.86
930.76	226.86
931.06	226.81
931.36	226.77
931.66	226.77
931.96	226.72
932.26	226.72
932.56	226.66
932.86	226.66
933.16	226.64
933.46	226.66
933.76	226.63
934.06	226.68
934.36	226.71
934.66	226.71
934.96	226.72
935.26	226.73
935.56	226.75
935.86	226.70
936.16	226.70
936.46	226.69
936.76	226.69
937.06	226.68
937.36	226.70
937.66	226.69
937.96	226.71
938.26	226.71
938.56	226.73
938.86	226.72
939.16	226.76
939.46	226.75
939.76	226.76
940.06	226.79
940.35	226.78
940.65	226.73
940.95	226.77
941.25	226.74
941.55	226.75
941.85	226.74
942.15	226.78
942.45	226.81
942.75	226.81
943.04	226.81
943.34	226.82
943.64	226.83
943.94	226.81
944.24	226.82
944.54	226.81
944.84	226.82
945.13	226.84
945.43	226.83
945.73	226.84
946.03	226.82
946.33	226.80
946.62	226.77
946.92	226.78
947.22	226.77
947.52	226.77
947.82	226.83
948.11	226.86
948.41	226.81
948.71	226.75
949.01	226.75
949.31	226.73
949.60	226.72
949.90	226.70
950.20	226.70
950.50	226.66
950.79	226.66
951.09	226.67
951.39	226.65
951.69	226.65
951.98	226.69
952.28	226.68
952.58	226.67
952.87	226.64
953.17	226.63
953.47	226.61
953.76	226.59
954.06	226.55
954.36	226.52
954.66	226.52
954.95	226.58
955.25	226.62
955.55	226.67
955.84	226.65
956.14	226.67
956.44	226.70
956.73	226.71
957.03	226.70
957.32	226.67
957.62	226.66
957.92	226.68
958.21	226.64
958.51	226.77
958.81	226.76
959.10	226.80
959.40	226.84
959.69	226.86
959.99	226.91
960.29	226.91
960.58	226.91
960.88	226.94
961.17	226.91
961.47	226.89
961.76	226.83
962.06	226.87
962.36	226.89
962.65	226.89
962.95	226.89
963.24	226.91
963.54	226.93
963.83	226.95
964.13	226.93
964.42	226.92
964.72	226.84
965.01	226.86
965.31	226.87
965.60	226.83
965.90	226.88
966.19	226.83
966.49	226.85
966.78	226.83
967.08	226.84
967.37	226.84
967.67	226.83
967.96	226.87
968.26	226.85
968.55	226.83
968.85	226.84
969.14	226.83
969.43	226.80
969.73	226.79
970.02	226.78
970.32	226.78
970.61	226.78
970.91	226.76
971.20	226.73
971.49	226.74
971.79	226.75
972.08	226.70
972.38	226.69
972.67	226.68
972.96	226.70
973.26	226.69
973.55	226.71
973.85	226.72
974.14	226.71
974.43	226.71
974.73	226.69
975.02	226.67
975.31	226.67
975.61	226.69
975.90	226.68
976.19	226.69
976.49	226.71
976.78	226.70
977.07	226.71
977.37	226.74
977.66	226.73
977.95	226.72
978.24	226.73
978.54	226.78
978.83	226.75
979.12	226.78
979.42	226.81
979.71	226.82
980.00	226.80
980.29	226.79
980.59	226.78
980.88	226.78
981.17	226.77
981.46	226.78
981.76	226.73
982.05	226.76
982.34	226.75
982.63	226.72
982.93	226.77
983.22	226.76
983.51	226.77
983.80	226.77
984.09	226.81
984.39	226.83
984.68	226.80
984.97	226.81
985.26	226.78
985.55	226.74
985.85	226.67
986.14	226.68
986.43	226.69
986.72	226.69
987.01	226.67
987.30	226.69
987.59	226.67
987.89	226.70
988.18	226.69
988.47	226.66
988.76	226.66
989.05	226.65
989.34	226.64
989.63	226.66
989.92	226.62
990.22	226.58
990.51	226.56
990.80	226.57
991.09	226.57
991.38	226.55
991.67	226.55
991.96	226.55
992.25	226.53
992.54	226.52
992.83	226.50
993.12	226.53
993.41	226.51
993.70	226.54
993.99	226.54
994.28	226.53
994.58	226.55
994.87	226.51
995.16	226.50
995.45	226.47
995.74	226.43
996.03	226.46
996.32	226.47
996.61	226.47
996.90	226.48
997.19	226.47
997.48	226.50
997.77	226.50
998.06	226.56
998.34	226.57
998.63	226.58
998.92	226.61
999.21	226.61
999.50	226.65
999.79	226.63
1000.08	226.65
1000.37	226.66
1000.66	226.65
1000.95	226.69
1001.24	226.70
1001.53	226.74
1001.82	226.72
1002.11	226.70
1002.40	226.72
1002.68	226.77
1002.97	226.80
1003.26	226.83
1003.55	226.84
1003.84	226.85
1004.13	226.89
1004.42	226.90
1004.71	226.93
1004.99	226.89
1005.28	226.95
1005.57	226.95
1005.86	226.96
1006.15	226.97
1006.44	226.99
1006.72	226.99
1007.01	226.99
1007.30	226.98
1007.59	226.98
1007.88	226.98
1008.17	226.97
1008.45	226.98
1008.74	226.91
1009.03	226.89
1009.32	226.86
1009.60	226.86
1009.89	226.85
1010.18	226.81
1010.47	226.82
1010.76	226.82
1011.04	226.83
1011.33	226.83
1011.62	226.81
1011.91	226.82
1012.19	226.84
1012.48	226.82
1012.77	226.86
1013.05	226.91
1013.34	226.90
1013.63	226.92
1013.92	226.95
1014.20	226.99
1014.49	226.97
1014.78	227.01
1015.06	226.96
1015.35	226.98
1015.64	226.98
1015.92	226.99
1016.21	226.94
1016.50	226.94
1016.78	226.92
1017.07	226.95
1017.36	226.93
1017.64	226.92
1017.93	226.94
1018.22	226.91
1018.50	226.91
1018.79	226.90
1019.08	226.82
1019.36	226.83
1019.65	226.81
1019.93	226.84
1020.22	226.87
1020.51	226.93
1020.79	226.90
1021.08	226.84
1021.36	226.64
1021.65	226.60
1021.94	226.32
1022.22	226.80
1022.51	226.95
1022.79	227.74
1023.08	227.57
1023.36	228.04
1023.65	226.74
>>>>>End Processed Spectral Data<<<<<
