SpectraSuite Data File
++++++++++++++++++++++++++++++++++++
Date: Fri Feb 01 16:30:59 EST 2013
User: group
Dark Spectrum Present: No
Reference Spectrum Present: No
Number of Sampled Component Spectra: 1
Spectrometers: USB2E7196
Integration Time (usec): 35000 (USB2E7196)
Spectra Averaged: 100 (USB2E7196)
Boxcar Smoothing: 10 (USB2E7196)
Correct for Electrical Dark: No (USB2E7196)
Strobe/Lamp Enabled: No (USB2E7196)
Correct for Detector Non-linearity: No (USB2E7196)
Correct for Stray Light: No (USB2E7196)
Number of Pixels in Processed Spectrum: 2048
>>>>>Begin Processed Spectral Data<<<<<
339.09	0.00
339.48	214.17
339.86	215.19
340.24	216.55
340.63	218.20
341.01	221.05
341.39	220.75
341.78	222.29
342.16	224.05
342.54	223.84
342.93	212.43
343.31	223.16
343.69	223.69
344.07	224.18
344.46	224.63
344.84	225.00
345.22	225.24
345.60	225.52
345.99	225.72
346.37	225.82
346.75	225.93
347.13	226.05
347.52	226.11
347.90	226.16
348.28	226.19
348.66	226.23
349.05	226.17
349.43	226.22
349.81	226.31
350.19	226.34
350.57	226.43
350.96	226.52
351.34	226.62
351.72	226.73
352.10	226.83
352.48	226.91
352.87	226.95
353.25	227.00
353.63	227.07
354.01	227.12
354.39	227.17
354.77	227.26
355.15	227.29
355.54	227.35
355.92	227.38
356.30	227.46
356.68	227.59
357.06	227.66
357.44	227.71
357.82	227.74
358.20	227.82
358.58	227.85
358.97	227.89
359.35	227.95
359.73	228.00
360.11	228.03
360.49	228.09
360.87	228.17
361.25	228.24
361.63	228.31
362.01	228.38
362.39	228.42
362.77	228.45
363.15	228.48
363.53	228.50
363.91	228.52
364.29	228.52
364.67	228.44
365.05	228.46
365.43	228.48
365.81	228.51
366.19	228.54
366.57	228.56
366.95	228.56
367.33	228.52
367.71	228.48
368.09	228.54
368.47	228.49
368.85	228.47
369.23	228.50
369.61	228.42
369.99	228.38
370.37	228.38
370.75	228.38
371.13	228.33
371.51	228.30
371.89	228.28
372.27	228.26
372.65	228.24
373.03	228.19
373.41	228.12
373.78	228.05
374.16	227.93
374.54	227.85
374.92	227.78
375.30	227.73
375.68	227.65
376.06	227.55
376.44	227.48
376.82	227.41
377.19	227.28
377.57	227.19
377.95	227.09
378.33	227.03
378.71	226.91
379.09	226.88
379.47	226.82
379.84	226.74
380.22	226.66
380.60	226.58
380.98	226.52
381.36	226.45
381.73	226.36
382.11	226.35
382.49	226.29
382.87	226.21
383.25	226.14
383.62	226.21
384.00	226.12
384.38	226.07
384.76	226.03
385.13	226.04
385.51	225.99
385.89	225.94
386.27	225.89
386.64	225.85
387.02	225.76
387.40	225.75
387.78	225.72
388.15	225.66
388.53	225.62
388.91	225.62
389.29	225.59
389.66	225.59
390.04	225.52
390.42	225.50
390.79	225.52
391.17	225.52
391.55	225.39
391.92	225.41
392.30	225.42
392.68	225.38
393.05	225.36
393.43	225.37
393.81	225.42
394.18	225.42
394.56	225.45
394.94	225.51
395.31	225.51
395.69	225.57
396.06	225.62
396.44	225.64
396.82	225.65
397.19	225.75
397.57	225.77
397.95	225.84
398.32	225.89
398.70	225.93
399.07	226.01
399.45	226.06
399.82	226.11
400.20	226.16
400.58	226.21
400.95	226.23
401.33	226.31
401.70	226.43
402.08	226.53
402.45	226.60
402.83	226.69
403.20	226.76
403.58	226.85
403.95	226.98
404.33	227.10
404.71	227.21
405.08	227.34
405.46	227.49
405.83	227.65
406.21	227.81
406.58	227.98
406.96	228.13
407.33	228.28
407.70	228.49
408.08	228.73
408.45	229.00
408.83	229.23
409.20	229.44
409.58	229.58
409.95	229.83
410.33	230.09
410.70	230.34
411.08	230.65
411.45	230.95
411.82	231.24
412.20	231.61
412.57	232.02
412.95	232.34
413.32	232.74
413.69	233.11
414.07	233.52
414.44	233.98
414.82	234.46
415.19	235.03
415.56	235.57
415.94	236.14
416.31	236.75
416.68	237.39
417.06	238.09
417.43	238.77
417.81	239.54
418.18	240.30
418.55	241.13
418.93	241.99
419.30	242.89
419.67	243.84
420.04	244.79
420.42	245.78
420.79	246.98
421.16	248.13
421.54	249.32
421.91	250.51
422.28	251.74
422.66	253.05
423.03	254.37
423.40	255.71
423.77	257.12
424.15	258.56
424.52	260.10
424.89	261.71
425.26	263.30
425.64	264.73
426.01	266.35
426.38	268.05
426.75	269.72
427.13	271.42
427.50	273.23
427.87	275.12
428.24	276.98
428.61	278.69
428.99	280.65
429.36	282.73
429.73	284.82
430.10	286.84
430.47	288.90
430.85	291.03
431.22	293.26
431.59	295.63
431.96	297.85
432.33	300.30
432.70	302.67
433.08	305.49
433.45	308.14
433.82	310.71
434.19	313.56
434.56	316.38
434.93	319.02
435.30	321.62
435.68	324.45
436.05	327.25
436.42	330.03
436.79	332.49
437.16	335.17
437.53	337.99
437.90	340.77
438.27	343.54
438.64	346.32
439.01	348.89
439.38	351.08
439.75	353.26
440.13	355.74
440.50	358.04
440.87	359.86
441.24	361.75
441.61	363.89
441.98	365.37
442.35	367.16
442.72	368.99
443.09	370.78
443.46	371.79
443.83	372.38
444.20	372.87
444.57	373.70
444.94	373.99
445.31	374.33
445.68	374.69
446.05	374.71
446.42	374.32
446.79	373.91
447.16	373.45
447.53	373.09
447.90	371.91
448.27	370.75
448.64	369.17
449.01	368.08
449.37	366.13
449.74	364.21
450.11	361.95
450.48	359.51
450.85	356.98
451.22	354.86
451.59	352.87
451.96	350.98
452.33	348.39
452.70	346.05
453.07	343.26
453.43	340.36
453.80	337.66
454.17	335.00
454.54	332.48
454.91	329.75
455.28	327.11
455.65	324.63
456.02	322.23
456.38	320.07
456.75	317.38
457.12	315.15
457.49	312.93
457.86	310.79
458.23	308.97
458.59	306.93
458.96	304.85
459.33	303.01
459.70	301.14
460.07	299.65
460.43	297.94
460.80	296.32
461.17	294.90
461.54	293.39
461.91	291.97
462.27	290.52
462.64	289.31
463.01	288.02
463.38	286.76
463.74	285.38
464.11	284.24
464.48	283.25
464.85	282.17
465.21	281.32
465.58	280.40
465.95	279.32
466.32	278.45
466.68	277.58
467.05	276.68
467.42	275.82
467.78	274.95
468.15	274.12
468.52	273.45
468.88	272.62
469.25	271.87
469.62	271.27
469.98	270.64
470.35	270.03
470.72	269.41
471.08	268.76
471.45	268.24
471.82	267.71
472.18	267.12
472.55	266.69
472.92	266.17
473.28	265.72
473.65	265.24
474.02	264.82
474.38	264.45
474.75	264.13
475.11	263.79
475.48	263.48
475.85	263.23
476.21	263.02
476.58	262.84
476.94	262.69
477.31	262.51
477.67	262.36
478.04	262.22
478.41	262.18
478.77	262.21
479.14	262.15
479.50	262.13
479.87	262.21
480.23	262.30
480.60	262.40
480.96	262.53
481.33	262.77
481.69	262.93
482.06	263.11
482.42	263.29
482.79	263.49
483.15	263.83
483.52	264.17
483.88	264.49
484.25	264.85
484.61	265.29
484.98	265.75
485.34	266.31
485.71	266.93
486.07	267.51
486.44	268.11
486.80	268.84
487.17	269.58
487.53	270.39
487.90	271.25
488.26	272.17
488.62	273.16
488.99	274.14
489.35	275.22
489.72	276.33
490.08	277.54
490.44	278.83
490.81	280.15
491.17	281.52
491.54	283.02
491.90	284.60
492.26	286.25
492.63	288.00
492.99	289.76
493.36	291.62
493.72	293.69
494.08	295.77
494.45	297.99
494.81	300.36
495.17	302.76
495.54	305.32
495.90	308.02
496.26	310.82
496.63	313.73
496.99	316.85
497.35	320.14
497.72	323.63
498.08	327.16
498.44	330.85
498.80	334.82
499.17	338.89
499.53	343.07
499.89	347.46
500.26	351.96
500.62	356.70
500.98	361.69
501.34	366.79
501.71	372.09
502.07	377.56
502.43	383.17
502.79	389.05
503.16	395.18
503.52	401.46
503.88	407.91
504.24	414.60
504.60	421.47
504.97	428.60
505.33	435.91
505.69	443.65
506.05	451.43
506.41	459.32
506.78	467.45
507.14	475.91
507.50	484.64
507.86	493.67
508.22	502.83
508.59	512.02
508.95	521.62
509.31	531.49
509.67	541.62
510.03	551.89
510.39	562.41
510.75	573.16
511.12	584.08
511.48	595.35
511.84	606.76
512.20	618.29
512.56	630.23
512.92	642.34
513.28	654.65
513.64	667.12
514.00	679.76
514.37	692.68
514.73	705.71
515.09	718.68
515.45	731.97
515.81	745.56
516.17	759.58
516.53	773.62
516.89	787.81
517.25	801.89
517.61	816.36
517.97	830.86
518.33	845.29
518.69	860.07
519.05	874.97
519.41	890.14
519.77	905.61
520.13	921.01
520.49	936.34
520.85	951.72
521.21	967.37
521.57	983.61
521.93	999.32
522.29	1015.63
522.65	1031.80
523.01	1047.93
523.37	1063.82
523.73	1079.87
524.09	1095.85
524.45	1112.11
524.81	1128.68
525.17	1145.39
525.53	1162.16
525.89	1178.93
526.25	1195.60
526.61	1211.90
526.97	1228.56
527.33	1244.89
527.68	1261.34
528.04	1277.71
528.40	1294.09
528.76	1310.92
529.12	1327.33
529.48	1344.18
529.84	1360.04
530.20	1376.64
530.56	1393.57
530.91	1410.88
531.27	1427.57
531.63	1443.98
531.99	1460.34
532.35	1476.16
532.71	1491.94
533.07	1508.02
533.42	1523.86
533.78	1539.96
534.14	1556.11
534.50	1571.44
534.86	1587.28
535.21	1602.52
535.57	1618.33
535.93	1633.83
536.29	1648.62
536.65	1663.64
537.00	1678.23
537.36	1693.48
537.72	1707.93
538.08	1722.21
538.44	1736.00
538.79	1749.79
539.15	1763.35
539.51	1776.95
539.87	1791.24
540.22	1804.89
540.58	1818.69
540.94	1831.75
541.29	1844.35
541.65	1857.02
542.01	1869.90
542.37	1882.19
542.72	1894.44
543.08	1906.06
543.44	1918.32
543.79	1929.47
544.15	1940.27
544.51	1951.74
544.87	1962.63
545.22	1973.31
545.58	1983.37
545.94	1992.98
546.29	2002.75
546.65	2012.51
547.01	2021.89
547.36	2030.54
547.72	2038.83
548.07	2046.49
548.43	2054.74
548.79	2062.86
549.14	2070.26
549.50	2077.62
549.86	2085.12
550.21	2092.38
550.57	2099.57
550.92	2106.07
551.28	2113.03
551.64	2120.26
551.99	2126.79
552.35	2132.95
552.70	2139.11
553.06	2145.24
553.41	2151.71
553.77	2157.58
554.13	2163.68
554.48	2169.87
554.84	2175.37
555.19	2180.74
555.55	2185.93
555.90	2190.35
556.26	2195.12
556.61	2199.90
556.97	2204.26
557.32	2208.42
557.68	2212.60
558.03	2216.94
558.39	2220.82
558.74	2225.63
559.10	2229.47
559.45	2233.14
559.81	2237.48
560.16	2241.28
560.52	2244.44
560.87	2247.75
561.23	2250.59
561.58	2253.56
561.94	2256.03
562.29	2258.44
562.64	2261.15
563.00	2263.73
563.35	2267.30
563.71	2270.43
564.06	2273.75
564.42	2276.67
564.77	2279.25
565.12	2281.40
565.48	2283.32
565.83	2285.21
566.19	2286.40
566.54	2287.14
566.89	2288.31
567.25	2288.85
567.60	2289.99
567.96	2291.80
568.31	2292.70
568.66	2293.90
569.02	2294.50
569.37	2294.74
569.72	2295.61
570.08	2295.71
570.43	2295.85
570.78	2295.30
571.14	2293.82
571.49	2292.39
571.84	2292.07
572.20	2291.04
572.55	2290.13
572.90	2288.65
573.26	2287.22
573.61	2285.64
573.96	2284.09
574.31	2281.14
574.67	2278.28
575.02	2274.96
575.37	2271.70
575.72	2267.90
576.08	2264.39
576.43	2261.08
576.78	2257.48
577.13	2254.40
577.49	2251.40
577.84	2247.94
578.19	2244.36
578.54	2240.91
578.90	2236.83
579.25	2231.24
579.60	2226.33
579.95	2221.38
580.30	2216.44
580.66	2211.38
581.01	2206.53
581.36	2201.83
581.71	2197.82
582.06	2193.34
582.42	2188.88
582.77	2183.54
583.12	2179.01
583.47	2174.43
583.82	2169.60
584.17	2164.44
584.53	2159.00
584.88	2153.51
585.23	2147.82
585.58	2142.43
585.93	2136.91
586.28	2132.25
586.63	2127.41
586.98	2122.47
587.34	2117.81
587.69	2113.05
588.04	2107.90
588.39	2102.31
588.74	2095.71
589.09	2089.62
589.44	2082.96
589.79	2076.98
590.14	2071.53
590.49	2065.06
590.84	2058.83
591.19	2052.83
591.54	2046.48
591.89	2039.11
592.25	2032.39
592.60	2025.32
592.95	2017.64
593.30	2010.30
593.65	2002.67
594.00	1995.61
594.35	1988.35
594.70	1980.43
595.05	1973.18
595.40	1965.99
595.75	1958.44
596.10	1952.32
596.45	1945.61
596.80	1939.54
597.15	1932.99
597.50	1925.93
597.85	1919.56
598.19	1912.89
598.54	1905.64
598.89	1899.01
599.24	1893.31
599.59	1886.46
599.94	1880.33
600.29	1874.04
600.64	1867.66
600.99	1860.33
601.34	1853.64
601.69	1846.69
602.04	1839.84
602.39	1832.48
602.74	1825.56
603.08	1818.87
603.43	1812.19
603.78	1804.87
604.13	1797.62
604.48	1790.32
604.83	1783.37
605.18	1776.45
605.53	1768.46
605.87	1760.67
606.22	1753.42
606.57	1745.42
606.92	1738.23
607.27	1731.02
607.62	1724.16
607.96	1716.90
608.31	1710.31
608.66	1702.67
609.01	1695.14
609.36	1687.62
609.70	1679.62
610.05	1671.60
610.40	1663.81
610.75	1655.47
611.10	1647.87
611.44	1639.43
611.79	1631.52
612.14	1622.99
612.49	1613.78
612.83	1605.51
613.18	1597.42
613.53	1589.36
613.88	1580.76
614.22	1572.52
614.57	1563.84
614.92	1555.82
615.27	1548.19
615.61	1539.81
615.96	1531.69
616.31	1524.10
616.65	1516.62
617.00	1509.17
617.35	1501.49
617.70	1493.26
618.04	1484.73
618.39	1476.45
618.74	1468.86
619.08	1460.49
619.43	1452.79
619.78	1445.93
620.12	1438.79
620.47	1431.19
620.82	1423.02
621.16	1415.58
621.51	1407.95
621.85	1400.35
622.20	1391.78
622.55	1383.45
622.89	1375.54
623.24	1368.01
623.59	1360.45
623.93	1352.94
624.28	1345.66
624.62	1338.12
624.97	1331.01
625.32	1324.26
625.66	1317.23
626.01	1310.10
626.35	1302.61
626.70	1294.88
627.04	1287.07
627.39	1279.26
627.73	1271.90
628.08	1264.96
628.43	1257.69
628.77	1250.32
629.12	1242.77
629.46	1235.62
629.81	1228.11
630.15	1220.90
630.50	1213.39
630.84	1205.26
631.19	1197.35
631.53	1189.87
631.88	1182.30
632.22	1174.67
632.57	1167.40
632.91	1159.84
633.26	1152.41
633.60	1145.06
633.95	1138.03
634.29	1130.99
634.64	1124.33
634.98	1116.99
635.32	1109.79
635.67	1103.16
636.01	1096.57
636.36	1089.75
636.70	1083.22
637.05	1076.77
637.39	1070.31
637.73	1063.85
638.08	1057.90
638.42	1051.94
638.77	1045.53
639.11	1038.89
639.45	1032.41
639.80	1025.72
640.14	1019.30
640.49	1012.73
640.83	1006.48
641.17	1000.13
641.52	993.87
641.86	987.35
642.20	981.47
642.55	975.19
642.89	968.79
643.23	962.31
643.58	956.57
643.92	950.40
644.26	944.28
644.61	938.24
644.95	932.29
645.29	925.83
645.64	919.04
645.98	912.70
646.32	906.92
646.66	900.95
647.01	895.19
647.35	889.48
647.69	883.62
648.04	878.14
648.38	872.44
648.72	866.49
649.06	860.39
649.41	854.49
649.75	848.55
650.09	842.58
650.43	836.67
650.78	830.52
651.12	824.63
651.46	818.97
651.80	813.23
652.14	807.80
652.49	802.45
652.83	797.35
653.17	791.59
653.51	785.90
653.85	780.57
654.20	774.91
654.54	768.92
654.88	763.24
655.22	757.29
655.56	751.60
655.90	746.14
656.25	740.93
656.59	735.57
656.93	730.49
657.27	725.30
657.61	719.83
657.95	714.71
658.29	709.59
658.64	704.26
658.98	699.00
659.32	693.47
659.66	688.19
660.00	682.90
660.34	678.03
660.68	673.08
661.02	668.00
661.36	663.25
661.70	658.75
662.05	654.34
662.39	650.01
662.73	645.48
663.07	641.05
663.41	636.55
663.75	631.99
664.09	627.40
664.43	622.97
664.77	618.94
665.11	614.66
665.45	610.48
665.79	606.39
666.13	602.27
666.47	598.16
666.81	594.05
667.15	589.81
667.49	585.89
667.83	582.06
668.17	578.09
668.51	574.02
668.85	570.04
669.19	566.19
669.53	562.34
669.87	558.44
670.21	554.74
670.55	551.08
670.89	547.68
671.23	544.26
671.57	540.77
671.91	537.16
672.25	533.63
672.58	530.08
672.92	526.63
673.26	523.46
673.60	520.34
673.94	517.24
674.28	514.41
674.62	511.43
674.96	508.32
675.30	505.37
675.64	502.47
675.97	499.65
676.31	496.71
676.65	493.79
676.99	491.13
677.33	488.26
677.67	485.47
678.01	482.43
678.34	479.40
678.68	476.57
679.02	473.85
679.36	471.14
679.70	468.54
680.04	465.76
680.37	462.86
680.71	460.08
681.05	457.44
681.39	454.66
681.73	451.99
682.06	449.48
682.40	447.00
682.74	444.45
683.08	441.97
683.42	439.44
683.75	436.97
684.09	434.43
684.43	431.98
684.77	429.55
685.10	427.22
685.44	424.94
685.78	422.63
686.12	420.34
686.45	418.06
686.79	415.75
687.13	413.61
687.46	411.46
687.80	409.30
688.14	407.08
688.48	405.06
688.81	402.79
689.15	400.65
689.49	398.43
689.82	396.36
690.16	394.23
690.50	392.31
690.83	390.33
691.17	388.33
691.51	386.43
691.84	384.57
692.18	382.64
692.52	380.64
692.85	378.70
693.19	376.74
693.52	374.87
693.86	373.03
694.20	371.22
694.53	369.43
694.87	367.58
695.21	365.79
695.54	363.95
695.88	362.22
696.21	360.44
696.55	358.80
696.88	357.08
697.22	355.40
697.56	353.76
697.89	352.09
698.23	350.46
698.56	348.84
698.90	347.22
699.23	345.59
699.57	344.06
699.90	342.51
700.24	341.01
700.58	339.50
700.91	337.92
701.25	336.45
701.58	335.06
701.92	333.68
702.25	332.31
702.59	330.94
702.92	329.60
703.26	328.35
703.59	327.04
703.93	325.91
704.26	324.68
704.60	323.34
704.93	322.06
705.26	320.83
705.60	319.63
705.93	318.48
706.27	317.43
706.60	316.38
706.94	315.31
707.27	314.16
707.61	313.08
707.94	312.11
708.27	311.03
708.61	309.92
708.94	308.89
709.28	307.92
709.61	306.96
709.94	306.03
710.28	304.94
710.61	303.95
710.95	302.82
711.28	301.90
711.61	300.95
711.95	300.02
712.28	299.05
712.61	298.08
712.95	297.12
713.28	296.23
713.61	295.29
713.95	294.35
714.28	293.53
714.61	292.67
714.95	291.85
715.28	290.99
715.61	290.14
715.95	289.28
716.28	288.39
716.61	287.51
716.95	286.70
717.28	286.02
717.61	285.26
717.94	284.54
718.28	283.77
718.61	283.08
718.94	282.43
719.27	281.78
719.61	281.12
719.94	280.49
720.27	279.73
720.60	279.11
720.94	278.51
721.27	277.93
721.60	277.32
721.93	276.68
722.27	276.13
722.60	275.58
722.93	275.04
723.26	274.53
723.59	273.99
723.93	273.43
724.26	272.86
724.59	272.31
724.92	271.77
725.25	271.25
725.59	270.72
725.92	270.21
726.25	269.68
726.58	269.23
726.91	268.77
727.24	268.35
727.57	267.89
727.91	267.38
728.24	266.90
728.57	266.45
728.90	266.01
729.23	265.56
729.56	265.15
729.89	264.69
730.22	264.22
730.55	263.76
730.89	263.33
731.22	262.91
731.55	262.53
731.88	262.14
732.21	261.71
732.54	261.28
732.87	260.88
733.20	260.50
733.53	260.10
733.86	259.66
734.19	259.29
734.52	258.90
734.85	258.60
735.18	258.19
735.51	257.84
735.84	257.46
736.17	257.11
736.50	256.69
736.83	256.42
737.16	256.09
737.49	255.77
737.82	255.42
738.15	255.09
738.48	254.72
738.81	254.38
739.14	254.06
739.47	253.72
739.80	253.37
740.13	253.09
740.46	252.76
740.79	252.44
741.12	252.10
741.45	251.78
741.78	251.42
742.11	251.12
742.44	250.76
742.77	250.48
743.10	250.13
743.43	249.82
743.75	249.45
744.08	249.30
744.41	248.98
744.74	248.70
745.07	248.40
745.40	248.10
745.73	247.86
746.06	247.57
746.39	247.31
746.71	247.02
747.04	246.73
747.37	246.50
747.70	246.24
748.03	245.99
748.36	245.78
748.68	245.50
749.01	245.26
749.34	245.07
749.67	244.81
750.00	244.61
750.33	244.48
750.65	244.24
750.98	243.86
751.31	243.63
751.64	243.42
751.97	243.26
752.29	243.04
752.62	242.79
752.95	242.57
753.28	242.36
753.60	242.15
753.93	241.98
754.26	241.71
754.59	241.49
754.91	241.24
755.24	241.03
755.57	240.88
755.90	240.69
756.22	240.45
756.55	240.27
756.88	240.07
757.20	239.82
757.53	239.61
757.86	239.43
758.19	239.33
758.51	239.15
758.84	238.94
759.17	238.78
759.49	238.62
759.82	238.50
760.15	238.35
760.47	238.23
760.80	238.04
761.13	237.96
761.45	237.83
761.78	237.71
762.11	237.59
762.43	237.42
762.76	237.30
763.08	237.19
763.41	237.06
763.74	236.94
764.06	236.83
764.39	236.69
764.71	236.59
765.04	236.40
765.37	236.26
765.69	236.13
766.02	236.01
766.34	235.90
766.67	235.78
767.00	235.71
767.32	235.64
767.65	235.60
767.97	235.46
768.30	235.36
768.62	235.26
768.95	235.14
769.27	235.03
769.60	234.93
769.92	234.81
770.25	234.71
770.57	234.60
770.90	234.50
771.22	234.45
771.55	234.33
771.87	234.28
772.20	234.24
772.52	234.27
772.85	234.30
773.17	234.18
773.50	234.06
773.82	233.96
774.15	233.82
774.47	233.67
774.80	233.56
775.12	233.50
775.45	233.40
775.77	233.28
776.09	233.19
776.42	233.12
776.74	233.09
777.07	232.99
777.39	232.92
777.72	232.82
778.04	232.75
778.36	232.68
778.69	232.58
779.01	232.50
779.33	232.30
779.66	232.13
779.98	232.09
780.31	232.03
780.63	231.99
780.95	231.96
781.28	231.92
781.60	231.89
781.92	231.80
782.25	231.79
782.57	231.74
782.89	231.70
783.22	231.62
783.54	231.56
783.86	231.51
784.19	231.44
784.51	231.40
784.83	231.30
785.16	231.22
785.48	231.17
785.80	231.06
786.12	231.04
786.45	230.95
786.77	230.90
787.09	230.83
787.42	230.74
787.74	230.65
788.06	230.59
788.38	230.49
788.71	230.41
789.03	230.33
789.35	230.30
789.67	230.24
789.99	230.21
790.32	230.12
790.64	230.10
790.96	230.14
791.28	230.06
791.61	230.05
791.93	230.03
792.25	229.99
792.57	230.03
792.89	229.97
793.21	229.95
793.54	229.88
793.86	229.82
794.18	229.75
794.50	229.68
794.82	229.63
795.14	229.63
795.47	229.62
795.79	229.58
796.11	229.52
796.43	229.51
796.75	229.45
797.07	229.41
797.39	229.37
797.71	229.26
798.04	229.26
798.36	229.22
798.68	229.17
799.00	229.14
799.32	229.07
799.64	229.06
799.96	229.02
800.28	229.00
800.60	228.96
800.92	228.97
801.24	228.96
801.56	228.95
801.89	228.89
802.21	228.89
802.53	228.86
802.85	228.87
803.17	228.87
803.49	228.82
803.81	228.78
804.13	228.76
804.45	228.70
804.77	228.68
805.09	228.68
805.41	228.62
805.73	228.59
806.05	228.54
806.37	228.50
806.69	228.49
807.01	228.48
807.33	228.50
807.65	228.45
807.97	228.49
808.28	228.45
808.60	228.45
808.92	228.39
809.24	228.40
809.56	228.36
809.88	228.30
810.20	228.29
810.52	228.34
810.84	228.34
811.16	228.32
811.48	228.30
811.80	228.31
812.12	228.34
812.43	228.35
812.75	228.34
813.07	228.34
813.39	228.32
813.71	228.29
814.03	228.24
814.35	228.25
814.67	228.20
814.98	228.21
815.30	228.18
815.62	228.17
815.94	228.13
816.26	228.14
816.58	228.16
816.89	228.19
817.21	228.12
817.53	228.07
817.85	228.09
818.17	228.06
818.48	227.98
818.80	227.95
819.12	227.92
819.44	227.90
819.76	227.87
820.07	227.88
820.39	227.88
820.71	227.89
821.03	227.85
821.34	227.84
821.66	227.82
821.98	227.85
822.30	227.84
822.61	227.88
822.93	227.85
823.25	227.79
823.57	227.73
823.88	227.74
824.20	227.70
824.52	227.70
824.83	227.68
825.15	227.68
825.47	227.68
825.79	227.67
826.10	227.65
826.42	227.63
826.74	227.60
827.05	227.58
827.37	227.59
827.69	227.56
828.00	227.51
828.32	227.54
828.64	227.51
828.95	227.52
829.27	227.46
829.58	227.42
829.90	227.40
830.22	227.38
830.53	227.34
830.85	227.34
831.17	227.30
831.48	227.27
831.80	227.27
832.11	227.23
832.43	227.19
832.75	227.16
833.06	227.19
833.38	227.16
833.69	227.12
834.01	227.10
834.32	227.10
834.64	227.08
834.96	227.03
835.27	227.00
835.59	226.95
835.90	226.92
836.22	226.91
836.53	226.86
836.85	226.86
837.16	226.93
837.48	226.91
837.79	226.92
838.11	226.94
838.42	226.91
838.74	226.92
839.05	226.93
839.37	226.95
839.68	226.87
840.00	226.85
840.31	226.85
840.63	226.86
840.94	226.82
841.26	226.80
841.57	226.80
841.88	226.80
842.20	226.77
842.51	226.78
842.83	226.80
843.14	226.88
843.46	226.89
843.77	226.87
844.08	226.86
844.40	226.84
844.71	226.82
845.03	226.78
845.34	226.79
845.65	226.78
845.97	226.73
846.28	226.74
846.60	226.76
846.91	226.72
847.22	226.69
847.54	226.69
847.85	226.69
848.16	226.66
848.48	226.65
848.79	226.69
849.10	226.67
849.42	226.64
849.73	226.58
850.04	226.54
850.36	226.49
850.67	226.50
850.98	226.48
851.30	226.50
851.61	226.51
851.92	226.46
852.23	226.47
852.55	226.49
852.86	226.50
853.17	226.50
853.49	226.54
853.80	226.56
854.11	226.60
854.42	226.60
854.74	226.60
855.05	226.57
855.36	226.51
855.67	226.50
855.99	226.50
856.30	226.60
856.61	226.60
856.92	226.60
857.23	226.58
857.55	226.56
857.86	226.54
858.17	226.52
858.48	226.54
858.79	226.50
859.11	226.52
859.42	226.52
859.73	226.50
860.04	226.52
860.35	226.48
860.66	226.43
860.98	226.45
861.29	226.47
861.60	226.48
861.91	226.52
862.22	226.53
862.53	226.51
862.84	226.43
863.16	226.49
863.47	226.44
863.78	226.47
864.09	226.48
864.40	226.49
864.71	226.53
865.02	226.52
865.33	226.54
865.64	226.51
865.95	226.51
866.27	226.59
866.58	226.54
866.89	226.53
867.20	226.53
867.51	226.53
867.82	226.55
868.13	226.58
868.44	226.55
868.75	226.57
869.06	226.60
869.37	226.60
869.68	226.55
869.99	226.60
870.30	226.57
870.61	226.58
870.92	226.58
871.23	226.57
871.54	226.60
871.85	226.60
872.16	226.63
872.47	226.63
872.78	226.56
873.09	226.58
873.40	226.59
873.71	226.64
874.02	226.60
874.33	226.55
874.64	226.55
874.95	226.56
875.26	226.55
875.56	226.54
875.87	226.54
876.18	226.51
876.49	226.60
876.80	226.59
877.11	226.61
877.42	226.63
877.73	226.61
878.04	226.60
878.35	226.62
878.66	226.58
878.96	226.56
879.27	226.57
879.58	226.57
879.89	226.55
880.20	226.55
880.51	226.57
880.82	226.58
881.12	226.57
881.43	226.57
881.74	226.53
882.05	226.52
882.36	226.52
882.67	226.54
882.97	226.43
883.28	226.45
883.59	226.43
883.90	226.40
884.21	226.43
884.51	226.41
884.82	226.41
885.13	226.38
885.44	226.40
885.74	226.39
886.05	226.40
886.36	226.40
886.67	226.37
886.98	226.41
887.28	226.40
887.59	226.38
887.90	226.36
888.20	226.38
888.51	226.40
888.82	226.39
889.13	226.41
889.43	226.49
889.74	226.48
890.05	226.46
890.35	226.46
890.66	226.41
890.97	226.39
891.28	226.35
891.58	226.36
891.89	226.35
892.20	226.32
892.50	226.29
892.81	226.30
893.12	226.28
893.42	226.26
893.73	226.25
894.04	226.27
894.34	226.29
894.65	226.27
894.95	226.26
895.26	226.25
895.57	226.27
895.87	226.18
896.18	226.17
896.48	226.16
896.79	226.17
897.10	226.19
897.40	226.23
897.71	226.26
898.01	226.26
898.32	226.28
898.63	226.26
898.93	226.26
899.24	226.26
899.54	226.26
899.85	226.23
900.15	226.21
900.46	226.19
900.76	226.19
901.07	226.21
901.38	226.16
901.68	226.18
901.99	226.15
902.29	226.14
902.60	226.15
902.90	226.16
903.21	226.18
903.51	226.22
903.82	226.21
904.12	226.23
904.43	226.24
904.73	226.26
905.03	226.26
905.34	226.36
905.64	226.33
905.95	226.34
906.25	226.34
906.56	226.37
906.86	226.37
907.17	226.36
907.47	226.35
907.77	226.35
908.08	226.33
908.38	226.34
908.69	226.35
908.99	226.39
909.30	226.36
909.60	226.33
909.90	226.31
910.21	226.30
910.51	226.27
910.81	226.29
911.12	226.26
911.42	226.30
911.73	226.18
912.03	226.21
912.33	226.23
912.64	226.25
912.94	226.26
913.24	226.24
913.55	226.26
913.85	226.27
914.15	226.30
914.46	226.32
914.76	226.29
915.06	226.28
915.37	226.24
915.67	226.25
915.97	226.25
916.27	226.25
916.58	226.23
916.88	226.24
917.18	226.20
917.49	226.27
917.79	226.26
918.09	226.30
918.39	226.29
918.70	226.28
919.00	226.27
919.30	226.31
919.60	226.28
919.91	226.27
920.21	226.26
920.51	226.25
920.81	226.23
921.12	226.24
921.42	226.22
921.72	226.23
922.02	226.24
922.32	226.25
922.63	226.23
922.93	226.24
923.23	226.22
923.53	226.21
923.83	226.15
924.13	226.16
924.44	226.14
924.74	226.18
925.04	226.21
925.34	226.19
925.64	226.12
925.94	226.15
926.24	226.18
926.55	226.17
926.85	226.18
927.15	226.18
927.45	226.16
927.75	226.14
928.05	226.13
928.35	226.11
928.65	226.10
928.95	226.09
929.26	226.10
929.56	226.11
929.86	226.13
930.16	226.12
930.46	226.07
930.76	226.09
931.06	226.03
931.36	225.99
931.66	226.02
931.96	226.04
932.26	226.06
932.56	226.01
932.86	226.02
933.16	226.00
933.46	225.99
933.76	226.00
934.06	226.04
934.36	226.06
934.66	226.06
934.96	226.06
935.26	226.07
935.56	226.07
935.86	226.03
936.16	226.03
936.46	226.01
936.76	225.99
937.06	225.95
937.36	225.96
937.66	225.99
937.96	225.98
938.26	225.95
938.56	225.91
938.86	225.91
939.16	225.95
939.46	225.98
939.76	225.96
940.06	225.94
940.35	225.91
940.65	225.87
940.95	225.87
941.25	225.86
941.55	225.87
941.85	225.85
942.15	225.88
942.45	225.89
942.75	225.92
943.04	225.96
943.34	225.98
943.64	225.98
943.94	225.94
944.24	225.94
944.54	225.95
944.84	225.98
945.13	225.93
945.43	225.90
945.73	225.90
946.03	225.93
946.33	225.89
946.62	225.88
946.92	225.90
947.22	225.90
947.52	225.93
947.82	225.91
948.11	225.92
948.41	225.92
948.71	225.89
949.01	225.85
949.31	225.84
949.60	225.81
949.90	225.84
950.20	225.86
950.50	225.85
950.79	225.82
951.09	225.81
951.39	225.84
951.69	225.81
951.98	225.78
952.28	225.78
952.58	225.80
952.87	225.80
953.17	225.80
953.47	225.82
953.76	225.78
954.06	225.76
954.36	225.73
954.66	225.70
954.95	225.73
955.25	225.75
955.55	225.73
955.84	225.75
956.14	225.75
956.44	225.71
956.73	225.69
957.03	225.70
957.32	225.69
957.62	225.65
957.92	225.67
958.21	225.68
958.51	225.78
958.81	225.80
959.10	225.81
959.40	225.82
959.69	225.80
959.99	225.84
960.29	225.83
960.58	225.84
960.88	225.85
961.17	225.82
961.47	225.85
961.76	225.82
962.06	225.80
962.36	225.73
962.65	225.78
962.95	225.78
963.24	225.79
963.54	225.79
963.83	225.84
964.13	225.85
964.42	225.81
964.72	225.70
965.01	225.72
965.31	225.72
965.60	225.71
965.90	225.76
966.19	225.72
966.49	225.75
966.78	225.76
967.08	225.78
967.37	225.81
967.67	225.75
967.96	225.79
968.26	225.79
968.55	225.81
968.85	225.78
969.14	225.79
969.43	225.79
969.73	225.76
970.02	225.73
970.32	225.70
970.61	225.73
970.91	225.75
971.20	225.71
971.49	225.72
971.79	225.76
972.08	225.70
972.38	225.74
972.67	225.76
972.96	225.75
973.26	225.75
973.55	225.81
973.85	225.81
974.14	225.82
974.43	225.86
974.73	225.85
975.02	225.84
975.31	225.83
975.61	225.83
975.90	225.86
976.19	225.87
976.49	225.89
976.78	225.87
977.07	225.84
977.37	225.87
977.66	225.88
977.95	225.84
978.24	225.87
978.54	225.84
978.83	225.83
979.12	225.84
979.42	225.81
979.71	225.78
980.00	225.82
980.29	225.80
980.59	225.80
980.88	225.85
981.17	225.85
981.46	225.89
981.76	225.91
982.05	225.94
982.34	225.97
982.63	225.98
982.93	226.04
983.22	226.10
983.51	226.11
983.80	226.09
984.09	226.11
984.39	226.12
984.68	226.12
984.97	226.15
985.26	226.14
985.55	226.16
985.85	226.10
986.14	226.09
986.43	226.11
986.72	226.11
987.01	226.09
987.30	226.09
987.59	226.07
987.89	226.06
988.18	226.04
988.47	226.00
988.76	225.96
989.05	225.93
989.34	225.90
989.63	225.89
989.92	225.87
990.22	225.84
990.51	225.83
990.80	225.83
991.09	225.81
991.38	225.84
991.67	225.85
991.96	225.85
992.25	225.88
992.54	225.86
992.83	225.84
993.12	225.84
993.41	225.89
993.70	225.93
993.99	225.91
994.28	225.90
994.58	225.95
994.87	225.97
995.16	225.96
995.45	225.93
995.74	225.89
996.03	225.92
996.32	225.94
996.61	225.95
996.90	225.93
997.19	225.90
997.48	225.88
997.77	225.83
998.06	225.84
998.34	225.81
998.63	225.79
998.92	225.78
999.21	225.76
999.50	225.74
999.79	225.71
1000.08	225.74
1000.37	225.74
1000.66	225.71
1000.95	225.68
1001.24	225.69
1001.53	225.72
1001.82	225.73
1002.11	225.70
1002.40	225.71
1002.68	225.74
1002.97	225.81
1003.26	225.80
1003.55	225.79
1003.84	225.80
1004.13	225.82
1004.42	225.82
1004.71	225.85
1004.99	225.85
1005.28	225.88
1005.57	225.87
1005.86	225.86
1006.15	225.85
1006.44	225.82
1006.72	225.85
1007.01	225.88
1007.30	225.90
1007.59	225.91
1007.88	225.93
1008.17	225.92
1008.45	225.91
1008.74	225.87
1009.03	225.83
1009.32	225.86
1009.60	225.86
1009.89	225.84
1010.18	225.83
1010.47	225.82
1010.76	225.80
1011.04	225.80
1011.33	225.79
1011.62	225.82
1011.91	225.84
1012.19	225.82
1012.48	225.82
1012.77	225.82
1013.05	225.86
1013.34	225.86
1013.63	225.83
1013.92	225.81
1014.20	225.80
1014.49	225.79
1014.78	225.85
1015.06	225.82
1015.35	225.83
1015.64	225.86
1015.92	225.88
1016.21	225.87
1016.50	225.87
1016.78	225.90
1017.07	225.94
1017.36	225.90
1017.64	225.88
1017.93	225.86
1018.22	225.88
1018.50	225.89
1018.79	225.87
1019.08	225.81
1019.36	225.79
1019.65	225.81
1019.93	225.87
1020.22	225.88
1020.51	225.92
1020.79	225.87
1021.08	225.96
1021.36	225.69
1021.65	225.99
1021.94	225.52
1022.22	225.79
1022.51	226.05
1022.79	226.93
1023.08	225.18
1023.36	226.69
1023.65	225.82
>>>>>End Processed Spectral Data<<<<<
