SpectraSuite Data File
++++++++++++++++++++++++++++++++++++
Date: Fri Feb 01 15:02:36 EST 2013
User: group
Dark Spectrum Present: No
Reference Spectrum Present: No
Number of Sampled Component Spectra: 1
Spectrometers: USB2E7196
Integration Time (usec): 35000 (USB2E7196)
Spectra Averaged: 100 (USB2E7196)
Boxcar Smoothing: 10 (USB2E7196)
Correct for Electrical Dark: No (USB2E7196)
Strobe/Lamp Enabled: No (USB2E7196)
Correct for Detector Non-linearity: No (USB2E7196)
Correct for Stray Light: No (USB2E7196)
Number of Pixels in Processed Spectrum: 2048
>>>>>Begin Processed Spectral Data<<<<<
339.09	0.00
339.48	215.03
339.86	216.28
340.24	217.74
340.63	219.83
341.01	221.84
341.39	222.22
341.78	223.75
342.16	224.34
342.54	225.61
342.93	213.48
343.31	224.26
343.69	224.80
344.07	225.28
344.46	225.68
344.84	226.03
345.22	226.27
345.60	226.49
345.99	226.66
346.37	226.81
346.75	226.90
347.13	227.00
347.52	227.10
347.90	227.19
348.28	227.19
348.66	227.21
349.05	227.22
349.43	227.25
349.81	227.28
350.19	227.30
350.57	227.34
350.96	227.37
351.34	227.45
351.72	227.51
352.10	227.58
352.48	227.67
352.87	227.71
353.25	227.77
353.63	227.83
354.01	227.89
354.39	227.94
354.77	227.99
355.15	228.09
355.54	228.11
355.92	228.10
356.30	228.22
356.68	228.34
357.06	228.37
357.44	228.42
357.82	228.48
358.20	228.56
358.58	228.60
358.97	228.66
359.35	228.74
359.73	228.81
360.11	228.88
360.49	228.93
360.87	228.96
361.25	229.04
361.63	229.13
362.01	229.17
362.39	229.17
362.77	229.21
363.15	229.22
363.53	229.25
363.91	229.29
364.29	229.26
364.67	229.19
365.05	229.21
365.43	229.22
365.81	229.26
366.19	229.30
366.57	229.33
366.95	229.32
367.33	229.27
367.71	229.29
368.09	229.30
368.47	229.27
368.85	229.27
369.23	229.27
369.61	229.19
369.99	229.20
370.37	229.22
370.75	229.21
371.13	229.12
371.51	229.05
371.89	229.01
372.27	229.00
372.65	228.96
373.03	228.93
373.41	228.86
373.78	228.77
374.16	228.66
374.54	228.58
374.92	228.53
375.30	228.48
375.68	228.39
376.06	228.31
376.44	228.23
376.82	228.17
377.19	228.07
377.57	228.02
377.95	227.90
378.33	227.82
378.71	227.68
379.09	227.63
379.47	227.55
379.84	227.47
380.22	227.39
380.60	227.28
380.98	227.19
381.36	227.10
381.73	227.02
382.11	226.95
382.49	226.90
382.87	226.82
383.25	226.74
383.62	226.79
384.00	226.71
384.38	226.70
384.76	226.64
385.13	226.59
385.51	226.53
385.89	226.46
386.27	226.40
386.64	226.38
387.02	226.35
387.40	226.32
387.78	226.29
388.15	226.24
388.53	226.23
388.91	226.18
389.29	226.15
389.66	226.14
390.04	226.13
390.42	226.11
390.79	226.11
391.17	226.12
391.55	225.99
391.92	225.98
392.30	225.95
392.68	225.95
393.05	225.96
393.43	225.98
393.81	226.01
394.18	226.01
394.56	226.01
394.94	226.03
395.31	226.05
395.69	226.09
396.06	226.14
396.44	226.18
396.82	226.25
397.19	226.33
397.57	226.37
397.95	226.42
398.32	226.45
398.70	226.52
399.07	226.57
399.45	226.65
399.82	226.70
400.20	226.76
400.58	226.85
400.95	226.92
401.33	227.00
401.70	227.16
402.08	227.26
402.45	227.39
402.83	227.54
403.20	227.66
403.58	227.77
403.95	227.92
404.33	228.07
404.71	228.20
405.08	228.38
405.46	228.54
405.83	228.71
406.21	228.87
406.58	229.04
406.96	229.25
407.33	229.43
407.70	229.69
408.08	229.98
408.45	230.20
408.83	230.46
409.20	230.71
409.58	230.92
409.95	231.20
410.33	231.47
410.70	231.72
411.08	232.03
411.45	232.37
411.82	232.69
412.20	233.07
412.57	233.50
412.95	233.84
413.32	234.27
413.69	234.69
414.07	235.16
414.44	235.62
414.82	236.08
415.19	236.66
415.56	237.20
415.94	237.72
416.31	238.34
416.68	238.96
417.06	239.68
417.43	240.37
417.81	241.18
418.18	241.94
418.55	242.80
418.93	243.68
419.30	244.57
419.67	245.48
420.04	246.41
420.42	247.43
420.79	248.62
421.16	249.78
421.54	250.93
421.91	252.12
422.28	253.41
422.66	254.73
423.03	256.02
423.40	257.36
423.77	258.84
424.15	260.33
424.52	261.82
424.89	263.45
425.26	264.97
425.64	266.40
426.01	268.00
426.38	269.62
426.75	271.32
427.13	273.05
427.50	274.90
427.87	276.81
428.24	278.68
428.61	280.41
428.99	282.32
429.36	284.47
429.73	286.55
430.10	288.59
430.47	290.69
430.85	292.81
431.22	295.06
431.59	297.40
431.96	299.60
432.33	302.08
432.70	304.43
433.08	307.25
433.45	309.87
433.82	312.50
434.19	315.41
434.56	318.21
434.93	320.86
435.30	323.46
435.68	326.32
436.05	329.19
436.42	332.03
436.79	334.56
437.16	337.24
437.53	340.09
437.90	342.91
438.27	345.66
438.64	348.47
439.01	351.07
439.38	353.32
439.75	355.50
440.13	357.97
440.50	360.29
440.87	362.12
441.24	364.11
441.61	366.31
441.98	367.79
442.35	369.60
442.72	371.44
443.09	373.26
443.46	374.30
443.83	374.81
444.20	375.24
444.57	376.11
444.94	376.43
445.31	376.72
445.68	377.04
446.05	377.06
446.42	376.69
446.79	376.28
447.16	375.85
447.53	375.50
447.90	374.35
448.27	373.19
448.64	371.61
449.01	370.43
449.37	368.42
449.74	366.49
450.11	364.20
450.48	361.74
450.85	359.18
451.22	357.00
451.59	354.97
451.96	353.03
452.33	350.35
452.70	347.96
453.07	345.15
453.43	342.23
453.80	339.46
454.17	336.80
454.54	334.21
454.91	331.45
455.28	328.79
455.65	326.32
456.02	323.90
456.38	321.78
456.75	319.12
457.12	316.88
457.49	314.73
457.86	312.54
458.23	310.70
458.59	308.69
458.96	306.63
459.33	304.79
459.70	302.94
460.07	301.46
460.43	299.76
460.80	298.12
461.17	296.69
461.54	295.21
461.91	293.77
462.27	292.34
462.64	291.10
463.01	289.79
463.38	288.50
463.74	287.08
464.11	285.91
464.48	284.91
464.85	283.75
465.21	282.83
465.58	281.96
465.95	280.83
466.32	279.88
466.68	278.97
467.05	278.08
467.42	277.19
467.78	276.24
468.15	275.35
468.52	274.70
468.88	273.87
469.25	273.10
469.62	272.45
469.98	271.76
470.35	271.11
470.72	270.47
471.08	269.79
471.45	269.27
471.82	268.71
472.18	268.07
472.55	267.63
472.92	267.10
473.28	266.63
473.65	266.17
474.02	265.71
474.38	265.31
474.75	264.94
475.11	264.55
475.48	264.31
475.85	264.09
476.21	263.81
476.58	263.56
476.94	263.40
477.31	263.21
477.67	263.06
478.04	262.97
478.41	262.92
478.77	262.94
479.14	262.84
479.50	262.79
479.87	262.83
480.23	262.89
480.60	262.96
480.96	263.03
481.33	263.24
481.69	263.47
482.06	263.68
482.42	263.86
482.79	264.12
483.15	264.43
483.52	264.75
483.88	265.13
484.25	265.56
484.61	265.98
484.98	266.48
485.34	267.04
485.71	267.58
486.07	268.14
486.44	268.70
486.80	269.41
487.17	270.19
487.53	271.00
487.90	271.85
488.26	272.77
488.62	273.73
488.99	274.69
489.35	275.74
489.72	276.87
490.08	278.07
490.44	279.32
490.81	280.66
491.17	282.02
491.54	283.43
491.90	284.94
492.26	286.59
492.63	288.27
492.99	290.02
493.36	291.92
493.72	293.92
494.08	296.05
494.45	298.29
494.81	300.63
495.17	303.05
495.54	305.62
495.90	308.28
496.26	311.10
496.63	314.05
496.99	317.08
497.35	320.30
497.72	323.69
498.08	327.21
498.44	330.81
498.80	334.75
499.17	338.84
499.53	342.98
499.89	347.32
500.26	351.85
500.62	356.48
500.98	361.41
501.34	366.50
501.71	371.79
502.07	377.19
502.43	382.77
502.79	388.60
503.16	394.63
503.52	400.90
503.88	407.27
504.24	413.87
504.60	420.81
504.97	427.91
505.33	435.26
505.69	442.96
506.05	450.72
506.41	458.54
506.78	466.70
507.14	475.13
507.50	483.84
507.86	492.81
508.22	502.08
508.59	511.27
508.95	520.82
509.31	530.66
509.67	540.78
510.03	551.06
510.39	561.66
510.75	572.47
511.12	583.33
511.48	594.58
511.84	606.00
512.20	617.47
512.56	629.40
512.92	641.57
513.28	653.82
513.64	666.39
514.00	679.09
514.37	691.94
514.73	705.04
515.09	718.06
515.45	731.38
515.81	744.94
516.17	758.94
516.53	773.03
516.89	787.17
517.25	801.35
517.61	815.75
517.97	830.23
518.33	844.73
518.69	859.60
519.05	874.69
519.41	889.90
519.77	905.45
520.13	921.02
520.49	936.40
520.85	951.89
521.21	967.62
521.57	983.95
521.93	999.89
522.29	1016.20
522.65	1032.54
523.01	1048.81
523.37	1064.90
523.73	1081.15
524.09	1097.36
524.45	1113.74
524.81	1130.46
525.17	1147.43
525.53	1164.26
525.89	1181.11
526.25	1198.04
526.61	1214.44
526.97	1231.26
527.33	1247.73
527.68	1264.42
528.04	1280.98
528.40	1297.73
528.76	1314.82
529.12	1331.43
529.48	1348.31
529.84	1364.49
530.20	1381.20
530.56	1398.35
530.91	1415.77
531.27	1432.58
531.63	1448.99
531.99	1465.64
532.35	1481.65
532.71	1497.55
533.07	1513.97
533.42	1529.95
533.78	1545.90
534.14	1562.27
534.50	1577.61
534.86	1593.72
535.21	1608.91
535.57	1624.96
535.93	1640.59
536.29	1655.54
536.65	1670.79
537.00	1685.70
537.36	1701.05
537.72	1715.66
538.08	1730.12
538.44	1744.17
538.79	1758.12
539.15	1772.03
539.51	1785.92
539.87	1800.46
540.22	1814.32
540.58	1828.21
540.94	1841.62
541.29	1854.68
541.65	1867.55
542.01	1880.92
542.37	1893.27
542.72	1905.80
543.08	1917.66
543.44	1930.04
543.79	1941.33
544.15	1952.34
544.51	1963.91
544.87	1974.95
545.22	1985.82
545.58	1996.04
545.94	2005.77
546.29	2015.78
546.65	2025.67
547.01	2034.84
547.36	2043.55
547.72	2052.06
548.07	2059.83
548.43	2068.04
548.79	2076.12
549.14	2083.54
549.50	2090.96
549.86	2098.68
550.21	2105.89
550.57	2113.10
550.92	2119.67
551.28	2126.75
551.64	2133.85
551.99	2140.54
552.35	2146.78
552.70	2152.84
553.06	2158.80
553.41	2165.06
553.77	2170.94
554.13	2177.10
554.48	2183.15
554.84	2188.54
555.19	2193.97
555.55	2199.02
555.90	2203.44
556.26	2208.30
556.61	2212.89
556.97	2217.04
557.32	2221.13
557.68	2225.21
558.03	2229.43
558.39	2233.23
558.74	2237.89
559.10	2241.66
559.45	2245.01
559.81	2249.23
560.16	2253.05
560.52	2256.24
560.87	2259.63
561.23	2262.37
561.58	2265.23
561.94	2267.82
562.29	2270.15
562.64	2272.55
563.00	2275.35
563.35	2278.88
563.71	2281.92
564.06	2285.20
564.42	2287.99
564.77	2290.33
565.12	2292.56
565.48	2294.29
565.83	2295.95
566.19	2297.03
566.54	2297.92
566.89	2299.08
567.25	2299.55
567.60	2300.76
567.96	2302.31
568.31	2303.15
568.66	2304.02
569.02	2304.46
569.37	2304.66
569.72	2305.45
570.08	2305.46
570.43	2305.27
570.78	2304.35
571.14	2302.79
571.49	2301.34
571.84	2300.96
572.20	2299.60
572.55	2298.34
572.90	2296.82
573.26	2295.22
573.61	2293.49
573.96	2291.49
574.31	2288.31
574.67	2285.10
575.02	2281.32
575.37	2277.93
575.72	2273.83
576.08	2270.39
576.43	2267.01
576.78	2263.23
577.13	2259.81
577.49	2256.68
577.84	2253.07
578.19	2249.32
578.54	2245.38
578.90	2240.99
579.25	2235.25
579.60	2230.27
579.95	2225.29
580.30	2220.00
580.66	2214.78
581.01	2209.59
581.36	2204.58
581.71	2200.35
582.06	2195.84
582.42	2191.22
582.77	2185.81
583.12	2181.12
583.47	2176.35
583.82	2171.04
584.17	2165.61
584.53	2160.00
584.88	2154.16
585.23	2148.14
585.58	2142.64
585.93	2137.13
586.28	2132.29
586.63	2127.10
586.98	2121.89
587.34	2117.05
587.69	2112.00
588.04	2106.58
588.39	2100.70
588.74	2094.13
589.09	2087.91
589.44	2080.97
589.79	2074.96
590.14	2069.20
590.49	2062.44
590.84	2055.87
591.19	2049.71
591.54	2043.06
591.89	2035.45
592.25	2028.53
592.60	2021.31
592.95	2013.48
593.30	2005.95
593.65	1998.28
594.00	1991.16
594.35	1983.79
594.70	1975.68
595.05	1968.43
595.40	1961.03
595.75	1953.47
596.10	1947.08
596.45	1940.10
596.80	1933.82
597.15	1927.02
597.50	1919.75
597.85	1913.42
598.19	1906.62
598.54	1899.40
598.89	1892.92
599.24	1887.08
599.59	1880.35
599.94	1874.14
600.29	1867.83
600.64	1861.30
600.99	1853.81
601.34	1846.92
601.69	1839.95
602.04	1832.94
602.39	1825.59
602.74	1818.77
603.08	1812.14
603.43	1805.42
603.78	1798.10
604.13	1790.94
604.48	1783.56
604.83	1776.77
605.18	1769.71
605.53	1761.71
605.87	1753.68
606.22	1746.35
606.57	1738.44
606.92	1731.18
607.27	1723.85
607.62	1716.89
607.96	1709.47
608.31	1702.68
608.66	1695.02
609.01	1687.44
609.36	1679.82
609.70	1671.78
610.05	1663.68
610.40	1655.96
610.75	1647.67
611.10	1640.12
611.44	1631.69
611.79	1623.78
612.14	1615.10
612.49	1606.03
612.83	1597.75
613.18	1589.78
613.53	1581.64
613.88	1573.08
614.22	1564.80
614.57	1556.34
614.92	1548.41
615.27	1540.90
615.61	1532.71
615.96	1524.80
616.31	1517.20
616.65	1509.86
617.00	1502.42
617.35	1494.82
617.70	1486.35
618.04	1477.86
618.39	1469.61
618.74	1462.07
619.08	1453.86
619.43	1446.29
619.78	1439.36
620.12	1432.21
620.47	1424.66
620.82	1416.58
621.16	1409.24
621.51	1401.67
621.85	1394.09
622.20	1385.53
622.55	1377.32
622.89	1369.50
623.24	1361.87
623.59	1354.64
623.93	1347.33
624.28	1339.97
624.62	1332.44
624.97	1325.45
625.32	1318.74
625.66	1311.78
626.01	1304.48
626.35	1296.95
626.70	1289.30
627.04	1281.70
627.39	1273.96
627.73	1266.55
628.08	1259.67
628.43	1252.25
628.77	1244.78
629.12	1237.23
629.46	1230.10
629.81	1222.77
630.15	1215.63
630.50	1208.25
630.84	1199.96
631.19	1192.03
631.53	1184.76
631.88	1177.32
632.22	1169.65
632.57	1162.31
632.91	1154.77
633.26	1147.40
633.60	1140.13
633.95	1133.11
634.29	1126.03
634.64	1119.36
634.98	1112.07
635.32	1104.95
635.67	1098.62
636.01	1092.13
636.36	1085.31
636.70	1078.84
637.05	1072.30
637.39	1065.80
637.73	1059.38
638.08	1053.60
638.42	1047.61
638.77	1040.99
639.11	1034.40
639.45	1028.08
639.80	1021.45
640.14	1015.11
640.49	1008.65
640.83	1002.44
641.17	996.18
641.52	989.92
641.86	983.58
642.20	977.80
642.55	971.61
642.89	965.03
643.23	958.51
643.58	952.80
643.92	946.58
644.26	940.36
644.61	934.37
644.95	928.36
645.29	921.74
645.64	914.96
645.98	908.78
646.32	902.95
646.66	896.98
647.01	891.22
647.35	885.58
647.69	879.83
648.04	874.29
648.38	868.51
648.72	862.42
649.06	856.36
649.41	850.52
649.75	844.46
650.09	838.57
650.43	832.76
650.78	826.63
651.12	820.72
651.46	815.12
651.80	809.39
652.14	804.03
652.49	798.70
652.83	793.57
653.17	787.85
653.51	782.15
653.85	776.74
654.20	771.13
654.54	765.10
654.88	759.35
655.22	753.45
655.56	747.73
655.90	742.36
656.25	737.18
656.59	731.84
656.93	726.82
657.27	721.62
657.61	716.25
657.95	711.15
658.29	706.12
658.64	700.93
658.98	695.70
659.32	690.25
659.66	685.09
660.00	679.84
660.34	674.95
660.68	670.08
661.02	665.07
661.36	660.42
661.70	655.96
662.05	651.66
662.39	647.41
662.73	643.07
663.07	638.72
663.41	634.26
663.75	629.78
664.09	625.26
664.43	620.98
664.77	616.85
665.11	612.64
665.45	608.56
665.79	604.50
666.13	600.41
666.47	596.39
666.81	592.24
667.15	588.12
667.49	584.20
667.83	580.48
668.17	576.56
668.51	572.45
668.85	568.47
669.19	564.64
669.53	560.78
669.87	556.88
670.21	553.23
670.55	549.62
670.89	546.23
671.23	542.82
671.57	539.30
671.91	535.85
672.25	532.40
672.58	528.91
672.92	525.50
673.26	522.36
673.60	519.26
673.94	516.20
674.28	513.35
674.62	510.45
674.96	507.32
675.30	504.47
675.64	501.64
675.97	498.88
676.31	496.07
676.65	493.21
676.99	490.58
677.33	487.73
677.67	484.90
678.01	481.88
678.34	478.91
678.68	476.07
679.02	473.27
679.36	470.50
679.70	467.81
680.04	465.08
680.37	462.20
680.71	459.40
681.05	456.81
681.39	454.10
681.73	451.45
682.06	448.89
682.40	446.32
682.74	443.78
683.08	441.26
683.42	438.66
683.75	436.14
684.09	433.55
684.43	431.08
684.77	428.61
685.10	426.27
685.44	423.98
685.78	421.71
686.12	419.50
686.45	417.21
686.79	414.92
687.13	412.74
687.46	410.58
687.80	408.45
688.14	406.25
688.48	404.20
688.81	401.99
689.15	399.89
689.49	397.81
689.82	395.74
690.16	393.63
690.50	391.69
690.83	389.76
691.17	387.83
691.51	385.95
691.84	384.13
692.18	382.21
692.52	380.22
692.85	378.29
693.19	376.39
693.52	374.62
693.86	372.85
694.20	371.06
694.53	369.26
694.87	367.40
695.21	365.63
695.54	363.80
695.88	362.06
696.21	360.33
696.55	358.61
696.88	356.95
697.22	355.36
697.56	353.71
697.89	352.04
698.23	350.46
698.56	348.85
698.90	347.25
699.23	345.58
699.57	344.05
699.90	342.56
700.24	341.05
700.58	339.53
700.91	338.02
701.25	336.61
701.58	335.23
701.92	333.86
702.25	332.48
702.59	331.12
702.92	329.83
703.26	328.56
703.59	327.33
703.93	326.18
704.26	324.92
704.60	323.71
704.93	322.43
705.26	321.23
705.60	320.05
705.93	318.92
706.27	317.92
706.60	316.89
706.94	315.80
707.27	314.65
707.61	313.56
707.94	312.54
708.27	311.45
708.61	310.40
708.94	309.37
709.28	308.40
709.61	307.50
709.94	306.56
710.28	305.56
710.61	304.56
710.95	303.47
711.28	302.57
711.61	301.61
711.95	300.73
712.28	299.73
712.61	298.74
712.95	297.84
713.28	296.97
713.61	296.05
713.95	295.15
714.28	294.33
714.61	293.48
714.95	292.62
715.28	291.81
715.61	290.93
715.95	290.16
716.28	289.30
716.61	288.45
716.95	287.63
717.28	286.89
717.61	286.11
717.94	285.38
718.28	284.59
718.61	283.85
718.94	283.16
719.27	282.52
719.61	281.90
719.94	281.22
720.27	280.50
720.60	279.88
720.94	279.28
721.27	278.71
721.60	278.14
721.93	277.54
722.27	276.98
722.60	276.43
722.93	275.82
723.26	275.31
723.59	274.74
723.93	274.18
724.26	273.63
724.59	273.09
724.92	272.61
725.25	272.08
725.59	271.55
725.92	271.06
726.25	270.55
726.58	270.07
726.91	269.59
727.24	269.13
727.57	268.64
727.91	268.12
728.24	267.66
728.57	267.16
728.90	266.74
729.23	266.24
729.56	265.82
729.89	265.36
730.22	264.90
730.55	264.45
730.89	264.00
731.22	263.54
731.55	263.09
731.88	262.66
732.21	262.25
732.54	261.82
732.87	261.37
733.20	260.99
733.53	260.62
733.86	260.24
734.19	259.86
734.52	259.46
734.85	259.18
735.18	258.77
735.51	258.42
735.84	258.03
736.17	257.69
736.50	257.30
736.83	257.05
737.16	256.71
737.49	256.37
737.82	256.06
738.15	255.72
738.48	255.40
738.81	255.05
739.14	254.71
739.47	254.41
739.80	254.10
740.13	253.76
740.46	253.41
740.79	253.07
741.12	252.75
741.45	252.41
741.78	252.04
742.11	251.75
742.44	251.43
742.77	251.14
743.10	250.83
743.43	250.52
743.75	250.14
744.08	250.00
744.41	249.72
744.74	249.45
745.07	249.16
745.40	248.93
745.73	248.71
746.06	248.46
746.39	248.19
746.71	247.95
747.04	247.68
747.37	247.44
747.70	247.20
748.03	246.96
748.36	246.74
748.68	246.52
749.01	246.24
749.34	246.02
749.67	245.78
750.00	245.57
750.33	245.42
750.65	245.22
750.98	244.83
751.31	244.60
751.64	244.35
751.97	244.19
752.29	243.96
752.62	243.71
752.95	243.48
753.28	243.28
753.60	243.06
753.93	242.89
754.26	242.68
754.59	242.45
754.91	242.22
755.24	242.05
755.57	241.85
755.90	241.68
756.22	241.49
756.55	241.29
756.88	241.09
757.20	240.89
757.53	240.71
757.86	240.54
758.19	240.41
758.51	240.29
758.84	240.09
759.17	239.92
759.49	239.73
759.82	239.62
760.15	239.47
760.47	239.31
760.80	239.13
761.13	239.01
761.45	238.88
761.78	238.78
762.11	238.63
762.43	238.51
762.76	238.36
763.08	238.24
763.41	238.13
763.74	238.00
764.06	237.86
764.39	237.71
764.71	237.58
765.04	237.46
765.37	237.29
765.69	237.17
766.02	237.05
766.34	236.93
766.67	236.78
767.00	236.68
767.32	236.65
767.65	236.58
767.97	236.48
768.30	236.36
768.62	236.24
768.95	236.11
769.27	235.95
769.60	235.85
769.92	235.71
770.25	235.59
770.57	235.45
770.90	235.35
771.22	235.21
771.55	235.12
771.87	234.98
772.20	234.91
772.52	234.90
772.85	234.93
773.17	234.88
773.50	234.81
773.82	234.71
774.15	234.57
774.47	234.42
774.80	234.30
775.12	234.23
775.45	234.16
775.77	234.10
776.09	234.05
776.42	233.99
776.74	233.95
777.07	233.87
777.39	233.82
777.72	233.72
778.04	233.69
778.36	233.60
778.69	233.55
779.01	233.48
779.33	233.37
779.66	233.17
779.98	233.10
780.31	233.02
780.63	233.01
780.95	232.95
781.28	232.92
781.60	232.85
781.92	232.74
782.25	232.69
782.57	232.63
782.89	232.54
783.22	232.46
783.54	232.41
783.86	232.36
784.19	232.31
784.51	232.28
784.83	232.22
785.16	232.19
785.48	232.17
785.80	232.15
786.12	232.08
786.45	232.07
786.77	232.04
787.09	231.98
787.42	231.88
787.74	231.86
788.06	231.80
788.38	231.77
788.71	231.73
789.03	231.70
789.35	231.68
789.67	231.64
789.99	231.61
790.32	231.57
790.64	231.52
790.96	231.54
791.28	231.46
791.61	231.42
791.93	231.38
792.25	231.29
792.57	231.27
792.89	231.17
793.21	231.09
793.54	231.06
793.86	230.97
794.18	230.96
794.50	230.90
794.82	230.89
795.14	230.83
795.47	230.81
795.79	230.75
796.11	230.68
796.43	230.66
796.75	230.61
797.07	230.57
797.39	230.55
797.71	230.46
798.04	230.43
798.36	230.40
798.68	230.37
799.00	230.38
799.32	230.30
799.64	230.28
799.96	230.25
800.28	230.21
800.60	230.20
800.92	230.15
801.24	230.07
801.56	230.02
801.89	230.00
802.21	229.99
802.53	229.94
802.85	229.96
803.17	229.95
803.49	229.88
803.81	229.82
804.13	229.77
804.45	229.71
804.77	229.71
805.09	229.66
805.41	229.62
805.73	229.56
806.05	229.52
806.37	229.51
806.69	229.46
807.01	229.40
807.33	229.41
807.65	229.37
807.97	229.40
808.28	229.36
808.60	229.34
808.92	229.29
809.24	229.34
809.56	229.29
809.88	229.23
810.20	229.26
810.52	229.27
810.84	229.28
811.16	229.28
811.48	229.24
811.80	229.26
812.12	229.23
812.43	229.20
812.75	229.16
813.07	229.12
813.39	229.13
813.71	229.12
814.03	229.09
814.35	229.07
814.67	229.02
814.98	228.99
815.30	228.96
815.62	228.95
815.94	228.85
816.26	228.84
816.58	228.83
816.89	228.81
817.21	228.76
817.53	228.72
817.85	228.68
818.17	228.64
818.48	228.61
818.80	228.66
819.12	228.67
819.44	228.69
819.76	228.68
820.07	228.67
820.39	228.65
820.71	228.63
821.03	228.60
821.34	228.62
821.66	228.64
821.98	228.65
822.30	228.60
822.61	228.68
822.93	228.62
823.25	228.60
823.57	228.59
823.88	228.63
824.20	228.62
824.52	228.62
824.83	228.63
825.15	228.61
825.47	228.56
825.79	228.56
826.10	228.53
826.42	228.54
826.74	228.53
827.05	228.51
827.37	228.50
827.69	228.51
828.00	228.48
828.32	228.45
828.64	228.43
828.95	228.48
829.27	228.41
829.58	228.44
829.90	228.48
830.22	228.43
830.53	228.39
830.85	228.38
831.17	228.35
831.48	228.33
831.80	228.29
832.11	228.24
832.43	228.23
832.75	228.23
833.06	228.27
833.38	228.20
833.69	228.19
834.01	228.18
834.32	228.19
834.64	228.15
834.96	228.15
835.27	228.09
835.59	228.02
835.90	228.00
836.22	227.97
836.53	227.89
836.85	227.88
837.16	227.97
837.48	227.95
837.79	227.98
838.11	228.00
838.42	228.00
838.74	228.04
839.05	228.01
839.37	228.00
839.68	227.90
840.00	227.92
840.31	227.93
840.63	227.93
840.94	227.90
841.26	227.88
841.57	227.90
841.88	227.93
842.20	227.92
842.51	227.86
842.83	227.86
843.14	227.92
843.46	227.95
843.77	227.85
844.08	227.84
844.40	227.79
844.71	227.75
845.03	227.74
845.34	227.70
845.65	227.66
845.97	227.64
846.28	227.65
846.60	227.66
846.91	227.63
847.22	227.61
847.54	227.59
847.85	227.61
848.16	227.56
848.48	227.54
848.79	227.59
849.10	227.62
849.42	227.57
849.73	227.51
850.04	227.46
850.36	227.41
850.67	227.43
850.98	227.42
851.30	227.42
851.61	227.39
851.92	227.41
852.23	227.44
852.55	227.44
852.86	227.42
853.17	227.41
853.49	227.41
853.80	227.42
854.11	227.43
854.42	227.38
854.74	227.37
855.05	227.38
855.36	227.31
855.67	227.33
855.99	227.38
856.30	227.49
856.61	227.47
856.92	227.50
857.23	227.50
857.55	227.51
857.86	227.46
858.17	227.53
858.48	227.51
858.79	227.46
859.11	227.47
859.42	227.50
859.73	227.48
860.04	227.52
860.35	227.50
860.66	227.46
860.98	227.49
861.29	227.51
861.60	227.47
861.91	227.51
862.22	227.46
862.53	227.43
862.84	227.30
863.16	227.34
863.47	227.32
863.78	227.28
864.09	227.29
864.40	227.34
864.71	227.32
865.02	227.35
865.33	227.39
865.64	227.36
865.95	227.33
866.27	227.39
866.58	227.35
866.89	227.37
867.20	227.40
867.51	227.38
867.82	227.38
868.13	227.42
868.44	227.40
868.75	227.47
869.06	227.47
869.37	227.51
869.68	227.49
869.99	227.51
870.30	227.53
870.61	227.53
870.92	227.54
871.23	227.52
871.54	227.54
871.85	227.54
872.16	227.55
872.47	227.58
872.78	227.54
873.09	227.55
873.40	227.56
873.71	227.57
874.02	227.59
874.33	227.55
874.64	227.53
874.95	227.55
875.26	227.52
875.56	227.51
875.87	227.50
876.18	227.51
876.49	227.60
876.80	227.60
877.11	227.58
877.42	227.55
877.73	227.54
878.04	227.51
878.35	227.50
878.66	227.50
878.96	227.47
879.27	227.45
879.58	227.45
879.89	227.44
880.20	227.44
880.51	227.43
880.82	227.45
881.12	227.49
881.43	227.48
881.74	227.45
882.05	227.43
882.36	227.43
882.67	227.45
882.97	227.35
883.28	227.31
883.59	227.32
883.90	227.34
884.21	227.32
884.51	227.30
884.82	227.27
885.13	227.28
885.44	227.29
885.74	227.32
886.05	227.30
886.36	227.29
886.67	227.28
886.98	227.36
887.28	227.36
887.59	227.38
887.90	227.35
888.20	227.35
888.51	227.39
888.82	227.36
889.13	227.36
889.43	227.44
889.74	227.43
890.05	227.40
890.35	227.40
890.66	227.41
890.97	227.41
891.28	227.45
891.58	227.42
891.89	227.41
892.20	227.36
892.50	227.35
892.81	227.33
893.12	227.30
893.42	227.22
893.73	227.19
894.04	227.15
894.34	227.16
894.65	227.15
894.95	227.13
895.26	227.13
895.57	227.17
895.87	227.06
896.18	227.14
896.48	227.15
896.79	227.13
897.10	227.17
897.40	227.18
897.71	227.18
898.01	227.19
898.32	227.20
898.63	227.21
898.93	227.21
899.24	227.22
899.54	227.26
899.85	227.28
900.15	227.29
900.46	227.29
900.76	227.30
901.07	227.31
901.38	227.32
901.68	227.32
901.99	227.23
902.29	227.30
902.60	227.26
902.90	227.26
903.21	227.30
903.51	227.29
903.82	227.34
904.12	227.34
904.43	227.36
904.73	227.34
905.03	227.37
905.34	227.46
905.64	227.48
905.95	227.44
906.25	227.42
906.56	227.41
906.86	227.40
907.17	227.42
907.47	227.41
907.77	227.39
908.08	227.38
908.38	227.41
908.69	227.36
908.99	227.38
909.30	227.36
909.60	227.36
909.90	227.33
910.21	227.27
910.51	227.23
910.81	227.21
911.12	227.25
911.42	227.21
911.73	227.09
912.03	227.06
912.33	227.11
912.64	227.14
912.94	227.12
913.24	227.12
913.55	227.10
913.85	227.09
914.15	227.13
914.46	227.15
914.76	227.13
915.06	227.14
915.37	227.13
915.67	227.12
915.97	227.10
916.27	227.08
916.58	227.09
916.88	227.09
917.18	227.08
917.49	227.12
917.79	227.13
918.09	227.16
918.39	227.22
918.70	227.19
919.00	227.18
919.30	227.20
919.60	227.20
919.91	227.19
920.21	227.22
920.51	227.18
920.81	227.18
921.12	227.19
921.42	227.19
921.72	227.17
922.02	227.18
922.32	227.21
922.63	227.21
922.93	227.27
923.23	227.29
923.53	227.26
923.83	227.19
924.13	227.20
924.44	227.21
924.74	227.18
925.04	227.19
925.34	227.19
925.64	227.16
925.94	227.16
926.24	227.23
926.55	227.20
926.85	227.19
927.15	227.16
927.45	227.18
927.75	227.18
928.05	227.19
928.35	227.16
928.65	227.13
928.95	227.15
929.26	227.10
929.56	227.09
929.86	227.13
930.16	227.11
930.46	227.09
930.76	227.07
931.06	227.03
931.36	227.00
931.66	226.98
931.96	226.99
932.26	226.98
932.56	226.91
932.86	226.95
933.16	226.97
933.46	226.97
933.76	226.96
934.06	226.99
934.36	227.02
934.66	227.02
934.96	227.01
935.26	226.98
935.56	226.97
935.86	226.97
936.16	226.94
936.46	226.97
936.76	227.00
937.06	226.99
937.36	227.02
937.66	227.02
937.96	227.04
938.26	227.02
938.56	227.03
938.86	227.05
939.16	227.07
939.46	227.06
939.76	227.07
940.06	227.07
940.35	227.03
940.65	226.97
940.95	227.01
941.25	227.00
941.55	227.00
941.85	227.01
942.15	227.02
942.45	227.07
942.75	227.02
943.04	227.02
943.34	227.06
943.64	227.04
943.94	227.03
944.24	227.04
944.54	227.08
944.84	227.07
945.13	227.06
945.43	227.01
945.73	227.03
946.03	227.03
946.33	227.01
946.62	227.01
946.92	227.02
947.22	227.00
947.52	227.03
947.82	227.07
948.11	227.04
948.41	227.04
948.71	227.01
949.01	227.02
949.31	226.99
949.60	226.99
949.90	226.99
950.20	227.00
950.50	226.99
950.79	226.96
951.09	226.97
951.39	226.95
951.69	226.97
951.98	227.00
952.28	227.00
952.58	227.01
952.87	227.01
953.17	227.00
953.47	227.04
953.76	227.03
954.06	227.01
954.36	227.01
954.66	226.97
954.95	226.99
955.25	226.97
955.55	226.96
955.84	226.92
956.14	226.95
956.44	226.94
956.73	226.92
957.03	226.95
957.32	226.94
957.62	226.94
957.92	226.94
958.21	226.92
958.51	227.01
958.81	227.03
959.10	227.01
959.40	227.01
959.69	226.98
959.99	226.98
960.29	226.98
960.58	226.98
960.88	227.03
961.17	227.00
961.47	227.05
961.76	227.05
962.06	227.06
962.36	227.01
962.65	227.03
962.95	227.04
963.24	227.01
963.54	227.02
963.83	227.05
964.13	227.00
964.42	226.95
964.72	226.88
965.01	226.85
965.31	226.86
965.60	226.83
965.90	226.90
966.19	226.88
966.49	226.90
966.78	226.91
967.08	226.89
967.37	226.88
967.67	226.85
967.96	226.91
968.26	226.92
968.55	226.93
968.85	226.92
969.14	226.89
969.43	226.89
969.73	226.86
970.02	226.83
970.32	226.86
970.61	226.83
970.91	226.80
971.20	226.78
971.49	226.79
971.79	226.85
972.08	226.76
972.38	226.74
972.67	226.69
972.96	226.69
973.26	226.71
973.55	226.74
973.85	226.71
974.14	226.66
974.43	226.65
974.73	226.66
975.02	226.62
975.31	226.64
975.61	226.64
975.90	226.65
976.19	226.63
976.49	226.66
976.78	226.70
977.07	226.72
977.37	226.76
977.66	226.77
977.95	226.73
978.24	226.74
978.54	226.76
978.83	226.77
979.12	226.79
979.42	226.76
979.71	226.73
980.00	226.80
980.29	226.82
980.59	226.80
980.88	226.82
981.17	226.84
981.46	226.83
981.76	226.83
982.05	226.84
982.34	226.87
982.63	226.85
982.93	226.86
983.22	226.86
983.51	226.84
983.80	226.87
984.09	226.89
984.39	226.90
984.68	226.92
984.97	226.93
985.26	226.90
985.55	226.92
985.85	226.92
986.14	226.88
986.43	226.87
986.72	226.87
987.01	226.85
987.30	226.85
987.59	226.83
987.89	226.85
988.18	226.81
988.47	226.80
988.76	226.80
989.05	226.78
989.34	226.79
989.63	226.82
989.92	226.77
990.22	226.75
990.51	226.75
990.80	226.75
991.09	226.74
991.38	226.78
991.67	226.76
991.96	226.77
992.25	226.80
992.54	226.83
992.83	226.81
993.12	226.81
993.41	226.87
993.70	226.92
993.99	226.92
994.28	226.93
994.58	226.96
994.87	226.93
995.16	226.93
995.45	226.89
995.74	226.84
996.03	226.85
996.32	226.87
996.61	226.90
996.90	226.89
997.19	226.93
997.48	226.93
997.77	226.94
998.06	226.96
998.34	226.97
998.63	226.96
998.92	226.98
999.21	227.03
999.50	226.99
999.79	226.98
1000.08	226.99
1000.37	227.04
1000.66	227.01
1000.95	227.03
1001.24	227.03
1001.53	227.07
1001.82	227.11
1002.11	227.13
1002.40	227.14
1002.68	227.16
1002.97	227.25
1003.26	227.23
1003.55	227.22
1003.84	227.19
1004.13	227.22
1004.42	227.18
1004.71	227.20
1004.99	227.19
1005.28	227.21
1005.57	227.20
1005.86	227.20
1006.15	227.18
1006.44	227.14
1006.72	227.14
1007.01	227.13
1007.30	227.14
1007.59	227.13
1007.88	227.11
1008.17	227.10
1008.45	227.09
1008.74	227.02
1009.03	226.94
1009.32	226.91
1009.60	226.91
1009.89	226.93
1010.18	226.88
1010.47	226.89
1010.76	226.83
1011.04	226.83
1011.33	226.82
1011.62	226.87
1011.91	226.86
1012.19	226.88
1012.48	226.88
1012.77	226.89
1013.05	226.92
1013.34	226.90
1013.63	226.91
1013.92	226.94
1014.20	226.90
1014.49	226.94
1014.78	226.96
1015.06	226.95
1015.35	226.98
1015.64	226.98
1015.92	226.99
1016.21	226.99
1016.50	226.99
1016.78	227.05
1017.07	227.05
1017.36	227.01
1017.64	226.97
1017.93	227.00
1018.22	226.97
1018.50	226.99
1018.79	226.97
1019.08	226.93
1019.36	226.94
1019.65	226.92
1019.93	226.95
1020.22	226.99
1020.51	227.02
1020.79	227.00
1021.08	226.69
1021.36	226.96
1021.65	226.37
1021.94	226.55
1022.22	226.81
1022.51	226.83
1022.79	227.55
1023.08	227.14
1023.36	228.42
1023.65	226.65
>>>>>End Processed Spectral Data<<<<<
