SpectraSuite Data File
++++++++++++++++++++++++++++++++++++
Date: Fri Feb 01 17:07:09 EST 2013
User: group
Dark Spectrum Present: No
Reference Spectrum Present: No
Number of Sampled Component Spectra: 1
Spectrometers: USB2E7196
Integration Time (usec): 35000 (USB2E7196)
Spectra Averaged: 100 (USB2E7196)
Boxcar Smoothing: 10 (USB2E7196)
Correct for Electrical Dark: No (USB2E7196)
Strobe/Lamp Enabled: No (USB2E7196)
Correct for Detector Non-linearity: No (USB2E7196)
Correct for Stray Light: No (USB2E7196)
Number of Pixels in Processed Spectrum: 2048
>>>>>Begin Processed Spectral Data<<<<<
339.09	0.00
339.48	213.38
339.86	214.65
340.24	215.83
340.63	217.44
341.01	220.01
341.39	220.59
341.78	221.54
342.16	223.03
342.54	223.41
342.93	211.87
343.31	222.58
343.69	223.13
344.07	223.61
344.46	224.06
344.84	224.46
345.22	224.69
345.60	224.92
345.99	225.13
346.37	225.23
346.75	225.34
347.13	225.40
347.52	225.44
347.90	225.51
348.28	225.53
348.66	225.55
349.05	225.52
349.43	225.58
349.81	225.62
350.19	225.67
350.57	225.71
350.96	225.79
351.34	225.86
351.72	225.95
352.10	226.04
352.48	226.10
352.87	226.14
353.25	226.23
353.63	226.31
354.01	226.35
354.39	226.44
354.77	226.51
355.15	226.62
355.54	226.70
355.92	226.72
356.30	226.80
356.68	226.93
357.06	227.02
357.44	227.08
357.82	227.14
358.20	227.21
358.58	227.29
358.97	227.33
359.35	227.42
359.73	227.47
360.11	227.54
360.49	227.60
360.87	227.66
361.25	227.72
361.63	227.77
362.01	227.82
362.39	227.84
362.77	227.91
363.15	227.92
363.53	227.94
363.91	227.99
364.29	228.01
364.67	227.94
365.05	227.92
365.43	227.91
365.81	227.92
366.19	227.95
366.57	227.97
366.95	227.94
367.33	227.87
367.71	227.88
368.09	227.86
368.47	227.83
368.85	227.79
369.23	227.79
369.61	227.77
369.99	227.77
370.37	227.78
370.75	227.78
371.13	227.73
371.51	227.69
371.89	227.65
372.27	227.61
372.65	227.56
373.03	227.53
373.41	227.49
373.78	227.44
374.16	227.35
374.54	227.27
374.92	227.23
375.30	227.21
375.68	227.11
376.06	227.09
376.44	227.07
376.82	227.02
377.19	226.93
377.57	226.82
377.95	226.71
378.33	226.61
378.71	226.46
379.09	226.41
379.47	226.36
379.84	226.28
380.22	226.22
380.60	226.13
380.98	226.04
381.36	225.95
381.73	225.88
382.11	225.84
382.49	225.79
382.87	225.72
383.25	225.67
383.62	225.73
384.00	225.65
384.38	225.55
384.76	225.54
385.13	225.57
385.51	225.56
385.89	225.51
386.27	225.52
386.64	225.51
387.02	225.46
387.40	225.40
387.78	225.40
388.15	225.37
388.53	225.32
388.91	225.31
389.29	225.29
389.66	225.27
390.04	225.26
390.42	225.26
390.79	225.23
391.17	225.18
391.55	225.08
391.92	225.04
392.30	225.07
392.68	225.04
393.05	225.00
393.43	224.97
393.81	225.01
394.18	224.95
394.56	224.94
394.94	224.94
395.31	224.95
395.69	224.96
396.06	224.96
396.44	225.04
396.82	225.06
397.19	225.15
397.57	225.22
397.95	225.26
398.32	225.26
398.70	225.32
399.07	225.42
399.45	225.43
399.82	225.49
400.20	225.55
400.58	225.61
400.95	225.64
401.33	225.72
401.70	225.82
402.08	225.91
402.45	226.01
402.83	226.13
403.20	226.24
403.58	226.36
403.95	226.46
404.33	226.56
404.71	226.69
405.08	226.85
405.46	226.97
405.83	227.10
406.21	227.23
406.58	227.38
406.96	227.51
407.33	227.71
407.70	227.90
408.08	228.18
408.45	228.39
408.83	228.61
409.20	228.82
409.58	229.02
409.95	229.25
410.33	229.51
410.70	229.75
411.08	230.01
411.45	230.28
411.82	230.60
412.20	230.94
412.57	231.34
412.95	231.62
413.32	232.00
413.69	232.38
414.07	232.82
414.44	233.28
414.82	233.78
415.19	234.32
415.56	234.85
415.94	235.36
416.31	236.01
416.68	236.64
417.06	237.36
417.43	238.06
417.81	238.85
418.18	239.62
418.55	240.45
418.93	241.31
419.30	242.21
419.67	243.15
420.04	244.08
420.42	245.06
420.79	246.24
421.16	247.37
421.54	248.59
421.91	249.81
422.28	251.06
422.66	252.38
423.03	253.67
423.40	255.02
423.77	256.40
424.15	257.81
424.52	259.28
424.89	260.89
425.26	262.42
425.64	263.84
426.01	265.47
426.38	267.11
426.75	268.79
427.13	270.45
427.50	272.22
427.87	274.08
428.24	275.96
428.61	277.73
428.99	279.68
429.36	281.76
429.73	283.81
430.10	285.83
430.47	287.86
430.85	289.98
431.22	292.20
431.59	294.57
431.96	296.78
432.33	299.22
432.70	301.56
433.08	304.33
433.45	306.96
433.82	309.51
434.19	312.38
434.56	315.21
434.93	317.87
435.30	320.51
435.68	323.37
436.05	326.16
436.42	328.91
436.79	331.36
437.16	334.02
437.53	336.86
437.90	339.65
438.27	342.40
438.64	345.16
439.01	347.69
439.38	349.88
439.75	352.05
440.13	354.56
440.50	356.89
440.87	358.70
441.24	360.60
441.61	362.77
441.98	364.25
442.35	366.03
442.72	367.89
443.09	369.68
443.46	370.68
443.83	371.27
444.20	371.79
444.57	372.66
444.94	372.94
445.31	373.26
445.68	373.63
446.05	373.70
446.42	373.33
446.79	372.96
447.16	372.56
447.53	372.23
447.90	371.01
448.27	369.84
448.64	368.31
449.01	367.20
449.37	365.21
449.74	363.32
450.11	361.09
450.48	358.63
450.85	356.12
451.22	354.01
451.59	351.98
451.96	350.05
452.33	347.48
452.70	345.16
453.07	342.36
453.43	339.42
453.80	336.66
454.17	334.04
454.54	331.48
454.91	328.77
455.28	326.09
455.65	323.68
456.02	321.27
456.38	319.13
456.75	316.50
457.12	314.28
457.49	312.06
457.86	309.89
458.23	308.01
458.59	305.96
458.96	303.89
459.33	302.03
459.70	300.15
460.07	298.63
460.43	296.93
460.80	295.30
461.17	293.90
461.54	292.42
461.91	290.99
462.27	289.54
462.64	288.34
463.01	287.01
463.38	285.72
463.74	284.39
464.11	283.18
464.48	282.13
464.85	281.01
465.21	280.19
465.58	279.27
465.95	278.22
466.32	277.31
466.68	276.38
467.05	275.56
467.42	274.68
467.78	273.77
468.15	272.94
468.52	272.29
468.88	271.46
469.25	270.72
469.62	270.13
469.98	269.48
470.35	268.85
470.72	268.27
471.08	267.63
471.45	267.07
471.82	266.56
472.18	266.03
472.55	265.63
472.92	265.11
473.28	264.67
473.65	264.21
474.02	263.83
474.38	263.48
474.75	263.14
475.11	262.83
475.48	262.61
475.85	262.39
476.21	262.16
476.58	261.99
476.94	261.83
477.31	261.70
477.67	261.60
478.04	261.51
478.41	261.48
478.77	261.56
479.14	261.55
479.50	261.58
479.87	261.66
480.23	261.75
480.60	261.85
480.96	262.00
481.33	262.26
481.69	262.49
482.06	262.79
482.42	263.02
482.79	263.28
483.15	263.57
483.52	263.95
483.88	264.31
484.25	264.72
484.61	265.17
484.98	265.61
485.34	266.16
485.71	266.77
486.07	267.37
486.44	267.94
486.80	268.65
487.17	269.40
487.53	270.22
487.90	271.06
488.26	272.00
488.62	272.99
488.99	273.96
489.35	275.01
489.72	276.07
490.08	277.26
490.44	278.48
490.81	279.86
491.17	281.18
491.54	282.65
491.90	284.15
492.26	285.79
492.63	287.53
492.99	289.29
493.36	291.13
493.72	293.14
494.08	295.25
494.45	297.48
494.81	299.84
495.17	302.24
495.54	304.79
495.90	307.48
496.26	310.24
496.63	313.21
496.99	316.29
497.35	319.56
497.72	322.96
498.08	326.45
498.44	330.08
498.80	334.00
499.17	338.03
499.53	342.15
499.89	346.52
500.26	350.98
500.62	355.62
500.98	360.56
501.34	365.61
501.71	370.81
502.07	376.21
502.43	381.78
502.79	387.56
503.16	393.59
503.52	399.80
503.88	406.16
504.24	412.68
504.60	419.47
504.97	426.54
505.33	433.78
505.69	441.44
506.05	449.18
506.41	456.98
506.78	465.09
507.14	473.52
507.50	482.13
507.86	491.06
508.22	500.16
508.59	509.30
508.95	518.77
509.31	528.50
509.67	538.43
510.03	548.56
510.39	558.98
510.75	569.61
511.12	580.37
511.48	591.50
511.84	602.83
512.20	614.19
512.56	625.99
512.92	637.96
513.28	650.14
513.64	662.34
514.00	674.81
514.37	687.52
514.73	700.37
515.09	713.15
515.45	726.28
515.81	739.66
516.17	753.35
516.53	767.20
516.89	781.17
517.25	795.11
517.61	809.26
517.97	823.42
518.33	837.58
518.69	852.01
519.05	866.68
519.41	881.48
519.77	896.69
520.13	911.78
520.49	926.88
520.85	941.86
521.21	957.24
521.57	973.11
521.93	988.45
522.29	1004.48
522.65	1020.40
523.01	1036.13
523.37	1051.81
523.73	1067.64
524.09	1083.46
524.45	1099.34
524.81	1115.62
525.17	1132.00
525.53	1148.51
525.89	1164.95
526.25	1181.46
526.61	1197.51
526.97	1213.92
527.33	1229.97
527.68	1246.14
528.04	1262.29
528.40	1278.51
528.76	1295.22
529.12	1311.47
529.48	1328.00
529.84	1343.49
530.20	1359.66
530.56	1376.22
530.91	1393.22
531.27	1409.65
531.63	1425.56
531.99	1441.73
532.35	1457.36
532.71	1472.93
533.07	1488.76
533.42	1504.39
533.78	1520.12
534.14	1536.02
534.50	1550.99
534.86	1566.55
535.21	1581.45
535.57	1596.87
535.93	1612.11
536.29	1626.48
536.65	1641.15
537.00	1655.54
537.36	1670.66
537.72	1684.84
538.08	1699.02
538.44	1712.39
538.79	1725.85
539.15	1739.06
539.51	1752.46
539.87	1766.42
540.22	1779.86
540.58	1793.25
540.94	1806.18
541.29	1818.71
541.65	1831.01
542.01	1843.81
542.37	1855.83
542.72	1867.90
543.08	1879.39
543.44	1891.46
543.79	1902.52
544.15	1913.24
544.51	1924.65
544.87	1935.33
545.22	1945.99
545.58	1955.99
545.94	1965.64
546.29	1975.21
546.65	1985.12
547.01	1994.34
547.36	2002.82
547.72	2011.00
548.07	2018.88
548.43	2026.82
548.79	2034.55
549.14	2041.95
549.50	2049.02
549.86	2056.40
550.21	2063.68
550.57	2070.82
550.92	2077.24
551.28	2084.00
551.64	2090.96
551.99	2097.30
552.35	2103.35
552.70	2109.40
553.06	2115.28
553.41	2121.52
553.77	2127.59
554.13	2133.62
554.48	2139.64
554.84	2145.16
555.19	2150.46
555.55	2155.56
555.90	2160.12
556.26	2165.17
556.61	2169.85
556.97	2174.38
557.32	2178.69
557.68	2182.77
558.03	2186.95
558.39	2190.62
558.74	2195.38
559.10	2199.39
559.45	2203.11
559.81	2207.31
560.16	2211.13
560.52	2214.55
560.87	2218.00
561.23	2220.75
561.58	2223.63
561.94	2226.03
562.29	2228.41
562.64	2231.20
563.00	2233.81
563.35	2237.40
563.71	2240.57
564.06	2243.94
564.42	2247.06
564.77	2249.64
565.12	2252.25
565.48	2254.50
565.83	2256.70
566.19	2258.29
566.54	2259.15
566.89	2260.50
567.25	2261.34
567.60	2262.83
567.96	2264.64
568.31	2265.49
568.66	2266.82
569.02	2267.50
569.37	2268.13
569.72	2269.18
570.08	2269.52
570.43	2269.81
570.78	2269.50
571.14	2268.21
571.49	2267.02
571.84	2266.71
572.20	2265.87
572.55	2264.83
572.90	2263.26
573.26	2262.00
573.61	2260.36
573.96	2259.08
574.31	2256.35
574.67	2253.76
575.02	2250.44
575.37	2247.16
575.72	2243.90
576.08	2240.70
576.43	2237.72
576.78	2234.49
577.13	2231.50
577.49	2228.59
577.84	2225.40
578.19	2221.84
578.54	2218.48
578.90	2214.63
579.25	2209.35
579.60	2204.60
579.95	2199.92
580.30	2195.19
580.66	2190.23
581.01	2185.48
581.36	2180.77
581.71	2176.82
582.06	2172.49
582.42	2168.27
582.77	2163.30
583.12	2158.94
583.47	2154.53
583.82	2149.74
584.17	2144.59
584.53	2139.52
584.88	2134.21
585.23	2128.67
585.58	2123.36
585.93	2118.04
586.28	2113.36
586.63	2108.65
586.98	2103.86
587.34	2099.26
587.69	2094.53
588.04	2089.64
588.39	2084.28
588.74	2077.99
589.09	2072.03
589.44	2065.51
589.79	2059.69
590.14	2054.28
590.49	2047.79
590.84	2041.54
591.19	2035.89
591.54	2029.58
591.89	2022.35
592.25	2015.83
592.60	2008.90
592.95	2001.74
593.30	1994.61
593.65	1987.24
594.00	1980.11
594.35	1973.11
594.70	1965.30
595.05	1958.48
595.40	1951.28
595.75	1943.95
596.10	1937.99
596.45	1931.51
596.80	1925.54
597.15	1919.06
597.50	1912.35
597.85	1906.04
598.19	1899.62
598.54	1892.61
598.89	1886.09
599.24	1880.23
599.59	1873.72
599.94	1867.66
600.29	1861.30
600.64	1854.83
600.99	1847.68
601.34	1841.17
601.69	1834.29
602.04	1827.66
602.39	1820.32
602.74	1813.52
603.08	1806.96
603.43	1800.26
603.78	1793.11
604.13	1786.04
604.48	1778.97
604.83	1772.12
605.18	1765.53
605.53	1757.72
605.87	1749.87
606.22	1742.83
606.57	1735.10
606.92	1727.83
607.27	1720.76
607.62	1713.98
607.96	1706.98
608.31	1700.40
608.66	1692.95
609.01	1685.63
609.36	1678.20
609.70	1670.42
610.05	1662.63
610.40	1654.94
610.75	1646.85
611.10	1639.36
611.44	1631.02
611.79	1623.03
612.14	1614.50
612.49	1605.31
612.83	1596.96
613.18	1588.84
613.53	1580.84
613.88	1572.38
614.22	1564.24
614.57	1555.61
614.92	1547.65
615.27	1540.14
615.61	1531.90
615.96	1523.81
616.31	1516.00
616.65	1508.65
617.00	1501.13
617.35	1493.39
617.70	1485.24
618.04	1476.70
618.39	1468.35
618.74	1460.84
619.08	1452.60
619.43	1445.08
619.78	1438.18
620.12	1431.06
620.47	1423.62
620.82	1415.44
621.16	1408.02
621.51	1400.41
621.85	1392.71
622.20	1384.29
622.55	1375.94
622.89	1368.10
623.24	1360.59
623.59	1353.23
623.93	1345.71
624.28	1338.60
624.62	1331.29
624.97	1324.10
625.32	1317.33
625.66	1310.37
626.01	1303.18
626.35	1295.84
626.70	1288.02
627.04	1280.40
627.39	1272.61
627.73	1265.21
628.08	1258.44
628.43	1251.30
628.77	1243.87
629.12	1236.48
629.46	1229.43
629.81	1221.96
630.15	1214.80
630.50	1207.55
630.84	1199.50
631.19	1191.64
631.53	1184.05
631.88	1176.35
632.22	1168.83
632.57	1161.52
632.91	1154.02
633.26	1146.63
633.60	1139.20
633.95	1132.09
634.29	1125.07
634.64	1118.43
634.98	1111.17
635.32	1104.00
635.67	1097.36
636.01	1090.87
636.36	1084.17
636.70	1077.52
637.05	1071.04
637.39	1064.64
637.73	1058.06
638.08	1052.08
638.42	1046.09
638.77	1039.77
639.11	1033.39
639.45	1027.06
639.80	1020.47
640.14	1014.09
640.49	1007.69
640.83	1001.42
641.17	995.33
641.52	988.92
641.86	982.47
642.20	976.70
642.55	970.32
642.89	963.84
643.23	957.24
643.58	951.48
643.92	945.40
644.26	939.43
644.61	933.33
644.95	927.34
645.29	920.96
645.64	914.32
645.98	907.91
646.32	902.02
646.66	896.03
647.01	890.35
647.35	884.66
647.69	878.73
648.04	873.21
648.38	867.34
648.72	861.59
649.06	855.69
649.41	849.83
649.75	844.02
650.09	838.20
650.43	832.44
650.78	826.34
651.12	820.41
651.46	814.72
651.80	809.17
652.14	803.84
652.49	798.49
652.83	793.29
653.17	787.72
653.51	782.11
653.85	776.69
654.20	771.09
654.54	765.12
654.88	759.47
655.22	753.64
655.56	748.09
655.90	742.60
656.25	737.37
656.59	732.06
656.93	727.01
657.27	721.98
657.61	716.61
657.95	711.55
658.29	706.48
658.64	701.23
658.98	695.89
659.32	690.46
659.66	685.30
660.00	680.07
660.34	675.19
660.68	670.25
661.02	665.25
661.36	660.54
661.70	656.14
662.05	651.83
662.39	647.63
662.73	643.18
663.07	638.78
663.41	634.35
663.75	629.81
664.09	625.30
664.43	620.88
664.77	616.83
665.11	612.61
665.45	608.52
665.79	604.45
666.13	600.35
666.47	596.24
666.81	592.11
667.15	588.03
667.49	584.10
667.83	580.31
668.17	576.44
668.51	572.42
668.85	568.40
669.19	564.52
669.53	560.65
669.87	556.85
670.21	553.15
670.55	549.52
670.89	546.17
671.23	542.83
671.57	539.34
671.91	535.84
672.25	532.32
672.58	528.88
672.92	525.45
673.26	522.30
673.60	519.20
673.94	516.11
674.28	513.17
674.62	510.25
674.96	507.12
675.30	504.20
675.64	501.27
675.97	498.49
676.31	495.66
676.65	492.74
676.99	490.00
677.33	487.16
677.67	484.33
678.01	481.29
678.34	478.30
678.68	475.34
679.02	472.49
679.36	469.71
679.70	466.96
680.04	464.27
680.37	461.42
680.71	458.59
681.05	455.95
681.39	453.25
681.73	450.60
682.06	448.15
682.40	445.63
682.74	443.10
683.08	440.55
683.42	437.97
683.75	435.47
684.09	432.92
684.43	430.47
684.77	428.05
685.10	425.69
685.44	423.36
685.78	421.12
686.12	418.83
686.45	416.51
686.79	414.28
687.13	412.08
687.46	409.86
687.80	407.76
688.14	405.50
688.48	403.48
688.81	401.24
689.15	399.08
689.49	396.94
689.82	394.87
690.16	392.78
690.50	390.80
690.83	388.86
691.17	386.87
691.51	384.97
691.84	383.09
692.18	381.22
692.52	379.23
692.85	377.25
693.19	375.44
693.52	373.63
693.86	371.76
694.20	369.97
694.53	368.22
694.87	366.35
695.21	364.58
695.54	362.69
695.88	360.95
696.21	359.21
696.55	357.53
696.88	355.86
697.22	354.20
697.56	352.56
697.89	350.90
698.23	349.33
698.56	347.72
698.90	346.18
699.23	344.54
699.57	343.04
699.90	341.54
700.24	339.98
700.58	338.50
700.91	337.01
701.25	335.56
701.58	334.22
701.92	332.87
702.25	331.52
702.59	330.18
702.92	328.88
703.26	327.57
703.59	326.31
703.93	325.05
704.26	323.80
704.60	322.53
704.93	321.29
705.26	320.07
705.60	318.86
705.93	317.69
706.27	316.64
706.60	315.57
706.94	314.47
707.27	313.35
707.61	312.24
707.94	311.24
708.27	310.16
708.61	309.02
708.94	308.01
709.28	307.03
709.61	306.10
709.94	305.15
710.28	304.12
710.61	303.13
710.95	302.09
711.28	301.20
711.61	300.24
711.95	299.36
712.28	298.43
712.61	297.46
712.95	296.50
713.28	295.57
713.61	294.64
713.95	293.78
714.28	292.93
714.61	292.12
714.95	291.28
715.28	290.42
715.61	289.57
715.95	288.72
716.28	287.91
716.61	287.03
716.95	286.19
717.28	285.46
717.61	284.70
717.94	283.99
718.28	283.18
718.61	282.48
718.94	281.76
719.27	281.05
719.61	280.44
719.94	279.77
720.27	279.06
720.60	278.41
720.94	277.77
721.27	277.18
721.60	276.59
721.93	275.99
722.27	275.43
722.60	274.90
722.93	274.33
723.26	273.78
723.59	273.26
723.93	272.74
724.26	272.12
724.59	271.54
724.92	270.98
725.25	270.49
725.59	269.95
725.92	269.43
726.25	268.92
726.58	268.39
726.91	267.92
727.24	267.47
727.57	266.99
727.91	266.51
728.24	266.01
728.57	265.51
728.90	265.06
729.23	264.55
729.56	264.10
729.89	263.62
730.22	263.14
730.55	262.61
730.89	262.16
731.22	261.76
731.55	261.36
731.88	260.97
732.21	260.54
732.54	260.12
732.87	259.69
733.20	259.31
733.53	258.92
733.86	258.52
734.19	258.13
734.52	257.79
734.85	257.48
735.18	257.11
735.51	256.72
735.84	256.31
736.17	256.01
736.50	255.57
736.83	255.33
737.16	255.00
737.49	254.71
737.82	254.35
738.15	254.04
738.48	253.69
738.81	253.34
739.14	253.04
739.47	252.70
739.80	252.39
740.13	252.10
740.46	251.80
740.79	251.53
741.12	251.23
741.45	250.90
741.78	250.57
742.11	250.28
742.44	249.98
742.77	249.72
743.10	249.44
743.43	249.16
743.75	248.83
744.08	248.69
744.41	248.41
744.74	248.18
745.07	247.91
745.40	247.68
745.73	247.48
746.06	247.22
746.39	247.00
746.71	246.75
747.04	246.46
747.37	246.19
747.70	245.90
748.03	245.66
748.36	245.42
748.68	245.14
749.01	244.90
749.34	244.68
749.67	244.47
750.00	244.23
750.33	244.07
750.65	243.82
750.98	243.50
751.31	243.31
751.64	243.08
751.97	242.90
752.29	242.68
752.62	242.41
752.95	242.19
753.28	241.98
753.60	241.78
753.93	241.61
754.26	241.43
754.59	241.19
754.91	240.96
755.24	240.76
755.57	240.58
755.90	240.38
756.22	240.20
756.55	239.98
756.88	239.78
757.20	239.57
757.53	239.39
757.86	239.20
758.19	239.01
758.51	238.83
758.84	238.60
759.17	238.42
759.49	238.28
759.82	238.14
760.15	237.97
760.47	237.81
760.80	237.64
761.13	237.51
761.45	237.36
761.78	237.23
762.11	237.07
762.43	236.92
762.76	236.77
763.08	236.63
763.41	236.52
763.74	236.38
764.06	236.25
764.39	236.12
764.71	235.96
765.04	235.82
765.37	235.67
765.69	235.54
766.02	235.39
766.34	235.23
766.67	235.06
767.00	234.96
767.32	234.90
767.65	234.83
767.97	234.71
768.30	234.62
768.62	234.51
768.95	234.37
769.27	234.25
769.60	234.15
769.92	234.03
770.25	233.89
770.57	233.77
770.90	233.64
771.22	233.50
771.55	233.42
771.87	233.34
772.20	233.27
772.52	233.26
772.85	233.29
773.17	233.19
773.50	233.11
773.82	232.99
774.15	232.81
774.47	232.67
774.80	232.54
775.12	232.43
775.45	232.35
775.77	232.28
776.09	232.22
776.42	232.14
776.74	232.07
777.07	231.99
777.39	231.93
777.72	231.84
778.04	231.79
778.36	231.70
778.69	231.63
779.01	231.57
779.33	231.42
779.66	231.24
779.98	231.18
780.31	231.12
780.63	231.12
780.95	231.13
781.28	231.03
781.60	230.98
781.92	230.95
782.25	230.88
782.57	230.81
782.89	230.78
783.22	230.72
783.54	230.67
783.86	230.63
784.19	230.60
784.51	230.56
784.83	230.51
785.16	230.48
785.48	230.44
785.80	230.36
786.12	230.35
786.45	230.30
786.77	230.27
787.09	230.22
787.42	230.12
787.74	230.07
788.06	230.06
788.38	230.03
788.71	229.97
789.03	229.91
789.35	229.91
789.67	229.83
789.99	229.82
790.32	229.76
790.64	229.72
790.96	229.72
791.28	229.60
791.61	229.56
791.93	229.54
792.25	229.49
792.57	229.54
792.89	229.45
793.21	229.40
793.54	229.35
793.86	229.33
794.18	229.29
794.50	229.22
794.82	229.17
795.14	229.17
795.47	229.16
795.79	229.14
796.11	229.06
796.43	229.00
796.75	228.95
797.07	228.91
797.39	228.86
797.71	228.75
798.04	228.80
798.36	228.78
798.68	228.74
799.00	228.67
799.32	228.60
799.64	228.60
799.96	228.57
800.28	228.57
800.60	228.55
800.92	228.51
801.24	228.49
801.56	228.47
801.89	228.41
802.21	228.36
802.53	228.30
802.85	228.27
803.17	228.31
803.49	228.26
803.81	228.21
804.13	228.22
804.45	228.18
804.77	228.13
805.09	228.08
805.41	228.02
805.73	228.00
806.05	227.91
806.37	227.87
806.69	227.85
807.01	227.80
807.33	227.74
807.65	227.72
807.97	227.72
808.28	227.65
808.60	227.60
808.92	227.57
809.24	227.61
809.56	227.63
809.88	227.53
810.20	227.52
810.52	227.55
810.84	227.51
811.16	227.47
811.48	227.45
811.80	227.44
812.12	227.43
812.43	227.41
812.75	227.43
813.07	227.41
813.39	227.38
813.71	227.35
814.03	227.35
814.35	227.33
814.67	227.30
814.98	227.30
815.30	227.28
815.62	227.24
815.94	227.19
816.26	227.20
816.58	227.21
816.89	227.23
817.21	227.20
817.53	227.19
817.85	227.19
818.17	227.14
818.48	227.13
818.80	227.13
819.12	227.13
819.44	227.12
819.76	227.08
820.07	227.07
820.39	227.06
820.71	227.06
821.03	227.02
821.34	226.99
821.66	227.00
821.98	227.03
822.30	227.05
822.61	227.08
822.93	227.03
823.25	227.02
823.57	227.00
823.88	227.00
824.20	226.97
824.52	226.99
824.83	227.01
825.15	227.00
825.47	227.02
825.79	227.02
826.10	227.04
826.42	227.07
826.74	227.08
827.05	227.08
827.37	227.05
827.69	227.08
828.00	227.08
828.32	227.04
828.64	227.02
828.95	227.08
829.27	227.05
829.58	227.01
829.90	227.02
830.22	226.99
830.53	226.96
830.85	226.97
831.17	226.92
831.48	226.89
831.80	226.86
832.11	226.83
832.43	226.80
832.75	226.77
833.06	226.80
833.38	226.78
833.69	226.74
834.01	226.75
834.32	226.72
834.64	226.69
834.96	226.74
835.27	226.69
835.59	226.63
835.90	226.58
836.22	226.60
836.53	226.57
836.85	226.53
837.16	226.57
837.48	226.55
837.79	226.56
838.11	226.57
838.42	226.57
838.74	226.56
839.05	226.54
839.37	226.52
839.68	226.43
840.00	226.37
840.31	226.39
840.63	226.39
840.94	226.38
841.26	226.38
841.57	226.34
841.88	226.33
842.20	226.30
842.51	226.30
842.83	226.26
843.14	226.33
843.46	226.37
843.77	226.30
844.08	226.29
844.40	226.25
844.71	226.23
845.03	226.18
845.34	226.15
845.65	226.12
845.97	226.10
846.28	226.12
846.60	226.16
846.91	226.11
847.22	226.10
847.54	226.13
847.85	226.09
848.16	226.09
848.48	226.06
848.79	226.09
849.10	226.10
849.42	226.12
849.73	226.00
850.04	225.99
850.36	225.99
850.67	225.99
850.98	226.02
851.30	226.01
851.61	226.03
851.92	226.05
852.23	226.11
852.55	226.13
852.86	226.09
853.17	226.03
853.49	226.07
853.80	226.06
854.11	226.05
854.42	226.08
854.74	226.05
855.05	226.10
855.36	226.03
855.67	226.04
855.99	226.03
856.30	226.18
856.61	226.19
856.92	226.22
857.23	226.21
857.55	226.21
857.86	226.18
858.17	226.19
858.48	226.15
858.79	226.10
859.11	226.09
859.42	226.11
859.73	226.12
860.04	226.10
860.35	226.09
860.66	226.06
860.98	226.08
861.29	226.08
861.60	226.05
861.91	226.06
862.22	226.02
862.53	226.01
862.84	225.89
863.16	225.89
863.47	225.80
863.78	225.81
864.09	225.79
864.40	225.84
864.71	225.83
865.02	225.85
865.33	225.86
865.64	225.84
865.95	225.81
866.27	225.90
866.58	225.89
866.89	225.90
867.20	225.89
867.51	225.85
867.82	225.84
868.13	225.84
868.44	225.81
868.75	225.83
869.06	225.80
869.37	225.80
869.68	225.76
869.99	225.80
870.30	225.81
870.61	225.80
870.92	225.73
871.23	225.70
871.54	225.71
871.85	225.71
872.16	225.72
872.47	225.72
872.78	225.66
873.09	225.68
873.40	225.65
873.71	225.66
874.02	225.67
874.33	225.65
874.64	225.66
874.95	225.67
875.26	225.68
875.56	225.69
875.87	225.66
876.18	225.64
876.49	225.72
876.80	225.68
877.11	225.67
877.42	225.70
877.73	225.69
878.04	225.65
878.35	225.62
878.66	225.61
878.96	225.62
879.27	225.58
879.58	225.56
879.89	225.55
880.20	225.57
880.51	225.53
880.82	225.51
881.12	225.49
881.43	225.49
881.74	225.41
882.05	225.38
882.36	225.39
882.67	225.38
882.97	225.28
883.28	225.26
883.59	225.22
883.90	225.22
884.21	225.24
884.51	225.22
884.82	225.21
885.13	225.18
885.44	225.17
885.74	225.16
886.05	225.13
886.36	225.13
886.67	225.10
886.98	225.16
887.28	225.15
887.59	225.16
887.90	225.10
888.20	225.17
888.51	225.21
888.82	225.20
889.13	225.21
889.43	225.27
889.74	225.26
890.05	225.27
890.35	225.23
890.66	225.22
890.97	225.23
891.28	225.22
891.58	225.23
891.89	225.24
892.20	225.27
892.50	225.24
892.81	225.24
893.12	225.24
893.42	225.19
893.73	225.23
894.04	225.25
894.34	225.29
894.65	225.25
894.95	225.22
895.26	225.25
895.57	225.33
895.87	225.24
896.18	225.29
896.48	225.31
896.79	225.37
897.10	225.36
897.40	225.39
897.71	225.41
898.01	225.41
898.32	225.43
898.63	225.43
898.93	225.44
899.24	225.42
899.54	225.41
899.85	225.39
900.15	225.40
900.46	225.43
900.76	225.45
901.07	225.48
901.38	225.49
901.68	225.46
901.99	225.39
902.29	225.42
902.60	225.39
902.90	225.37
903.21	225.37
903.51	225.38
903.82	225.39
904.12	225.39
904.43	225.39
904.73	225.39
905.03	225.40
905.34	225.53
905.64	225.57
905.95	225.61
906.25	225.62
906.56	225.60
906.86	225.55
907.17	225.53
907.47	225.55
907.77	225.53
908.08	225.55
908.38	225.58
908.69	225.61
908.99	225.66
909.30	225.69
909.60	225.69
909.90	225.71
910.21	225.69
910.51	225.70
910.81	225.71
911.12	225.67
911.42	225.65
911.73	225.51
912.03	225.49
912.33	225.46
912.64	225.47
912.94	225.46
913.24	225.44
913.55	225.41
913.85	225.41
914.15	225.46
914.46	225.47
914.76	225.43
915.06	225.39
915.37	225.36
915.67	225.35
915.97	225.31
916.27	225.27
916.58	225.29
916.88	225.29
917.18	225.28
917.49	225.37
917.79	225.36
918.09	225.41
918.39	225.44
918.70	225.43
919.00	225.40
919.30	225.44
919.60	225.44
919.91	225.44
920.21	225.41
920.51	225.35
920.81	225.34
921.12	225.34
921.42	225.34
921.72	225.32
922.02	225.29
922.32	225.32
922.63	225.30
922.93	225.31
923.23	225.29
923.53	225.28
923.83	225.23
924.13	225.26
924.44	225.22
924.74	225.25
925.04	225.26
925.34	225.27
925.64	225.24
925.94	225.29
926.24	225.36
926.55	225.34
926.85	225.38
927.15	225.35
927.45	225.37
927.75	225.37
928.05	225.38
928.35	225.39
928.65	225.38
928.95	225.42
929.26	225.41
929.56	225.43
929.86	225.46
930.16	225.43
930.46	225.42
930.76	225.45
931.06	225.38
931.36	225.37
931.66	225.39
931.96	225.43
932.26	225.43
932.56	225.38
932.86	225.41
933.16	225.37
933.46	225.38
933.76	225.34
934.06	225.37
934.36	225.39
934.66	225.38
934.96	225.40
935.26	225.38
935.56	225.41
935.86	225.40
936.16	225.36
936.46	225.37
936.76	225.39
937.06	225.38
937.36	225.41
937.66	225.42
937.96	225.42
938.26	225.38
938.56	225.35
938.86	225.36
939.16	225.36
939.46	225.39
939.76	225.41
940.06	225.42
940.35	225.38
940.65	225.36
940.95	225.42
941.25	225.39
941.55	225.40
941.85	225.39
942.15	225.40
942.45	225.44
942.75	225.46
943.04	225.43
943.34	225.41
943.64	225.39
943.94	225.41
944.24	225.41
944.54	225.41
944.84	225.42
945.13	225.44
945.43	225.45
945.73	225.48
946.03	225.47
946.33	225.51
946.62	225.50
946.92	225.47
947.22	225.48
947.52	225.49
947.82	225.50
948.11	225.49
948.41	225.46
948.71	225.42
949.01	225.42
949.31	225.42
949.60	225.45
949.90	225.48
950.20	225.44
950.50	225.44
950.79	225.45
951.09	225.46
951.39	225.43
951.69	225.42
951.98	225.44
952.28	225.41
952.58	225.37
952.87	225.38
953.17	225.40
953.47	225.37
953.76	225.38
954.06	225.36
954.36	225.33
954.66	225.35
954.95	225.37
955.25	225.37
955.55	225.39
955.84	225.36
956.14	225.37
956.44	225.39
956.73	225.35
957.03	225.34
957.32	225.33
957.62	225.30
957.92	225.32
958.21	225.28
958.51	225.42
958.81	225.41
959.10	225.39
959.40	225.42
959.69	225.41
959.99	225.40
960.29	225.41
960.58	225.42
960.88	225.40
961.17	225.36
961.47	225.35
961.76	225.32
962.06	225.31
962.36	225.30
962.65	225.30
962.95	225.32
963.24	225.28
963.54	225.30
963.83	225.32
964.13	225.29
964.42	225.27
964.72	225.20
965.01	225.21
965.31	225.21
965.60	225.20
965.90	225.28
966.19	225.25
966.49	225.24
966.78	225.22
967.08	225.27
967.37	225.30
967.67	225.28
967.96	225.31
968.26	225.33
968.55	225.31
968.85	225.30
969.14	225.29
969.43	225.28
969.73	225.24
970.02	225.22
970.32	225.22
970.61	225.19
970.91	225.15
971.20	225.14
971.49	225.15
971.79	225.17
972.08	225.05
972.38	225.05
972.67	225.03
972.96	225.04
973.26	225.02
973.55	225.04
973.85	225.06
974.14	225.04
974.43	225.05
974.73	225.04
975.02	225.05
975.31	225.07
975.61	225.11
975.90	225.14
976.19	225.13
976.49	225.15
976.78	225.19
977.07	225.18
977.37	225.19
977.66	225.22
977.95	225.18
978.24	225.22
978.54	225.27
978.83	225.31
979.12	225.30
979.42	225.30
979.71	225.30
980.00	225.27
980.29	225.29
980.59	225.28
980.88	225.29
981.17	225.30
981.46	225.31
981.76	225.29
982.05	225.31
982.34	225.34
982.63	225.32
982.93	225.30
983.22	225.35
983.51	225.37
983.80	225.38
984.09	225.39
984.39	225.41
984.68	225.39
984.97	225.37
985.26	225.35
985.55	225.34
985.85	225.30
986.14	225.32
986.43	225.32
986.72	225.31
987.01	225.29
987.30	225.30
987.59	225.28
987.89	225.28
988.18	225.26
988.47	225.28
988.76	225.27
989.05	225.29
989.34	225.25
989.63	225.27
989.92	225.23
990.22	225.22
990.51	225.19
990.80	225.17
991.09	225.22
991.38	225.25
991.67	225.25
991.96	225.22
992.25	225.23
992.54	225.20
992.83	225.21
993.12	225.22
993.41	225.23
993.70	225.26
993.99	225.29
994.28	225.29
994.58	225.26
994.87	225.25
995.16	225.25
995.45	225.23
995.74	225.20
996.03	225.21
996.32	225.22
996.61	225.25
996.90	225.25
997.19	225.19
997.48	225.18
997.77	225.20
998.06	225.22
998.34	225.19
998.63	225.20
998.92	225.19
999.21	225.22
999.50	225.18
999.79	225.16
1000.08	225.14
1000.37	225.11
1000.66	225.10
1000.95	225.15
1001.24	225.13
1001.53	225.15
1001.82	225.12
1002.11	225.10
1002.40	225.11
1002.68	225.12
1002.97	225.18
1003.26	225.18
1003.55	225.17
1003.84	225.15
1004.13	225.19
1004.42	225.20
1004.71	225.21
1004.99	225.22
1005.28	225.19
1005.57	225.20
1005.86	225.18
1006.15	225.15
1006.44	225.14
1006.72	225.15
1007.01	225.15
1007.30	225.17
1007.59	225.15
1007.88	225.17
1008.17	225.17
1008.45	225.14
1008.74	225.10
1009.03	225.05
1009.32	225.03
1009.60	225.04
1009.89	225.03
1010.18	225.01
1010.47	225.01
1010.76	224.97
1011.04	224.96
1011.33	225.02
1011.62	225.02
1011.91	225.01
1012.19	225.06
1012.48	225.08
1012.77	225.10
1013.05	225.13
1013.34	225.14
1013.63	225.17
1013.92	225.19
1014.20	225.18
1014.49	225.20
1014.78	225.21
1015.06	225.21
1015.35	225.25
1015.64	225.27
1015.92	225.28
1016.21	225.30
1016.50	225.26
1016.78	225.28
1017.07	225.28
1017.36	225.24
1017.64	225.23
1017.93	225.28
1018.22	225.26
1018.50	225.24
1018.79	225.24
1019.08	225.23
1019.36	225.23
1019.65	225.21
1019.93	225.23
1020.22	225.25
1020.51	225.31
1020.79	225.31
1021.08	225.04
1021.36	224.82
1021.65	225.38
1021.94	225.72
1022.22	225.52
1022.51	225.35
1022.79	225.59
1023.08	225.14
1023.36	226.64
1023.65	225.15
>>>>>End Processed Spectral Data<<<<<
