SpectraSuite Data File
++++++++++++++++++++++++++++++++++++
Date: Fri Feb 01 15:59:00 EST 2013
User: group
Dark Spectrum Present: No
Reference Spectrum Present: No
Number of Sampled Component Spectra: 1
Spectrometers: USB2E7196
Integration Time (usec): 35000 (USB2E7196)
Spectra Averaged: 100 (USB2E7196)
Boxcar Smoothing: 10 (USB2E7196)
Correct for Electrical Dark: No (USB2E7196)
Strobe/Lamp Enabled: No (USB2E7196)
Correct for Detector Non-linearity: No (USB2E7196)
Correct for Stray Light: No (USB2E7196)
Number of Pixels in Processed Spectrum: 2048
>>>>>Begin Processed Spectral Data<<<<<
339.09	0.00
339.48	214.62
339.86	215.89
340.24	217.34
340.63	218.59
341.01	221.33
341.39	221.57
341.78	222.52
342.16	224.35
342.54	224.24
342.93	212.98
343.31	223.75
343.69	224.29
344.07	224.76
344.46	225.20
344.84	225.57
345.22	225.86
345.60	226.10
345.99	226.30
346.37	226.42
346.75	226.54
347.13	226.60
347.52	226.68
347.90	226.72
348.28	226.77
348.66	226.84
349.05	226.80
349.43	226.86
349.81	226.90
350.19	226.96
350.57	227.00
350.96	227.08
351.34	227.15
351.72	227.24
352.10	227.35
352.48	227.41
352.87	227.49
353.25	227.53
353.63	227.58
354.01	227.68
354.39	227.77
354.77	227.87
355.15	227.96
355.54	228.00
355.92	228.10
356.30	228.15
356.68	228.25
357.06	228.33
357.44	228.39
357.82	228.46
358.20	228.54
358.58	228.61
358.97	228.66
359.35	228.74
359.73	228.83
360.11	228.90
360.49	228.96
360.87	229.01
361.25	229.05
361.63	229.14
362.01	229.16
362.39	229.19
362.77	229.21
363.15	229.24
363.53	229.28
363.91	229.30
364.29	229.33
364.67	229.27
365.05	229.28
365.43	229.28
365.81	229.29
366.19	229.32
366.57	229.34
366.95	229.34
367.33	229.32
367.71	229.27
368.09	229.26
368.47	229.22
368.85	229.21
369.23	229.21
369.61	229.15
369.99	229.17
370.37	229.15
370.75	229.14
371.13	229.08
371.51	229.03
371.89	228.96
372.27	228.93
372.65	228.93
373.03	228.90
373.41	228.85
373.78	228.80
374.16	228.71
374.54	228.62
374.92	228.54
375.30	228.49
375.68	228.43
376.06	228.36
376.44	228.29
376.82	228.23
377.19	228.16
377.57	228.11
377.95	228.00
378.33	227.90
378.71	227.78
379.09	227.73
379.47	227.67
379.84	227.61
380.22	227.48
380.60	227.37
380.98	227.31
381.36	227.30
381.73	227.21
382.11	227.15
382.49	227.09
382.87	227.02
383.25	226.94
383.62	227.02
384.00	226.94
384.38	226.88
384.76	226.84
385.13	226.85
385.51	226.79
385.89	226.73
386.27	226.69
386.64	226.68
387.02	226.62
387.40	226.56
387.78	226.51
388.15	226.50
388.53	226.46
388.91	226.44
389.29	226.36
389.66	226.33
390.04	226.26
390.42	226.24
390.79	226.24
391.17	226.24
391.55	226.11
391.92	226.11
392.30	226.12
392.68	226.09
393.05	226.08
393.43	226.09
393.81	226.11
394.18	226.09
394.56	226.09
394.94	226.10
395.31	226.12
395.69	226.17
396.06	226.22
396.44	226.28
396.82	226.28
397.19	226.36
397.57	226.41
397.95	226.48
398.32	226.51
398.70	226.57
399.07	226.63
399.45	226.68
399.82	226.72
400.20	226.79
400.58	226.86
400.95	226.87
401.33	226.93
401.70	227.06
402.08	227.16
402.45	227.23
402.83	227.38
403.20	227.48
403.58	227.59
403.95	227.70
404.33	227.83
404.71	227.97
405.08	228.15
405.46	228.28
405.83	228.43
406.21	228.59
406.58	228.79
406.96	228.93
407.33	229.12
407.70	229.33
408.08	229.57
408.45	229.81
408.83	230.04
409.20	230.25
409.58	230.44
409.95	230.72
410.33	230.99
410.70	231.24
411.08	231.56
411.45	231.85
411.82	232.15
412.20	232.47
412.57	232.87
412.95	233.15
413.32	233.57
413.69	234.00
414.07	234.44
414.44	234.87
414.82	235.37
415.19	235.88
415.56	236.44
415.94	237.00
416.31	237.62
416.68	238.26
417.06	238.99
417.43	239.67
417.81	240.43
418.18	241.22
418.55	242.02
418.93	242.87
419.30	243.76
419.67	244.69
420.04	245.67
420.42	246.66
420.79	247.88
421.16	249.00
421.54	250.20
421.91	251.39
422.28	252.64
422.66	253.99
423.03	255.29
423.40	256.61
423.77	258.03
424.15	259.46
424.52	260.95
424.89	262.58
425.26	264.12
425.64	265.57
426.01	267.14
426.38	268.85
426.75	270.52
427.13	272.26
427.50	274.05
427.87	275.90
428.24	277.76
428.61	279.46
428.99	281.43
429.36	283.51
429.73	285.60
430.10	287.63
430.47	289.70
430.85	291.84
431.22	294.09
431.59	296.47
431.96	298.72
432.33	301.21
432.70	303.56
433.08	306.40
433.45	309.05
433.82	311.71
434.19	314.56
434.56	317.41
434.93	320.07
435.30	322.71
435.68	325.59
436.05	328.47
436.42	331.30
436.79	333.83
437.16	336.55
437.53	339.42
437.90	342.22
438.27	344.91
438.64	347.70
439.01	350.31
439.38	352.51
439.75	354.65
440.13	357.16
440.50	359.48
440.87	361.27
441.24	363.17
441.61	365.30
441.98	366.77
442.35	368.58
442.72	370.41
443.09	372.18
443.46	373.18
443.83	373.70
444.20	374.20
444.57	375.03
444.94	375.23
445.31	375.53
445.68	375.85
446.05	375.94
446.42	375.57
446.79	375.12
447.16	374.65
447.53	374.34
447.90	373.14
448.27	371.96
448.64	370.41
449.01	369.34
449.37	367.38
449.74	365.49
450.11	363.18
450.48	360.72
450.85	358.20
451.22	356.09
451.59	354.08
451.96	352.12
452.33	349.47
452.70	347.16
453.07	344.32
453.43	341.42
453.80	338.67
454.17	336.04
454.54	333.52
454.91	330.85
455.28	328.18
455.65	325.73
456.02	323.31
456.38	321.15
456.75	318.46
457.12	316.21
457.49	313.99
457.86	311.85
458.23	310.04
458.59	308.04
458.96	305.95
459.33	304.12
459.70	302.28
460.07	300.82
460.43	299.12
460.80	297.52
461.17	296.16
461.54	294.68
461.91	293.26
462.27	291.81
462.64	290.53
463.01	289.17
463.38	287.87
463.74	286.49
464.11	285.36
464.48	284.32
464.85	283.19
465.21	282.33
465.58	281.42
465.95	280.27
466.32	279.31
466.68	278.41
467.05	277.54
467.42	276.59
467.78	275.66
468.15	274.77
468.52	274.08
468.88	273.15
469.25	272.34
469.62	271.73
469.98	271.04
470.35	270.45
470.72	269.85
471.08	269.21
471.45	268.71
471.82	268.16
472.18	267.58
472.55	267.21
472.92	266.69
473.28	266.25
473.65	265.83
474.02	265.44
474.38	265.10
474.75	264.75
475.11	264.45
475.48	264.21
475.85	264.03
476.21	263.81
476.58	263.69
476.94	263.55
477.31	263.34
477.67	263.22
478.04	263.07
478.41	263.06
478.77	263.14
479.14	263.05
479.50	263.02
479.87	263.12
480.23	263.20
480.60	263.30
480.96	263.41
481.33	263.64
481.69	263.85
482.06	264.04
482.42	264.28
482.79	264.55
483.15	264.83
483.52	265.19
483.88	265.58
484.25	265.96
484.61	266.41
484.98	266.91
485.34	267.47
485.71	268.06
486.07	268.63
486.44	269.14
486.80	269.83
487.17	270.59
487.53	271.36
487.90	272.18
488.26	273.04
488.62	273.99
488.99	274.95
489.35	275.97
489.72	277.11
490.08	278.26
490.44	279.49
490.81	280.83
491.17	282.17
491.54	283.60
491.90	285.14
492.26	286.79
492.63	288.51
492.99	290.26
493.36	292.16
493.72	294.22
494.08	296.35
494.45	298.61
494.81	300.96
495.17	303.39
495.54	305.98
495.90	308.70
496.26	311.50
496.63	314.45
496.99	317.55
497.35	320.77
497.72	324.17
498.08	327.68
498.44	331.32
498.80	335.23
499.17	339.30
499.53	343.50
499.89	347.86
500.26	352.37
500.62	357.05
500.98	362.03
501.34	367.10
501.71	372.41
502.07	377.81
502.43	383.51
502.79	389.40
503.16	395.49
503.52	401.75
503.88	408.16
504.24	414.79
504.60	421.71
504.97	428.89
505.33	436.29
505.69	443.99
506.05	451.82
506.41	459.72
506.78	467.87
507.14	476.30
507.50	485.02
507.86	494.09
508.22	503.29
508.59	512.53
508.95	522.13
509.31	532.00
509.67	542.15
510.03	552.45
510.39	562.94
510.75	573.72
511.12	584.63
511.48	595.97
511.84	607.44
512.20	618.96
512.56	630.86
512.92	643.06
513.28	655.43
513.64	667.94
514.00	680.71
514.37	693.67
514.73	706.78
515.09	719.83
515.45	733.10
515.81	746.67
516.17	760.62
516.53	774.67
516.89	788.85
517.25	803.05
517.61	817.41
517.97	831.86
518.33	846.22
518.69	860.94
519.05	875.93
519.41	891.07
519.77	906.66
520.13	922.05
520.49	937.37
520.85	952.77
521.21	968.44
521.57	984.66
521.93	1000.38
522.29	1016.69
522.65	1032.88
523.01	1049.04
523.37	1065.02
523.73	1081.08
524.09	1097.16
524.45	1113.36
524.81	1129.92
525.17	1146.68
525.53	1163.60
525.89	1180.47
526.25	1197.38
526.61	1213.74
526.97	1230.54
527.33	1246.97
527.68	1263.62
528.04	1280.10
528.40	1296.64
528.76	1313.62
529.12	1330.23
529.48	1347.07
529.84	1363.02
530.20	1379.67
530.56	1396.74
530.91	1414.22
531.27	1431.01
531.63	1447.45
531.99	1464.01
532.35	1479.95
532.71	1495.75
533.07	1511.94
533.42	1527.82
533.78	1543.91
534.14	1560.13
534.50	1575.43
534.86	1591.27
535.21	1606.36
535.57	1622.22
535.93	1637.65
536.29	1652.48
536.65	1667.31
537.00	1682.06
537.36	1697.32
537.72	1711.85
538.08	1726.06
538.44	1739.69
538.79	1753.57
539.15	1767.28
539.51	1780.91
539.87	1795.20
540.22	1808.97
540.58	1822.69
540.94	1835.98
541.29	1848.66
541.65	1861.37
542.01	1874.45
542.37	1886.67
542.72	1899.17
543.08	1910.88
543.44	1923.19
543.79	1934.41
544.15	1945.53
544.51	1957.02
544.87	1968.04
545.22	1978.72
545.58	1989.02
545.94	1998.74
546.29	2008.48
546.65	2018.21
547.01	2027.56
547.36	2036.16
547.72	2044.57
548.07	2052.36
548.43	2060.57
548.79	2068.64
549.14	2075.99
549.50	2083.42
549.86	2091.13
550.21	2098.45
550.57	2105.55
550.92	2112.21
551.28	2119.17
551.64	2126.13
551.99	2132.62
552.35	2138.77
552.70	2144.89
553.06	2150.90
553.41	2157.27
553.77	2163.43
554.13	2169.48
554.48	2175.66
554.84	2181.13
555.19	2186.46
555.55	2191.65
555.90	2196.14
556.26	2201.08
556.61	2205.92
556.97	2209.98
557.32	2214.07
557.68	2218.35
558.03	2222.77
558.39	2226.46
558.74	2231.11
559.10	2234.93
559.45	2238.68
559.81	2243.01
560.16	2246.92
560.52	2249.99
560.87	2253.40
561.23	2256.09
561.58	2259.14
561.94	2261.66
562.29	2264.25
562.64	2266.86
563.00	2269.50
563.35	2272.90
563.71	2276.03
564.06	2279.23
564.42	2282.21
564.77	2284.70
565.12	2286.70
565.48	2288.58
565.83	2290.38
566.19	2291.65
566.54	2292.64
566.89	2293.81
567.25	2294.37
567.60	2295.69
567.96	2297.47
568.31	2298.46
568.66	2299.49
569.02	2300.00
569.37	2300.36
569.72	2301.10
570.08	2301.37
570.43	2301.40
570.78	2300.80
571.14	2299.21
571.49	2297.96
571.84	2297.68
572.20	2296.66
572.55	2295.64
572.90	2294.02
573.26	2292.70
573.61	2291.11
573.96	2289.32
574.31	2286.32
574.67	2283.27
575.02	2279.63
575.37	2276.28
575.72	2272.44
576.08	2269.15
576.43	2265.76
576.78	2262.01
577.13	2258.84
577.49	2255.86
577.84	2252.34
578.19	2248.71
578.54	2245.08
578.90	2240.75
579.25	2235.19
579.60	2230.05
579.95	2224.95
580.30	2219.91
580.66	2214.85
581.01	2209.87
581.36	2204.96
581.71	2200.75
582.06	2196.22
582.42	2191.67
582.77	2186.50
583.12	2181.86
583.47	2177.05
583.82	2172.12
584.17	2166.92
584.53	2161.51
584.88	2155.78
585.23	2150.13
585.58	2144.70
585.93	2139.31
586.28	2134.60
586.63	2129.54
586.98	2124.68
587.34	2120.05
587.69	2115.18
588.04	2109.74
588.39	2104.04
588.74	2097.67
589.09	2091.53
589.44	2084.93
589.79	2079.11
590.14	2073.42
590.49	2067.01
590.84	2060.64
591.19	2054.79
591.54	2048.30
591.89	2040.81
592.25	2033.92
592.60	2026.54
592.95	2018.94
593.30	2011.56
593.65	2003.97
594.00	1996.86
594.35	1989.57
594.70	1981.54
595.05	1974.44
595.40	1967.20
595.75	1959.81
596.10	1953.52
596.45	1946.80
596.80	1940.68
597.15	1933.91
597.50	1926.74
597.85	1920.19
598.19	1913.59
598.54	1906.32
598.89	1899.71
599.24	1893.86
599.59	1887.12
599.94	1880.93
600.29	1874.53
600.64	1868.01
600.99	1860.63
601.34	1853.79
601.69	1846.97
602.04	1840.12
602.39	1832.64
602.74	1825.92
603.08	1819.08
603.43	1812.39
603.78	1805.08
604.13	1797.78
604.48	1790.48
604.83	1783.72
605.18	1776.70
605.53	1768.64
605.87	1760.67
606.22	1753.48
606.57	1745.54
606.92	1738.34
607.27	1731.19
607.62	1724.28
607.96	1716.88
608.31	1710.28
608.66	1702.81
609.01	1695.14
609.36	1687.52
609.70	1679.55
610.05	1671.41
610.40	1663.67
610.75	1655.34
611.10	1647.69
611.44	1639.30
611.79	1631.38
612.14	1622.56
612.49	1613.43
612.83	1605.07
613.18	1597.05
613.53	1588.93
613.88	1580.36
614.22	1572.08
614.57	1563.46
614.92	1555.47
615.27	1547.87
615.61	1539.42
615.96	1531.29
616.31	1523.70
616.65	1516.41
617.00	1508.84
617.35	1501.22
617.70	1492.95
618.04	1484.46
618.39	1476.19
618.74	1468.55
619.08	1460.25
619.43	1452.81
619.78	1445.94
620.12	1438.80
620.47	1431.16
620.82	1423.01
621.16	1415.55
621.51	1408.01
621.85	1400.45
622.20	1391.83
622.55	1383.50
622.89	1375.61
623.24	1367.96
623.59	1360.51
623.93	1353.09
624.28	1345.88
624.62	1338.37
624.97	1331.27
625.32	1324.58
625.66	1317.63
626.01	1310.43
626.35	1302.95
626.70	1295.13
627.04	1287.36
627.39	1279.56
627.73	1272.23
628.08	1265.23
628.43	1257.96
628.77	1250.52
629.12	1242.98
629.46	1235.87
629.81	1228.62
630.15	1221.44
630.50	1214.18
630.84	1205.98
631.19	1197.92
631.53	1190.41
631.88	1182.76
632.22	1175.11
632.57	1167.74
632.91	1160.10
633.26	1152.76
633.60	1145.49
633.95	1138.38
634.29	1131.40
634.64	1124.76
634.98	1117.35
635.32	1110.24
635.67	1103.67
636.01	1097.02
636.36	1090.21
636.70	1083.66
637.05	1076.90
637.39	1070.43
637.73	1063.78
638.08	1057.85
638.42	1051.86
638.77	1045.46
639.11	1038.88
639.45	1032.44
639.80	1025.73
640.14	1019.39
640.49	1012.79
640.83	1006.45
641.17	1000.21
641.52	993.88
641.86	987.37
642.20	981.46
642.55	975.16
642.89	968.74
643.23	962.19
643.58	956.45
643.92	950.30
644.26	944.25
644.61	938.13
644.95	932.18
645.29	925.59
645.64	918.89
645.98	912.57
646.32	906.83
646.66	900.82
647.01	895.13
647.35	889.38
647.69	883.51
648.04	877.95
648.38	872.18
648.72	866.18
649.06	860.28
649.41	854.49
649.75	848.55
650.09	842.62
650.43	836.89
650.78	830.69
651.12	824.76
651.46	819.07
651.80	813.41
652.14	808.00
652.49	802.66
652.83	797.43
653.17	791.71
653.51	785.98
653.85	780.65
654.20	774.97
654.54	769.02
654.88	763.35
655.22	757.48
655.56	751.86
655.90	746.49
656.25	741.15
656.59	735.78
656.93	730.64
657.27	725.42
657.61	719.95
657.95	714.84
658.29	709.75
658.64	704.53
658.98	699.30
659.32	693.87
659.66	688.68
660.00	683.35
660.34	678.41
660.68	673.49
661.02	668.40
661.36	663.66
661.70	659.12
662.05	654.71
662.39	650.39
662.73	645.89
663.07	641.45
663.41	636.95
663.75	632.46
664.09	627.90
664.43	623.53
664.77	619.44
665.11	615.24
665.45	611.14
665.79	607.10
666.13	602.92
666.47	598.83
666.81	594.63
667.15	590.57
667.49	586.69
667.83	582.89
668.17	578.93
668.51	574.88
668.85	570.81
669.19	567.04
669.53	563.20
669.87	559.30
670.21	555.63
670.55	552.01
670.89	548.58
671.23	545.19
671.57	541.70
671.91	538.09
672.25	534.49
672.58	530.94
672.92	527.46
673.26	524.30
673.60	521.10
673.94	517.98
674.28	515.09
674.62	512.10
674.96	508.96
675.30	506.06
675.64	503.09
675.97	500.35
676.31	497.45
676.65	494.50
676.99	491.77
677.33	488.86
677.67	486.01
678.01	482.93
678.34	479.91
678.68	477.01
679.02	474.20
679.36	471.54
679.70	468.83
680.04	466.06
680.37	463.16
680.71	460.37
681.05	457.76
681.39	455.02
681.73	452.36
682.06	449.82
682.40	447.24
682.74	444.72
683.08	442.16
683.42	439.55
683.75	437.03
684.09	434.50
684.43	431.99
684.77	429.56
685.10	427.20
685.44	424.91
685.78	422.63
686.12	420.39
686.45	418.04
686.79	415.75
687.13	413.57
687.46	411.46
687.80	409.33
688.14	407.15
688.48	405.12
688.81	402.88
689.15	400.71
689.49	398.64
689.82	396.57
690.16	394.54
690.50	392.61
690.83	390.64
691.17	388.66
691.51	386.79
691.84	384.97
692.18	383.06
692.52	381.07
692.85	379.15
693.19	377.27
693.52	375.46
693.86	373.68
694.20	371.93
694.53	370.09
694.87	368.27
695.21	366.47
695.54	364.59
695.88	362.89
696.21	361.20
696.55	359.50
696.88	357.81
697.22	356.15
697.56	354.51
697.89	352.91
698.23	351.35
698.56	349.75
698.90	348.16
699.23	346.53
699.57	344.99
699.90	343.43
700.24	341.89
700.58	340.39
700.91	338.87
701.25	337.41
701.58	336.06
701.92	334.69
702.25	333.33
702.59	332.00
702.92	330.62
703.26	329.34
703.59	328.06
703.93	326.88
704.26	325.62
704.60	324.32
704.93	323.04
705.26	321.77
705.60	320.58
705.93	319.39
706.27	318.30
706.60	317.24
706.94	316.16
707.27	315.08
707.61	313.99
707.94	312.95
708.27	311.83
708.61	310.71
708.94	309.68
709.28	308.71
709.61	307.74
709.94	306.80
710.28	305.72
710.61	304.71
710.95	303.61
711.28	302.69
711.61	301.74
711.95	300.78
712.28	299.80
712.61	298.79
712.95	297.85
713.28	297.02
713.61	296.13
713.95	295.25
714.28	294.38
714.61	293.52
714.95	292.65
715.28	291.82
715.61	290.96
715.95	290.10
716.28	289.24
716.61	288.40
716.95	287.61
717.28	286.88
717.61	286.13
717.94	285.41
718.28	284.59
718.61	283.87
718.94	283.19
719.27	282.55
719.61	281.89
719.94	281.24
720.27	280.46
720.60	279.79
720.94	279.16
721.27	278.52
721.60	277.94
721.93	277.34
722.27	276.82
722.60	276.27
722.93	275.72
723.26	275.18
723.59	274.59
723.93	274.01
724.26	273.44
724.59	272.86
724.92	272.34
725.25	271.89
725.59	271.32
725.92	270.84
726.25	270.33
726.58	269.87
726.91	269.38
727.24	268.94
727.57	268.44
727.91	267.96
728.24	267.48
728.57	266.99
728.90	266.55
729.23	266.02
729.56	265.56
729.89	265.05
730.22	264.54
730.55	264.08
730.89	263.65
731.22	263.21
731.55	262.80
731.88	262.38
732.21	261.90
732.54	261.51
732.87	261.09
733.20	260.68
733.53	260.29
733.86	259.96
734.19	259.57
734.52	259.21
734.85	258.89
735.18	258.48
735.51	258.11
735.84	257.75
736.17	257.44
736.50	257.07
736.83	256.86
737.16	256.55
737.49	256.22
737.82	255.86
738.15	255.56
738.48	255.25
738.81	254.93
739.14	254.63
739.47	254.34
739.80	254.00
740.13	253.72
740.46	253.40
740.79	253.07
741.12	252.77
741.45	252.47
741.78	252.12
742.11	251.84
742.44	251.55
742.77	251.27
743.10	250.95
743.43	250.61
743.75	250.25
744.08	250.13
744.41	249.87
744.74	249.62
745.07	249.32
745.40	249.03
745.73	248.79
746.06	248.53
746.39	248.24
746.71	248.02
747.04	247.76
747.37	247.49
747.70	247.25
748.03	247.00
748.36	246.81
748.68	246.59
749.01	246.38
749.34	246.11
749.67	245.88
750.00	245.70
750.33	245.57
750.65	245.35
750.98	244.99
751.31	244.78
751.64	244.61
751.97	244.45
752.29	244.26
752.62	244.00
752.95	243.78
753.28	243.58
753.60	243.35
753.93	243.17
754.26	242.98
754.59	242.75
754.91	242.51
755.24	242.30
755.57	242.10
755.90	241.90
756.22	241.70
756.55	241.49
756.88	241.25
757.20	241.02
757.53	240.83
757.86	240.64
758.19	240.46
758.51	240.29
758.84	240.08
759.17	239.91
759.49	239.73
759.82	239.61
760.15	239.43
760.47	239.29
760.80	239.08
761.13	238.92
761.45	238.79
761.78	238.67
762.11	238.49
762.43	238.31
762.76	238.20
763.08	238.10
763.41	237.94
763.74	237.81
764.06	237.67
764.39	237.55
764.71	237.43
765.04	237.29
765.37	237.11
765.69	237.01
766.02	236.83
766.34	236.72
766.67	236.56
767.00	236.49
767.32	236.41
767.65	236.38
767.97	236.29
768.30	236.16
768.62	236.06
768.95	235.96
769.27	235.85
769.60	235.71
769.92	235.57
770.25	235.46
770.57	235.36
770.90	235.24
771.22	235.13
771.55	235.04
771.87	234.96
772.20	234.84
772.52	234.81
772.85	234.87
773.17	234.79
773.50	234.70
773.82	234.59
774.15	234.44
774.47	234.25
774.80	234.15
775.12	234.04
775.45	233.94
775.77	233.87
776.09	233.80
776.42	233.73
776.74	233.69
777.07	233.64
777.39	233.55
777.72	233.51
778.04	233.44
778.36	233.35
778.69	233.30
779.01	233.28
779.33	233.11
779.66	232.94
779.98	232.84
780.31	232.74
780.63	232.70
780.95	232.67
781.28	232.63
781.60	232.55
781.92	232.49
782.25	232.45
782.57	232.39
782.89	232.32
783.22	232.28
783.54	232.21
783.86	232.13
784.19	232.10
784.51	232.05
784.83	231.95
785.16	231.89
785.48	231.82
785.80	231.75
786.12	231.71
786.45	231.67
786.77	231.63
787.09	231.58
787.42	231.51
787.74	231.47
788.06	231.42
788.38	231.37
788.71	231.34
789.03	231.31
789.35	231.25
789.67	231.21
789.99	231.16
790.32	231.10
790.64	231.10
790.96	231.11
791.28	231.03
791.61	231.02
791.93	230.98
792.25	230.93
792.57	230.97
792.89	230.91
793.21	230.87
793.54	230.83
793.86	230.79
794.18	230.72
794.50	230.66
794.82	230.62
795.14	230.59
795.47	230.56
795.79	230.48
796.11	230.42
796.43	230.35
796.75	230.32
797.07	230.28
797.39	230.20
797.71	230.08
798.04	230.04
798.36	230.00
798.68	229.95
799.00	229.91
799.32	229.79
799.64	229.76
799.96	229.72
800.28	229.68
800.60	229.66
800.92	229.65
801.24	229.59
801.56	229.55
801.89	229.50
802.21	229.47
802.53	229.43
802.85	229.44
803.17	229.47
803.49	229.42
803.81	229.38
804.13	229.36
804.45	229.34
804.77	229.34
805.09	229.33
805.41	229.27
805.73	229.25
806.05	229.21
806.37	229.21
806.69	229.16
807.01	229.17
807.33	229.11
807.65	229.06
807.97	229.09
808.28	229.08
808.60	229.06
808.92	229.01
809.24	229.05
809.56	229.00
809.88	228.94
810.20	228.89
810.52	228.86
810.84	228.82
811.16	228.76
811.48	228.71
811.80	228.70
812.12	228.70
812.43	228.70
812.75	228.70
813.07	228.65
813.39	228.66
813.71	228.60
814.03	228.60
814.35	228.60
814.67	228.53
814.98	228.52
815.30	228.50
815.62	228.46
815.94	228.36
816.26	228.39
816.58	228.37
816.89	228.37
817.21	228.34
817.53	228.33
817.85	228.35
818.17	228.36
818.48	228.29
818.80	228.32
819.12	228.29
819.44	228.27
819.76	228.25
820.07	228.24
820.39	228.22
820.71	228.22
821.03	228.19
821.34	228.19
821.66	228.18
821.98	228.20
822.30	228.21
822.61	228.27
822.93	228.23
823.25	228.25
823.57	228.23
823.88	228.24
824.20	228.25
824.52	228.23
824.83	228.25
825.15	228.26
825.47	228.22
825.79	228.22
826.10	228.18
826.42	228.18
826.74	228.16
827.05	228.19
827.37	228.17
827.69	228.16
828.00	228.15
828.32	228.13
828.64	228.09
828.95	228.10
829.27	228.08
829.58	228.09
829.90	228.06
830.22	228.05
830.53	228.02
830.85	228.01
831.17	227.99
831.48	227.96
831.80	227.94
832.11	227.94
832.43	227.91
832.75	227.93
833.06	227.94
833.38	227.90
833.69	227.87
834.01	227.87
834.32	227.84
834.64	227.83
834.96	227.84
835.27	227.83
835.59	227.81
835.90	227.79
836.22	227.73
836.53	227.71
836.85	227.69
837.16	227.79
837.48	227.77
837.79	227.80
838.11	227.79
838.42	227.79
838.74	227.79
839.05	227.75
839.37	227.71
839.68	227.68
840.00	227.66
840.31	227.64
840.63	227.60
840.94	227.58
841.26	227.57
841.57	227.52
841.88	227.52
842.20	227.51
842.51	227.49
842.83	227.48
843.14	227.54
843.46	227.54
843.77	227.47
844.08	227.46
844.40	227.42
844.71	227.36
845.03	227.31
845.34	227.28
845.65	227.30
845.97	227.31
846.28	227.33
846.60	227.32
846.91	227.30
847.22	227.30
847.54	227.33
847.85	227.32
848.16	227.34
848.48	227.31
848.79	227.33
849.10	227.35
849.42	227.36
849.73	227.26
850.04	227.26
850.36	227.24
850.67	227.27
850.98	227.26
851.30	227.28
851.61	227.33
851.92	227.32
852.23	227.37
852.55	227.35
852.86	227.34
853.17	227.37
853.49	227.41
853.80	227.44
854.11	227.42
854.42	227.47
854.74	227.44
855.05	227.44
855.36	227.39
855.67	227.39
855.99	227.39
856.30	227.52
856.61	227.49
856.92	227.49
857.23	227.46
857.55	227.44
857.86	227.43
858.17	227.42
858.48	227.43
858.79	227.38
859.11	227.41
859.42	227.40
859.73	227.41
860.04	227.40
860.35	227.37
860.66	227.36
860.98	227.33
861.29	227.35
861.60	227.36
861.91	227.39
862.22	227.36
862.53	227.32
862.84	227.23
863.16	227.30
863.47	227.29
863.78	227.27
864.09	227.30
864.40	227.32
864.71	227.34
865.02	227.35
865.33	227.36
865.64	227.34
865.95	227.32
866.27	227.38
866.58	227.35
866.89	227.35
867.20	227.36
867.51	227.35
867.82	227.37
868.13	227.40
868.44	227.35
868.75	227.39
869.06	227.41
869.37	227.45
869.68	227.38
869.99	227.38
870.30	227.44
870.61	227.43
870.92	227.41
871.23	227.39
871.54	227.35
871.85	227.38
872.16	227.38
872.47	227.37
872.78	227.29
873.09	227.31
873.40	227.31
873.71	227.35
874.02	227.33
874.33	227.28
874.64	227.23
874.95	227.26
875.26	227.25
875.56	227.24
875.87	227.19
876.18	227.19
876.49	227.29
876.80	227.22
877.11	227.21
877.42	227.19
877.73	227.20
878.04	227.18
878.35	227.17
878.66	227.15
878.96	227.17
879.27	227.15
879.58	227.13
879.89	227.08
880.20	227.05
880.51	227.06
880.82	227.04
881.12	227.02
881.43	226.98
881.74	226.94
882.05	226.93
882.36	226.93
882.67	226.95
882.97	226.84
883.28	226.86
883.59	226.89
883.90	226.91
884.21	226.89
884.51	226.91
884.82	226.89
885.13	226.88
885.44	226.86
885.74	226.86
886.05	226.84
886.36	226.87
886.67	226.84
886.98	226.87
887.28	226.90
887.59	226.93
887.90	226.95
888.20	226.94
888.51	226.94
888.82	226.94
889.13	226.95
889.43	227.03
889.74	227.00
890.05	226.98
890.35	226.96
890.66	226.97
890.97	226.95
891.28	226.94
891.58	226.98
891.89	226.99
892.20	226.96
892.50	226.95
892.81	226.97
893.12	226.95
893.42	226.91
893.73	226.92
894.04	226.90
894.34	226.90
894.65	226.90
894.95	226.88
895.26	226.90
895.57	226.93
895.87	226.84
896.18	226.88
896.48	226.89
896.79	226.86
897.10	226.89
897.40	226.91
897.71	226.91
898.01	226.89
898.32	226.91
898.63	226.95
898.93	227.00
899.24	226.99
899.54	227.01
899.85	227.05
900.15	227.09
900.46	227.13
900.76	227.14
901.07	227.17
901.38	227.17
901.68	227.16
901.99	227.10
902.29	227.12
902.60	227.11
902.90	227.11
903.21	227.12
903.51	227.10
903.82	227.08
904.12	227.10
904.43	227.11
904.73	227.06
905.03	227.05
905.34	227.14
905.64	227.13
905.95	227.11
906.25	227.08
906.56	227.04
906.86	227.03
907.17	227.01
907.47	227.00
907.77	227.00
908.08	226.97
908.38	226.98
908.69	226.95
908.99	226.95
909.30	226.95
909.60	226.96
909.90	226.96
910.21	226.95
910.51	226.92
910.81	226.92
911.12	226.97
911.42	226.99
911.73	226.86
912.03	226.88
912.33	226.89
912.64	226.91
912.94	226.89
913.24	226.88
913.55	226.87
913.85	226.89
914.15	226.91
914.46	226.94
914.76	226.91
915.06	226.96
915.37	226.92
915.67	226.91
915.97	226.88
916.27	226.84
916.58	226.85
916.88	226.82
917.18	226.84
917.49	226.89
917.79	226.83
918.09	226.85
918.39	226.85
918.70	226.86
919.00	226.86
919.30	226.91
919.60	226.90
919.91	226.88
920.21	226.86
920.51	226.84
920.81	226.85
921.12	226.86
921.42	226.82
921.72	226.82
922.02	226.83
922.32	226.86
922.63	226.88
922.93	226.92
923.23	226.95
923.53	226.92
923.83	226.88
924.13	226.93
924.44	226.90
924.74	226.93
925.04	226.92
925.34	226.86
925.64	226.81
925.94	226.79
926.24	226.85
926.55	226.83
926.85	226.86
927.15	226.82
927.45	226.86
927.75	226.86
928.05	226.88
928.35	226.89
928.65	226.91
928.95	226.94
929.26	226.94
929.56	226.95
929.86	226.95
930.16	226.93
930.46	226.90
930.76	226.91
931.06	226.88
931.36	226.87
931.66	226.90
931.96	226.92
932.26	226.95
932.56	226.92
932.86	226.92
933.16	226.89
933.46	226.89
933.76	226.88
934.06	226.90
934.36	226.92
934.66	226.90
934.96	226.88
935.26	226.84
935.56	226.83
935.86	226.80
936.16	226.81
936.46	226.81
936.76	226.83
937.06	226.85
937.36	226.83
937.66	226.84
937.96	226.86
938.26	226.84
938.56	226.83
938.86	226.83
939.16	226.84
939.46	226.85
939.76	226.87
940.06	226.87
940.35	226.84
940.65	226.79
940.95	226.80
941.25	226.78
941.55	226.78
941.85	226.78
942.15	226.81
942.45	226.84
942.75	226.83
943.04	226.82
943.34	226.83
943.64	226.80
943.94	226.79
944.24	226.80
944.54	226.79
944.84	226.79
945.13	226.77
945.43	226.78
945.73	226.77
946.03	226.75
946.33	226.74
946.62	226.73
946.92	226.76
947.22	226.77
947.52	226.78
947.82	226.83
948.11	226.80
948.41	226.75
948.71	226.69
949.01	226.68
949.31	226.69
949.60	226.70
949.90	226.75
950.20	226.74
950.50	226.70
950.79	226.72
951.09	226.75
951.39	226.76
951.69	226.72
951.98	226.74
952.28	226.76
952.58	226.77
952.87	226.78
953.17	226.80
953.47	226.77
953.76	226.75
954.06	226.70
954.36	226.68
954.66	226.69
954.95	226.73
955.25	226.75
955.55	226.74
955.84	226.70
956.14	226.70
956.44	226.70
956.73	226.72
957.03	226.72
957.32	226.70
957.62	226.71
957.92	226.74
958.21	226.73
958.51	226.81
958.81	226.80
959.10	226.82
959.40	226.80
959.69	226.82
959.99	226.83
960.29	226.84
960.58	226.83
960.88	226.89
961.17	226.85
961.47	226.82
961.76	226.79
962.06	226.79
962.36	226.79
962.65	226.80
962.95	226.79
963.24	226.73
963.54	226.73
963.83	226.69
964.13	226.70
964.42	226.65
964.72	226.59
965.01	226.57
965.31	226.54
965.60	226.52
965.90	226.55
966.19	226.52
966.49	226.54
966.78	226.54
967.08	226.49
967.37	226.52
967.67	226.54
967.96	226.55
968.26	226.57
968.55	226.56
968.85	226.55
969.14	226.50
969.43	226.54
969.73	226.52
970.02	226.50
970.32	226.49
970.61	226.49
970.91	226.45
971.20	226.45
971.49	226.45
971.79	226.46
972.08	226.43
972.38	226.46
972.67	226.42
972.96	226.45
973.26	226.44
973.55	226.44
973.85	226.40
974.14	226.43
974.43	226.42
974.73	226.40
975.02	226.37
975.31	226.43
975.61	226.42
975.90	226.41
976.19	226.40
976.49	226.39
976.78	226.41
977.07	226.43
977.37	226.44
977.66	226.45
977.95	226.43
978.24	226.43
978.54	226.42
978.83	226.43
979.12	226.45
979.42	226.46
979.71	226.49
980.00	226.51
980.29	226.51
980.59	226.51
980.88	226.54
981.17	226.58
981.46	226.57
981.76	226.59
982.05	226.64
982.34	226.67
982.63	226.67
982.93	226.69
983.22	226.71
983.51	226.72
983.80	226.74
984.09	226.80
984.39	226.79
984.68	226.80
984.97	226.82
985.26	226.78
985.55	226.78
985.85	226.74
986.14	226.77
986.43	226.77
986.72	226.79
987.01	226.76
987.30	226.73
987.59	226.74
987.89	226.74
988.18	226.72
988.47	226.73
988.76	226.75
989.05	226.73
989.34	226.71
989.63	226.76
989.92	226.72
990.22	226.68
990.51	226.66
990.80	226.67
991.09	226.67
991.38	226.72
991.67	226.72
991.96	226.75
992.25	226.74
992.54	226.73
992.83	226.73
993.12	226.74
993.41	226.77
993.70	226.78
993.99	226.80
994.28	226.82
994.58	226.83
994.87	226.79
995.16	226.83
995.45	226.81
995.74	226.75
996.03	226.78
996.32	226.75
996.61	226.81
996.90	226.79
997.19	226.78
997.48	226.74
997.77	226.73
998.06	226.68
998.34	226.67
998.63	226.66
998.92	226.66
999.21	226.66
999.50	226.66
999.79	226.62
1000.08	226.58
1000.37	226.57
1000.66	226.57
1000.95	226.62
1001.24	226.58
1001.53	226.61
1001.82	226.59
1002.11	226.57
1002.40	226.59
1002.68	226.59
1002.97	226.62
1003.26	226.62
1003.55	226.59
1003.84	226.60
1004.13	226.63
1004.42	226.65
1004.71	226.66
1004.99	226.60
1005.28	226.61
1005.57	226.56
1005.86	226.54
1006.15	226.57
1006.44	226.54
1006.72	226.53
1007.01	226.50
1007.30	226.52
1007.59	226.51
1007.88	226.52
1008.17	226.52
1008.45	226.52
1008.74	226.53
1009.03	226.53
1009.32	226.53
1009.60	226.54
1009.89	226.54
1010.18	226.54
1010.47	226.53
1010.76	226.51
1011.04	226.57
1011.33	226.58
1011.62	226.62
1011.91	226.65
1012.19	226.65
1012.48	226.68
1012.77	226.70
1013.05	226.77
1013.34	226.75
1013.63	226.74
1013.92	226.79
1014.20	226.80
1014.49	226.82
1014.78	226.80
1015.06	226.75
1015.35	226.78
1015.64	226.80
1015.92	226.81
1016.21	226.79
1016.50	226.78
1016.78	226.82
1017.07	226.82
1017.36	226.78
1017.64	226.78
1017.93	226.77
1018.22	226.80
1018.50	226.78
1018.79	226.75
1019.08	226.69
1019.36	226.70
1019.65	226.70
1019.93	226.73
1020.22	226.75
1020.51	226.77
1020.79	226.73
1021.08	227.60
1021.36	226.30
1021.65	226.40
1021.94	226.67
1022.22	226.52
1022.51	226.62
1022.79	227.92
1023.08	226.92
1023.36	227.56
1023.65	226.08
>>>>>End Processed Spectral Data<<<<<
