SpectraSuite Data File
++++++++++++++++++++++++++++++++++++
Date: Fri Feb 01 17:22:14 EST 2013
User: group
Dark Spectrum Present: No
Reference Spectrum Present: No
Number of Sampled Component Spectra: 1
Spectrometers: USB2E7196
Integration Time (usec): 35000 (USB2E7196)
Spectra Averaged: 100 (USB2E7196)
Boxcar Smoothing: 10 (USB2E7196)
Correct for Electrical Dark: No (USB2E7196)
Strobe/Lamp Enabled: No (USB2E7196)
Correct for Detector Non-linearity: No (USB2E7196)
Correct for Stray Light: No (USB2E7196)
Number of Pixels in Processed Spectrum: 2048
>>>>>Begin Processed Spectral Data<<<<<
339.09	0.00
339.48	213.01
339.86	214.71
340.24	215.65
340.63	216.68
341.01	220.19
341.39	219.77
341.78	221.45
342.16	222.83
342.54	222.66
342.93	211.47
343.31	222.14
343.69	222.69
344.07	223.14
344.46	223.56
344.84	223.95
345.22	224.14
345.60	224.40
345.99	224.57
346.37	224.70
346.75	224.81
347.13	224.90
347.52	224.94
347.90	225.02
348.28	225.04
348.66	225.09
349.05	225.05
349.43	225.08
349.81	225.12
350.19	225.15
350.57	225.24
350.96	225.28
351.34	225.36
351.72	225.43
352.10	225.53
352.48	225.60
352.87	225.67
353.25	225.79
353.63	225.85
354.01	225.93
354.39	225.99
354.77	226.05
355.15	226.14
355.54	226.21
355.92	226.21
356.30	226.28
356.68	226.41
357.06	226.49
357.44	226.56
357.82	226.60
358.20	226.68
358.58	226.69
358.97	226.79
359.35	226.89
359.73	226.94
360.11	226.98
360.49	227.05
360.87	227.09
361.25	227.12
361.63	227.16
362.01	227.17
362.39	227.19
362.77	227.24
363.15	227.23
363.53	227.25
363.91	227.28
364.29	227.30
364.67	227.20
365.05	227.22
365.43	227.21
365.81	227.23
366.19	227.30
366.57	227.35
366.95	227.33
367.33	227.28
367.71	227.27
368.09	227.27
368.47	227.20
368.85	227.17
369.23	227.16
369.61	227.12
369.99	227.16
370.37	227.13
370.75	227.11
371.13	227.07
371.51	227.01
371.89	226.97
372.27	226.92
372.65	226.92
373.03	226.86
373.41	226.81
373.78	226.76
374.16	226.64
374.54	226.55
374.92	226.48
375.30	226.45
375.68	226.38
376.06	226.31
376.44	226.26
376.82	226.21
377.19	226.15
377.57	226.10
377.95	225.99
378.33	225.94
378.71	225.81
379.09	225.75
379.47	225.75
379.84	225.72
380.22	225.67
380.60	225.59
380.98	225.52
381.36	225.46
381.73	225.39
382.11	225.31
382.49	225.28
382.87	225.20
383.25	225.14
383.62	225.23
384.00	225.20
384.38	225.16
384.76	225.18
385.13	225.15
385.51	225.11
385.89	225.05
386.27	225.00
386.64	225.03
387.02	225.01
387.40	224.94
387.78	224.88
388.15	224.81
388.53	224.77
388.91	224.70
389.29	224.67
389.66	224.67
390.04	224.69
390.42	224.70
390.79	224.71
391.17	224.71
391.55	224.61
391.92	224.60
392.30	224.60
392.68	224.53
393.05	224.57
393.43	224.55
393.81	224.56
394.18	224.55
394.56	224.52
394.94	224.53
395.31	224.53
395.69	224.61
396.06	224.68
396.44	224.70
396.82	224.76
397.19	224.80
397.57	224.81
397.95	224.87
398.32	224.88
398.70	224.90
399.07	224.93
399.45	224.94
399.82	224.98
400.20	225.02
400.58	225.08
400.95	225.06
401.33	225.15
401.70	225.31
402.08	225.40
402.45	225.51
402.83	225.62
403.20	225.74
403.58	225.77
403.95	225.86
404.33	225.98
404.71	226.10
405.08	226.31
405.46	226.46
405.83	226.55
406.21	226.67
406.58	226.86
406.96	227.00
407.33	227.18
407.70	227.39
408.08	227.66
408.45	227.89
408.83	228.17
409.20	228.38
409.58	228.53
409.95	228.79
410.33	229.06
410.70	229.30
411.08	229.61
411.45	229.94
411.82	230.29
412.20	230.63
412.57	231.07
412.95	231.36
413.32	231.76
413.69	232.20
414.07	232.64
414.44	233.09
414.82	233.63
415.19	234.19
415.56	234.73
415.94	235.31
416.31	236.01
416.68	236.63
417.06	237.35
417.43	238.08
417.81	238.84
418.18	239.66
418.55	240.52
418.93	241.39
419.30	242.31
419.67	243.25
420.04	244.25
420.42	245.26
420.79	246.50
421.16	247.68
421.54	248.92
421.91	250.19
422.28	251.52
422.66	252.85
423.03	254.20
423.40	255.56
423.77	256.99
424.15	258.42
424.52	259.99
424.89	261.66
425.26	263.25
425.64	264.80
426.01	266.43
426.38	268.15
426.75	269.88
427.13	271.69
427.50	273.53
427.87	275.51
428.24	277.43
428.61	279.23
428.99	281.27
429.36	283.43
429.73	285.58
430.10	287.70
430.47	289.83
430.85	292.00
431.22	294.32
431.59	296.83
431.96	299.13
432.33	301.63
432.70	304.12
433.08	307.04
433.45	309.75
433.82	312.43
434.19	315.45
434.56	318.37
434.93	321.11
435.30	323.82
435.68	326.80
436.05	329.73
436.42	332.60
436.79	335.19
437.16	337.95
437.53	340.88
437.90	343.73
438.27	346.55
438.64	349.45
439.01	352.17
439.38	354.49
439.75	356.79
440.13	359.41
440.50	361.84
440.87	363.76
441.24	365.78
441.61	368.05
441.98	369.62
442.35	371.49
442.72	373.43
443.09	375.33
443.46	376.39
443.83	377.01
444.20	377.58
444.57	378.44
444.94	378.77
445.31	379.14
445.68	379.54
446.05	379.68
446.42	379.38
446.79	378.96
447.16	378.47
447.53	378.14
447.90	377.00
448.27	375.79
448.64	374.20
449.01	373.04
449.37	371.00
449.74	369.04
450.11	366.70
450.48	364.13
450.85	361.55
451.22	359.34
451.59	357.30
451.96	355.32
452.33	352.73
452.70	350.35
453.07	347.44
453.43	344.46
453.80	341.61
454.17	338.88
454.54	336.26
454.91	333.50
455.28	330.74
455.65	328.13
456.02	325.66
456.38	323.40
456.75	320.63
457.12	318.28
457.49	315.95
457.86	313.74
458.23	311.81
458.59	309.70
458.96	307.52
459.33	305.55
459.70	303.59
460.07	301.96
460.43	300.17
460.80	298.49
461.17	296.95
461.54	295.40
461.91	293.86
462.27	292.32
462.64	290.99
463.01	289.63
463.38	288.30
463.74	286.81
464.11	285.63
464.48	284.61
464.85	283.48
465.21	282.61
465.58	281.65
465.95	280.53
466.32	279.58
466.68	278.68
467.05	277.75
467.42	276.84
467.78	275.87
468.15	274.94
468.52	274.27
468.88	273.42
469.25	272.61
469.62	271.96
469.98	271.30
470.35	270.66
470.72	270.03
471.08	269.37
471.45	268.85
471.82	268.25
472.18	267.61
472.55	267.16
472.92	266.62
473.28	266.16
473.65	265.72
474.02	265.27
474.38	264.84
474.75	264.52
475.11	264.19
475.48	263.92
475.85	263.70
476.21	263.44
476.58	263.28
476.94	263.14
477.31	262.99
477.67	262.82
478.04	262.74
478.41	262.69
478.77	262.70
479.14	262.59
479.50	262.66
479.87	262.72
480.23	262.80
480.60	262.88
480.96	262.99
481.33	263.19
481.69	263.38
482.06	263.55
482.42	263.77
482.79	263.98
483.15	264.27
483.52	264.62
483.88	264.96
484.25	265.31
484.61	265.72
484.98	266.15
485.34	266.70
485.71	267.27
486.07	267.87
486.44	268.43
486.80	269.16
487.17	269.84
487.53	270.65
487.90	271.51
488.26	272.43
488.62	273.40
488.99	274.33
489.35	275.38
489.72	276.56
490.08	277.76
490.44	279.03
490.81	280.36
491.17	281.74
491.54	283.22
491.90	284.79
492.26	286.44
492.63	288.15
492.99	289.91
493.36	291.75
493.72	293.79
494.08	295.89
494.45	298.13
494.81	300.47
495.17	302.91
495.54	305.44
495.90	308.09
496.26	310.87
496.63	313.82
496.99	316.91
497.35	320.11
497.72	323.48
498.08	326.96
498.44	330.60
498.80	334.51
499.17	338.51
499.53	342.64
499.89	346.96
500.26	351.39
500.62	356.02
500.98	360.96
501.34	365.96
501.71	371.19
502.07	376.58
502.43	382.13
502.79	387.88
503.16	393.88
503.52	400.08
503.88	406.44
504.24	413.03
504.60	419.79
504.97	426.82
505.33	434.04
505.69	441.66
506.05	449.33
506.41	457.06
506.78	465.07
507.14	473.38
507.50	481.93
507.86	490.87
508.22	499.90
508.59	508.89
508.95	518.29
509.31	527.98
509.67	537.87
510.03	548.03
510.39	558.42
510.75	569.01
511.12	579.72
511.48	590.72
511.84	601.93
512.20	613.21
512.56	624.88
512.92	636.82
513.28	648.89
513.64	661.17
514.00	673.66
514.37	686.38
514.73	699.10
515.09	711.88
515.45	724.87
515.81	738.21
516.17	752.04
516.53	765.89
516.89	779.73
517.25	793.61
517.61	807.69
517.97	821.75
518.33	835.79
518.69	850.27
519.05	864.87
519.41	879.72
519.77	894.96
520.13	910.06
520.49	925.16
520.85	940.15
521.21	955.41
521.57	971.23
521.93	986.57
522.29	1002.53
522.65	1018.45
523.01	1034.35
523.37	1050.00
523.73	1065.67
524.09	1081.36
524.45	1097.27
524.81	1113.41
525.17	1129.74
525.53	1146.19
525.89	1162.69
526.25	1179.16
526.61	1195.26
526.97	1211.52
527.33	1227.66
527.68	1243.88
528.04	1259.94
528.40	1276.16
528.76	1292.83
529.12	1308.93
529.48	1325.43
529.84	1341.01
530.20	1357.22
530.56	1373.73
530.91	1390.70
531.27	1407.16
531.63	1423.30
531.99	1439.59
532.35	1455.34
532.71	1470.94
533.07	1486.93
533.42	1502.64
533.78	1518.40
534.14	1534.30
534.50	1549.38
534.86	1564.79
535.21	1579.67
535.57	1595.20
535.93	1610.50
536.29	1625.06
536.65	1639.90
537.00	1654.42
537.36	1669.67
537.72	1683.93
538.08	1698.17
538.44	1711.77
538.79	1725.41
539.15	1738.73
539.51	1752.15
539.87	1766.22
540.22	1779.79
540.58	1793.21
540.94	1806.32
541.29	1818.91
541.65	1831.30
542.01	1844.41
542.37	1856.78
542.72	1869.17
543.08	1880.90
543.44	1893.15
543.79	1904.33
544.15	1915.37
544.51	1926.92
544.87	1937.79
545.22	1948.68
545.58	1958.82
545.94	1968.60
546.29	1978.52
546.65	1988.52
547.01	1997.83
547.36	2006.83
547.72	2015.43
548.07	2023.60
548.43	2031.74
548.79	2039.91
549.14	2047.84
549.50	2055.33
549.86	2062.98
550.21	2070.43
550.57	2077.79
550.92	2084.63
551.28	2091.77
551.64	2098.99
551.99	2105.68
552.35	2112.08
552.70	2118.36
553.06	2124.73
553.41	2131.15
553.77	2137.46
554.13	2143.74
554.48	2150.24
554.84	2156.04
555.19	2161.38
555.55	2166.79
555.90	2171.64
556.26	2176.85
556.61	2181.75
556.97	2186.48
557.32	2191.03
557.68	2195.45
558.03	2200.11
558.39	2203.92
558.74	2208.86
559.10	2213.04
559.45	2216.98
559.81	2221.49
560.16	2225.67
560.52	2229.11
560.87	2233.01
561.23	2235.90
561.58	2239.13
561.94	2241.99
562.29	2244.37
562.64	2247.64
563.00	2250.58
563.35	2254.42
563.71	2257.90
564.06	2261.49
564.42	2264.70
564.77	2267.59
565.12	2270.29
565.48	2272.61
565.83	2275.05
566.19	2276.97
566.54	2278.23
566.89	2279.75
567.25	2280.81
567.60	2282.49
567.96	2284.66
568.31	2285.93
568.66	2287.51
569.02	2288.36
569.37	2289.00
569.72	2290.41
570.08	2290.99
570.43	2291.33
570.78	2291.17
571.14	2289.99
571.49	2288.81
571.84	2288.75
572.20	2288.00
572.55	2287.33
572.90	2285.85
573.26	2284.80
573.61	2283.27
573.96	2282.01
574.31	2279.61
574.67	2277.03
575.02	2273.58
575.37	2270.44
575.72	2267.03
576.08	2263.83
576.43	2260.86
576.78	2257.72
577.13	2254.68
577.49	2251.68
577.84	2248.56
578.19	2245.10
578.54	2241.83
578.90	2238.19
579.25	2233.04
579.60	2228.41
579.95	2223.75
580.30	2219.19
580.66	2214.25
581.01	2209.56
581.36	2204.81
581.71	2201.01
582.06	2196.89
582.42	2192.89
582.77	2188.02
583.12	2183.71
583.47	2179.55
583.82	2174.99
584.17	2169.98
584.53	2164.76
584.88	2159.41
585.23	2154.02
585.58	2148.81
585.93	2143.62
586.28	2138.95
586.63	2134.18
586.98	2129.26
587.34	2124.64
587.69	2119.90
588.04	2114.94
588.39	2109.47
588.74	2103.16
589.09	2097.07
589.44	2090.63
589.79	2084.75
590.14	2079.29
590.49	2072.88
590.84	2066.45
591.19	2060.60
591.54	2054.31
591.89	2047.36
592.25	2041.00
592.60	2033.83
592.95	2026.64
593.30	2019.51
593.65	2012.00
594.00	2004.93
594.35	1997.94
594.70	1990.07
595.05	1983.33
595.40	1976.14
595.75	1968.99
596.10	1963.08
596.45	1956.59
596.80	1950.42
597.15	1943.91
597.50	1937.12
597.85	1930.87
598.19	1924.46
598.54	1917.74
598.89	1911.13
599.24	1905.39
599.59	1898.85
599.94	1892.72
600.29	1886.30
600.64	1879.70
600.99	1872.51
601.34	1865.83
601.69	1858.83
602.04	1852.12
602.39	1844.75
602.74	1838.01
603.08	1831.24
603.43	1824.55
603.78	1817.19
604.13	1809.93
604.48	1802.80
604.83	1795.97
605.18	1789.20
605.53	1781.28
605.87	1773.17
606.22	1765.93
606.57	1757.83
606.92	1750.26
607.27	1743.21
607.62	1736.39
607.96	1729.21
608.31	1722.74
608.66	1715.21
609.01	1707.82
609.36	1700.23
609.70	1692.08
610.05	1684.19
610.40	1676.41
610.75	1668.12
611.10	1660.48
611.44	1652.06
611.79	1643.98
612.14	1635.11
612.49	1625.74
612.83	1617.27
613.18	1609.00
613.53	1600.87
613.88	1592.30
614.22	1584.06
614.57	1575.35
614.92	1567.20
615.27	1559.60
615.61	1551.24
615.96	1543.07
616.31	1535.20
616.65	1527.73
617.00	1520.20
617.35	1512.30
617.70	1504.06
618.04	1495.47
618.39	1486.99
618.74	1479.37
619.08	1471.00
619.43	1463.31
619.78	1456.21
620.12	1449.01
620.47	1441.34
620.82	1433.09
621.16	1425.49
621.51	1417.77
621.85	1409.98
622.20	1401.40
622.55	1392.84
622.89	1384.77
623.24	1377.04
623.59	1369.48
623.93	1362.01
624.28	1354.59
624.62	1347.05
624.97	1339.72
625.32	1332.70
625.66	1325.70
626.01	1318.46
626.35	1311.00
626.70	1303.20
627.04	1295.46
627.39	1287.47
627.73	1279.94
628.08	1272.84
628.43	1265.69
628.77	1258.29
629.12	1250.76
629.46	1243.53
629.81	1236.00
630.15	1228.65
630.50	1221.23
630.84	1213.05
631.19	1204.90
631.53	1197.28
631.88	1189.60
632.22	1181.91
632.57	1174.55
632.91	1166.86
633.26	1159.32
633.60	1151.68
633.95	1144.37
634.29	1137.20
634.64	1130.50
634.98	1123.18
635.32	1116.02
635.67	1109.16
636.01	1102.36
636.36	1095.51
636.70	1088.83
637.05	1082.26
637.39	1075.79
637.73	1069.31
638.08	1063.40
638.42	1057.30
638.77	1050.92
639.11	1044.33
639.45	1037.91
639.80	1031.33
640.14	1024.99
640.49	1018.49
640.83	1012.23
641.17	1006.09
641.52	999.72
641.86	993.15
642.20	987.28
642.55	980.71
642.89	974.29
643.23	967.64
643.58	961.82
643.92	955.70
644.26	949.77
644.61	943.61
644.95	937.50
645.29	930.85
645.64	924.15
645.98	917.77
646.32	911.74
646.66	905.72
647.01	899.87
647.35	894.12
647.69	888.19
648.04	882.59
648.38	876.77
648.72	870.90
649.06	864.91
649.41	858.88
649.75	853.18
650.09	847.23
650.43	841.48
650.78	835.31
651.12	829.31
651.46	823.42
651.80	817.76
652.14	812.24
652.49	806.86
652.83	801.66
653.17	795.97
653.51	790.39
653.85	784.91
654.20	779.22
654.54	773.20
654.88	767.37
655.22	761.44
655.56	755.72
655.90	750.15
656.25	744.88
656.59	739.57
656.93	734.45
657.27	729.25
657.61	723.80
657.95	718.70
658.29	713.67
658.64	708.29
658.98	702.91
659.32	697.42
659.66	692.21
660.00	686.86
660.34	681.84
660.68	676.81
661.02	671.65
661.36	666.87
661.70	662.31
662.05	657.96
662.39	653.73
662.73	649.21
663.07	644.78
663.41	640.29
663.75	635.76
664.09	631.11
664.43	626.69
664.77	622.63
665.11	618.31
665.45	614.02
665.79	610.07
666.13	605.88
666.47	601.76
666.81	597.56
667.15	593.40
667.49	589.41
667.83	585.51
668.17	581.56
668.51	577.50
668.85	573.42
669.19	569.50
669.53	565.58
669.87	561.69
670.21	558.03
670.55	554.36
670.89	550.91
671.23	547.48
671.57	543.90
671.91	540.32
672.25	536.73
672.58	533.20
672.92	529.74
673.26	526.52
673.60	523.34
673.94	520.21
674.28	517.25
674.62	514.31
674.96	511.22
675.30	508.35
675.64	505.41
675.97	502.57
676.31	499.69
676.65	496.77
676.99	494.06
677.33	491.10
677.67	488.28
678.01	485.25
678.34	482.30
678.68	479.38
679.02	476.48
679.36	473.69
679.70	470.94
680.04	468.11
680.37	465.26
680.71	462.42
681.05	459.80
681.39	457.13
681.73	454.46
682.06	451.87
682.40	449.29
682.74	446.72
683.08	444.13
683.42	441.52
683.75	438.94
684.09	436.29
684.43	433.79
684.77	431.31
685.10	428.92
685.44	426.56
685.78	424.27
686.12	422.00
686.45	419.72
686.79	417.41
687.13	415.20
687.46	413.01
687.80	410.81
688.14	408.50
688.48	406.40
688.81	404.16
689.15	401.98
689.49	399.77
689.82	397.65
690.16	395.60
690.50	393.64
690.83	391.72
691.17	389.77
691.51	387.86
691.84	385.95
692.18	384.01
692.52	381.97
692.85	379.99
693.19	378.08
693.52	376.19
693.86	374.33
694.20	372.50
694.53	370.68
694.87	368.83
695.21	367.02
695.54	365.18
695.88	363.42
696.21	361.70
696.55	360.05
696.88	358.32
697.22	356.63
697.56	354.97
697.89	353.30
698.23	351.66
698.56	350.03
698.90	348.44
699.23	346.78
699.57	345.26
699.90	343.68
700.24	342.11
700.58	340.63
700.91	339.16
701.25	337.70
701.58	336.33
701.92	334.96
702.25	333.61
702.59	332.20
702.92	330.88
703.26	329.56
703.59	328.21
703.93	327.11
704.26	325.84
704.60	324.52
704.93	323.20
705.26	321.91
705.60	320.66
705.93	319.49
706.27	318.42
706.60	317.32
706.94	316.23
707.27	315.08
707.61	313.93
707.94	312.85
708.27	311.70
708.61	310.57
708.94	309.49
709.28	308.48
709.61	307.46
709.94	306.46
710.28	305.44
710.61	304.44
710.95	303.25
711.28	302.27
711.61	301.32
711.95	300.39
712.28	299.43
712.61	298.46
712.95	297.49
713.28	296.56
713.61	295.64
713.95	294.76
714.28	293.93
714.61	293.04
714.95	292.17
715.28	291.31
715.61	290.38
715.95	289.50
716.28	288.59
716.61	287.72
716.95	286.86
717.28	286.06
717.61	285.30
717.94	284.57
718.28	283.76
718.61	283.01
718.94	282.31
719.27	281.63
719.61	280.98
719.94	280.32
720.27	279.59
720.60	278.92
720.94	278.28
721.27	277.62
721.60	277.06
721.93	276.47
722.27	275.91
722.60	275.35
722.93	274.82
723.26	274.29
723.59	273.76
723.93	273.25
724.26	272.66
724.59	272.06
724.92	271.49
725.25	271.00
725.59	270.49
725.92	269.97
726.25	269.43
726.58	268.92
726.91	268.44
727.24	267.97
727.57	267.49
727.91	266.94
728.24	266.50
728.57	265.99
728.90	265.49
729.23	265.02
729.56	264.61
729.89	264.07
730.22	263.57
730.55	263.11
730.89	262.66
731.22	262.24
731.55	261.79
731.88	261.37
732.21	260.92
732.54	260.50
732.87	260.08
733.20	259.66
733.53	259.25
733.86	258.85
734.19	258.46
734.52	258.08
734.85	257.78
735.18	257.36
735.51	257.01
735.84	256.64
736.17	256.26
736.50	255.88
736.83	255.68
737.16	255.35
737.49	255.03
737.82	254.64
738.15	254.32
738.48	254.02
738.81	253.71
739.14	253.39
739.47	253.06
739.80	252.76
740.13	252.43
740.46	252.11
740.79	251.75
741.12	251.42
741.45	251.09
741.78	250.76
742.11	250.49
742.44	250.17
742.77	249.89
743.10	249.61
743.43	249.28
743.75	248.89
744.08	248.74
744.41	248.46
744.74	248.20
745.07	247.90
745.40	247.63
745.73	247.36
746.06	247.07
746.39	246.79
746.71	246.48
747.04	246.26
747.37	245.98
747.70	245.77
748.03	245.52
748.36	245.30
748.68	245.03
749.01	244.76
749.34	244.50
749.67	244.25
750.00	244.02
750.33	243.86
750.65	243.64
750.98	243.30
751.31	243.02
751.64	242.82
751.97	242.64
752.29	242.40
752.62	242.13
752.95	241.94
753.28	241.69
753.60	241.50
753.93	241.29
754.26	241.09
754.59	240.80
754.91	240.58
755.24	240.36
755.57	240.15
755.90	239.96
756.22	239.75
756.55	239.54
756.88	239.35
757.20	239.09
757.53	238.87
757.86	238.68
758.19	238.56
758.51	238.40
758.84	238.17
759.17	237.99
759.49	237.84
759.82	237.70
760.15	237.55
760.47	237.40
760.80	237.23
761.13	237.09
761.45	236.96
761.78	236.78
762.11	236.61
762.43	236.46
762.76	236.30
763.08	236.14
763.41	235.98
763.74	235.81
764.06	235.65
764.39	235.54
764.71	235.40
765.04	235.25
765.37	235.08
765.69	234.92
766.02	234.80
766.34	234.68
766.67	234.49
767.00	234.42
767.32	234.31
767.65	234.23
767.97	234.12
768.30	234.02
768.62	233.92
768.95	233.79
769.27	233.68
769.60	233.58
769.92	233.46
770.25	233.37
770.57	233.25
770.90	233.20
771.22	233.05
771.55	232.95
771.87	232.83
772.20	232.73
772.52	232.75
772.85	232.74
773.17	232.65
773.50	232.55
773.82	232.48
774.15	232.37
774.47	232.22
774.80	232.11
775.12	232.01
775.45	231.92
775.77	231.90
776.09	231.83
776.42	231.76
776.74	231.74
777.07	231.65
777.39	231.57
777.72	231.48
778.04	231.45
778.36	231.35
778.69	231.31
779.01	231.25
779.33	231.11
779.66	230.97
779.98	230.88
780.31	230.82
780.63	230.76
780.95	230.71
781.28	230.68
781.60	230.62
781.92	230.57
782.25	230.51
782.57	230.44
782.89	230.38
783.22	230.28
783.54	230.21
783.86	230.17
784.19	230.13
784.51	230.10
784.83	230.05
785.16	230.03
785.48	229.99
785.80	229.94
786.12	229.89
786.45	229.80
786.77	229.76
787.09	229.76
787.42	229.68
787.74	229.63
788.06	229.57
788.38	229.54
788.71	229.50
789.03	229.47
789.35	229.45
789.67	229.41
789.99	229.38
790.32	229.32
790.64	229.30
790.96	229.34
791.28	229.30
791.61	229.27
791.93	229.23
792.25	229.16
792.57	229.20
792.89	229.15
793.21	229.18
793.54	229.15
793.86	229.07
794.18	229.06
794.50	229.02
794.82	228.98
795.14	228.94
795.47	228.93
795.79	228.90
796.11	228.82
796.43	228.77
796.75	228.78
797.07	228.75
797.39	228.68
797.71	228.58
798.04	228.54
798.36	228.48
798.68	228.44
799.00	228.42
799.32	228.34
799.64	228.32
799.96	228.24
800.28	228.22
800.60	228.17
800.92	228.14
801.24	228.08
801.56	228.08
801.89	228.05
802.21	228.01
802.53	227.96
802.85	227.94
803.17	227.94
803.49	227.87
803.81	227.82
804.13	227.83
804.45	227.76
804.77	227.74
805.09	227.71
805.41	227.67
805.73	227.63
806.05	227.53
806.37	227.51
806.69	227.51
807.01	227.50
807.33	227.50
807.65	227.43
807.97	227.43
808.28	227.38
808.60	227.34
808.92	227.34
809.24	227.37
809.56	227.34
809.88	227.29
810.20	227.23
810.52	227.21
810.84	227.17
811.16	227.15
811.48	227.14
811.80	227.12
812.12	227.09
812.43	227.07
812.75	227.09
813.07	227.06
813.39	227.01
813.71	226.96
814.03	226.90
814.35	226.90
814.67	226.86
814.98	226.83
815.30	226.87
815.62	226.82
815.94	226.75
816.26	226.78
816.58	226.77
816.89	226.81
817.21	226.82
817.53	226.81
817.85	226.81
818.17	226.76
818.48	226.73
818.80	226.74
819.12	226.70
819.44	226.68
819.76	226.66
820.07	226.66
820.39	226.65
820.71	226.65
821.03	226.65
821.34	226.62
821.66	226.64
821.98	226.61
822.30	226.60
822.61	226.66
822.93	226.58
823.25	226.56
823.57	226.51
823.88	226.49
824.20	226.49
824.52	226.47
824.83	226.46
825.15	226.45
825.47	226.43
825.79	226.44
826.10	226.42
826.42	226.39
826.74	226.36
827.05	226.34
827.37	226.33
827.69	226.30
828.00	226.27
828.32	226.26
828.64	226.22
828.95	226.23
829.27	226.17
829.58	226.15
829.90	226.17
830.22	226.18
830.53	226.15
830.85	226.11
831.17	226.09
831.48	226.09
831.80	226.06
832.11	226.05
832.43	226.01
832.75	226.04
833.06	226.09
833.38	226.10
833.69	226.09
834.01	226.09
834.32	226.07
834.64	226.04
834.96	226.01
835.27	225.99
835.59	225.95
835.90	225.94
836.22	225.94
836.53	225.92
836.85	225.90
837.16	226.00
837.48	225.97
837.79	225.98
838.11	225.95
838.42	225.97
838.74	225.96
839.05	225.96
839.37	225.91
839.68	225.85
840.00	225.79
840.31	225.79
840.63	225.77
840.94	225.76
841.26	225.76
841.57	225.75
841.88	225.76
842.20	225.73
842.51	225.71
842.83	225.70
843.14	225.76
843.46	225.77
843.77	225.68
844.08	225.71
844.40	225.66
844.71	225.66
845.03	225.60
845.34	225.60
845.65	225.55
845.97	225.56
846.28	225.56
846.60	225.60
846.91	225.56
847.22	225.56
847.54	225.57
847.85	225.57
848.16	225.56
848.48	225.55
848.79	225.56
849.10	225.55
849.42	225.56
849.73	225.44
850.04	225.40
850.36	225.40
850.67	225.40
850.98	225.39
851.30	225.39
851.61	225.38
851.92	225.36
852.23	225.41
852.55	225.40
852.86	225.42
853.17	225.44
853.49	225.49
853.80	225.50
854.11	225.52
854.42	225.54
854.74	225.54
855.05	225.54
855.36	225.56
855.67	225.59
855.99	225.58
856.30	225.76
856.61	225.76
856.92	225.76
857.23	225.75
857.55	225.77
857.86	225.78
858.17	225.80
858.48	225.82
858.79	225.81
859.11	225.82
859.42	225.80
859.73	225.77
860.04	225.76
860.35	225.71
860.66	225.68
860.98	225.67
861.29	225.66
861.60	225.64
861.91	225.64
862.22	225.63
862.53	225.61
862.84	225.46
863.16	225.50
863.47	225.46
863.78	225.49
864.09	225.48
864.40	225.49
864.71	225.51
865.02	225.52
865.33	225.54
865.64	225.51
865.95	225.50
866.27	225.56
866.58	225.54
866.89	225.56
867.20	225.57
867.51	225.52
867.82	225.51
868.13	225.55
868.44	225.48
868.75	225.47
869.06	225.46
869.37	225.48
869.68	225.44
869.99	225.47
870.30	225.45
870.61	225.45
870.92	225.41
871.23	225.37
871.54	225.37
871.85	225.34
872.16	225.33
872.47	225.33
872.78	225.26
873.09	225.25
873.40	225.25
873.71	225.24
874.02	225.25
874.33	225.26
874.64	225.19
874.95	225.20
875.26	225.15
875.56	225.16
875.87	225.11
876.18	225.08
876.49	225.13
876.80	225.09
877.11	225.09
877.42	225.08
877.73	225.11
878.04	225.08
878.35	225.08
878.66	225.09
878.96	225.12
879.27	225.11
879.58	225.11
879.89	225.11
880.20	225.11
880.51	225.10
880.82	225.08
881.12	225.10
881.43	225.10
881.74	225.10
882.05	225.08
882.36	225.08
882.67	225.10
882.97	225.00
883.28	225.01
883.59	224.96
883.90	224.99
884.21	224.98
884.51	224.96
884.82	224.96
885.13	224.95
885.44	224.90
885.74	224.90
886.05	224.85
886.36	224.81
886.67	224.75
886.98	224.80
887.28	224.81
887.59	224.82
887.90	224.81
888.20	224.83
888.51	224.86
888.82	224.87
889.13	224.86
889.43	224.95
889.74	224.92
890.05	224.95
890.35	224.95
890.66	224.95
890.97	224.98
891.28	224.95
891.58	224.95
891.89	224.95
892.20	224.94
892.50	224.96
892.81	224.99
893.12	225.06
893.42	225.03
893.73	225.04
894.04	225.04
894.34	225.05
894.65	225.06
894.95	225.07
895.26	225.08
895.57	225.14
895.87	225.06
896.18	225.10
896.48	225.11
896.79	225.07
897.10	225.07
897.40	225.06
897.71	225.08
898.01	225.09
898.32	225.11
898.63	225.11
898.93	225.13
899.24	225.13
899.54	225.11
899.85	225.10
900.15	225.13
900.46	225.19
900.76	225.18
901.07	225.17
901.38	225.16
901.68	225.18
901.99	225.12
902.29	225.10
902.60	225.09
902.90	225.09
903.21	225.11
903.51	225.11
903.82	225.13
904.12	225.16
904.43	225.16
904.73	225.15
905.03	225.14
905.34	225.23
905.64	225.24
905.95	225.25
906.25	225.23
906.56	225.20
906.86	225.16
907.17	225.14
907.47	225.15
907.77	225.15
908.08	225.12
908.38	225.14
908.69	225.17
908.99	225.18
909.30	225.19
909.60	225.23
909.90	225.22
910.21	225.19
910.51	225.17
910.81	225.15
911.12	225.14
911.42	225.15
911.73	225.03
912.03	225.01
912.33	225.03
912.64	225.04
912.94	225.03
913.24	225.01
913.55	225.02
913.85	224.99
914.15	224.96
914.46	224.98
914.76	224.95
915.06	224.92
915.37	224.93
915.67	224.90
915.97	224.86
916.27	224.88
916.58	224.86
916.88	224.84
917.18	224.83
917.49	224.91
917.79	224.90
918.09	224.91
918.39	224.94
918.70	224.92
919.00	224.91
919.30	224.92
919.60	224.95
919.91	224.92
920.21	224.93
920.51	224.93
920.81	224.92
921.12	224.92
921.42	224.95
921.72	224.94
922.02	224.96
922.32	224.96
922.63	224.95
922.93	225.02
923.23	225.04
923.53	225.06
923.83	225.00
924.13	225.02
924.44	225.02
924.74	225.02
925.04	225.05
925.34	225.04
925.64	225.02
925.94	224.96
926.24	225.01
926.55	225.02
926.85	225.03
927.15	225.03
927.45	225.02
927.75	225.03
928.05	225.01
928.35	225.00
928.65	225.04
928.95	225.05
929.26	225.01
929.56	225.00
929.86	224.99
930.16	224.98
930.46	224.98
930.76	225.01
931.06	224.98
931.36	224.96
931.66	224.99
931.96	225.02
932.26	225.06
932.56	225.06
932.86	225.04
933.16	225.05
933.46	225.07
933.76	225.07
934.06	225.10
934.36	225.16
934.66	225.17
934.96	225.17
935.26	225.20
935.56	225.18
935.86	225.18
936.16	225.18
936.46	225.17
936.76	225.14
937.06	225.13
937.36	225.15
937.66	225.17
937.96	225.21
938.26	225.19
938.56	225.19
938.86	225.17
939.16	225.24
939.46	225.22
939.76	225.20
940.06	225.21
940.35	225.18
940.65	225.08
940.95	225.07
941.25	225.03
941.55	225.02
941.85	225.04
942.15	225.04
942.45	225.10
942.75	225.10
943.04	225.12
943.34	225.10
943.64	225.10
943.94	225.04
944.24	224.99
944.54	224.97
944.84	224.91
945.13	224.91
945.43	224.89
945.73	224.88
946.03	224.85
946.33	224.84
946.62	224.82
946.92	224.86
947.22	224.85
947.52	224.83
947.82	224.84
948.11	224.84
948.41	224.81
948.71	224.76
949.01	224.71
949.31	224.68
949.60	224.70
949.90	224.68
950.20	224.70
950.50	224.70
950.79	224.70
951.09	224.74
951.39	224.72
951.69	224.69
951.98	224.70
952.28	224.72
952.58	224.70
952.87	224.71
953.17	224.69
953.47	224.72
953.76	224.73
954.06	224.68
954.36	224.65
954.66	224.66
954.95	224.68
955.25	224.75
955.55	224.72
955.84	224.67
956.14	224.66
956.44	224.65
956.73	224.64
957.03	224.64
957.32	224.63
957.62	224.63
957.92	224.63
958.21	224.62
958.51	224.72
958.81	224.75
959.10	224.74
959.40	224.77
959.69	224.77
959.99	224.75
960.29	224.76
960.58	224.75
960.88	224.79
961.17	224.75
961.47	224.74
961.76	224.78
962.06	224.85
962.36	224.84
962.65	224.87
962.95	224.88
963.24	224.88
963.54	224.88
963.83	224.90
964.13	224.87
964.42	224.85
964.72	224.79
965.01	224.78
965.31	224.80
965.60	224.76
965.90	224.79
966.19	224.82
966.49	224.83
966.78	224.81
967.08	224.81
967.37	224.87
967.67	224.88
967.96	224.92
968.26	224.88
968.55	224.89
968.85	224.87
969.14	224.88
969.43	224.92
969.73	224.93
970.02	224.92
970.32	224.95
970.61	224.98
970.91	224.96
971.20	224.98
971.49	224.94
971.79	224.99
972.08	224.94
972.38	224.95
972.67	224.94
972.96	225.00
973.26	225.01
973.55	224.98
973.85	224.98
974.14	224.94
974.43	224.98
974.73	224.98
975.02	224.99
975.31	224.97
975.61	224.96
975.90	224.92
976.19	224.93
976.49	224.94
976.78	224.93
977.07	224.91
977.37	224.90
977.66	224.93
977.95	224.89
978.24	224.92
978.54	224.91
978.83	224.91
979.12	224.87
979.42	224.84
979.71	224.85
980.00	224.83
980.29	224.86
980.59	224.79
980.88	224.82
981.17	224.82
981.46	224.80
981.76	224.76
982.05	224.81
982.34	224.81
982.63	224.80
982.93	224.80
983.22	224.82
983.51	224.84
983.80	224.83
984.09	224.83
984.39	224.79
984.68	224.77
984.97	224.74
985.26	224.74
985.55	224.71
985.85	224.69
986.14	224.69
986.43	224.67
986.72	224.69
987.01	224.65
987.30	224.64
987.59	224.66
987.89	224.67
988.18	224.64
988.47	224.64
988.76	224.62
989.05	224.59
989.34	224.60
989.63	224.58
989.92	224.57
990.22	224.55
990.51	224.55
990.80	224.56
991.09	224.59
991.38	224.59
991.67	224.59
991.96	224.59
992.25	224.58
992.54	224.56
992.83	224.54
993.12	224.55
993.41	224.55
993.70	224.61
993.99	224.65
994.28	224.66
994.58	224.67
994.87	224.67
995.16	224.71
995.45	224.67
995.74	224.63
996.03	224.68
996.32	224.68
996.61	224.70
996.90	224.66
997.19	224.65
997.48	224.69
997.77	224.68
998.06	224.66
998.34	224.63
998.63	224.64
998.92	224.68
999.21	224.69
999.50	224.68
999.79	224.60
1000.08	224.61
1000.37	224.62
1000.66	224.58
1000.95	224.62
1001.24	224.60
1001.53	224.64
1001.82	224.67
1002.11	224.64
1002.40	224.66
1002.68	224.69
1002.97	224.78
1003.26	224.79
1003.55	224.74
1003.84	224.76
1004.13	224.81
1004.42	224.84
1004.71	224.83
1004.99	224.82
1005.28	224.84
1005.57	224.84
1005.86	224.85
1006.15	224.82
1006.44	224.80
1006.72	224.85
1007.01	224.83
1007.30	224.83
1007.59	224.82
1007.88	224.78
1008.17	224.78
1008.45	224.78
1008.74	224.72
1009.03	224.67
1009.32	224.68
1009.60	224.70
1009.89	224.66
1010.18	224.65
1010.47	224.64
1010.76	224.66
1011.04	224.66
1011.33	224.65
1011.62	224.69
1011.91	224.72
1012.19	224.71
1012.48	224.72
1012.77	224.75
1013.05	224.78
1013.34	224.80
1013.63	224.80
1013.92	224.82
1014.20	224.82
1014.49	224.81
1014.78	224.84
1015.06	224.82
1015.35	224.80
1015.64	224.81
1015.92	224.85
1016.21	224.83
1016.50	224.84
1016.78	224.85
1017.07	224.85
1017.36	224.83
1017.64	224.78
1017.93	224.79
1018.22	224.79
1018.50	224.77
1018.79	224.73
1019.08	224.69
1019.36	224.68
1019.65	224.67
1019.93	224.72
1020.22	224.73
1020.51	224.79
1020.79	224.76
1021.08	224.63
1021.36	224.58
1021.65	224.66
1021.94	224.90
1022.22	224.58
1022.51	224.58
1022.79	225.60
1023.08	224.93
1023.36	225.63
1023.65	224.33
>>>>>End Processed Spectral Data<<<<<
