SpectraSuite Data File
++++++++++++++++++++++++++++++++++++
Date: Fri Feb 01 16:13:08 EST 2013
User: group
Dark Spectrum Present: No
Reference Spectrum Present: No
Number of Sampled Component Spectra: 1
Spectrometers: USB2E7196
Integration Time (usec): 35000 (USB2E7196)
Spectra Averaged: 100 (USB2E7196)
Boxcar Smoothing: 10 (USB2E7196)
Correct for Electrical Dark: No (USB2E7196)
Strobe/Lamp Enabled: No (USB2E7196)
Correct for Detector Non-linearity: No (USB2E7196)
Correct for Stray Light: No (USB2E7196)
Number of Pixels in Processed Spectrum: 2048
>>>>>Begin Processed Spectral Data<<<<<
339.09	0.00
339.48	214.39
339.86	215.64
340.24	216.82
340.63	218.55
341.01	221.20
341.39	221.22
341.78	223.08
342.16	223.80
342.54	224.04
342.93	212.55
343.31	223.30
343.69	223.84
344.07	224.28
344.46	224.70
344.84	225.07
345.22	225.34
345.60	225.58
345.99	225.71
346.37	225.82
346.75	225.92
347.13	225.97
347.52	226.02
347.90	226.08
348.28	226.13
348.66	226.15
349.05	226.15
349.43	226.19
349.81	226.23
350.19	226.27
350.57	226.38
350.96	226.48
351.34	226.51
351.72	226.60
352.10	226.69
352.48	226.79
352.87	226.83
353.25	226.89
353.63	226.96
354.01	227.07
354.39	227.16
354.77	227.26
355.15	227.37
355.54	227.45
355.92	227.49
356.30	227.55
356.68	227.68
357.06	227.75
357.44	227.81
357.82	227.87
358.20	227.95
358.58	227.99
358.97	228.03
359.35	228.18
359.73	228.23
360.11	228.31
360.49	228.36
360.87	228.41
361.25	228.45
361.63	228.52
362.01	228.56
362.39	228.63
362.77	228.66
363.15	228.71
363.53	228.73
363.91	228.77
364.29	228.83
364.67	228.78
365.05	228.79
365.43	228.80
365.81	228.80
366.19	228.83
366.57	228.86
366.95	228.84
367.33	228.80
367.71	228.81
368.09	228.82
368.47	228.79
368.85	228.77
369.23	228.79
369.61	228.73
369.99	228.74
370.37	228.68
370.75	228.67
371.13	228.60
371.51	228.57
371.89	228.52
372.27	228.47
372.65	228.45
373.03	228.41
373.41	228.39
373.78	228.33
374.16	228.23
374.54	228.15
374.92	228.12
375.30	228.05
375.68	227.94
376.06	227.89
376.44	227.83
376.82	227.76
377.19	227.68
377.57	227.62
377.95	227.49
378.33	227.44
378.71	227.35
379.09	227.30
379.47	227.25
379.84	227.20
380.22	227.14
380.60	227.08
380.98	227.01
381.36	226.91
381.73	226.86
382.11	226.80
382.49	226.76
382.87	226.66
383.25	226.58
383.62	226.62
384.00	226.53
384.38	226.48
384.76	226.47
385.13	226.41
385.51	226.36
385.89	226.33
386.27	226.26
386.64	226.21
387.02	226.14
387.40	226.06
387.78	226.02
388.15	225.97
388.53	225.90
388.91	225.85
389.29	225.83
389.66	225.81
390.04	225.80
390.42	225.76
390.79	225.76
391.17	225.76
391.55	225.70
391.92	225.68
392.30	225.68
392.68	225.63
393.05	225.65
393.43	225.65
393.81	225.66
394.18	225.65
394.56	225.68
394.94	225.71
395.31	225.75
395.69	225.81
396.06	225.84
396.44	225.88
396.82	225.92
397.19	226.01
397.57	226.04
397.95	226.12
398.32	226.15
398.70	226.20
399.07	226.27
399.45	226.31
399.82	226.39
400.20	226.43
400.58	226.51
400.95	226.58
401.33	226.69
401.70	226.84
402.08	226.96
402.45	227.07
402.83	227.19
403.20	227.28
403.58	227.34
403.95	227.47
404.33	227.55
404.71	227.68
405.08	227.83
405.46	227.97
405.83	228.11
406.21	228.28
406.58	228.44
406.96	228.64
407.33	228.82
407.70	229.03
408.08	229.31
408.45	229.53
408.83	229.74
409.20	229.94
409.58	230.10
409.95	230.35
410.33	230.61
410.70	230.85
411.08	231.19
411.45	231.49
411.82	231.77
412.20	232.19
412.57	232.59
412.95	232.89
413.32	233.27
413.69	233.67
414.07	234.08
414.44	234.53
414.82	234.99
415.19	235.55
415.56	236.10
415.94	236.64
416.31	237.27
416.68	237.89
417.06	238.60
417.43	239.28
417.81	240.05
418.18	240.84
418.55	241.71
418.93	242.60
419.30	243.49
419.67	244.43
420.04	245.35
420.42	246.33
420.79	247.52
421.16	248.67
421.54	249.85
421.91	251.07
422.28	252.34
422.66	253.67
423.03	254.96
423.40	256.28
423.77	257.69
424.15	259.10
424.52	260.58
424.89	262.18
425.26	263.72
425.64	265.12
426.01	266.69
426.38	268.33
426.75	269.96
427.13	271.73
427.50	273.54
427.87	275.44
428.24	277.32
428.61	279.05
428.99	281.01
429.36	283.12
429.73	285.15
430.10	287.16
430.47	289.20
430.85	291.32
431.22	293.55
431.59	295.92
431.96	298.15
432.33	300.68
432.70	303.05
433.08	305.89
433.45	308.55
433.82	311.15
434.19	314.01
434.56	316.79
434.93	319.43
435.30	322.00
435.68	324.85
436.05	327.64
436.42	330.44
436.79	332.95
437.16	335.66
437.53	338.47
437.90	341.29
438.27	343.99
438.64	346.80
439.01	349.37
439.38	351.57
439.75	353.78
440.13	356.19
440.50	358.51
440.87	360.29
441.24	362.24
441.61	364.38
441.98	365.86
442.35	367.67
442.72	369.51
443.09	371.33
443.46	372.33
443.83	372.88
444.20	373.35
444.57	374.16
444.94	374.43
445.31	374.81
445.68	375.13
446.05	375.28
446.42	374.91
446.79	374.49
447.16	374.08
447.53	373.76
447.90	372.61
448.27	371.46
448.64	369.97
449.01	368.84
449.37	366.87
449.74	364.95
450.11	362.70
450.48	360.20
450.85	357.68
451.22	355.57
451.59	353.58
451.96	351.65
452.33	349.05
452.70	346.72
453.07	343.87
453.43	340.95
453.80	338.16
454.17	335.51
454.54	332.95
454.91	330.21
455.28	327.51
455.65	325.05
456.02	322.59
456.38	320.36
456.75	317.65
457.12	315.39
457.49	313.21
457.86	311.02
458.23	309.19
458.59	307.15
458.96	305.03
459.33	303.18
459.70	301.33
460.07	299.85
460.43	298.11
460.80	296.48
461.17	295.11
461.54	293.62
461.91	292.14
462.27	290.73
462.64	289.51
463.01	288.17
463.38	286.87
463.74	285.52
464.11	284.39
464.48	283.40
464.85	282.34
465.21	281.47
465.58	280.57
465.95	279.47
466.32	278.57
466.68	277.69
467.05	276.80
467.42	275.90
467.78	274.97
468.15	274.10
468.52	273.45
468.88	272.60
469.25	271.84
469.62	271.23
469.98	270.57
470.35	269.95
470.72	269.36
471.08	268.73
471.45	268.20
471.82	267.71
472.18	267.12
472.55	266.70
472.92	266.19
473.28	265.76
473.65	265.33
474.02	264.90
474.38	264.57
474.75	264.26
475.11	263.94
475.48	263.71
475.85	263.48
476.21	263.25
476.58	263.10
476.94	262.97
477.31	262.81
477.67	262.67
478.04	262.54
478.41	262.49
478.77	262.56
479.14	262.52
479.50	262.51
479.87	262.58
480.23	262.71
480.60	262.77
480.96	262.85
481.33	263.10
481.69	263.32
482.06	263.52
482.42	263.75
482.79	264.05
483.15	264.38
483.52	264.80
483.88	265.18
484.25	265.56
484.61	265.99
484.98	266.44
485.34	266.99
485.71	267.59
486.07	268.19
486.44	268.71
486.80	269.42
487.17	270.16
487.53	270.98
487.90	271.75
488.26	272.70
488.62	273.69
488.99	274.64
489.35	275.71
489.72	276.80
490.08	277.97
490.44	279.16
490.81	280.47
491.17	281.81
491.54	283.28
491.90	284.79
492.26	286.41
492.63	288.16
492.99	289.93
493.36	291.83
493.72	293.87
494.08	295.96
494.45	298.17
494.81	300.50
495.17	302.94
495.54	305.55
495.90	308.26
496.26	311.07
496.63	314.03
496.99	317.11
497.35	320.39
497.72	323.79
498.08	327.29
498.44	330.94
498.80	334.85
499.17	338.94
499.53	343.12
499.89	347.54
500.26	352.05
500.62	356.75
500.98	361.72
501.34	366.84
501.71	372.14
502.07	377.59
502.43	383.23
502.79	388.98
503.16	395.04
503.52	401.33
503.88	407.74
504.24	414.35
504.60	421.26
504.97	428.43
505.33	435.76
505.69	443.47
506.05	451.32
506.41	459.22
506.78	467.40
507.14	475.84
507.50	484.54
507.86	493.55
508.22	502.76
508.59	511.98
508.95	521.55
509.31	531.36
509.67	541.55
510.03	551.91
510.39	562.51
510.75	573.26
511.12	584.16
511.48	595.47
511.84	606.93
512.20	618.45
512.56	630.32
512.92	642.52
513.28	654.96
513.64	667.40
514.00	680.14
514.37	693.08
514.73	706.14
515.09	719.22
515.45	732.57
515.81	746.13
516.17	760.14
516.53	774.25
516.89	788.54
517.25	802.73
517.61	817.03
517.97	831.49
518.33	846.01
518.69	860.78
519.05	875.77
519.41	890.94
519.77	906.40
520.13	921.87
520.49	937.16
520.85	952.48
521.21	968.10
521.57	984.28
521.93	999.98
522.29	1016.36
522.65	1032.60
523.01	1048.75
523.37	1064.73
523.73	1080.83
524.09	1096.94
524.45	1113.12
524.81	1129.61
525.17	1146.49
525.53	1163.39
525.89	1180.11
526.25	1196.89
526.61	1213.31
526.97	1230.04
527.33	1246.52
527.68	1263.16
528.04	1279.64
528.40	1296.18
528.76	1313.27
529.12	1329.80
529.48	1346.58
529.84	1362.49
530.20	1378.96
530.56	1395.83
530.91	1413.22
531.27	1429.98
531.63	1446.37
531.99	1462.95
532.35	1478.93
532.71	1494.62
533.07	1510.75
533.42	1526.67
533.78	1542.69
534.14	1558.76
534.50	1573.96
534.86	1589.67
535.21	1604.77
535.57	1620.65
535.93	1636.02
536.29	1650.59
536.65	1665.54
537.00	1680.14
537.36	1695.36
537.72	1709.87
538.08	1724.31
538.44	1737.92
538.79	1751.67
539.15	1765.12
539.51	1778.76
539.87	1793.04
540.22	1806.76
540.58	1820.29
540.94	1833.37
541.29	1846.11
541.65	1858.73
542.01	1871.90
542.37	1884.15
542.72	1896.41
543.08	1908.13
543.44	1920.45
543.79	1931.72
544.15	1942.73
544.51	1954.39
544.87	1965.28
545.22	1976.03
545.58	1986.22
545.94	1996.15
546.29	2005.94
546.65	2015.75
547.01	2024.91
547.36	2033.50
547.72	2041.88
548.07	2049.92
548.43	2058.10
548.79	2065.99
549.14	2073.63
549.50	2080.91
549.86	2088.47
550.21	2095.76
550.57	2102.93
550.92	2109.65
551.28	2116.69
551.64	2123.71
551.99	2130.22
552.35	2136.52
552.70	2142.73
553.06	2148.65
553.41	2154.84
553.77	2160.75
554.13	2166.81
554.48	2173.03
554.84	2178.52
555.19	2183.73
555.55	2188.85
555.90	2193.29
556.26	2198.31
556.61	2202.90
556.97	2207.25
557.32	2211.47
557.68	2215.64
558.03	2219.80
558.39	2223.39
558.74	2227.99
559.10	2231.91
559.45	2235.47
559.81	2239.51
560.16	2243.20
560.52	2246.33
560.87	2249.69
561.23	2252.45
561.58	2255.47
561.94	2257.97
562.29	2260.18
562.64	2262.98
563.00	2265.50
563.35	2269.13
563.71	2272.18
564.06	2275.31
564.42	2278.19
564.77	2281.00
565.12	2283.26
565.48	2285.36
565.83	2287.23
566.19	2288.75
566.54	2289.59
566.89	2290.90
567.25	2291.67
567.60	2292.92
567.96	2294.72
568.31	2295.61
568.66	2296.84
569.02	2297.29
569.37	2297.73
569.72	2298.89
570.08	2299.14
570.43	2299.28
570.78	2298.97
571.14	2297.54
571.49	2296.20
571.84	2295.85
572.20	2294.48
572.55	2293.54
572.90	2291.86
573.26	2290.46
573.61	2288.54
573.96	2286.99
574.31	2283.96
574.67	2281.07
575.02	2277.56
575.37	2274.14
575.72	2270.44
576.08	2266.93
576.43	2263.78
576.78	2260.09
577.13	2256.77
577.49	2253.51
577.84	2249.99
578.19	2246.03
578.54	2242.48
578.90	2238.38
579.25	2232.82
579.60	2228.10
579.95	2223.04
580.30	2218.08
580.66	2212.90
581.01	2208.10
581.36	2203.03
581.71	2198.99
582.06	2194.59
582.42	2190.15
582.77	2185.10
583.12	2180.55
583.47	2176.05
583.82	2171.13
584.17	2166.02
584.53	2160.57
584.88	2155.15
585.23	2149.55
585.58	2144.12
585.93	2138.58
586.28	2133.67
586.63	2128.76
586.98	2123.64
587.34	2118.91
587.69	2113.99
588.04	2108.85
588.39	2103.20
588.74	2096.68
589.09	2090.52
589.44	2083.80
589.79	2077.66
590.14	2071.97
590.49	2065.26
590.84	2058.85
591.19	2052.72
591.54	2046.09
591.89	2038.97
592.25	2032.15
592.60	2024.87
592.95	2017.35
593.30	2010.09
593.65	2002.62
594.00	1995.44
594.35	1988.22
594.70	1980.27
595.05	1973.15
595.40	1965.93
595.75	1958.48
596.10	1952.48
596.45	1945.82
596.80	1939.60
597.15	1933.12
597.50	1926.20
597.85	1919.99
598.19	1913.42
598.54	1906.52
598.89	1900.01
599.24	1893.92
599.59	1887.34
599.94	1881.13
600.29	1874.66
600.64	1868.05
600.99	1860.78
601.34	1854.01
601.69	1846.96
602.04	1840.00
602.39	1832.77
602.74	1825.91
603.08	1819.17
603.43	1812.33
603.78	1804.91
604.13	1797.67
604.48	1790.46
604.83	1783.48
605.18	1776.62
605.53	1768.58
605.87	1760.45
606.22	1753.21
606.57	1745.29
606.92	1737.81
607.27	1730.85
607.62	1724.16
607.96	1717.01
608.31	1710.47
608.66	1703.00
609.01	1695.63
609.36	1688.26
609.70	1680.17
610.05	1672.10
610.40	1664.51
610.75	1656.28
611.10	1648.74
611.44	1640.31
611.79	1632.29
612.14	1623.69
612.49	1614.33
612.83	1605.92
613.18	1597.86
613.53	1589.63
613.88	1581.21
614.22	1573.09
614.57	1564.32
614.92	1556.31
615.27	1548.74
615.61	1540.36
615.96	1532.24
616.31	1524.45
616.65	1516.94
617.00	1509.37
617.35	1501.76
617.70	1493.48
618.04	1484.92
618.39	1476.74
618.74	1469.32
619.08	1460.89
619.43	1453.26
619.78	1446.32
620.12	1439.31
620.47	1431.77
620.82	1423.66
621.16	1416.09
621.51	1408.41
621.85	1400.72
622.20	1392.10
622.55	1383.77
622.89	1375.90
623.24	1368.31
623.59	1360.95
623.93	1353.52
624.28	1346.39
624.62	1339.00
624.97	1331.83
625.32	1325.13
625.66	1317.97
626.01	1310.75
626.35	1303.54
626.70	1295.83
627.04	1288.24
627.39	1280.42
627.73	1272.97
628.08	1266.06
628.43	1258.95
628.77	1251.63
629.12	1244.15
629.46	1237.05
629.81	1229.49
630.15	1222.23
630.50	1214.90
630.84	1206.74
631.19	1198.72
631.53	1191.10
631.88	1183.50
632.22	1175.75
632.57	1168.42
632.91	1160.93
633.26	1153.45
633.60	1145.92
633.95	1138.73
634.29	1131.63
634.64	1124.89
634.98	1117.65
635.32	1110.55
635.67	1103.82
636.01	1097.13
636.36	1090.30
636.70	1083.69
637.05	1077.12
637.39	1070.73
637.73	1064.16
638.08	1058.17
638.42	1052.19
638.77	1045.81
639.11	1039.22
639.45	1032.86
639.80	1026.17
640.14	1019.72
640.49	1013.24
640.83	1007.02
641.17	1000.87
641.52	994.57
641.86	987.95
642.20	982.01
642.55	975.66
642.89	969.20
643.23	962.60
643.58	956.84
643.92	950.66
644.26	944.74
644.61	938.54
644.95	932.58
645.29	926.10
645.64	919.38
645.98	912.98
646.32	907.07
646.66	900.96
647.01	895.11
647.35	889.44
647.69	883.50
648.04	877.79
648.38	871.96
648.72	865.96
649.06	860.09
649.41	854.14
649.75	848.17
650.09	842.25
650.43	836.54
650.78	830.42
651.12	824.52
651.46	818.78
651.80	813.17
652.14	807.71
652.49	802.31
652.83	797.12
653.17	791.49
653.51	785.76
653.85	780.41
654.20	774.83
654.54	768.81
654.88	763.08
655.22	757.33
655.56	751.63
655.90	746.14
656.25	740.86
656.59	735.50
656.93	730.40
657.27	725.29
657.61	719.85
657.95	714.68
658.29	709.60
658.64	704.28
658.98	698.91
659.32	693.46
659.66	688.31
660.00	683.04
660.34	678.09
660.68	673.14
661.02	668.13
661.36	663.44
661.70	658.94
662.05	654.62
662.39	650.27
662.73	645.84
663.07	641.47
663.41	637.05
663.75	632.67
664.09	628.16
664.43	623.66
664.77	619.60
665.11	615.44
665.45	611.26
665.79	607.20
666.13	603.10
666.47	599.01
666.81	594.80
667.15	590.68
667.49	586.73
667.83	582.93
668.17	578.96
668.51	574.84
668.85	570.72
669.19	566.84
669.53	563.01
669.87	559.15
670.21	555.48
670.55	551.74
670.89	548.29
671.23	544.77
671.57	541.27
671.91	537.67
672.25	534.11
672.58	530.59
672.92	527.13
673.26	523.95
673.60	520.74
673.94	517.66
674.28	514.72
674.62	511.79
674.96	508.73
675.30	505.86
675.64	502.96
675.97	500.25
676.31	497.41
676.65	494.43
676.99	491.62
677.33	488.74
677.67	485.98
678.01	482.96
678.34	480.03
678.68	477.14
679.02	474.30
679.36	471.56
679.70	468.84
680.04	466.11
680.37	463.21
680.71	460.46
681.05	457.80
681.39	455.11
681.73	452.43
682.06	449.83
682.40	447.25
682.74	444.72
683.08	442.09
683.42	439.44
683.75	437.00
684.09	434.50
684.43	432.03
684.77	429.53
685.10	427.13
685.44	424.82
685.78	422.54
686.12	420.26
686.45	417.94
686.79	415.65
687.13	413.43
687.46	411.27
687.80	409.06
688.14	406.84
688.48	404.75
688.81	402.54
689.15	400.40
689.49	398.22
689.82	396.09
690.16	394.02
690.50	392.04
690.83	390.08
691.17	388.05
691.51	386.14
691.84	384.31
692.18	382.40
692.52	380.46
692.85	378.50
693.19	376.63
693.52	374.78
693.86	372.89
694.20	371.11
694.53	369.33
694.87	367.51
695.21	365.71
695.54	363.88
695.88	362.12
696.21	360.40
696.55	358.69
696.88	356.98
697.22	355.35
697.56	353.74
697.89	352.08
698.23	350.53
698.56	348.98
698.90	347.36
699.23	345.74
699.57	344.19
699.90	342.65
700.24	341.09
700.58	339.63
700.91	338.17
701.25	336.72
701.58	335.35
701.92	333.97
702.25	332.59
702.59	331.25
702.92	329.95
703.26	328.66
703.59	327.40
703.93	326.26
704.26	325.00
704.60	323.70
704.93	322.41
705.26	321.11
705.60	319.88
705.93	318.75
706.27	317.68
706.60	316.62
706.94	315.57
707.27	314.49
707.61	313.37
707.94	312.36
708.27	311.28
708.61	310.20
708.94	309.18
709.28	308.22
709.61	307.24
709.94	306.32
710.28	305.26
710.61	304.29
710.95	303.20
711.28	302.31
711.61	301.35
711.95	300.49
712.28	299.56
712.61	298.59
712.95	297.63
713.28	296.74
713.61	295.75
713.95	294.84
714.28	294.00
714.61	293.17
714.95	292.32
715.28	291.49
715.61	290.61
715.95	289.78
716.28	288.88
716.61	288.03
716.95	287.19
717.28	286.46
717.61	285.72
717.94	284.97
718.28	284.17
718.61	283.49
718.94	282.77
719.27	282.13
719.61	281.49
719.94	280.83
720.27	280.12
720.60	279.51
720.94	278.89
721.27	278.27
721.60	277.66
721.93	277.05
722.27	276.47
722.60	275.91
722.93	275.34
723.26	274.83
723.59	274.33
723.93	273.79
724.26	273.25
724.59	272.68
724.92	272.20
725.25	271.70
725.59	271.16
725.92	270.67
726.25	270.14
726.58	269.63
726.91	269.14
727.24	268.67
727.57	268.20
727.91	267.72
728.24	267.24
728.57	266.73
728.90	266.24
729.23	265.79
729.56	265.36
729.89	264.87
730.22	264.39
730.55	263.90
730.89	263.46
731.22	263.01
731.55	262.58
731.88	262.12
732.21	261.67
732.54	261.26
732.87	260.82
733.20	260.41
733.53	260.03
733.86	259.69
734.19	259.31
734.52	258.93
734.85	258.62
735.18	258.19
735.51	257.86
735.84	257.49
736.17	257.13
736.50	256.73
736.83	256.52
737.16	256.18
737.49	255.84
737.82	255.50
738.15	255.17
738.48	254.83
738.81	254.53
739.14	254.21
739.47	253.86
739.80	253.55
740.13	253.24
740.46	252.93
740.79	252.59
741.12	252.28
741.45	251.96
741.78	251.58
742.11	251.33
742.44	251.03
742.77	250.77
743.10	250.47
743.43	250.18
743.75	249.80
744.08	249.65
744.41	249.42
744.74	249.14
745.07	248.84
745.40	248.60
745.73	248.37
746.06	248.12
746.39	247.86
746.71	247.59
747.04	247.31
747.37	247.02
747.70	246.75
748.03	246.48
748.36	246.23
748.68	246.02
749.01	245.78
749.34	245.54
749.67	245.32
750.00	245.09
750.33	244.95
750.65	244.73
750.98	244.36
751.31	244.11
751.64	243.90
751.97	243.76
752.29	243.51
752.62	243.25
752.95	243.06
753.28	242.87
753.60	242.68
753.93	242.50
754.26	242.29
754.59	242.06
754.91	241.85
755.24	241.67
755.57	241.48
755.90	241.27
756.22	241.08
756.55	240.85
756.88	240.66
757.20	240.44
757.53	240.24
757.86	240.09
758.19	239.96
758.51	239.77
758.84	239.53
759.17	239.37
759.49	239.22
759.82	239.09
760.15	238.90
760.47	238.74
760.80	238.59
761.13	238.50
761.45	238.37
761.78	238.22
762.11	238.09
762.43	237.95
762.76	237.83
763.08	237.70
763.41	237.55
763.74	237.43
764.06	237.28
764.39	237.14
764.71	236.98
765.04	236.81
765.37	236.73
765.69	236.65
766.02	236.53
766.34	236.41
766.67	236.24
767.00	236.18
767.32	236.07
767.65	236.02
767.97	235.92
768.30	235.83
768.62	235.74
768.95	235.61
769.27	235.49
769.60	235.38
769.92	235.29
770.25	235.19
770.57	235.05
770.90	234.99
771.22	234.90
771.55	234.80
771.87	234.72
772.20	234.58
772.52	234.55
772.85	234.58
773.17	234.47
773.50	234.37
773.82	234.30
774.15	234.17
774.47	234.02
774.80	233.92
775.12	233.81
775.45	233.72
775.77	233.63
776.09	233.56
776.42	233.49
776.74	233.41
777.07	233.36
777.39	233.30
777.72	233.21
778.04	233.13
778.36	233.07
778.69	233.01
779.01	232.98
779.33	232.81
779.66	232.62
779.98	232.52
780.31	232.50
780.63	232.40
780.95	232.39
781.28	232.33
781.60	232.26
781.92	232.20
782.25	232.13
782.57	232.10
782.89	232.06
783.22	231.99
783.54	231.93
783.86	231.87
784.19	231.80
784.51	231.75
784.83	231.65
785.16	231.58
785.48	231.49
785.80	231.42
786.12	231.36
786.45	231.32
786.77	231.29
787.09	231.20
787.42	231.15
787.74	231.09
788.06	231.00
788.38	230.89
788.71	230.84
789.03	230.80
789.35	230.78
789.67	230.69
789.99	230.68
790.32	230.59
790.64	230.53
790.96	230.55
791.28	230.48
791.61	230.46
791.93	230.41
792.25	230.38
792.57	230.40
792.89	230.33
793.21	230.29
793.54	230.23
793.86	230.18
794.18	230.14
794.50	230.10
794.82	230.09
795.14	230.11
795.47	230.08
795.79	230.03
796.11	229.94
796.43	229.85
796.75	229.78
797.07	229.75
797.39	229.72
797.71	229.63
798.04	229.59
798.36	229.56
798.68	229.53
799.00	229.47
799.32	229.40
799.64	229.41
799.96	229.39
800.28	229.37
800.60	229.33
800.92	229.28
801.24	229.19
801.56	229.17
801.89	229.16
802.21	229.13
802.53	229.10
802.85	229.10
803.17	229.18
803.49	229.12
803.81	229.07
804.13	229.03
804.45	228.99
804.77	228.99
805.09	228.95
805.41	228.92
805.73	228.90
806.05	228.82
806.37	228.80
806.69	228.74
807.01	228.69
807.33	228.67
807.65	228.65
807.97	228.69
808.28	228.66
808.60	228.59
808.92	228.55
809.24	228.58
809.56	228.53
809.88	228.44
810.20	228.44
810.52	228.46
810.84	228.46
811.16	228.42
811.48	228.41
811.80	228.45
812.12	228.45
812.43	228.43
812.75	228.39
813.07	228.37
813.39	228.37
813.71	228.36
814.03	228.35
814.35	228.35
814.67	228.27
814.98	228.25
815.30	228.25
815.62	228.20
815.94	228.14
816.26	228.20
816.58	228.19
816.89	228.18
817.21	228.18
817.53	228.15
817.85	228.15
818.17	228.09
818.48	228.02
818.80	228.01
819.12	228.01
819.44	228.05
819.76	227.98
820.07	227.96
820.39	227.94
820.71	227.94
821.03	227.91
821.34	227.93
821.66	227.93
821.98	227.94
822.30	227.95
822.61	227.97
822.93	227.88
823.25	227.86
823.57	227.82
823.88	227.77
824.20	227.77
824.52	227.75
824.83	227.74
825.15	227.72
825.47	227.69
825.79	227.68
826.10	227.64
826.42	227.62
826.74	227.62
827.05	227.61
827.37	227.58
827.69	227.59
828.00	227.54
828.32	227.50
828.64	227.40
828.95	227.48
829.27	227.49
829.58	227.47
829.90	227.46
830.22	227.46
830.53	227.45
830.85	227.40
831.17	227.40
831.48	227.38
831.80	227.41
832.11	227.38
832.43	227.37
832.75	227.36
833.06	227.41
833.38	227.34
833.69	227.30
834.01	227.28
834.32	227.25
834.64	227.26
834.96	227.21
835.27	227.24
835.59	227.15
835.90	227.12
836.22	227.13
836.53	227.10
836.85	227.09
837.16	227.16
837.48	227.17
837.79	227.17
838.11	227.17
838.42	227.13
838.74	227.12
839.05	227.10
839.37	227.10
839.68	227.06
840.00	227.12
840.31	227.16
840.63	227.17
840.94	227.14
841.26	227.11
841.57	227.16
841.88	227.17
842.20	227.18
842.51	227.11
842.83	227.14
843.14	227.26
843.46	227.27
843.77	227.23
844.08	227.25
844.40	227.25
844.71	227.27
845.03	227.24
845.34	227.28
845.65	227.26
845.97	227.26
846.28	227.25
846.60	227.22
846.91	227.21
847.22	227.20
847.54	227.25
847.85	227.28
848.16	227.25
848.48	227.25
848.79	227.29
849.10	227.35
849.42	227.32
849.73	227.21
850.04	227.22
850.36	227.19
850.67	227.21
850.98	227.22
851.30	227.21
851.61	227.23
851.92	227.23
852.23	227.28
852.55	227.30
852.86	227.34
853.17	227.35
853.49	227.34
853.80	227.34
854.11	227.32
854.42	227.35
854.74	227.38
855.05	227.38
855.36	227.31
855.67	227.32
855.99	227.32
856.30	227.44
856.61	227.42
856.92	227.42
857.23	227.40
857.55	227.41
857.86	227.40
858.17	227.40
858.48	227.36
858.79	227.35
859.11	227.34
859.42	227.30
859.73	227.31
860.04	227.29
860.35	227.27
860.66	227.23
860.98	227.20
861.29	227.16
861.60	227.15
861.91	227.17
862.22	227.14
862.53	227.12
862.84	227.02
863.16	227.04
863.47	226.98
863.78	226.96
864.09	226.91
864.40	226.92
864.71	226.91
865.02	226.92
865.33	226.90
865.64	226.85
865.95	226.83
866.27	226.87
866.58	226.90
866.89	226.89
867.20	226.89
867.51	226.86
867.82	226.83
868.13	226.86
868.44	226.83
868.75	226.84
869.06	226.83
869.37	226.78
869.68	226.73
869.99	226.77
870.30	226.76
870.61	226.75
870.92	226.73
871.23	226.72
871.54	226.71
871.85	226.68
872.16	226.70
872.47	226.70
872.78	226.63
873.09	226.58
873.40	226.57
873.71	226.58
874.02	226.60
874.33	226.59
874.64	226.55
874.95	226.57
875.26	226.53
875.56	226.51
875.87	226.53
876.18	226.51
876.49	226.60
876.80	226.59
877.11	226.57
877.42	226.59
877.73	226.60
878.04	226.59
878.35	226.60
878.66	226.56
878.96	226.56
879.27	226.54
879.58	226.59
879.89	226.56
880.20	226.60
880.51	226.56
880.82	226.54
881.12	226.56
881.43	226.54
881.74	226.56
882.05	226.56
882.36	226.57
882.67	226.60
882.97	226.49
883.28	226.46
883.59	226.46
883.90	226.45
884.21	226.45
884.51	226.46
884.82	226.49
885.13	226.52
885.44	226.54
885.74	226.57
886.05	226.56
886.36	226.58
886.67	226.54
886.98	226.61
887.28	226.63
887.59	226.64
887.90	226.65
888.20	226.63
888.51	226.69
888.82	226.68
889.13	226.69
889.43	226.79
889.74	226.85
890.05	226.87
890.35	226.87
890.66	226.90
890.97	226.92
891.28	226.92
891.58	226.94
891.89	226.93
892.20	226.91
892.50	226.93
892.81	226.93
893.12	226.94
893.42	226.92
893.73	226.94
894.04	226.95
894.34	226.95
894.65	226.95
894.95	226.88
895.26	226.92
895.57	226.97
895.87	226.88
896.18	226.84
896.48	226.85
896.79	226.86
897.10	226.84
897.40	226.79
897.71	226.78
898.01	226.77
898.32	226.77
898.63	226.77
898.93	226.74
899.24	226.75
899.54	226.74
899.85	226.76
900.15	226.74
900.46	226.72
900.76	226.74
901.07	226.75
901.38	226.80
901.68	226.77
901.99	226.71
902.29	226.70
902.60	226.68
902.90	226.66
903.21	226.66
903.51	226.62
903.82	226.66
904.12	226.67
904.43	226.64
904.73	226.67
905.03	226.64
905.34	226.71
905.64	226.68
905.95	226.66
906.25	226.62
906.56	226.64
906.86	226.63
907.17	226.58
907.47	226.58
907.77	226.54
908.08	226.51
908.38	226.51
908.69	226.51
908.99	226.49
909.30	226.48
909.60	226.46
909.90	226.46
910.21	226.38
910.51	226.35
910.81	226.37
911.12	226.31
911.42	226.32
911.73	226.22
912.03	226.24
912.33	226.25
912.64	226.24
912.94	226.21
913.24	226.20
913.55	226.21
913.85	226.19
914.15	226.21
914.46	226.21
914.76	226.22
915.06	226.21
915.37	226.22
915.67	226.21
915.97	226.19
916.27	226.20
916.58	226.24
916.88	226.23
917.18	226.19
917.49	226.27
917.79	226.25
918.09	226.24
918.39	226.26
918.70	226.25
919.00	226.25
919.30	226.28
919.60	226.25
919.91	226.22
920.21	226.25
920.51	226.25
920.81	226.28
921.12	226.30
921.42	226.29
921.72	226.31
922.02	226.32
922.32	226.34
922.63	226.34
922.93	226.41
923.23	226.44
923.53	226.43
923.83	226.41
924.13	226.43
924.44	226.48
924.74	226.49
925.04	226.53
925.34	226.52
925.64	226.52
925.94	226.55
926.24	226.60
926.55	226.57
926.85	226.54
927.15	226.52
927.45	226.52
927.75	226.54
928.05	226.52
928.35	226.53
928.65	226.57
928.95	226.58
929.26	226.53
929.56	226.55
929.86	226.59
930.16	226.57
930.46	226.57
930.76	226.55
931.06	226.52
931.36	226.48
931.66	226.54
931.96	226.51
932.26	226.52
932.56	226.50
932.86	226.54
933.16	226.57
933.46	226.55
933.76	226.55
934.06	226.55
934.36	226.60
934.66	226.58
934.96	226.57
935.26	226.57
935.56	226.59
935.86	226.53
936.16	226.52
936.46	226.49
936.76	226.47
937.06	226.48
937.36	226.51
937.66	226.52
937.96	226.48
938.26	226.46
938.56	226.44
938.86	226.44
939.16	226.45
939.46	226.46
939.76	226.46
940.06	226.44
940.35	226.42
940.65	226.34
940.95	226.34
941.25	226.29
941.55	226.28
941.85	226.27
942.15	226.31
942.45	226.33
942.75	226.33
943.04	226.32
943.34	226.32
943.64	226.29
943.94	226.27
944.24	226.25
944.54	226.26
944.84	226.26
945.13	226.22
945.43	226.16
945.73	226.15
946.03	226.13
946.33	226.13
946.62	226.12
946.92	226.14
947.22	226.11
947.52	226.11
947.82	226.10
948.11	226.04
948.41	226.01
948.71	225.99
949.01	225.99
949.31	225.98
949.60	225.95
949.90	225.95
950.20	225.96
950.50	225.96
950.79	225.96
951.09	225.95
951.39	225.96
951.69	225.95
951.98	225.96
952.28	225.97
952.58	225.96
952.87	226.00
953.17	225.99
953.47	226.00
953.76	226.02
954.06	226.00
954.36	226.05
954.66	226.02
954.95	226.06
955.25	226.07
955.55	226.11
955.84	226.10
956.14	226.09
956.44	226.09
956.73	226.06
957.03	226.05
957.32	226.09
957.62	226.12
957.92	226.16
958.21	226.16
958.51	226.24
958.81	226.27
959.10	226.23
959.40	226.27
959.69	226.32
959.99	226.30
960.29	226.32
960.58	226.29
960.88	226.34
961.17	226.32
961.47	226.32
961.76	226.32
962.06	226.33
962.36	226.31
962.65	226.33
962.95	226.37
963.24	226.38
963.54	226.37
963.83	226.35
964.13	226.35
964.42	226.34
964.72	226.29
965.01	226.28
965.31	226.28
965.60	226.26
965.90	226.28
966.19	226.27
966.49	226.30
966.78	226.31
967.08	226.29
967.37	226.29
967.67	226.27
967.96	226.28
968.26	226.29
968.55	226.35
968.85	226.34
969.14	226.33
969.43	226.34
969.73	226.31
970.02	226.34
970.32	226.33
970.61	226.33
970.91	226.31
971.20	226.28
971.49	226.28
971.79	226.30
972.08	226.25
972.38	226.30
972.67	226.31
972.96	226.32
973.26	226.32
973.55	226.35
973.85	226.36
974.14	226.37
974.43	226.38
974.73	226.35
975.02	226.34
975.31	226.34
975.61	226.36
975.90	226.38
976.19	226.37
976.49	226.37
976.78	226.40
977.07	226.40
977.37	226.41
977.66	226.42
977.95	226.39
978.24	226.37
978.54	226.34
978.83	226.31
979.12	226.30
979.42	226.29
979.71	226.29
980.00	226.30
980.29	226.28
980.59	226.27
980.88	226.29
981.17	226.29
981.46	226.28
981.76	226.24
982.05	226.25
982.34	226.22
982.63	226.23
982.93	226.20
983.22	226.20
983.51	226.22
983.80	226.23
984.09	226.24
984.39	226.26
984.68	226.24
984.97	226.23
985.26	226.21
985.55	226.21
985.85	226.15
986.14	226.14
986.43	226.13
986.72	226.10
987.01	226.05
987.30	226.03
987.59	226.01
987.89	226.01
988.18	225.99
988.47	226.00
988.76	225.99
989.05	225.96
989.34	225.97
989.63	225.96
989.92	225.95
990.22	225.93
990.51	225.94
990.80	225.91
991.09	225.95
991.38	225.95
991.67	225.97
991.96	225.98
992.25	225.98
992.54	225.95
992.83	225.96
993.12	225.97
993.41	226.03
993.70	226.12
993.99	226.15
994.28	226.16
994.58	226.14
994.87	226.13
995.16	226.13
995.45	226.10
995.74	226.08
996.03	226.09
996.32	226.13
996.61	226.12
996.90	226.15
997.19	226.12
997.48	226.13
997.77	226.11
998.06	226.15
998.34	226.15
998.63	226.20
998.92	226.19
999.21	226.22
999.50	226.20
999.79	226.13
1000.08	226.14
1000.37	226.12
1000.66	226.13
1000.95	226.14
1001.24	226.21
1001.53	226.24
1001.82	226.24
1002.11	226.24
1002.40	226.25
1002.68	226.28
1002.97	226.36
1003.26	226.38
1003.55	226.39
1003.84	226.41
1004.13	226.39
1004.42	226.38
1004.71	226.38
1004.99	226.41
1005.28	226.44
1005.57	226.45
1005.86	226.45
1006.15	226.41
1006.44	226.42
1006.72	226.43
1007.01	226.43
1007.30	226.42
1007.59	226.42
1007.88	226.42
1008.17	226.40
1008.45	226.37
1008.74	226.33
1009.03	226.27
1009.32	226.31
1009.60	226.30
1009.89	226.25
1010.18	226.23
1010.47	226.24
1010.76	226.21
1011.04	226.18
1011.33	226.16
1011.62	226.15
1011.91	226.16
1012.19	226.19
1012.48	226.18
1012.77	226.18
1013.05	226.24
1013.34	226.23
1013.63	226.21
1013.92	226.23
1014.20	226.25
1014.49	226.25
1014.78	226.27
1015.06	226.23
1015.35	226.19
1015.64	226.22
1015.92	226.25
1016.21	226.26
1016.50	226.24
1016.78	226.24
1017.07	226.27
1017.36	226.25
1017.64	226.22
1017.93	226.21
1018.22	226.22
1018.50	226.20
1018.79	226.19
1019.08	226.11
1019.36	226.11
1019.65	226.11
1019.93	226.13
1020.22	226.11
1020.51	226.15
1020.79	226.12
1021.08	226.26
1021.36	225.49
1021.65	226.12
1021.94	225.83
1022.22	226.29
1022.51	226.06
1022.79	227.03
1023.08	225.88
1023.36	227.19
1023.65	225.57
>>>>>End Processed Spectral Data<<<<<
