SpectraSuite Data File
++++++++++++++++++++++++++++++++++++
Date: Fri Feb 01 16:08:59 EST 2013
User: group
Dark Spectrum Present: No
Reference Spectrum Present: No
Number of Sampled Component Spectra: 1
Spectrometers: USB2E7196
Integration Time (usec): 35000 (USB2E7196)
Spectra Averaged: 100 (USB2E7196)
Boxcar Smoothing: 10 (USB2E7196)
Correct for Electrical Dark: No (USB2E7196)
Strobe/Lamp Enabled: No (USB2E7196)
Correct for Detector Non-linearity: No (USB2E7196)
Correct for Stray Light: No (USB2E7196)
Number of Pixels in Processed Spectrum: 2048
>>>>>Begin Processed Spectral Data<<<<<
339.09	0.00
339.48	214.83
339.86	216.56
340.24	217.59
340.63	219.61
341.01	221.61
341.39	221.20
341.78	223.00
342.16	224.18
342.54	224.82
342.93	213.02
343.31	223.79
343.69	224.32
344.07	224.75
344.46	225.17
344.84	225.49
345.22	225.73
345.60	225.98
345.99	226.16
346.37	226.28
346.75	226.37
347.13	226.43
347.52	226.47
347.90	226.56
348.28	226.58
348.66	226.61
349.05	226.59
349.43	226.64
349.81	226.67
350.19	226.69
350.57	226.76
350.96	226.83
351.34	226.91
351.72	226.97
352.10	227.07
352.48	227.12
352.87	227.19
353.25	227.22
353.63	227.29
354.01	227.36
354.39	227.40
354.77	227.44
355.15	227.55
355.54	227.61
355.92	227.61
356.30	227.72
356.68	227.85
357.06	227.93
357.44	227.96
357.82	228.04
358.20	228.13
358.58	228.16
358.97	228.23
359.35	228.29
359.73	228.39
360.11	228.42
360.49	228.51
360.87	228.57
361.25	228.63
361.63	228.70
362.01	228.72
362.39	228.77
362.77	228.84
363.15	228.86
363.53	228.91
363.91	228.97
364.29	228.97
364.67	228.90
365.05	228.88
365.43	228.91
365.81	228.96
366.19	228.99
366.57	229.06
366.95	229.04
367.33	229.03
367.71	229.03
368.09	229.03
368.47	229.01
368.85	229.01
369.23	229.03
369.61	228.97
369.99	228.99
370.37	228.98
370.75	228.99
371.13	228.92
371.51	228.87
371.89	228.80
372.27	228.77
372.65	228.75
373.03	228.74
373.41	228.70
373.78	228.62
374.16	228.54
374.54	228.44
374.92	228.43
375.30	228.35
375.68	228.28
376.06	228.22
376.44	228.15
376.82	228.09
377.19	228.02
377.57	227.95
377.95	227.87
378.33	227.77
378.71	227.65
379.09	227.61
379.47	227.54
379.84	227.48
380.22	227.42
380.60	227.30
380.98	227.23
381.36	227.18
381.73	227.07
382.11	227.03
382.49	226.99
382.87	226.88
383.25	226.81
383.62	226.88
384.00	226.81
384.38	226.76
384.76	226.69
385.13	226.69
385.51	226.65
385.89	226.58
386.27	226.55
386.64	226.51
387.02	226.47
387.40	226.44
387.78	226.40
388.15	226.35
388.53	226.33
388.91	226.27
389.29	226.21
389.66	226.19
390.04	226.12
390.42	226.10
390.79	226.08
391.17	226.07
391.55	225.92
391.92	225.91
392.30	225.90
392.68	225.92
393.05	225.88
393.43	225.91
393.81	225.90
394.18	225.91
394.56	225.92
394.94	225.94
395.31	225.93
395.69	226.00
396.06	226.08
396.44	226.09
396.82	226.11
397.19	226.21
397.57	226.26
397.95	226.32
398.32	226.35
398.70	226.37
399.07	226.45
399.45	226.51
399.82	226.56
400.20	226.57
400.58	226.65
400.95	226.66
401.33	226.71
401.70	226.83
402.08	226.94
402.45	227.02
402.83	227.13
403.20	227.26
403.58	227.34
403.95	227.44
404.33	227.58
404.71	227.71
405.08	227.87
405.46	227.97
405.83	228.10
406.21	228.24
406.58	228.45
406.96	228.60
407.33	228.79
407.70	229.00
408.08	229.29
408.45	229.53
408.83	229.77
409.20	229.97
409.58	230.20
409.95	230.46
410.33	230.73
410.70	230.98
411.08	231.25
411.45	231.55
411.82	231.83
412.20	232.17
412.57	232.62
412.95	232.91
413.32	233.33
413.69	233.75
414.07	234.21
414.44	234.68
414.82	235.16
415.19	235.69
415.56	236.24
415.94	236.80
416.31	237.39
416.68	238.02
417.06	238.75
417.43	239.43
417.81	240.18
418.18	240.98
418.55	241.83
418.93	242.72
419.30	243.66
419.67	244.62
420.04	245.59
420.42	246.56
420.79	247.74
421.16	248.89
421.54	250.07
421.91	251.25
422.28	252.54
422.66	253.88
423.03	255.15
423.40	256.46
423.77	257.86
424.15	259.28
424.52	260.75
424.89	262.42
425.26	263.97
425.64	265.42
426.01	266.99
426.38	268.66
426.75	270.35
427.13	272.05
427.50	273.89
427.87	275.81
428.24	277.64
428.61	279.39
428.99	281.36
429.36	283.47
429.73	285.56
430.10	287.54
430.47	289.56
430.85	291.73
431.22	293.98
431.59	296.35
431.96	298.65
432.33	301.17
432.70	303.50
433.08	306.31
433.45	308.95
433.82	311.59
434.19	314.47
434.56	317.25
434.93	319.89
435.30	322.45
435.68	325.32
436.05	328.16
436.42	330.93
436.79	333.39
437.16	336.09
437.53	338.87
437.90	341.71
438.27	344.46
438.64	347.22
439.01	349.80
439.38	352.03
439.75	354.20
440.13	356.68
440.50	359.02
440.87	360.84
441.24	362.76
441.61	364.90
441.98	366.38
442.35	368.19
442.72	370.04
443.09	371.87
443.46	372.83
443.83	373.44
444.20	373.96
444.57	374.79
444.94	375.07
445.31	375.44
445.68	375.78
446.05	375.86
446.42	375.50
446.79	375.07
447.16	374.66
447.53	374.29
447.90	373.08
448.27	371.91
448.64	370.32
449.01	369.18
449.37	367.21
449.74	365.31
450.11	363.04
450.48	360.59
450.85	358.00
451.22	355.90
451.59	353.86
451.96	351.93
452.33	349.36
452.70	347.03
453.07	344.22
453.43	341.27
453.80	338.49
454.17	335.82
454.54	333.27
454.91	330.56
455.28	327.90
455.65	325.45
456.02	322.98
456.38	320.85
456.75	318.21
457.12	315.93
457.49	313.73
457.86	311.58
458.23	309.73
458.59	307.72
458.96	305.67
459.33	303.82
459.70	301.96
460.07	300.46
460.43	298.77
460.80	297.14
461.17	295.75
461.54	294.28
461.91	292.90
462.27	291.50
462.64	290.24
463.01	288.85
463.38	287.51
463.74	286.16
464.11	285.01
464.48	283.99
464.85	282.94
465.21	282.03
465.58	281.11
465.95	279.98
466.32	279.08
466.68	278.15
467.05	277.23
467.42	276.34
467.78	275.39
468.15	274.49
468.52	273.83
468.88	272.91
469.25	272.16
469.62	271.51
469.98	270.81
470.35	270.18
470.72	269.64
471.08	269.01
471.45	268.48
471.82	267.94
472.18	267.33
472.55	266.86
472.92	266.37
473.28	265.90
473.65	265.47
474.02	265.05
474.38	264.67
474.75	264.37
475.11	264.04
475.48	263.80
475.85	263.60
476.21	263.40
476.58	263.26
476.94	263.11
477.31	262.97
477.67	262.85
478.04	262.72
478.41	262.63
478.77	262.70
479.14	262.65
479.50	262.63
479.87	262.75
480.23	262.84
480.60	262.89
480.96	262.99
481.33	263.21
481.69	263.41
482.06	263.66
482.42	263.88
482.79	264.14
483.15	264.45
483.52	264.80
483.88	265.17
484.25	265.57
484.61	266.00
484.98	266.43
485.34	267.00
485.71	267.61
486.07	268.25
486.44	268.80
486.80	269.51
487.17	270.25
487.53	271.05
487.90	271.94
488.26	272.92
488.62	273.91
488.99	274.88
489.35	275.95
489.72	277.04
490.08	278.24
490.44	279.50
490.81	280.83
491.17	282.18
491.54	283.63
491.90	285.16
492.26	286.81
492.63	288.54
492.99	290.27
493.36	292.16
493.72	294.24
494.08	296.34
494.45	298.63
494.81	301.03
495.17	303.47
495.54	305.99
495.90	308.68
496.26	311.47
496.63	314.48
496.99	317.58
497.35	320.85
497.72	324.25
498.08	327.74
498.44	331.45
498.80	335.42
499.17	339.46
499.53	343.64
499.89	348.06
500.26	352.56
500.62	357.29
500.98	362.25
501.34	367.29
501.71	372.69
502.07	378.12
502.43	383.74
502.79	389.55
503.16	395.64
503.52	401.89
503.88	408.32
504.24	414.94
504.60	421.80
504.97	428.99
505.33	436.29
505.69	444.06
506.05	451.83
506.41	459.70
506.78	467.88
507.14	476.36
507.50	485.09
507.86	494.14
508.22	503.32
508.59	512.52
508.95	522.05
509.31	531.87
509.67	541.96
510.03	552.23
510.39	562.77
510.75	573.56
511.12	584.52
511.48	595.75
511.84	607.23
512.20	618.81
512.56	630.66
512.92	642.85
513.28	655.21
513.64	667.64
514.00	680.36
514.37	693.29
514.73	706.25
515.09	719.32
515.45	732.60
515.81	746.19
516.17	760.17
516.53	774.28
516.89	788.39
517.25	802.58
517.61	817.03
517.97	831.49
518.33	845.84
518.69	860.63
519.05	875.61
519.41	890.69
519.77	906.13
520.13	921.56
520.49	936.87
520.85	952.15
521.21	967.86
521.57	983.99
521.93	999.68
522.29	1016.01
522.65	1032.12
523.01	1048.23
523.37	1064.22
523.73	1080.32
524.09	1096.37
524.45	1112.67
524.81	1129.26
525.17	1145.99
525.53	1162.74
525.89	1179.56
526.25	1196.29
526.61	1212.67
526.97	1229.35
527.33	1245.80
527.68	1262.33
528.04	1278.86
528.40	1295.50
528.76	1312.50
529.12	1329.11
529.48	1345.94
529.84	1361.93
530.20	1378.52
530.56	1395.57
530.91	1413.03
531.27	1429.78
531.63	1446.22
531.99	1462.66
532.35	1478.48
532.71	1494.35
533.07	1510.61
533.42	1526.46
533.78	1542.50
534.14	1558.73
534.50	1574.09
534.86	1589.91
535.21	1605.07
535.57	1620.73
535.93	1636.07
536.29	1650.95
536.65	1665.85
537.00	1680.53
537.36	1695.82
537.72	1710.23
538.08	1724.47
538.44	1738.01
538.79	1751.73
539.15	1765.33
539.51	1779.01
539.87	1793.27
540.22	1806.91
540.58	1820.57
540.94	1833.80
541.29	1846.59
541.65	1859.10
542.01	1872.22
542.37	1884.46
542.72	1896.89
543.08	1908.69
543.44	1921.07
543.79	1932.00
544.15	1943.03
544.51	1954.68
544.87	1965.60
545.22	1976.37
545.58	1986.68
545.94	1996.53
546.29	2006.40
546.65	2016.22
547.01	2025.53
547.36	2034.24
547.72	2042.71
548.07	2050.66
548.43	2058.83
548.79	2066.76
549.14	2074.32
549.50	2081.65
549.86	2089.37
550.21	2096.63
550.57	2103.82
550.92	2110.32
551.28	2117.40
551.64	2124.38
551.99	2130.83
552.35	2136.97
552.70	2143.15
553.06	2149.06
553.41	2155.36
553.77	2161.31
554.13	2167.42
554.48	2173.49
554.84	2179.01
555.19	2184.18
555.55	2189.27
555.90	2193.86
556.26	2198.75
556.61	2203.49
556.97	2207.74
557.32	2211.76
557.68	2215.87
558.03	2220.25
558.39	2224.09
558.74	2228.78
559.10	2232.62
559.45	2236.23
559.81	2240.62
560.16	2244.34
560.52	2247.71
560.87	2251.08
561.23	2253.73
561.58	2256.65
561.94	2259.09
562.29	2261.36
562.64	2264.11
563.00	2266.56
563.35	2270.03
563.71	2273.16
564.06	2276.32
564.42	2279.09
564.77	2281.63
565.12	2284.04
565.48	2285.89
565.83	2287.71
566.19	2288.91
566.54	2289.82
566.89	2291.00
567.25	2291.45
567.60	2292.89
567.96	2294.44
568.31	2295.39
568.66	2296.63
569.02	2297.15
569.37	2297.54
569.72	2298.47
570.08	2298.64
570.43	2298.90
570.78	2298.30
571.14	2296.76
571.49	2295.58
571.84	2295.40
572.20	2294.43
572.55	2293.28
572.90	2291.65
573.26	2290.35
573.61	2288.77
573.96	2287.03
574.31	2284.07
574.67	2281.20
575.02	2277.61
575.37	2274.25
575.72	2270.41
576.08	2267.10
576.43	2263.88
576.78	2260.24
577.13	2257.14
577.49	2254.14
577.84	2250.60
578.19	2246.78
578.54	2243.22
578.90	2238.97
579.25	2233.33
579.60	2228.24
579.95	2223.33
580.30	2218.40
580.66	2213.03
581.01	2208.05
581.36	2203.29
581.71	2199.11
582.06	2194.67
582.42	2190.24
582.77	2185.05
583.12	2180.49
583.47	2175.80
583.82	2170.82
584.17	2165.63
584.53	2160.21
584.88	2154.54
585.23	2148.81
585.58	2143.38
585.93	2137.94
586.28	2133.22
586.63	2128.24
586.98	2123.27
587.34	2118.50
587.69	2113.57
588.04	2108.44
588.39	2102.87
588.74	2096.37
589.09	2090.22
589.44	2083.37
589.79	2077.34
590.14	2071.73
590.49	2065.22
590.84	2058.83
591.19	2052.82
591.54	2046.46
591.89	2038.99
592.25	2032.17
592.60	2024.93
592.95	2017.49
593.30	2010.23
593.65	2002.61
594.00	1995.63
594.35	1988.46
594.70	1980.39
595.05	1973.36
595.40	1966.15
595.75	1958.67
596.10	1952.46
596.45	1945.94
596.80	1939.84
597.15	1933.26
597.50	1926.23
597.85	1919.87
598.19	1913.33
598.54	1906.13
598.89	1899.46
599.24	1893.61
599.59	1886.93
599.94	1880.84
600.29	1874.50
600.64	1867.92
600.99	1860.55
601.34	1853.77
601.69	1846.76
602.04	1839.96
602.39	1832.58
602.74	1825.82
603.08	1819.03
603.43	1812.29
603.78	1804.85
604.13	1797.66
604.48	1790.39
604.83	1783.44
605.18	1776.43
605.53	1768.35
605.87	1760.46
606.22	1753.32
606.57	1745.38
606.92	1738.03
607.27	1730.85
607.62	1723.96
607.96	1716.66
608.31	1710.01
608.66	1702.30
609.01	1694.74
609.36	1687.14
609.70	1679.06
610.05	1670.93
610.40	1663.33
610.75	1655.02
611.10	1647.42
611.44	1639.03
611.79	1631.05
612.14	1622.55
612.49	1613.46
612.83	1605.04
613.18	1596.98
613.53	1588.78
613.88	1580.22
614.22	1572.06
614.57	1563.46
614.92	1555.43
615.27	1547.93
615.61	1539.64
615.96	1531.70
616.31	1524.00
616.65	1516.69
617.00	1509.10
617.35	1501.47
617.70	1493.11
618.04	1484.56
618.39	1476.30
618.74	1468.72
619.08	1460.31
619.43	1452.62
619.78	1445.62
620.12	1438.53
620.47	1431.02
620.82	1422.87
621.16	1415.54
621.51	1407.88
621.85	1400.28
622.20	1391.79
622.55	1383.41
622.89	1375.61
623.24	1367.91
623.59	1360.55
623.93	1353.07
624.28	1346.02
624.62	1338.50
624.97	1331.32
625.32	1324.62
625.66	1317.61
626.01	1310.41
626.35	1303.09
626.70	1295.29
627.04	1287.61
627.39	1279.88
627.73	1272.43
628.08	1265.51
628.43	1258.19
628.77	1250.85
629.12	1243.21
629.46	1235.97
629.81	1228.53
630.15	1221.25
630.50	1213.87
630.84	1205.62
631.19	1197.67
631.53	1190.08
631.88	1182.43
632.22	1174.86
632.57	1167.59
632.91	1160.04
633.26	1152.59
633.60	1145.16
633.95	1138.04
634.29	1130.98
634.64	1124.28
634.98	1116.91
635.32	1109.67
635.67	1103.07
636.01	1096.46
636.36	1089.69
636.70	1083.18
637.05	1076.62
637.39	1070.21
637.73	1063.74
638.08	1057.89
638.42	1051.93
638.77	1045.52
639.11	1039.05
639.45	1032.64
639.80	1025.91
640.14	1019.52
640.49	1013.08
640.83	1006.74
641.17	1000.53
641.52	994.17
641.86	987.63
642.20	981.75
642.55	975.48
642.89	968.99
643.23	962.32
643.58	956.61
643.92	950.46
644.26	944.34
644.61	938.29
644.95	932.20
645.29	925.69
645.64	918.92
645.98	912.54
646.32	906.68
646.66	900.62
647.01	894.91
647.35	889.23
647.69	883.33
648.04	877.83
648.38	872.10
648.72	866.18
649.06	860.17
649.41	854.33
649.75	848.34
650.09	842.30
650.43	836.61
650.78	830.41
651.12	824.35
651.46	818.63
651.80	812.87
652.14	807.55
652.49	802.18
652.83	796.97
653.17	791.27
653.51	785.49
653.85	780.12
654.20	774.50
654.54	768.40
654.88	762.64
655.22	756.73
655.56	751.02
655.90	745.49
656.25	740.27
656.59	734.93
656.93	729.89
657.27	724.87
657.61	719.41
657.95	714.33
658.29	709.32
658.64	704.07
658.98	698.78
659.32	693.37
659.66	688.14
660.00	682.84
660.34	677.90
660.68	673.07
661.02	668.04
661.36	663.27
661.70	658.76
662.05	654.44
662.39	650.11
662.73	645.62
663.07	641.27
663.41	636.79
663.75	632.32
664.09	627.71
664.43	623.31
664.77	619.19
665.11	614.92
665.45	610.77
665.79	606.73
666.13	602.58
666.47	598.42
666.81	594.22
667.15	590.10
667.49	586.16
667.83	582.25
668.17	578.33
668.51	574.26
668.85	570.31
669.19	566.46
669.53	562.67
669.87	558.79
670.21	555.04
670.55	551.40
670.89	547.92
671.23	544.51
671.57	540.95
671.91	537.45
672.25	533.95
672.58	530.41
672.92	527.01
673.26	523.78
673.60	520.64
673.94	517.62
674.28	514.75
674.62	511.86
674.96	508.82
675.30	505.85
675.64	502.95
675.97	500.15
676.31	497.29
676.65	494.34
676.99	491.70
677.33	488.82
677.67	486.02
678.01	482.94
678.34	479.98
678.68	477.15
679.02	474.35
679.36	471.60
679.70	468.93
680.04	466.16
680.37	463.32
680.71	460.49
681.05	457.82
681.39	455.09
681.73	452.40
682.06	449.81
682.40	447.30
682.74	444.74
683.08	442.22
683.42	439.63
683.75	437.11
684.09	434.47
684.43	432.05
684.77	429.59
685.10	427.29
685.44	425.00
685.78	422.65
686.12	420.34
686.45	418.01
686.79	415.71
687.13	413.53
687.46	411.38
687.80	409.22
688.14	406.97
688.48	404.88
688.81	402.63
689.15	400.54
689.49	398.40
689.82	396.35
690.16	394.24
690.50	392.27
690.83	390.37
691.17	388.44
691.51	386.57
691.84	384.72
692.18	382.83
692.52	380.88
692.85	378.95
693.19	377.09
693.52	375.28
693.86	373.46
694.20	371.68
694.53	369.89
694.87	368.10
695.21	366.33
695.54	364.50
695.88	362.83
696.21	361.06
696.55	359.39
696.88	357.66
697.22	356.04
697.56	354.44
697.89	352.75
698.23	351.10
698.56	349.42
698.90	347.81
699.23	346.14
699.57	344.56
699.90	343.02
700.24	341.51
700.58	339.95
700.91	338.42
701.25	336.93
701.58	335.57
701.92	334.18
702.25	332.83
702.59	331.46
702.92	330.10
703.26	328.82
703.59	327.52
703.93	326.37
704.26	325.09
704.60	323.77
704.93	322.50
705.26	321.30
705.60	320.18
705.93	318.99
706.27	317.96
706.60	316.89
706.94	315.79
707.27	314.61
707.61	313.56
707.94	312.57
708.27	311.49
708.61	310.39
708.94	309.33
709.28	308.35
709.61	307.43
709.94	306.46
710.28	305.42
710.61	304.43
710.95	303.35
711.28	302.46
711.61	301.49
711.95	300.56
712.28	299.58
712.61	298.58
712.95	297.67
713.28	296.79
713.61	295.92
713.95	295.08
714.28	294.27
714.61	293.46
714.95	292.62
715.28	291.78
715.61	290.93
715.95	290.10
716.28	289.25
716.61	288.42
716.95	287.61
717.28	286.85
717.61	286.10
717.94	285.36
718.28	284.52
718.61	283.81
718.94	283.12
719.27	282.46
719.61	281.81
719.94	281.17
720.27	280.43
720.60	279.76
720.94	279.11
721.27	278.49
721.60	277.91
721.93	277.26
722.27	276.67
722.60	276.09
722.93	275.50
723.26	274.95
723.59	274.37
723.93	273.83
724.26	273.28
724.59	272.72
724.92	272.18
725.25	271.71
725.59	271.24
725.92	270.72
726.25	270.19
726.58	269.72
726.91	269.23
727.24	268.79
727.57	268.32
727.91	267.81
728.24	267.33
728.57	266.85
728.90	266.41
729.23	265.98
729.56	265.54
729.89	265.08
730.22	264.61
730.55	264.14
730.89	263.73
731.22	263.31
731.55	262.84
731.88	262.42
732.21	261.98
732.54	261.48
732.87	261.10
733.20	260.69
733.53	260.29
733.86	259.88
734.19	259.46
734.52	259.10
734.85	258.82
735.18	258.44
735.51	258.06
735.84	257.70
736.17	257.37
736.50	257.01
736.83	256.82
737.16	256.49
737.49	256.20
737.82	255.79
738.15	255.44
738.48	255.14
738.81	254.83
739.14	254.51
739.47	254.23
739.80	253.92
740.13	253.66
740.46	253.34
740.79	253.04
741.12	252.75
741.45	252.43
741.78	252.10
742.11	251.82
742.44	251.50
742.77	251.23
743.10	250.87
743.43	250.54
743.75	250.10
744.08	249.95
744.41	249.68
744.74	249.42
745.07	249.13
745.40	248.88
745.73	248.67
746.06	248.40
746.39	248.12
746.71	247.84
747.04	247.56
747.37	247.30
747.70	247.04
748.03	246.73
748.36	246.50
748.68	246.20
749.01	245.91
749.34	245.69
749.67	245.41
750.00	245.20
750.33	245.03
750.65	244.88
750.98	244.52
751.31	244.27
751.64	244.07
751.97	243.94
752.29	243.71
752.62	243.38
752.95	243.14
753.28	242.91
753.60	242.71
753.93	242.52
754.26	242.28
754.59	242.05
754.91	241.87
755.24	241.65
755.57	241.48
755.90	241.28
756.22	241.08
756.55	240.87
756.88	240.66
757.20	240.43
757.53	240.22
757.86	240.03
758.19	239.88
758.51	239.71
758.84	239.47
759.17	239.27
759.49	239.15
759.82	239.04
760.15	238.92
760.47	238.76
760.80	238.55
761.13	238.46
761.45	238.31
761.78	238.18
762.11	238.02
762.43	237.85
762.76	237.72
763.08	237.60
763.41	237.47
763.74	237.36
764.06	237.24
764.39	237.05
764.71	236.94
765.04	236.77
765.37	236.62
765.69	236.49
766.02	236.41
766.34	236.29
766.67	236.15
767.00	236.03
767.32	235.97
767.65	235.96
767.97	235.85
768.30	235.74
768.62	235.64
768.95	235.52
769.27	235.44
769.60	235.32
769.92	235.18
770.25	235.11
770.57	234.99
770.90	234.89
771.22	234.82
771.55	234.72
771.87	234.65
772.20	234.53
772.52	234.55
772.85	234.54
773.17	234.47
773.50	234.38
773.82	234.31
774.15	234.14
774.47	233.99
774.80	233.88
775.12	233.82
775.45	233.72
775.77	233.68
776.09	233.61
776.42	233.58
776.74	233.57
777.07	233.45
777.39	233.38
777.72	233.31
778.04	233.25
778.36	233.21
778.69	233.15
779.01	233.14
779.33	232.98
779.66	232.84
779.98	232.77
780.31	232.72
780.63	232.70
780.95	232.67
781.28	232.61
781.60	232.60
781.92	232.51
782.25	232.46
782.57	232.40
782.89	232.35
783.22	232.30
783.54	232.21
783.86	232.18
784.19	232.15
784.51	232.14
784.83	232.08
785.16	232.02
785.48	231.99
785.80	231.91
786.12	231.89
786.45	231.81
786.77	231.78
787.09	231.72
787.42	231.64
787.74	231.60
788.06	231.56
788.38	231.46
788.71	231.45
789.03	231.38
789.35	231.34
789.67	231.28
789.99	231.25
790.32	231.19
790.64	231.17
790.96	231.16
791.28	231.05
791.61	231.01
791.93	230.94
792.25	230.86
792.57	230.90
792.89	230.79
793.21	230.74
793.54	230.67
793.86	230.62
794.18	230.56
794.50	230.48
794.82	230.43
795.14	230.41
795.47	230.37
795.79	230.34
796.11	230.28
796.43	230.24
796.75	230.17
797.07	230.14
797.39	230.09
797.71	230.02
798.04	229.97
798.36	229.92
798.68	229.89
799.00	229.88
799.32	229.77
799.64	229.77
799.96	229.78
800.28	229.74
800.60	229.69
800.92	229.66
801.24	229.62
801.56	229.59
801.89	229.53
802.21	229.47
802.53	229.45
802.85	229.43
803.17	229.43
803.49	229.36
803.81	229.32
804.13	229.29
804.45	229.27
804.77	229.28
805.09	229.26
805.41	229.21
805.73	229.14
806.05	229.11
806.37	229.08
806.69	229.01
807.01	229.00
807.33	228.98
807.65	228.91
807.97	228.95
808.28	228.93
808.60	228.90
808.92	228.88
809.24	228.92
809.56	228.86
809.88	228.82
810.20	228.83
810.52	228.84
810.84	228.78
811.16	228.72
811.48	228.69
811.80	228.70
812.12	228.71
812.43	228.73
812.75	228.71
813.07	228.69
813.39	228.69
813.71	228.67
814.03	228.64
814.35	228.65
814.67	228.59
814.98	228.57
815.30	228.57
815.62	228.55
815.94	228.46
816.26	228.53
816.58	228.49
816.89	228.47
817.21	228.45
817.53	228.46
817.85	228.45
818.17	228.43
818.48	228.37
818.80	228.36
819.12	228.35
819.44	228.33
819.76	228.31
820.07	228.32
820.39	228.28
820.71	228.30
821.03	228.28
821.34	228.28
821.66	228.25
821.98	228.25
822.30	228.22
822.61	228.29
822.93	228.20
823.25	228.18
823.57	228.17
823.88	228.17
824.20	228.14
824.52	228.15
824.83	228.11
825.15	228.12
825.47	228.13
825.79	228.11
826.10	228.10
826.42	228.09
826.74	228.06
827.05	228.07
827.37	228.05
827.69	228.06
828.00	228.03
828.32	228.02
828.64	227.99
828.95	228.04
829.27	227.97
829.58	227.97
829.90	227.99
830.22	227.97
830.53	227.92
830.85	227.92
831.17	227.88
831.48	227.89
831.80	227.86
832.11	227.78
832.43	227.72
832.75	227.68
833.06	227.70
833.38	227.69
833.69	227.64
834.01	227.61
834.32	227.58
834.64	227.58
834.96	227.57
835.27	227.57
835.59	227.51
835.90	227.46
836.22	227.46
836.53	227.42
836.85	227.40
837.16	227.48
837.48	227.43
837.79	227.47
838.11	227.42
838.42	227.38
838.74	227.39
839.05	227.36
839.37	227.34
839.68	227.29
840.00	227.26
840.31	227.26
840.63	227.23
840.94	227.21
841.26	227.18
841.57	227.17
841.88	227.15
842.20	227.17
842.51	227.13
842.83	227.10
843.14	227.18
843.46	227.19
843.77	227.11
844.08	227.12
844.40	227.06
844.71	227.11
845.03	227.12
845.34	227.12
845.65	227.13
845.97	227.15
846.28	227.16
846.60	227.14
846.91	227.12
847.22	227.15
847.54	227.17
847.85	227.16
848.16	227.16
848.48	227.16
848.79	227.17
849.10	227.24
849.42	227.25
849.73	227.12
850.04	227.13
850.36	227.13
850.67	227.16
850.98	227.15
851.30	227.12
851.61	227.11
851.92	227.12
852.23	227.17
852.55	227.20
852.86	227.20
853.17	227.22
853.49	227.23
853.80	227.27
854.11	227.28
854.42	227.30
854.74	227.30
855.05	227.34
855.36	227.32
855.67	227.31
855.99	227.32
856.30	227.46
856.61	227.48
856.92	227.46
857.23	227.45
857.55	227.47
857.86	227.48
858.17	227.50
858.48	227.47
858.79	227.46
859.11	227.45
859.42	227.45
859.73	227.44
860.04	227.45
860.35	227.37
860.66	227.34
860.98	227.36
861.29	227.37
861.60	227.33
861.91	227.37
862.22	227.34
862.53	227.32
862.84	227.23
863.16	227.21
863.47	227.21
863.78	227.22
864.09	227.24
864.40	227.26
864.71	227.26
865.02	227.31
865.33	227.28
865.64	227.27
865.95	227.26
866.27	227.35
866.58	227.34
866.89	227.40
867.20	227.37
867.51	227.36
867.82	227.34
868.13	227.35
868.44	227.28
868.75	227.31
869.06	227.31
869.37	227.30
869.68	227.28
869.99	227.27
870.30	227.25
870.61	227.20
870.92	227.17
871.23	227.15
871.54	227.12
871.85	227.16
872.16	227.17
872.47	227.15
872.78	227.06
873.09	227.08
873.40	227.04
873.71	227.04
874.02	227.01
874.33	226.97
874.64	226.93
874.95	226.94
875.26	226.88
875.56	226.86
875.87	226.83
876.18	226.79
876.49	226.87
876.80	226.84
877.11	226.83
877.42	226.82
877.73	226.81
878.04	226.77
878.35	226.76
878.66	226.72
878.96	226.69
879.27	226.66
879.58	226.63
879.89	226.59
880.20	226.60
880.51	226.61
880.82	226.58
881.12	226.60
881.43	226.55
881.74	226.50
882.05	226.49
882.36	226.49
882.67	226.49
882.97	226.37
883.28	226.38
883.59	226.37
883.90	226.36
884.21	226.39
884.51	226.38
884.82	226.34
885.13	226.35
885.44	226.38
885.74	226.38
886.05	226.37
886.36	226.36
886.67	226.32
886.98	226.32
887.28	226.37
887.59	226.36
887.90	226.37
888.20	226.41
888.51	226.42
888.82	226.40
889.13	226.42
889.43	226.55
889.74	226.53
890.05	226.52
890.35	226.51
890.66	226.46
890.97	226.46
891.28	226.47
891.58	226.47
891.89	226.46
892.20	226.45
892.50	226.45
892.81	226.50
893.12	226.51
893.42	226.48
893.73	226.46
894.04	226.47
894.34	226.49
894.65	226.48
894.95	226.47
895.26	226.51
895.57	226.56
895.87	226.42
896.18	226.45
896.48	226.50
896.79	226.50
897.10	226.55
897.40	226.54
897.71	226.54
898.01	226.58
898.32	226.62
898.63	226.62
898.93	226.63
899.24	226.62
899.54	226.65
899.85	226.66
900.15	226.67
900.46	226.70
900.76	226.72
901.07	226.72
901.38	226.74
901.68	226.72
901.99	226.70
902.29	226.76
902.60	226.75
902.90	226.75
903.21	226.76
903.51	226.75
903.82	226.78
904.12	226.79
904.43	226.78
904.73	226.76
905.03	226.78
905.34	226.89
905.64	226.91
905.95	226.90
906.25	226.89
906.56	226.92
906.86	226.93
907.17	226.95
907.47	226.99
907.77	226.97
908.08	226.99
908.38	227.00
908.69	226.98
908.99	227.01
909.30	227.00
909.60	227.02
909.90	227.04
910.21	227.03
910.51	227.04
910.81	227.04
911.12	227.04
911.42	227.02
911.73	226.90
912.03	226.88
912.33	226.88
912.64	226.90
912.94	226.89
913.24	226.85
913.55	226.83
913.85	226.82
914.15	226.85
914.46	226.83
914.76	226.81
915.06	226.82
915.37	226.77
915.67	226.78
915.97	226.78
916.27	226.75
916.58	226.72
916.88	226.71
917.18	226.69
917.49	226.74
917.79	226.76
918.09	226.80
918.39	226.82
918.70	226.82
919.00	226.81
919.30	226.84
919.60	226.83
919.91	226.80
920.21	226.79
920.51	226.73
920.81	226.72
921.12	226.73
921.42	226.70
921.72	226.74
922.02	226.69
922.32	226.70
922.63	226.69
922.93	226.75
923.23	226.74
923.53	226.70
923.83	226.65
924.13	226.63
924.44	226.63
924.74	226.65
925.04	226.64
925.34	226.63
925.64	226.58
925.94	226.58
926.24	226.62
926.55	226.61
926.85	226.62
927.15	226.61
927.45	226.59
927.75	226.60
928.05	226.58
928.35	226.58
928.65	226.57
928.95	226.60
929.26	226.54
929.56	226.57
929.86	226.61
930.16	226.61
930.46	226.61
930.76	226.60
931.06	226.55
931.36	226.52
931.66	226.55
931.96	226.55
932.26	226.55
932.56	226.51
932.86	226.53
933.16	226.54
933.46	226.54
933.76	226.52
934.06	226.54
934.36	226.60
934.66	226.60
934.96	226.60
935.26	226.58
935.56	226.62
935.86	226.59
936.16	226.57
936.46	226.53
936.76	226.52
937.06	226.49
937.36	226.51
937.66	226.50
937.96	226.46
938.26	226.47
938.56	226.47
938.86	226.48
939.16	226.45
939.46	226.48
939.76	226.53
940.06	226.54
940.35	226.54
940.65	226.46
940.95	226.51
941.25	226.44
941.55	226.47
941.85	226.46
942.15	226.47
942.45	226.51
942.75	226.54
943.04	226.58
943.34	226.62
943.64	226.61
943.94	226.67
944.24	226.71
944.54	226.69
944.84	226.68
945.13	226.69
945.43	226.72
945.73	226.69
946.03	226.68
946.33	226.65
946.62	226.63
946.92	226.65
947.22	226.66
947.52	226.70
947.82	226.67
948.11	226.66
948.41	226.65
948.71	226.61
949.01	226.65
949.31	226.60
949.60	226.61
949.90	226.63
950.20	226.57
950.50	226.57
950.79	226.58
951.09	226.61
951.39	226.62
951.69	226.61
951.98	226.64
952.28	226.63
952.58	226.64
952.87	226.65
953.17	226.63
953.47	226.60
953.76	226.62
954.06	226.62
954.36	226.59
954.66	226.60
954.95	226.63
955.25	226.60
955.55	226.62
955.84	226.59
956.14	226.59
956.44	226.61
956.73	226.57
957.03	226.57
957.32	226.57
957.62	226.56
957.92	226.58
958.21	226.56
958.51	226.64
958.81	226.65
959.10	226.65
959.40	226.69
959.69	226.67
959.99	226.61
960.29	226.62
960.58	226.63
960.88	226.65
961.17	226.60
961.47	226.59
961.76	226.59
962.06	226.60
962.36	226.58
962.65	226.61
962.95	226.61
963.24	226.57
963.54	226.55
963.83	226.51
964.13	226.49
964.42	226.46
964.72	226.40
965.01	226.43
965.31	226.42
965.60	226.38
965.90	226.46
966.19	226.48
966.49	226.44
966.78	226.43
967.08	226.41
967.37	226.43
967.67	226.40
967.96	226.39
968.26	226.40
968.55	226.40
968.85	226.37
969.14	226.38
969.43	226.39
969.73	226.39
970.02	226.41
970.32	226.39
970.61	226.36
970.91	226.33
971.20	226.25
971.49	226.23
971.79	226.24
972.08	226.17
972.38	226.17
972.67	226.19
972.96	226.22
973.26	226.20
973.55	226.23
973.85	226.24
974.14	226.23
974.43	226.23
974.73	226.24
975.02	226.24
975.31	226.26
975.61	226.28
975.90	226.26
976.19	226.31
976.49	226.34
976.78	226.36
977.07	226.38
977.37	226.43
977.66	226.46
977.95	226.44
978.24	226.45
978.54	226.51
978.83	226.50
979.12	226.51
979.42	226.54
979.71	226.55
980.00	226.55
980.29	226.56
980.59	226.57
980.88	226.63
981.17	226.61
981.46	226.62
981.76	226.62
982.05	226.67
982.34	226.64
982.63	226.66
982.93	226.68
983.22	226.70
983.51	226.71
983.80	226.74
984.09	226.78
984.39	226.79
984.68	226.76
984.97	226.79
985.26	226.78
985.55	226.80
985.85	226.74
986.14	226.77
986.43	226.77
986.72	226.74
987.01	226.69
987.30	226.75
987.59	226.70
987.89	226.73
988.18	226.70
988.47	226.72
988.76	226.69
989.05	226.67
989.34	226.65
989.63	226.65
989.92	226.63
990.22	226.61
990.51	226.60
990.80	226.62
991.09	226.59
991.38	226.59
991.67	226.57
991.96	226.59
992.25	226.56
992.54	226.54
992.83	226.55
993.12	226.57
993.41	226.55
993.70	226.60
993.99	226.59
994.28	226.58
994.58	226.57
994.87	226.54
995.16	226.55
995.45	226.54
995.74	226.50
996.03	226.49
996.32	226.49
996.61	226.50
996.90	226.45
997.19	226.45
997.48	226.43
997.77	226.42
998.06	226.42
998.34	226.42
998.63	226.42
998.92	226.39
999.21	226.38
999.50	226.36
999.79	226.32
1000.08	226.30
1000.37	226.31
1000.66	226.29
1000.95	226.34
1001.24	226.33
1001.53	226.35
1001.82	226.37
1002.11	226.36
1002.40	226.37
1002.68	226.38
1002.97	226.46
1003.26	226.46
1003.55	226.46
1003.84	226.43
1004.13	226.44
1004.42	226.44
1004.71	226.43
1004.99	226.42
1005.28	226.44
1005.57	226.43
1005.86	226.42
1006.15	226.42
1006.44	226.40
1006.72	226.42
1007.01	226.40
1007.30	226.41
1007.59	226.38
1007.88	226.37
1008.17	226.37
1008.45	226.36
1008.74	226.33
1009.03	226.28
1009.32	226.31
1009.60	226.28
1009.89	226.30
1010.18	226.30
1010.47	226.34
1010.76	226.34
1011.04	226.34
1011.33	226.34
1011.62	226.36
1011.91	226.37
1012.19	226.38
1012.48	226.36
1012.77	226.37
1013.05	226.42
1013.34	226.41
1013.63	226.41
1013.92	226.44
1014.20	226.42
1014.49	226.46
1014.78	226.49
1015.06	226.45
1015.35	226.44
1015.64	226.49
1015.92	226.52
1016.21	226.49
1016.50	226.48
1016.78	226.49
1017.07	226.51
1017.36	226.50
1017.64	226.49
1017.93	226.50
1018.22	226.52
1018.50	226.54
1018.79	226.52
1019.08	226.47
1019.36	226.47
1019.65	226.48
1019.93	226.49
1020.22	226.51
1020.51	226.53
1020.79	226.51
1021.08	226.89
1021.36	226.30
1021.65	226.17
1021.94	226.67
1022.22	226.21
1022.51	226.43
1022.79	226.97
1023.08	226.56
1023.36	227.77
1023.65	226.03
>>>>>End Processed Spectral Data<<<<<
