SpectraSuite Data File
++++++++++++++++++++++++++++++++++++
Date: Fri Feb 01 15:43:34 EST 2013
User: group
Dark Spectrum Present: No
Reference Spectrum Present: No
Number of Sampled Component Spectra: 1
Spectrometers: USB2E7196
Integration Time (usec): 35000 (USB2E7196)
Spectra Averaged: 100 (USB2E7196)
Boxcar Smoothing: 10 (USB2E7196)
Correct for Electrical Dark: No (USB2E7196)
Strobe/Lamp Enabled: No (USB2E7196)
Correct for Detector Non-linearity: No (USB2E7196)
Correct for Stray Light: No (USB2E7196)
Number of Pixels in Processed Spectrum: 2048
>>>>>Begin Processed Spectral Data<<<<<
339.09	0.00
339.48	214.80
339.86	216.07
340.24	217.85
340.63	219.29
341.01	221.96
341.39	221.57
341.78	223.15
342.16	224.62
342.54	224.84
342.93	213.37
343.31	224.13
343.69	224.70
344.07	225.18
344.46	225.61
344.84	225.98
345.22	226.23
345.60	226.49
345.99	226.67
346.37	226.79
346.75	226.91
347.13	226.92
347.52	226.97
347.90	227.03
348.28	227.07
348.66	227.10
349.05	227.08
349.43	227.09
349.81	227.13
350.19	227.19
350.57	227.24
350.96	227.31
351.34	227.42
351.72	227.50
352.10	227.57
352.48	227.65
352.87	227.69
353.25	227.72
353.63	227.77
354.01	227.85
354.39	227.89
354.77	227.93
355.15	228.05
355.54	228.07
355.92	228.10
356.30	228.18
356.68	228.36
357.06	228.46
357.44	228.51
357.82	228.57
358.20	228.66
358.58	228.71
358.97	228.78
359.35	228.85
359.73	228.90
360.11	228.95
360.49	228.97
360.87	229.03
361.25	229.13
361.63	229.20
362.01	229.21
362.39	229.26
362.77	229.30
363.15	229.33
363.53	229.36
363.91	229.36
364.29	229.34
364.67	229.24
365.05	229.24
365.43	229.27
365.81	229.29
366.19	229.30
366.57	229.34
366.95	229.30
367.33	229.27
367.71	229.27
368.09	229.30
368.47	229.28
368.85	229.30
369.23	229.27
369.61	229.24
369.99	229.25
370.37	229.25
370.75	229.26
371.13	229.19
371.51	229.16
371.89	229.15
372.27	229.14
372.65	229.07
373.03	228.99
373.41	228.94
373.78	228.87
374.16	228.75
374.54	228.65
374.92	228.61
375.30	228.53
375.68	228.44
376.06	228.36
376.44	228.30
376.82	228.20
377.19	228.13
377.57	228.06
377.95	227.97
378.33	227.87
378.71	227.78
379.09	227.71
379.47	227.65
379.84	227.59
380.22	227.50
380.60	227.45
380.98	227.38
381.36	227.29
381.73	227.24
382.11	227.24
382.49	227.17
382.87	227.08
383.25	227.02
383.62	227.05
384.00	226.97
384.38	226.93
384.76	226.89
385.13	226.86
385.51	226.78
385.89	226.73
386.27	226.67
386.64	226.62
387.02	226.58
387.40	226.52
387.78	226.47
388.15	226.47
388.53	226.40
388.91	226.36
389.29	226.34
389.66	226.31
390.04	226.26
390.42	226.26
390.79	226.25
391.17	226.25
391.55	226.16
391.92	226.16
392.30	226.13
392.68	226.12
393.05	226.13
393.43	226.13
393.81	226.13
394.18	226.15
394.56	226.17
394.94	226.19
395.31	226.25
395.69	226.30
396.06	226.31
396.44	226.36
396.82	226.39
397.19	226.47
397.57	226.51
397.95	226.57
398.32	226.60
398.70	226.62
399.07	226.69
399.45	226.73
399.82	226.79
400.20	226.84
400.58	226.90
400.95	226.90
401.33	227.00
401.70	227.19
402.08	227.24
402.45	227.36
402.83	227.48
403.20	227.59
403.58	227.69
403.95	227.84
404.33	227.99
404.71	228.12
405.08	228.29
405.46	228.45
405.83	228.58
406.21	228.73
406.58	228.95
406.96	229.09
407.33	229.32
407.70	229.51
408.08	229.85
408.45	230.10
408.83	230.40
409.20	230.65
409.58	230.79
409.95	231.10
410.33	231.37
410.70	231.61
411.08	231.89
411.45	232.20
411.82	232.47
412.20	232.84
412.57	233.28
412.95	233.58
413.32	233.98
413.69	234.41
414.07	234.85
414.44	235.34
414.82	235.82
415.19	236.39
415.56	236.95
415.94	237.50
416.31	238.14
416.68	238.73
417.06	239.43
417.43	240.13
417.81	240.86
418.18	241.64
418.55	242.47
418.93	243.32
419.30	244.25
419.67	245.20
420.04	246.14
420.42	247.13
420.79	248.30
421.16	249.42
421.54	250.61
421.91	251.86
422.28	253.12
422.66	254.48
423.03	255.74
423.40	257.08
423.77	258.48
424.15	259.88
424.52	261.37
424.89	262.99
425.26	264.56
425.64	266.03
426.01	267.60
426.38	269.27
426.75	270.95
427.13	272.68
427.50	274.48
427.87	276.39
428.24	278.25
428.61	280.00
428.99	281.96
429.36	284.08
429.73	286.13
430.10	288.11
430.47	290.15
430.85	292.27
431.22	294.47
431.59	296.86
431.96	299.14
432.33	301.64
432.70	303.99
433.08	306.75
433.45	309.46
433.82	312.06
434.19	314.96
434.56	317.80
434.93	320.45
435.30	323.08
435.68	325.95
436.05	328.77
436.42	331.61
436.79	334.14
437.16	336.80
437.53	339.62
437.90	342.42
438.27	345.19
438.64	347.99
439.01	350.61
439.38	352.86
439.75	354.98
440.13	357.47
440.50	359.85
440.87	361.73
441.24	363.62
441.61	365.79
441.98	367.27
442.35	369.04
442.72	370.92
443.09	372.76
443.46	373.77
443.83	374.34
444.20	374.84
444.57	375.65
444.94	375.93
445.31	376.25
445.68	376.68
446.05	376.73
446.42	376.38
446.79	375.95
447.16	375.46
447.53	375.11
447.90	373.95
448.27	372.75
448.64	371.19
449.01	369.99
449.37	368.01
449.74	366.10
450.11	363.86
450.48	361.39
450.85	358.78
451.22	356.63
451.59	354.66
451.96	352.68
452.33	350.11
452.70	347.79
453.07	344.97
453.43	342.02
453.80	339.22
454.17	336.53
454.54	333.99
454.91	331.29
455.28	328.65
455.65	326.16
456.02	323.71
456.38	321.50
456.75	318.92
457.12	316.70
457.49	314.47
457.86	312.33
458.23	310.45
458.59	308.43
458.96	306.33
459.33	304.45
459.70	302.57
460.07	301.04
460.43	299.33
460.80	297.70
461.17	296.23
461.54	294.79
461.91	293.38
462.27	291.93
462.64	290.65
463.01	289.30
463.38	288.03
463.74	286.67
464.11	285.51
464.48	284.44
464.85	283.32
465.21	282.47
465.58	281.52
465.95	280.43
466.32	279.53
466.68	278.62
467.05	277.70
467.42	276.83
467.78	275.90
468.15	275.01
468.52	274.35
468.88	273.53
469.25	272.76
469.62	272.16
469.98	271.47
470.35	270.83
470.72	270.23
471.08	269.54
471.45	268.98
471.82	268.46
472.18	267.86
472.55	267.41
472.92	266.89
473.28	266.40
473.65	265.92
474.02	265.49
474.38	265.10
474.75	264.81
475.11	264.46
475.48	264.23
475.85	264.00
476.21	263.77
476.58	263.57
476.94	263.43
477.31	263.23
477.67	263.10
478.04	263.04
478.41	262.99
478.77	263.06
479.14	263.01
479.50	263.00
479.87	263.05
480.23	263.14
480.60	263.17
480.96	263.28
481.33	263.51
481.69	263.70
482.06	263.93
482.42	264.12
482.79	264.37
483.15	264.64
483.52	265.01
483.88	265.35
484.25	265.70
484.61	266.09
484.98	266.55
485.34	267.12
485.71	267.69
486.07	268.25
486.44	268.78
486.80	269.45
487.17	270.19
487.53	271.03
487.90	271.89
488.26	272.85
488.62	273.79
488.99	274.75
489.35	275.76
489.72	276.89
490.08	278.05
490.44	279.28
490.81	280.66
491.17	282.00
491.54	283.52
491.90	285.09
492.26	286.75
492.63	288.44
492.99	290.19
493.36	292.10
493.72	294.21
494.08	296.36
494.45	298.64
494.81	301.02
495.17	303.47
495.54	306.02
495.90	308.71
496.26	311.56
496.63	314.52
496.99	317.67
497.35	320.90
497.72	324.34
498.08	327.90
498.44	331.54
498.80	335.50
499.17	339.50
499.53	343.67
499.89	348.04
500.26	352.56
500.62	357.23
500.98	362.15
501.34	367.26
501.71	372.54
502.07	378.01
502.43	383.65
502.79	389.47
503.16	395.54
503.52	401.79
503.88	408.22
504.24	414.85
504.60	421.76
504.97	428.92
505.33	436.27
505.69	443.98
506.05	451.77
506.41	459.65
506.78	467.85
507.14	476.28
507.50	485.06
507.86	494.09
508.22	503.32
508.59	512.52
508.95	522.10
509.31	531.97
509.67	542.07
510.03	552.39
510.39	562.91
510.75	573.73
511.12	584.69
511.48	595.92
511.84	607.43
512.20	618.94
512.56	630.88
512.92	643.07
513.28	655.44
513.64	667.91
514.00	680.57
514.37	693.50
514.73	706.66
515.09	719.71
515.45	733.06
515.81	746.61
516.17	760.69
516.53	774.75
516.89	788.92
517.25	803.09
517.61	817.45
517.97	831.91
518.33	846.36
518.69	861.14
519.05	876.28
519.41	891.47
519.77	907.07
520.13	922.52
520.49	937.94
520.85	953.25
521.21	968.99
521.57	985.32
521.93	1001.10
522.29	1017.38
522.65	1033.57
523.01	1049.79
523.37	1065.88
523.73	1081.92
524.09	1098.04
524.45	1114.38
524.81	1130.94
525.17	1147.84
525.53	1164.84
525.89	1181.69
526.25	1198.48
526.61	1214.79
526.97	1231.57
527.33	1248.02
527.68	1264.68
528.04	1281.13
528.40	1297.89
528.76	1314.91
529.12	1331.44
529.48	1348.32
529.84	1364.39
530.20	1381.01
530.56	1398.06
530.91	1415.48
531.27	1432.32
531.63	1448.86
531.99	1465.38
532.35	1481.46
532.71	1497.23
533.07	1513.30
533.42	1529.20
533.78	1545.28
534.14	1561.56
534.50	1576.78
534.86	1592.66
535.21	1607.84
535.57	1623.79
535.93	1639.25
536.29	1654.01
536.65	1669.03
537.00	1683.84
537.36	1699.14
537.72	1713.64
538.08	1728.06
538.44	1741.81
538.79	1755.73
539.15	1769.32
539.51	1783.10
539.87	1797.50
540.22	1811.24
540.58	1825.11
540.94	1838.46
541.29	1851.34
541.65	1864.00
542.01	1877.24
542.37	1889.49
542.72	1901.93
543.08	1913.60
543.44	1925.87
543.79	1937.30
544.15	1948.36
544.51	1959.81
544.87	1970.88
545.22	1981.86
545.58	1992.02
545.94	2001.85
546.29	2011.64
546.65	2021.52
547.01	2030.76
547.36	2039.36
547.72	2047.90
548.07	2055.67
548.43	2063.92
548.79	2072.00
549.14	2079.55
549.50	2087.02
549.86	2094.75
550.21	2102.03
550.57	2109.34
550.92	2116.01
551.28	2122.98
551.64	2130.07
551.99	2136.74
552.35	2142.85
552.70	2148.97
553.06	2154.87
553.41	2161.15
553.77	2167.17
554.13	2173.35
554.48	2179.53
554.84	2185.00
555.19	2190.33
555.55	2195.59
555.90	2199.91
556.26	2204.69
556.61	2209.33
556.97	2213.52
557.32	2217.65
557.68	2221.69
558.03	2225.89
558.39	2229.62
558.74	2234.21
559.10	2238.14
559.45	2241.81
559.81	2246.06
560.16	2249.64
560.52	2252.94
560.87	2256.39
561.23	2259.18
561.58	2262.09
561.94	2264.63
562.29	2267.04
562.64	2269.63
563.00	2272.22
563.35	2275.82
563.71	2279.13
564.06	2282.48
564.42	2285.30
564.77	2287.76
565.12	2290.06
565.48	2291.94
565.83	2293.65
566.19	2294.91
566.54	2295.73
566.89	2296.73
567.25	2297.26
567.60	2298.75
567.96	2300.39
568.31	2301.20
568.66	2302.14
569.02	2302.60
569.37	2302.90
569.72	2303.66
570.08	2303.85
570.43	2303.90
570.78	2303.20
571.14	2301.48
571.49	2300.00
571.84	2299.84
572.20	2298.67
572.55	2297.66
572.90	2296.16
573.26	2294.78
573.61	2293.08
573.96	2291.22
574.31	2288.30
574.67	2285.32
575.02	2281.58
575.37	2278.19
575.72	2274.25
576.08	2270.91
576.43	2267.68
576.78	2263.88
577.13	2260.77
577.49	2257.67
577.84	2254.02
578.19	2250.40
578.54	2246.85
578.90	2242.58
579.25	2236.75
579.60	2231.73
579.95	2226.61
580.30	2221.47
580.66	2216.40
581.01	2211.52
581.36	2206.68
581.71	2202.44
582.06	2197.95
582.42	2193.61
582.77	2188.31
583.12	2183.85
583.47	2179.08
583.82	2173.96
584.17	2168.66
584.53	2163.23
584.88	2157.54
585.23	2151.80
585.58	2146.39
585.93	2140.87
586.28	2136.20
586.63	2131.17
586.98	2126.17
587.34	2121.59
587.69	2116.77
588.04	2111.33
588.39	2105.55
588.74	2099.04
589.09	2092.83
589.44	2085.95
589.79	2079.82
590.14	2074.35
590.49	2067.77
590.84	2061.41
591.19	2055.28
591.54	2048.87
591.89	2041.31
592.25	2034.42
592.60	2027.20
592.95	2019.46
593.30	2012.11
593.65	2004.50
594.00	1997.44
594.35	1990.15
594.70	1982.07
595.05	1974.75
595.40	1967.54
595.75	1960.05
596.10	1953.77
596.45	1947.00
596.80	1940.93
597.15	1934.25
597.50	1927.02
597.85	1920.53
598.19	1913.91
598.54	1906.79
598.89	1900.20
599.24	1894.51
599.59	1887.80
599.94	1881.72
600.29	1875.36
600.64	1868.71
600.99	1861.13
601.34	1854.30
601.69	1847.44
602.04	1840.51
602.39	1833.30
602.74	1826.49
603.08	1819.70
603.43	1812.93
603.78	1805.57
604.13	1798.28
604.48	1790.94
604.83	1783.99
605.18	1776.91
605.53	1768.85
605.87	1760.91
606.22	1753.52
606.57	1745.35
606.92	1737.99
607.27	1730.58
607.62	1723.60
607.96	1716.31
608.31	1709.76
608.66	1702.08
609.01	1694.38
609.36	1686.72
609.70	1678.61
610.05	1670.47
610.40	1662.82
610.75	1654.55
611.10	1646.91
611.44	1638.55
611.79	1630.53
612.14	1621.87
612.49	1612.80
612.83	1604.44
613.18	1596.33
613.53	1588.26
613.88	1579.67
614.22	1571.45
614.57	1563.03
614.92	1554.98
615.27	1547.33
615.61	1538.92
615.96	1530.92
616.31	1523.33
616.65	1516.02
617.00	1508.48
617.35	1500.96
617.70	1492.56
618.04	1484.04
618.39	1475.83
618.74	1468.19
619.08	1459.94
619.43	1452.42
619.78	1445.51
620.12	1438.22
620.47	1430.66
620.82	1422.64
621.16	1415.43
621.51	1407.72
621.85	1400.07
622.20	1391.54
622.55	1383.29
622.89	1375.54
623.24	1367.99
623.59	1360.62
623.93	1353.06
624.28	1345.70
624.62	1338.09
624.97	1330.98
625.32	1324.24
625.66	1317.21
626.01	1309.92
626.35	1302.46
626.70	1294.64
627.04	1286.80
627.39	1279.14
627.73	1271.80
628.08	1264.83
628.43	1257.30
628.77	1250.05
629.12	1242.47
629.46	1235.40
629.81	1228.02
630.15	1220.71
630.50	1213.27
630.84	1205.07
631.19	1197.23
631.53	1189.83
631.88	1182.24
632.22	1174.56
632.57	1167.21
632.91	1159.63
633.26	1152.31
633.60	1145.05
633.95	1138.05
634.29	1131.24
634.64	1124.46
634.98	1117.06
635.32	1109.86
635.67	1103.39
636.01	1096.63
636.36	1089.86
636.70	1083.34
637.05	1076.78
637.39	1070.34
637.73	1063.83
638.08	1057.97
638.42	1051.94
638.77	1045.50
639.11	1038.82
639.45	1032.44
639.80	1025.78
640.14	1019.44
640.49	1012.88
640.83	1006.50
641.17	1000.24
641.52	993.87
641.86	987.54
642.20	981.71
642.55	975.46
642.89	969.06
643.23	962.63
643.58	956.77
643.92	950.44
644.26	944.36
644.61	938.38
644.95	932.31
645.29	925.66
645.64	918.96
645.98	912.58
646.32	906.90
646.66	900.92
647.01	895.12
647.35	889.40
647.69	883.57
648.04	878.08
648.38	872.21
648.72	866.13
649.06	860.09
649.41	854.24
649.75	848.19
650.09	842.17
650.43	836.33
650.78	830.19
651.12	824.26
651.46	818.45
651.80	812.65
652.14	807.25
652.49	801.87
652.83	796.67
653.17	790.92
653.51	785.11
653.85	779.72
654.20	774.07
654.54	768.14
654.88	762.44
655.22	756.58
655.56	750.89
655.90	745.42
656.25	740.07
656.59	734.65
656.93	729.60
657.27	724.47
657.61	719.09
657.95	714.03
658.29	709.05
658.64	703.84
658.98	698.54
659.32	693.10
659.66	687.87
660.00	682.49
660.34	677.62
660.68	672.77
661.02	667.69
661.36	663.03
661.70	658.49
662.05	654.11
662.39	649.78
662.73	645.38
663.07	641.03
663.41	636.63
663.75	632.09
664.09	627.54
664.43	623.08
664.77	618.93
665.11	614.71
665.45	610.54
665.79	606.44
666.13	602.34
666.47	598.25
666.81	594.11
667.15	590.02
667.49	586.09
667.83	582.23
668.17	578.35
668.51	574.24
668.85	570.24
669.19	566.41
669.53	562.53
669.87	558.62
670.21	554.94
670.55	551.32
670.89	547.95
671.23	544.44
671.57	540.95
671.91	537.43
672.25	533.92
672.58	530.40
672.92	527.06
673.26	523.90
673.60	520.77
673.94	517.71
674.28	514.87
674.62	511.90
674.96	508.77
675.30	505.81
675.64	502.91
675.97	500.16
676.31	497.27
676.65	494.38
676.99	491.69
677.33	488.80
677.67	485.93
678.01	482.90
678.34	479.97
678.68	477.12
679.02	474.33
679.36	471.57
679.70	468.92
680.04	466.12
680.37	463.23
680.71	460.45
681.05	457.80
681.39	455.09
681.73	452.55
682.06	450.09
682.40	447.56
682.74	445.07
683.08	442.49
683.42	439.91
683.75	437.35
684.09	434.84
684.43	432.37
684.77	429.94
685.10	427.61
685.44	425.36
685.78	423.07
686.12	420.82
686.45	418.48
686.79	416.15
687.13	413.95
687.46	411.77
687.80	409.62
688.14	407.45
688.48	405.34
688.81	403.04
689.15	400.87
689.49	398.71
689.82	396.59
690.16	394.52
690.50	392.65
690.83	390.73
691.17	388.68
691.51	386.84
691.84	385.01
692.18	383.02
692.52	380.99
692.85	379.04
693.19	377.15
693.52	375.38
693.86	373.59
694.20	371.82
694.53	370.04
694.87	368.18
695.21	366.39
695.54	364.60
695.88	362.90
696.21	361.19
696.55	359.51
696.88	357.82
697.22	356.12
697.56	354.46
697.89	352.83
698.23	351.26
698.56	349.62
698.90	348.02
699.23	346.41
699.57	344.87
699.90	343.34
700.24	341.76
700.58	340.18
700.91	338.68
701.25	337.23
701.58	335.88
701.92	334.49
702.25	333.08
702.59	331.72
702.92	330.34
703.26	329.03
703.59	327.74
703.93	326.55
704.26	325.34
704.60	324.01
704.93	322.73
705.26	321.46
705.60	320.28
705.93	319.12
706.27	318.08
706.60	317.05
706.94	315.99
707.27	314.86
707.61	313.85
707.94	312.80
708.27	311.71
708.61	310.62
708.94	309.70
709.28	308.71
709.61	307.74
709.94	306.85
710.28	305.81
710.61	304.86
710.95	303.81
711.28	302.89
711.61	301.94
711.95	301.03
712.28	300.10
712.61	299.14
712.95	298.23
713.28	297.31
713.61	296.40
713.95	295.51
714.28	294.72
714.61	293.85
714.95	293.01
715.28	292.19
715.61	291.32
715.95	290.42
716.28	289.56
716.61	288.72
716.95	287.91
717.28	287.18
717.61	286.39
717.94	285.65
718.28	284.86
718.61	284.12
718.94	283.44
719.27	282.80
719.61	282.19
719.94	281.49
720.27	280.78
720.60	280.10
720.94	279.48
721.27	278.91
721.60	278.33
721.93	277.75
722.27	277.16
722.60	276.61
722.93	276.01
723.26	275.51
723.59	274.98
723.93	274.48
724.26	273.94
724.59	273.40
724.92	272.89
725.25	272.41
725.59	271.90
725.92	271.39
726.25	270.86
726.58	270.37
726.91	269.86
727.24	269.44
727.57	268.98
727.91	268.48
728.24	268.00
728.57	267.50
728.90	267.06
729.23	266.58
729.56	266.18
729.89	265.75
730.22	265.23
730.55	264.76
730.89	264.26
731.22	263.81
731.55	263.36
731.88	262.93
732.21	262.47
732.54	262.04
732.87	261.61
733.20	261.21
733.53	260.82
733.86	260.44
734.19	260.06
734.52	259.70
734.85	259.37
735.18	258.92
735.51	258.55
735.84	258.16
736.17	257.78
736.50	257.35
736.83	257.09
737.16	256.79
737.49	256.44
737.82	256.07
738.15	255.73
738.48	255.41
738.81	255.08
739.14	254.78
739.47	254.48
739.80	254.13
740.13	253.82
740.46	253.45
740.79	253.12
741.12	252.77
741.45	252.47
741.78	252.13
742.11	251.85
742.44	251.54
742.77	251.25
743.10	250.96
743.43	250.64
743.75	250.25
744.08	250.11
744.41	249.82
744.74	249.59
745.07	249.30
745.40	249.04
745.73	248.77
746.06	248.50
746.39	248.20
746.71	247.96
747.04	247.71
747.37	247.45
747.70	247.21
748.03	246.93
748.36	246.71
748.68	246.46
749.01	246.19
749.34	245.96
749.67	245.69
750.00	245.48
750.33	245.34
750.65	245.13
750.98	244.78
751.31	244.56
751.64	244.34
751.97	244.18
752.29	243.96
752.62	243.74
752.95	243.49
753.28	243.35
753.60	243.11
753.93	242.95
754.26	242.73
754.59	242.50
754.91	242.33
755.24	242.10
755.57	241.88
755.90	241.73
756.22	241.52
756.55	241.32
756.88	241.14
757.20	240.91
757.53	240.69
757.86	240.53
758.19	240.42
758.51	240.25
758.84	240.04
759.17	239.86
759.49	239.70
759.82	239.61
760.15	239.44
760.47	239.31
760.80	239.13
761.13	239.06
761.45	238.93
761.78	238.79
762.11	238.69
762.43	238.58
762.76	238.45
763.08	238.34
763.41	238.25
763.74	238.11
764.06	237.98
764.39	237.87
764.71	237.73
765.04	237.54
765.37	237.40
765.69	237.33
766.02	237.20
766.34	237.07
766.67	236.92
767.00	236.79
767.32	236.74
767.65	236.69
767.97	236.54
768.30	236.45
768.62	236.36
768.95	236.19
769.27	236.06
769.60	235.94
769.92	235.84
770.25	235.71
770.57	235.62
770.90	235.51
771.22	235.40
771.55	235.31
771.87	235.24
772.20	235.14
772.52	235.11
772.85	235.12
773.17	235.06
773.50	234.95
773.82	234.85
774.15	234.71
774.47	234.55
774.80	234.44
775.12	234.33
775.45	234.21
775.77	234.14
776.09	234.05
776.42	233.98
776.74	233.91
777.07	233.79
777.39	233.69
777.72	233.64
778.04	233.57
778.36	233.49
778.69	233.42
779.01	233.32
779.33	233.16
779.66	232.97
779.98	232.87
780.31	232.80
780.63	232.78
780.95	232.73
781.28	232.65
781.60	232.61
781.92	232.53
782.25	232.50
782.57	232.42
782.89	232.35
783.22	232.26
783.54	232.16
783.86	232.11
784.19	232.05
784.51	232.01
784.83	231.94
785.16	231.89
785.48	231.79
785.80	231.77
786.12	231.73
786.45	231.67
786.77	231.64
787.09	231.56
787.42	231.45
787.74	231.36
788.06	231.33
788.38	231.26
788.71	231.25
789.03	231.15
789.35	231.13
789.67	231.10
789.99	231.07
790.32	231.04
790.64	231.02
790.96	231.07
791.28	230.96
791.61	230.94
791.93	230.89
792.25	230.86
792.57	230.87
792.89	230.79
793.21	230.78
793.54	230.74
793.86	230.70
794.18	230.70
794.50	230.68
794.82	230.65
795.14	230.65
795.47	230.59
795.79	230.57
796.11	230.53
796.43	230.47
796.75	230.45
797.07	230.41
797.39	230.36
797.71	230.26
798.04	230.25
798.36	230.21
798.68	230.16
799.00	230.16
799.32	230.09
799.64	230.10
799.96	230.02
800.28	230.00
800.60	229.98
800.92	229.95
801.24	229.88
801.56	229.86
801.89	229.81
802.21	229.79
802.53	229.77
802.85	229.77
803.17	229.81
803.49	229.76
803.81	229.76
804.13	229.74
804.45	229.69
804.77	229.73
805.09	229.69
805.41	229.66
805.73	229.63
806.05	229.59
806.37	229.55
806.69	229.60
807.01	229.57
807.33	229.56
807.65	229.46
807.97	229.52
808.28	229.49
808.60	229.49
808.92	229.45
809.24	229.49
809.56	229.43
809.88	229.36
810.20	229.33
810.52	229.32
810.84	229.31
811.16	229.26
811.48	229.22
811.80	229.26
812.12	229.25
812.43	229.25
812.75	229.23
813.07	229.24
813.39	229.19
813.71	229.19
814.03	229.16
814.35	229.18
814.67	229.10
814.98	229.08
815.30	229.04
815.62	229.03
815.94	228.94
816.26	228.97
816.58	228.92
816.89	228.92
817.21	228.88
817.53	228.86
817.85	228.87
818.17	228.81
818.48	228.77
818.80	228.74
819.12	228.63
819.44	228.57
819.76	228.53
820.07	228.52
820.39	228.44
820.71	228.44
821.03	228.43
821.34	228.40
821.66	228.34
821.98	228.32
822.30	228.26
822.61	228.31
822.93	228.27
823.25	228.26
823.57	228.23
823.88	228.22
824.20	228.16
824.52	228.15
824.83	228.15
825.15	228.08
825.47	228.05
825.79	228.10
826.10	228.09
826.42	228.05
826.74	228.03
827.05	228.04
827.37	228.02
827.69	227.99
828.00	227.97
828.32	228.02
828.64	228.00
828.95	228.07
829.27	228.01
829.58	228.02
829.90	228.03
830.22	228.02
830.53	227.97
830.85	227.99
831.17	227.95
831.48	227.91
831.80	227.93
832.11	227.93
832.43	227.92
832.75	227.91
833.06	228.00
833.38	227.94
833.69	227.93
834.01	227.91
834.32	227.89
834.64	227.87
834.96	227.83
835.27	227.80
835.59	227.76
835.90	227.74
836.22	227.71
836.53	227.64
836.85	227.64
837.16	227.77
837.48	227.77
837.79	227.82
838.11	227.82
838.42	227.81
838.74	227.81
839.05	227.77
839.37	227.78
839.68	227.69
840.00	227.72
840.31	227.74
840.63	227.72
840.94	227.74
841.26	227.78
841.57	227.80
841.88	227.83
842.20	227.81
842.51	227.80
842.83	227.80
843.14	227.94
843.46	227.96
843.77	227.91
844.08	227.90
844.40	227.84
844.71	227.86
845.03	227.82
845.34	227.85
845.65	227.84
845.97	227.86
846.28	227.88
846.60	227.87
846.91	227.83
847.22	227.81
847.54	227.83
847.85	227.82
848.16	227.80
848.48	227.76
848.79	227.79
849.10	227.79
849.42	227.79
849.73	227.67
850.04	227.64
850.36	227.53
850.67	227.53
850.98	227.55
851.30	227.54
851.61	227.54
851.92	227.53
852.23	227.57
852.55	227.57
852.86	227.54
853.17	227.56
853.49	227.58
853.80	227.63
854.11	227.57
854.42	227.55
854.74	227.54
855.05	227.55
855.36	227.52
855.67	227.52
855.99	227.49
856.30	227.60
856.61	227.59
856.92	227.61
857.23	227.62
857.55	227.59
857.86	227.57
858.17	227.58
858.48	227.55
858.79	227.51
859.11	227.48
859.42	227.48
859.73	227.42
860.04	227.40
860.35	227.36
860.66	227.37
860.98	227.35
861.29	227.37
861.60	227.35
861.91	227.34
862.22	227.31
862.53	227.31
862.84	227.18
863.16	227.20
863.47	227.19
863.78	227.17
864.09	227.16
864.40	227.17
864.71	227.14
865.02	227.14
865.33	227.14
865.64	227.15
865.95	227.14
866.27	227.22
866.58	227.22
866.89	227.23
867.20	227.23
867.51	227.23
867.82	227.20
868.13	227.24
868.44	227.22
868.75	227.25
869.06	227.23
869.37	227.26
869.68	227.22
869.99	227.22
870.30	227.22
870.61	227.25
870.92	227.25
871.23	227.24
871.54	227.24
871.85	227.27
872.16	227.26
872.47	227.25
872.78	227.19
873.09	227.21
873.40	227.18
873.71	227.19
874.02	227.20
874.33	227.20
874.64	227.17
874.95	227.21
875.26	227.19
875.56	227.21
875.87	227.20
876.18	227.20
876.49	227.29
876.80	227.28
877.11	227.27
877.42	227.26
877.73	227.29
878.04	227.29
878.35	227.29
878.66	227.31
878.96	227.31
879.27	227.30
879.58	227.29
879.89	227.30
880.20	227.32
880.51	227.32
880.82	227.32
881.12	227.33
881.43	227.31
881.74	227.30
882.05	227.28
882.36	227.28
882.67	227.30
882.97	227.21
883.28	227.20
883.59	227.21
883.90	227.24
884.21	227.26
884.51	227.27
884.82	227.27
885.13	227.27
885.44	227.29
885.74	227.29
886.05	227.29
886.36	227.29
886.67	227.24
886.98	227.30
887.28	227.33
887.59	227.30
887.90	227.29
888.20	227.31
888.51	227.33
888.82	227.35
889.13	227.36
889.43	227.42
889.74	227.38
890.05	227.38
890.35	227.36
890.66	227.30
890.97	227.26
891.28	227.24
891.58	227.23
891.89	227.20
892.20	227.19
892.50	227.15
892.81	227.16
893.12	227.18
893.42	227.13
893.73	227.07
894.04	227.08
894.34	227.08
894.65	227.07
894.95	227.06
895.26	227.02
895.57	227.03
895.87	226.96
896.18	226.98
896.48	226.97
896.79	226.95
897.10	226.96
897.40	226.99
897.71	226.95
898.01	226.95
898.32	226.93
898.63	226.92
898.93	226.94
899.24	226.94
899.54	226.88
899.85	226.83
900.15	226.88
900.46	226.86
900.76	226.86
901.07	226.82
901.38	226.81
901.68	226.84
901.99	226.78
902.29	226.79
902.60	226.79
902.90	226.78
903.21	226.76
903.51	226.78
903.82	226.80
904.12	226.82
904.43	226.84
904.73	226.84
905.03	226.84
905.34	226.91
905.64	226.90
905.95	226.93
906.25	226.97
906.56	226.92
906.86	226.96
907.17	226.99
907.47	227.00
907.77	227.01
908.08	227.01
908.38	227.07
908.69	227.09
908.99	227.12
909.30	227.15
909.60	227.18
909.90	227.18
910.21	227.15
910.51	227.13
910.81	227.13
911.12	227.16
911.42	227.16
911.73	227.09
912.03	227.11
912.33	227.16
912.64	227.16
912.94	227.19
913.24	227.18
913.55	227.17
913.85	227.15
914.15	227.17
914.46	227.16
914.76	227.11
915.06	227.09
915.37	227.09
915.67	227.09
915.97	227.08
916.27	227.06
916.58	227.03
916.88	227.06
917.18	227.03
917.49	227.11
917.79	227.10
918.09	227.15
918.39	227.14
918.70	227.11
919.00	227.10
919.30	227.16
919.60	227.17
919.91	227.13
920.21	227.19
920.51	227.17
920.81	227.16
921.12	227.18
921.42	227.17
921.72	227.14
922.02	227.13
922.32	227.17
922.63	227.15
922.93	227.23
923.23	227.20
923.53	227.20
923.83	227.10
924.13	227.11
924.44	227.05
924.74	227.07
925.04	227.09
925.34	227.06
925.64	226.98
925.94	226.91
926.24	226.96
926.55	226.93
926.85	226.94
927.15	226.96
927.45	226.96
927.75	226.95
928.05	226.97
928.35	226.96
928.65	226.93
928.95	226.96
929.26	226.94
929.56	226.99
929.86	227.02
930.16	227.00
930.46	227.01
930.76	227.02
931.06	226.96
931.36	226.93
931.66	226.95
931.96	226.95
932.26	227.00
932.56	226.99
932.86	227.00
933.16	226.97
933.46	226.94
933.76	226.93
934.06	226.97
934.36	227.00
934.66	226.97
934.96	226.99
935.26	226.98
935.56	226.94
935.86	226.89
936.16	226.85
936.46	226.87
936.76	226.88
937.06	226.88
937.36	226.90
937.66	226.91
937.96	226.93
938.26	226.92
938.56	226.89
938.86	226.87
939.16	226.88
939.46	226.90
939.76	226.92
940.06	226.89
940.35	226.83
940.65	226.80
940.95	226.80
941.25	226.74
941.55	226.75
941.85	226.75
942.15	226.77
942.45	226.83
942.75	226.82
943.04	226.83
943.34	226.85
943.64	226.81
943.94	226.79
944.24	226.79
944.54	226.80
944.84	226.80
945.13	226.83
945.43	226.80
945.73	226.83
946.03	226.81
946.33	226.83
946.62	226.85
946.92	226.82
947.22	226.89
947.52	226.91
947.82	226.93
948.11	226.94
948.41	226.96
948.71	226.92
949.01	226.94
949.31	226.91
949.60	226.90
949.90	226.95
950.20	226.96
950.50	226.94
950.79	226.96
951.09	226.98
951.39	226.95
951.69	226.97
951.98	226.97
952.28	227.02
952.58	227.01
952.87	227.00
953.17	227.02
953.47	227.00
953.76	227.02
954.06	226.99
954.36	226.97
954.66	226.95
954.95	227.00
955.25	226.99
955.55	227.00
955.84	226.99
956.14	227.00
956.44	227.00
956.73	227.01
957.03	226.99
957.32	227.02
957.62	227.03
957.92	227.06
958.21	227.06
958.51	227.13
958.81	227.13
959.10	227.14
959.40	227.16
959.69	227.14
959.99	227.13
960.29	227.12
960.58	227.10
960.88	227.14
961.17	227.11
961.47	227.09
961.76	227.05
962.06	227.07
962.36	227.07
962.65	227.07
962.95	227.07
963.24	227.06
963.54	227.01
963.83	227.00
964.13	226.96
964.42	226.94
964.72	226.85
965.01	226.88
965.31	226.87
965.60	226.85
965.90	226.94
966.19	226.90
966.49	226.90
966.78	226.89
967.08	226.89
967.37	226.89
967.67	226.86
967.96	226.89
968.26	226.86
968.55	226.84
968.85	226.83
969.14	226.82
969.43	226.83
969.73	226.83
970.02	226.85
970.32	226.82
970.61	226.81
970.91	226.80
971.20	226.77
971.49	226.75
971.79	226.72
972.08	226.61
972.38	226.64
972.67	226.65
972.96	226.66
973.26	226.63
973.55	226.65
973.85	226.67
974.14	226.69
974.43	226.72
974.73	226.66
975.02	226.64
975.31	226.63
975.61	226.59
975.90	226.57
976.19	226.54
976.49	226.56
976.78	226.53
977.07	226.54
977.37	226.56
977.66	226.56
977.95	226.57
978.24	226.61
978.54	226.62
978.83	226.63
979.12	226.64
979.42	226.63
979.71	226.61
980.00	226.59
980.29	226.58
980.59	226.53
980.88	226.57
981.17	226.59
981.46	226.61
981.76	226.66
982.05	226.67
982.34	226.69
982.63	226.69
982.93	226.73
983.22	226.72
983.51	226.68
983.80	226.73
984.09	226.74
984.39	226.72
984.68	226.70
984.97	226.71
985.26	226.72
985.55	226.71
985.85	226.71
986.14	226.74
986.43	226.75
986.72	226.78
987.01	226.77
987.30	226.75
987.59	226.75
987.89	226.73
988.18	226.72
988.47	226.72
988.76	226.71
989.05	226.68
989.34	226.68
989.63	226.75
989.92	226.72
990.22	226.71
990.51	226.71
990.80	226.69
991.09	226.71
991.38	226.70
991.67	226.71
991.96	226.72
992.25	226.71
992.54	226.70
992.83	226.69
993.12	226.71
993.41	226.76
993.70	226.79
993.99	226.83
994.28	226.85
994.58	226.86
994.87	226.88
995.16	226.88
995.45	226.89
995.74	226.85
996.03	226.88
996.32	226.93
996.61	226.96
996.90	226.99
997.19	226.99
997.48	227.00
997.77	227.00
998.06	226.99
998.34	226.99
998.63	226.96
998.92	227.00
999.21	227.03
999.50	227.03
999.79	226.99
1000.08	226.98
1000.37	226.97
1000.66	226.95
1000.95	226.97
1001.24	226.97
1001.53	227.01
1001.82	227.02
1002.11	226.99
1002.40	226.98
1002.68	227.00
1002.97	227.04
1003.26	227.02
1003.55	227.03
1003.84	227.05
1004.13	227.10
1004.42	227.08
1004.71	227.11
1004.99	227.09
1005.28	227.11
1005.57	227.10
1005.86	227.10
1006.15	227.11
1006.44	227.11
1006.72	227.10
1007.01	227.07
1007.30	227.08
1007.59	227.02
1007.88	227.02
1008.17	227.03
1008.45	227.00
1008.74	226.94
1009.03	226.88
1009.32	226.89
1009.60	226.85
1009.89	226.84
1010.18	226.81
1010.47	226.81
1010.76	226.79
1011.04	226.79
1011.33	226.78
1011.62	226.76
1011.91	226.77
1012.19	226.77
1012.48	226.76
1012.77	226.77
1013.05	226.80
1013.34	226.82
1013.63	226.84
1013.92	226.80
1014.20	226.79
1014.49	226.77
1014.78	226.79
1015.06	226.79
1015.35	226.77
1015.64	226.81
1015.92	226.81
1016.21	226.82
1016.50	226.82
1016.78	226.81
1017.07	226.80
1017.36	226.77
1017.64	226.75
1017.93	226.73
1018.22	226.69
1018.50	226.69
1018.79	226.68
1019.08	226.63
1019.36	226.60
1019.65	226.58
1019.93	226.64
1020.22	226.63
1020.51	226.67
1020.79	226.65
1021.08	226.31
1021.36	226.38
1021.65	226.62
1021.94	226.25
1022.22	226.74
1022.51	226.20
1022.79	227.35
1023.08	226.39
1023.36	227.45
1023.65	226.43
>>>>>End Processed Spectral Data<<<<<
