SpectraSuite Data File
++++++++++++++++++++++++++++++++++++
Date: Fri Feb 01 15:42:46 EST 2013
User: group
Dark Spectrum Present: No
Reference Spectrum Present: No
Number of Sampled Component Spectra: 1
Spectrometers: USB2E7196
Integration Time (usec): 35000 (USB2E7196)
Spectra Averaged: 100 (USB2E7196)
Boxcar Smoothing: 10 (USB2E7196)
Correct for Electrical Dark: No (USB2E7196)
Strobe/Lamp Enabled: No (USB2E7196)
Correct for Detector Non-linearity: No (USB2E7196)
Correct for Stray Light: No (USB2E7196)
Number of Pixels in Processed Spectrum: 2048
>>>>>Begin Processed Spectral Data<<<<<
339.09	0.00
339.48	215.08
339.86	216.14
340.24	218.14
340.63	219.04
341.01	221.87
341.39	221.82
341.78	223.43
342.16	224.85
342.54	225.42
342.93	213.33
343.31	224.12
343.69	224.64
344.07	225.13
344.46	225.51
344.84	225.90
345.22	226.13
345.60	226.36
345.99	226.52
346.37	226.61
346.75	226.68
347.13	226.72
347.52	226.77
347.90	226.85
348.28	226.86
348.66	226.90
349.05	226.90
349.43	226.94
349.81	226.98
350.19	226.98
350.57	227.05
350.96	227.10
351.34	227.19
351.72	227.28
352.10	227.37
352.48	227.44
352.87	227.48
353.25	227.55
353.63	227.62
354.01	227.68
354.39	227.78
354.77	227.85
355.15	227.97
355.54	228.01
355.92	228.05
356.30	228.12
356.68	228.26
357.06	228.30
357.44	228.36
357.82	228.42
358.20	228.50
358.58	228.54
358.97	228.63
359.35	228.69
359.73	228.77
360.11	228.83
360.49	228.89
360.87	228.94
361.25	228.99
361.63	229.09
362.01	229.18
362.39	229.19
362.77	229.22
363.15	229.23
363.53	229.26
363.91	229.28
364.29	229.30
364.67	229.20
365.05	229.27
365.43	229.30
365.81	229.33
366.19	229.39
366.57	229.41
366.95	229.40
367.33	229.39
367.71	229.36
368.09	229.36
368.47	229.36
368.85	229.34
369.23	229.35
369.61	229.28
369.99	229.24
370.37	229.20
370.75	229.21
371.13	229.14
371.51	229.11
371.89	229.08
372.27	229.06
372.65	229.05
373.03	228.98
373.41	228.91
373.78	228.84
374.16	228.75
374.54	228.71
374.92	228.65
375.30	228.57
375.68	228.52
376.06	228.44
376.44	228.38
376.82	228.32
377.19	228.24
377.57	228.17
377.95	228.05
378.33	228.01
378.71	227.90
379.09	227.87
379.47	227.84
379.84	227.76
380.22	227.68
380.60	227.62
380.98	227.55
381.36	227.47
381.73	227.39
382.11	227.33
382.49	227.25
382.87	227.16
383.25	227.12
383.62	227.13
384.00	227.07
384.38	227.01
384.76	226.97
385.13	226.94
385.51	226.88
385.89	226.86
386.27	226.80
386.64	226.77
387.02	226.72
387.40	226.68
387.78	226.65
388.15	226.60
388.53	226.55
388.91	226.53
389.29	226.48
389.66	226.48
390.04	226.46
390.42	226.46
390.79	226.45
391.17	226.41
391.55	226.32
391.92	226.31
392.30	226.29
392.68	226.30
393.05	226.28
393.43	226.29
393.81	226.30
394.18	226.30
394.56	226.33
394.94	226.38
395.31	226.36
395.69	226.43
396.06	226.48
396.44	226.52
396.82	226.56
397.19	226.66
397.57	226.69
397.95	226.71
398.32	226.72
398.70	226.78
399.07	226.85
399.45	226.90
399.82	226.94
400.20	227.03
400.58	227.08
400.95	227.12
401.33	227.21
401.70	227.36
402.08	227.44
402.45	227.52
402.83	227.59
403.20	227.70
403.58	227.75
403.95	227.85
404.33	227.95
404.71	228.05
405.08	228.25
405.46	228.37
405.83	228.52
406.21	228.70
406.58	228.87
406.96	229.02
407.33	229.17
407.70	229.39
408.08	229.65
408.45	229.87
408.83	230.14
409.20	230.30
409.58	230.48
409.95	230.75
410.33	231.03
410.70	231.32
411.08	231.62
411.45	231.94
411.82	232.27
412.20	232.61
412.57	233.01
412.95	233.27
413.32	233.70
413.69	234.14
414.07	234.56
414.44	235.01
414.82	235.50
415.19	236.11
415.56	236.68
415.94	237.25
416.31	237.89
416.68	238.51
417.06	239.28
417.43	239.99
417.81	240.75
418.18	241.53
418.55	242.35
418.93	243.22
419.30	244.14
419.67	245.10
420.04	246.07
420.42	247.10
420.79	248.32
421.16	249.49
421.54	250.63
421.91	251.87
422.28	253.14
422.66	254.47
423.03	255.75
423.40	257.06
423.77	258.46
424.15	259.87
424.52	261.37
424.89	262.99
425.26	264.55
425.64	266.02
426.01	267.66
426.38	269.34
426.75	271.00
427.13	272.73
427.50	274.52
427.87	276.40
428.24	278.30
428.61	280.05
428.99	281.99
429.36	284.13
429.73	286.19
430.10	288.23
430.47	290.32
430.85	292.44
431.22	294.68
431.59	297.06
431.96	299.32
432.33	301.77
432.70	304.15
433.08	306.96
433.45	309.57
433.82	312.15
434.19	315.03
434.56	317.86
434.93	320.54
435.30	323.14
435.68	326.05
436.05	328.81
436.42	331.60
436.79	334.12
437.16	336.83
437.53	339.65
437.90	342.44
438.27	345.19
438.64	348.03
439.01	350.63
439.38	352.88
439.75	355.08
440.13	357.58
440.50	359.88
440.87	361.75
441.24	363.70
441.61	365.78
441.98	367.26
442.35	369.03
442.72	370.87
443.09	372.71
443.46	373.67
443.83	374.28
444.20	374.74
444.57	375.57
444.94	375.85
445.31	376.20
445.68	376.52
446.05	376.55
446.42	376.11
446.79	375.67
447.16	375.17
447.53	374.83
447.90	373.68
448.27	372.52
448.64	370.90
449.01	369.76
449.37	367.82
449.74	365.94
450.11	363.69
450.48	361.21
450.85	358.62
451.22	356.45
451.59	354.42
451.96	352.47
452.33	349.82
452.70	347.47
453.07	344.62
453.43	341.72
453.80	338.96
454.17	336.30
454.54	333.74
454.91	331.04
455.28	328.35
455.65	325.85
456.02	323.40
456.38	321.27
456.75	318.61
457.12	316.36
457.49	314.16
457.86	312.00
458.23	310.12
458.59	308.13
458.96	306.10
459.33	304.25
459.70	302.41
460.07	300.94
460.43	299.20
460.80	297.63
461.17	296.20
461.54	294.72
461.91	293.32
462.27	291.91
462.64	290.69
463.01	289.35
463.38	288.08
463.74	286.73
464.11	285.56
464.48	284.53
464.85	283.42
465.21	282.58
465.58	281.67
465.95	280.61
466.32	279.70
466.68	278.81
467.05	277.93
467.42	277.08
467.78	276.14
468.15	275.28
468.52	274.59
468.88	273.71
469.25	272.95
469.62	272.34
469.98	271.66
470.35	271.02
470.72	270.43
471.08	269.75
471.45	269.22
471.82	268.66
472.18	268.07
472.55	267.66
472.92	267.10
473.28	266.64
473.65	266.15
474.02	265.74
474.38	265.36
474.75	264.99
475.11	264.61
475.48	264.33
475.85	264.09
476.21	263.89
476.58	263.74
476.94	263.60
477.31	263.42
477.67	263.27
478.04	263.17
478.41	263.12
478.77	263.18
479.14	263.08
479.50	263.14
479.87	263.22
480.23	263.30
480.60	263.38
480.96	263.47
481.33	263.74
481.69	263.89
482.06	264.06
482.42	264.28
482.79	264.55
483.15	264.87
483.52	265.25
483.88	265.59
484.25	265.97
484.61	266.39
484.98	266.84
485.34	267.38
485.71	267.96
486.07	268.54
486.44	269.09
486.80	269.82
487.17	270.53
487.53	271.34
487.90	272.16
488.26	273.08
488.62	274.05
488.99	274.96
489.35	275.99
489.72	277.11
490.08	278.30
490.44	279.52
490.81	280.85
491.17	282.19
491.54	283.66
491.90	285.17
492.26	286.82
492.63	288.53
492.99	290.29
493.36	292.17
493.72	294.21
494.08	296.33
494.45	298.55
494.81	300.90
495.17	303.35
495.54	305.96
495.90	308.62
496.26	311.40
496.63	314.37
496.99	317.50
497.35	320.78
497.72	324.18
498.08	327.73
498.44	331.41
498.80	335.33
499.17	339.35
499.53	343.51
499.89	347.88
500.26	352.40
500.62	357.09
500.98	362.05
501.34	367.08
501.71	372.40
502.07	377.84
502.43	383.46
502.79	389.29
503.16	395.33
503.52	401.62
503.88	408.05
504.24	414.67
504.60	421.58
504.97	428.68
505.33	435.98
505.69	443.65
506.05	451.42
506.41	459.30
506.78	467.52
507.14	476.02
507.50	484.72
507.86	493.72
508.22	502.91
508.59	512.07
508.95	521.69
509.31	531.52
509.67	541.63
510.03	551.93
510.39	562.46
510.75	573.32
511.12	584.21
511.48	595.57
511.84	607.03
512.20	618.51
512.56	630.48
512.92	642.73
513.28	655.06
513.64	667.57
514.00	680.27
514.37	693.14
514.73	706.23
515.09	719.33
515.45	732.64
515.81	746.22
516.17	760.30
516.53	774.37
516.89	788.55
517.25	802.73
517.61	817.18
517.97	831.69
518.33	846.09
518.69	860.90
519.05	875.82
519.41	890.99
519.77	906.69
520.13	922.16
520.49	937.52
520.85	952.93
521.21	968.66
521.57	984.96
521.93	1000.80
522.29	1017.13
522.65	1033.43
523.01	1049.64
523.37	1065.67
523.73	1081.84
524.09	1098.00
524.45	1114.38
524.81	1131.12
525.17	1147.93
525.53	1164.82
525.89	1181.70
526.25	1198.54
526.61	1214.92
526.97	1231.68
527.33	1248.03
527.68	1264.65
528.04	1281.17
528.40	1297.92
528.76	1314.92
529.12	1331.52
529.48	1348.39
529.84	1364.46
530.20	1380.95
530.56	1397.99
530.91	1415.53
531.27	1432.33
531.63	1448.92
531.99	1465.35
532.35	1481.20
532.71	1497.00
533.07	1513.25
533.42	1529.11
533.78	1545.14
534.14	1561.46
534.50	1576.86
534.86	1592.73
535.21	1608.04
535.57	1624.00
535.93	1639.29
536.29	1654.07
536.65	1669.08
537.00	1683.84
537.36	1699.13
537.72	1713.72
538.08	1728.16
538.44	1741.80
538.79	1755.63
539.15	1769.20
539.51	1783.04
539.87	1797.52
540.22	1811.29
540.58	1825.12
540.94	1838.42
541.29	1851.34
541.65	1864.14
542.01	1877.30
542.37	1889.56
542.72	1901.80
543.08	1913.47
543.44	1926.04
543.79	1937.32
544.15	1948.34
544.51	1959.88
544.87	1970.86
545.22	1981.64
545.58	1991.80
545.94	2001.69
546.29	2011.54
546.65	2021.46
547.01	2030.62
547.36	2039.19
547.72	2047.55
548.07	2055.34
548.43	2063.62
548.79	2071.79
549.14	2079.32
549.50	2086.65
549.86	2094.41
550.21	2101.74
550.57	2108.94
550.92	2115.48
551.28	2122.57
551.64	2129.61
551.99	2136.05
552.35	2142.24
552.70	2148.47
553.06	2154.41
553.41	2160.61
553.77	2166.63
554.13	2172.64
554.48	2178.81
554.84	2184.16
555.19	2189.59
555.55	2194.72
555.90	2199.06
556.26	2203.83
556.61	2208.55
556.97	2212.74
557.32	2216.86
557.68	2221.08
558.03	2225.38
558.39	2229.22
558.74	2233.81
559.10	2237.72
559.45	2241.53
559.81	2245.92
560.16	2249.74
560.52	2253.04
560.87	2256.61
561.23	2259.29
561.58	2262.39
561.94	2264.84
562.29	2267.37
562.64	2270.04
563.00	2272.66
563.35	2276.35
563.71	2279.43
564.06	2282.55
564.42	2285.52
564.77	2288.11
565.12	2290.30
565.48	2292.17
565.83	2293.80
566.19	2294.99
566.54	2295.94
566.89	2296.95
567.25	2297.39
567.60	2298.66
567.96	2300.24
568.31	2301.04
568.66	2302.04
569.02	2302.39
569.37	2302.81
569.72	2303.65
570.08	2303.83
570.43	2303.84
570.78	2303.08
571.14	2301.54
571.49	2300.22
571.84	2299.75
572.20	2298.45
572.55	2297.30
572.90	2295.73
573.26	2294.46
573.61	2292.91
573.96	2290.94
574.31	2288.00
574.67	2284.95
575.02	2281.37
575.37	2278.11
575.72	2274.08
576.08	2270.90
576.43	2267.67
576.78	2263.98
577.13	2260.84
577.49	2257.70
577.84	2254.21
578.19	2250.55
578.54	2246.82
578.90	2242.41
579.25	2237.00
579.60	2232.05
579.95	2227.03
580.30	2222.02
580.66	2216.72
581.01	2211.74
581.36	2206.84
581.71	2202.64
582.06	2198.25
582.42	2193.67
582.77	2188.31
583.12	2183.86
583.47	2178.95
583.82	2173.93
584.17	2168.56
584.53	2163.03
584.88	2157.40
585.23	2151.53
585.58	2146.03
585.93	2140.64
586.28	2136.06
586.63	2130.90
586.98	2125.80
587.34	2121.12
587.69	2116.30
588.04	2111.06
588.39	2105.31
588.74	2098.89
589.09	2092.72
589.44	2085.76
589.79	2079.89
590.14	2074.36
590.49	2067.70
590.84	2061.42
591.19	2055.27
591.54	2048.86
591.89	2041.42
592.25	2034.46
592.60	2027.30
592.95	2019.56
593.30	2012.26
593.65	2004.62
594.00	1997.59
594.35	1990.45
594.70	1982.31
595.05	1974.83
595.40	1967.54
595.75	1960.01
596.10	1953.70
596.45	1946.96
596.80	1940.71
597.15	1933.94
597.50	1926.63
597.85	1920.31
598.19	1913.60
598.54	1906.47
598.89	1899.77
599.24	1893.84
599.59	1887.19
599.94	1880.95
600.29	1874.80
600.64	1868.08
600.99	1860.60
601.34	1853.74
601.69	1846.81
602.04	1839.95
602.39	1832.66
602.74	1825.85
603.08	1819.05
603.43	1812.38
603.78	1805.00
604.13	1797.86
604.48	1790.52
604.83	1783.80
605.18	1776.75
605.53	1768.74
605.87	1760.77
606.22	1753.52
606.57	1745.60
606.92	1738.35
607.27	1731.10
607.62	1724.17
607.96	1716.89
608.31	1710.18
608.66	1702.58
609.01	1694.74
609.36	1687.18
609.70	1679.21
610.05	1671.03
610.40	1663.40
610.75	1655.00
611.10	1647.31
611.44	1638.90
611.79	1630.96
612.14	1622.22
612.49	1613.13
612.83	1604.73
613.18	1596.59
613.53	1588.59
613.88	1580.00
614.22	1571.56
614.57	1563.04
614.92	1554.98
615.27	1547.40
615.61	1539.00
615.96	1530.99
616.31	1523.54
616.65	1516.18
617.00	1508.66
617.35	1501.01
617.70	1492.62
618.04	1484.24
618.39	1476.05
618.74	1468.44
619.08	1460.05
619.43	1452.52
619.78	1445.50
620.12	1438.34
620.47	1430.86
620.82	1422.72
621.16	1415.35
621.51	1407.88
621.85	1400.24
622.20	1391.59
622.55	1383.14
622.89	1375.32
623.24	1367.80
623.59	1360.33
623.93	1352.88
624.28	1345.67
624.62	1338.14
624.97	1331.01
625.32	1324.30
625.66	1317.24
626.01	1310.12
626.35	1302.68
626.70	1294.88
627.04	1287.23
627.39	1279.54
627.73	1272.08
628.08	1265.13
628.43	1257.77
628.77	1250.33
629.12	1242.74
629.46	1235.65
629.81	1228.41
630.15	1221.26
630.50	1213.83
630.84	1205.69
631.19	1197.84
631.53	1190.35
631.88	1182.81
632.22	1175.21
632.57	1167.79
632.91	1160.21
633.26	1152.80
633.60	1145.55
633.95	1138.52
634.29	1131.55
634.64	1124.76
634.98	1117.40
635.32	1110.19
635.67	1103.70
636.01	1097.08
636.36	1090.27
636.70	1083.68
637.05	1077.06
637.39	1070.53
637.73	1063.94
638.08	1058.13
638.42	1052.03
638.77	1045.55
639.11	1038.97
639.45	1032.53
639.80	1025.84
640.14	1019.47
640.49	1012.91
640.83	1006.64
641.17	1000.30
641.52	993.81
641.86	987.35
642.20	981.50
642.55	975.18
642.89	968.54
643.23	962.04
643.58	956.30
643.92	950.17
644.26	944.01
644.61	938.04
644.95	931.94
645.29	925.22
645.64	918.49
645.98	912.14
646.32	906.38
646.66	900.30
647.01	894.48
647.35	888.85
647.69	883.02
648.04	877.34
648.38	871.57
648.72	865.63
649.06	859.59
649.41	853.71
649.75	847.77
650.09	841.89
650.43	836.07
650.78	829.90
651.12	823.93
651.46	818.30
651.80	812.49
652.14	807.19
652.49	801.83
652.83	796.73
653.17	791.00
653.51	785.21
653.85	779.90
654.20	774.29
654.54	768.22
654.88	762.62
655.22	756.80
655.56	751.12
655.90	745.68
656.25	740.40
656.59	735.09
656.93	730.01
657.27	724.87
657.61	719.53
657.95	714.47
658.29	709.44
658.64	704.21
658.98	698.93
659.32	693.43
659.66	688.23
660.00	682.83
660.34	677.96
660.68	673.02
661.02	668.01
661.36	663.35
661.70	658.88
662.05	654.46
662.39	650.12
662.73	645.67
663.07	641.26
663.41	636.84
663.75	632.27
664.09	627.77
664.43	623.37
664.77	619.19
665.11	614.95
665.45	610.77
665.79	606.63
666.13	602.52
666.47	598.45
666.81	594.26
667.15	590.18
667.49	586.25
667.83	582.46
668.17	578.54
668.51	574.41
668.85	570.37
669.19	566.51
669.53	562.65
669.87	558.77
670.21	555.11
670.55	551.47
670.89	548.11
671.23	544.60
671.57	541.09
671.91	537.54
672.25	534.04
672.58	530.56
672.92	527.21
673.26	524.05
673.60	520.90
673.94	517.80
674.28	514.91
674.62	511.97
674.96	508.82
675.30	505.88
675.64	502.97
675.97	500.20
676.31	497.31
676.65	494.35
676.99	491.65
677.33	488.81
677.67	485.98
678.01	482.90
678.34	479.93
678.68	477.07
679.02	474.23
679.36	471.43
679.70	468.68
680.04	465.88
680.37	462.98
680.71	460.24
681.05	457.60
681.39	454.81
681.73	452.16
682.06	449.70
682.40	447.15
682.74	444.71
683.08	442.16
683.42	439.51
683.75	437.02
684.09	434.48
684.43	431.98
684.77	429.53
685.10	427.21
685.44	424.95
685.78	422.63
686.12	420.41
686.45	418.16
686.79	415.92
687.13	413.74
687.46	411.58
687.80	409.40
688.14	407.22
688.48	405.19
688.81	402.94
689.15	400.79
689.49	398.62
689.82	396.50
690.16	394.47
690.50	392.58
690.83	390.67
691.17	388.70
691.51	386.80
691.84	385.00
692.18	383.09
692.52	381.11
692.85	379.19
693.19	377.34
693.52	375.50
693.86	373.65
694.20	371.86
694.53	370.09
694.87	368.24
695.21	366.45
695.54	364.66
695.88	362.92
696.21	361.22
696.55	359.54
696.88	357.82
697.22	356.12
697.56	354.49
697.89	352.87
698.23	351.28
698.56	349.68
698.90	348.05
699.23	346.39
699.57	344.81
699.90	343.28
700.24	341.77
700.58	340.23
700.91	338.74
701.25	337.30
701.58	335.93
701.92	334.59
702.25	333.23
702.59	331.85
702.92	330.50
703.26	329.21
703.59	328.01
703.93	326.85
704.26	325.64
704.60	324.32
704.93	323.02
705.26	321.75
705.60	320.59
705.93	319.43
706.27	318.39
706.60	317.34
706.94	316.27
707.27	315.08
707.61	314.01
707.94	312.98
708.27	311.85
708.61	310.79
708.94	309.76
709.28	308.82
709.61	307.84
709.94	306.90
710.28	305.91
710.61	304.86
710.95	303.77
711.28	302.86
711.61	301.93
711.95	301.03
712.28	300.09
712.61	299.12
712.95	298.16
713.28	297.28
713.61	296.37
713.95	295.45
714.28	294.64
714.61	293.78
714.95	292.93
715.28	292.09
715.61	291.20
715.95	290.37
716.28	289.46
716.61	288.64
716.95	287.84
717.28	287.04
717.61	286.25
717.94	285.49
718.28	284.65
718.61	283.90
718.94	283.18
719.27	282.50
719.61	281.85
719.94	281.20
720.27	280.47
720.60	279.82
720.94	279.20
721.27	278.60
721.60	278.04
721.93	277.43
722.27	276.89
722.60	276.32
722.93	275.70
723.26	275.17
723.59	274.57
723.93	274.03
724.26	273.51
724.59	272.95
724.92	272.43
725.25	271.96
725.59	271.45
725.92	270.94
726.25	270.42
726.58	269.92
726.91	269.40
727.24	268.97
727.57	268.49
727.91	268.00
728.24	267.52
728.57	267.01
728.90	266.58
729.23	266.06
729.56	265.66
729.89	265.22
730.22	264.72
730.55	264.31
730.89	263.83
731.22	263.41
731.55	263.02
731.88	262.59
732.21	262.15
732.54	261.71
732.87	261.29
733.20	260.91
733.53	260.53
733.86	260.19
734.19	259.76
734.52	259.45
734.85	259.11
735.18	258.72
735.51	258.35
735.84	257.98
736.17	257.68
736.50	257.28
736.83	257.05
737.16	256.76
737.49	256.43
737.82	256.13
738.15	255.76
738.48	255.41
738.81	255.12
739.14	254.81
739.47	254.53
739.80	254.19
740.13	253.93
740.46	253.57
740.79	253.27
741.12	252.95
741.45	252.61
741.78	252.28
742.11	252.00
742.44	251.72
742.77	251.40
743.10	251.07
743.43	250.79
743.75	250.42
744.08	250.23
744.41	249.98
744.74	249.70
745.07	249.45
745.40	249.22
745.73	248.96
746.06	248.67
746.39	248.40
746.71	248.14
747.04	247.82
747.37	247.59
747.70	247.33
748.03	247.11
748.36	246.88
748.68	246.61
749.01	246.33
749.34	246.10
749.67	245.89
750.00	245.67
750.33	245.52
750.65	245.30
750.98	244.97
751.31	244.74
751.64	244.53
751.97	244.37
752.29	244.13
752.62	243.89
752.95	243.69
753.28	243.46
753.60	243.29
753.93	243.12
754.26	242.90
754.59	242.66
754.91	242.44
755.24	242.21
755.57	242.03
755.90	241.84
756.22	241.64
756.55	241.42
756.88	241.24
757.20	240.94
757.53	240.70
757.86	240.55
758.19	240.36
758.51	240.20
758.84	239.94
759.17	239.77
759.49	239.60
759.82	239.46
760.15	239.32
760.47	239.14
760.80	238.96
761.13	238.82
761.45	238.64
761.78	238.51
762.11	238.38
762.43	238.25
762.76	238.10
763.08	237.93
763.41	237.79
763.74	237.63
764.06	237.54
764.39	237.41
764.71	237.23
765.04	237.11
765.37	236.92
765.69	236.80
766.02	236.68
766.34	236.56
766.67	236.42
767.00	236.31
767.32	236.25
767.65	236.21
767.97	236.12
768.30	236.01
768.62	235.89
768.95	235.75
769.27	235.61
769.60	235.53
769.92	235.44
770.25	235.33
770.57	235.23
770.90	235.13
771.22	235.03
771.55	234.94
771.87	234.87
772.20	234.80
772.52	234.79
772.85	234.80
773.17	234.68
773.50	234.56
773.82	234.46
774.15	234.34
774.47	234.19
774.80	234.08
775.12	234.02
775.45	233.94
775.77	233.87
776.09	233.83
776.42	233.76
776.74	233.69
777.07	233.62
777.39	233.57
777.72	233.49
778.04	233.43
778.36	233.35
778.69	233.28
779.01	233.24
779.33	233.06
779.66	232.90
779.98	232.88
780.31	232.86
780.63	232.85
780.95	232.79
781.28	232.74
781.60	232.69
781.92	232.63
782.25	232.56
782.57	232.53
782.89	232.45
783.22	232.43
783.54	232.38
783.86	232.34
784.19	232.26
784.51	232.25
784.83	232.21
785.16	232.17
785.48	232.09
785.80	232.05
786.12	232.03
786.45	232.01
786.77	232.00
787.09	231.94
787.42	231.86
787.74	231.82
788.06	231.74
788.38	231.69
788.71	231.64
789.03	231.62
789.35	231.56
789.67	231.50
789.99	231.42
790.32	231.35
790.64	231.33
790.96	231.37
791.28	231.30
791.61	231.25
791.93	231.23
792.25	231.19
792.57	231.21
792.89	231.14
793.21	231.06
793.54	230.98
793.86	230.91
794.18	230.86
794.50	230.79
794.82	230.76
795.14	230.75
795.47	230.71
795.79	230.65
796.11	230.64
796.43	230.61
796.75	230.60
797.07	230.57
797.39	230.52
797.71	230.40
798.04	230.35
798.36	230.32
798.68	230.25
799.00	230.19
799.32	230.09
799.64	230.09
799.96	230.06
800.28	230.05
800.60	230.01
800.92	230.00
801.24	229.96
801.56	229.94
801.89	229.85
802.21	229.83
802.53	229.76
802.85	229.72
803.17	229.71
803.49	229.67
803.81	229.62
804.13	229.57
804.45	229.56
804.77	229.53
805.09	229.49
805.41	229.45
805.73	229.42
806.05	229.39
806.37	229.34
806.69	229.32
807.01	229.26
807.33	229.26
807.65	229.17
807.97	229.23
808.28	229.21
808.60	229.22
808.92	229.18
809.24	229.27
809.56	229.21
809.88	229.19
810.20	229.14
810.52	229.14
810.84	229.10
811.16	229.06
811.48	229.02
811.80	229.02
812.12	229.02
812.43	229.03
812.75	229.00
813.07	228.97
813.39	228.96
813.71	228.91
814.03	228.88
814.35	228.89
814.67	228.82
814.98	228.78
815.30	228.74
815.62	228.70
815.94	228.61
816.26	228.65
816.58	228.61
816.89	228.61
817.21	228.60
817.53	228.61
817.85	228.61
818.17	228.62
818.48	228.60
818.80	228.64
819.12	228.61
819.44	228.62
819.76	228.61
820.07	228.59
820.39	228.60
820.71	228.62
821.03	228.59
821.34	228.59
821.66	228.60
821.98	228.61
822.30	228.63
822.61	228.69
822.93	228.65
823.25	228.66
823.57	228.63
823.88	228.64
824.20	228.61
824.52	228.65
824.83	228.60
825.15	228.55
825.47	228.52
825.79	228.48
826.10	228.39
826.42	228.39
826.74	228.39
827.05	228.37
827.37	228.34
827.69	228.36
828.00	228.33
828.32	228.33
828.64	228.33
828.95	228.36
829.27	228.30
829.58	228.26
829.90	228.26
830.22	228.27
830.53	228.23
830.85	228.25
831.17	228.17
831.48	228.18
831.80	228.21
832.11	228.19
832.43	228.21
832.75	228.24
833.06	228.27
833.38	228.23
833.69	228.22
834.01	228.24
834.32	228.22
834.64	228.19
834.96	228.19
835.27	228.17
835.59	228.12
835.90	228.11
836.22	228.12
836.53	228.07
836.85	228.05
837.16	228.15
837.48	228.12
837.79	228.16
838.11	228.16
838.42	228.13
838.74	228.13
839.05	228.11
839.37	228.09
839.68	228.01
840.00	227.99
840.31	227.98
840.63	227.96
840.94	227.91
841.26	227.91
841.57	227.88
841.88	227.89
842.20	227.84
842.51	227.81
842.83	227.79
843.14	227.89
843.46	227.86
843.77	227.76
844.08	227.75
844.40	227.71
844.71	227.68
845.03	227.69
845.34	227.65
845.65	227.68
845.97	227.67
846.28	227.66
846.60	227.69
846.91	227.66
847.22	227.65
847.54	227.66
847.85	227.62
848.16	227.60
848.48	227.55
848.79	227.59
849.10	227.59
849.42	227.57
849.73	227.51
850.04	227.51
850.36	227.48
850.67	227.48
850.98	227.48
851.30	227.47
851.61	227.49
851.92	227.48
852.23	227.47
852.55	227.47
852.86	227.51
853.17	227.47
853.49	227.48
853.80	227.52
854.11	227.53
854.42	227.56
854.74	227.55
855.05	227.55
855.36	227.48
855.67	227.50
855.99	227.52
856.30	227.59
856.61	227.60
856.92	227.62
857.23	227.60
857.55	227.59
857.86	227.59
858.17	227.58
858.48	227.57
858.79	227.59
859.11	227.61
859.42	227.59
859.73	227.58
860.04	227.59
860.35	227.54
860.66	227.51
860.98	227.54
861.29	227.57
861.60	227.57
861.91	227.59
862.22	227.56
862.53	227.55
862.84	227.44
863.16	227.45
863.47	227.40
863.78	227.40
864.09	227.42
864.40	227.43
864.71	227.44
865.02	227.47
865.33	227.43
865.64	227.40
865.95	227.40
866.27	227.46
866.58	227.46
866.89	227.47
867.20	227.46
867.51	227.40
867.82	227.35
868.13	227.38
868.44	227.39
868.75	227.42
869.06	227.43
869.37	227.45
869.68	227.41
869.99	227.44
870.30	227.41
870.61	227.37
870.92	227.38
871.23	227.33
871.54	227.33
871.85	227.35
872.16	227.36
872.47	227.35
872.78	227.31
873.09	227.32
873.40	227.26
873.71	227.29
874.02	227.32
874.33	227.33
874.64	227.33
874.95	227.33
875.26	227.30
875.56	227.29
875.87	227.31
876.18	227.31
876.49	227.41
876.80	227.41
877.11	227.43
877.42	227.41
877.73	227.39
878.04	227.38
878.35	227.36
878.66	227.36
878.96	227.34
879.27	227.36
879.58	227.33
879.89	227.34
880.20	227.35
880.51	227.30
880.82	227.33
881.12	227.32
881.43	227.29
881.74	227.25
882.05	227.21
882.36	227.19
882.67	227.20
882.97	227.07
883.28	227.06
883.59	227.04
883.90	227.04
884.21	227.07
884.51	227.10
884.82	227.10
885.13	227.09
885.44	227.12
885.74	227.07
886.05	227.06
886.36	227.07
886.67	227.00
886.98	227.07
887.28	227.03
887.59	227.01
887.90	227.04
888.20	227.06
888.51	227.10
888.82	227.06
889.13	227.05
889.43	227.15
889.74	227.18
890.05	227.19
890.35	227.18
890.66	227.16
890.97	227.13
891.28	227.11
891.58	227.09
891.89	227.06
892.20	227.08
892.50	227.08
892.81	227.09
893.12	227.12
893.42	227.09
893.73	227.11
894.04	227.11
894.34	227.09
894.65	227.11
894.95	227.11
895.26	227.14
895.57	227.19
895.87	227.07
896.18	227.03
896.48	227.05
896.79	227.05
897.10	227.08
897.40	227.09
897.71	227.09
898.01	227.12
898.32	227.12
898.63	227.10
898.93	227.10
899.24	227.08
899.54	227.06
899.85	227.03
900.15	227.02
900.46	226.99
900.76	227.02
901.07	227.00
901.38	226.99
901.68	227.02
901.99	226.98
902.29	227.03
902.60	227.04
902.90	227.01
903.21	227.03
903.51	226.99
903.82	226.97
904.12	226.95
904.43	226.96
904.73	226.98
905.03	226.98
905.34	227.07
905.64	227.06
905.95	227.09
906.25	227.11
906.56	227.09
906.86	227.10
907.17	227.10
907.47	227.09
907.77	227.09
908.08	227.05
908.38	227.03
908.69	227.02
908.99	227.03
909.30	227.03
909.60	227.01
909.90	227.05
910.21	227.09
910.51	227.08
910.81	227.07
911.12	227.09
911.42	227.09
911.73	226.98
912.03	227.03
912.33	227.03
912.64	227.03
912.94	227.05
913.24	227.07
913.55	227.03
913.85	227.03
914.15	227.03
914.46	227.05
914.76	227.09
915.06	227.07
915.37	227.06
915.67	227.05
915.97	227.03
916.27	226.99
916.58	226.97
916.88	227.01
917.18	227.00
917.49	227.04
917.79	227.04
918.09	227.07
918.39	227.03
918.70	227.00
919.00	226.99
919.30	227.02
919.60	227.00
919.91	227.01
920.21	227.00
920.51	226.99
920.81	226.97
921.12	226.96
921.42	226.98
921.72	226.97
922.02	227.00
922.32	227.04
922.63	227.05
922.93	227.09
923.23	227.08
923.53	227.08
923.83	227.03
924.13	227.02
924.44	227.02
924.74	227.09
925.04	227.12
925.34	227.12
925.64	227.07
925.94	227.09
926.24	227.15
926.55	227.13
926.85	227.13
927.15	227.14
927.45	227.12
927.75	227.13
928.05	227.12
928.35	227.07
928.65	227.05
928.95	227.03
929.26	227.01
929.56	227.03
929.86	227.03
930.16	227.01
930.46	227.01
930.76	227.00
931.06	226.94
931.36	226.90
931.66	226.93
931.96	226.95
932.26	226.92
932.56	226.85
932.86	226.90
933.16	226.90
933.46	226.91
933.76	226.92
934.06	226.92
934.36	226.96
934.66	227.01
934.96	227.02
935.26	227.02
935.56	227.02
935.86	226.99
936.16	226.97
936.46	226.96
936.76	226.95
937.06	226.94
937.36	226.98
937.66	227.00
937.96	226.98
938.26	226.97
938.56	226.97
938.86	227.01
939.16	227.01
939.46	227.01
939.76	226.99
940.06	226.95
940.35	226.93
940.65	226.88
940.95	226.89
941.25	226.86
941.55	226.84
941.85	226.84
942.15	226.84
942.45	226.87
942.75	226.88
943.04	226.86
943.34	226.86
943.64	226.81
943.94	226.78
944.24	226.77
944.54	226.80
944.84	226.81
945.13	226.77
945.43	226.76
945.73	226.73
946.03	226.73
946.33	226.73
946.62	226.73
946.92	226.72
947.22	226.69
947.52	226.67
947.82	226.69
948.11	226.67
948.41	226.66
948.71	226.61
949.01	226.62
949.31	226.65
949.60	226.66
949.90	226.68
950.20	226.70
950.50	226.70
950.79	226.67
951.09	226.66
951.39	226.67
951.69	226.67
951.98	226.72
952.28	226.71
952.58	226.72
952.87	226.71
953.17	226.74
953.47	226.74
953.76	226.76
954.06	226.74
954.36	226.73
954.66	226.73
954.95	226.76
955.25	226.77
955.55	226.77
955.84	226.75
956.14	226.76
956.44	226.76
956.73	226.73
957.03	226.76
957.32	226.76
957.62	226.75
957.92	226.79
958.21	226.78
958.51	226.87
958.81	226.88
959.10	226.93
959.40	226.96
959.69	226.96
959.99	226.98
960.29	226.98
960.58	227.00
960.88	227.05
961.17	227.02
961.47	227.04
961.76	227.06
962.06	227.10
962.36	227.10
962.65	227.10
962.95	227.14
963.24	227.11
963.54	227.12
963.83	227.17
964.13	227.14
964.42	227.13
964.72	227.08
965.01	227.10
965.31	227.06
965.60	227.04
965.90	227.12
966.19	227.13
966.49	227.17
966.78	227.14
967.08	227.13
967.37	227.16
967.67	227.11
967.96	227.12
968.26	227.11
968.55	227.14
968.85	227.11
969.14	227.12
969.43	227.12
969.73	227.13
970.02	227.09
970.32	227.09
970.61	227.08
970.91	227.07
971.20	227.05
971.49	227.07
971.79	227.09
972.08	227.03
972.38	227.02
972.67	227.00
972.96	227.01
973.26	226.99
973.55	227.06
973.85	227.10
974.14	227.10
974.43	227.12
974.73	227.08
975.02	227.08
975.31	227.06
975.61	227.07
975.90	227.05
976.19	227.03
976.49	227.04
976.78	227.01
977.07	226.96
977.37	226.95
977.66	226.96
977.95	226.94
978.24	226.94
978.54	226.96
978.83	226.93
979.12	226.94
979.42	226.93
979.71	226.87
980.00	226.84
980.29	226.81
980.59	226.77
980.88	226.79
981.17	226.79
981.46	226.78
981.76	226.80
982.05	226.85
982.34	226.85
982.63	226.85
982.93	226.86
983.22	226.92
983.51	226.90
983.80	226.89
984.09	226.85
984.39	226.82
984.68	226.79
984.97	226.77
985.26	226.73
985.55	226.75
985.85	226.72
986.14	226.74
986.43	226.76
986.72	226.75
987.01	226.70
987.30	226.72
987.59	226.73
987.89	226.72
988.18	226.67
988.47	226.66
988.76	226.64
989.05	226.65
989.34	226.62
989.63	226.64
989.92	226.65
990.22	226.65
990.51	226.68
990.80	226.65
991.09	226.67
991.38	226.66
991.67	226.65
991.96	226.66
992.25	226.67
992.54	226.65
992.83	226.63
993.12	226.63
993.41	226.67
993.70	226.70
993.99	226.72
994.28	226.72
994.58	226.75
994.87	226.73
995.16	226.73
995.45	226.75
995.74	226.72
996.03	226.74
996.32	226.78
996.61	226.78
996.90	226.80
997.19	226.83
997.48	226.84
997.77	226.82
998.06	226.81
998.34	226.78
998.63	226.77
998.92	226.81
999.21	226.84
999.50	226.84
999.79	226.79
1000.08	226.80
1000.37	226.84
1000.66	226.84
1000.95	226.90
1001.24	226.89
1001.53	226.90
1001.82	226.94
1002.11	226.92
1002.40	226.96
1002.68	226.97
1002.97	227.05
1003.26	227.06
1003.55	227.07
1003.84	227.08
1004.13	227.15
1004.42	227.17
1004.71	227.20
1004.99	227.16
1005.28	227.16
1005.57	227.16
1005.86	227.18
1006.15	227.15
1006.44	227.10
1006.72	227.11
1007.01	227.09
1007.30	227.11
1007.59	227.11
1007.88	227.07
1008.17	227.08
1008.45	227.05
1008.74	227.03
1009.03	226.97
1009.32	226.95
1009.60	226.95
1009.89	226.96
1010.18	226.90
1010.47	226.91
1010.76	226.89
1011.04	226.91
1011.33	226.94
1011.62	226.93
1011.91	226.97
1012.19	226.96
1012.48	226.98
1012.77	226.95
1013.05	227.01
1013.34	227.01
1013.63	227.01
1013.92	227.03
1014.20	227.00
1014.49	227.02
1014.78	227.00
1015.06	226.99
1015.35	227.00
1015.64	227.02
1015.92	227.02
1016.21	227.03
1016.50	227.03
1016.78	227.01
1017.07	227.01
1017.36	226.98
1017.64	226.97
1017.93	226.96
1018.22	226.96
1018.50	226.94
1018.79	226.94
1019.08	226.87
1019.36	226.87
1019.65	226.84
1019.93	226.87
1020.22	226.88
1020.51	226.90
1020.79	226.90
1021.08	226.95
1021.36	226.27
1021.65	226.59
1021.94	226.89
1022.22	226.96
1022.51	226.72
1022.79	227.24
1023.08	226.84
1023.36	227.91
1023.65	226.74
>>>>>End Processed Spectral Data<<<<<
