SpectraSuite Data File
++++++++++++++++++++++++++++++++++++
Date: Fri Feb 01 16:40:30 EST 2013
User: group
Dark Spectrum Present: No
Reference Spectrum Present: No
Number of Sampled Component Spectra: 1
Spectrometers: USB2E7196
Integration Time (usec): 35000 (USB2E7196)
Spectra Averaged: 100 (USB2E7196)
Boxcar Smoothing: 10 (USB2E7196)
Correct for Electrical Dark: No (USB2E7196)
Strobe/Lamp Enabled: No (USB2E7196)
Correct for Detector Non-linearity: No (USB2E7196)
Correct for Stray Light: No (USB2E7196)
Number of Pixels in Processed Spectrum: 2048
>>>>>Begin Processed Spectral Data<<<<<
339.09	0.00
339.48	214.00
339.86	215.13
340.24	216.90
340.63	218.14
341.01	220.61
341.39	220.57
341.78	222.81
342.16	223.07
342.54	224.05
342.93	212.28
343.31	223.01
343.69	223.51
344.07	224.00
344.46	224.38
344.84	224.77
345.22	225.01
345.60	225.27
345.99	225.42
346.37	225.57
346.75	225.64
347.13	225.70
347.52	225.75
347.90	225.81
348.28	225.86
348.66	225.88
349.05	225.86
349.43	225.89
349.81	225.91
350.19	225.94
350.57	226.00
350.96	226.05
351.34	226.11
351.72	226.20
352.10	226.25
352.48	226.35
352.87	226.37
353.25	226.45
353.63	226.49
354.01	226.55
354.39	226.63
354.77	226.71
355.15	226.79
355.54	226.82
355.92	226.83
356.30	226.90
356.68	227.05
357.06	227.11
357.44	227.13
357.82	227.19
358.20	227.28
358.58	227.32
358.97	227.37
359.35	227.45
359.73	227.55
360.11	227.64
360.49	227.73
360.87	227.78
361.25	227.85
361.63	227.95
362.01	228.01
362.39	228.01
362.77	228.07
363.15	228.09
363.53	228.13
363.91	228.21
364.29	228.21
364.67	228.13
365.05	228.19
365.43	228.25
365.81	228.32
366.19	228.35
366.57	228.42
366.95	228.42
367.33	228.42
367.71	228.40
368.09	228.40
368.47	228.36
368.85	228.36
369.23	228.36
369.61	228.30
369.99	228.34
370.37	228.34
370.75	228.34
371.13	228.33
371.51	228.31
371.89	228.29
372.27	228.29
372.65	228.25
373.03	228.18
373.41	228.13
373.78	228.05
374.16	227.98
374.54	227.91
374.92	227.85
375.30	227.82
375.68	227.74
376.06	227.70
376.44	227.66
376.82	227.60
377.19	227.50
377.57	227.41
377.95	227.28
378.33	227.22
378.71	227.10
379.09	227.04
379.47	226.98
379.84	226.89
380.22	226.81
380.60	226.74
380.98	226.68
381.36	226.63
381.73	226.56
382.11	226.51
382.49	226.46
382.87	226.39
383.25	226.28
383.62	226.33
384.00	226.23
384.38	226.14
384.76	226.10
385.13	226.10
385.51	226.05
385.89	225.96
386.27	225.90
386.64	225.90
387.02	225.86
387.40	225.82
387.78	225.75
388.15	225.73
388.53	225.67
388.91	225.61
389.29	225.56
389.66	225.54
390.04	225.48
390.42	225.47
390.79	225.46
391.17	225.43
391.55	225.32
391.92	225.33
392.30	225.35
392.68	225.33
393.05	225.30
393.43	225.31
393.81	225.35
394.18	225.34
394.56	225.32
394.94	225.34
395.31	225.33
395.69	225.39
396.06	225.40
396.44	225.41
396.82	225.45
397.19	225.50
397.57	225.50
397.95	225.54
398.32	225.54
398.70	225.61
399.07	225.69
399.45	225.74
399.82	225.79
400.20	225.82
400.58	225.88
400.95	225.92
401.33	226.04
401.70	226.14
402.08	226.22
402.45	226.28
402.83	226.37
403.20	226.49
403.58	226.56
403.95	226.67
404.33	226.83
404.71	226.95
405.08	227.16
405.46	227.30
405.83	227.48
406.21	227.62
406.58	227.77
406.96	227.93
407.33	228.12
407.70	228.28
408.08	228.55
408.45	228.75
408.83	228.99
409.20	229.17
409.58	229.34
409.95	229.63
410.33	229.89
410.70	230.13
411.08	230.41
411.45	230.72
411.82	231.00
412.20	231.37
412.57	231.78
412.95	232.06
413.32	232.44
413.69	232.83
414.07	233.26
414.44	233.71
414.82	234.19
415.19	234.71
415.56	235.26
415.94	235.79
416.31	236.39
416.68	237.04
417.06	237.74
417.43	238.47
417.81	239.22
418.18	240.01
418.55	240.89
418.93	241.77
419.30	242.67
419.67	243.63
420.04	244.60
420.42	245.56
420.79	246.73
421.16	247.91
421.54	249.09
421.91	250.29
422.28	251.52
422.66	252.84
423.03	254.12
423.40	255.45
423.77	256.88
424.15	258.33
424.52	259.77
424.89	261.38
425.26	262.91
425.64	264.33
426.01	265.90
426.38	267.51
426.75	269.18
427.13	270.87
427.50	272.67
427.87	274.49
428.24	276.36
428.61	278.09
428.99	280.00
429.36	282.05
429.73	284.10
430.10	286.14
430.47	288.15
430.85	290.27
431.22	292.49
431.59	294.80
431.96	297.04
432.33	299.48
432.70	301.83
433.08	304.59
433.45	307.21
433.82	309.80
434.19	312.65
434.56	315.42
434.93	318.04
435.30	320.62
435.68	323.44
436.05	326.21
436.42	328.93
436.79	331.43
437.16	334.12
437.53	336.92
437.90	339.70
438.27	342.40
438.64	345.22
439.01	347.80
439.38	349.97
439.75	352.11
440.13	354.62
440.50	356.94
440.87	358.77
441.24	360.67
441.61	362.81
441.98	364.29
442.35	366.09
442.72	367.93
443.09	369.72
443.46	370.73
443.83	371.31
444.20	371.86
444.57	372.72
444.94	373.01
445.31	373.33
445.68	373.70
446.05	373.82
446.42	373.44
446.79	373.06
447.16	372.70
447.53	372.38
447.90	371.21
448.27	370.08
448.64	368.51
449.01	367.43
449.37	365.51
449.74	363.63
450.11	361.44
450.48	359.00
450.85	356.51
451.22	354.41
451.59	352.45
451.96	350.51
452.33	347.95
452.70	345.61
453.07	342.84
453.43	339.94
453.80	337.23
454.17	334.59
454.54	332.03
454.91	329.34
455.28	326.71
455.65	324.24
456.02	321.82
456.38	319.73
456.75	317.06
457.12	314.84
457.49	312.62
457.86	310.45
458.23	308.62
458.59	306.57
458.96	304.51
459.33	302.64
459.70	300.79
460.07	299.29
460.43	297.57
460.80	295.96
461.17	294.53
461.54	293.01
461.91	291.60
462.27	290.15
462.64	288.92
463.01	287.57
463.38	286.30
463.74	284.92
464.11	283.75
464.48	282.76
464.85	281.63
465.21	280.82
465.58	279.92
465.95	278.83
466.32	277.97
466.68	277.09
467.05	276.24
467.42	275.38
467.78	274.47
468.15	273.63
468.52	273.00
468.88	272.13
469.25	271.38
469.62	270.79
469.98	270.15
470.35	269.53
470.72	268.94
471.08	268.31
471.45	267.83
471.82	267.34
472.18	266.78
472.55	266.40
472.92	265.88
473.28	265.42
473.65	264.98
474.02	264.55
474.38	264.20
474.75	263.85
475.11	263.53
475.48	263.24
475.85	263.06
476.21	262.86
476.58	262.72
476.94	262.61
477.31	262.43
477.67	262.28
478.04	262.15
478.41	262.12
478.77	262.15
479.14	262.06
479.50	262.09
479.87	262.12
480.23	262.18
480.60	262.24
480.96	262.31
481.33	262.54
481.69	262.75
482.06	262.92
482.42	263.11
482.79	263.34
483.15	263.63
483.52	263.97
483.88	264.28
484.25	264.69
484.61	265.09
484.98	265.56
485.34	266.11
485.71	266.72
486.07	267.27
486.44	267.84
486.80	268.54
487.17	269.22
487.53	270.05
487.90	270.88
488.26	271.80
488.62	272.81
488.99	273.77
489.35	274.80
489.72	275.93
490.08	277.13
490.44	278.42
490.81	279.76
491.17	281.10
491.54	282.60
491.90	284.11
492.26	285.76
492.63	287.46
492.99	289.27
493.36	291.16
493.72	293.25
494.08	295.36
494.45	297.59
494.81	299.99
495.17	302.42
495.54	304.97
495.90	307.67
496.26	310.45
496.63	313.43
496.99	316.55
497.35	319.82
497.72	323.26
498.08	326.75
498.44	330.46
498.80	334.45
499.17	338.54
499.53	342.70
499.89	347.09
500.26	351.63
500.62	356.33
500.98	361.31
501.34	366.39
501.71	371.72
502.07	377.18
502.43	382.77
502.79	388.61
503.16	394.73
503.52	400.98
503.88	407.46
504.24	414.09
504.60	421.01
504.97	428.21
505.33	435.55
505.69	443.23
506.05	451.02
506.41	458.83
506.78	466.96
507.14	475.35
507.50	484.03
507.86	493.08
508.22	502.23
508.59	511.44
508.95	520.94
509.31	530.73
509.67	540.82
510.03	551.15
510.39	561.64
510.75	572.39
511.12	583.26
511.48	594.50
511.84	605.90
512.20	617.33
512.56	629.16
512.92	641.24
513.28	653.59
513.64	665.93
514.00	678.60
514.37	691.46
514.73	704.57
515.09	717.54
515.45	730.71
515.81	744.21
516.17	758.03
516.53	772.14
516.89	786.29
517.25	800.43
517.61	814.72
517.97	829.10
518.33	843.39
518.69	858.19
519.05	873.04
519.41	888.21
519.77	903.64
520.13	919.00
520.49	934.32
520.85	949.56
521.21	965.21
521.57	981.29
521.93	997.00
522.29	1013.20
522.65	1029.44
523.01	1045.56
523.37	1061.55
523.73	1077.64
524.09	1093.64
524.45	1109.80
524.81	1126.31
525.17	1142.92
525.53	1159.70
525.89	1176.49
526.25	1193.12
526.61	1209.46
526.97	1225.98
527.33	1242.41
527.68	1258.80
528.04	1275.21
528.40	1291.66
528.76	1308.55
529.12	1325.09
529.48	1341.78
529.84	1357.74
530.20	1374.23
530.56	1390.98
530.91	1408.16
531.27	1424.73
531.63	1440.99
531.99	1457.40
532.35	1473.17
532.71	1489.07
533.07	1505.15
533.42	1520.95
533.78	1536.89
534.14	1553.00
534.50	1568.11
534.86	1583.71
535.21	1598.90
535.57	1614.63
535.93	1629.97
536.29	1644.58
536.65	1659.51
537.00	1674.13
537.36	1689.18
537.72	1703.39
538.08	1717.70
538.44	1731.32
538.79	1744.86
539.15	1758.21
539.51	1771.71
539.87	1785.91
540.22	1799.31
540.58	1812.86
540.94	1825.79
541.29	1838.37
541.65	1850.71
542.01	1863.81
542.37	1876.03
542.72	1888.12
543.08	1899.67
543.44	1911.92
543.79	1923.15
544.15	1933.97
544.51	1945.20
544.87	1956.12
545.22	1966.95
545.58	1977.12
545.94	1986.89
546.29	1996.92
546.65	2006.79
547.01	2016.15
547.36	2024.78
547.72	2033.30
548.07	2041.15
548.43	2049.44
548.79	2057.33
549.14	2065.04
549.50	2072.22
549.86	2079.78
550.21	2087.06
550.57	2094.36
550.92	2100.81
551.28	2107.87
551.64	2114.87
551.99	2121.49
552.35	2127.58
552.70	2133.54
553.06	2139.52
553.41	2145.82
553.77	2151.77
554.13	2157.74
554.48	2163.82
554.84	2169.41
555.19	2174.50
555.55	2179.67
555.90	2184.17
556.26	2189.31
556.61	2193.98
556.97	2198.39
557.32	2202.54
557.68	2206.67
558.03	2210.70
558.39	2214.46
558.74	2218.98
559.10	2222.91
559.45	2226.53
559.81	2230.75
560.16	2234.57
560.52	2237.86
560.87	2241.27
561.23	2243.97
561.58	2246.94
561.94	2249.48
562.29	2251.67
562.64	2254.60
563.00	2257.21
563.35	2260.80
563.71	2263.82
564.06	2266.92
564.42	2269.96
564.77	2272.74
565.12	2275.20
565.48	2277.41
565.83	2279.50
566.19	2280.89
566.54	2281.76
566.89	2283.03
567.25	2283.89
567.60	2285.27
567.96	2287.08
568.31	2287.91
568.66	2289.01
569.02	2289.74
569.37	2289.92
569.72	2290.93
570.08	2291.27
570.43	2291.19
570.78	2290.65
571.14	2289.24
571.49	2288.08
571.84	2287.72
572.20	2286.71
572.55	2285.69
572.90	2283.90
573.26	2282.59
573.61	2280.81
573.96	2279.35
574.31	2276.63
574.67	2273.70
575.02	2270.31
575.37	2266.76
575.72	2263.13
576.08	2259.73
576.43	2256.43
576.78	2253.14
577.13	2249.94
577.49	2246.65
577.84	2243.39
578.19	2239.53
578.54	2235.94
578.90	2231.76
579.25	2226.23
579.60	2221.09
579.95	2216.18
580.30	2211.30
580.66	2206.09
581.01	2201.22
581.36	2196.25
581.71	2192.09
582.06	2187.65
582.42	2183.45
582.77	2178.52
583.12	2174.09
583.47	2169.60
583.82	2164.82
584.17	2159.58
584.53	2154.15
584.88	2148.47
585.23	2142.89
585.58	2137.50
585.93	2132.24
586.28	2127.28
586.63	2122.50
586.98	2117.55
587.34	2112.83
587.69	2108.02
588.04	2102.79
588.39	2097.32
588.74	2090.78
589.09	2084.69
589.44	2077.90
589.79	2071.63
590.14	2065.91
590.49	2059.34
590.84	2052.92
591.19	2046.95
591.54	2040.52
591.89	2033.37
592.25	2026.99
592.60	2019.81
592.95	2012.55
593.30	2005.20
593.65	1997.73
594.00	1990.56
594.35	1983.40
594.70	1975.44
595.05	1968.50
595.40	1961.44
595.75	1953.97
596.10	1948.00
596.45	1941.31
596.80	1935.20
597.15	1928.70
597.50	1921.89
597.85	1915.46
598.19	1909.05
598.54	1902.17
598.89	1895.60
599.24	1889.79
599.59	1883.25
599.94	1877.09
600.29	1870.77
600.64	1864.21
600.99	1857.14
601.34	1850.49
601.69	1843.45
602.04	1836.66
602.39	1829.37
602.74	1822.63
603.08	1816.08
603.43	1809.23
603.78	1802.05
604.13	1795.01
604.48	1787.86
604.83	1781.02
605.18	1774.25
605.53	1766.29
605.87	1758.07
606.22	1750.76
606.57	1742.63
606.92	1735.06
607.27	1728.06
607.62	1721.22
607.96	1714.05
608.31	1707.47
608.66	1699.90
609.01	1692.57
609.36	1685.09
609.70	1677.03
610.05	1669.01
610.40	1661.34
610.75	1653.04
611.10	1645.37
611.44	1636.83
611.79	1628.85
612.14	1620.09
612.49	1610.94
612.83	1602.68
613.18	1594.69
613.53	1586.70
613.88	1578.31
614.22	1570.20
614.57	1561.45
614.92	1553.46
615.27	1546.00
615.61	1537.75
615.96	1529.61
616.31	1522.00
616.65	1514.62
617.00	1507.11
617.35	1499.33
617.70	1491.02
618.04	1482.79
618.39	1474.50
618.74	1467.05
619.08	1458.75
619.43	1451.21
619.78	1444.25
620.12	1437.09
620.47	1429.59
620.82	1421.45
621.16	1414.02
621.51	1406.25
621.85	1398.70
622.20	1390.19
622.55	1381.77
622.89	1373.90
623.24	1366.35
623.59	1358.79
623.93	1351.30
624.28	1344.13
624.62	1336.85
624.97	1329.73
625.32	1322.82
625.66	1315.91
626.01	1308.83
626.35	1301.46
626.70	1293.59
627.04	1285.93
627.39	1278.08
627.73	1270.76
628.08	1263.88
628.43	1256.78
628.77	1249.60
629.12	1242.09
629.46	1234.96
629.81	1227.51
630.15	1220.20
630.50	1212.86
630.84	1204.77
631.19	1196.79
631.53	1189.13
631.88	1181.39
632.22	1173.77
632.57	1166.47
632.91	1158.91
633.26	1151.43
633.60	1144.02
633.95	1136.94
634.29	1129.81
634.64	1123.10
634.98	1115.67
635.32	1108.53
635.67	1101.77
636.01	1095.07
636.36	1088.25
636.70	1081.73
637.05	1075.14
637.39	1068.73
637.73	1062.29
638.08	1056.40
638.42	1050.49
638.77	1044.16
639.11	1037.65
639.45	1031.24
639.80	1024.62
640.14	1018.24
640.49	1011.73
640.83	1005.44
641.17	999.36
641.52	993.07
641.86	986.65
642.20	980.89
642.55	974.50
642.89	968.01
643.23	961.45
643.58	955.67
643.92	949.45
644.26	943.56
644.61	937.44
644.95	931.37
645.29	924.91
645.64	918.15
645.98	911.79
646.32	905.87
646.66	899.86
647.01	894.08
647.35	888.34
647.69	882.43
648.04	876.90
648.38	871.07
648.72	865.14
649.06	859.13
649.41	853.18
649.75	847.33
650.09	841.44
650.43	835.69
650.78	829.61
651.12	823.67
651.46	817.93
651.80	812.31
652.14	806.93
652.49	801.59
652.83	796.44
653.17	790.81
653.51	785.14
653.85	779.71
654.20	774.09
654.54	768.12
654.88	762.35
655.22	756.42
655.56	750.74
655.90	745.27
656.25	740.05
656.59	734.67
656.93	729.62
657.27	724.56
657.61	719.13
657.95	714.01
658.29	708.92
658.64	703.61
658.98	698.21
659.32	692.72
659.66	687.46
660.00	682.15
660.34	677.24
660.68	672.32
661.02	667.28
661.36	662.56
661.70	658.08
662.05	653.81
662.39	649.54
662.73	645.05
663.07	640.67
663.41	636.27
663.75	631.85
664.09	627.23
664.43	622.81
664.77	618.75
665.11	614.49
665.45	610.34
665.79	606.29
666.13	602.21
666.47	598.10
666.81	593.98
667.15	589.85
667.49	585.94
667.83	582.10
668.17	578.20
668.51	574.20
668.85	570.11
669.19	566.24
669.53	562.44
669.87	558.62
670.21	554.94
670.55	551.23
670.89	547.77
671.23	544.33
671.57	540.77
671.91	537.21
672.25	533.67
672.58	530.18
672.92	526.76
673.26	523.56
673.60	520.46
673.94	517.35
674.28	514.44
674.62	511.45
674.96	508.31
675.30	505.40
675.64	502.42
675.97	499.67
676.31	496.80
676.65	493.83
676.99	491.09
677.33	488.11
677.67	485.32
678.01	482.27
678.34	479.28
678.68	476.43
679.02	473.57
679.36	470.82
679.70	468.11
680.04	465.39
680.37	462.55
680.71	459.70
681.05	457.09
681.39	454.43
681.73	451.75
682.06	449.25
682.40	446.72
682.74	444.18
683.08	441.59
683.42	438.96
683.75	436.43
684.09	433.85
684.43	431.43
684.77	428.94
685.10	426.58
685.44	424.26
685.78	421.92
686.12	419.67
686.45	417.38
686.79	415.02
687.13	412.78
687.46	410.59
687.80	408.39
688.14	406.15
688.48	404.05
688.81	401.82
689.15	399.68
689.49	397.46
689.82	395.38
690.16	393.31
690.50	391.36
690.83	389.47
691.17	387.48
691.51	385.61
691.84	383.76
692.18	381.86
692.52	379.91
692.85	378.02
693.19	376.14
693.52	374.31
693.86	372.52
694.20	370.73
694.53	369.01
694.87	367.24
695.21	365.46
695.54	363.65
695.88	361.98
696.21	360.27
696.55	358.64
696.88	356.95
697.22	355.28
697.56	353.65
697.89	351.97
698.23	350.39
698.56	348.76
698.90	347.19
699.23	345.56
699.57	344.01
699.90	342.50
700.24	340.98
700.58	339.45
700.91	337.99
701.25	336.55
701.58	335.13
701.92	333.77
702.25	332.40
702.59	331.05
702.92	329.70
703.26	328.40
703.59	327.12
703.93	325.97
704.26	324.80
704.60	323.53
704.93	322.26
705.26	321.04
705.60	319.85
705.93	318.67
706.27	317.63
706.60	316.61
706.94	315.53
707.27	314.41
707.61	313.36
707.94	312.30
708.27	311.20
708.61	310.13
708.94	309.13
709.28	308.15
709.61	307.19
709.94	306.20
710.28	305.14
710.61	304.15
710.95	303.04
711.28	302.09
711.61	301.17
711.95	300.31
712.28	299.34
712.61	298.38
712.95	297.47
713.28	296.57
713.61	295.62
713.95	294.71
714.28	293.82
714.61	293.00
714.95	292.12
715.28	291.29
715.61	290.43
715.95	289.54
716.28	288.64
716.61	287.82
716.95	287.00
717.28	286.30
717.61	285.51
717.94	284.75
718.28	283.93
718.61	283.16
718.94	282.42
719.27	281.76
719.61	281.13
719.94	280.43
720.27	279.69
720.60	279.04
720.94	278.42
721.27	277.85
721.60	277.24
721.93	276.68
722.27	276.10
722.60	275.53
722.93	274.93
723.26	274.41
723.59	273.77
723.93	273.20
724.26	272.62
724.59	272.09
724.92	271.55
725.25	271.08
725.59	270.55
725.92	270.01
726.25	269.48
726.58	268.93
726.91	268.41
727.24	267.93
727.57	267.43
727.91	266.87
728.24	266.35
728.57	265.81
728.90	265.30
729.23	264.82
729.56	264.39
729.89	263.93
730.22	263.41
730.55	262.94
730.89	262.52
731.22	262.06
731.55	261.59
731.88	261.18
732.21	260.71
732.54	260.29
732.87	259.91
733.20	259.47
733.53	259.12
733.86	258.75
734.19	258.38
734.52	257.99
734.85	257.72
735.18	257.33
735.51	257.00
735.84	256.66
736.17	256.28
736.50	255.87
736.83	255.66
737.16	255.36
737.49	255.08
737.82	254.73
738.15	254.40
738.48	254.11
738.81	253.78
739.14	253.47
739.47	253.22
739.80	252.89
740.13	252.63
740.46	252.27
740.79	251.98
741.12	251.66
741.45	251.37
741.78	251.00
742.11	250.74
742.44	250.44
742.77	250.16
743.10	249.88
743.43	249.56
743.75	249.14
744.08	248.99
744.41	248.75
744.74	248.51
745.07	248.23
745.40	248.00
745.73	247.78
746.06	247.52
746.39	247.22
746.71	246.95
747.04	246.69
747.37	246.43
747.70	246.21
748.03	246.00
748.36	245.79
748.68	245.56
749.01	245.33
749.34	245.11
749.67	244.87
750.00	244.67
750.33	244.55
750.65	244.36
750.98	244.01
751.31	243.79
751.64	243.58
751.97	243.44
752.29	243.20
752.62	242.92
752.95	242.72
753.28	242.52
753.60	242.32
753.93	242.15
754.26	241.96
754.59	241.72
754.91	241.47
755.24	241.26
755.57	241.07
755.90	240.84
756.22	240.61
756.55	240.42
756.88	240.18
757.20	239.93
757.53	239.72
757.86	239.54
758.19	239.34
758.51	239.17
758.84	238.91
759.17	238.74
759.49	238.57
759.82	238.41
760.15	238.26
760.47	238.07
760.80	237.88
761.13	237.73
761.45	237.58
761.78	237.45
762.11	237.29
762.43	237.12
762.76	236.95
763.08	236.83
763.41	236.67
763.74	236.54
764.06	236.39
764.39	236.26
764.71	236.09
765.04	235.94
765.37	235.78
765.69	235.67
766.02	235.52
766.34	235.42
766.67	235.25
767.00	235.09
767.32	235.03
767.65	234.97
767.97	234.83
768.30	234.70
768.62	234.56
768.95	234.45
769.27	234.33
769.60	234.25
769.92	234.10
770.25	233.98
770.57	233.84
770.90	233.74
771.22	233.64
771.55	233.57
771.87	233.46
772.20	233.39
772.52	233.39
772.85	233.41
773.17	233.29
773.50	233.23
773.82	233.14
774.15	233.01
774.47	232.85
774.80	232.78
775.12	232.72
775.45	232.63
775.77	232.55
776.09	232.48
776.42	232.42
776.74	232.39
777.07	232.32
777.39	232.25
777.72	232.18
778.04	232.11
778.36	232.04
778.69	231.99
779.01	231.93
779.33	231.75
779.66	231.60
779.98	231.56
780.31	231.55
780.63	231.55
780.95	231.50
781.28	231.45
781.60	231.40
781.92	231.35
782.25	231.31
782.57	231.27
782.89	231.19
783.22	231.16
783.54	231.12
783.86	231.09
784.19	231.06
784.51	231.07
784.83	231.01
785.16	230.99
785.48	230.93
785.80	230.85
786.12	230.81
786.45	230.77
786.77	230.75
787.09	230.63
787.42	230.55
787.74	230.52
788.06	230.50
788.38	230.45
788.71	230.39
789.03	230.35
789.35	230.33
789.67	230.28
789.99	230.23
790.32	230.17
790.64	230.14
790.96	230.20
791.28	230.09
791.61	230.06
791.93	230.00
792.25	229.95
792.57	229.99
792.89	229.94
793.21	229.89
793.54	229.82
793.86	229.80
794.18	229.78
794.50	229.71
794.82	229.67
795.14	229.62
795.47	229.59
795.79	229.55
796.11	229.46
796.43	229.44
796.75	229.39
797.07	229.34
797.39	229.27
797.71	229.17
798.04	229.13
798.36	229.06
798.68	229.00
799.00	229.00
799.32	228.92
799.64	228.87
799.96	228.82
800.28	228.81
800.60	228.76
800.92	228.71
801.24	228.70
801.56	228.66
801.89	228.64
802.21	228.60
802.53	228.53
802.85	228.49
803.17	228.51
803.49	228.45
803.81	228.44
804.13	228.39
804.45	228.33
804.77	228.30
805.09	228.26
805.41	228.26
805.73	228.20
806.05	228.10
806.37	228.09
806.69	228.07
807.01	228.04
807.33	228.00
807.65	227.97
807.97	227.97
808.28	227.93
808.60	227.90
808.92	227.84
809.24	227.92
809.56	227.89
809.88	227.81
810.20	227.77
810.52	227.76
810.84	227.74
811.16	227.71
811.48	227.67
811.80	227.74
812.12	227.71
812.43	227.69
812.75	227.70
813.07	227.68
813.39	227.65
813.71	227.60
814.03	227.56
814.35	227.53
814.67	227.47
814.98	227.42
815.30	227.39
815.62	227.38
815.94	227.26
816.26	227.32
816.58	227.29
816.89	227.33
817.21	227.26
817.53	227.24
817.85	227.23
818.17	227.23
818.48	227.14
818.80	227.14
819.12	227.11
819.44	227.11
819.76	227.08
820.07	227.06
820.39	227.05
820.71	227.07
821.03	227.08
821.34	227.07
821.66	227.11
821.98	227.09
822.30	227.07
822.61	227.13
822.93	227.05
823.25	227.04
823.57	227.01
823.88	227.02
824.20	227.02
824.52	227.04
824.83	227.03
825.15	227.03
825.47	227.01
825.79	227.05
826.10	227.03
826.42	227.03
826.74	227.07
827.05	227.06
827.37	227.06
827.69	227.04
828.00	227.06
828.32	227.05
828.64	227.05
828.95	227.12
829.27	227.11
829.58	227.12
829.90	227.16
830.22	227.17
830.53	227.14
830.85	227.14
831.17	227.11
831.48	227.12
831.80	227.13
832.11	227.14
832.43	227.13
832.75	227.10
833.06	227.15
833.38	227.08
833.69	227.08
834.01	227.09
834.32	227.06
834.64	227.00
834.96	226.97
835.27	226.95
835.59	226.90
835.90	226.86
836.22	226.86
836.53	226.79
836.85	226.74
837.16	226.83
837.48	226.79
837.79	226.81
838.11	226.80
838.42	226.79
838.74	226.78
839.05	226.75
839.37	226.73
839.68	226.66
840.00	226.65
840.31	226.64
840.63	226.59
840.94	226.61
841.26	226.63
841.57	226.64
841.88	226.64
842.20	226.62
842.51	226.60
842.83	226.57
843.14	226.68
843.46	226.71
843.77	226.63
844.08	226.65
844.40	226.62
844.71	226.60
845.03	226.59
845.34	226.54
845.65	226.55
845.97	226.58
846.28	226.61
846.60	226.64
846.91	226.63
847.22	226.63
847.54	226.63
847.85	226.63
848.16	226.62
848.48	226.60
848.79	226.64
849.10	226.65
849.42	226.66
849.73	226.57
850.04	226.58
850.36	226.57
850.67	226.55
850.98	226.58
851.30	226.58
851.61	226.56
851.92	226.56
852.23	226.58
852.55	226.55
852.86	226.52
853.17	226.51
853.49	226.53
853.80	226.52
854.11	226.48
854.42	226.50
854.74	226.50
855.05	226.53
855.36	226.49
855.67	226.48
855.99	226.50
856.30	226.61
856.61	226.57
856.92	226.56
857.23	226.56
857.55	226.51
857.86	226.53
858.17	226.55
858.48	226.55
858.79	226.52
859.11	226.57
859.42	226.54
859.73	226.54
860.04	226.55
860.35	226.54
860.66	226.54
860.98	226.54
861.29	226.52
861.60	226.49
861.91	226.51
862.22	226.50
862.53	226.44
862.84	226.32
863.16	226.37
863.47	226.35
863.78	226.35
864.09	226.35
864.40	226.33
864.71	226.30
865.02	226.32
865.33	226.32
865.64	226.26
865.95	226.26
866.27	226.29
866.58	226.26
866.89	226.24
867.20	226.24
867.51	226.19
867.82	226.18
868.13	226.22
868.44	226.18
868.75	226.22
869.06	226.22
869.37	226.24
869.68	226.18
869.99	226.19
870.30	226.19
870.61	226.23
870.92	226.22
871.23	226.21
871.54	226.21
871.85	226.19
872.16	226.21
872.47	226.21
872.78	226.14
873.09	226.18
873.40	226.17
873.71	226.16
874.02	226.15
874.33	226.14
874.64	226.09
874.95	226.11
875.26	226.05
875.56	226.05
875.87	226.03
876.18	226.04
876.49	226.15
876.80	226.09
877.11	226.03
877.42	226.04
877.73	226.05
878.04	226.04
878.35	226.05
878.66	226.05
878.96	226.05
879.27	226.04
879.58	226.02
879.89	226.05
880.20	226.07
880.51	226.08
880.82	226.08
881.12	226.08
881.43	226.02
881.74	226.01
882.05	226.04
882.36	226.04
882.67	226.05
882.97	225.93
883.28	225.98
883.59	226.00
883.90	226.01
884.21	226.05
884.51	226.05
884.82	226.01
885.13	226.01
885.44	226.03
885.74	226.04
886.05	226.03
886.36	226.02
886.67	226.00
886.98	226.06
887.28	226.08
887.59	226.09
887.90	226.17
888.20	226.20
888.51	226.19
888.82	226.19
889.13	226.20
889.43	226.28
889.74	226.24
890.05	226.24
890.35	226.23
890.66	226.17
890.97	226.15
891.28	226.15
891.58	226.16
891.89	226.19
892.20	226.20
892.50	226.17
892.81	226.18
893.12	226.17
893.42	226.11
893.73	226.13
894.04	226.13
894.34	226.10
894.65	226.08
894.95	226.07
895.26	226.08
895.57	226.15
895.87	226.08
896.18	226.10
896.48	226.12
896.79	226.09
897.10	226.14
897.40	226.15
897.71	226.13
898.01	226.11
898.32	226.10
898.63	226.09
898.93	226.11
899.24	226.11
899.54	226.11
899.85	226.09
900.15	226.05
900.46	226.05
900.76	226.07
901.07	226.08
901.38	226.07
901.68	226.05
901.99	225.98
902.29	225.95
902.60	225.96
902.90	225.93
903.21	225.95
903.51	225.93
903.82	225.97
904.12	226.00
904.43	226.00
904.73	225.99
905.03	225.99
905.34	226.11
905.64	226.10
905.95	226.09
906.25	226.15
906.56	226.14
906.86	226.14
907.17	226.13
907.47	226.13
907.77	226.14
908.08	226.15
908.38	226.15
908.69	226.15
908.99	226.17
909.30	226.15
909.60	226.14
909.90	226.16
910.21	226.12
910.51	226.11
910.81	226.10
911.12	226.10
911.42	226.07
911.73	225.92
912.03	225.93
912.33	225.94
912.64	225.92
912.94	225.92
913.24	225.91
913.55	225.89
913.85	225.88
914.15	225.87
914.46	225.87
914.76	225.82
915.06	225.86
915.37	225.84
915.67	225.85
915.97	225.82
916.27	225.78
916.58	225.76
916.88	225.73
917.18	225.72
917.49	225.76
917.79	225.76
918.09	225.77
918.39	225.81
918.70	225.79
919.00	225.79
919.30	225.82
919.60	225.78
919.91	225.79
920.21	225.75
920.51	225.73
920.81	225.69
921.12	225.71
921.42	225.70
921.72	225.69
922.02	225.70
922.32	225.71
922.63	225.70
922.93	225.75
923.23	225.75
923.53	225.75
923.83	225.70
924.13	225.72
924.44	225.71
924.74	225.69
925.04	225.70
925.34	225.69
925.64	225.63
925.94	225.67
926.24	225.71
926.55	225.72
926.85	225.75
927.15	225.80
927.45	225.80
927.75	225.76
928.05	225.78
928.35	225.76
928.65	225.81
928.95	225.83
929.26	225.80
929.56	225.83
929.86	225.85
930.16	225.84
930.46	225.83
930.76	225.86
931.06	225.81
931.36	225.78
931.66	225.78
931.96	225.82
932.26	225.80
932.56	225.76
932.86	225.78
933.16	225.75
933.46	225.71
933.76	225.69
934.06	225.74
934.36	225.77
934.66	225.79
934.96	225.76
935.26	225.77
935.56	225.80
935.86	225.75
936.16	225.71
936.46	225.69
936.76	225.70
937.06	225.70
937.36	225.74
937.66	225.75
937.96	225.75
938.26	225.74
938.56	225.71
938.86	225.70
939.16	225.74
939.46	225.78
939.76	225.77
940.06	225.78
940.35	225.76
940.65	225.69
940.95	225.68
941.25	225.66
941.55	225.63
941.85	225.63
942.15	225.67
942.45	225.69
942.75	225.73
943.04	225.71
943.34	225.72
943.64	225.71
943.94	225.71
944.24	225.72
944.54	225.73
944.84	225.75
945.13	225.75
945.43	225.69
945.73	225.69
946.03	225.72
946.33	225.71
946.62	225.70
946.92	225.70
947.22	225.73
947.52	225.74
947.82	225.77
948.11	225.76
948.41	225.74
948.71	225.73
949.01	225.73
949.31	225.74
949.60	225.72
949.90	225.71
950.20	225.70
950.50	225.69
950.79	225.68
951.09	225.67
951.39	225.69
951.69	225.69
951.98	225.70
952.28	225.68
952.58	225.66
952.87	225.67
953.17	225.69
953.47	225.64
953.76	225.62
954.06	225.57
954.36	225.57
954.66	225.58
954.95	225.60
955.25	225.60
955.55	225.59
955.84	225.59
956.14	225.59
956.44	225.61
956.73	225.57
957.03	225.61
957.32	225.59
957.62	225.55
957.92	225.57
958.21	225.54
958.51	225.64
958.81	225.66
959.10	225.67
959.40	225.72
959.69	225.75
959.99	225.76
960.29	225.77
960.58	225.72
960.88	225.75
961.17	225.72
961.47	225.75
961.76	225.76
962.06	225.78
962.36	225.78
962.65	225.77
962.95	225.80
963.24	225.75
963.54	225.75
963.83	225.78
964.13	225.79
964.42	225.80
964.72	225.72
965.01	225.71
965.31	225.69
965.60	225.63
965.90	225.68
966.19	225.66
966.49	225.65
966.78	225.63
967.08	225.62
967.37	225.61
967.67	225.58
967.96	225.60
968.26	225.58
968.55	225.60
968.85	225.57
969.14	225.57
969.43	225.62
969.73	225.64
970.02	225.62
970.32	225.59
970.61	225.62
970.91	225.59
971.20	225.60
971.49	225.60
971.79	225.64
972.08	225.59
972.38	225.60
972.67	225.67
972.96	225.73
973.26	225.73
973.55	225.78
973.85	225.77
974.14	225.77
974.43	225.78
974.73	225.78
975.02	225.79
975.31	225.77
975.61	225.78
975.90	225.77
976.19	225.77
976.49	225.81
976.78	225.78
977.07	225.78
977.37	225.79
977.66	225.81
977.95	225.80
978.24	225.83
978.54	225.86
978.83	225.82
979.12	225.83
979.42	225.84
979.71	225.85
980.00	225.86
980.29	225.87
980.59	225.83
980.88	225.85
981.17	225.86
981.46	225.89
981.76	225.87
982.05	225.92
982.34	225.94
982.63	225.90
982.93	225.92
983.22	225.95
983.51	225.95
983.80	225.94
984.09	225.97
984.39	225.96
984.68	225.92
984.97	225.92
985.26	225.91
985.55	225.88
985.85	225.85
986.14	225.84
986.43	225.85
986.72	225.87
987.01	225.81
987.30	225.82
987.59	225.81
987.89	225.81
988.18	225.77
988.47	225.75
988.76	225.77
989.05	225.74
989.34	225.72
989.63	225.73
989.92	225.71
990.22	225.67
990.51	225.65
990.80	225.66
991.09	225.65
991.38	225.63
991.67	225.62
991.96	225.61
992.25	225.61
992.54	225.55
992.83	225.53
993.12	225.54
993.41	225.53
993.70	225.54
993.99	225.55
994.28	225.55
994.58	225.56
994.87	225.55
995.16	225.54
995.45	225.49
995.74	225.44
996.03	225.44
996.32	225.44
996.61	225.45
996.90	225.44
997.19	225.46
997.48	225.47
997.77	225.48
998.06	225.48
998.34	225.48
998.63	225.50
998.92	225.51
999.21	225.50
999.50	225.49
999.79	225.44
1000.08	225.46
1000.37	225.45
1000.66	225.45
1000.95	225.49
1001.24	225.51
1001.53	225.53
1001.82	225.58
1002.11	225.58
1002.40	225.58
1002.68	225.58
1002.97	225.66
1003.26	225.61
1003.55	225.57
1003.84	225.57
1004.13	225.60
1004.42	225.57
1004.71	225.57
1004.99	225.60
1005.28	225.62
1005.57	225.63
1005.86	225.65
1006.15	225.62
1006.44	225.61
1006.72	225.59
1007.01	225.58
1007.30	225.56
1007.59	225.59
1007.88	225.58
1008.17	225.56
1008.45	225.54
1008.74	225.53
1009.03	225.49
1009.32	225.52
1009.60	225.52
1009.89	225.54
1010.18	225.50
1010.47	225.49
1010.76	225.48
1011.04	225.47
1011.33	225.46
1011.62	225.49
1011.91	225.48
1012.19	225.47
1012.48	225.48
1012.77	225.51
1013.05	225.56
1013.34	225.56
1013.63	225.54
1013.92	225.53
1014.20	225.54
1014.49	225.53
1014.78	225.53
1015.06	225.50
1015.35	225.51
1015.64	225.54
1015.92	225.50
1016.21	225.48
1016.50	225.51
1016.78	225.53
1017.07	225.55
1017.36	225.55
1017.64	225.52
1017.93	225.55
1018.22	225.56
1018.50	225.56
1018.79	225.56
1019.08	225.50
1019.36	225.50
1019.65	225.51
1019.93	225.54
1020.22	225.57
1020.51	225.65
1020.79	225.63
1021.08	225.64
1021.36	225.33
1021.65	226.04
1021.94	225.42
1022.22	225.55
1022.51	225.50
1022.79	225.96
1023.08	225.76
1023.36	227.03
1023.65	225.31
>>>>>End Processed Spectral Data<<<<<
