SpectraSuite Data File
++++++++++++++++++++++++++++++++++++
Date: Fri Feb 01 16:18:34 EST 2013
User: group
Dark Spectrum Present: No
Reference Spectrum Present: No
Number of Sampled Component Spectra: 1
Spectrometers: USB2E7196
Integration Time (usec): 35000 (USB2E7196)
Spectra Averaged: 100 (USB2E7196)
Boxcar Smoothing: 10 (USB2E7196)
Correct for Electrical Dark: No (USB2E7196)
Strobe/Lamp Enabled: No (USB2E7196)
Correct for Detector Non-linearity: No (USB2E7196)
Correct for Stray Light: No (USB2E7196)
Number of Pixels in Processed Spectrum: 2048
>>>>>Begin Processed Spectral Data<<<<<
339.09	0.00
339.48	213.85
339.86	215.16
340.24	216.59
340.63	217.50
341.01	221.79
341.39	220.78
341.78	221.79
342.16	223.04
342.54	223.80
342.93	212.13
343.31	222.84
343.69	223.38
344.07	223.84
344.46	224.25
344.84	224.65
345.22	224.84
345.60	225.10
345.99	225.28
346.37	225.40
346.75	225.47
347.13	225.57
347.52	225.64
347.90	225.73
348.28	225.78
348.66	225.83
349.05	225.84
349.43	225.88
349.81	225.91
350.19	225.91
350.57	225.97
350.96	226.03
351.34	226.12
351.72	226.21
352.10	226.35
352.48	226.44
352.87	226.51
353.25	226.59
353.63	226.64
354.01	226.73
354.39	226.81
354.77	226.93
355.15	227.04
355.54	227.10
355.92	227.16
356.30	227.24
356.68	227.36
357.06	227.48
357.44	227.54
357.82	227.62
358.20	227.70
358.58	227.76
358.97	227.86
359.35	227.95
359.73	228.03
360.11	228.08
360.49	228.15
360.87	228.21
361.25	228.28
361.63	228.37
362.01	228.45
362.39	228.51
362.77	228.53
363.15	228.55
363.53	228.61
363.91	228.60
364.29	228.64
364.67	228.59
365.05	228.59
365.43	228.59
365.81	228.62
366.19	228.69
366.57	228.73
366.95	228.72
367.33	228.69
367.71	228.69
368.09	228.65
368.47	228.65
368.85	228.64
369.23	228.63
369.61	228.55
369.99	228.53
370.37	228.53
370.75	228.58
371.13	228.50
371.51	228.44
371.89	228.45
372.27	228.37
372.65	228.33
373.03	228.33
373.41	228.30
373.78	228.29
374.16	228.19
374.54	228.12
374.92	228.05
375.30	228.00
375.68	227.92
376.06	227.90
376.44	227.81
376.82	227.72
377.19	227.65
377.57	227.60
377.95	227.52
378.33	227.41
378.71	227.28
379.09	227.21
379.47	227.13
379.84	227.08
380.22	226.99
380.60	226.91
380.98	226.82
381.36	226.73
381.73	226.58
382.11	226.50
382.49	226.43
382.87	226.37
383.25	226.29
383.62	226.37
384.00	226.27
384.38	226.22
384.76	226.20
385.13	226.19
385.51	226.11
385.89	226.03
386.27	225.98
386.64	225.91
387.02	225.88
387.40	225.84
387.78	225.78
388.15	225.79
388.53	225.76
388.91	225.71
389.29	225.67
389.66	225.67
390.04	225.66
390.42	225.68
390.79	225.67
391.17	225.67
391.55	225.53
391.92	225.56
392.30	225.57
392.68	225.54
393.05	225.54
393.43	225.57
393.81	225.59
394.18	225.61
394.56	225.63
394.94	225.65
395.31	225.67
395.69	225.71
396.06	225.75
396.44	225.77
396.82	225.84
397.19	225.94
397.57	226.02
397.95	226.06
398.32	226.08
398.70	226.12
399.07	226.19
399.45	226.26
399.82	226.32
400.20	226.39
400.58	226.48
400.95	226.49
401.33	226.56
401.70	226.69
402.08	226.80
402.45	226.89
402.83	227.06
403.20	227.16
403.58	227.29
403.95	227.40
404.33	227.54
404.71	227.63
405.08	227.81
405.46	227.91
405.83	228.06
406.21	228.19
406.58	228.40
406.96	228.55
407.33	228.72
407.70	228.93
408.08	229.16
408.45	229.35
408.83	229.62
409.20	229.88
409.58	230.11
409.95	230.33
410.33	230.63
410.70	230.86
411.08	231.17
411.45	231.46
411.82	231.80
412.20	232.15
412.57	232.57
412.95	232.87
413.32	233.28
413.69	233.69
414.07	234.11
414.44	234.57
414.82	235.03
415.19	235.57
415.56	236.08
415.94	236.68
416.31	237.35
416.68	237.94
417.06	238.63
417.43	239.29
417.81	240.07
418.18	240.85
418.55	241.71
418.93	242.54
419.30	243.45
419.67	244.35
420.04	245.30
420.42	246.26
420.79	247.44
421.16	248.62
421.54	249.81
421.91	251.04
422.28	252.25
422.66	253.58
423.03	254.87
423.40	256.21
423.77	257.58
424.15	258.96
424.52	260.46
424.89	262.04
425.26	263.58
425.64	265.03
426.01	266.64
426.38	268.24
426.75	269.96
427.13	271.66
427.50	273.48
427.87	275.36
428.24	277.20
428.61	278.90
428.99	280.80
429.36	282.86
429.73	284.87
430.10	286.94
430.47	288.97
430.85	291.09
431.22	293.31
431.59	295.68
431.96	297.95
432.33	300.43
432.70	302.83
433.08	305.65
433.45	308.24
433.82	310.82
434.19	313.73
434.56	316.54
434.93	319.19
435.30	321.77
435.68	324.63
436.05	327.48
436.42	330.30
436.79	332.80
437.16	335.51
437.53	338.41
437.90	341.19
438.27	343.93
438.64	346.74
439.01	349.32
439.38	351.53
439.75	353.67
440.13	356.13
440.50	358.47
440.87	360.31
441.24	362.27
441.61	364.41
441.98	365.87
442.35	367.65
442.72	369.49
443.09	371.31
443.46	372.34
443.83	372.93
444.20	373.42
444.57	374.26
444.94	374.54
445.31	374.84
445.68	375.17
446.05	375.27
446.42	374.88
446.79	374.42
447.16	374.01
447.53	373.70
447.90	372.56
448.27	371.33
448.64	369.74
449.01	368.61
449.37	366.65
449.74	364.75
450.11	362.53
450.48	360.04
450.85	357.49
451.22	355.30
451.59	353.25
451.96	351.33
452.33	348.73
452.70	346.35
453.07	343.50
453.43	340.62
453.80	337.82
454.17	335.19
454.54	332.68
454.91	329.95
455.28	327.24
455.65	324.76
456.02	322.36
456.38	320.23
456.75	317.54
457.12	315.32
457.49	313.10
457.86	310.92
458.23	309.08
458.59	307.04
458.96	304.97
459.33	303.15
459.70	301.26
460.07	299.79
460.43	298.09
460.80	296.49
461.17	295.05
461.54	293.61
461.91	292.14
462.27	290.71
462.64	289.45
463.01	288.12
463.38	286.84
463.74	285.46
464.11	284.28
464.48	283.27
464.85	282.08
465.21	281.23
465.58	280.29
465.95	279.21
466.32	278.32
466.68	277.44
467.05	276.56
467.42	275.69
467.78	274.76
468.15	273.89
468.52	273.28
468.88	272.42
469.25	271.62
469.62	271.02
469.98	270.36
470.35	269.77
470.72	269.18
471.08	268.52
471.45	268.01
471.82	267.46
472.18	266.90
472.55	266.56
472.92	265.99
473.28	265.54
473.65	265.10
474.02	264.68
474.38	264.31
474.75	264.00
475.11	263.69
475.48	263.45
475.85	263.25
476.21	263.02
476.58	262.85
476.94	262.73
477.31	262.58
477.67	262.40
478.04	262.28
478.41	262.23
478.77	262.28
479.14	262.22
479.50	262.28
479.87	262.35
480.23	262.44
480.60	262.55
480.96	262.68
481.33	262.90
481.69	263.11
482.06	263.34
482.42	263.53
482.79	263.78
483.15	264.04
483.52	264.40
483.88	264.75
484.25	265.13
484.61	265.58
484.98	266.02
485.34	266.61
485.71	267.21
486.07	267.84
486.44	268.42
486.80	269.08
487.17	269.79
487.53	270.60
487.90	271.43
488.26	272.35
488.62	273.28
488.99	274.25
489.35	275.30
489.72	276.39
490.08	277.60
490.44	278.83
490.81	280.20
491.17	281.52
491.54	283.03
491.90	284.60
492.26	286.24
492.63	287.98
492.99	289.76
493.36	291.65
493.72	293.70
494.08	295.82
494.45	298.09
494.81	300.47
495.17	302.90
495.54	305.48
495.90	308.18
496.26	311.04
496.63	314.01
496.99	317.13
497.35	320.39
497.72	323.82
498.08	327.38
498.44	331.08
498.80	335.04
499.17	339.02
499.53	343.17
499.89	347.53
500.26	352.01
500.62	356.71
500.98	361.71
501.34	366.81
501.71	372.12
502.07	377.56
502.43	383.17
502.79	388.98
503.16	395.05
503.52	401.30
503.88	407.69
504.24	414.34
504.60	421.20
504.97	428.39
505.33	435.72
505.69	443.44
506.05	451.21
506.41	459.10
506.78	467.33
507.14	475.79
507.50	484.56
507.86	493.62
508.22	502.76
508.59	511.95
508.95	521.53
509.31	531.40
509.67	541.50
510.03	551.77
510.39	562.38
510.75	573.17
511.12	584.13
511.48	595.44
511.84	606.86
512.20	618.34
512.56	630.33
512.92	642.49
513.28	654.76
513.64	667.20
514.00	679.94
514.37	692.87
514.73	705.95
515.09	718.93
515.45	732.24
515.81	745.91
516.17	759.94
516.53	774.09
516.89	788.19
517.25	802.44
517.61	816.95
517.97	831.37
518.33	845.73
518.69	860.61
519.05	875.50
519.41	890.68
519.77	906.26
520.13	921.55
520.49	936.90
520.85	952.36
521.21	968.16
521.57	984.42
521.93	1000.18
522.29	1016.61
522.65	1032.82
523.01	1048.98
523.37	1065.03
523.73	1081.11
524.09	1096.99
524.45	1113.23
524.81	1129.90
525.17	1146.54
525.53	1163.44
525.89	1180.34
526.25	1197.11
526.61	1213.58
526.97	1230.28
527.33	1246.60
527.68	1263.18
528.04	1279.64
528.40	1296.19
528.76	1313.14
529.12	1329.59
529.48	1346.44
529.84	1362.29
530.20	1378.88
530.56	1395.81
530.91	1413.06
531.27	1429.81
531.63	1446.30
531.99	1462.86
532.35	1478.63
532.71	1494.56
533.07	1510.64
533.42	1526.41
533.78	1542.44
534.14	1558.70
534.50	1573.98
534.86	1589.82
535.21	1605.02
535.57	1620.91
535.93	1636.32
536.29	1651.06
536.65	1666.01
537.00	1680.76
537.36	1695.99
537.72	1710.50
538.08	1724.88
538.44	1738.58
538.79	1752.35
539.15	1765.96
539.51	1779.73
539.87	1793.98
540.22	1807.63
540.58	1821.41
540.94	1834.76
541.29	1847.41
541.65	1860.00
542.01	1873.16
542.37	1885.58
542.72	1897.87
543.08	1909.71
543.44	1922.14
543.79	1933.35
544.15	1944.32
544.51	1955.85
544.87	1966.81
545.22	1977.55
545.58	1987.73
545.94	1997.58
546.29	2007.45
546.65	2017.39
547.01	2026.51
547.36	2035.27
547.72	2043.78
548.07	2051.51
548.43	2059.57
548.79	2067.64
549.14	2075.11
549.50	2082.36
549.86	2089.99
550.21	2097.32
550.57	2104.37
550.92	2110.69
551.28	2117.55
551.64	2124.71
551.99	2131.03
552.35	2137.13
552.70	2143.23
553.06	2149.11
553.41	2155.42
553.77	2161.50
554.13	2167.62
554.48	2173.81
554.84	2179.22
555.19	2184.39
555.55	2189.59
555.90	2194.12
556.26	2198.95
556.61	2203.68
556.97	2207.92
557.32	2211.93
557.68	2216.11
558.03	2220.35
558.39	2224.19
558.74	2228.95
559.10	2232.81
559.45	2236.60
559.81	2240.99
560.16	2244.82
560.52	2248.08
560.87	2251.41
561.23	2253.95
561.58	2256.80
561.94	2259.32
562.29	2261.79
562.64	2264.49
563.00	2267.13
563.35	2270.55
563.71	2273.73
564.06	2276.99
564.42	2279.89
564.77	2282.47
565.12	2284.69
565.48	2286.62
565.83	2288.63
566.19	2289.94
566.54	2290.72
566.89	2291.83
567.25	2292.41
567.60	2293.74
567.96	2295.55
568.31	2296.42
568.66	2297.64
569.02	2298.21
569.37	2298.46
569.72	2299.37
570.08	2299.60
570.43	2299.74
570.78	2299.36
571.14	2297.80
571.49	2296.48
571.84	2296.28
572.20	2295.32
572.55	2294.29
572.90	2292.74
573.26	2291.35
573.61	2289.72
573.96	2288.19
574.31	2285.30
574.67	2282.28
575.02	2278.77
575.37	2275.37
575.72	2271.69
576.08	2268.26
576.43	2264.97
576.78	2261.40
577.13	2258.20
577.49	2255.13
577.84	2251.53
578.19	2247.75
578.54	2244.30
578.90	2240.15
579.25	2234.63
579.60	2229.70
579.95	2224.79
580.30	2219.81
580.66	2214.62
581.01	2209.65
581.36	2204.77
581.71	2200.64
582.06	2196.21
582.42	2191.87
582.77	2186.74
583.12	2182.21
583.47	2177.58
583.82	2172.68
584.17	2167.58
584.53	2162.21
584.88	2156.51
585.23	2150.91
585.58	2145.47
585.93	2139.91
586.28	2135.15
586.63	2130.14
586.98	2125.02
587.34	2120.30
587.69	2115.51
588.04	2110.32
588.39	2104.78
588.74	2098.28
589.09	2092.14
589.44	2085.41
589.79	2079.29
590.14	2073.75
590.49	2067.20
590.84	2060.83
591.19	2054.79
591.54	2048.25
591.89	2040.91
592.25	2034.17
592.60	2026.97
592.95	2019.33
593.30	2012.13
593.65	2004.55
594.00	1997.40
594.35	1990.19
594.70	1982.14
595.05	1974.90
595.40	1967.63
595.75	1960.04
596.10	1953.76
596.45	1947.11
596.80	1941.02
597.15	1934.45
597.50	1927.35
597.85	1920.86
598.19	1914.30
598.54	1907.21
598.89	1900.47
599.24	1894.58
599.59	1888.08
599.94	1881.97
600.29	1875.69
600.64	1869.15
600.99	1861.74
601.34	1855.05
601.69	1848.14
602.04	1841.49
602.39	1834.27
602.74	1827.44
603.08	1820.80
603.43	1814.11
603.78	1806.65
604.13	1799.48
604.48	1792.13
604.83	1785.28
605.18	1778.42
605.53	1770.35
605.87	1762.26
606.22	1755.19
606.57	1747.10
606.92	1739.77
607.27	1732.53
607.62	1725.66
607.96	1718.32
608.31	1711.68
608.66	1704.07
609.01	1696.59
609.36	1688.91
609.70	1680.81
610.05	1672.82
610.40	1665.08
610.75	1656.72
611.10	1649.21
611.44	1640.84
611.79	1632.96
612.14	1624.27
612.49	1615.09
612.83	1606.86
613.18	1598.78
613.53	1590.66
613.88	1582.25
614.22	1573.91
614.57	1565.29
614.92	1557.21
615.27	1549.68
615.61	1541.29
615.96	1533.30
616.31	1525.59
616.65	1518.19
617.00	1510.65
617.35	1503.00
617.70	1494.74
618.04	1486.22
618.39	1478.00
618.74	1470.44
619.08	1462.08
619.43	1454.43
619.78	1447.55
620.12	1440.34
620.47	1432.90
620.82	1424.71
621.16	1417.26
621.51	1409.61
621.85	1401.91
622.20	1393.43
622.55	1385.00
622.89	1377.15
623.24	1369.45
623.59	1362.12
623.93	1354.61
624.28	1347.37
624.62	1339.77
624.97	1332.52
625.32	1325.94
625.66	1318.77
626.01	1311.58
626.35	1304.14
626.70	1296.32
627.04	1288.47
627.39	1280.55
627.73	1273.11
628.08	1266.22
628.43	1258.97
628.77	1251.63
629.12	1244.10
629.46	1236.92
629.81	1229.58
630.15	1222.34
630.50	1215.04
630.84	1206.61
631.19	1198.72
631.53	1191.19
631.88	1183.65
632.22	1176.04
632.57	1168.64
632.91	1161.25
633.26	1153.73
633.60	1146.33
633.95	1139.29
634.29	1132.34
634.64	1125.66
634.98	1118.28
635.32	1111.09
635.67	1104.45
636.01	1097.77
636.36	1091.01
636.70	1084.42
637.05	1077.75
637.39	1071.30
637.73	1064.68
638.08	1058.88
638.42	1052.81
638.77	1046.34
639.11	1039.72
639.45	1033.27
639.80	1026.53
640.14	1020.00
640.49	1013.50
640.83	1007.16
641.17	1000.98
641.52	994.59
641.86	988.18
642.20	982.30
642.55	976.00
642.89	969.47
643.23	962.92
643.58	957.13
643.92	951.00
644.26	944.91
644.61	938.85
644.95	932.81
645.29	926.17
645.64	919.45
645.98	913.09
646.32	907.30
646.66	901.27
647.01	895.55
647.35	889.84
647.69	883.92
648.04	878.42
648.38	872.60
648.72	866.57
649.06	860.56
649.41	854.68
649.75	848.69
650.09	842.78
650.43	836.98
650.78	830.85
651.12	824.93
651.46	819.28
651.80	813.56
652.14	808.15
652.49	802.84
652.83	797.61
653.17	791.91
653.51	786.12
653.85	780.75
654.20	775.02
654.54	769.00
654.88	763.30
655.22	757.38
655.56	751.66
655.90	746.24
656.25	740.92
656.59	735.57
656.93	730.52
657.27	725.33
657.61	719.92
657.95	714.78
658.29	709.71
658.64	704.47
658.98	699.18
659.32	693.73
659.66	688.53
660.00	683.16
660.34	678.32
660.68	673.37
661.02	668.32
661.36	663.66
661.70	659.20
662.05	654.85
662.39	650.57
662.73	646.07
663.07	641.70
663.41	637.28
663.75	632.79
664.09	628.19
664.43	623.75
664.77	619.61
665.11	615.35
665.45	611.18
665.79	607.09
666.13	602.93
666.47	598.80
666.81	594.63
667.15	590.61
667.49	586.67
667.83	582.86
668.17	578.93
668.51	574.85
668.85	570.82
669.19	566.94
669.53	563.08
669.87	559.24
670.21	555.49
670.55	551.87
670.89	548.43
671.23	545.00
671.57	541.50
671.91	537.92
672.25	534.42
672.58	530.87
672.92	527.43
673.26	524.26
673.60	521.10
673.94	517.95
674.28	515.03
674.62	512.01
674.96	508.90
675.30	505.97
675.64	503.01
675.97	500.17
676.31	497.29
676.65	494.28
676.99	491.58
677.33	488.72
677.67	485.87
678.01	482.86
678.34	479.86
678.68	476.99
679.02	474.15
679.36	471.37
679.70	468.66
680.04	465.87
680.37	463.02
680.71	460.25
681.05	457.67
681.39	454.89
681.73	452.26
682.06	449.77
682.40	447.18
682.74	444.67
683.08	442.13
683.42	439.53
683.75	437.01
684.09	434.43
684.43	431.96
684.77	429.51
685.10	427.11
685.44	424.77
685.78	422.49
686.12	420.22
686.45	417.90
686.79	415.55
687.13	413.39
687.46	411.21
687.80	409.07
688.14	406.80
688.48	404.78
688.81	402.49
689.15	400.26
689.49	398.13
689.82	396.03
690.16	393.95
690.50	392.01
690.83	390.13
691.17	388.12
691.51	386.22
691.84	384.33
692.18	382.35
692.52	380.33
692.85	378.38
693.19	376.52
693.52	374.71
693.86	372.88
694.20	371.04
694.53	369.21
694.87	367.37
695.21	365.62
695.54	363.75
695.88	362.04
696.21	360.34
696.55	358.70
696.88	357.02
697.22	355.32
697.56	353.70
697.89	352.01
698.23	350.40
698.56	348.80
698.90	347.22
699.23	345.63
699.57	344.08
699.90	342.56
700.24	341.03
700.58	339.51
700.91	337.99
701.25	336.60
701.58	335.22
701.92	333.80
702.25	332.39
702.59	331.01
702.92	329.71
703.26	328.43
703.59	327.12
703.93	325.94
704.26	324.72
704.60	323.42
704.93	322.13
705.26	320.89
705.60	319.71
705.93	318.53
706.27	317.47
706.60	316.44
706.94	315.34
707.27	314.21
707.61	313.14
707.94	312.13
708.27	311.01
708.61	309.94
708.94	308.93
709.28	307.97
709.61	307.03
709.94	306.02
710.28	304.96
710.61	303.95
710.95	302.88
711.28	301.98
711.61	301.02
711.95	300.15
712.28	299.19
712.61	298.21
712.95	297.27
713.28	296.41
713.61	295.52
713.95	294.64
714.28	293.82
714.61	292.97
714.95	292.12
715.28	291.28
715.61	290.43
715.95	289.56
716.28	288.67
716.61	287.86
716.95	287.05
717.28	286.34
717.61	285.57
717.94	284.83
718.28	284.02
718.61	283.30
718.94	282.57
719.27	281.88
719.61	281.22
719.94	280.60
720.27	279.86
720.60	279.20
720.94	278.57
721.27	277.97
721.60	277.35
721.93	276.78
722.27	276.24
722.60	275.64
722.93	275.09
723.26	274.56
723.59	273.98
723.93	273.47
724.26	272.87
724.59	272.31
724.92	271.76
725.25	271.26
725.59	270.73
725.92	270.23
726.25	269.71
726.58	269.22
726.91	268.69
727.24	268.22
727.57	267.72
727.91	267.21
728.24	266.74
728.57	266.28
728.90	265.83
729.23	265.32
729.56	264.89
729.89	264.47
730.22	264.00
730.55	263.53
730.89	263.06
731.22	262.65
731.55	262.21
731.88	261.78
732.21	261.31
732.54	260.88
732.87	260.46
733.20	260.06
733.53	259.64
733.86	259.26
734.19	258.85
734.52	258.47
734.85	258.17
735.18	257.75
735.51	257.35
735.84	256.97
736.17	256.63
736.50	256.25
736.83	255.99
737.16	255.66
737.49	255.36
737.82	255.01
738.15	254.65
738.48	254.35
738.81	254.04
739.14	253.73
739.47	253.43
739.80	253.14
740.13	252.88
740.46	252.58
740.79	252.26
741.12	252.00
741.45	251.70
741.78	251.34
742.11	251.07
742.44	250.76
742.77	250.49
743.10	250.17
743.43	249.86
743.75	249.47
744.08	249.35
744.41	249.08
744.74	248.80
745.07	248.55
745.40	248.30
745.73	248.09
746.06	247.84
746.39	247.57
746.71	247.32
747.04	247.02
747.37	246.79
747.70	246.54
748.03	246.27
748.36	246.08
748.68	245.85
749.01	245.59
749.34	245.36
749.67	245.11
750.00	244.90
750.33	244.76
750.65	244.57
750.98	244.20
751.31	243.95
751.64	243.75
751.97	243.61
752.29	243.38
752.62	243.09
752.95	242.89
753.28	242.65
753.60	242.44
753.93	242.26
754.26	242.04
754.59	241.83
754.91	241.61
755.24	241.39
755.57	241.19
755.90	241.01
756.22	240.81
756.55	240.63
756.88	240.43
757.20	240.15
757.53	239.97
757.86	239.79
758.19	239.65
758.51	239.45
758.84	239.24
759.17	239.07
759.49	238.94
759.82	238.81
760.15	238.69
760.47	238.52
760.80	238.35
761.13	238.23
761.45	238.04
761.78	237.89
762.11	237.79
762.43	237.62
762.76	237.48
763.08	237.40
763.41	237.27
763.74	237.13
764.06	237.02
764.39	236.84
764.71	236.71
765.04	236.56
765.37	236.45
765.69	236.27
766.02	236.15
766.34	235.98
766.67	235.82
767.00	235.71
767.32	235.64
767.65	235.59
767.97	235.46
768.30	235.37
768.62	235.28
768.95	235.13
769.27	235.01
769.60	234.91
769.92	234.75
770.25	234.58
770.57	234.46
770.90	234.38
771.22	234.29
771.55	234.16
771.87	234.09
772.20	233.98
772.52	233.98
772.85	234.00
773.17	233.93
773.50	233.83
773.82	233.70
774.15	233.54
774.47	233.38
774.80	233.30
775.12	233.22
775.45	233.09
775.77	233.01
776.09	232.96
776.42	232.88
776.74	232.85
777.07	232.80
777.39	232.72
777.72	232.63
778.04	232.57
778.36	232.53
778.69	232.46
779.01	232.37
779.33	232.24
779.66	232.06
779.98	231.96
780.31	231.90
780.63	231.91
780.95	231.90
781.28	231.84
781.60	231.74
781.92	231.66
782.25	231.64
782.57	231.58
782.89	231.53
783.22	231.46
783.54	231.39
783.86	231.34
784.19	231.30
784.51	231.25
784.83	231.19
785.16	231.14
785.48	231.08
785.80	231.06
786.12	231.03
786.45	231.00
786.77	230.99
787.09	230.93
787.42	230.84
787.74	230.79
788.06	230.77
788.38	230.73
788.71	230.72
789.03	230.70
789.35	230.68
789.67	230.63
789.99	230.59
790.32	230.54
790.64	230.53
790.96	230.56
791.28	230.50
791.61	230.44
791.93	230.40
792.25	230.35
792.57	230.36
792.89	230.28
793.21	230.25
793.54	230.17
793.86	230.13
794.18	230.11
794.50	230.04
794.82	230.02
795.14	230.00
795.47	229.95
795.79	229.87
796.11	229.82
796.43	229.76
796.75	229.72
797.07	229.68
797.39	229.66
797.71	229.57
798.04	229.54
798.36	229.53
798.68	229.47
799.00	229.46
799.32	229.37
799.64	229.37
799.96	229.31
800.28	229.33
800.60	229.31
800.92	229.27
801.24	229.22
801.56	229.18
801.89	229.14
802.21	229.14
802.53	229.13
802.85	229.06
803.17	229.08
803.49	229.05
803.81	229.00
804.13	228.93
804.45	228.87
804.77	228.83
805.09	228.80
805.41	228.77
805.73	228.74
806.05	228.70
806.37	228.65
806.69	228.62
807.01	228.57
807.33	228.54
807.65	228.49
807.97	228.53
808.28	228.49
808.60	228.46
808.92	228.41
809.24	228.43
809.56	228.40
809.88	228.35
810.20	228.33
810.52	228.33
810.84	228.32
811.16	228.30
811.48	228.30
811.80	228.29
812.12	228.29
812.43	228.28
812.75	228.26
813.07	228.26
813.39	228.26
813.71	228.24
814.03	228.17
814.35	228.13
814.67	228.04
814.98	227.99
815.30	227.96
815.62	227.91
815.94	227.80
816.26	227.84
816.58	227.80
816.89	227.78
817.21	227.74
817.53	227.71
817.85	227.67
818.17	227.65
818.48	227.62
818.80	227.62
819.12	227.57
819.44	227.56
819.76	227.52
820.07	227.53
820.39	227.53
820.71	227.55
821.03	227.55
821.34	227.55
821.66	227.57
821.98	227.56
822.30	227.58
822.61	227.62
822.93	227.56
823.25	227.58
823.57	227.56
823.88	227.57
824.20	227.60
824.52	227.62
824.83	227.61
825.15	227.60
825.47	227.58
825.79	227.60
826.10	227.60
826.42	227.59
826.74	227.57
827.05	227.55
827.37	227.58
827.69	227.58
828.00	227.57
828.32	227.56
828.64	227.55
828.95	227.57
829.27	227.58
829.58	227.59
829.90	227.56
830.22	227.60
830.53	227.55
830.85	227.52
831.17	227.49
831.48	227.49
831.80	227.46
832.11	227.45
832.43	227.43
832.75	227.41
833.06	227.44
833.38	227.39
833.69	227.35
834.01	227.32
834.32	227.32
834.64	227.35
834.96	227.30
835.27	227.30
835.59	227.26
835.90	227.22
836.22	227.20
836.53	227.19
836.85	227.15
837.16	227.23
837.48	227.19
837.79	227.21
838.11	227.18
838.42	227.18
838.74	227.18
839.05	227.16
839.37	227.16
839.68	227.12
840.00	227.13
840.31	227.13
840.63	227.10
840.94	227.05
841.26	227.03
841.57	227.07
841.88	227.07
842.20	227.03
842.51	227.01
842.83	227.00
843.14	227.08
843.46	227.04
843.77	226.99
844.08	226.96
844.40	226.90
844.71	226.88
845.03	226.87
845.34	226.85
845.65	226.79
845.97	226.77
846.28	226.77
846.60	226.75
846.91	226.76
847.22	226.75
847.54	226.79
847.85	226.79
848.16	226.74
848.48	226.73
848.79	226.81
849.10	226.81
849.42	226.80
849.73	226.68
850.04	226.68
850.36	226.62
850.67	226.64
850.98	226.64
851.30	226.65
851.61	226.65
851.92	226.63
852.23	226.65
852.55	226.62
852.86	226.59
853.17	226.59
853.49	226.59
853.80	226.59
854.11	226.56
854.42	226.53
854.74	226.53
855.05	226.51
855.36	226.43
855.67	226.43
855.99	226.43
856.30	226.57
856.61	226.53
856.92	226.53
857.23	226.52
857.55	226.51
857.86	226.50
858.17	226.48
858.48	226.48
858.79	226.46
859.11	226.48
859.42	226.49
859.73	226.48
860.04	226.48
860.35	226.44
860.66	226.41
860.98	226.39
861.29	226.38
861.60	226.39
861.91	226.39
862.22	226.37
862.53	226.34
862.84	226.23
863.16	226.28
863.47	226.27
863.78	226.26
864.09	226.28
864.40	226.30
864.71	226.32
865.02	226.34
865.33	226.36
865.64	226.33
865.95	226.32
866.27	226.37
866.58	226.34
866.89	226.37
867.20	226.38
867.51	226.37
867.82	226.39
868.13	226.41
868.44	226.39
868.75	226.43
869.06	226.44
869.37	226.41
869.68	226.39
869.99	226.42
870.30	226.45
870.61	226.45
870.92	226.42
871.23	226.40
871.54	226.37
871.85	226.40
872.16	226.41
872.47	226.41
872.78	226.34
873.09	226.35
873.40	226.34
873.71	226.36
874.02	226.38
874.33	226.37
874.64	226.34
874.95	226.38
875.26	226.34
875.56	226.34
875.87	226.36
876.18	226.35
876.49	226.47
876.80	226.46
877.11	226.47
877.42	226.52
877.73	226.55
878.04	226.55
878.35	226.55
878.66	226.55
878.96	226.56
879.27	226.58
879.58	226.59
879.89	226.57
880.20	226.59
880.51	226.59
880.82	226.59
881.12	226.60
881.43	226.58
881.74	226.60
882.05	226.59
882.36	226.58
882.67	226.61
882.97	226.50
883.28	226.47
883.59	226.40
883.90	226.35
884.21	226.34
884.51	226.33
884.82	226.31
885.13	226.34
885.44	226.31
885.74	226.32
886.05	226.32
886.36	226.34
886.67	226.29
886.98	226.34
887.28	226.37
887.59	226.36
887.90	226.38
888.20	226.35
888.51	226.35
888.82	226.33
889.13	226.33
889.43	226.38
889.74	226.39
890.05	226.39
890.35	226.40
890.66	226.33
890.97	226.33
891.28	226.30
891.58	226.26
891.89	226.25
892.20	226.22
892.50	226.21
892.81	226.18
893.12	226.17
893.42	226.10
893.73	226.10
894.04	226.09
894.34	226.09
894.65	226.07
894.95	226.06
895.26	226.06
895.57	226.12
895.87	226.01
896.18	226.01
896.48	226.05
896.79	226.03
897.10	226.11
897.40	226.09
897.71	226.09
898.01	226.09
898.32	226.09
898.63	226.06
898.93	226.05
899.24	226.07
899.54	226.04
899.85	226.03
900.15	225.95
900.46	225.97
900.76	225.94
901.07	225.93
901.38	225.92
901.68	225.92
901.99	225.83
902.29	225.84
902.60	225.86
902.90	225.83
903.21	225.83
903.51	225.79
903.82	225.81
904.12	225.81
904.43	225.81
904.73	225.81
905.03	225.84
905.34	225.95
905.64	225.92
905.95	225.93
906.25	225.93
906.56	225.98
906.86	225.97
907.17	225.97
907.47	225.99
907.77	226.00
908.08	225.99
908.38	226.06
908.69	226.07
908.99	226.08
909.30	226.08
909.60	226.12
909.90	226.13
910.21	226.12
910.51	226.16
910.81	226.15
911.12	226.19
911.42	226.19
911.73	226.07
912.03	226.08
912.33	226.11
912.64	226.13
912.94	226.10
913.24	226.09
913.55	226.11
913.85	226.13
914.15	226.16
914.46	226.15
914.76	226.12
915.06	226.12
915.37	226.09
915.67	226.13
915.97	226.16
916.27	226.16
916.58	226.17
916.88	226.11
917.18	226.16
917.49	226.24
917.79	226.25
918.09	226.28
918.39	226.33
918.70	226.37
919.00	226.36
919.30	226.42
919.60	226.42
919.91	226.38
920.21	226.38
920.51	226.37
920.81	226.36
921.12	226.36
921.42	226.35
921.72	226.38
922.02	226.38
922.32	226.36
922.63	226.33
922.93	226.41
923.23	226.48
923.53	226.44
923.83	226.38
924.13	226.40
924.44	226.43
924.74	226.42
925.04	226.42
925.34	226.45
925.64	226.42
925.94	226.41
926.24	226.49
926.55	226.49
926.85	226.51
927.15	226.52
927.45	226.54
927.75	226.56
928.05	226.55
928.35	226.52
928.65	226.53
928.95	226.58
929.26	226.50
929.56	226.48
929.86	226.49
930.16	226.45
930.46	226.44
930.76	226.42
931.06	226.39
931.36	226.36
931.66	226.37
931.96	226.39
932.26	226.43
932.56	226.40
932.86	226.38
933.16	226.37
933.46	226.37
933.76	226.35
934.06	226.36
934.36	226.39
934.66	226.40
934.96	226.37
935.26	226.35
935.56	226.35
935.86	226.32
936.16	226.30
936.46	226.31
936.76	226.28
937.06	226.25
937.36	226.25
937.66	226.25
937.96	226.19
938.26	226.15
938.56	226.13
938.86	226.12
939.16	226.14
939.46	226.12
939.76	226.11
940.06	226.08
940.35	226.07
940.65	226.02
940.95	226.01
941.25	226.00
941.55	225.96
941.85	225.98
942.15	225.99
942.45	226.02
942.75	226.01
943.04	226.01
943.34	226.03
943.64	226.02
943.94	226.00
944.24	226.02
944.54	226.01
944.84	225.99
945.13	225.95
945.43	225.92
945.73	225.94
946.03	225.98
946.33	225.99
946.62	225.99
946.92	225.98
947.22	225.98
947.52	225.97
947.82	226.02
948.11	226.01
948.41	225.98
948.71	225.95
949.01	225.98
949.31	225.97
949.60	225.98
949.90	225.97
950.20	225.99
950.50	225.99
950.79	226.00
951.09	226.00
951.39	226.01
951.69	226.01
951.98	226.03
952.28	226.02
952.58	226.03
952.87	225.99
953.17	226.02
953.47	226.01
953.76	226.04
954.06	226.01
954.36	225.98
954.66	226.00
954.95	226.02
955.25	226.01
955.55	226.05
955.84	226.02
956.14	226.04
956.44	226.06
956.73	226.05
957.03	226.08
957.32	226.09
957.62	226.11
957.92	226.15
958.21	226.12
958.51	226.24
958.81	226.25
959.10	226.29
959.40	226.33
959.69	226.33
959.99	226.34
960.29	226.36
960.58	226.37
960.88	226.41
961.17	226.41
961.47	226.40
961.76	226.37
962.06	226.38
962.36	226.37
962.65	226.36
962.95	226.37
963.24	226.35
963.54	226.36
963.83	226.35
964.13	226.34
964.42	226.34
964.72	226.23
965.01	226.21
965.31	226.16
965.60	226.11
965.90	226.16
966.19	226.12
966.49	226.11
966.78	226.09
967.08	226.10
967.37	226.11
967.67	226.09
967.96	226.10
968.26	226.10
968.55	226.10
968.85	226.08
969.14	226.08
969.43	226.07
969.73	226.06
970.02	226.05
970.32	226.02
970.61	226.00
970.91	225.98
971.20	225.95
971.49	225.99
971.79	225.97
972.08	225.93
972.38	225.94
972.67	225.93
972.96	225.93
973.26	225.88
973.55	225.90
973.85	225.91
974.14	225.88
974.43	225.85
974.73	225.80
975.02	225.79
975.31	225.76
975.61	225.75
975.90	225.72
976.19	225.72
976.49	225.73
976.78	225.73
977.07	225.70
977.37	225.72
977.66	225.70
977.95	225.68
978.24	225.66
978.54	225.67
978.83	225.65
979.12	225.64
979.42	225.62
979.71	225.58
980.00	225.57
980.29	225.60
980.59	225.59
980.88	225.63
981.17	225.63
981.46	225.62
981.76	225.61
982.05	225.63
982.34	225.63
982.63	225.60
982.93	225.63
983.22	225.69
983.51	225.68
983.80	225.70
984.09	225.72
984.39	225.71
984.68	225.71
984.97	225.72
985.26	225.73
985.55	225.74
985.85	225.73
986.14	225.76
986.43	225.77
986.72	225.77
987.01	225.74
987.30	225.72
987.59	225.72
987.89	225.73
988.18	225.72
988.47	225.68
988.76	225.70
989.05	225.69
989.34	225.68
989.63	225.71
989.92	225.71
990.22	225.71
990.51	225.70
990.80	225.69
991.09	225.68
991.38	225.70
991.67	225.69
991.96	225.66
992.25	225.64
992.54	225.60
992.83	225.60
993.12	225.62
993.41	225.67
993.70	225.76
993.99	225.76
994.28	225.78
994.58	225.84
994.87	225.80
995.16	225.76
995.45	225.72
995.74	225.68
996.03	225.67
996.32	225.68
996.61	225.73
996.90	225.75
997.19	225.77
997.48	225.76
997.77	225.76
998.06	225.81
998.34	225.80
998.63	225.83
998.92	225.83
999.21	225.86
999.50	225.83
999.79	225.78
1000.08	225.77
1000.37	225.77
1000.66	225.73
1000.95	225.79
1001.24	225.81
1001.53	225.86
1001.82	225.85
1002.11	225.84
1002.40	225.86
1002.68	225.87
1002.97	225.92
1003.26	225.90
1003.55	225.94
1003.84	225.97
1004.13	225.99
1004.42	226.00
1004.71	225.97
1004.99	225.98
1005.28	225.99
1005.57	226.01
1005.86	225.98
1006.15	226.00
1006.44	225.98
1006.72	226.02
1007.01	225.98
1007.30	226.00
1007.59	225.96
1007.88	225.98
1008.17	225.99
1008.45	225.96
1008.74	225.91
1009.03	225.85
1009.32	225.87
1009.60	225.82
1009.89	225.79
1010.18	225.74
1010.47	225.76
1010.76	225.77
1011.04	225.74
1011.33	225.74
1011.62	225.72
1011.91	225.75
1012.19	225.74
1012.48	225.76
1012.77	225.76
1013.05	225.81
1013.34	225.81
1013.63	225.83
1013.92	225.82
1014.20	225.80
1014.49	225.82
1014.78	225.84
1015.06	225.81
1015.35	225.76
1015.64	225.77
1015.92	225.80
1016.21	225.79
1016.50	225.76
1016.78	225.78
1017.07	225.81
1017.36	225.81
1017.64	225.80
1017.93	225.79
1018.22	225.77
1018.50	225.76
1018.79	225.74
1019.08	225.67
1019.36	225.67
1019.65	225.65
1019.93	225.68
1020.22	225.70
1020.51	225.71
1020.79	225.67
1021.08	225.49
1021.36	225.82
1021.65	225.64
1021.94	225.19
1022.22	225.88
1022.51	225.68
1022.79	226.28
1023.08	225.53
1023.36	226.54
1023.65	225.13
>>>>>End Processed Spectral Data<<<<<
