SpectraSuite Data File
++++++++++++++++++++++++++++++++++++
Date: Fri Feb 01 15:27:40 EST 2013
User: group
Dark Spectrum Present: No
Reference Spectrum Present: No
Number of Sampled Component Spectra: 1
Spectrometers: USB2E7196
Integration Time (usec): 35000 (USB2E7196)
Spectra Averaged: 100 (USB2E7196)
Boxcar Smoothing: 10 (USB2E7196)
Correct for Electrical Dark: No (USB2E7196)
Strobe/Lamp Enabled: No (USB2E7196)
Correct for Detector Non-linearity: No (USB2E7196)
Correct for Stray Light: No (USB2E7196)
Number of Pixels in Processed Spectrum: 2048
>>>>>Begin Processed Spectral Data<<<<<
339.09	0.00
339.48	214.99
339.86	216.98
340.24	217.97
340.63	219.22
341.01	221.97
341.39	221.98
341.78	223.69
342.16	224.43
342.54	225.16
342.93	213.47
343.31	224.23
343.69	224.77
344.07	225.19
344.46	225.60
344.84	226.00
345.22	226.25
345.60	226.50
345.99	226.67
346.37	226.83
346.75	226.94
347.13	227.07
347.52	227.10
347.90	227.21
348.28	227.23
348.66	227.25
349.05	227.20
349.43	227.24
349.81	227.29
350.19	227.32
350.57	227.33
350.96	227.37
351.34	227.46
351.72	227.55
352.10	227.65
352.48	227.73
352.87	227.75
353.25	227.82
353.63	227.87
354.01	227.94
354.39	227.98
354.77	228.04
355.15	228.08
355.54	228.15
355.92	228.14
356.30	228.22
356.68	228.33
357.06	228.41
357.44	228.45
357.82	228.50
358.20	228.60
358.58	228.68
358.97	228.74
359.35	228.81
359.73	228.86
360.11	228.93
360.49	228.96
360.87	229.00
361.25	229.05
361.63	229.13
362.01	229.20
362.39	229.23
362.77	229.25
363.15	229.28
363.53	229.27
363.91	229.31
364.29	229.31
364.67	229.25
365.05	229.28
365.43	229.29
365.81	229.35
366.19	229.39
366.57	229.42
366.95	229.44
367.33	229.43
367.71	229.44
368.09	229.43
368.47	229.43
368.85	229.41
369.23	229.39
369.61	229.32
369.99	229.28
370.37	229.28
370.75	229.32
371.13	229.27
371.51	229.27
371.89	229.24
372.27	229.22
372.65	229.21
373.03	229.16
373.41	229.13
373.78	229.03
374.16	228.93
374.54	228.86
374.92	228.81
375.30	228.76
375.68	228.68
376.06	228.61
376.44	228.54
376.82	228.50
377.19	228.43
377.57	228.37
377.95	228.28
378.33	228.16
378.71	228.02
379.09	227.97
379.47	227.89
379.84	227.78
380.22	227.73
380.60	227.63
380.98	227.55
381.36	227.47
381.73	227.39
382.11	227.34
382.49	227.28
382.87	227.19
383.25	227.10
383.62	227.21
384.00	227.13
384.38	227.07
384.76	227.03
385.13	227.02
385.51	226.97
385.89	226.92
386.27	226.91
386.64	226.90
387.02	226.83
387.40	226.81
387.78	226.77
388.15	226.73
388.53	226.69
388.91	226.68
389.29	226.64
389.66	226.63
390.04	226.59
390.42	226.56
390.79	226.57
391.17	226.55
391.55	226.40
391.92	226.41
392.30	226.43
392.68	226.38
393.05	226.40
393.43	226.41
393.81	226.44
394.18	226.41
394.56	226.41
394.94	226.43
395.31	226.43
395.69	226.52
396.06	226.57
396.44	226.64
396.82	226.67
397.19	226.75
397.57	226.79
397.95	226.85
398.32	226.89
398.70	226.92
399.07	226.99
399.45	227.03
399.82	227.07
400.20	227.12
400.58	227.20
400.95	227.21
401.33	227.31
401.70	227.44
402.08	227.56
402.45	227.66
402.83	227.80
403.20	227.91
403.58	227.99
403.95	228.15
404.33	228.24
404.71	228.39
405.08	228.57
405.46	228.72
405.83	228.87
406.21	229.04
406.58	229.24
406.96	229.41
407.33	229.63
407.70	229.82
408.08	230.12
408.45	230.34
408.83	230.60
409.20	230.82
409.58	231.01
409.95	231.26
410.33	231.51
410.70	231.76
411.08	232.08
411.45	232.37
411.82	232.62
412.20	232.98
412.57	233.41
412.95	233.69
413.32	234.08
413.69	234.49
414.07	234.89
414.44	235.38
414.82	235.86
415.19	236.37
415.56	236.93
415.94	237.46
416.31	238.14
416.68	238.75
417.06	239.49
417.43	240.17
417.81	240.94
418.18	241.73
418.55	242.60
418.93	243.44
419.30	244.34
419.67	245.30
420.04	246.27
420.42	247.21
420.79	248.39
421.16	249.54
421.54	250.74
421.91	251.96
422.28	253.18
422.66	254.55
423.03	255.89
423.40	257.19
423.77	258.60
424.15	259.99
424.52	261.47
424.89	263.08
425.26	264.63
425.64	266.08
426.01	267.71
426.38	269.40
426.75	271.08
427.13	272.84
427.50	274.62
427.87	276.50
428.24	278.36
428.61	280.13
428.99	282.08
429.36	284.19
429.73	286.29
430.10	288.31
430.47	290.33
430.85	292.44
431.22	294.76
431.59	297.14
431.96	299.40
432.33	301.89
432.70	304.26
433.08	307.04
433.45	309.69
433.82	312.28
434.19	315.10
434.56	317.91
434.93	320.56
435.30	323.24
435.68	326.10
436.05	328.97
436.42	331.79
436.79	334.35
437.16	337.08
437.53	339.85
437.90	342.69
438.27	345.45
438.64	348.26
439.01	350.83
439.38	353.04
439.75	355.19
440.13	357.69
440.50	360.02
440.87	361.90
441.24	363.85
441.61	366.00
441.98	367.52
442.35	369.36
442.72	371.24
443.09	373.03
443.46	374.05
443.83	374.60
444.20	375.10
444.57	375.89
444.94	376.14
445.31	376.56
445.68	376.90
446.05	376.96
446.42	376.64
446.79	376.20
447.16	375.79
447.53	375.48
447.90	374.30
448.27	373.15
448.64	371.54
449.01	370.36
449.37	368.36
449.74	366.44
450.11	364.13
450.48	361.63
450.85	359.07
451.22	356.89
451.59	354.87
451.96	352.89
452.33	350.27
452.70	347.89
453.07	345.02
453.43	342.07
453.80	339.26
454.17	336.53
454.54	334.01
454.91	331.27
455.28	328.58
455.65	326.10
456.02	323.64
456.38	321.49
456.75	318.86
457.12	316.65
457.49	314.44
457.86	312.26
458.23	310.41
458.59	308.41
458.96	306.34
459.33	304.48
459.70	302.66
460.07	301.18
460.43	299.50
460.80	297.84
461.17	296.44
461.54	294.98
461.91	293.58
462.27	292.08
462.64	290.83
463.01	289.50
463.38	288.19
463.74	286.82
464.11	285.65
464.48	284.61
464.85	283.45
465.21	282.56
465.58	281.63
465.95	280.51
466.32	279.56
466.68	278.64
467.05	277.73
467.42	276.78
467.78	275.82
468.15	274.96
468.52	274.31
468.88	273.46
469.25	272.66
469.62	272.02
469.98	271.37
470.35	270.71
470.72	270.08
471.08	269.43
471.45	268.88
471.82	268.31
472.18	267.70
472.55	267.26
472.92	266.76
473.28	266.31
473.65	265.86
474.02	265.42
474.38	265.05
474.75	264.73
475.11	264.40
475.48	264.13
475.85	263.87
476.21	263.64
476.58	263.40
476.94	263.28
477.31	263.09
477.67	262.93
478.04	262.83
478.41	262.77
478.77	262.80
479.14	262.75
479.50	262.77
479.87	262.85
480.23	262.93
480.60	262.96
480.96	263.05
481.33	263.22
481.69	263.42
482.06	263.61
482.42	263.82
482.79	264.09
483.15	264.43
483.52	264.81
483.88	265.16
484.25	265.57
484.61	265.99
484.98	266.45
485.34	267.00
485.71	267.57
486.07	268.15
486.44	268.72
486.80	269.40
487.17	270.11
487.53	270.94
487.90	271.80
488.26	272.80
488.62	273.79
488.99	274.82
489.35	275.89
489.72	277.05
490.08	278.25
490.44	279.48
490.81	280.81
491.17	282.19
491.54	283.70
491.90	285.24
492.26	286.88
492.63	288.64
492.99	290.46
493.36	292.38
493.72	294.44
494.08	296.59
494.45	298.91
494.81	301.29
495.17	303.71
495.54	306.29
495.90	308.96
496.26	311.76
496.63	314.72
496.99	317.82
497.35	321.03
497.72	324.41
498.08	327.93
498.44	331.59
498.80	335.47
499.17	339.44
499.53	343.60
499.89	347.96
500.26	352.44
500.62	357.07
500.98	362.05
501.34	367.15
501.71	372.41
502.07	377.77
502.43	383.44
502.79	389.26
503.16	395.32
503.52	401.58
503.88	407.98
504.24	414.57
504.60	421.48
504.97	428.62
505.33	435.97
505.69	443.68
506.05	451.48
506.41	459.37
506.78	467.55
507.14	476.02
507.50	484.79
507.86	493.83
508.22	503.07
508.59	512.26
508.95	521.80
509.31	531.63
509.67	541.77
510.03	552.03
510.39	562.64
510.75	573.48
511.12	584.41
511.48	595.76
511.84	607.23
512.20	618.74
512.56	630.69
512.92	642.89
513.28	655.22
513.64	667.67
514.00	680.36
514.37	693.26
514.73	706.29
515.09	719.34
515.45	732.58
515.81	746.13
516.17	760.17
516.53	774.41
516.89	788.58
517.25	802.84
517.61	817.31
517.97	831.80
518.33	846.26
518.69	861.13
519.05	876.16
519.41	891.41
519.77	907.00
520.13	922.47
520.49	937.85
520.85	953.26
521.21	969.08
521.57	985.43
521.93	1001.28
522.29	1017.76
522.65	1034.04
523.01	1050.35
523.37	1066.41
523.73	1082.55
524.09	1098.58
524.45	1115.01
524.81	1131.63
525.17	1148.48
525.53	1165.35
525.89	1182.23
526.25	1199.04
526.61	1215.51
526.97	1232.24
527.33	1248.75
527.68	1265.33
528.04	1281.82
528.40	1298.59
528.76	1315.70
529.12	1332.38
529.48	1349.32
529.84	1365.36
530.20	1382.00
530.56	1399.19
530.91	1416.68
531.27	1433.47
531.63	1450.09
531.99	1466.81
532.35	1482.80
532.71	1498.68
533.07	1515.05
533.42	1531.02
533.78	1547.12
534.14	1563.40
534.50	1578.85
534.86	1594.71
535.21	1610.02
535.57	1626.14
535.93	1641.70
536.29	1656.51
536.65	1671.61
537.00	1686.55
537.36	1701.90
537.72	1716.52
538.08	1730.81
538.44	1744.66
538.79	1758.68
539.15	1772.49
539.51	1786.19
539.87	1800.62
540.22	1814.56
540.58	1828.39
540.94	1841.94
541.29	1854.94
541.65	1867.68
542.01	1880.98
542.37	1893.40
542.72	1905.96
543.08	1917.69
543.44	1930.07
543.79	1941.36
544.15	1952.46
544.51	1963.86
544.87	1974.88
545.22	1985.64
545.58	1995.99
545.94	2005.74
546.29	2015.68
546.65	2025.38
547.01	2034.69
547.36	2043.54
547.72	2051.94
548.07	2059.86
548.43	2068.06
548.79	2076.11
549.14	2083.55
549.50	2090.87
549.86	2098.58
550.21	2105.92
550.57	2113.21
550.92	2119.83
551.28	2127.09
551.64	2134.24
551.99	2140.95
552.35	2147.18
552.70	2153.49
553.06	2159.47
553.41	2165.88
553.77	2172.01
554.13	2178.14
554.48	2184.28
554.84	2189.59
555.19	2195.02
555.55	2200.04
555.90	2204.34
556.26	2209.19
556.61	2214.02
556.97	2218.27
557.32	2222.39
557.68	2226.46
558.03	2230.81
558.39	2234.54
558.74	2239.06
559.10	2242.79
559.45	2246.51
559.81	2250.85
560.16	2254.50
560.52	2257.69
560.87	2261.15
561.23	2263.70
561.58	2266.81
561.94	2269.34
562.29	2271.86
562.64	2274.58
563.00	2277.41
563.35	2280.97
563.71	2284.07
564.06	2287.36
564.42	2290.25
564.77	2292.81
565.12	2295.02
565.48	2296.75
565.83	2298.56
566.19	2299.80
566.54	2300.71
566.89	2301.76
567.25	2302.19
567.60	2303.56
567.96	2305.23
568.31	2305.92
568.66	2306.87
569.02	2307.40
569.37	2307.68
569.72	2308.40
570.08	2308.28
570.43	2308.06
570.78	2307.37
571.14	2305.84
571.49	2304.37
571.84	2304.03
572.20	2302.81
572.55	2301.80
572.90	2300.31
573.26	2298.87
573.61	2297.06
573.96	2295.21
574.31	2292.02
574.67	2288.91
575.02	2285.28
575.37	2281.89
575.72	2277.96
576.08	2274.59
576.43	2271.03
576.78	2267.32
577.13	2264.26
577.49	2261.06
577.84	2257.58
578.19	2253.82
578.54	2250.05
578.90	2245.72
579.25	2240.14
579.60	2235.09
579.95	2229.98
580.30	2224.81
580.66	2219.63
581.01	2214.74
581.36	2209.64
581.71	2205.45
582.06	2201.06
582.42	2196.45
582.77	2191.11
583.12	2186.59
583.47	2181.74
583.82	2176.56
584.17	2171.13
584.53	2165.27
584.88	2159.48
585.23	2153.53
585.58	2148.03
585.93	2142.44
586.28	2137.72
586.63	2132.46
586.98	2127.32
587.34	2122.40
587.69	2117.42
588.04	2112.00
588.39	2106.07
588.74	2099.64
589.09	2093.52
589.44	2086.59
589.79	2080.50
590.14	2074.73
590.49	2068.05
590.84	2061.75
591.19	2055.89
591.54	2049.41
591.89	2042.03
592.25	2035.43
592.60	2028.22
592.95	2020.46
593.30	2013.13
593.65	2005.44
594.00	1998.38
594.35	1991.21
594.70	1983.21
595.05	1975.96
595.40	1968.55
595.75	1960.91
596.10	1954.59
596.45	1947.72
596.80	1941.57
597.15	1934.90
597.50	1927.73
597.85	1921.43
598.19	1914.64
598.54	1907.50
598.89	1900.83
599.24	1894.93
599.59	1887.99
599.94	1881.69
600.29	1875.36
600.64	1868.76
600.99	1861.13
601.34	1854.14
601.69	1847.07
602.04	1840.07
602.39	1832.72
602.74	1825.89
603.08	1819.36
603.43	1812.57
603.78	1805.21
604.13	1797.87
604.48	1790.47
604.83	1783.68
605.18	1776.51
605.53	1768.41
605.87	1760.35
606.22	1753.03
606.57	1745.03
606.92	1737.71
607.27	1730.51
607.62	1723.58
607.96	1716.23
608.31	1709.65
608.66	1702.12
609.01	1694.52
609.36	1687.03
609.70	1678.96
610.05	1670.84
610.40	1663.02
610.75	1654.62
611.10	1646.93
611.44	1638.63
611.79	1630.68
612.14	1621.97
612.49	1612.89
612.83	1604.66
613.18	1596.45
613.53	1588.38
613.88	1579.79
614.22	1571.52
614.57	1562.93
614.92	1554.84
615.27	1547.27
615.61	1538.85
615.96	1530.86
616.31	1523.18
616.65	1515.71
617.00	1508.09
617.35	1500.53
617.70	1492.20
618.04	1483.71
618.39	1475.46
618.74	1467.85
619.08	1459.53
619.43	1452.00
619.78	1445.09
620.12	1437.73
620.47	1430.23
620.82	1422.05
621.16	1414.69
621.51	1407.12
621.85	1399.51
622.20	1390.99
622.55	1382.55
622.89	1374.79
623.24	1367.07
623.59	1359.66
623.93	1352.09
624.28	1344.84
624.62	1337.22
624.97	1330.01
625.32	1323.38
625.66	1316.41
626.01	1309.02
626.35	1301.57
626.70	1293.76
627.04	1286.02
627.39	1278.32
627.73	1270.88
628.08	1263.90
628.43	1256.54
628.77	1249.20
629.12	1241.56
629.46	1234.43
629.81	1227.04
630.15	1219.79
630.50	1212.28
630.84	1204.16
631.19	1196.42
631.53	1188.98
631.88	1181.54
632.22	1173.95
632.57	1166.62
632.91	1159.01
633.26	1151.80
633.60	1144.55
633.95	1137.47
634.29	1130.41
634.64	1123.77
634.98	1116.37
635.32	1109.18
635.67	1102.65
636.01	1096.02
636.36	1089.34
636.70	1082.83
637.05	1076.33
637.39	1069.93
637.73	1063.47
638.08	1057.62
638.42	1051.57
638.77	1045.04
639.11	1038.37
639.45	1032.03
639.80	1025.36
640.14	1019.03
640.49	1012.39
640.83	1006.05
641.17	999.84
641.52	993.54
641.86	987.10
642.20	981.22
642.55	975.04
642.89	968.60
643.23	962.05
643.58	956.25
643.92	950.00
644.26	943.86
644.61	937.79
644.95	931.83
645.29	925.11
645.64	918.34
645.98	912.11
646.32	906.30
646.66	900.21
647.01	894.42
647.35	888.65
647.69	882.92
648.04	877.40
648.38	871.53
648.72	865.40
649.06	859.33
649.41	853.54
649.75	847.51
650.09	841.52
650.43	835.70
650.78	829.46
651.12	823.47
651.46	817.78
651.80	811.96
652.14	806.51
652.49	801.22
652.83	796.09
653.17	790.26
653.51	784.47
653.85	779.04
654.20	773.36
654.54	767.34
654.88	761.55
655.22	755.60
655.56	749.99
655.90	744.64
656.25	739.33
656.59	733.95
656.93	728.83
657.27	723.64
657.61	718.17
657.95	713.11
658.29	708.04
658.64	702.87
658.98	697.63
659.32	692.22
659.66	686.98
660.00	681.65
660.34	676.81
660.68	671.90
661.02	666.92
661.36	662.21
661.70	657.77
662.05	653.45
662.39	649.08
662.73	644.59
663.07	640.24
663.41	635.92
663.75	631.44
664.09	626.99
664.43	622.58
664.77	618.52
665.11	614.29
665.45	610.21
665.79	606.07
666.13	601.99
666.47	597.86
666.81	593.74
667.15	589.67
667.49	585.79
667.83	582.04
668.17	578.10
668.51	574.05
668.85	570.03
669.19	566.18
669.53	562.37
669.87	558.51
670.21	554.72
670.55	551.01
670.89	547.54
671.23	544.07
671.57	540.57
671.91	537.04
672.25	533.58
672.58	530.10
672.92	526.72
673.26	523.55
673.60	520.47
673.94	517.34
674.28	514.46
674.62	511.51
674.96	508.38
675.30	505.50
675.64	502.59
675.97	499.78
676.31	496.90
676.65	493.99
676.99	491.32
677.33	488.52
677.67	485.74
678.01	482.67
678.34	479.74
678.68	476.96
679.02	474.15
679.36	471.40
679.70	468.65
680.04	465.95
680.37	463.02
680.71	460.23
681.05	457.60
681.39	454.85
681.73	452.20
682.06	449.67
682.40	447.10
682.74	444.59
683.08	442.10
683.42	439.52
683.75	437.04
684.09	434.48
684.43	432.04
684.77	429.58
685.10	427.25
685.44	424.88
685.78	422.55
686.12	420.32
686.45	418.03
686.79	415.76
687.13	413.51
687.46	411.43
687.80	409.26
688.14	407.05
688.48	404.97
688.81	402.72
689.15	400.62
689.49	398.53
689.82	396.46
690.16	394.35
690.50	392.42
690.83	390.48
691.17	388.52
691.51	386.59
691.84	384.74
692.18	382.83
692.52	380.90
692.85	378.98
693.19	377.08
693.52	375.25
693.86	373.45
694.20	371.71
694.53	369.92
694.87	368.14
695.21	366.41
695.54	364.57
695.88	362.89
696.21	361.18
696.55	359.47
696.88	357.75
697.22	356.14
697.56	354.51
697.89	352.85
698.23	351.23
698.56	349.65
698.90	348.05
699.23	346.43
699.57	344.87
699.90	343.33
700.24	341.79
700.58	340.27
700.91	338.74
701.25	337.26
701.58	335.79
701.92	334.39
702.25	333.02
702.59	331.67
702.92	330.31
703.26	328.98
703.59	327.70
703.93	326.59
704.26	325.32
704.60	323.99
704.93	322.74
705.26	321.49
705.60	320.33
705.93	319.24
706.27	318.21
706.60	317.20
706.94	316.15
707.27	315.05
707.61	314.02
707.94	313.01
708.27	311.94
708.61	310.92
708.94	309.94
709.28	308.94
709.61	307.99
709.94	307.07
710.28	306.06
710.61	305.09
710.95	304.00
711.28	303.09
711.61	302.17
711.95	301.26
712.28	300.34
712.61	299.28
712.95	298.31
713.28	297.45
713.61	296.53
713.95	295.63
714.28	294.82
714.61	293.93
714.95	293.08
715.28	292.27
715.61	291.41
715.95	290.55
716.28	289.69
716.61	288.87
716.95	288.04
717.28	287.30
717.61	286.54
717.94	285.79
718.28	285.00
718.61	284.30
718.94	283.60
719.27	282.90
719.61	282.32
719.94	281.65
720.27	280.94
720.60	280.27
720.94	279.63
721.27	278.98
721.60	278.46
721.93	277.86
722.27	277.31
722.60	276.75
722.93	276.19
723.26	275.66
723.59	275.10
723.93	274.53
724.26	273.95
724.59	273.39
724.92	272.85
725.25	272.35
725.59	271.83
725.92	271.30
726.25	270.83
726.58	270.33
726.91	269.82
727.24	269.32
727.57	268.83
727.91	268.31
728.24	267.86
728.57	267.31
728.90	266.89
729.23	266.34
729.56	265.94
729.89	265.43
730.22	264.95
730.55	264.49
730.89	264.05
731.22	263.63
731.55	263.18
731.88	262.77
732.21	262.34
732.54	261.86
732.87	261.43
733.20	260.99
733.53	260.59
733.86	260.24
734.19	259.84
734.52	259.48
734.85	259.17
735.18	258.74
735.51	258.39
735.84	257.99
736.17	257.68
736.50	257.26
736.83	257.03
737.16	256.70
737.49	256.37
737.82	256.05
738.15	255.75
738.48	255.42
738.81	255.12
739.14	254.83
739.47	254.54
739.80	254.26
740.13	253.98
740.46	253.64
740.79	253.29
741.12	252.98
741.45	252.69
741.78	252.33
742.11	252.09
742.44	251.70
742.77	251.40
743.10	251.07
743.43	250.77
743.75	250.37
744.08	250.23
744.41	249.98
744.74	249.70
745.07	249.37
745.40	249.15
745.73	248.83
746.06	248.54
746.39	248.27
746.71	247.99
747.04	247.72
747.37	247.46
747.70	247.24
748.03	247.02
748.36	246.78
748.68	246.56
749.01	246.30
749.34	246.13
749.67	245.92
750.00	245.72
750.33	245.54
750.65	245.32
750.98	244.96
751.31	244.75
751.64	244.54
751.97	244.40
752.29	244.17
752.62	243.97
752.95	243.78
753.28	243.59
753.60	243.38
753.93	243.21
754.26	243.03
754.59	242.81
754.91	242.59
755.24	242.37
755.57	242.17
755.90	241.97
756.22	241.75
756.55	241.55
756.88	241.34
757.20	241.13
757.53	240.94
757.86	240.78
758.19	240.63
758.51	240.44
758.84	240.22
759.17	240.05
759.49	239.90
759.82	239.80
760.15	239.64
760.47	239.50
760.80	239.28
761.13	239.14
761.45	239.00
761.78	238.87
762.11	238.73
762.43	238.57
762.76	238.42
763.08	238.33
763.41	238.23
763.74	238.09
764.06	237.92
764.39	237.77
764.71	237.65
765.04	237.47
765.37	237.33
765.69	237.21
766.02	237.05
766.34	236.92
766.67	236.73
767.00	236.59
767.32	236.50
767.65	236.47
767.97	236.31
768.30	236.19
768.62	236.07
768.95	235.91
769.27	235.83
769.60	235.71
769.92	235.56
770.25	235.37
770.57	235.26
770.90	235.17
771.22	235.07
771.55	234.97
771.87	234.87
772.20	234.78
772.52	234.76
772.85	234.80
773.17	234.70
773.50	234.60
773.82	234.51
774.15	234.39
774.47	234.23
774.80	234.15
775.12	234.02
775.45	233.95
775.77	233.90
776.09	233.80
776.42	233.74
776.74	233.73
777.07	233.67
777.39	233.59
777.72	233.55
778.04	233.52
778.36	233.44
778.69	233.39
779.01	233.34
779.33	233.20
779.66	233.06
779.98	233.00
780.31	232.94
780.63	232.94
780.95	232.89
781.28	232.84
781.60	232.80
781.92	232.78
782.25	232.75
782.57	232.71
782.89	232.68
783.22	232.63
783.54	232.57
783.86	232.55
784.19	232.51
784.51	232.45
784.83	232.38
785.16	232.35
785.48	232.33
785.80	232.29
786.12	232.24
786.45	232.18
786.77	232.16
787.09	232.10
787.42	232.01
787.74	232.00
788.06	231.98
788.38	231.92
788.71	231.86
789.03	231.81
789.35	231.76
789.67	231.71
789.99	231.67
790.32	231.55
790.64	231.52
790.96	231.55
791.28	231.52
791.61	231.48
791.93	231.43
792.25	231.38
792.57	231.39
792.89	231.34
793.21	231.32
793.54	231.25
793.86	231.20
794.18	231.17
794.50	231.10
794.82	231.07
795.14	231.02
795.47	231.02
795.79	230.98
796.11	230.96
796.43	230.87
796.75	230.83
797.07	230.85
797.39	230.80
797.71	230.71
798.04	230.63
798.36	230.58
798.68	230.51
799.00	230.47
799.32	230.37
799.64	230.36
799.96	230.27
800.28	230.25
800.60	230.23
800.92	230.20
801.24	230.18
801.56	230.15
801.89	230.13
802.21	230.09
802.53	230.04
802.85	229.98
803.17	230.04
803.49	230.01
803.81	229.96
804.13	229.93
804.45	229.84
804.77	229.81
805.09	229.78
805.41	229.75
805.73	229.70
806.05	229.64
806.37	229.60
806.69	229.58
807.01	229.53
807.33	229.49
807.65	229.43
807.97	229.40
808.28	229.32
808.60	229.30
808.92	229.26
809.24	229.29
809.56	229.27
809.88	229.20
810.20	229.17
810.52	229.18
810.84	229.16
811.16	229.17
811.48	229.15
811.80	229.18
812.12	229.14
812.43	229.16
812.75	229.14
813.07	229.12
813.39	229.12
813.71	229.10
814.03	229.07
814.35	229.06
814.67	229.00
814.98	228.97
815.30	228.92
815.62	228.90
815.94	228.83
816.26	228.87
816.58	228.87
816.89	228.88
817.21	228.80
817.53	228.77
817.85	228.75
818.17	228.74
818.48	228.68
818.80	228.69
819.12	228.67
819.44	228.66
819.76	228.62
820.07	228.65
820.39	228.64
820.71	228.65
821.03	228.68
821.34	228.71
821.66	228.74
821.98	228.75
822.30	228.75
822.61	228.79
822.93	228.74
823.25	228.70
823.57	228.68
823.88	228.74
824.20	228.74
824.52	228.77
824.83	228.81
825.15	228.82
825.47	228.82
825.79	228.81
826.10	228.80
826.42	228.81
826.74	228.79
827.05	228.79
827.37	228.79
827.69	228.76
828.00	228.72
828.32	228.69
828.64	228.67
828.95	228.69
829.27	228.65
829.58	228.63
829.90	228.62
830.22	228.57
830.53	228.55
830.85	228.54
831.17	228.50
831.48	228.43
831.80	228.42
832.11	228.41
832.43	228.38
832.75	228.37
833.06	228.40
833.38	228.37
833.69	228.34
834.01	228.33
834.32	228.29
834.64	228.30
834.96	228.27
835.27	228.24
835.59	228.21
835.90	228.17
836.22	228.15
836.53	228.13
836.85	228.11
837.16	228.20
837.48	228.15
837.79	228.18
838.11	228.17
838.42	228.16
838.74	228.17
839.05	228.14
839.37	228.12
839.68	228.04
840.00	228.01
840.31	228.02
840.63	227.98
840.94	227.97
841.26	227.91
841.57	227.94
841.88	227.95
842.20	227.95
842.51	227.95
842.83	227.94
843.14	228.01
843.46	228.04
843.77	227.95
844.08	227.94
844.40	227.88
844.71	227.87
845.03	227.84
845.34	227.80
845.65	227.80
845.97	227.81
846.28	227.81
846.60	227.81
846.91	227.79
847.22	227.79
847.54	227.80
847.85	227.84
848.16	227.79
848.48	227.79
848.79	227.80
849.10	227.79
849.42	227.75
849.73	227.67
850.04	227.64
850.36	227.61
850.67	227.63
850.98	227.64
851.30	227.66
851.61	227.65
851.92	227.65
852.23	227.67
852.55	227.65
852.86	227.66
853.17	227.66
853.49	227.69
853.80	227.71
854.11	227.69
854.42	227.69
854.74	227.72
855.05	227.70
855.36	227.65
855.67	227.65
855.99	227.70
856.30	227.82
856.61	227.80
856.92	227.83
857.23	227.81
857.55	227.79
857.86	227.78
858.17	227.83
858.48	227.81
858.79	227.78
859.11	227.80
859.42	227.82
859.73	227.83
860.04	227.80
860.35	227.81
860.66	227.83
860.98	227.79
861.29	227.78
861.60	227.79
861.91	227.80
862.22	227.79
862.53	227.75
862.84	227.67
863.16	227.70
863.47	227.68
863.78	227.68
864.09	227.71
864.40	227.72
864.71	227.72
865.02	227.71
865.33	227.69
865.64	227.67
865.95	227.65
866.27	227.67
866.58	227.65
866.89	227.62
867.20	227.62
867.51	227.63
867.82	227.58
868.13	227.62
868.44	227.63
868.75	227.66
869.06	227.68
869.37	227.66
869.68	227.63
869.99	227.64
870.30	227.64
870.61	227.64
870.92	227.64
871.23	227.63
871.54	227.66
871.85	227.72
872.16	227.74
872.47	227.72
872.78	227.68
873.09	227.71
873.40	227.71
873.71	227.72
874.02	227.71
874.33	227.73
874.64	227.69
874.95	227.68
875.26	227.65
875.56	227.65
875.87	227.65
876.18	227.64
876.49	227.71
876.80	227.69
877.11	227.65
877.42	227.65
877.73	227.62
878.04	227.61
878.35	227.58
878.66	227.54
878.96	227.58
879.27	227.55
879.58	227.54
879.89	227.49
880.20	227.49
880.51	227.48
880.82	227.47
881.12	227.46
881.43	227.43
881.74	227.42
882.05	227.37
882.36	227.36
882.67	227.35
882.97	227.23
883.28	227.22
883.59	227.21
883.90	227.18
884.21	227.20
884.51	227.19
884.82	227.17
885.13	227.17
885.44	227.14
885.74	227.14
886.05	227.12
886.36	227.14
886.67	227.11
886.98	227.15
887.28	227.15
887.59	227.13
887.90	227.13
888.20	227.12
888.51	227.15
888.82	227.12
889.13	227.13
889.43	227.21
889.74	227.21
890.05	227.21
890.35	227.22
890.66	227.18
890.97	227.18
891.28	227.13
891.58	227.12
891.89	227.14
892.20	227.15
892.50	227.16
892.81	227.16
893.12	227.20
893.42	227.17
893.73	227.19
894.04	227.17
894.34	227.19
894.65	227.20
894.95	227.20
895.26	227.22
895.57	227.27
895.87	227.17
896.18	227.17
896.48	227.22
896.79	227.25
897.10	227.30
897.40	227.29
897.71	227.34
898.01	227.36
898.32	227.35
898.63	227.33
898.93	227.33
899.24	227.36
899.54	227.35
899.85	227.35
900.15	227.33
900.46	227.37
900.76	227.39
901.07	227.41
901.38	227.41
901.68	227.46
901.99	227.43
902.29	227.48
902.60	227.50
902.90	227.47
903.21	227.44
903.51	227.40
903.82	227.40
904.12	227.41
904.43	227.41
904.73	227.39
905.03	227.41
905.34	227.49
905.64	227.46
905.95	227.46
906.25	227.46
906.56	227.48
906.86	227.46
907.17	227.45
907.47	227.42
907.77	227.42
908.08	227.39
908.38	227.38
908.69	227.37
908.99	227.37
909.30	227.39
909.60	227.39
909.90	227.42
910.21	227.41
910.51	227.38
910.81	227.38
911.12	227.42
911.42	227.43
911.73	227.34
912.03	227.32
912.33	227.33
912.64	227.31
912.94	227.27
913.24	227.26
913.55	227.25
913.85	227.27
914.15	227.24
914.46	227.26
914.76	227.21
915.06	227.18
915.37	227.18
915.67	227.14
915.97	227.16
916.27	227.13
916.58	227.15
916.88	227.15
917.18	227.14
917.49	227.18
917.79	227.15
918.09	227.17
918.39	227.20
918.70	227.18
919.00	227.18
919.30	227.24
919.60	227.21
919.91	227.19
920.21	227.19
920.51	227.19
920.81	227.13
921.12	227.15
921.42	227.19
921.72	227.18
922.02	227.18
922.32	227.19
922.63	227.19
922.93	227.21
923.23	227.21
923.53	227.17
923.83	227.13
924.13	227.15
924.44	227.14
924.74	227.15
925.04	227.15
925.34	227.15
925.64	227.08
925.94	227.11
926.24	227.15
926.55	227.12
926.85	227.11
927.15	227.13
927.45	227.10
927.75	227.11
928.05	227.07
928.35	227.10
928.65	227.13
928.95	227.14
929.26	227.12
929.56	227.16
929.86	227.21
930.16	227.18
930.46	227.17
930.76	227.18
931.06	227.14
931.36	227.15
931.66	227.16
931.96	227.22
932.26	227.19
932.56	227.14
932.86	227.15
933.16	227.16
933.46	227.13
933.76	227.14
934.06	227.14
934.36	227.22
934.66	227.22
934.96	227.15
935.26	227.16
935.56	227.14
935.86	227.07
936.16	227.03
936.46	227.01
936.76	227.00
937.06	226.99
937.36	227.01
937.66	227.01
937.96	227.02
938.26	226.98
938.56	227.00
938.86	227.03
939.16	227.07
939.46	227.11
939.76	227.13
940.06	227.15
940.35	227.14
940.65	227.07
940.95	227.03
941.25	227.04
941.55	227.00
941.85	227.01
942.15	227.03
942.45	227.09
942.75	227.11
943.04	227.10
943.34	227.10
943.64	227.09
943.94	227.07
944.24	227.04
944.54	227.05
944.84	227.03
945.13	227.03
945.43	227.00
945.73	226.98
946.03	227.00
946.33	226.97
946.62	226.94
946.92	226.92
947.22	226.94
947.52	226.93
947.82	226.94
948.11	226.95
948.41	226.95
948.71	226.89
949.01	226.87
949.31	226.87
949.60	226.85
949.90	226.85
950.20	226.85
950.50	226.86
950.79	226.85
951.09	226.85
951.39	226.83
951.69	226.80
951.98	226.83
952.28	226.79
952.58	226.78
952.87	226.80
953.17	226.83
953.47	226.82
953.76	226.83
954.06	226.82
954.36	226.77
954.66	226.76
954.95	226.81
955.25	226.81
955.55	226.83
955.84	226.80
956.14	226.78
956.44	226.78
956.73	226.80
957.03	226.83
957.32	226.84
957.62	226.84
957.92	226.88
958.21	226.84
958.51	226.95
958.81	226.98
959.10	226.98
959.40	227.02
959.69	227.01
959.99	227.05
960.29	227.04
960.58	227.04
960.88	227.08
961.17	227.08
961.47	227.05
961.76	227.01
962.06	227.06
962.36	227.06
962.65	227.10
962.95	227.06
963.24	227.06
963.54	227.08
963.83	227.10
964.13	227.09
964.42	227.09
964.72	227.03
965.01	227.03
965.31	227.04
965.60	227.02
965.90	227.09
966.19	227.08
966.49	227.07
966.78	227.11
967.08	227.08
967.37	227.12
967.67	227.16
967.96	227.18
968.26	227.18
968.55	227.17
968.85	227.16
969.14	227.18
969.43	227.15
969.73	227.14
970.02	227.11
970.32	227.11
970.61	227.10
970.91	227.04
971.20	227.02
971.49	227.02
971.79	227.03
972.08	226.97
972.38	226.98
972.67	226.98
972.96	226.97
973.26	226.96
973.55	226.98
973.85	226.98
974.14	226.97
974.43	226.96
974.73	227.00
975.02	226.97
975.31	226.98
975.61	226.99
975.90	227.00
976.19	227.00
976.49	227.02
976.78	227.02
977.07	227.04
977.37	227.06
977.66	227.07
977.95	227.05
978.24	227.05
978.54	227.07
978.83	227.08
979.12	227.08
979.42	227.10
979.71	227.04
980.00	227.02
980.29	227.04
980.59	227.03
980.88	227.04
981.17	227.03
981.46	227.03
981.76	227.05
982.05	227.05
982.34	227.07
982.63	227.05
982.93	227.03
983.22	227.07
983.51	227.09
983.80	227.09
984.09	227.10
984.39	227.09
984.68	227.07
984.97	227.06
985.26	227.04
985.55	227.03
985.85	227.01
986.14	227.03
986.43	227.07
986.72	227.10
987.01	227.05
987.30	227.05
987.59	227.04
987.89	227.02
988.18	226.99
988.47	226.98
988.76	226.99
989.05	226.99
989.34	226.96
989.63	226.95
989.92	226.94
990.22	226.91
990.51	226.93
990.80	226.93
991.09	226.95
991.38	226.95
991.67	226.97
991.96	226.99
992.25	226.98
992.54	226.93
992.83	226.89
993.12	226.88
993.41	226.91
993.70	226.93
993.99	226.93
994.28	226.94
994.58	226.95
994.87	226.92
995.16	226.94
995.45	226.92
995.74	226.92
996.03	226.95
996.32	226.97
996.61	226.97
996.90	226.95
997.19	226.97
997.48	226.95
997.77	226.92
998.06	226.91
998.34	226.89
998.63	226.92
998.92	226.92
999.21	226.97
999.50	226.98
999.79	226.98
1000.08	226.98
1000.37	227.01
1000.66	227.01
1000.95	227.05
1001.24	227.06
1001.53	227.10
1001.82	227.10
1002.11	227.03
1002.40	227.04
1002.68	227.08
1002.97	227.16
1003.26	227.13
1003.55	227.14
1003.84	227.14
1004.13	227.18
1004.42	227.19
1004.71	227.18
1004.99	227.18
1005.28	227.20
1005.57	227.19
1005.86	227.17
1006.15	227.17
1006.44	227.13
1006.72	227.14
1007.01	227.12
1007.30	227.14
1007.59	227.15
1007.88	227.13
1008.17	227.16
1008.45	227.11
1008.74	227.05
1009.03	227.03
1009.32	227.03
1009.60	227.07
1009.89	227.09
1010.18	227.07
1010.47	227.08
1010.76	227.07
1011.04	227.06
1011.33	227.04
1011.62	227.02
1011.91	227.02
1012.19	227.01
1012.48	227.04
1012.77	227.04
1013.05	227.06
1013.34	227.04
1013.63	227.01
1013.92	227.02
1014.20	227.02
1014.49	227.03
1014.78	227.05
1015.06	227.00
1015.35	226.99
1015.64	227.00
1015.92	226.99
1016.21	226.97
1016.50	226.91
1016.78	226.91
1017.07	226.92
1017.36	226.89
1017.64	226.89
1017.93	226.90
1018.22	226.92
1018.50	226.90
1018.79	226.89
1019.08	226.83
1019.36	226.82
1019.65	226.79
1019.93	226.82
1020.22	226.80
1020.51	226.88
1020.79	226.83
1021.08	227.18
1021.36	226.92
1021.65	227.19
1021.94	226.33
1022.22	226.76
1022.51	226.40
1022.79	227.49
1023.08	226.54
1023.36	228.29
1023.65	226.24
>>>>>End Processed Spectral Data<<<<<
