SpectraSuite Data File
++++++++++++++++++++++++++++++++++++
Date: Fri Feb 01 15:16:30 EST 2013
User: group
Dark Spectrum Present: No
Reference Spectrum Present: No
Number of Sampled Component Spectra: 1
Spectrometers: USB2E7196
Integration Time (usec): 35000 (USB2E7196)
Spectra Averaged: 100 (USB2E7196)
Boxcar Smoothing: 10 (USB2E7196)
Correct for Electrical Dark: No (USB2E7196)
Strobe/Lamp Enabled: No (USB2E7196)
Correct for Detector Non-linearity: No (USB2E7196)
Correct for Stray Light: No (USB2E7196)
Number of Pixels in Processed Spectrum: 2048
>>>>>Begin Processed Spectral Data<<<<<
339.09	0.00
339.48	215.25
339.86	216.79
340.24	217.36
340.63	219.01
341.01	221.49
341.39	221.97
341.78	223.28
342.16	224.51
342.54	225.49
342.93	213.43
343.31	224.22
343.69	224.76
344.07	225.20
344.46	225.65
344.84	226.06
345.22	226.34
345.60	226.58
345.99	226.77
346.37	226.90
346.75	227.00
347.13	227.10
347.52	227.16
347.90	227.24
348.28	227.26
348.66	227.29
349.05	227.27
349.43	227.29
349.81	227.33
350.19	227.37
350.57	227.41
350.96	227.47
351.34	227.53
351.72	227.61
352.10	227.72
352.48	227.79
352.87	227.83
353.25	227.92
353.63	227.99
354.01	228.04
354.39	228.09
354.77	228.12
355.15	228.24
355.54	228.27
355.92	228.27
356.30	228.32
356.68	228.46
357.06	228.51
357.44	228.58
357.82	228.67
358.20	228.75
358.58	228.84
358.97	228.90
359.35	229.00
359.73	229.05
360.11	229.09
360.49	229.13
360.87	229.16
361.25	229.20
361.63	229.27
362.01	229.31
362.39	229.35
362.77	229.41
363.15	229.37
363.53	229.37
363.91	229.39
364.29	229.41
364.67	229.35
365.05	229.36
365.43	229.33
365.81	229.33
366.19	229.37
366.57	229.37
366.95	229.36
367.33	229.28
367.71	229.27
368.09	229.25
368.47	229.25
368.85	229.24
369.23	229.18
369.61	229.13
369.99	229.15
370.37	229.14
370.75	229.16
371.13	229.12
371.51	229.11
371.89	229.13
372.27	229.10
372.65	229.03
373.03	228.96
373.41	228.93
373.78	228.85
374.16	228.72
374.54	228.63
374.92	228.56
375.30	228.51
375.68	228.44
376.06	228.42
376.44	228.33
376.82	228.24
377.19	228.21
377.57	228.12
377.95	228.00
378.33	227.93
378.71	227.77
379.09	227.71
379.47	227.66
379.84	227.57
380.22	227.47
380.60	227.41
380.98	227.37
381.36	227.27
381.73	227.16
382.11	227.13
382.49	227.08
382.87	227.00
383.25	226.97
383.62	227.02
384.00	226.92
384.38	226.87
384.76	226.86
385.13	226.84
385.51	226.80
385.89	226.75
386.27	226.70
386.64	226.70
387.02	226.64
387.40	226.59
387.78	226.54
388.15	226.55
388.53	226.50
388.91	226.44
389.29	226.44
389.66	226.45
390.04	226.42
390.42	226.42
390.79	226.41
391.17	226.35
391.55	226.23
391.92	226.24
392.30	226.25
392.68	226.22
393.05	226.19
393.43	226.22
393.81	226.23
394.18	226.23
394.56	226.22
394.94	226.28
395.31	226.30
395.69	226.36
396.06	226.39
396.44	226.48
396.82	226.52
397.19	226.62
397.57	226.68
397.95	226.75
398.32	226.77
398.70	226.85
399.07	226.95
399.45	227.03
399.82	227.10
400.20	227.20
400.58	227.30
400.95	227.37
401.33	227.44
401.70	227.61
402.08	227.70
402.45	227.84
402.83	227.96
403.20	228.08
403.58	228.18
403.95	228.30
404.33	228.42
404.71	228.58
405.08	228.76
405.46	228.90
405.83	229.07
406.21	229.24
406.58	229.43
406.96	229.63
407.33	229.78
407.70	229.96
408.08	230.23
408.45	230.46
408.83	230.71
409.20	230.90
409.58	231.08
409.95	231.36
410.33	231.63
410.70	231.88
411.08	232.19
411.45	232.51
411.82	232.84
412.20	233.19
412.57	233.61
412.95	233.91
413.32	234.32
413.69	234.75
414.07	235.17
414.44	235.65
414.82	236.12
415.19	236.71
415.56	237.27
415.94	237.79
416.31	238.43
416.68	239.07
417.06	239.81
417.43	240.49
417.81	241.25
418.18	241.99
418.55	242.81
418.93	243.69
419.30	244.61
419.67	245.58
420.04	246.55
420.42	247.52
420.79	248.69
421.16	249.86
421.54	251.03
421.91	252.27
422.28	253.54
422.66	254.89
423.03	256.18
423.40	257.47
423.77	258.88
424.15	260.29
424.52	261.78
424.89	263.39
425.26	264.96
425.64	266.39
426.01	268.00
426.38	269.65
426.75	271.32
427.13	273.01
427.50	274.73
427.87	276.61
428.24	278.49
428.61	280.26
428.99	282.17
429.36	284.29
429.73	286.32
430.10	288.34
430.47	290.38
430.85	292.51
431.22	294.79
431.59	297.18
431.96	299.49
432.33	301.93
432.70	304.33
433.08	307.13
433.45	309.82
433.82	312.43
434.19	315.40
434.56	318.21
434.93	320.89
435.30	323.53
435.68	326.46
436.05	329.32
436.42	332.11
436.79	334.63
437.16	337.39
437.53	340.25
437.90	343.04
438.27	345.81
438.64	348.66
439.01	351.25
439.38	353.48
439.75	355.60
440.13	358.19
440.50	360.52
440.87	362.37
441.24	364.33
441.61	366.51
441.98	367.96
442.35	369.78
442.72	371.65
443.09	373.48
443.46	374.43
443.83	374.97
444.20	375.50
444.57	376.35
444.94	376.53
445.31	376.90
445.68	377.31
446.05	377.35
446.42	376.95
446.79	376.50
447.16	376.02
447.53	375.73
447.90	374.51
448.27	373.31
448.64	371.74
449.01	370.55
449.37	368.55
449.74	366.66
450.11	364.38
450.48	361.86
450.85	359.32
451.22	357.20
451.59	355.15
451.96	353.18
452.33	350.58
452.70	348.23
453.07	345.31
453.43	342.36
453.80	339.57
454.17	336.88
454.54	334.31
454.91	331.63
455.28	328.93
455.65	326.45
456.02	324.01
456.38	321.83
456.75	319.19
457.12	316.92
457.49	314.66
457.86	312.48
458.23	310.62
458.59	308.57
458.96	306.48
459.33	304.66
459.70	302.78
460.07	301.27
460.43	299.54
460.80	297.94
461.17	296.49
461.54	294.99
461.91	293.56
462.27	292.12
462.64	290.85
463.01	289.48
463.38	288.18
463.74	286.83
464.11	285.69
464.48	284.63
464.85	283.52
465.21	282.66
465.58	281.73
465.95	280.66
466.32	279.79
466.68	278.87
467.05	277.99
467.42	277.09
467.78	276.14
468.15	275.28
468.52	274.60
468.88	273.73
469.25	273.00
469.62	272.40
469.98	271.73
470.35	271.09
470.72	270.49
471.08	269.81
471.45	269.24
471.82	268.67
472.18	268.09
472.55	267.65
472.92	267.12
473.28	266.65
473.65	266.14
474.02	265.66
474.38	265.28
474.75	264.91
475.11	264.55
475.48	264.29
475.85	264.08
476.21	263.88
476.58	263.71
476.94	263.52
477.31	263.33
477.67	263.18
478.04	263.05
478.41	262.98
478.77	263.01
479.14	262.94
479.50	262.97
479.87	263.02
480.23	263.10
480.60	263.18
480.96	263.27
481.33	263.50
481.69	263.68
482.06	263.87
482.42	264.07
482.79	264.32
483.15	264.63
483.52	264.97
483.88	265.31
484.25	265.66
484.61	266.09
484.98	266.54
485.34	267.14
485.71	267.77
486.07	268.37
486.44	268.92
486.80	269.65
487.17	270.34
487.53	271.16
487.90	272.02
488.26	272.94
488.62	273.96
488.99	274.96
489.35	276.05
489.72	277.18
490.08	278.38
490.44	279.66
490.81	280.98
491.17	282.33
491.54	283.81
491.90	285.35
492.26	286.99
492.63	288.69
492.99	290.44
493.36	292.29
493.72	294.33
494.08	296.45
494.45	298.66
494.81	301.04
495.17	303.41
495.54	305.97
495.90	308.66
496.26	311.46
496.63	314.36
496.99	317.40
497.35	320.67
497.72	324.06
498.08	327.55
498.44	331.22
498.80	335.10
499.17	339.11
499.53	343.28
499.89	347.64
500.26	352.16
500.62	356.83
500.98	361.83
501.34	366.88
501.71	372.19
502.07	377.69
502.43	383.29
502.79	389.17
503.16	395.24
503.52	401.48
503.88	407.84
504.24	414.52
504.60	421.42
504.97	428.50
505.33	435.82
505.69	443.50
506.05	451.24
506.41	459.13
506.78	467.29
507.14	475.70
507.50	484.48
507.86	493.47
508.22	502.63
508.59	511.78
508.95	521.35
509.31	531.15
509.67	541.13
510.03	551.39
510.39	561.92
510.75	572.67
511.12	583.64
511.48	594.94
511.84	606.34
512.20	617.85
512.56	629.75
512.92	641.95
513.28	654.27
513.64	666.90
514.00	679.66
514.37	692.64
514.73	705.72
515.09	718.71
515.45	732.04
515.81	745.61
516.17	759.60
516.53	773.80
516.89	787.96
517.25	802.28
517.61	816.78
517.97	831.22
518.33	845.72
518.69	860.54
519.05	875.56
519.41	890.79
519.77	906.45
520.13	922.04
520.49	937.39
520.85	952.89
521.21	968.54
521.57	984.85
521.93	1000.60
522.29	1017.11
522.65	1033.29
523.01	1049.53
523.37	1065.69
523.73	1081.94
524.09	1097.96
524.45	1114.43
524.81	1131.10
525.17	1147.95
525.53	1164.97
525.89	1181.81
526.25	1198.65
526.61	1215.16
526.97	1232.06
527.33	1248.51
527.68	1265.22
528.04	1281.85
528.40	1298.60
528.76	1315.79
529.12	1332.33
529.48	1349.35
529.84	1365.46
530.20	1382.25
530.56	1399.36
530.91	1416.74
531.27	1433.64
531.63	1450.23
531.99	1466.87
532.35	1482.87
532.71	1498.73
533.07	1514.98
533.42	1531.04
533.78	1547.07
534.14	1563.26
534.50	1578.50
534.86	1594.44
535.21	1609.54
535.57	1625.49
535.93	1640.96
536.29	1655.72
536.65	1670.94
537.00	1685.75
537.36	1701.05
537.72	1715.80
538.08	1730.28
538.44	1744.23
538.79	1758.21
539.15	1772.07
539.51	1785.91
539.87	1800.37
540.22	1814.31
540.58	1828.24
540.94	1841.61
541.29	1854.74
541.65	1867.62
542.01	1880.96
542.37	1893.38
542.72	1905.85
543.08	1917.68
543.44	1930.22
543.79	1941.47
544.15	1952.55
544.51	1964.19
544.87	1975.19
545.22	1985.96
545.58	1996.13
545.94	2005.97
546.29	2015.77
546.65	2025.54
547.01	2034.71
547.36	2043.51
547.72	2052.01
548.07	2059.89
548.43	2068.25
548.79	2076.25
549.14	2083.83
549.50	2091.26
549.86	2099.08
550.21	2106.57
550.57	2113.76
550.92	2120.19
551.28	2127.39
551.64	2134.38
551.99	2141.00
552.35	2147.19
552.70	2153.28
553.06	2159.32
553.41	2165.57
553.77	2171.60
554.13	2177.69
554.48	2183.96
554.84	2189.18
555.19	2194.50
555.55	2199.58
555.90	2203.91
556.26	2208.80
556.61	2213.63
556.97	2217.79
557.32	2221.69
557.68	2225.90
558.03	2230.27
558.39	2234.16
558.74	2238.77
559.10	2242.62
559.45	2246.18
559.81	2250.38
560.16	2254.19
560.52	2257.48
560.87	2260.97
561.23	2263.51
561.58	2266.56
561.94	2269.03
562.29	2271.59
562.64	2274.13
563.00	2276.81
563.35	2280.32
563.71	2283.42
564.06	2286.51
564.42	2289.47
564.77	2292.00
565.12	2293.89
565.48	2295.59
565.83	2297.34
566.19	2298.55
566.54	2299.53
566.89	2300.66
567.25	2301.13
567.60	2302.53
567.96	2304.01
568.31	2304.82
568.66	2306.01
569.02	2306.37
569.37	2306.58
569.72	2307.35
570.08	2307.57
570.43	2307.40
570.78	2306.69
571.14	2305.01
571.49	2303.55
571.84	2303.13
572.20	2301.92
572.55	2300.95
572.90	2299.38
573.26	2297.74
573.61	2296.03
573.96	2294.04
574.31	2290.90
574.67	2287.80
575.02	2284.05
575.37	2280.82
575.72	2276.73
576.08	2273.31
576.43	2269.99
576.78	2266.33
577.13	2263.09
577.49	2259.84
577.84	2256.38
578.19	2252.57
578.54	2248.74
578.90	2244.48
579.25	2238.79
579.60	2233.63
579.95	2228.51
580.30	2223.58
580.66	2218.42
581.01	2213.37
581.36	2208.38
581.71	2204.13
582.06	2199.64
582.42	2195.04
582.77	2189.56
583.12	2185.00
583.47	2180.04
583.82	2174.85
584.17	2169.32
584.53	2163.76
584.88	2157.89
585.23	2151.93
585.58	2146.38
585.93	2140.87
586.28	2136.09
586.63	2130.93
586.98	2125.79
587.34	2120.99
587.69	2115.93
588.04	2110.54
588.39	2104.70
588.74	2098.31
589.09	2092.06
589.44	2085.27
589.79	2079.20
590.14	2073.41
590.49	2066.70
590.84	2060.33
591.19	2054.25
591.54	2047.79
591.89	2040.21
592.25	2033.40
592.60	2026.07
592.95	2018.35
593.30	2010.84
593.65	2003.05
594.00	1995.87
594.35	1988.66
594.70	1980.55
595.05	1973.15
595.40	1965.85
595.75	1958.13
596.10	1951.75
596.45	1944.82
596.80	1938.56
597.15	1931.95
597.50	1924.94
597.85	1918.53
598.19	1911.81
598.54	1904.67
598.89	1898.03
599.24	1892.14
599.59	1885.45
599.94	1879.26
600.29	1872.95
600.64	1866.50
600.99	1859.00
601.34	1852.17
601.69	1845.10
602.04	1838.13
602.39	1830.76
602.74	1823.89
603.08	1817.23
603.43	1810.54
603.78	1803.41
604.13	1796.21
604.48	1788.67
604.83	1781.80
605.18	1774.77
605.53	1766.72
605.87	1758.63
606.22	1751.42
606.57	1743.41
606.92	1736.05
607.27	1728.86
607.62	1721.92
607.96	1714.61
608.31	1707.85
608.66	1700.14
609.01	1692.52
609.36	1684.97
609.70	1676.99
610.05	1668.86
610.40	1661.15
610.75	1652.77
611.10	1645.07
611.44	1636.61
611.79	1628.71
612.14	1619.93
612.49	1610.90
612.83	1602.55
613.18	1594.46
613.53	1586.24
613.88	1577.78
614.22	1569.53
614.57	1560.91
614.92	1552.80
615.27	1545.18
615.61	1536.92
615.96	1528.90
616.31	1521.37
616.65	1514.05
617.00	1506.50
617.35	1498.89
617.70	1490.53
618.04	1481.91
618.39	1473.56
618.74	1465.96
619.08	1457.68
619.43	1450.12
619.78	1443.17
620.12	1435.99
620.47	1428.39
620.82	1420.31
621.16	1412.92
621.51	1405.23
621.85	1397.75
622.20	1389.36
622.55	1381.00
622.89	1373.24
623.24	1365.65
623.59	1358.33
623.93	1350.77
624.28	1343.59
624.62	1336.05
624.97	1328.85
625.32	1322.18
625.66	1315.23
626.01	1307.94
626.35	1300.38
626.70	1292.62
627.04	1284.80
627.39	1277.08
627.73	1269.75
628.08	1262.79
628.43	1255.33
628.77	1247.95
629.12	1240.22
629.46	1232.95
629.81	1225.66
630.15	1218.47
630.50	1211.07
630.84	1202.81
631.19	1194.92
631.53	1187.41
631.88	1179.98
632.22	1172.34
632.57	1165.08
632.91	1157.57
633.26	1150.34
633.60	1143.13
633.95	1136.08
634.29	1129.16
634.64	1122.49
634.98	1115.13
635.32	1107.99
635.67	1101.52
636.01	1094.88
636.36	1088.15
636.70	1081.72
637.05	1075.12
637.39	1068.57
637.73	1062.18
638.08	1056.43
638.42	1050.46
638.77	1043.94
639.11	1037.28
639.45	1031.02
639.80	1024.27
640.14	1017.81
640.49	1011.21
640.83	1004.94
641.17	998.72
641.52	992.38
641.86	986.03
642.20	980.28
642.55	974.06
642.89	967.60
643.23	961.15
643.58	955.39
643.92	949.14
644.26	943.05
644.61	937.10
644.95	931.03
645.29	924.35
645.64	917.61
645.98	911.32
646.32	905.52
646.66	899.56
647.01	893.78
647.35	888.15
647.69	882.34
648.04	876.83
648.38	870.99
648.72	865.01
649.06	858.92
649.41	852.99
649.75	846.91
650.09	840.95
650.43	835.20
650.78	829.01
651.12	823.12
651.46	817.40
651.80	811.60
652.14	806.21
652.49	800.88
652.83	795.68
653.17	789.98
653.51	784.25
653.85	778.89
654.20	773.20
654.54	767.19
654.88	761.45
655.22	755.55
655.56	749.86
655.90	744.36
656.25	738.99
656.59	733.60
656.93	728.61
657.27	723.46
657.61	718.00
657.95	712.91
658.29	707.76
658.64	702.52
658.98	697.27
659.32	691.77
659.66	686.55
660.00	681.30
660.34	676.39
660.68	671.44
661.02	666.33
661.36	661.69
661.70	657.24
662.05	652.94
662.39	648.59
662.73	644.20
663.07	639.86
663.41	635.49
663.75	631.06
664.09	626.45
664.43	622.04
664.77	617.89
665.11	613.67
665.45	609.61
665.79	605.55
666.13	601.45
666.47	597.40
666.81	593.16
667.15	589.01
667.49	585.15
667.83	581.38
668.17	577.45
668.51	573.46
668.85	569.44
669.19	565.59
669.53	561.75
669.87	557.88
670.21	554.23
670.55	550.62
670.89	547.20
671.23	543.83
671.57	540.37
671.91	536.92
672.25	533.48
672.58	529.95
672.92	526.57
673.26	523.32
673.60	520.23
673.94	517.23
674.28	514.42
674.62	511.49
674.96	508.44
675.30	505.53
675.64	502.60
675.97	499.86
676.31	497.01
676.65	494.10
676.99	491.39
677.33	488.50
677.67	485.64
678.01	482.61
678.34	479.64
678.68	476.77
679.02	473.93
679.36	471.17
679.70	468.48
680.04	465.67
680.37	462.82
680.71	460.03
681.05	457.42
681.39	454.62
681.73	451.96
682.06	449.40
682.40	446.90
682.74	444.36
683.08	441.82
683.42	439.22
683.75	436.72
684.09	434.15
684.43	431.71
684.77	429.29
685.10	426.95
685.44	424.63
685.78	422.34
686.12	420.12
686.45	417.85
686.79	415.57
687.13	413.45
687.46	411.34
687.80	409.21
688.14	406.99
688.48	404.99
688.81	402.75
689.15	400.62
689.49	398.46
689.82	396.39
690.16	394.24
690.50	392.24
690.83	390.33
691.17	388.40
691.51	386.45
691.84	384.62
692.18	382.70
692.52	380.67
692.85	378.74
693.19	376.87
693.52	375.03
693.86	373.20
694.20	371.37
694.53	369.60
694.87	367.73
695.21	365.97
695.54	364.16
695.88	362.47
696.21	360.74
696.55	359.03
696.88	357.37
697.22	355.78
697.56	354.19
697.89	352.48
698.23	350.83
698.56	349.23
698.90	347.59
699.23	345.91
699.57	344.40
699.90	342.90
700.24	341.35
700.58	339.76
700.91	338.27
701.25	336.83
701.58	335.44
701.92	334.06
702.25	332.66
702.59	331.26
702.92	329.90
703.26	328.62
703.59	327.38
703.93	326.22
704.26	324.96
704.60	323.66
704.93	322.37
705.26	321.17
705.60	319.99
705.93	318.85
706.27	317.83
706.60	316.77
706.94	315.65
707.27	314.51
707.61	313.48
707.94	312.46
708.27	311.33
708.61	310.26
708.94	309.28
709.28	308.32
709.61	307.40
709.94	306.46
710.28	305.40
710.61	304.42
710.95	303.29
711.28	302.37
711.61	301.47
711.95	300.65
712.28	299.67
712.61	298.72
712.95	297.81
713.28	296.95
713.61	296.05
713.95	295.18
714.28	294.39
714.61	293.55
714.95	292.76
715.28	291.98
715.61	291.12
715.95	290.26
716.28	289.39
716.61	288.54
716.95	287.72
717.28	287.03
717.61	286.25
717.94	285.54
718.28	284.76
718.61	284.02
718.94	283.28
719.27	282.67
719.61	282.02
719.94	281.36
720.27	280.66
720.60	280.04
720.94	279.41
721.27	278.83
721.60	278.26
721.93	277.67
722.27	277.10
722.60	276.56
722.93	276.04
723.26	275.53
723.59	274.99
723.93	274.47
724.26	273.91
724.59	273.40
724.92	272.88
725.25	272.36
725.59	271.81
725.92	271.29
726.25	270.74
726.58	270.29
726.91	269.83
727.24	269.39
727.57	268.92
727.91	268.46
728.24	267.99
728.57	267.51
728.90	267.06
729.23	266.59
729.56	266.18
729.89	265.70
730.22	265.19
730.55	264.72
730.89	264.26
731.22	263.83
731.55	263.36
731.88	262.95
732.21	262.54
732.54	262.15
732.87	261.77
733.20	261.42
733.53	261.02
733.86	260.64
734.19	260.20
734.52	259.81
734.85	259.47
735.18	259.04
735.51	258.66
735.84	258.28
736.17	257.91
736.50	257.50
736.83	257.29
737.16	257.01
737.49	256.68
737.82	256.36
738.15	256.03
738.48	255.69
738.81	255.34
739.14	255.01
739.47	254.67
739.80	254.33
740.13	254.00
740.46	253.62
740.79	253.29
741.12	252.97
741.45	252.63
741.78	252.27
742.11	252.01
742.44	251.70
742.77	251.41
743.10	251.13
743.43	250.82
743.75	250.41
744.08	250.21
744.41	249.93
744.74	249.64
745.07	249.34
745.40	249.14
745.73	248.89
746.06	248.60
746.39	248.34
746.71	248.06
747.04	247.79
747.37	247.53
747.70	247.27
748.03	247.04
748.36	246.82
748.68	246.61
749.01	246.32
749.34	246.10
749.67	245.85
750.00	245.59
750.33	245.42
750.65	245.22
750.98	244.89
751.31	244.67
751.64	244.47
751.97	244.32
752.29	244.09
752.62	243.86
752.95	243.67
753.28	243.48
753.60	243.29
753.93	243.10
754.26	242.93
754.59	242.68
754.91	242.49
755.24	242.33
755.57	242.14
755.90	241.94
756.22	241.73
756.55	241.54
756.88	241.37
757.20	241.14
757.53	240.95
757.86	240.78
758.19	240.64
758.51	240.48
758.84	240.26
759.17	240.08
759.49	239.91
759.82	239.79
760.15	239.65
760.47	239.53
760.80	239.38
761.13	239.24
761.45	239.13
761.78	238.96
762.11	238.80
762.43	238.66
762.76	238.54
763.08	238.42
763.41	238.30
763.74	238.17
764.06	238.05
764.39	237.91
764.71	237.78
765.04	237.63
765.37	237.50
765.69	237.39
766.02	237.28
766.34	237.19
766.67	237.03
767.00	236.92
767.32	236.82
767.65	236.80
767.97	236.67
768.30	236.54
768.62	236.44
768.95	236.33
769.27	236.21
769.60	236.10
769.92	235.99
770.25	235.86
770.57	235.78
770.90	235.67
771.22	235.52
771.55	235.46
771.87	235.35
772.20	235.22
772.52	235.17
772.85	235.16
773.17	235.05
773.50	234.95
773.82	234.84
774.15	234.70
774.47	234.54
774.80	234.47
775.12	234.39
775.45	234.29
775.77	234.16
776.09	234.08
776.42	234.01
776.74	233.97
777.07	233.89
777.39	233.78
777.72	233.69
778.04	233.66
778.36	233.54
778.69	233.48
779.01	233.45
779.33	233.31
779.66	233.14
779.98	233.07
780.31	233.02
780.63	233.02
780.95	233.00
781.28	232.89
781.60	232.80
781.92	232.75
782.25	232.69
782.57	232.64
782.89	232.58
783.22	232.50
783.54	232.38
783.86	232.34
784.19	232.27
784.51	232.26
784.83	232.17
785.16	232.11
785.48	232.06
785.80	231.97
786.12	231.95
786.45	231.89
786.77	231.85
787.09	231.79
787.42	231.67
787.74	231.60
788.06	231.58
788.38	231.54
788.71	231.46
789.03	231.45
789.35	231.44
789.67	231.40
789.99	231.37
790.32	231.32
790.64	231.30
790.96	231.33
791.28	231.25
791.61	231.20
791.93	231.20
792.25	231.15
792.57	231.18
792.89	231.13
793.21	231.10
793.54	231.02
793.86	230.99
794.18	230.95
794.50	230.91
794.82	230.85
795.14	230.83
795.47	230.82
795.79	230.77
796.11	230.72
796.43	230.69
796.75	230.64
797.07	230.62
797.39	230.57
797.71	230.48
798.04	230.44
798.36	230.46
798.68	230.40
799.00	230.36
799.32	230.32
799.64	230.32
799.96	230.31
800.28	230.32
800.60	230.26
800.92	230.24
801.24	230.18
801.56	230.17
801.89	230.13
802.21	230.10
802.53	230.07
802.85	230.05
803.17	230.06
803.49	230.03
803.81	230.00
804.13	229.98
804.45	229.94
804.77	229.94
805.09	229.91
805.41	229.91
805.73	229.85
806.05	229.78
806.37	229.74
806.69	229.70
807.01	229.66
807.33	229.64
807.65	229.61
807.97	229.63
808.28	229.60
808.60	229.58
808.92	229.55
809.24	229.54
809.56	229.51
809.88	229.43
810.20	229.42
810.52	229.42
810.84	229.36
811.16	229.35
811.48	229.29
811.80	229.29
812.12	229.27
812.43	229.27
812.75	229.28
813.07	229.24
813.39	229.20
813.71	229.16
814.03	229.14
814.35	229.10
814.67	229.06
814.98	229.03
815.30	229.00
815.62	228.95
815.94	228.88
816.26	228.86
816.58	228.84
816.89	228.82
817.21	228.77
817.53	228.77
817.85	228.75
818.17	228.72
818.48	228.66
818.80	228.65
819.12	228.62
819.44	228.56
819.76	228.54
820.07	228.53
820.39	228.52
820.71	228.52
821.03	228.52
821.34	228.49
821.66	228.51
821.98	228.51
822.30	228.49
822.61	228.50
822.93	228.45
823.25	228.45
823.57	228.42
823.88	228.43
824.20	228.43
824.52	228.40
824.83	228.42
825.15	228.41
825.47	228.35
825.79	228.34
826.10	228.33
826.42	228.33
826.74	228.32
827.05	228.28
827.37	228.28
827.69	228.25
828.00	228.25
828.32	228.22
828.64	228.21
828.95	228.26
829.27	228.25
829.58	228.27
829.90	228.26
830.22	228.27
830.53	228.21
830.85	228.16
831.17	228.13
831.48	228.10
831.80	228.09
832.11	228.10
832.43	228.10
832.75	228.10
833.06	228.13
833.38	228.13
833.69	228.13
834.01	228.11
834.32	228.12
834.64	228.11
834.96	228.11
835.27	228.09
835.59	228.03
835.90	228.02
836.22	228.01
836.53	227.98
836.85	227.97
837.16	228.10
837.48	228.11
837.79	228.17
838.11	228.18
838.42	228.18
838.74	228.16
839.05	228.15
839.37	228.14
839.68	228.06
840.00	228.06
840.31	228.08
840.63	228.06
840.94	228.01
841.26	228.02
841.57	228.02
841.88	228.02
842.20	228.04
842.51	227.99
842.83	228.03
843.14	228.11
843.46	228.11
843.77	228.04
844.08	228.02
844.40	227.98
844.71	227.93
845.03	227.90
845.34	227.91
845.65	227.90
845.97	227.87
846.28	227.91
846.60	227.89
846.91	227.87
847.22	227.88
847.54	227.91
847.85	227.92
848.16	227.88
848.48	227.87
848.79	227.90
849.10	227.95
849.42	227.92
849.73	227.82
850.04	227.85
850.36	227.80
850.67	227.84
850.98	227.85
851.30	227.86
851.61	227.87
851.92	227.84
852.23	227.87
852.55	227.87
852.86	227.84
853.17	227.84
853.49	227.84
853.80	227.86
854.11	227.84
854.42	227.82
854.74	227.83
855.05	227.83
855.36	227.76
855.67	227.74
855.99	227.74
856.30	227.87
856.61	227.81
856.92	227.78
857.23	227.75
857.55	227.72
857.86	227.70
858.17	227.72
858.48	227.70
858.79	227.66
859.11	227.71
859.42	227.70
859.73	227.68
860.04	227.69
860.35	227.63
860.66	227.60
860.98	227.57
861.29	227.58
861.60	227.54
861.91	227.53
862.22	227.50
862.53	227.45
862.84	227.33
863.16	227.38
863.47	227.39
863.78	227.38
864.09	227.38
864.40	227.40
864.71	227.38
865.02	227.38
865.33	227.37
865.64	227.33
865.95	227.33
866.27	227.38
866.58	227.36
866.89	227.38
867.20	227.42
867.51	227.39
867.82	227.39
868.13	227.44
868.44	227.43
868.75	227.43
869.06	227.45
869.37	227.46
869.68	227.43
869.99	227.41
870.30	227.42
870.61	227.44
870.92	227.44
871.23	227.45
871.54	227.47
871.85	227.50
872.16	227.50
872.47	227.48
872.78	227.42
873.09	227.43
873.40	227.45
873.71	227.44
874.02	227.49
874.33	227.45
874.64	227.44
874.95	227.47
875.26	227.45
875.56	227.44
875.87	227.45
876.18	227.46
876.49	227.57
876.80	227.57
877.11	227.53
877.42	227.51
877.73	227.50
878.04	227.52
878.35	227.48
878.66	227.50
878.96	227.53
879.27	227.51
879.58	227.50
879.89	227.48
880.20	227.48
880.51	227.45
880.82	227.49
881.12	227.49
881.43	227.47
881.74	227.49
882.05	227.50
882.36	227.51
882.67	227.50
882.97	227.39
883.28	227.41
883.59	227.39
883.90	227.41
884.21	227.43
884.51	227.43
884.82	227.43
885.13	227.43
885.44	227.42
885.74	227.45
886.05	227.45
886.36	227.47
886.67	227.43
886.98	227.48
887.28	227.44
887.59	227.42
887.90	227.41
888.20	227.41
888.51	227.41
888.82	227.37
889.13	227.38
889.43	227.45
889.74	227.44
890.05	227.47
890.35	227.45
890.66	227.41
890.97	227.39
891.28	227.36
891.58	227.32
891.89	227.30
892.20	227.28
892.50	227.27
892.81	227.20
893.12	227.18
893.42	227.12
893.73	227.08
894.04	227.06
894.34	227.09
894.65	227.06
894.95	227.03
895.26	227.02
895.57	227.06
895.87	226.98
896.18	226.95
896.48	226.97
896.79	226.94
897.10	226.99
897.40	226.99
897.71	227.01
898.01	227.03
898.32	227.05
898.63	227.04
898.93	227.03
899.24	227.08
899.54	227.09
899.85	227.09
900.15	227.17
900.46	227.22
900.76	227.20
901.07	227.23
901.38	227.26
901.68	227.26
901.99	227.22
902.29	227.22
902.60	227.23
902.90	227.20
903.21	227.21
903.51	227.18
903.82	227.21
904.12	227.21
904.43	227.21
904.73	227.19
905.03	227.19
905.34	227.29
905.64	227.27
905.95	227.30
906.25	227.29
906.56	227.26
906.86	227.23
907.17	227.22
907.47	227.22
907.77	227.22
908.08	227.20
908.38	227.22
908.69	227.21
908.99	227.19
909.30	227.22
909.60	227.23
909.90	227.25
910.21	227.22
910.51	227.23
910.81	227.24
911.12	227.27
911.42	227.27
911.73	227.14
912.03	227.19
912.33	227.19
912.64	227.21
912.94	227.20
913.24	227.21
913.55	227.19
913.85	227.17
914.15	227.19
914.46	227.21
914.76	227.17
915.06	227.21
915.37	227.20
915.67	227.18
915.97	227.19
916.27	227.17
916.58	227.19
916.88	227.18
917.18	227.17
917.49	227.23
917.79	227.23
918.09	227.28
918.39	227.28
918.70	227.27
919.00	227.25
919.30	227.33
919.60	227.31
919.91	227.33
920.21	227.34
920.51	227.30
920.81	227.30
921.12	227.32
921.42	227.28
921.72	227.31
922.02	227.30
922.32	227.30
922.63	227.31
922.93	227.35
923.23	227.36
923.53	227.36
923.83	227.28
924.13	227.32
924.44	227.30
924.74	227.32
925.04	227.38
925.34	227.40
925.64	227.30
925.94	227.30
926.24	227.35
926.55	227.36
926.85	227.39
927.15	227.40
927.45	227.39
927.75	227.42
928.05	227.40
928.35	227.37
928.65	227.39
928.95	227.40
929.26	227.34
929.56	227.34
929.86	227.35
930.16	227.34
930.46	227.33
930.76	227.34
931.06	227.27
931.36	227.24
931.66	227.23
931.96	227.26
932.26	227.26
932.56	227.20
932.86	227.18
933.16	227.18
933.46	227.13
933.76	227.09
934.06	227.09
934.36	227.12
934.66	227.17
934.96	227.16
935.26	227.14
935.56	227.18
935.86	227.16
936.16	227.12
936.46	227.09
936.76	227.04
937.06	227.02
937.36	227.02
937.66	227.00
937.96	226.96
938.26	226.95
938.56	226.93
938.86	226.94
939.16	226.95
939.46	226.98
939.76	226.96
940.06	226.99
940.35	226.96
940.65	226.91
940.95	226.87
941.25	226.84
941.55	226.85
941.85	226.81
942.15	226.82
942.45	226.88
942.75	226.89
943.04	226.92
943.34	226.96
943.64	226.95
943.94	226.94
944.24	226.97
944.54	226.96
944.84	226.96
945.13	226.96
945.43	226.95
945.73	226.91
946.03	226.94
946.33	226.93
946.62	226.93
946.92	226.95
947.22	226.98
947.52	226.98
947.82	226.97
948.11	226.98
948.41	226.98
948.71	226.89
949.01	226.89
949.31	226.87
949.60	226.85
949.90	226.89
950.20	226.88
950.50	226.90
950.79	226.93
951.09	226.95
951.39	226.94
951.69	226.93
951.98	226.93
952.28	226.94
952.58	226.96
952.87	226.97
953.17	226.96
953.47	226.95
953.76	226.96
954.06	226.95
954.36	226.92
954.66	226.91
954.95	226.96
955.25	226.98
955.55	226.99
955.84	226.96
956.14	226.98
956.44	227.02
956.73	226.98
957.03	227.00
957.32	227.01
957.62	227.03
957.92	227.05
958.21	227.07
958.51	227.18
958.81	227.18
959.10	227.18
959.40	227.23
959.69	227.26
959.99	227.26
960.29	227.26
960.58	227.28
960.88	227.28
961.17	227.29
961.47	227.31
961.76	227.29
962.06	227.30
962.36	227.28
962.65	227.26
962.95	227.28
963.24	227.25
963.54	227.21
963.83	227.21
964.13	227.20
964.42	227.20
964.72	227.11
965.01	227.09
965.31	227.08
965.60	227.02
965.90	227.06
966.19	227.04
966.49	227.06
966.78	227.03
967.08	227.03
967.37	227.01
967.67	226.97
967.96	227.02
968.26	227.03
968.55	227.00
968.85	227.00
969.14	226.99
969.43	227.00
969.73	227.00
970.02	227.00
970.32	226.98
970.61	226.97
970.91	226.97
971.20	226.95
971.49	226.95
971.79	226.97
972.08	226.90
972.38	226.92
972.67	226.90
972.96	226.97
973.26	226.97
973.55	226.98
973.85	226.98
974.14	226.99
974.43	226.99
974.73	226.99
975.02	226.97
975.31	226.99
975.61	226.96
975.90	226.97
976.19	226.95
976.49	226.95
976.78	226.95
977.07	226.96
977.37	226.96
977.66	226.98
977.95	226.96
978.24	226.99
978.54	226.98
978.83	226.98
979.12	226.94
979.42	226.91
979.71	226.91
980.00	226.92
980.29	226.91
980.59	226.87
980.88	226.91
981.17	226.93
981.46	226.89
981.76	226.92
982.05	226.94
982.34	226.94
982.63	226.95
982.93	226.95
983.22	226.93
983.51	226.93
983.80	226.93
984.09	226.93
984.39	226.89
984.68	226.89
984.97	226.90
985.26	226.90
985.55	226.94
985.85	226.89
986.14	226.90
986.43	226.90
986.72	226.93
987.01	226.88
987.30	226.85
987.59	226.87
987.89	226.84
988.18	226.84
988.47	226.79
988.76	226.81
989.05	226.81
989.34	226.80
989.63	226.84
989.92	226.81
990.22	226.79
990.51	226.81
990.80	226.80
991.09	226.83
991.38	226.82
991.67	226.79
991.96	226.83
992.25	226.81
992.54	226.80
992.83	226.79
993.12	226.80
993.41	226.82
993.70	226.88
993.99	226.92
994.28	226.91
994.58	226.93
994.87	226.89
995.16	226.93
995.45	226.91
995.74	226.89
996.03	226.93
996.32	226.99
996.61	227.00
996.90	227.00
997.19	226.96
997.48	226.98
997.77	226.98
998.06	227.00
998.34	227.02
998.63	227.01
998.92	227.04
999.21	227.04
999.50	227.05
999.79	227.02
1000.08	227.04
1000.37	227.06
1000.66	227.07
1000.95	227.13
1001.24	227.11
1001.53	227.13
1001.82	227.12
1002.11	227.08
1002.40	227.07
1002.68	227.09
1002.97	227.16
1003.26	227.16
1003.55	227.15
1003.84	227.16
1004.13	227.18
1004.42	227.16
1004.71	227.16
1004.99	227.14
1005.28	227.16
1005.57	227.16
1005.86	227.14
1006.15	227.11
1006.44	227.10
1006.72	227.14
1007.01	227.13
1007.30	227.13
1007.59	227.13
1007.88	227.15
1008.17	227.16
1008.45	227.14
1008.74	227.11
1009.03	227.11
1009.32	227.09
1009.60	227.06
1009.89	227.05
1010.18	227.01
1010.47	227.01
1010.76	227.04
1011.04	227.02
1011.33	227.04
1011.62	227.05
1011.91	227.04
1012.19	227.05
1012.48	227.02
1012.77	226.99
1013.05	227.02
1013.34	226.99
1013.63	227.00
1013.92	226.98
1014.20	226.98
1014.49	226.97
1014.78	226.99
1015.06	226.92
1015.35	226.95
1015.64	227.01
1015.92	227.05
1016.21	227.06
1016.50	227.06
1016.78	227.06
1017.07	227.08
1017.36	227.04
1017.64	227.03
1017.93	227.06
1018.22	227.05
1018.50	227.06
1018.79	227.09
1019.08	227.05
1019.36	227.08
1019.65	227.09
1019.93	227.16
1020.22	227.18
1020.51	227.24
1020.79	227.21
1021.08	227.11
1021.36	226.68
1021.65	227.36
1021.94	227.27
1022.22	227.10
1022.51	227.50
1022.79	228.11
1023.08	227.23
1023.36	228.02
1023.65	226.65
>>>>>End Processed Spectral Data<<<<<
