SpectraSuite Data File
++++++++++++++++++++++++++++++++++++
Date: Fri Feb 01 18:04:14 EST 2013
User: group
Dark Spectrum Present: No
Reference Spectrum Present: No
Number of Sampled Component Spectra: 1
Spectrometers: USB2E7196
Integration Time (usec): 35000 (USB2E7196)
Spectra Averaged: 100 (USB2E7196)
Boxcar Smoothing: 10 (USB2E7196)
Correct for Electrical Dark: No (USB2E7196)
Strobe/Lamp Enabled: No (USB2E7196)
Correct for Detector Non-linearity: No (USB2E7196)
Correct for Stray Light: No (USB2E7196)
Number of Pixels in Processed Spectrum: 2048
>>>>>Begin Processed Spectral Data<<<<<
339.09	0.00
339.48	212.74
339.86	214.13
340.24	216.14
340.63	217.19
341.01	219.22
341.39	220.10
341.78	220.88
342.16	222.33
342.54	222.56
342.93	211.26
343.31	221.96
343.69	222.53
344.07	223.00
344.46	223.43
344.84	223.83
345.22	224.12
345.60	224.35
345.99	224.58
346.37	224.71
346.75	224.83
347.13	224.92
347.52	224.99
347.90	225.10
348.28	225.16
348.66	225.21
349.05	225.22
349.43	225.27
349.81	225.32
350.19	225.37
350.57	225.40
350.96	225.46
351.34	225.54
351.72	225.61
352.10	225.72
352.48	225.77
352.87	225.82
353.25	225.85
353.63	225.94
354.01	225.97
354.39	226.03
354.77	226.12
355.15	226.21
355.54	226.27
355.92	226.26
356.30	226.34
356.68	226.48
357.06	226.54
357.44	226.59
357.82	226.69
358.20	226.78
358.58	226.84
358.97	226.94
359.35	227.01
359.73	227.08
360.11	227.12
360.49	227.14
360.87	227.16
361.25	227.23
361.63	227.30
362.01	227.35
362.39	227.40
362.77	227.43
363.15	227.46
363.53	227.48
363.91	227.55
364.29	227.57
364.67	227.46
365.05	227.50
365.43	227.52
365.81	227.55
366.19	227.57
366.57	227.62
366.95	227.64
367.33	227.64
367.71	227.64
368.09	227.66
368.47	227.68
368.85	227.69
369.23	227.67
369.61	227.59
369.99	227.60
370.37	227.57
370.75	227.62
371.13	227.57
371.51	227.50
371.89	227.44
372.27	227.42
372.65	227.41
373.03	227.36
373.41	227.34
373.78	227.28
374.16	227.20
374.54	227.14
374.92	227.07
375.30	227.01
375.68	226.94
376.06	226.92
376.44	226.88
376.82	226.82
377.19	226.82
377.57	226.77
377.95	226.68
378.33	226.65
378.71	226.53
379.09	226.53
379.47	226.48
379.84	226.43
380.22	226.37
380.60	226.29
380.98	226.23
381.36	226.15
381.73	226.06
382.11	226.01
382.49	225.97
382.87	225.88
383.25	225.79
383.62	225.88
384.00	225.80
384.38	225.72
384.76	225.71
385.13	225.65
385.51	225.63
385.89	225.58
386.27	225.54
386.64	225.49
387.02	225.43
387.40	225.39
387.78	225.34
388.15	225.29
388.53	225.25
388.91	225.21
389.29	225.18
389.66	225.19
390.04	225.15
390.42	225.12
390.79	225.11
391.17	225.12
391.55	224.93
391.92	224.92
392.30	224.93
392.68	224.92
393.05	224.93
393.43	224.93
393.81	224.97
394.18	224.95
394.56	224.93
394.94	224.92
395.31	224.92
395.69	225.00
396.06	225.02
396.44	225.06
396.82	225.11
397.19	225.18
397.57	225.20
397.95	225.22
398.32	225.21
398.70	225.27
399.07	225.34
399.45	225.40
399.82	225.43
400.20	225.48
400.58	225.55
400.95	225.55
401.33	225.65
401.70	225.79
402.08	225.89
402.45	225.98
402.83	226.11
403.20	226.22
403.58	226.30
403.95	226.44
404.33	226.57
404.71	226.69
405.08	226.86
405.46	226.99
405.83	227.14
406.21	227.33
406.58	227.51
406.96	227.68
407.33	227.90
407.70	228.14
408.08	228.44
408.45	228.70
408.83	228.96
409.20	229.23
409.58	229.46
409.95	229.77
410.33	230.13
410.70	230.44
411.08	230.84
411.45	231.24
411.82	231.64
412.20	232.13
412.57	232.66
412.95	233.07
413.32	233.62
413.69	234.23
414.07	234.82
414.44	235.46
414.82	236.10
415.19	236.80
415.56	237.55
415.94	238.32
416.31	239.17
416.68	240.03
417.06	240.99
417.43	241.88
417.81	242.96
418.18	244.03
418.55	245.17
418.93	246.34
419.30	247.58
419.67	248.84
420.04	250.10
420.42	251.45
420.79	253.01
421.16	254.65
421.54	256.21
421.91	257.86
422.28	259.57
422.66	261.38
423.03	263.16
423.40	264.97
423.77	266.86
424.15	268.79
424.52	270.81
424.89	272.97
425.26	275.09
425.64	277.02
426.01	279.15
426.38	281.40
426.75	283.68
427.13	286.01
427.50	288.46
427.87	291.04
428.24	293.57
428.61	295.98
428.99	298.55
429.36	301.42
429.73	304.19
430.10	306.95
430.47	309.73
430.85	312.63
431.22	315.66
431.59	318.88
431.96	321.91
432.33	325.31
432.70	328.55
433.08	332.37
433.45	335.96
433.82	339.51
434.19	343.41
434.56	347.23
434.93	350.84
435.30	354.41
435.68	358.34
436.05	362.13
436.42	365.96
436.79	369.38
437.16	373.08
437.53	376.94
437.90	380.72
438.27	384.46
438.64	388.35
439.01	391.86
439.38	394.92
439.75	397.84
440.13	401.20
440.50	404.35
440.87	406.89
441.24	409.52
441.61	412.43
441.98	414.45
442.35	416.88
442.72	419.40
443.09	421.84
443.46	423.20
443.83	424.05
444.20	424.68
444.57	425.81
444.94	426.20
445.31	426.65
445.68	427.15
446.05	427.24
446.42	426.68
446.79	426.14
447.16	425.55
447.53	425.17
447.90	423.60
448.27	422.07
448.64	419.85
449.01	418.35
449.37	415.68
449.74	413.17
450.11	410.16
450.48	406.78
450.85	403.35
451.22	400.45
451.59	397.70
451.96	395.10
452.33	391.58
452.70	388.37
453.07	384.54
453.43	380.58
453.80	376.83
454.17	373.18
454.54	369.74
454.91	366.02
455.28	362.41
455.65	359.00
456.02	355.61
456.38	352.68
456.75	349.03
457.12	345.96
457.49	342.90
457.86	339.89
458.23	337.33
458.59	334.57
458.96	331.69
459.33	329.19
459.70	326.63
460.07	324.54
460.43	322.16
460.80	319.95
461.17	318.00
461.54	315.92
461.91	314.00
462.27	312.00
462.64	310.28
463.01	308.41
463.38	306.64
463.74	304.82
464.11	303.27
464.48	301.86
464.85	300.32
465.21	299.10
465.58	297.86
465.95	296.40
466.32	295.13
466.68	293.92
467.05	292.71
467.42	291.49
467.78	290.22
468.15	289.03
468.52	288.09
468.88	286.97
469.25	285.95
469.62	285.06
469.98	284.13
470.35	283.25
470.72	282.41
471.08	281.52
471.45	280.75
471.82	279.96
472.18	279.16
472.55	278.59
472.92	277.86
473.28	277.23
473.65	276.61
474.02	276.01
474.38	275.48
474.75	274.97
475.11	274.48
475.48	274.09
475.85	273.76
476.21	273.43
476.58	273.10
476.94	272.85
477.31	272.57
477.67	272.30
478.04	272.12
478.41	271.98
478.77	271.92
479.14	271.77
479.50	271.70
479.87	271.71
480.23	271.72
480.60	271.74
480.96	271.74
481.33	271.91
481.69	272.03
482.06	272.18
482.42	272.32
482.79	272.50
483.15	272.80
483.52	273.17
483.88	273.48
484.25	273.85
484.61	274.24
484.98	274.68
485.34	275.22
485.71	275.79
486.07	276.41
486.44	276.98
486.80	277.71
487.17	278.46
487.53	279.24
487.90	280.11
488.26	281.05
488.62	282.04
488.99	283.05
489.35	284.14
489.72	285.30
490.08	286.55
490.44	287.84
490.81	289.20
491.17	290.59
491.54	292.11
491.90	293.66
492.26	295.36
492.63	297.20
492.99	299.10
493.36	301.13
493.72	303.26
494.08	305.50
494.45	307.87
494.81	310.36
495.17	312.99
495.54	315.73
495.90	318.60
496.26	321.59
496.63	324.70
496.99	327.97
497.35	331.43
497.72	335.01
498.08	338.76
498.44	342.67
498.80	346.81
499.17	351.04
499.53	355.47
499.89	360.12
500.26	364.90
500.62	369.86
500.98	375.09
501.34	380.47
501.71	386.09
502.07	391.91
502.43	397.92
502.79	404.09
503.16	410.48
503.52	417.13
503.88	423.91
504.24	430.97
504.60	438.29
504.97	445.86
505.33	453.66
505.69	461.84
506.05	470.16
506.41	478.58
506.78	487.29
507.14	496.39
507.50	505.69
507.86	515.30
508.22	525.05
508.59	534.96
508.95	545.18
509.31	555.70
509.67	566.47
510.03	577.49
510.39	588.78
510.75	600.31
511.12	612.02
511.48	624.19
511.84	636.46
512.20	648.83
512.56	661.61
512.92	674.71
513.28	688.03
513.64	701.43
514.00	715.13
514.37	729.19
514.73	743.22
515.09	757.34
515.45	771.65
515.81	786.34
516.17	801.41
516.53	816.61
516.89	831.95
517.25	847.30
517.61	862.94
517.97	878.58
518.33	894.30
518.69	910.35
519.05	926.65
519.41	943.22
519.77	960.19
520.13	977.10
520.49	993.98
520.85	1010.73
521.21	1027.89
521.57	1045.60
521.93	1062.77
522.29	1080.73
522.65	1098.50
523.01	1116.30
523.37	1133.97
523.73	1151.67
524.09	1169.44
524.45	1187.38
524.81	1205.69
525.17	1224.17
525.53	1242.81
525.89	1261.40
526.25	1280.00
526.61	1298.15
526.97	1316.79
527.33	1335.11
527.68	1353.50
528.04	1371.85
528.40	1390.36
528.76	1409.32
529.12	1427.73
529.48	1446.62
529.84	1464.42
530.20	1483.12
530.56	1502.00
530.91	1521.43
531.27	1540.31
531.63	1558.82
531.99	1577.51
532.35	1595.55
532.71	1613.44
533.07	1631.82
533.42	1649.87
533.78	1668.05
534.14	1686.49
534.50	1703.81
534.86	1721.85
535.21	1739.26
535.57	1757.38
535.93	1775.11
536.29	1792.17
536.65	1809.54
537.00	1826.57
537.36	1844.22
537.72	1860.90
538.08	1877.65
538.44	1893.65
538.79	1909.74
539.15	1925.61
539.51	1941.53
539.87	1958.24
540.22	1974.28
540.58	1990.47
540.94	2006.08
541.29	2021.17
541.65	2036.08
542.01	2051.69
542.37	2066.31
542.72	2080.89
543.08	2094.93
543.44	2109.72
543.79	2123.15
544.15	2136.46
544.51	2150.29
544.87	2163.63
545.22	2176.65
545.58	2189.33
545.94	2201.42
546.29	2213.37
546.65	2225.61
547.01	2237.22
547.36	2247.93
547.72	2258.49
548.07	2268.44
548.43	2278.73
548.79	2288.86
549.14	2298.61
549.50	2307.92
549.86	2317.44
550.21	2326.71
550.57	2335.95
550.92	2344.49
551.28	2353.60
551.64	2362.56
551.99	2370.99
552.35	2378.96
552.70	2387.25
553.06	2395.09
553.41	2403.23
553.77	2411.32
554.13	2419.09
554.48	2427.03
554.84	2434.65
555.19	2441.80
555.55	2448.69
555.90	2454.94
556.26	2461.82
556.61	2468.10
556.97	2474.29
557.32	2480.28
557.68	2486.29
558.03	2492.15
558.39	2497.32
558.74	2503.47
559.10	2509.04
559.45	2514.27
559.81	2520.13
560.16	2525.47
560.52	2530.01
560.87	2534.98
561.23	2539.02
561.58	2543.37
561.94	2547.21
562.29	2550.67
562.64	2554.86
563.00	2558.69
563.35	2563.63
563.71	2568.06
564.06	2572.76
564.42	2576.73
564.77	2580.51
565.12	2584.15
565.48	2587.39
565.83	2590.61
566.19	2593.24
566.54	2595.08
566.89	2597.37
567.25	2599.04
567.60	2601.28
567.96	2604.20
568.31	2606.06
568.66	2608.23
569.02	2609.78
569.37	2610.99
569.72	2612.87
570.08	2613.86
570.43	2614.73
570.78	2614.90
571.14	2613.92
571.49	2613.08
571.84	2613.51
572.20	2613.12
572.55	2612.46
572.90	2611.21
573.26	2610.22
573.61	2608.80
573.96	2607.69
574.31	2605.07
574.67	2602.45
575.02	2599.01
575.37	2595.73
575.72	2592.08
576.08	2588.71
576.43	2585.50
576.78	2582.15
577.13	2578.98
577.49	2575.87
577.84	2572.73
578.19	2568.81
578.54	2565.21
578.90	2560.93
579.25	2555.07
579.60	2549.75
579.95	2544.65
580.30	2539.37
580.66	2533.89
581.01	2528.55
581.36	2523.15
581.71	2518.70
582.06	2513.93
582.42	2509.16
582.77	2503.60
583.12	2498.66
583.47	2493.86
583.82	2488.50
584.17	2482.65
584.53	2476.65
584.88	2470.50
585.23	2463.98
585.58	2457.99
585.93	2451.86
586.28	2446.50
586.63	2441.05
586.98	2435.56
587.34	2430.29
587.69	2424.94
588.04	2419.29
588.39	2413.24
588.74	2406.12
589.09	2399.27
589.44	2391.73
589.79	2384.90
590.14	2378.56
590.49	2371.16
590.84	2363.82
591.19	2357.08
591.54	2349.81
591.89	2341.69
592.25	2334.09
592.60	2326.02
592.95	2317.60
593.30	2309.42
593.65	2300.81
594.00	2292.73
594.35	2284.44
594.70	2275.23
595.05	2267.08
595.40	2258.64
595.75	2250.00
596.10	2242.90
596.45	2235.19
596.80	2228.10
597.15	2220.51
597.50	2212.55
597.85	2205.17
598.19	2197.58
598.54	2189.63
598.89	2181.96
599.24	2175.12
599.59	2167.47
599.94	2160.18
600.29	2152.73
600.64	2144.93
600.99	2136.36
601.34	2128.47
601.69	2120.28
602.04	2112.49
602.39	2103.92
602.74	2095.93
603.08	2088.08
603.43	2080.25
603.78	2071.72
604.13	2063.44
604.48	2055.06
604.83	2047.02
605.18	2038.99
605.53	2029.82
605.87	2020.34
606.22	2011.78
606.57	2002.35
606.92	1993.54
607.27	1985.21
607.62	1977.19
607.96	1968.87
608.31	1961.38
608.66	1952.48
609.01	1943.74
609.36	1934.72
609.70	1925.34
610.05	1915.99
610.40	1907.13
610.75	1897.37
611.10	1888.37
611.44	1878.20
611.79	1868.72
612.14	1858.48
612.49	1847.59
612.83	1837.51
613.18	1827.93
613.53	1818.41
613.88	1808.46
614.22	1798.85
614.57	1788.64
614.92	1779.13
615.27	1770.19
615.61	1760.24
615.96	1750.70
616.31	1741.59
616.65	1732.91
617.00	1724.02
617.35	1714.91
617.70	1705.13
618.04	1695.16
618.39	1685.42
618.74	1676.68
619.08	1667.05
619.43	1658.06
619.78	1649.83
620.12	1641.41
620.47	1632.49
620.82	1622.88
621.16	1614.04
621.51	1605.01
621.85	1596.01
622.20	1586.10
622.55	1576.13
622.89	1566.83
623.24	1557.82
623.59	1549.04
623.93	1540.13
624.28	1531.66
624.62	1522.82
624.97	1514.11
625.32	1505.83
625.66	1497.56
626.01	1489.02
626.35	1480.23
626.70	1471.07
627.04	1462.05
627.39	1452.88
627.73	1444.18
628.08	1435.95
628.43	1427.49
628.77	1418.75
629.12	1409.74
629.46	1401.20
629.81	1392.42
630.15	1383.94
630.50	1375.29
630.84	1365.67
631.19	1356.30
631.53	1347.32
631.88	1338.43
632.22	1329.61
632.57	1321.14
632.91	1312.23
633.26	1303.48
633.60	1294.71
633.95	1286.24
634.29	1277.83
634.64	1269.88
634.98	1261.16
635.32	1252.76
635.67	1244.93
636.01	1237.19
636.36	1229.34
636.70	1221.67
637.05	1213.95
637.39	1206.28
637.73	1198.61
638.08	1191.72
638.42	1184.61
638.77	1177.07
639.11	1169.33
639.45	1161.73
639.80	1153.91
640.14	1146.43
640.49	1138.69
640.83	1131.26
641.17	1124.12
641.52	1116.84
641.86	1109.35
642.20	1102.54
642.55	1095.11
642.89	1087.52
643.23	1079.80
643.58	1073.02
643.92	1065.77
644.26	1058.80
644.61	1051.74
644.95	1044.76
645.29	1037.12
645.64	1029.32
645.98	1021.89
646.32	1014.98
646.66	1007.90
647.01	1001.27
647.35	994.66
647.69	987.86
648.04	981.39
648.38	974.59
648.72	967.65
649.06	960.63
649.41	953.71
649.75	946.93
650.09	940.04
650.43	933.35
650.78	926.22
651.12	919.25
651.46	912.54
651.80	905.88
652.14	899.62
652.49	893.35
652.83	887.38
653.17	880.91
653.51	874.39
653.85	868.15
654.20	861.52
654.54	854.47
654.88	847.79
655.22	840.98
655.56	834.37
655.90	828.00
656.25	821.85
656.59	815.66
656.93	809.70
657.27	803.70
657.61	797.37
657.95	791.44
658.29	785.58
658.64	779.45
658.98	773.25
659.32	766.84
659.66	760.80
660.00	754.65
660.34	748.84
660.68	743.12
661.02	737.31
661.36	731.87
661.70	726.68
662.05	721.67
662.39	716.79
662.73	711.61
663.07	706.51
663.41	701.46
663.75	696.30
664.09	690.99
664.43	685.92
664.77	681.23
665.11	676.35
665.45	671.55
665.79	666.96
666.13	662.20
666.47	657.49
666.81	652.75
667.15	648.00
667.49	643.45
667.83	638.95
668.17	634.41
668.51	629.69
668.85	624.95
669.19	620.47
669.53	616.01
669.87	611.55
670.21	607.23
670.55	602.95
670.89	598.99
671.23	595.03
671.57	590.92
671.91	586.74
672.25	582.56
672.58	578.52
672.92	574.46
673.26	570.75
673.60	567.10
673.94	563.46
674.28	560.06
674.62	556.64
674.96	553.10
675.30	549.73
675.64	546.31
675.97	543.13
676.31	539.87
676.65	536.44
676.99	533.26
677.33	529.97
677.67	526.71
678.01	523.21
678.34	519.78
678.68	516.43
679.02	513.30
679.36	510.13
679.70	506.98
680.04	503.81
680.37	500.57
680.71	497.26
681.05	494.20
681.39	491.03
681.73	487.95
682.06	484.98
682.40	482.05
682.74	479.10
683.08	476.11
683.42	473.07
683.75	470.13
684.09	467.12
684.43	464.21
684.77	461.33
685.10	458.56
685.44	455.88
685.78	453.24
686.12	450.53
686.45	447.87
686.79	445.20
687.13	442.63
687.46	440.12
687.80	437.62
688.14	434.99
688.48	432.57
688.81	430.01
689.15	427.48
689.49	424.95
689.82	422.52
690.16	420.05
690.50	417.72
690.83	415.49
691.17	413.21
691.51	411.04
691.84	408.88
692.18	406.69
692.52	404.37
692.85	402.11
693.19	399.92
693.52	397.81
693.86	395.67
694.20	393.58
694.53	391.49
694.87	389.34
695.21	387.29
695.54	385.16
695.88	383.09
696.21	381.15
696.55	379.20
696.88	377.25
697.22	375.40
697.56	373.56
697.89	371.61
698.23	369.77
698.56	367.87
698.90	366.03
699.23	364.10
699.57	362.32
699.90	360.54
700.24	358.75
700.58	356.94
700.91	355.22
701.25	353.55
701.58	351.95
701.92	350.37
702.25	348.82
702.59	347.31
702.92	345.82
703.26	344.33
703.59	342.86
703.93	341.47
704.26	340.01
704.60	338.50
704.93	337.05
705.26	335.55
705.60	334.21
705.93	332.86
706.27	331.63
706.60	330.37
706.94	329.13
707.27	327.82
707.61	326.62
707.94	325.38
708.27	324.08
708.61	322.83
708.94	321.65
709.28	320.48
709.61	319.33
709.94	318.20
710.28	316.95
710.61	315.78
710.95	314.54
711.28	313.42
711.61	312.31
711.95	311.26
712.28	310.17
712.61	309.03
712.95	307.93
713.28	306.91
713.61	305.89
713.95	304.82
714.28	303.87
714.61	302.83
714.95	301.89
715.28	300.93
715.61	299.91
715.95	298.93
716.28	297.89
716.61	296.89
716.95	295.89
717.28	295.01
717.61	294.11
717.94	293.24
718.28	292.39
718.61	291.52
718.94	290.67
719.27	289.91
719.61	289.12
719.94	288.33
720.27	287.49
720.60	286.70
720.94	286.00
721.27	285.27
721.60	284.63
721.93	283.93
722.27	283.30
722.60	282.63
722.93	281.94
723.26	281.35
723.59	280.68
723.93	280.08
724.26	279.45
724.59	278.83
724.92	278.25
725.25	277.66
725.59	277.09
725.92	276.52
726.25	275.93
726.58	275.40
726.91	274.86
727.24	274.33
727.57	273.83
727.91	273.20
728.24	272.63
728.57	272.05
728.90	271.46
729.23	270.89
729.56	270.37
729.89	269.88
730.22	269.28
730.55	268.74
730.89	268.23
731.22	267.69
731.55	267.16
731.88	266.65
732.21	266.09
732.54	265.60
732.87	265.09
733.20	264.61
733.53	264.11
733.86	263.68
734.19	263.19
734.52	262.71
734.85	262.35
735.18	261.89
735.51	261.45
735.84	261.09
736.17	260.65
736.50	260.18
736.83	259.88
737.16	259.50
737.49	259.11
737.82	258.72
738.15	258.32
738.48	257.92
738.81	257.52
739.14	257.16
739.47	256.74
739.80	256.40
740.13	256.04
740.46	255.68
740.79	255.26
741.12	254.91
741.45	254.52
741.78	254.10
742.11	253.79
742.44	253.40
742.77	253.02
743.10	252.68
743.43	252.34
743.75	251.88
744.08	251.69
744.41	251.37
744.74	251.04
745.07	250.75
745.40	250.47
745.73	250.18
746.06	249.85
746.39	249.53
746.71	249.20
747.04	248.89
747.37	248.59
747.70	248.30
748.03	247.99
748.36	247.75
748.68	247.47
749.01	247.16
749.34	246.92
749.67	246.63
750.00	246.37
750.33	246.18
750.65	245.93
750.98	245.54
751.31	245.31
751.64	245.05
751.97	244.82
752.29	244.53
752.62	244.26
752.95	244.04
753.28	243.82
753.60	243.61
753.93	243.38
754.26	243.13
754.59	242.90
754.91	242.65
755.24	242.41
755.57	242.21
755.90	242.01
756.22	241.77
756.55	241.58
756.88	241.34
757.20	241.09
757.53	240.88
757.86	240.69
758.19	240.50
758.51	240.29
758.84	240.06
759.17	239.90
759.49	239.73
759.82	239.56
760.15	239.41
760.47	239.23
760.80	239.04
761.13	238.91
761.45	238.72
761.78	238.58
762.11	238.46
762.43	238.29
762.76	238.09
763.08	237.95
763.41	237.80
763.74	237.68
764.06	237.52
764.39	237.36
764.71	237.23
765.04	237.09
765.37	236.97
765.69	236.84
766.02	236.69
766.34	236.54
766.67	236.40
767.00	236.28
767.32	236.18
767.65	236.11
767.97	235.98
768.30	235.91
768.62	235.77
768.95	235.63
769.27	235.51
769.60	235.44
769.92	235.33
770.25	235.18
770.57	235.02
770.90	234.92
771.22	234.83
771.55	234.73
771.87	234.63
772.20	234.53
772.52	234.52
772.85	234.56
773.17	234.44
773.50	234.31
773.82	234.20
774.15	234.03
774.47	233.89
774.80	233.77
775.12	233.63
775.45	233.55
775.77	233.47
776.09	233.39
776.42	233.27
776.74	233.19
777.07	233.16
777.39	233.08
777.72	232.98
778.04	232.91
778.36	232.80
778.69	232.72
779.01	232.63
779.33	232.41
779.66	232.18
779.98	232.10
780.31	232.01
780.63	231.97
780.95	231.91
781.28	231.83
781.60	231.77
781.92	231.68
782.25	231.61
782.57	231.52
782.89	231.43
783.22	231.32
783.54	231.22
783.86	231.12
784.19	231.03
784.51	230.96
784.83	230.86
785.16	230.77
785.48	230.70
785.80	230.63
786.12	230.59
786.45	230.52
786.77	230.49
787.09	230.45
787.42	230.33
787.74	230.30
788.06	230.22
788.38	230.14
788.71	230.09
789.03	230.05
789.35	230.03
789.67	229.95
789.99	229.93
790.32	229.87
790.64	229.84
790.96	229.89
791.28	229.79
791.61	229.76
791.93	229.73
792.25	229.70
792.57	229.70
792.89	229.65
793.21	229.66
793.54	229.56
793.86	229.50
794.18	229.47
794.50	229.37
794.82	229.33
795.14	229.29
795.47	229.26
795.79	229.20
796.11	229.09
796.43	229.08
796.75	229.05
797.07	229.02
797.39	228.95
797.71	228.86
798.04	228.86
798.36	228.81
798.68	228.75
799.00	228.71
799.32	228.64
799.64	228.60
799.96	228.55
800.28	228.56
800.60	228.54
800.92	228.52
801.24	228.50
801.56	228.49
801.89	228.46
802.21	228.43
802.53	228.36
802.85	228.38
803.17	228.37
803.49	228.33
803.81	228.30
804.13	228.25
804.45	228.20
804.77	228.17
805.09	228.14
805.41	228.12
805.73	228.08
806.05	228.03
806.37	228.02
806.69	227.96
807.01	227.91
807.33	227.88
807.65	227.81
807.97	227.82
808.28	227.80
808.60	227.78
808.92	227.74
809.24	227.77
809.56	227.72
809.88	227.65
810.20	227.60
810.52	227.59
810.84	227.56
811.16	227.51
811.48	227.47
811.80	227.49
812.12	227.43
812.43	227.39
812.75	227.36
813.07	227.31
813.39	227.31
813.71	227.29
814.03	227.24
814.35	227.21
814.67	227.15
814.98	227.08
815.30	227.05
815.62	227.01
815.94	226.92
816.26	226.90
816.58	226.87
816.89	226.86
817.21	226.80
817.53	226.78
817.85	226.76
818.17	226.73
818.48	226.65
818.80	226.64
819.12	226.61
819.44	226.57
819.76	226.56
820.07	226.51
820.39	226.46
820.71	226.46
821.03	226.48
821.34	226.43
821.66	226.44
821.98	226.44
822.30	226.39
822.61	226.45
822.93	226.40
823.25	226.38
823.57	226.36
823.88	226.39
824.20	226.36
824.52	226.34
824.83	226.34
825.15	226.33
825.47	226.30
825.79	226.27
826.10	226.24
826.42	226.20
826.74	226.19
827.05	226.18
827.37	226.16
827.69	226.08
828.00	226.09
828.32	226.07
828.64	226.03
828.95	226.10
829.27	226.04
829.58	226.05
829.90	226.05
830.22	226.03
830.53	225.96
830.85	225.96
831.17	225.94
831.48	225.92
831.80	225.91
832.11	225.91
832.43	225.88
832.75	225.89
833.06	225.95
833.38	225.92
833.69	225.90
834.01	225.91
834.32	225.90
834.64	225.90
834.96	225.89
835.27	225.89
835.59	225.85
835.90	225.83
836.22	225.81
836.53	225.79
836.85	225.80
837.16	225.91
837.48	225.89
837.79	225.90
838.11	225.92
838.42	225.94
838.74	225.94
839.05	225.97
839.37	225.97
839.68	225.92
840.00	225.93
840.31	225.95
840.63	225.90
840.94	225.92
841.26	225.89
841.57	225.86
841.88	225.88
842.20	225.86
842.51	225.86
842.83	225.86
843.14	225.96
843.46	225.95
843.77	225.88
844.08	225.92
844.40	225.89
844.71	225.88
845.03	225.84
845.34	225.86
845.65	225.87
845.97	225.87
846.28	225.87
846.60	225.87
846.91	225.86
847.22	225.88
847.54	225.89
847.85	225.91
848.16	225.94
848.48	225.92
848.79	225.97
849.10	225.97
849.42	225.95
849.73	225.84
850.04	225.84
850.36	225.81
850.67	225.81
850.98	225.80
851.30	225.82
851.61	225.84
851.92	225.81
852.23	225.83
852.55	225.82
852.86	225.82
853.17	225.80
853.49	225.84
853.80	225.84
854.11	225.85
854.42	225.84
854.74	225.82
855.05	225.81
855.36	225.76
855.67	225.77
855.99	225.77
856.30	225.87
856.61	225.87
856.92	225.89
857.23	225.86
857.55	225.88
857.86	225.86
858.17	225.87
858.48	225.86
858.79	225.83
859.11	225.83
859.42	225.85
859.73	225.84
860.04	225.82
860.35	225.80
860.66	225.75
860.98	225.77
861.29	225.78
861.60	225.78
861.91	225.78
862.22	225.74
862.53	225.77
862.84	225.68
863.16	225.69
863.47	225.65
863.78	225.63
864.09	225.64
864.40	225.60
864.71	225.57
865.02	225.59
865.33	225.58
865.64	225.57
865.95	225.56
866.27	225.63
866.58	225.61
866.89	225.63
867.20	225.65
867.51	225.61
867.82	225.58
868.13	225.60
868.44	225.59
868.75	225.63
869.06	225.61
869.37	225.60
869.68	225.56
869.99	225.60
870.30	225.61
870.61	225.58
870.92	225.62
871.23	225.59
871.54	225.61
871.85	225.61
872.16	225.61
872.47	225.61
872.78	225.53
873.09	225.52
873.40	225.50
873.71	225.51
874.02	225.52
874.33	225.56
874.64	225.53
874.95	225.55
875.26	225.51
875.56	225.53
875.87	225.52
876.18	225.54
876.49	225.64
876.80	225.64
877.11	225.65
877.42	225.65
877.73	225.68
878.04	225.66
878.35	225.65
878.66	225.66
878.96	225.65
879.27	225.65
879.58	225.65
879.89	225.63
880.20	225.65
880.51	225.64
880.82	225.62
881.12	225.60
881.43	225.57
881.74	225.57
882.05	225.54
882.36	225.56
882.67	225.57
882.97	225.44
883.28	225.44
883.59	225.42
883.90	225.43
884.21	225.43
884.51	225.43
884.82	225.42
885.13	225.41
885.44	225.39
885.74	225.38
886.05	225.38
886.36	225.39
886.67	225.36
886.98	225.39
887.28	225.39
887.59	225.38
887.90	225.39
888.20	225.38
888.51	225.39
888.82	225.39
889.13	225.37
889.43	225.45
889.74	225.43
890.05	225.42
890.35	225.41
890.66	225.40
890.97	225.38
891.28	225.37
891.58	225.38
891.89	225.38
892.20	225.35
892.50	225.33
892.81	225.33
893.12	225.34
893.42	225.29
893.73	225.27
894.04	225.27
894.34	225.24
894.65	225.19
894.95	225.17
895.26	225.16
895.57	225.18
895.87	225.06
896.18	225.06
896.48	225.07
896.79	225.05
897.10	225.06
897.40	225.04
897.71	225.04
898.01	225.03
898.32	225.07
898.63	225.07
898.93	225.09
899.24	225.07
899.54	225.05
899.85	225.07
900.15	225.08
900.46	225.12
900.76	225.18
901.07	225.21
901.38	225.23
901.68	225.21
901.99	225.16
902.29	225.18
902.60	225.14
902.90	225.13
903.21	225.14
903.51	225.12
903.82	225.15
904.12	225.17
904.43	225.15
904.73	225.11
905.03	225.16
905.34	225.22
905.64	225.22
905.95	225.23
906.25	225.24
906.56	225.22
906.86	225.18
907.17	225.15
907.47	225.15
907.77	225.12
908.08	225.12
908.38	225.15
908.69	225.15
908.99	225.20
909.30	225.18
909.60	225.15
909.90	225.15
910.21	225.13
910.51	225.10
910.81	225.10
911.12	225.11
911.42	225.08
911.73	225.01
912.03	225.03
912.33	225.05
912.64	225.03
912.94	225.06
913.24	225.06
913.55	225.03
913.85	225.03
914.15	225.07
914.46	225.09
914.76	225.08
915.06	225.09
915.37	225.10
915.67	225.10
915.97	225.11
916.27	225.11
916.58	225.11
916.88	225.12
917.18	225.14
917.49	225.25
917.79	225.23
918.09	225.23
918.39	225.23
918.70	225.22
919.00	225.21
919.30	225.25
919.60	225.22
919.91	225.22
920.21	225.28
920.51	225.25
920.81	225.23
921.12	225.24
921.42	225.23
921.72	225.23
922.02	225.28
922.32	225.29
922.63	225.27
922.93	225.32
923.23	225.28
923.53	225.27
923.83	225.19
924.13	225.22
924.44	225.22
924.74	225.24
925.04	225.26
925.34	225.29
925.64	225.20
925.94	225.24
926.24	225.28
926.55	225.23
926.85	225.23
927.15	225.23
927.45	225.22
927.75	225.22
928.05	225.19
928.35	225.14
928.65	225.14
928.95	225.15
929.26	225.11
929.56	225.14
929.86	225.14
930.16	225.15
930.46	225.12
930.76	225.13
931.06	225.07
931.36	225.00
931.66	224.97
931.96	225.00
932.26	225.00
932.56	224.97
932.86	224.95
933.16	224.93
933.46	224.90
933.76	224.91
934.06	224.94
934.36	224.97
934.66	224.95
934.96	224.94
935.26	224.97
935.56	224.97
935.86	224.96
936.16	224.94
936.46	224.88
936.76	224.87
937.06	224.85
937.36	224.87
937.66	224.90
937.96	224.93
938.26	224.96
938.56	224.92
938.86	224.91
939.16	224.95
939.46	224.97
939.76	225.00
940.06	224.98
940.35	224.94
940.65	224.90
940.95	224.93
941.25	224.89
941.55	224.89
941.85	224.90
942.15	224.90
942.45	224.91
942.75	224.95
943.04	224.93
943.34	224.98
943.64	225.00
943.94	224.99
944.24	224.94
944.54	224.90
944.84	224.92
945.13	224.90
945.43	224.89
945.73	224.90
946.03	224.89
946.33	224.89
946.62	224.89
946.92	224.90
947.22	224.93
947.52	224.94
947.82	224.92
948.11	224.91
948.41	224.87
948.71	224.86
949.01	224.86
949.31	224.88
949.60	224.85
949.90	224.85
950.20	224.87
950.50	224.88
950.79	224.87
951.09	224.90
951.39	224.92
951.69	224.95
951.98	224.97
952.28	225.01
952.58	225.02
952.87	225.01
953.17	225.03
953.47	225.00
953.76	225.04
954.06	225.03
954.36	225.01
954.66	225.04
954.95	225.07
955.25	225.08
955.55	225.10
955.84	225.08
956.14	225.06
956.44	225.06
956.73	225.09
957.03	225.12
957.32	225.09
957.62	225.06
957.92	225.04
958.21	225.02
958.51	225.13
958.81	225.11
959.10	225.11
959.40	225.12
959.69	225.15
959.99	225.15
960.29	225.14
960.58	225.16
960.88	225.20
961.17	225.20
961.47	225.22
961.76	225.20
962.06	225.20
962.36	225.20
962.65	225.22
962.95	225.22
963.24	225.21
963.54	225.21
963.83	225.26
964.13	225.27
964.42	225.23
964.72	225.11
965.01	225.15
965.31	225.16
965.60	225.12
965.90	225.15
966.19	225.13
966.49	225.16
966.78	225.13
967.08	225.13
967.37	225.12
967.67	225.07
967.96	225.11
968.26	225.09
968.55	225.11
968.85	225.08
969.14	225.03
969.43	225.02
969.73	224.98
970.02	224.93
970.32	224.90
970.61	224.92
970.91	224.89
971.20	224.85
971.49	224.82
971.79	224.83
972.08	224.76
972.38	224.76
972.67	224.76
972.96	224.78
973.26	224.72
973.55	224.74
973.85	224.74
974.14	224.70
974.43	224.74
974.73	224.70
975.02	224.70
975.31	224.71
975.61	224.70
975.90	224.75
976.19	224.76
976.49	224.78
976.78	224.74
977.07	224.74
977.37	224.75
977.66	224.77
977.95	224.75
978.24	224.75
978.54	224.76
978.83	224.75
979.12	224.76
979.42	224.80
979.71	224.78
980.00	224.78
980.29	224.79
980.59	224.74
980.88	224.75
981.17	224.73
981.46	224.70
981.76	224.72
982.05	224.70
982.34	224.71
982.63	224.70
982.93	224.72
983.22	224.73
983.51	224.73
983.80	224.71
984.09	224.71
984.39	224.71
984.68	224.68
984.97	224.67
985.26	224.65
985.55	224.64
985.85	224.62
986.14	224.60
986.43	224.61
986.72	224.60
987.01	224.57
987.30	224.57
987.59	224.61
987.89	224.57
988.18	224.54
988.47	224.50
988.76	224.49
989.05	224.48
989.34	224.44
989.63	224.46
989.92	224.48
990.22	224.46
990.51	224.48
990.80	224.49
991.09	224.45
991.38	224.47
991.67	224.42
991.96	224.38
992.25	224.40
992.54	224.37
992.83	224.38
993.12	224.37
993.41	224.36
993.70	224.40
993.99	224.43
994.28	224.43
994.58	224.47
994.87	224.45
995.16	224.43
995.45	224.44
995.74	224.39
996.03	224.37
996.32	224.39
996.61	224.36
996.90	224.37
997.19	224.37
997.48	224.35
997.77	224.38
998.06	224.40
998.34	224.38
998.63	224.39
998.92	224.42
999.21	224.44
999.50	224.48
999.79	224.42
1000.08	224.41
1000.37	224.41
1000.66	224.40
1000.95	224.41
1001.24	224.42
1001.53	224.50
1001.82	224.52
1002.11	224.51
1002.40	224.52
1002.68	224.54
1002.97	224.56
1003.26	224.56
1003.55	224.55
1003.84	224.57
1004.13	224.57
1004.42	224.61
1004.71	224.63
1004.99	224.59
1005.28	224.64
1005.57	224.62
1005.86	224.65
1006.15	224.68
1006.44	224.66
1006.72	224.66
1007.01	224.69
1007.30	224.72
1007.59	224.64
1007.88	224.64
1008.17	224.63
1008.45	224.64
1008.74	224.61
1009.03	224.58
1009.32	224.60
1009.60	224.61
1009.89	224.61
1010.18	224.61
1010.47	224.57
1010.76	224.54
1011.04	224.55
1011.33	224.54
1011.62	224.54
1011.91	224.50
1012.19	224.51
1012.48	224.52
1012.77	224.50
1013.05	224.53
1013.34	224.53
1013.63	224.52
1013.92	224.54
1014.20	224.55
1014.49	224.55
1014.78	224.54
1015.06	224.51
1015.35	224.51
1015.64	224.53
1015.92	224.55
1016.21	224.55
1016.50	224.57
1016.78	224.60
1017.07	224.59
1017.36	224.58
1017.64	224.59
1017.93	224.59
1018.22	224.56
1018.50	224.59
1018.79	224.60
1019.08	224.56
1019.36	224.55
1019.65	224.57
1019.93	224.56
1020.22	224.58
1020.51	224.65
1020.79	224.67
1021.08	224.57
1021.36	224.76
1021.65	224.53
1021.94	224.48
1022.22	224.45
1022.51	224.64
1022.79	224.69
1023.08	224.93
1023.36	226.26
1023.65	224.45
>>>>>End Processed Spectral Data<<<<<
