SpectraSuite Data File
++++++++++++++++++++++++++++++++++++
Date: Fri Feb 01 16:22:38 EST 2013
User: group
Dark Spectrum Present: No
Reference Spectrum Present: No
Number of Sampled Component Spectra: 1
Spectrometers: USB2E7196
Integration Time (usec): 35000 (USB2E7196)
Spectra Averaged: 100 (USB2E7196)
Boxcar Smoothing: 10 (USB2E7196)
Correct for Electrical Dark: No (USB2E7196)
Strobe/Lamp Enabled: No (USB2E7196)
Correct for Detector Non-linearity: No (USB2E7196)
Correct for Stray Light: No (USB2E7196)
Number of Pixels in Processed Spectrum: 2048
>>>>>Begin Processed Spectral Data<<<<<
339.09	0.00
339.48	213.98
339.86	215.20
340.24	217.14
340.63	218.07
341.01	220.86
341.39	221.41
341.78	222.31
342.16	222.98
342.54	223.83
342.93	212.30
343.31	223.04
343.69	223.60
344.07	224.07
344.46	224.50
344.84	224.91
345.22	225.18
345.60	225.40
345.99	225.55
346.37	225.72
346.75	225.82
347.13	225.96
347.52	226.02
347.90	226.10
348.28	226.12
348.66	226.17
349.05	226.18
349.43	226.24
349.81	226.29
350.19	226.32
350.57	226.41
350.96	226.47
351.34	226.56
351.72	226.62
352.10	226.73
352.48	226.79
352.87	226.82
353.25	226.86
353.63	226.92
354.01	227.02
354.39	227.08
354.77	227.16
355.15	227.24
355.54	227.32
355.92	227.35
356.30	227.44
356.68	227.58
357.06	227.65
357.44	227.72
357.82	227.80
358.20	227.90
358.58	227.97
358.97	228.06
359.35	228.14
359.73	228.22
360.11	228.26
360.49	228.31
360.87	228.36
361.25	228.43
361.63	228.51
362.01	228.57
362.39	228.63
362.77	228.67
363.15	228.69
363.53	228.70
363.91	228.73
364.29	228.76
364.67	228.67
365.05	228.68
365.43	228.69
365.81	228.70
366.19	228.72
366.57	228.77
366.95	228.74
367.33	228.72
367.71	228.74
368.09	228.73
368.47	228.74
368.85	228.73
369.23	228.73
369.61	228.68
369.99	228.68
370.37	228.64
370.75	228.66
371.13	228.62
371.51	228.57
371.89	228.57
372.27	228.53
372.65	228.47
373.03	228.43
373.41	228.36
373.78	228.29
374.16	228.20
374.54	228.09
374.92	228.03
375.30	227.97
375.68	227.84
376.06	227.80
376.44	227.68
376.82	227.62
377.19	227.52
377.57	227.46
377.95	227.35
378.33	227.30
378.71	227.16
379.09	227.09
379.47	227.06
379.84	226.95
380.22	226.86
380.60	226.79
380.98	226.74
381.36	226.65
381.73	226.59
382.11	226.56
382.49	226.48
382.87	226.41
383.25	226.33
383.62	226.40
384.00	226.33
384.38	226.31
384.76	226.31
385.13	226.30
385.51	226.22
385.89	226.19
386.27	226.11
386.64	226.08
387.02	226.00
387.40	225.91
387.78	225.87
388.15	225.88
388.53	225.85
388.91	225.79
389.29	225.79
389.66	225.76
390.04	225.71
390.42	225.73
390.79	225.71
391.17	225.69
391.55	225.58
391.92	225.56
392.30	225.55
392.68	225.51
393.05	225.46
393.43	225.49
393.81	225.50
394.18	225.50
394.56	225.53
394.94	225.58
395.31	225.63
395.69	225.68
396.06	225.69
396.44	225.72
396.82	225.75
397.19	225.85
397.57	225.88
397.95	225.93
398.32	225.93
398.70	225.98
399.07	226.06
399.45	226.12
399.82	226.18
400.20	226.25
400.58	226.31
400.95	226.38
401.33	226.46
401.70	226.60
402.08	226.69
402.45	226.79
402.83	226.88
403.20	226.98
403.58	227.08
403.95	227.21
404.33	227.33
404.71	227.45
405.08	227.63
405.46	227.80
405.83	227.94
406.21	228.15
406.58	228.31
406.96	228.46
407.33	228.62
407.70	228.82
408.08	229.09
408.45	229.31
408.83	229.57
409.20	229.76
409.58	229.91
409.95	230.23
410.33	230.50
410.70	230.77
411.08	231.04
411.45	231.32
411.82	231.64
412.20	231.99
412.57	232.41
412.95	232.71
413.32	233.13
413.69	233.52
414.07	233.97
414.44	234.44
414.82	234.91
415.19	235.44
415.56	236.00
415.94	236.50
416.31	237.16
416.68	237.75
417.06	238.52
417.43	239.25
417.81	239.94
418.18	240.69
418.55	241.54
418.93	242.43
419.30	243.36
419.67	244.28
420.04	245.24
420.42	246.22
420.79	247.37
421.16	248.47
421.54	249.71
421.91	250.89
422.28	252.14
422.66	253.48
423.03	254.80
423.40	256.12
423.77	257.54
424.15	258.92
424.52	260.41
424.89	262.01
425.26	263.55
425.64	265.05
426.01	266.65
426.38	268.28
426.75	269.97
427.13	271.66
427.50	273.45
427.87	275.33
428.24	277.19
428.61	278.92
428.99	280.89
429.36	282.98
429.73	285.01
430.10	287.05
430.47	289.14
430.85	291.25
431.22	293.45
431.59	295.85
431.96	298.12
432.33	300.60
432.70	302.94
433.08	305.75
433.45	308.35
433.82	310.91
434.19	313.80
434.56	316.55
434.93	319.21
435.30	321.83
435.68	324.65
436.05	327.48
436.42	330.26
436.79	332.74
437.16	335.35
437.53	338.18
437.90	340.93
438.27	343.62
438.64	346.40
439.01	349.02
439.38	351.17
439.75	353.28
440.13	355.73
440.50	358.02
440.87	359.81
441.24	361.70
441.61	363.89
441.98	365.38
442.35	367.20
442.72	369.05
443.09	370.84
443.46	371.85
443.83	372.36
444.20	372.85
444.57	373.68
444.94	374.02
445.31	374.32
445.68	374.70
446.05	374.75
446.42	374.41
446.79	373.98
447.16	373.54
447.53	373.26
447.90	372.12
448.27	371.00
448.64	369.45
449.01	368.34
449.37	366.36
449.74	364.43
450.11	362.18
450.48	359.71
450.85	357.21
451.22	355.07
451.59	353.13
451.96	351.19
452.33	348.58
452.70	346.21
453.07	343.43
453.43	340.54
453.80	337.79
454.17	335.11
454.54	332.57
454.91	329.90
455.28	327.23
455.65	324.75
456.02	322.29
456.38	320.14
456.75	317.50
457.12	315.23
457.49	313.04
457.86	310.88
458.23	309.04
458.59	306.95
458.96	304.92
459.33	303.06
459.70	301.21
460.07	299.78
460.43	298.11
460.80	296.47
461.17	295.03
461.54	293.58
461.91	292.15
462.27	290.73
462.64	289.49
463.01	288.17
463.38	286.90
463.74	285.57
464.11	284.42
464.48	283.44
464.85	282.36
465.21	281.51
465.58	280.62
465.95	279.53
466.32	278.65
466.68	277.74
467.05	276.87
467.42	276.02
467.78	275.08
468.15	274.22
468.52	273.57
468.88	272.70
469.25	271.91
469.62	271.31
469.98	270.64
470.35	269.99
470.72	269.41
471.08	268.73
471.45	268.19
471.82	267.66
472.18	267.04
472.55	266.62
472.92	266.11
473.28	265.67
473.65	265.23
474.02	264.80
474.38	264.46
474.75	264.11
475.11	263.76
475.48	263.47
475.85	263.21
476.21	262.96
476.58	262.81
476.94	262.70
477.31	262.57
477.67	262.40
478.04	262.30
478.41	262.27
478.77	262.32
479.14	262.26
479.50	262.26
479.87	262.35
480.23	262.44
480.60	262.50
480.96	262.56
481.33	262.77
481.69	262.97
482.06	263.16
482.42	263.39
482.79	263.66
483.15	264.00
483.52	264.44
483.88	264.81
484.25	265.21
484.61	265.61
484.98	266.04
485.34	266.66
485.71	267.29
486.07	267.90
486.44	268.46
486.80	269.18
487.17	269.90
487.53	270.71
487.90	271.57
488.26	272.48
488.62	273.48
488.99	274.45
489.35	275.49
489.72	276.63
490.08	277.82
490.44	279.04
490.81	280.35
491.17	281.65
491.54	283.15
491.90	284.65
492.26	286.27
492.63	287.99
492.99	289.70
493.36	291.56
493.72	293.60
494.08	295.73
494.45	298.00
494.81	300.38
495.17	302.82
495.54	305.36
495.90	308.11
496.26	310.94
496.63	313.92
496.99	317.07
497.35	320.34
497.72	323.76
498.08	327.29
498.44	330.96
498.80	334.89
499.17	338.96
499.53	343.21
499.89	347.65
500.26	352.19
500.62	356.88
500.98	361.83
501.34	366.88
501.71	372.19
502.07	377.62
502.43	383.27
502.79	389.02
503.16	395.08
503.52	401.34
503.88	407.79
504.24	414.41
504.60	421.30
504.97	428.40
505.33	435.70
505.69	443.41
506.05	451.22
506.41	459.10
506.78	467.22
507.14	475.65
507.50	484.35
507.86	493.36
508.22	502.55
508.59	511.81
508.95	521.44
509.31	531.34
509.67	541.50
510.03	551.80
510.39	562.43
510.75	573.21
511.12	584.14
511.48	595.36
511.84	606.89
512.20	618.43
512.56	630.38
512.92	642.56
513.28	654.92
513.64	667.38
514.00	680.13
514.37	693.07
514.73	706.12
515.09	719.13
515.45	732.43
515.81	746.01
516.17	759.96
516.53	774.05
516.89	788.12
517.25	802.24
517.61	816.67
517.97	831.12
518.33	845.51
518.69	860.17
519.05	875.18
519.41	890.22
519.77	905.71
520.13	921.10
520.49	936.42
520.85	951.80
521.21	967.49
521.57	983.70
521.93	999.38
522.29	1015.69
522.65	1031.93
523.01	1048.14
523.37	1064.14
523.73	1080.32
524.09	1096.40
524.45	1112.68
524.81	1129.19
525.17	1145.89
525.53	1162.75
525.89	1179.71
526.25	1196.52
526.61	1212.88
526.97	1229.53
527.33	1245.88
527.68	1262.48
528.04	1279.01
528.40	1295.47
528.76	1312.44
529.12	1329.00
529.48	1345.92
529.84	1361.98
530.20	1378.56
530.56	1395.38
530.91	1412.70
531.27	1429.22
531.63	1445.51
531.99	1462.06
532.35	1478.05
532.71	1493.88
533.07	1509.98
533.42	1525.84
533.78	1541.85
534.14	1558.02
534.50	1573.48
534.86	1589.28
535.21	1604.38
535.57	1620.10
535.93	1635.68
536.29	1650.45
536.65	1665.36
537.00	1679.94
537.36	1694.94
537.72	1709.26
538.08	1723.70
538.44	1737.46
538.79	1751.48
539.15	1765.28
539.51	1778.99
539.87	1793.32
540.22	1806.89
540.58	1820.68
540.94	1833.75
541.29	1846.43
541.65	1859.03
542.01	1872.10
542.37	1884.34
542.72	1896.69
543.08	1908.44
543.44	1920.64
543.79	1931.77
544.15	1942.67
544.51	1954.12
544.87	1965.18
545.22	1975.99
545.58	1986.13
545.94	1995.74
546.29	2005.46
546.65	2015.19
547.01	2024.39
547.36	2032.89
547.72	2041.30
548.07	2048.92
548.43	2057.07
548.79	2065.22
549.14	2072.74
549.50	2080.01
549.86	2087.73
550.21	2094.97
550.57	2102.11
550.92	2108.67
551.28	2115.72
551.64	2122.75
551.99	2129.24
552.35	2135.36
552.70	2141.55
553.06	2147.42
553.41	2153.83
553.77	2159.78
554.13	2165.65
554.48	2171.67
554.84	2177.19
555.19	2182.51
555.55	2187.65
555.90	2192.06
556.26	2196.95
556.61	2201.66
556.97	2205.97
557.32	2209.98
557.68	2214.14
558.03	2218.40
558.39	2222.00
558.74	2226.74
559.10	2230.63
559.45	2234.30
559.81	2238.62
560.16	2242.52
560.52	2245.82
560.87	2249.20
561.23	2251.93
561.58	2254.99
561.94	2257.49
562.29	2259.79
562.64	2262.48
563.00	2265.19
563.35	2268.77
563.71	2271.84
564.06	2275.01
564.42	2277.80
564.77	2280.39
565.12	2282.61
565.48	2284.65
565.83	2286.70
566.19	2287.87
566.54	2288.77
566.89	2289.95
567.25	2290.52
567.60	2291.68
567.96	2293.44
568.31	2294.25
568.66	2295.43
569.02	2295.96
569.37	2296.30
569.72	2297.18
570.08	2297.49
570.43	2297.53
570.78	2296.91
571.14	2295.49
571.49	2294.18
571.84	2293.82
572.20	2292.84
572.55	2291.84
572.90	2290.21
573.26	2288.90
573.61	2287.22
573.96	2285.43
574.31	2282.66
574.67	2279.73
575.02	2276.23
575.37	2272.86
575.72	2269.24
576.08	2265.76
576.43	2262.55
576.78	2258.89
577.13	2255.79
577.49	2252.67
577.84	2249.32
578.19	2245.78
578.54	2242.36
578.90	2238.35
579.25	2232.93
579.60	2227.75
579.95	2222.78
580.30	2217.79
580.66	2212.57
581.01	2207.66
581.36	2202.90
581.71	2198.71
582.06	2194.44
582.42	2189.96
582.77	2184.76
583.12	2180.19
583.47	2175.68
583.82	2170.76
584.17	2165.61
584.53	2160.11
584.88	2154.57
585.23	2148.83
585.58	2143.23
585.93	2137.62
586.28	2132.77
586.63	2127.79
586.98	2123.05
587.34	2118.32
587.69	2113.49
588.04	2108.17
588.39	2102.56
588.74	2096.07
589.09	2089.87
589.44	2083.01
589.79	2077.13
590.14	2071.67
590.49	2065.14
590.84	2058.77
591.19	2052.83
591.54	2046.42
591.89	2039.13
592.25	2032.27
592.60	2024.98
592.95	2017.59
593.30	2010.20
593.65	2002.58
594.00	1995.55
594.35	1988.27
594.70	1980.45
595.05	1973.35
595.40	1966.25
595.75	1958.91
596.10	1952.91
596.45	1946.37
596.80	1940.30
597.15	1933.59
597.50	1926.45
597.85	1920.06
598.19	1913.53
598.54	1906.42
598.89	1899.85
599.24	1894.07
599.59	1887.54
599.94	1881.52
600.29	1875.26
600.64	1868.78
600.99	1861.49
601.34	1854.76
601.69	1847.88
602.04	1840.99
602.39	1833.68
602.74	1826.91
603.08	1820.20
603.43	1813.48
603.78	1806.14
604.13	1798.90
604.48	1791.64
604.83	1784.86
605.18	1777.93
605.53	1769.95
605.87	1761.94
606.22	1754.73
606.57	1746.77
606.92	1739.43
607.27	1732.31
607.62	1725.44
607.96	1718.28
608.31	1711.67
608.66	1703.99
609.01	1696.58
609.36	1689.12
609.70	1681.19
610.05	1673.22
610.40	1665.56
610.75	1657.21
611.10	1649.55
611.44	1641.13
611.79	1633.26
612.14	1624.52
612.49	1615.38
612.83	1606.95
613.18	1598.83
613.53	1590.81
613.88	1582.31
614.22	1574.00
614.57	1565.31
614.92	1557.18
615.27	1549.56
615.61	1541.23
615.96	1533.17
616.31	1525.45
616.65	1517.97
617.00	1510.21
617.35	1502.40
617.70	1494.00
618.04	1485.43
618.39	1477.23
618.74	1469.63
619.08	1461.24
619.43	1453.60
619.78	1446.72
620.12	1439.53
620.47	1432.10
620.82	1423.87
621.16	1416.38
621.51	1408.75
621.85	1401.14
622.20	1392.58
622.55	1384.13
622.89	1376.23
623.24	1368.62
623.59	1361.13
623.93	1353.63
624.28	1346.50
624.62	1338.98
624.97	1331.80
625.32	1324.99
625.66	1317.92
626.01	1310.81
626.35	1303.45
626.70	1295.70
627.04	1288.02
627.39	1280.25
627.73	1272.73
628.08	1265.82
628.43	1258.59
628.77	1251.19
629.12	1243.66
629.46	1236.45
629.81	1229.07
630.15	1221.87
630.50	1214.47
630.84	1206.20
631.19	1198.27
631.53	1190.74
631.88	1183.19
632.22	1175.52
632.57	1168.22
632.91	1160.68
633.26	1153.09
633.60	1145.65
633.95	1138.49
634.29	1131.43
634.64	1124.72
634.98	1117.47
635.32	1110.25
635.67	1103.63
636.01	1097.02
636.36	1090.18
636.70	1083.68
637.05	1077.18
637.39	1070.67
637.73	1064.17
638.08	1058.30
638.42	1052.28
638.77	1045.89
639.11	1039.26
639.45	1032.87
639.80	1026.21
640.14	1019.80
640.49	1013.48
640.83	1007.18
641.17	1001.01
641.52	994.59
641.86	988.10
642.20	982.18
642.55	975.84
642.89	969.32
643.23	962.74
643.58	956.96
643.92	950.76
644.26	944.70
644.61	938.70
644.95	932.69
645.29	926.15
645.64	919.42
645.98	913.05
646.32	907.27
646.66	901.25
647.01	895.46
647.35	889.74
647.69	883.81
648.04	878.28
648.38	872.43
648.72	866.47
649.06	860.40
649.41	854.45
649.75	848.53
650.09	842.66
650.43	837.01
650.78	830.86
651.12	824.89
651.46	819.13
651.80	813.45
652.14	808.06
652.49	802.69
652.83	797.52
653.17	791.77
653.51	786.05
653.85	780.64
654.20	775.04
654.54	769.07
654.88	763.30
655.22	757.36
655.56	751.78
655.90	746.27
656.25	741.05
656.59	735.68
656.93	730.56
657.27	725.34
657.61	719.81
657.95	714.75
658.29	709.68
658.64	704.38
658.98	698.97
659.32	693.48
659.66	688.29
660.00	682.87
660.34	678.02
660.68	673.04
661.02	668.10
661.36	663.34
661.70	658.84
662.05	654.47
662.39	650.12
662.73	645.57
663.07	641.19
663.41	636.75
663.75	632.26
664.09	627.73
664.43	623.43
664.77	619.36
665.11	615.07
665.45	610.95
665.79	606.87
666.13	602.71
666.47	598.62
666.81	594.46
667.15	590.38
667.49	586.46
667.83	582.63
668.17	578.60
668.51	574.56
668.85	570.47
669.19	566.63
669.53	562.85
669.87	558.97
670.21	555.27
670.55	551.59
670.89	548.23
671.23	544.81
671.57	541.18
671.91	537.59
672.25	534.00
672.58	530.46
672.92	527.03
673.26	523.92
673.60	520.72
673.94	517.58
674.28	514.72
674.62	511.73
674.96	508.63
675.30	505.75
675.64	502.78
675.97	499.97
676.31	497.06
676.65	494.11
676.99	491.41
677.33	488.56
677.67	485.73
678.01	482.68
678.34	479.70
678.68	476.86
679.02	474.09
679.36	471.38
679.70	468.67
680.04	465.93
680.37	462.99
680.71	460.22
681.05	457.62
681.39	454.87
681.73	452.21
682.06	449.69
682.40	447.10
682.74	444.55
683.08	442.00
683.42	439.40
683.75	436.91
684.09	434.32
684.43	431.81
684.77	429.39
685.10	426.95
685.44	424.59
685.78	422.28
686.12	419.95
686.45	417.65
686.79	415.32
687.13	413.10
687.46	410.99
687.80	408.79
688.14	406.56
688.48	404.50
688.81	402.26
689.15	400.12
689.49	397.97
689.82	395.92
690.16	393.86
690.50	391.90
690.83	389.98
691.17	388.02
691.51	386.16
691.84	384.29
692.18	382.43
692.52	380.47
692.85	378.54
693.19	376.72
693.52	374.87
693.86	373.06
694.20	371.29
694.53	369.44
694.87	367.61
695.21	365.81
695.54	363.98
695.88	362.26
696.21	360.56
696.55	358.90
696.88	357.19
697.22	355.55
697.56	353.99
697.89	352.33
698.23	350.75
698.56	349.12
698.90	347.49
699.23	345.82
699.57	344.27
699.90	342.68
700.24	341.12
700.58	339.59
700.91	338.10
701.25	336.69
701.58	335.37
701.92	334.07
702.25	332.70
702.59	331.32
702.92	329.96
703.26	328.63
703.59	327.37
703.93	326.18
704.26	324.91
704.60	323.56
704.93	322.25
705.26	320.96
705.60	319.78
705.93	318.67
706.27	317.60
706.60	316.53
706.94	315.50
707.27	314.38
707.61	313.30
707.94	312.27
708.27	311.12
708.61	310.01
708.94	308.96
709.28	307.96
709.61	307.03
709.94	306.09
710.28	305.06
710.61	304.03
710.95	302.96
711.28	302.02
711.61	301.09
711.95	300.17
712.28	299.24
712.61	298.24
712.95	297.28
713.28	296.42
713.61	295.49
713.95	294.57
714.28	293.72
714.61	292.87
714.95	292.04
715.28	291.19
715.61	290.30
715.95	289.40
716.28	288.53
716.61	287.67
716.95	286.85
717.28	286.06
717.61	285.28
717.94	284.55
718.28	283.75
718.61	283.01
718.94	282.30
719.27	281.62
719.61	280.97
719.94	280.30
720.27	279.60
720.60	278.92
720.94	278.30
721.27	277.65
721.60	277.07
721.93	276.40
722.27	275.86
722.60	275.31
722.93	274.77
723.26	274.28
723.59	273.69
723.93	273.12
724.26	272.61
724.59	272.07
724.92	271.54
725.25	271.04
725.59	270.52
725.92	270.02
726.25	269.54
726.58	269.05
726.91	268.57
727.24	268.11
727.57	267.66
727.91	267.15
728.24	266.73
728.57	266.23
728.90	265.84
729.23	265.36
729.56	264.93
729.89	264.47
730.22	263.93
730.55	263.48
730.89	263.11
731.22	262.67
731.55	262.27
731.88	261.85
732.21	261.46
732.54	261.05
732.87	260.65
733.20	260.25
733.53	259.88
733.86	259.51
734.19	259.11
734.52	258.78
734.85	258.48
735.18	258.08
735.51	257.73
735.84	257.35
736.17	257.04
736.50	256.67
736.83	256.45
737.16	256.16
737.49	255.83
737.82	255.47
738.15	255.14
738.48	254.81
738.81	254.54
739.14	254.19
739.47	253.88
739.80	253.58
740.13	253.30
740.46	252.95
740.79	252.64
741.12	252.34
741.45	252.02
741.78	251.70
742.11	251.43
742.44	251.10
742.77	250.83
743.10	250.49
743.43	250.19
743.75	249.80
744.08	249.67
744.41	249.40
744.74	249.15
745.07	248.86
745.40	248.59
745.73	248.33
746.06	248.06
746.39	247.78
746.71	247.49
747.04	247.18
747.37	246.92
747.70	246.66
748.03	246.41
748.36	246.17
748.68	245.93
749.01	245.68
749.34	245.48
749.67	245.23
750.00	245.02
750.33	244.87
750.65	244.64
750.98	244.30
751.31	244.08
751.64	243.84
751.97	243.67
752.29	243.46
752.62	243.18
752.95	242.97
753.28	242.76
753.60	242.56
753.93	242.41
754.26	242.23
754.59	242.05
754.91	241.82
755.24	241.61
755.57	241.38
755.90	241.16
756.22	240.99
756.55	240.77
756.88	240.57
757.20	240.31
757.53	240.13
757.86	239.91
758.19	239.72
758.51	239.53
758.84	239.33
759.17	239.10
759.49	238.96
759.82	238.83
760.15	238.69
760.47	238.51
760.80	238.33
761.13	238.19
761.45	238.00
761.78	237.85
762.11	237.68
762.43	237.56
762.76	237.42
763.08	237.24
763.41	237.11
763.74	237.00
764.06	236.84
764.39	236.71
764.71	236.57
765.04	236.44
765.37	236.28
765.69	236.13
766.02	236.05
766.34	235.89
766.67	235.71
767.00	235.61
767.32	235.54
767.65	235.48
767.97	235.36
768.30	235.21
768.62	235.13
768.95	234.98
769.27	234.84
769.60	234.74
769.92	234.63
770.25	234.52
770.57	234.40
770.90	234.32
771.22	234.19
771.55	234.11
771.87	234.04
772.20	233.99
772.52	233.96
772.85	233.97
773.17	233.92
773.50	233.87
773.82	233.75
774.15	233.62
774.47	233.46
774.80	233.35
775.12	233.30
775.45	233.23
775.77	233.20
776.09	233.14
776.42	233.09
776.74	233.02
777.07	232.97
777.39	232.88
777.72	232.77
778.04	232.70
778.36	232.62
778.69	232.55
779.01	232.50
779.33	232.36
779.66	232.23
779.98	232.16
780.31	232.11
780.63	232.12
780.95	232.08
781.28	232.06
781.60	232.01
781.92	231.98
782.25	231.92
782.57	231.89
782.89	231.84
783.22	231.75
783.54	231.69
783.86	231.62
784.19	231.59
784.51	231.59
784.83	231.56
785.16	231.49
785.48	231.40
785.80	231.32
786.12	231.33
786.45	231.25
786.77	231.22
787.09	231.15
787.42	231.04
787.74	231.00
788.06	230.96
788.38	230.90
788.71	230.85
789.03	230.76
789.35	230.70
789.67	230.66
789.99	230.64
790.32	230.62
790.64	230.62
790.96	230.63
791.28	230.57
791.61	230.50
791.93	230.47
792.25	230.46
792.57	230.49
792.89	230.39
793.21	230.36
793.54	230.26
793.86	230.19
794.18	230.16
794.50	230.09
794.82	230.01
795.14	229.98
795.47	229.96
795.79	229.93
796.11	229.86
796.43	229.80
796.75	229.76
797.07	229.69
797.39	229.62
797.71	229.52
798.04	229.47
798.36	229.44
798.68	229.40
799.00	229.34
799.32	229.26
799.64	229.25
799.96	229.19
800.28	229.19
800.60	229.15
800.92	229.13
801.24	229.09
801.56	229.07
801.89	229.03
802.21	228.98
802.53	228.93
802.85	228.94
803.17	228.93
803.49	228.86
803.81	228.81
804.13	228.78
804.45	228.74
804.77	228.71
805.09	228.69
805.41	228.68
805.73	228.65
806.05	228.58
806.37	228.54
806.69	228.50
807.01	228.44
807.33	228.46
807.65	228.39
807.97	228.43
808.28	228.40
808.60	228.39
808.92	228.34
809.24	228.40
809.56	228.30
809.88	228.26
810.20	228.25
810.52	228.23
810.84	228.18
811.16	228.13
811.48	228.10
811.80	228.13
812.12	228.08
812.43	228.06
812.75	228.06
813.07	228.04
813.39	228.04
813.71	227.98
814.03	227.94
814.35	227.96
814.67	227.90
814.98	227.85
815.30	227.80
815.62	227.81
815.94	227.70
816.26	227.75
816.58	227.72
816.89	227.72
817.21	227.70
817.53	227.70
817.85	227.70
818.17	227.66
818.48	227.61
818.80	227.63
819.12	227.59
819.44	227.57
819.76	227.54
820.07	227.55
820.39	227.58
820.71	227.57
821.03	227.55
821.34	227.51
821.66	227.53
821.98	227.54
822.30	227.52
822.61	227.62
822.93	227.57
823.25	227.57
823.57	227.56
823.88	227.61
824.20	227.63
824.52	227.63
824.83	227.64
825.15	227.62
825.47	227.61
825.79	227.65
826.10	227.65
826.42	227.64
826.74	227.60
827.05	227.59
827.37	227.59
827.69	227.56
828.00	227.57
828.32	227.55
828.64	227.51
828.95	227.54
829.27	227.47
829.58	227.46
829.90	227.43
830.22	227.43
830.53	227.34
830.85	227.31
831.17	227.26
831.48	227.24
831.80	227.24
832.11	227.22
832.43	227.17
832.75	227.16
833.06	227.23
833.38	227.23
833.69	227.23
834.01	227.24
834.32	227.24
834.64	227.19
834.96	227.20
835.27	227.20
835.59	227.16
835.90	227.13
836.22	227.16
836.53	227.16
836.85	227.14
837.16	227.27
837.48	227.29
837.79	227.33
838.11	227.33
838.42	227.30
838.74	227.28
839.05	227.29
839.37	227.27
839.68	227.15
840.00	227.11
840.31	227.09
840.63	227.05
840.94	227.02
841.26	227.04
841.57	227.02
841.88	227.00
842.20	226.96
842.51	226.95
842.83	226.90
843.14	226.99
843.46	226.98
843.77	226.91
844.08	226.87
844.40	226.82
844.71	226.81
845.03	226.81
845.34	226.82
845.65	226.78
845.97	226.73
846.28	226.76
846.60	226.79
846.91	226.77
847.22	226.75
847.54	226.78
847.85	226.76
848.16	226.74
848.48	226.76
848.79	226.78
849.10	226.77
849.42	226.79
849.73	226.66
850.04	226.65
850.36	226.61
850.67	226.61
850.98	226.58
851.30	226.58
851.61	226.56
851.92	226.54
852.23	226.57
852.55	226.59
852.86	226.58
853.17	226.56
853.49	226.59
853.80	226.63
854.11	226.61
854.42	226.61
854.74	226.60
855.05	226.58
855.36	226.51
855.67	226.52
855.99	226.51
856.30	226.65
856.61	226.64
856.92	226.63
857.23	226.61
857.55	226.63
857.86	226.62
858.17	226.63
858.48	226.59
858.79	226.56
859.11	226.57
859.42	226.55
859.73	226.55
860.04	226.53
860.35	226.47
860.66	226.43
860.98	226.42
861.29	226.44
861.60	226.44
861.91	226.50
862.22	226.47
862.53	226.45
862.84	226.31
863.16	226.32
863.47	226.29
863.78	226.30
864.09	226.31
864.40	226.29
864.71	226.29
865.02	226.33
865.33	226.31
865.64	226.28
865.95	226.32
866.27	226.38
866.58	226.37
866.89	226.41
867.20	226.43
867.51	226.39
867.82	226.39
868.13	226.42
868.44	226.40
868.75	226.43
869.06	226.46
869.37	226.47
869.68	226.44
869.99	226.50
870.30	226.51
870.61	226.54
870.92	226.55
871.23	226.57
871.54	226.60
871.85	226.65
872.16	226.67
872.47	226.65
872.78	226.57
873.09	226.58
873.40	226.52
873.71	226.55
874.02	226.56
874.33	226.55
874.64	226.54
874.95	226.55
875.26	226.53
875.56	226.51
875.87	226.49
876.18	226.50
876.49	226.60
876.80	226.57
877.11	226.54
877.42	226.56
877.73	226.57
878.04	226.55
878.35	226.55
878.66	226.58
878.96	226.58
879.27	226.59
879.58	226.58
879.89	226.63
880.20	226.64
880.51	226.69
880.82	226.69
881.12	226.68
881.43	226.65
881.74	226.61
882.05	226.63
882.36	226.68
882.67	226.69
882.97	226.57
883.28	226.56
883.59	226.57
883.90	226.58
884.21	226.58
884.51	226.55
884.82	226.54
885.13	226.53
885.44	226.54
885.74	226.53
886.05	226.52
886.36	226.51
886.67	226.45
886.98	226.47
887.28	226.49
887.59	226.48
887.90	226.48
888.20	226.49
888.51	226.49
888.82	226.47
889.13	226.51
889.43	226.57
889.74	226.55
890.05	226.53
890.35	226.50
890.66	226.45
890.97	226.47
891.28	226.42
891.58	226.40
891.89	226.39
892.20	226.39
892.50	226.39
892.81	226.39
893.12	226.42
893.42	226.34
893.73	226.32
894.04	226.32
894.34	226.35
894.65	226.34
894.95	226.32
895.26	226.29
895.57	226.31
895.87	226.25
896.18	226.28
896.48	226.27
896.79	226.27
897.10	226.29
897.40	226.28
897.71	226.29
898.01	226.28
898.32	226.27
898.63	226.29
898.93	226.29
899.24	226.31
899.54	226.27
899.85	226.28
900.15	226.27
900.46	226.26
900.76	226.25
901.07	226.27
901.38	226.26
901.68	226.26
901.99	226.21
902.29	226.22
902.60	226.20
902.90	226.18
903.21	226.19
903.51	226.19
903.82	226.22
904.12	226.23
904.43	226.28
904.73	226.28
905.03	226.26
905.34	226.36
905.64	226.33
905.95	226.34
906.25	226.35
906.56	226.40
906.86	226.40
907.17	226.38
907.47	226.39
907.77	226.41
908.08	226.40
908.38	226.42
908.69	226.42
908.99	226.43
909.30	226.46
909.60	226.47
909.90	226.49
910.21	226.45
910.51	226.40
910.81	226.38
911.12	226.38
911.42	226.37
911.73	226.31
912.03	226.34
912.33	226.36
912.64	226.37
912.94	226.33
913.24	226.29
913.55	226.33
913.85	226.31
914.15	226.31
914.46	226.34
914.76	226.32
915.06	226.29
915.37	226.28
915.67	226.23
915.97	226.23
916.27	226.20
916.58	226.24
916.88	226.28
917.18	226.30
917.49	226.38
917.79	226.36
918.09	226.33
918.39	226.32
918.70	226.28
919.00	226.25
919.30	226.27
919.60	226.31
919.91	226.27
920.21	226.29
920.51	226.27
920.81	226.23
921.12	226.23
921.42	226.23
921.72	226.26
922.02	226.29
922.32	226.28
922.63	226.29
922.93	226.29
923.23	226.29
923.53	226.26
923.83	226.19
924.13	226.20
924.44	226.20
924.74	226.23
925.04	226.28
925.34	226.27
925.64	226.24
925.94	226.21
926.24	226.26
926.55	226.22
926.85	226.22
927.15	226.23
927.45	226.22
927.75	226.21
928.05	226.19
928.35	226.20
928.65	226.23
928.95	226.22
929.26	226.15
929.56	226.15
929.86	226.17
930.16	226.12
930.46	226.12
930.76	226.11
931.06	226.06
931.36	226.04
931.66	226.06
931.96	226.08
932.26	226.10
932.56	226.05
932.86	226.08
933.16	226.09
933.46	226.07
933.76	226.06
934.06	226.09
934.36	226.13
934.66	226.13
934.96	226.12
935.26	226.11
935.56	226.17
935.86	226.16
936.16	226.16
936.46	226.18
936.76	226.17
937.06	226.17
937.36	226.20
937.66	226.22
937.96	226.20
938.26	226.18
938.56	226.18
938.86	226.20
939.16	226.23
939.46	226.22
939.76	226.26
940.06	226.23
940.35	226.23
940.65	226.16
940.95	226.17
941.25	226.14
941.55	226.15
941.85	226.16
942.15	226.15
942.45	226.17
942.75	226.16
943.04	226.18
943.34	226.19
943.64	226.19
943.94	226.16
944.24	226.18
944.54	226.19
944.84	226.18
945.13	226.17
945.43	226.14
945.73	226.12
946.03	226.12
946.33	226.12
946.62	226.13
946.92	226.12
947.22	226.13
947.52	226.11
947.82	226.09
948.11	226.06
948.41	226.04
948.71	226.02
949.01	226.01
949.31	226.00
949.60	225.98
949.90	225.98
950.20	225.97
950.50	225.94
950.79	225.92
951.09	225.95
951.39	225.93
951.69	225.93
951.98	225.94
952.28	225.94
952.58	225.94
952.87	225.90
953.17	225.93
953.47	225.91
953.76	225.89
954.06	225.87
954.36	225.82
954.66	225.84
954.95	225.85
955.25	225.86
955.55	225.85
955.84	225.85
956.14	225.84
956.44	225.84
956.73	225.84
957.03	225.84
957.32	225.82
957.62	225.81
957.92	225.80
958.21	225.83
958.51	225.94
958.81	225.96
959.10	226.00
959.40	226.03
959.69	226.02
959.99	226.07
960.29	226.09
960.58	226.14
960.88	226.17
961.17	226.13
961.47	226.15
961.76	226.17
962.06	226.18
962.36	226.19
962.65	226.19
962.95	226.21
963.24	226.19
963.54	226.19
963.83	226.19
964.13	226.23
964.42	226.19
964.72	226.13
965.01	226.15
965.31	226.14
965.60	226.11
965.90	226.19
966.19	226.15
966.49	226.17
966.78	226.17
967.08	226.13
967.37	226.15
967.67	226.12
967.96	226.12
968.26	226.14
968.55	226.16
968.85	226.17
969.14	226.18
969.43	226.20
969.73	226.19
970.02	226.20
970.32	226.17
970.61	226.14
970.91	226.12
971.20	226.12
971.49	226.09
971.79	226.12
972.08	226.02
972.38	226.04
972.67	226.03
972.96	226.04
973.26	226.06
973.55	226.11
973.85	226.14
974.14	226.12
974.43	226.12
974.73	226.09
975.02	226.05
975.31	226.03
975.61	226.05
975.90	226.06
976.19	226.06
976.49	226.08
976.78	226.10
977.07	226.06
977.37	226.06
977.66	226.06
977.95	226.01
978.24	226.03
978.54	226.04
978.83	225.99
979.12	225.97
979.42	225.94
979.71	225.92
980.00	225.86
980.29	225.87
980.59	225.85
980.88	225.86
981.17	225.91
981.46	225.91
981.76	225.87
982.05	225.89
982.34	225.86
982.63	225.84
982.93	225.86
983.22	225.91
983.51	225.90
983.80	225.96
984.09	225.96
984.39	225.95
984.68	225.97
984.97	226.01
985.26	225.99
985.55	226.01
985.85	225.93
986.14	225.98
986.43	225.98
986.72	225.99
987.01	225.97
987.30	225.95
987.59	225.92
987.89	225.94
988.18	225.89
988.47	225.90
988.76	225.90
989.05	225.83
989.34	225.81
989.63	225.83
989.92	225.79
990.22	225.80
990.51	225.77
990.80	225.73
991.09	225.70
991.38	225.74
991.67	225.71
991.96	225.71
992.25	225.73
992.54	225.73
992.83	225.72
993.12	225.71
993.41	225.74
993.70	225.81
993.99	225.81
994.28	225.85
994.58	225.88
994.87	225.86
995.16	225.89
995.45	225.86
995.74	225.82
996.03	225.81
996.32	225.81
996.61	225.86
996.90	225.88
997.19	225.90
997.48	225.89
997.77	225.89
998.06	225.91
998.34	225.88
998.63	225.88
998.92	225.87
999.21	225.88
999.50	225.89
999.79	225.85
1000.08	225.85
1000.37	225.82
1000.66	225.83
1000.95	225.89
1001.24	225.88
1001.53	225.92
1001.82	225.92
1002.11	225.93
1002.40	225.96
1002.68	225.97
1002.97	226.03
1003.26	226.02
1003.55	225.99
1003.84	226.01
1004.13	226.07
1004.42	226.05
1004.71	226.04
1004.99	226.06
1005.28	226.05
1005.57	226.01
1005.86	226.01
1006.15	226.01
1006.44	225.99
1006.72	225.96
1007.01	225.92
1007.30	225.96
1007.59	225.95
1007.88	225.95
1008.17	225.94
1008.45	225.90
1008.74	225.86
1009.03	225.84
1009.32	225.81
1009.60	225.86
1009.89	225.81
1010.18	225.75
1010.47	225.75
1010.76	225.76
1011.04	225.76
1011.33	225.79
1011.62	225.80
1011.91	225.79
1012.19	225.79
1012.48	225.83
1012.77	225.81
1013.05	225.84
1013.34	225.83
1013.63	225.79
1013.92	225.80
1014.20	225.79
1014.49	225.79
1014.78	225.76
1015.06	225.72
1015.35	225.74
1015.64	225.69
1015.92	225.78
1016.21	225.76
1016.50	225.78
1016.78	225.76
1017.07	225.76
1017.36	225.71
1017.64	225.69
1017.93	225.69
1018.22	225.67
1018.50	225.65
1018.79	225.66
1019.08	225.61
1019.36	225.61
1019.65	225.62
1019.93	225.68
1020.22	225.70
1020.51	225.76
1020.79	225.76
1021.08	225.56
1021.36	225.44
1021.65	225.69
1021.94	225.57
1022.22	225.80
1022.51	225.53
1022.79	227.04
1023.08	225.74
1023.36	227.06
1023.65	225.19
>>>>>End Processed Spectral Data<<<<<
