SpectraSuite Data File
++++++++++++++++++++++++++++++++++++
Date: Fri Feb 01 15:33:30 EST 2013
User: group
Dark Spectrum Present: No
Reference Spectrum Present: No
Number of Sampled Component Spectra: 1
Spectrometers: USB2E7196
Integration Time (usec): 35000 (USB2E7196)
Spectra Averaged: 100 (USB2E7196)
Boxcar Smoothing: 10 (USB2E7196)
Correct for Electrical Dark: No (USB2E7196)
Strobe/Lamp Enabled: No (USB2E7196)
Correct for Detector Non-linearity: No (USB2E7196)
Correct for Stray Light: No (USB2E7196)
Number of Pixels in Processed Spectrum: 2048
>>>>>Begin Processed Spectral Data<<<<<
339.09	0.00
339.48	215.75
339.86	216.21
340.24	217.78
340.63	218.87
341.01	222.43
341.39	221.92
341.78	223.29
342.16	224.09
342.54	225.06
342.93	213.37
343.31	224.14
343.69	224.65
344.07	225.14
344.46	225.57
344.84	225.94
345.22	226.15
345.60	226.40
345.99	226.60
346.37	226.76
346.75	226.86
347.13	226.92
347.52	226.95
347.90	227.00
348.28	227.06
348.66	227.11
349.05	227.10
349.43	227.10
349.81	227.16
350.19	227.19
350.57	227.23
350.96	227.29
351.34	227.35
351.72	227.44
352.10	227.52
352.48	227.56
352.87	227.66
353.25	227.71
353.63	227.79
354.01	227.81
354.39	227.85
354.77	227.93
355.15	228.00
355.54	228.07
355.92	228.10
356.30	228.16
356.68	228.26
357.06	228.32
357.44	228.38
357.82	228.41
358.20	228.50
358.58	228.57
358.97	228.65
359.35	228.72
359.73	228.80
360.11	228.85
360.49	228.91
360.87	228.93
361.25	228.99
361.63	229.04
362.01	229.07
362.39	229.14
362.77	229.15
363.15	229.19
363.53	229.23
363.91	229.23
364.29	229.26
364.67	229.23
365.05	229.22
365.43	229.25
365.81	229.30
366.19	229.32
366.57	229.35
366.95	229.34
367.33	229.32
367.71	229.28
368.09	229.30
368.47	229.28
368.85	229.26
369.23	229.22
369.61	229.16
369.99	229.21
370.37	229.18
370.75	229.21
371.13	229.15
371.51	229.11
371.89	229.08
372.27	229.02
372.65	228.95
373.03	228.90
373.41	228.83
373.78	228.75
374.16	228.63
374.54	228.55
374.92	228.49
375.30	228.44
375.68	228.36
376.06	228.27
376.44	228.22
376.82	228.18
377.19	228.15
377.57	228.09
377.95	227.99
378.33	227.91
378.71	227.80
379.09	227.71
379.47	227.64
379.84	227.58
380.22	227.49
380.60	227.43
380.98	227.32
381.36	227.23
381.73	227.16
382.11	227.13
382.49	227.05
382.87	226.96
383.25	226.90
383.62	226.96
384.00	226.87
384.38	226.81
384.76	226.78
385.13	226.75
385.51	226.70
385.89	226.60
386.27	226.57
386.64	226.52
387.02	226.54
387.40	226.45
387.78	226.43
388.15	226.42
388.53	226.37
388.91	226.39
389.29	226.38
389.66	226.38
390.04	226.35
390.42	226.37
390.79	226.37
391.17	226.35
391.55	226.25
391.92	226.29
392.30	226.29
392.68	226.27
393.05	226.26
393.43	226.27
393.81	226.33
394.18	226.34
394.56	226.34
394.94	226.37
395.31	226.42
395.69	226.46
396.06	226.52
396.44	226.59
396.82	226.66
397.19	226.78
397.57	226.83
397.95	226.90
398.32	226.97
398.70	227.03
399.07	227.12
399.45	227.16
399.82	227.21
400.20	227.25
400.58	227.31
400.95	227.33
401.33	227.47
401.70	227.60
402.08	227.66
402.45	227.79
402.83	227.91
403.20	228.05
403.58	228.13
403.95	228.29
404.33	228.42
404.71	228.54
405.08	228.69
405.46	228.81
405.83	228.95
406.21	229.08
406.58	229.27
406.96	229.41
407.33	229.59
407.70	229.78
408.08	230.10
408.45	230.31
408.83	230.60
409.20	230.78
409.58	230.96
409.95	231.26
410.33	231.51
410.70	231.76
411.08	232.06
411.45	232.42
411.82	232.69
412.20	233.02
412.57	233.42
412.95	233.71
413.32	234.14
413.69	234.58
414.07	235.01
414.44	235.47
414.82	235.97
415.19	236.52
415.56	237.04
415.94	237.59
416.31	238.24
416.68	238.86
417.06	239.59
417.43	240.29
417.81	241.02
418.18	241.83
418.55	242.65
418.93	243.50
419.30	244.40
419.67	245.35
420.04	246.33
420.42	247.29
420.79	248.46
421.16	249.59
421.54	250.77
421.91	251.98
422.28	253.22
422.66	254.55
423.03	255.88
423.40	257.26
423.77	258.66
424.15	260.09
424.52	261.58
424.89	263.17
425.26	264.71
425.64	266.16
426.01	267.74
426.38	269.42
426.75	271.11
427.13	272.82
427.50	274.61
427.87	276.48
428.24	278.35
428.61	280.11
428.99	282.07
429.36	284.13
429.73	286.18
430.10	288.23
430.47	290.31
430.85	292.40
431.22	294.63
431.59	297.02
431.96	299.27
432.33	301.75
432.70	304.18
433.08	307.01
433.45	309.65
433.82	312.23
434.19	315.11
434.56	317.90
434.93	320.56
435.30	323.20
435.68	326.09
436.05	328.95
436.42	331.74
436.79	334.28
437.16	337.03
437.53	339.87
437.90	342.69
438.27	345.45
438.64	348.29
439.01	350.87
439.38	353.09
439.75	355.27
440.13	357.78
440.50	360.06
440.87	361.94
441.24	363.89
441.61	366.09
441.98	367.62
442.35	369.42
442.72	371.31
443.09	373.15
443.46	374.14
443.83	374.74
444.20	375.32
444.57	376.09
444.94	376.39
445.31	376.69
445.68	377.05
446.05	377.09
446.42	376.70
446.79	376.31
447.16	375.86
447.53	375.51
447.90	374.30
448.27	373.16
448.64	371.52
449.01	370.40
449.37	368.41
449.74	366.47
450.11	364.22
450.48	361.74
450.85	359.15
451.22	356.99
451.59	354.94
451.96	352.91
452.33	350.31
452.70	347.93
453.07	345.14
453.43	342.25
453.80	339.47
454.17	336.81
454.54	334.23
454.91	331.50
455.28	328.84
455.65	326.37
456.02	323.88
456.38	321.72
456.75	319.02
457.12	316.77
457.49	314.54
457.86	312.35
458.23	310.48
458.59	308.44
458.96	306.36
459.33	304.51
459.70	302.65
460.07	301.18
460.43	299.45
460.80	297.81
461.17	296.39
461.54	294.85
461.91	293.41
462.27	291.98
462.64	290.72
463.01	289.38
463.38	288.08
463.74	286.71
464.11	285.54
464.48	284.50
464.85	283.42
465.21	282.55
465.58	281.64
465.95	280.50
466.32	279.61
466.68	278.71
467.05	277.79
467.42	276.90
467.78	275.94
468.15	275.07
468.52	274.44
468.88	273.55
469.25	272.83
469.62	272.24
469.98	271.57
470.35	270.92
470.72	270.34
471.08	269.68
471.45	269.13
471.82	268.58
472.18	268.00
472.55	267.51
472.92	267.00
473.28	266.53
473.65	266.12
474.02	265.69
474.38	265.30
474.75	265.02
475.11	264.65
475.48	264.39
475.85	264.16
476.21	263.90
476.58	263.70
476.94	263.57
477.31	263.37
477.67	263.21
478.04	263.13
478.41	263.04
478.77	263.09
479.14	263.04
479.50	263.10
479.87	263.19
480.23	263.32
480.60	263.35
480.96	263.44
481.33	263.67
481.69	263.85
482.06	264.04
482.42	264.18
482.79	264.47
483.15	264.76
483.52	265.14
483.88	265.48
484.25	265.89
484.61	266.30
484.98	266.76
485.34	267.32
485.71	267.88
486.07	268.50
486.44	269.06
486.80	269.80
487.17	270.50
487.53	271.26
487.90	272.08
488.26	273.05
488.62	274.04
488.99	274.96
489.35	276.01
489.72	277.19
490.08	278.42
490.44	279.64
490.81	280.99
491.17	282.34
491.54	283.84
491.90	285.37
492.26	287.01
492.63	288.72
492.99	290.44
493.36	292.34
493.72	294.36
494.08	296.44
494.45	298.66
494.81	301.01
495.17	303.47
495.54	306.06
495.90	308.69
496.26	311.46
496.63	314.45
496.99	317.56
497.35	320.76
497.72	324.19
498.08	327.71
498.44	331.40
498.80	335.28
499.17	339.28
499.53	343.43
499.89	347.78
500.26	352.23
500.62	356.96
500.98	361.92
501.34	367.04
501.71	372.40
502.07	377.81
502.43	383.40
502.79	389.16
503.16	395.25
503.52	401.55
503.88	407.96
504.24	414.59
504.60	421.51
504.97	428.62
505.33	435.87
505.69	443.58
506.05	451.38
506.41	459.28
506.78	467.51
507.14	475.94
507.50	484.75
507.86	493.84
508.22	503.00
508.59	512.24
508.95	521.77
509.31	531.56
509.67	541.73
510.03	552.09
510.39	562.64
510.75	573.41
511.12	584.33
511.48	595.58
511.84	607.07
512.20	618.61
512.56	630.60
512.92	642.85
513.28	655.24
513.64	667.75
514.00	680.49
514.37	693.40
514.73	706.44
515.09	719.42
515.45	732.72
515.81	746.40
516.17	760.38
516.53	774.53
516.89	788.80
517.25	802.97
517.61	817.33
517.97	831.89
518.33	846.36
518.69	861.27
519.05	876.42
519.41	891.59
519.77	907.20
520.13	922.69
520.49	938.07
520.85	953.47
521.21	969.23
521.57	985.50
521.93	1001.27
522.29	1017.78
522.65	1034.14
523.01	1050.41
523.37	1066.48
523.73	1082.68
524.09	1098.85
524.45	1115.14
524.81	1131.89
525.17	1148.82
525.53	1165.68
525.89	1182.47
526.25	1199.27
526.61	1215.63
526.97	1232.36
527.33	1248.80
527.68	1265.56
528.04	1282.08
528.40	1298.81
528.76	1315.85
529.12	1332.47
529.48	1349.41
529.84	1365.53
530.20	1382.09
530.56	1399.17
530.91	1416.65
531.27	1433.48
531.63	1449.97
531.99	1466.65
532.35	1482.61
532.71	1498.58
533.07	1514.96
533.42	1530.95
533.78	1547.06
534.14	1563.33
534.50	1578.78
534.86	1594.80
535.21	1609.92
535.57	1626.03
535.93	1641.49
536.29	1656.28
536.65	1671.43
537.00	1686.33
537.36	1701.57
537.72	1716.19
538.08	1730.71
538.44	1744.53
538.79	1758.38
539.15	1772.13
539.51	1785.90
539.87	1800.26
540.22	1814.01
540.58	1827.78
540.94	1841.25
541.29	1854.19
541.65	1866.94
542.01	1880.22
542.37	1892.40
542.72	1904.80
543.08	1916.52
543.44	1928.90
543.79	1940.18
544.15	1951.12
544.51	1962.73
544.87	1973.75
545.22	1984.62
545.58	1994.70
545.94	2004.45
546.29	2014.51
546.65	2024.29
547.01	2033.61
547.36	2042.37
547.72	2050.77
548.07	2058.75
548.43	2066.85
548.79	2075.01
549.14	2082.59
549.50	2089.97
549.86	2097.85
550.21	2105.20
550.57	2112.38
550.92	2119.04
551.28	2126.22
551.64	2133.33
551.99	2139.87
552.35	2146.05
552.70	2152.25
553.06	2158.27
553.41	2164.68
553.77	2170.55
554.13	2176.76
554.48	2182.86
554.84	2188.33
555.19	2193.80
555.55	2198.74
555.90	2203.17
556.26	2207.83
556.61	2212.67
556.97	2216.71
557.32	2220.78
557.68	2224.96
558.03	2229.33
558.39	2233.06
558.74	2237.55
559.10	2241.42
559.45	2244.88
559.81	2249.16
560.16	2252.81
560.52	2256.11
560.87	2259.56
561.23	2262.36
561.58	2265.41
561.94	2267.82
562.29	2270.32
562.64	2272.83
563.00	2275.68
563.35	2279.42
563.71	2282.49
564.06	2285.55
564.42	2288.59
564.77	2291.12
565.12	2293.34
565.48	2295.04
565.83	2296.79
566.19	2298.12
566.54	2299.00
566.89	2300.28
567.25	2300.78
567.60	2302.13
567.96	2303.86
568.31	2304.56
568.66	2305.54
569.02	2305.84
569.37	2306.19
569.72	2306.93
570.08	2307.09
570.43	2307.04
570.78	2306.23
571.14	2304.87
571.49	2303.45
571.84	2303.02
572.20	2301.73
572.55	2300.70
572.90	2299.33
573.26	2297.97
573.61	2296.29
573.96	2294.54
574.31	2291.37
574.67	2288.33
575.02	2284.62
575.37	2281.10
575.72	2277.21
576.08	2273.97
576.43	2270.62
576.78	2266.87
577.13	2263.54
577.49	2260.35
577.84	2256.62
578.19	2252.81
578.54	2249.02
578.90	2244.88
579.25	2239.26
579.60	2234.13
579.95	2229.02
580.30	2223.85
580.66	2218.58
581.01	2213.48
581.36	2208.29
581.71	2204.05
582.06	2199.67
582.42	2195.22
582.77	2189.92
583.12	2185.24
583.47	2180.27
583.82	2175.27
584.17	2169.91
584.53	2164.42
584.88	2158.81
585.23	2153.06
585.58	2147.59
585.93	2142.09
586.28	2137.17
586.63	2132.07
586.98	2127.14
587.34	2122.36
587.69	2117.47
588.04	2112.11
588.39	2106.51
588.74	2100.20
589.09	2094.17
589.44	2087.31
589.79	2081.32
590.14	2075.74
590.49	2069.24
590.84	2062.86
591.19	2056.75
591.54	2050.34
591.89	2042.91
592.25	2036.09
592.60	2028.90
592.95	2021.32
593.30	2014.00
593.65	2006.47
594.00	1999.46
594.35	1992.16
594.70	1984.15
595.05	1976.78
595.40	1969.57
595.75	1961.93
596.10	1955.50
596.45	1948.61
596.80	1942.35
597.15	1935.62
597.50	1928.43
597.85	1921.91
598.19	1915.25
598.54	1908.18
598.89	1901.53
599.24	1895.52
599.59	1888.70
599.94	1882.52
600.29	1876.11
600.64	1869.48
600.99	1861.72
601.34	1854.82
601.69	1847.81
602.04	1840.81
602.39	1833.42
602.74	1826.52
603.08	1819.86
603.43	1813.21
603.78	1805.89
604.13	1798.66
604.48	1791.31
604.83	1784.38
605.18	1777.37
605.53	1769.30
605.87	1761.23
606.22	1753.98
606.57	1746.05
606.92	1738.81
607.27	1731.47
607.62	1724.55
607.96	1717.16
608.31	1710.75
608.66	1703.05
609.01	1695.44
609.36	1687.92
609.70	1679.83
610.05	1671.67
610.40	1663.80
610.75	1655.36
611.10	1647.62
611.44	1639.28
611.79	1631.25
612.14	1622.49
612.49	1613.41
612.83	1605.02
613.18	1596.88
613.53	1588.66
613.88	1580.27
614.22	1571.89
614.57	1563.25
614.92	1555.17
615.27	1547.59
615.61	1539.18
615.96	1531.13
616.31	1523.54
616.65	1515.98
617.00	1508.51
617.35	1500.92
617.70	1492.62
618.04	1484.22
618.39	1476.13
618.74	1468.44
619.08	1460.23
619.43	1452.68
619.78	1445.76
620.12	1438.53
620.47	1431.01
620.82	1422.89
621.16	1415.45
621.51	1407.86
621.85	1400.33
622.20	1391.79
622.55	1383.55
622.89	1375.76
623.24	1368.25
623.59	1360.87
623.93	1353.45
624.28	1346.21
624.62	1338.64
624.97	1331.58
625.32	1324.81
625.66	1317.61
626.01	1310.41
626.35	1302.77
626.70	1295.05
627.04	1287.15
627.39	1279.35
627.73	1271.94
628.08	1265.09
628.43	1257.63
628.77	1250.27
629.12	1242.65
629.46	1235.45
629.81	1227.97
630.15	1220.65
630.50	1213.17
630.84	1204.92
631.19	1197.06
631.53	1189.61
631.88	1182.11
632.22	1174.32
632.57	1167.08
632.91	1159.65
633.26	1152.27
633.60	1145.02
633.95	1137.90
634.29	1130.93
634.64	1124.29
634.98	1116.94
635.32	1109.73
635.67	1103.16
636.01	1096.50
636.36	1089.73
636.70	1083.31
637.05	1076.78
637.39	1070.39
637.73	1063.98
638.08	1058.19
638.42	1052.20
638.77	1045.73
639.11	1039.02
639.45	1032.69
639.80	1025.96
640.14	1019.53
640.49	1012.97
640.83	1006.59
641.17	1000.37
641.52	994.06
641.86	987.68
642.20	981.81
642.55	975.49
642.89	969.00
643.23	962.50
643.58	956.72
643.92	950.45
644.26	944.26
644.61	938.21
644.95	932.11
645.29	925.46
645.64	918.64
645.98	912.24
646.32	906.52
646.66	900.59
647.01	894.76
647.35	889.00
647.69	883.25
648.04	877.84
648.38	872.09
648.72	866.10
649.06	859.99
649.41	854.11
649.75	848.10
650.09	842.15
650.43	836.24
650.78	830.04
651.12	824.12
651.46	818.43
651.80	812.63
652.14	807.20
652.49	801.87
652.83	796.78
653.17	791.13
653.51	785.38
653.85	779.95
654.20	774.32
654.54	768.39
654.88	762.60
655.22	756.64
655.56	750.99
655.90	745.52
656.25	740.33
656.59	734.97
656.93	729.89
657.27	724.72
657.61	719.37
657.95	714.30
658.29	709.23
658.64	704.08
658.98	698.80
659.32	693.35
659.66	688.13
660.00	682.79
660.34	677.91
660.68	672.99
661.02	667.89
661.36	663.16
661.70	658.59
662.05	654.17
662.39	649.85
662.73	645.34
663.07	640.93
663.41	636.42
663.75	631.87
664.09	627.37
664.43	623.03
664.77	618.88
665.11	614.69
665.45	610.50
665.79	606.39
666.13	602.26
666.47	598.14
666.81	593.91
667.15	589.76
667.49	585.81
667.83	581.99
668.17	578.07
668.51	574.04
668.85	570.09
669.19	566.27
669.53	562.37
669.87	558.46
670.21	554.83
670.55	551.11
670.89	547.74
671.23	544.27
671.57	540.73
671.91	537.26
672.25	533.75
672.58	530.29
672.92	526.83
673.26	523.75
673.60	520.62
673.94	517.51
674.28	514.69
674.62	511.69
674.96	508.58
675.30	505.71
675.64	502.82
675.97	500.08
676.31	497.27
676.65	494.38
676.99	491.77
677.33	488.84
677.67	486.08
678.01	483.05
678.34	480.12
678.68	477.23
679.02	474.39
679.36	471.62
679.70	468.86
680.04	466.10
680.37	463.16
680.71	460.37
681.05	457.82
681.39	455.01
681.73	452.39
682.06	449.88
682.40	447.33
682.74	444.75
683.08	442.13
683.42	439.51
683.75	437.06
684.09	434.42
684.43	431.97
684.77	429.54
685.10	427.21
685.44	424.89
685.78	422.66
686.12	420.38
686.45	418.13
686.79	415.88
687.13	413.77
687.46	411.64
687.80	409.50
688.14	407.28
688.48	405.24
688.81	402.98
689.15	400.83
689.49	398.66
689.82	396.66
690.16	394.59
690.50	392.62
690.83	390.67
691.17	388.76
691.51	386.90
691.84	385.02
692.18	383.08
692.52	381.06
692.85	379.11
693.19	377.28
693.52	375.44
693.86	373.59
694.20	371.74
694.53	369.93
694.87	368.03
695.21	366.25
695.54	364.47
695.88	362.80
696.21	361.10
696.55	359.45
696.88	357.76
697.22	356.17
697.56	354.56
697.89	352.87
698.23	351.25
698.56	349.60
698.90	348.04
699.23	346.33
699.57	344.84
699.90	343.32
700.24	341.73
700.58	340.15
700.91	338.66
701.25	337.23
701.58	335.84
701.92	334.51
702.25	333.12
702.59	331.69
702.92	330.35
703.26	329.05
703.59	327.70
703.93	326.45
704.26	325.17
704.60	323.87
704.93	322.60
705.26	321.29
705.60	320.15
705.93	318.98
706.27	318.05
706.60	316.98
706.94	315.90
707.27	314.78
707.61	313.74
707.94	312.75
708.27	311.65
708.61	310.62
708.94	309.62
709.28	308.67
709.61	307.73
709.94	306.79
710.28	305.74
710.61	304.78
710.95	303.74
711.28	302.84
711.61	301.88
711.95	301.01
712.28	300.12
712.61	299.13
712.95	298.16
713.28	297.25
713.61	296.35
713.95	295.43
714.28	294.61
714.61	293.77
714.95	292.92
715.28	292.06
715.61	291.14
715.95	290.29
716.28	289.46
716.61	288.60
716.95	287.77
717.28	287.04
717.61	286.30
717.94	285.58
718.28	284.74
718.61	284.04
718.94	283.34
719.27	282.66
719.61	282.00
719.94	281.41
720.27	280.69
720.60	280.01
720.94	279.40
721.27	278.76
721.60	278.18
721.93	277.58
722.27	277.01
722.60	276.46
722.93	275.89
723.26	275.34
723.59	274.79
723.93	274.28
724.26	273.74
724.59	273.21
724.92	272.65
725.25	272.19
725.59	271.68
725.92	271.11
726.25	270.58
726.58	270.11
726.91	269.57
727.24	269.07
727.57	268.64
727.91	268.13
728.24	267.71
728.57	267.21
728.90	266.74
729.23	266.28
729.56	265.88
729.89	265.41
730.22	264.91
730.55	264.46
730.89	264.00
731.22	263.55
731.55	263.07
731.88	262.66
732.21	262.19
732.54	261.75
732.87	261.39
733.20	261.04
733.53	260.64
733.86	260.28
734.19	259.85
734.52	259.41
734.85	259.14
735.18	258.71
735.51	258.37
735.84	258.01
736.17	257.69
736.50	257.27
736.83	257.04
737.16	256.70
737.49	256.36
737.82	256.01
738.15	255.68
738.48	255.42
738.81	255.09
739.14	254.78
739.47	254.45
739.80	254.10
740.13	253.74
740.46	253.40
740.79	253.07
741.12	252.79
741.45	252.52
741.78	252.13
742.11	251.86
742.44	251.50
742.77	251.22
743.10	250.90
743.43	250.62
743.75	250.24
744.08	250.08
744.41	249.80
744.74	249.53
745.07	249.23
745.40	248.91
745.73	248.69
746.06	248.40
746.39	248.17
746.71	247.90
747.04	247.61
747.37	247.36
747.70	247.12
748.03	246.89
748.36	246.66
748.68	246.44
749.01	246.19
749.34	246.02
749.67	245.78
750.00	245.54
750.33	245.37
750.65	245.17
750.98	244.81
751.31	244.58
751.64	244.40
751.97	244.24
752.29	244.06
752.62	243.80
752.95	243.61
753.28	243.37
753.60	243.17
753.93	243.01
754.26	242.85
754.59	242.62
754.91	242.42
755.24	242.21
755.57	242.04
755.90	241.87
756.22	241.63
756.55	241.43
756.88	241.25
757.20	241.02
757.53	240.78
757.86	240.62
758.19	240.47
758.51	240.27
758.84	240.03
759.17	239.83
759.49	239.68
759.82	239.54
760.15	239.42
760.47	239.30
760.80	239.14
761.13	239.01
761.45	238.87
761.78	238.72
762.11	238.58
762.43	238.43
762.76	238.26
763.08	238.12
763.41	238.01
763.74	237.85
764.06	237.74
764.39	237.65
764.71	237.53
765.04	237.37
765.37	237.23
765.69	237.15
766.02	237.06
766.34	236.92
766.67	236.79
767.00	236.69
767.32	236.62
767.65	236.57
767.97	236.45
768.30	236.36
768.62	236.25
768.95	236.19
769.27	236.05
769.60	235.98
769.92	235.85
770.25	235.75
770.57	235.68
770.90	235.57
771.22	235.45
771.55	235.37
771.87	235.29
772.20	235.21
772.52	235.19
772.85	235.21
773.17	235.16
773.50	235.05
773.82	234.92
774.15	234.80
774.47	234.64
774.80	234.55
775.12	234.42
775.45	234.32
775.77	234.20
776.09	234.16
776.42	234.09
776.74	234.05
777.07	233.95
777.39	233.87
777.72	233.74
778.04	233.71
778.36	233.64
778.69	233.56
779.01	233.49
779.33	233.33
779.66	233.12
779.98	233.06
780.31	232.99
780.63	232.96
780.95	232.89
781.28	232.81
781.60	232.70
781.92	232.66
782.25	232.61
782.57	232.52
782.89	232.46
783.22	232.38
783.54	232.31
783.86	232.23
784.19	232.13
784.51	232.12
784.83	232.01
785.16	231.91
785.48	231.84
785.80	231.82
786.12	231.78
786.45	231.70
786.77	231.62
787.09	231.57
787.42	231.50
787.74	231.43
788.06	231.41
788.38	231.36
788.71	231.32
789.03	231.26
789.35	231.24
789.67	231.14
789.99	231.10
790.32	231.05
790.64	231.05
790.96	231.09
791.28	231.02
791.61	230.97
791.93	230.99
792.25	230.96
792.57	230.99
792.89	230.91
793.21	230.92
793.54	230.86
793.86	230.84
794.18	230.80
794.50	230.77
794.82	230.72
795.14	230.73
795.47	230.70
795.79	230.67
796.11	230.61
796.43	230.60
796.75	230.57
797.07	230.55
797.39	230.50
797.71	230.39
798.04	230.39
798.36	230.39
798.68	230.33
799.00	230.30
799.32	230.22
799.64	230.22
799.96	230.19
800.28	230.20
800.60	230.15
800.92	230.13
801.24	230.12
801.56	230.09
801.89	230.07
802.21	230.08
802.53	230.02
802.85	230.02
803.17	230.05
803.49	230.02
803.81	229.97
804.13	229.94
804.45	229.91
804.77	229.87
805.09	229.85
805.41	229.82
805.73	229.79
806.05	229.73
806.37	229.74
806.69	229.72
807.01	229.68
807.33	229.66
807.65	229.60
807.97	229.61
808.28	229.59
808.60	229.54
808.92	229.49
809.24	229.56
809.56	229.53
809.88	229.50
810.20	229.45
810.52	229.47
810.84	229.42
811.16	229.40
811.48	229.37
811.80	229.37
812.12	229.33
812.43	229.32
812.75	229.32
813.07	229.25
813.39	229.21
813.71	229.23
814.03	229.18
814.35	229.19
814.67	229.15
814.98	229.13
815.30	229.11
815.62	229.08
815.94	228.98
816.26	228.97
816.58	228.92
816.89	228.92
817.21	228.86
817.53	228.84
817.85	228.86
818.17	228.81
818.48	228.74
818.80	228.77
819.12	228.74
819.44	228.69
819.76	228.69
820.07	228.67
820.39	228.59
820.71	228.60
821.03	228.58
821.34	228.53
821.66	228.49
821.98	228.50
822.30	228.47
822.61	228.53
822.93	228.48
823.25	228.49
823.57	228.47
823.88	228.48
824.20	228.47
824.52	228.45
824.83	228.47
825.15	228.46
825.47	228.44
825.79	228.45
826.10	228.42
826.42	228.41
826.74	228.39
827.05	228.41
827.37	228.39
827.69	228.36
828.00	228.36
828.32	228.34
828.64	228.27
828.95	228.34
829.27	228.30
829.58	228.28
829.90	228.25
830.22	228.24
830.53	228.20
830.85	228.18
831.17	228.13
831.48	228.10
831.80	228.11
832.11	228.08
832.43	228.05
832.75	228.08
833.06	228.11
833.38	228.10
833.69	228.08
834.01	228.06
834.32	228.06
834.64	228.01
834.96	228.03
835.27	228.03
835.59	227.94
835.90	227.88
836.22	227.86
836.53	227.85
836.85	227.84
837.16	227.93
837.48	227.94
837.79	227.96
838.11	227.95
838.42	227.96
838.74	228.00
839.05	227.97
839.37	227.95
839.68	227.87
840.00	227.83
840.31	227.86
840.63	227.86
840.94	227.86
841.26	227.87
841.57	227.89
841.88	227.90
842.20	227.90
842.51	227.90
842.83	227.88
843.14	227.95
843.46	227.96
843.77	227.93
844.08	227.92
844.40	227.91
844.71	227.90
845.03	227.90
845.34	227.84
845.65	227.84
845.97	227.83
846.28	227.84
846.60	227.85
846.91	227.79
847.22	227.78
847.54	227.78
847.85	227.79
848.16	227.73
848.48	227.72
848.79	227.76
849.10	227.77
849.42	227.79
849.73	227.69
850.04	227.67
850.36	227.64
850.67	227.65
850.98	227.66
851.30	227.66
851.61	227.63
851.92	227.62
852.23	227.66
852.55	227.65
852.86	227.68
853.17	227.70
853.49	227.71
853.80	227.71
854.11	227.71
854.42	227.71
854.74	227.72
855.05	227.71
855.36	227.67
855.67	227.68
855.99	227.66
856.30	227.77
856.61	227.76
856.92	227.71
857.23	227.67
857.55	227.65
857.86	227.63
858.17	227.64
858.48	227.61
858.79	227.62
859.11	227.64
859.42	227.60
859.73	227.56
860.04	227.58
860.35	227.59
860.66	227.57
860.98	227.57
861.29	227.59
861.60	227.57
861.91	227.59
862.22	227.56
862.53	227.55
862.84	227.40
863.16	227.44
863.47	227.45
863.78	227.48
864.09	227.50
864.40	227.52
864.71	227.53
865.02	227.54
865.33	227.48
865.64	227.46
865.95	227.45
866.27	227.52
866.58	227.49
866.89	227.48
867.20	227.45
867.51	227.42
867.82	227.43
868.13	227.43
868.44	227.40
868.75	227.45
869.06	227.47
869.37	227.49
869.68	227.45
869.99	227.49
870.30	227.48
870.61	227.47
870.92	227.44
871.23	227.41
871.54	227.43
871.85	227.45
872.16	227.45
872.47	227.44
872.78	227.41
873.09	227.43
873.40	227.42
873.71	227.43
874.02	227.42
874.33	227.36
874.64	227.37
874.95	227.36
875.26	227.30
875.56	227.32
875.87	227.34
876.18	227.32
876.49	227.37
876.80	227.36
877.11	227.34
877.42	227.33
877.73	227.37
878.04	227.38
878.35	227.38
878.66	227.39
878.96	227.41
879.27	227.38
879.58	227.36
879.89	227.34
880.20	227.38
880.51	227.37
880.82	227.41
881.12	227.44
881.43	227.44
881.74	227.44
882.05	227.43
882.36	227.42
882.67	227.46
882.97	227.35
883.28	227.37
883.59	227.38
883.90	227.37
884.21	227.35
884.51	227.33
884.82	227.33
885.13	227.31
885.44	227.30
885.74	227.31
886.05	227.30
886.36	227.31
886.67	227.28
886.98	227.35
887.28	227.36
887.59	227.36
887.90	227.37
888.20	227.39
888.51	227.41
888.82	227.40
889.13	227.38
889.43	227.48
889.74	227.45
890.05	227.44
890.35	227.48
890.66	227.49
890.97	227.46
891.28	227.47
891.58	227.48
891.89	227.48
892.20	227.47
892.50	227.48
892.81	227.47
893.12	227.46
893.42	227.39
893.73	227.38
894.04	227.35
894.34	227.34
894.65	227.29
894.95	227.25
895.26	227.25
895.57	227.29
895.87	227.20
896.18	227.20
896.48	227.19
896.79	227.18
897.10	227.20
897.40	227.20
897.71	227.19
898.01	227.19
898.32	227.21
898.63	227.19
898.93	227.19
899.24	227.19
899.54	227.19
899.85	227.20
900.15	227.18
900.46	227.20
900.76	227.22
901.07	227.26
901.38	227.26
901.68	227.26
901.99	227.20
902.29	227.18
902.60	227.20
902.90	227.19
903.21	227.16
903.51	227.13
903.82	227.15
904.12	227.19
904.43	227.15
904.73	227.16
905.03	227.17
905.34	227.26
905.64	227.26
905.95	227.26
906.25	227.26
906.56	227.26
906.86	227.23
907.17	227.22
907.47	227.23
907.77	227.24
908.08	227.25
908.38	227.27
908.69	227.33
908.99	227.32
909.30	227.32
909.60	227.31
909.90	227.31
910.21	227.29
910.51	227.22
910.81	227.22
911.12	227.18
911.42	227.17
911.73	227.03
912.03	227.02
912.33	227.03
912.64	227.03
912.94	227.01
913.24	227.03
913.55	227.01
913.85	226.98
914.15	226.98
914.46	226.98
914.76	226.97
915.06	226.93
915.37	226.92
915.67	226.93
915.97	226.95
916.27	226.93
916.58	226.94
916.88	226.95
917.18	226.96
917.49	227.06
917.79	227.05
918.09	227.14
918.39	227.17
918.70	227.17
919.00	227.16
919.30	227.23
919.60	227.20
919.91	227.23
920.21	227.24
920.51	227.23
920.81	227.20
921.12	227.18
921.42	227.21
921.72	227.22
922.02	227.19
922.32	227.23
922.63	227.23
922.93	227.26
923.23	227.28
923.53	227.27
923.83	227.19
924.13	227.21
924.44	227.18
924.74	227.21
925.04	227.23
925.34	227.22
925.64	227.17
925.94	227.19
926.24	227.22
926.55	227.24
926.85	227.25
927.15	227.28
927.45	227.30
927.75	227.28
928.05	227.28
928.35	227.27
928.65	227.25
928.95	227.26
929.26	227.25
929.56	227.28
929.86	227.26
930.16	227.23
930.46	227.22
930.76	227.22
931.06	227.16
931.36	227.15
931.66	227.17
931.96	227.19
932.26	227.21
932.56	227.14
932.86	227.14
933.16	227.12
933.46	227.09
933.76	227.05
934.06	227.05
934.36	227.06
934.66	227.08
934.96	227.06
935.26	227.04
935.56	227.06
935.86	227.02
936.16	227.03
936.46	227.06
936.76	227.05
937.06	227.04
937.36	227.04
937.66	227.03
937.96	227.02
938.26	226.98
938.56	226.93
938.86	226.96
939.16	226.93
939.46	226.94
939.76	226.97
940.06	226.95
940.35	226.91
940.65	226.91
940.95	226.91
941.25	226.89
941.55	226.89
941.85	226.88
942.15	226.87
942.45	226.88
942.75	226.84
943.04	226.82
943.34	226.85
943.64	226.83
943.94	226.82
944.24	226.86
944.54	226.88
944.84	226.87
945.13	226.88
945.43	226.88
945.73	226.89
946.03	226.85
946.33	226.90
946.62	226.91
946.92	226.87
947.22	226.87
947.52	226.86
947.82	226.87
948.11	226.86
948.41	226.86
948.71	226.85
949.01	226.83
949.31	226.87
949.60	226.86
949.90	226.88
950.20	226.84
950.50	226.77
950.79	226.78
951.09	226.82
951.39	226.78
951.69	226.76
951.98	226.77
952.28	226.76
952.58	226.71
952.87	226.74
953.17	226.77
953.47	226.75
953.76	226.76
954.06	226.75
954.36	226.71
954.66	226.72
954.95	226.73
955.25	226.76
955.55	226.75
955.84	226.71
956.14	226.75
956.44	226.79
956.73	226.78
957.03	226.79
957.32	226.79
957.62	226.79
957.92	226.84
958.21	226.81
958.51	226.92
958.81	226.92
959.10	226.93
959.40	226.96
959.69	226.95
959.99	226.96
960.29	226.96
960.58	226.97
960.88	227.00
961.17	227.01
961.47	227.01
961.76	226.99
962.06	227.02
962.36	227.00
962.65	226.98
962.95	227.00
963.24	226.98
963.54	226.93
963.83	226.94
964.13	226.90
964.42	226.89
964.72	226.81
965.01	226.83
965.31	226.82
965.60	226.77
965.90	226.86
966.19	226.83
966.49	226.82
966.78	226.83
967.08	226.81
967.37	226.78
967.67	226.78
967.96	226.79
968.26	226.78
968.55	226.79
968.85	226.80
969.14	226.80
969.43	226.79
969.73	226.82
970.02	226.80
970.32	226.83
970.61	226.85
970.91	226.83
971.20	226.84
971.49	226.84
971.79	226.84
972.08	226.79
972.38	226.81
972.67	226.81
972.96	226.84
973.26	226.83
973.55	226.88
973.85	226.85
974.14	226.85
974.43	226.85
974.73	226.82
975.02	226.81
975.31	226.80
975.61	226.83
975.90	226.82
976.19	226.82
976.49	226.83
976.78	226.83
977.07	226.84
977.37	226.86
977.66	226.88
977.95	226.87
978.24	226.91
978.54	226.91
978.83	226.94
979.12	226.93
979.42	226.93
979.71	226.88
980.00	226.91
980.29	226.91
980.59	226.92
980.88	226.95
981.17	226.97
981.46	227.00
981.76	226.99
982.05	227.02
982.34	227.05
982.63	227.05
982.93	227.06
983.22	227.08
983.51	227.10
983.80	227.08
984.09	227.14
984.39	227.12
984.68	227.14
984.97	227.14
985.26	227.13
985.55	227.15
985.85	227.17
986.14	227.20
986.43	227.23
986.72	227.23
987.01	227.21
987.30	227.26
987.59	227.25
987.89	227.26
988.18	227.23
988.47	227.23
988.76	227.24
989.05	227.24
989.34	227.24
989.63	227.24
989.92	227.24
990.22	227.20
990.51	227.20
990.80	227.19
991.09	227.18
991.38	227.19
991.67	227.18
991.96	227.14
992.25	227.12
992.54	227.11
992.83	227.11
993.12	227.08
993.41	227.05
993.70	227.06
993.99	227.08
994.28	227.07
994.58	227.06
994.87	227.01
995.16	226.97
995.45	226.92
995.74	226.87
996.03	226.90
996.32	226.91
996.61	226.90
996.90	226.89
997.19	226.87
997.48	226.86
997.77	226.85
998.06	226.86
998.34	226.86
998.63	226.83
998.92	226.83
999.21	226.85
999.50	226.81
999.79	226.81
1000.08	226.80
1000.37	226.78
1000.66	226.77
1000.95	226.80
1001.24	226.82
1001.53	226.85
1001.82	226.82
1002.11	226.78
1002.40	226.76
1002.68	226.76
1002.97	226.82
1003.26	226.85
1003.55	226.84
1003.84	226.83
1004.13	226.85
1004.42	226.84
1004.71	226.86
1004.99	226.83
1005.28	226.84
1005.57	226.85
1005.86	226.82
1006.15	226.79
1006.44	226.81
1006.72	226.82
1007.01	226.79
1007.30	226.79
1007.59	226.74
1007.88	226.78
1008.17	226.79
1008.45	226.77
1008.74	226.73
1009.03	226.69
1009.32	226.65
1009.60	226.66
1009.89	226.65
1010.18	226.61
1010.47	226.61
1010.76	226.61
1011.04	226.62
1011.33	226.60
1011.62	226.63
1011.91	226.60
1012.19	226.61
1012.48	226.59
1012.77	226.57
1013.05	226.64
1013.34	226.65
1013.63	226.69
1013.92	226.69
1014.20	226.67
1014.49	226.71
1014.78	226.75
1015.06	226.68
1015.35	226.69
1015.64	226.70
1015.92	226.70
1016.21	226.74
1016.50	226.74
1016.78	226.75
1017.07	226.75
1017.36	226.74
1017.64	226.70
1017.93	226.74
1018.22	226.74
1018.50	226.74
1018.79	226.76
1019.08	226.70
1019.36	226.72
1019.65	226.70
1019.93	226.74
1020.22	226.78
1020.51	226.80
1020.79	226.81
1021.08	226.64
1021.36	226.38
1021.65	226.89
1021.94	226.54
1022.22	227.12
1022.51	226.60
1022.79	227.57
1023.08	227.16
1023.36	227.66
1023.65	227.10
>>>>>End Processed Spectral Data<<<<<
