SpectraSuite Data File
++++++++++++++++++++++++++++++++++++
Date: Fri Feb 01 17:49:59 EST 2013
User: group
Dark Spectrum Present: No
Reference Spectrum Present: No
Number of Sampled Component Spectra: 1
Spectrometers: USB2E7196
Integration Time (usec): 35000 (USB2E7196)
Spectra Averaged: 100 (USB2E7196)
Boxcar Smoothing: 10 (USB2E7196)
Correct for Electrical Dark: No (USB2E7196)
Strobe/Lamp Enabled: No (USB2E7196)
Correct for Detector Non-linearity: No (USB2E7196)
Correct for Stray Light: No (USB2E7196)
Number of Pixels in Processed Spectrum: 2048
>>>>>Begin Processed Spectral Data<<<<<
339.09	0.00
339.48	212.94
339.86	214.18
340.24	214.88
340.63	217.51
341.01	219.69
341.39	219.31
341.78	221.25
342.16	222.38
342.54	222.94
342.93	211.16
343.31	221.82
343.69	222.35
344.07	222.81
344.46	223.26
344.84	223.63
345.22	223.85
345.60	224.12
345.99	224.27
346.37	224.37
346.75	224.47
347.13	224.53
347.52	224.58
347.90	224.66
348.28	224.69
348.66	224.74
349.05	224.76
349.43	224.80
349.81	224.83
350.19	224.86
350.57	224.92
350.96	224.96
351.34	225.03
351.72	225.12
352.10	225.23
352.48	225.30
352.87	225.35
353.25	225.43
353.63	225.50
354.01	225.58
354.39	225.64
354.77	225.71
355.15	225.84
355.54	225.89
355.92	225.93
356.30	225.98
356.68	226.11
357.06	226.18
357.44	226.26
357.82	226.33
358.20	226.40
358.58	226.45
358.97	226.53
359.35	226.62
359.73	226.69
360.11	226.72
360.49	226.78
360.87	226.81
361.25	226.85
361.63	226.93
362.01	226.99
362.39	227.03
362.77	227.06
363.15	227.10
363.53	227.13
363.91	227.13
364.29	227.16
364.67	227.13
365.05	227.16
365.43	227.19
365.81	227.20
366.19	227.24
366.57	227.31
366.95	227.30
367.33	227.29
367.71	227.28
368.09	227.31
368.47	227.31
368.85	227.32
369.23	227.33
369.61	227.27
369.99	227.25
370.37	227.29
370.75	227.32
371.13	227.24
371.51	227.21
371.89	227.21
372.27	227.21
372.65	227.13
373.03	227.08
373.41	227.00
373.78	226.95
374.16	226.86
374.54	226.76
374.92	226.70
375.30	226.65
375.68	226.58
376.06	226.50
376.44	226.45
376.82	226.38
377.19	226.31
377.57	226.26
377.95	226.19
378.33	226.12
378.71	226.02
379.09	225.99
379.47	225.93
379.84	225.85
380.22	225.77
380.60	225.73
380.98	225.68
381.36	225.66
381.73	225.58
382.11	225.53
382.49	225.50
382.87	225.43
383.25	225.37
383.62	225.45
384.00	225.44
384.38	225.37
384.76	225.38
385.13	225.38
385.51	225.31
385.89	225.26
386.27	225.21
386.64	225.16
387.02	225.10
387.40	225.08
387.78	225.06
388.15	225.02
388.53	224.95
388.91	224.89
389.29	224.81
389.66	224.79
390.04	224.78
390.42	224.78
390.79	224.77
391.17	224.74
391.55	224.60
391.92	224.54
392.30	224.57
392.68	224.49
393.05	224.50
393.43	224.48
393.81	224.48
394.18	224.47
394.56	224.48
394.94	224.53
395.31	224.54
395.69	224.60
396.06	224.62
396.44	224.65
396.82	224.68
397.19	224.77
397.57	224.81
397.95	224.86
398.32	224.85
398.70	224.91
399.07	225.00
399.45	225.08
399.82	225.15
400.20	225.18
400.58	225.29
400.95	225.30
401.33	225.41
401.70	225.56
402.08	225.62
402.45	225.71
402.83	225.81
403.20	225.90
403.58	225.98
403.95	226.15
404.33	226.30
404.71	226.45
405.08	226.68
405.46	226.81
405.83	226.99
406.21	227.17
406.58	227.34
406.96	227.52
407.33	227.68
407.70	227.90
408.08	228.22
408.45	228.47
408.83	228.75
409.20	228.99
409.58	229.21
409.95	229.56
410.33	229.88
410.70	230.19
411.08	230.58
411.45	230.94
411.82	231.31
412.20	231.75
412.57	232.22
412.95	232.59
413.32	233.11
413.69	233.61
414.07	234.15
414.44	234.75
414.82	235.38
415.19	236.09
415.56	236.77
415.94	237.48
416.31	238.27
416.68	239.08
417.06	240.02
417.43	240.91
417.81	241.90
418.18	242.91
418.55	243.99
418.93	245.10
419.30	246.26
419.67	247.45
420.04	248.69
420.42	250.03
420.79	251.54
421.16	253.01
421.54	254.56
421.91	256.15
422.28	257.79
422.66	259.52
423.03	261.22
423.40	262.99
423.77	264.82
424.15	266.73
424.52	268.69
424.89	270.78
425.26	272.82
425.64	274.72
426.01	276.80
426.38	278.97
426.75	281.21
427.13	283.49
427.50	285.90
427.87	288.37
428.24	290.79
428.61	293.08
428.99	295.64
429.36	298.43
429.73	301.16
430.10	303.83
430.47	306.50
430.85	309.29
431.22	312.22
431.59	315.29
431.96	318.19
432.33	321.46
432.70	324.58
433.08	328.24
433.45	331.65
433.82	335.06
434.19	338.85
434.56	342.50
434.93	345.98
435.30	349.40
435.68	353.13
436.05	356.83
436.42	360.49
436.79	363.76
437.16	367.29
437.53	371.00
437.90	374.65
438.27	378.28
438.64	381.97
439.01	385.33
439.38	388.27
439.75	391.13
440.13	394.35
440.50	397.39
440.87	399.81
441.24	402.41
441.61	405.26
441.98	407.22
442.35	409.61
442.72	412.01
443.09	414.37
443.46	415.74
443.83	416.55
444.20	417.23
444.57	418.37
444.94	418.72
445.31	419.19
445.68	419.68
446.05	419.83
446.42	419.35
446.79	418.83
447.16	418.34
447.53	417.91
447.90	416.45
448.27	415.00
448.64	412.91
449.01	411.42
449.37	408.83
449.74	406.34
450.11	403.36
450.48	400.16
450.85	396.85
451.22	394.06
451.59	391.39
451.96	388.85
452.33	385.46
452.70	382.41
453.07	378.68
453.43	374.89
453.80	371.20
454.17	367.69
454.54	364.38
454.91	360.81
455.28	357.29
455.65	354.00
456.02	350.74
456.38	347.97
456.75	344.48
457.12	341.56
457.49	338.60
457.86	335.75
458.23	333.29
458.59	330.58
458.96	327.81
459.33	325.37
459.70	322.91
460.07	320.94
460.43	318.68
460.80	316.50
461.17	314.62
461.54	312.64
461.91	310.76
462.27	308.81
462.64	307.16
463.01	305.39
463.38	303.67
463.74	301.93
464.11	300.36
464.48	299.01
464.85	297.50
465.21	296.36
465.58	295.16
465.95	293.72
466.32	292.52
466.68	291.34
467.05	290.18
467.42	289.03
467.78	287.78
468.15	286.60
468.52	285.75
468.88	284.62
469.25	283.62
469.62	282.78
469.98	281.91
470.35	281.03
470.72	280.27
471.08	279.43
471.45	278.66
471.82	277.90
472.18	277.08
472.55	276.55
472.92	275.90
473.28	275.30
473.65	274.70
474.02	274.16
474.38	273.65
474.75	273.18
475.11	272.69
475.48	272.30
475.85	271.98
476.21	271.68
476.58	271.38
476.94	271.12
477.31	270.89
477.67	270.63
478.04	270.47
478.41	270.31
478.77	270.24
479.14	270.15
479.50	270.12
479.87	270.18
480.23	270.17
480.60	270.14
480.96	270.17
481.33	270.34
481.69	270.45
482.06	270.60
482.42	270.76
482.79	270.97
483.15	271.30
483.52	271.65
483.88	271.89
484.25	272.24
484.61	272.64
484.98	273.06
485.34	273.62
485.71	274.21
486.07	274.78
486.44	275.35
486.80	276.02
487.17	276.74
487.53	277.55
487.90	278.40
488.26	279.38
488.62	280.36
488.99	281.33
489.35	282.40
489.72	283.52
490.08	284.74
490.44	286.03
490.81	287.36
491.17	288.75
491.54	290.32
491.90	291.89
492.26	293.64
492.63	295.48
492.99	297.37
493.36	299.33
493.72	301.47
494.08	303.67
494.45	306.01
494.81	308.50
495.17	311.01
495.54	313.71
495.90	316.49
496.26	319.44
496.63	322.56
496.99	325.83
497.35	329.26
497.72	332.83
498.08	336.51
498.44	340.37
498.80	344.45
499.17	348.67
499.53	353.10
499.89	357.67
500.26	362.33
500.62	367.19
500.98	372.42
501.34	377.74
501.71	383.34
502.07	389.10
502.43	395.04
502.79	401.16
503.16	407.49
503.52	414.10
503.88	420.81
504.24	427.81
504.60	435.04
504.97	442.51
505.33	450.22
505.69	458.31
506.05	466.54
506.41	474.91
506.78	483.54
507.14	492.40
507.50	501.63
507.86	511.20
508.22	520.89
508.59	530.55
508.95	540.63
509.31	550.98
509.67	561.62
510.03	572.47
510.39	583.69
510.75	595.18
511.12	606.78
511.48	618.81
511.84	631.00
512.20	643.21
512.56	655.90
512.92	668.84
513.28	682.04
513.64	695.35
514.00	708.88
514.37	722.64
514.73	736.62
515.09	750.44
515.45	764.62
515.81	779.18
516.17	794.09
516.53	809.25
516.89	824.54
517.25	839.73
517.61	855.21
517.97	870.59
518.33	886.02
518.69	901.85
519.05	917.91
519.41	934.16
519.77	950.98
520.13	967.71
520.49	984.21
520.85	1000.69
521.21	1017.59
521.57	1035.03
521.93	1051.98
522.29	1069.70
522.65	1087.43
523.01	1104.91
523.37	1122.33
523.73	1139.92
524.09	1157.33
524.45	1174.99
524.81	1193.00
525.17	1211.06
525.53	1229.55
525.89	1248.00
526.25	1266.44
526.61	1284.34
526.97	1302.59
527.33	1320.50
527.68	1338.52
528.04	1356.71
528.40	1374.91
528.76	1393.48
529.12	1411.70
529.48	1430.32
529.84	1447.86
530.20	1466.06
530.56	1484.83
530.91	1503.88
531.27	1522.34
531.63	1540.57
531.99	1558.75
532.35	1576.41
532.71	1594.16
533.07	1612.23
533.42	1629.86
533.78	1647.66
534.14	1665.60
534.50	1682.71
534.86	1700.51
535.21	1717.56
535.57	1735.18
535.93	1752.48
536.29	1769.07
536.65	1785.95
537.00	1802.45
537.36	1819.72
537.72	1836.07
538.08	1852.51
538.44	1868.21
538.79	1884.08
539.15	1899.50
539.51	1915.25
539.87	1931.51
540.22	1947.13
540.58	1962.86
540.94	1978.03
541.29	1992.81
541.65	2007.53
542.01	2022.68
542.37	2036.83
542.72	2051.20
543.08	2065.08
543.44	2079.61
543.79	2092.88
544.15	2105.80
544.51	2119.55
544.87	2132.41
545.22	2145.19
545.58	2157.20
545.94	2168.62
546.29	2180.28
546.65	2192.13
547.01	2203.18
547.36	2213.92
547.72	2224.33
548.07	2233.93
548.43	2243.91
548.79	2253.61
549.14	2263.09
549.50	2272.12
549.86	2281.62
550.21	2290.75
550.57	2299.63
550.92	2307.89
551.28	2316.59
551.64	2325.51
551.99	2333.58
552.35	2341.54
552.70	2349.35
553.06	2356.92
553.41	2365.17
553.77	2372.81
554.13	2380.56
554.48	2388.62
554.84	2395.91
555.19	2402.71
555.55	2409.62
555.90	2415.59
556.26	2422.29
556.61	2428.32
556.97	2434.32
557.32	2439.90
557.68	2445.51
558.03	2451.35
558.39	2456.48
558.74	2462.71
559.10	2467.96
559.45	2473.10
559.81	2478.53
560.16	2483.75
560.52	2488.38
560.87	2493.20
561.23	2497.15
561.58	2501.40
561.94	2504.98
562.29	2508.21
562.64	2512.31
563.00	2515.79
563.35	2520.64
563.71	2524.93
564.06	2529.32
564.42	2533.36
564.77	2537.03
565.12	2540.39
565.48	2543.33
565.83	2546.33
566.19	2548.65
566.54	2550.48
566.89	2552.63
567.25	2554.35
567.60	2556.60
567.96	2559.32
568.31	2560.90
568.66	2563.11
569.02	2564.43
569.37	2565.51
569.72	2567.21
570.08	2568.03
570.43	2568.87
570.78	2569.07
571.14	2567.93
571.49	2567.25
571.84	2567.50
572.20	2567.15
572.55	2566.72
572.90	2565.58
573.26	2564.53
573.61	2563.25
573.96	2562.11
574.31	2559.43
574.67	2556.74
575.02	2553.43
575.37	2550.26
575.72	2546.74
576.08	2543.25
576.43	2540.13
576.78	2536.68
577.13	2533.59
577.49	2530.58
577.84	2527.43
578.19	2523.68
578.54	2520.28
578.90	2516.04
579.25	2510.26
579.60	2504.99
579.95	2499.85
580.30	2494.42
580.66	2489.08
581.01	2483.77
581.36	2478.38
581.71	2473.97
582.06	2469.31
582.42	2464.59
582.77	2459.02
583.12	2454.22
583.47	2449.43
583.82	2444.14
584.17	2438.46
584.53	2432.73
584.88	2426.55
585.23	2420.21
585.58	2414.20
585.93	2408.29
586.28	2403.12
586.63	2397.72
586.98	2392.25
587.34	2387.07
587.69	2381.92
588.04	2376.38
588.39	2370.36
588.74	2363.35
589.09	2356.75
589.44	2349.33
589.79	2342.58
590.14	2336.46
590.49	2329.09
590.84	2321.97
591.19	2315.29
591.54	2308.19
591.89	2300.12
592.25	2292.80
592.60	2284.81
592.95	2276.52
593.30	2268.27
593.65	2259.76
594.00	2251.78
594.35	2243.49
594.70	2234.52
595.05	2226.64
595.40	2218.34
595.75	2209.80
596.10	2202.97
596.45	2195.39
596.80	2188.39
597.15	2180.93
597.50	2172.98
597.85	2165.75
598.19	2158.17
598.54	2150.16
598.89	2142.63
599.24	2135.86
599.59	2128.34
599.94	2121.22
600.29	2114.09
600.64	2106.57
600.99	2098.27
601.34	2090.66
601.69	2082.95
602.04	2075.22
602.39	2066.83
602.74	2059.14
603.08	2051.51
603.43	2043.65
603.78	2035.13
604.13	2026.99
604.48	2018.86
604.83	2011.09
605.18	2003.22
605.53	1994.28
605.87	1985.31
606.22	1977.01
606.57	1967.79
606.92	1959.24
607.27	1951.03
607.62	1942.95
607.96	1934.66
608.31	1927.15
608.66	1918.39
609.01	1909.69
609.36	1901.03
609.70	1891.87
610.05	1882.63
610.40	1873.93
610.75	1864.40
611.10	1855.71
611.44	1845.91
611.79	1836.59
612.14	1826.42
612.49	1815.79
612.83	1806.09
613.18	1796.67
613.53	1787.33
613.88	1777.62
614.22	1768.11
614.57	1758.08
614.92	1748.88
615.27	1740.27
615.61	1730.52
615.96	1721.32
616.31	1712.48
616.65	1703.87
617.00	1695.09
617.35	1686.03
617.70	1676.38
618.04	1666.55
618.39	1656.94
618.74	1648.12
619.08	1638.60
619.43	1629.81
619.78	1621.80
620.12	1613.44
620.47	1604.76
620.82	1595.36
621.16	1586.70
621.51	1577.81
621.85	1569.06
622.20	1559.15
622.55	1549.32
622.89	1540.24
623.24	1531.32
623.59	1522.66
623.93	1513.86
624.28	1505.40
624.62	1496.79
624.97	1488.46
625.32	1480.59
625.66	1472.39
626.01	1464.23
626.35	1455.63
626.70	1446.72
627.04	1437.78
627.39	1428.69
627.73	1420.02
628.08	1411.87
628.43	1403.57
628.77	1395.19
629.12	1386.60
629.46	1378.44
629.81	1369.84
630.15	1361.46
630.50	1352.96
630.84	1343.49
631.19	1334.37
631.53	1325.68
631.88	1316.97
632.22	1308.25
632.57	1299.79
632.91	1291.13
633.26	1282.53
633.60	1273.86
633.95	1265.55
634.29	1257.45
634.64	1249.92
634.98	1241.49
635.32	1233.35
635.67	1225.60
636.01	1217.85
636.36	1209.92
636.70	1202.32
637.05	1194.83
637.39	1187.43
637.73	1179.94
638.08	1173.23
638.42	1166.19
638.77	1158.71
639.11	1151.13
639.45	1143.68
639.80	1136.13
640.14	1128.90
640.49	1121.44
640.83	1114.23
641.17	1107.25
641.52	1099.94
641.86	1092.39
642.20	1085.72
642.55	1078.51
642.89	1071.16
643.23	1063.67
643.58	1057.06
643.92	1049.97
644.26	1043.09
644.61	1036.10
644.95	1029.14
645.29	1021.61
645.64	1014.00
645.98	1006.82
646.32	1000.05
646.66	993.17
647.01	986.53
647.35	979.93
647.69	973.14
648.04	966.84
648.38	960.12
648.72	953.32
649.06	946.44
649.41	939.64
649.75	932.89
650.09	926.09
650.43	919.46
650.78	912.40
651.12	905.58
651.46	899.00
651.80	892.52
652.14	886.39
652.49	880.25
652.83	874.35
653.17	867.92
653.51	861.52
653.85	855.35
654.20	848.93
654.54	842.07
654.88	835.65
655.22	828.92
655.56	822.47
655.90	816.28
656.25	810.42
656.59	804.29
656.93	798.53
657.27	792.68
657.61	786.54
657.95	780.77
658.29	774.98
658.64	768.99
658.98	762.98
659.32	756.78
659.66	750.87
660.00	744.90
660.34	739.26
660.68	733.57
661.02	727.91
661.36	722.51
661.70	717.42
662.05	712.38
662.39	707.51
662.73	702.39
663.07	697.40
663.41	692.31
663.75	687.24
664.09	681.92
664.43	676.91
664.77	672.28
665.11	667.51
665.45	662.80
665.79	658.22
666.13	653.51
666.47	648.90
666.81	644.22
667.15	639.56
667.49	635.14
667.83	630.83
668.17	626.32
668.51	621.71
668.85	617.12
669.19	612.79
669.53	608.44
669.87	604.11
670.21	599.93
670.55	595.74
670.89	591.86
671.23	587.97
671.57	583.96
671.91	579.93
672.25	575.91
672.58	571.96
672.92	568.05
673.26	564.41
673.60	560.79
673.94	557.27
674.28	553.93
674.62	550.56
674.96	547.08
675.30	543.78
675.64	540.49
675.97	537.31
676.31	534.00
676.65	530.65
676.99	527.58
677.33	524.27
677.67	521.07
678.01	517.62
678.34	514.29
678.68	511.05
679.02	507.82
679.36	504.65
679.70	501.57
680.04	498.43
680.37	495.23
680.71	492.08
681.05	489.10
681.39	486.04
681.73	483.06
682.06	480.18
682.40	477.30
682.74	474.41
683.08	471.55
683.42	468.61
683.75	465.80
684.09	462.83
684.43	460.04
684.77	457.24
685.10	454.54
685.44	451.87
685.78	449.24
686.12	446.70
686.45	444.04
686.79	441.41
687.13	438.87
687.46	436.32
687.80	433.82
688.14	431.27
688.48	428.87
688.81	426.29
689.15	423.77
689.49	421.31
689.82	418.88
690.16	416.49
690.50	414.27
690.83	412.02
691.17	409.76
691.51	407.54
691.84	405.43
692.18	403.23
692.52	401.02
692.85	398.79
693.19	396.63
693.52	394.53
693.86	392.42
694.20	390.34
694.53	388.28
694.87	386.12
695.21	384.02
695.54	381.92
695.88	379.96
696.21	378.00
696.55	376.07
696.88	374.18
697.22	372.20
697.56	370.30
697.89	368.48
698.23	366.64
698.56	364.81
698.90	362.98
699.23	361.10
699.57	359.30
699.90	357.53
700.24	355.78
700.58	354.06
700.91	352.34
701.25	350.68
701.58	349.17
701.92	347.66
702.25	346.07
702.59	344.56
702.92	343.04
703.26	341.54
703.59	340.05
703.93	338.66
704.26	337.29
704.60	335.85
704.93	334.35
705.26	332.90
705.60	331.54
705.93	330.23
706.27	329.07
706.60	327.84
706.94	326.62
707.27	325.32
707.61	324.06
707.94	322.94
708.27	321.71
708.61	320.42
708.94	319.27
709.28	318.18
709.61	317.05
709.94	315.97
710.28	314.78
710.61	313.69
710.95	312.46
711.28	311.39
711.61	310.28
711.95	309.24
712.28	308.19
712.61	307.07
712.95	305.99
713.28	304.92
713.61	303.89
713.95	302.86
714.28	301.91
714.61	300.97
714.95	299.98
715.28	299.06
715.61	298.10
715.95	297.10
716.28	296.12
716.61	295.13
716.95	294.18
717.28	293.38
717.61	292.54
717.94	291.72
718.28	290.79
718.61	289.98
718.94	289.14
719.27	288.38
719.61	287.66
719.94	286.86
720.27	286.09
720.60	285.33
720.94	284.65
721.27	283.95
721.60	283.29
721.93	282.60
722.27	281.94
722.60	281.32
722.93	280.69
723.26	280.06
723.59	279.50
723.93	278.89
724.26	278.24
724.59	277.59
724.92	276.98
725.25	276.44
725.59	275.89
725.92	275.33
726.25	274.76
726.58	274.19
726.91	273.64
727.24	273.12
727.57	272.58
727.91	271.98
728.24	271.40
728.57	270.83
728.90	270.33
729.23	269.77
729.56	269.23
729.89	268.70
730.22	268.14
730.55	267.53
730.89	267.01
731.22	266.49
731.55	265.97
731.88	265.49
732.21	264.99
732.54	264.43
732.87	263.95
733.20	263.50
733.53	263.06
733.86	262.64
734.19	262.14
734.52	261.75
734.85	261.40
735.18	260.98
735.51	260.54
735.84	260.10
736.17	259.69
736.50	259.26
736.83	259.00
737.16	258.64
737.49	258.26
737.82	257.82
738.15	257.43
738.48	257.06
738.81	256.66
739.14	256.24
739.47	255.86
739.80	255.48
740.13	255.14
740.46	254.75
740.79	254.42
741.12	254.08
741.45	253.68
741.78	253.25
742.11	252.94
742.44	252.55
742.77	252.21
743.10	251.86
743.43	251.49
743.75	251.06
744.08	250.91
744.41	250.62
744.74	250.37
745.07	250.06
745.40	249.77
745.73	249.52
746.06	249.22
746.39	248.98
746.71	248.69
747.04	248.37
747.37	248.11
747.70	247.82
748.03	247.52
748.36	247.29
748.68	247.04
749.01	246.72
749.34	246.48
749.67	246.22
750.00	245.96
750.33	245.78
750.65	245.53
750.98	245.13
751.31	244.88
751.64	244.64
751.97	244.45
752.29	244.21
752.62	243.96
752.95	243.77
753.28	243.50
753.60	243.26
753.93	243.04
754.26	242.80
754.59	242.53
754.91	242.34
755.24	242.09
755.57	241.87
755.90	241.69
756.22	241.46
756.55	241.26
756.88	241.05
757.20	240.81
757.53	240.58
757.86	240.39
758.19	240.21
758.51	240.00
758.84	239.76
759.17	239.57
759.49	239.37
759.82	239.20
760.15	239.06
760.47	238.90
760.80	238.72
761.13	238.58
761.45	238.40
761.78	238.22
762.11	238.05
762.43	237.91
762.76	237.73
763.08	237.62
763.41	237.49
763.74	237.37
764.06	237.20
764.39	237.02
764.71	236.85
765.04	236.70
765.37	236.53
765.69	236.41
766.02	236.26
766.34	236.12
766.67	235.97
767.00	235.82
767.32	235.76
767.65	235.69
767.97	235.53
768.30	235.42
768.62	235.30
768.95	235.14
769.27	235.01
769.60	234.89
769.92	234.72
770.25	234.57
770.57	234.43
770.90	234.33
771.22	234.24
771.55	234.12
771.87	234.00
772.20	233.89
772.52	233.84
772.85	233.86
773.17	233.74
773.50	233.61
773.82	233.49
774.15	233.32
774.47	233.16
774.80	233.07
775.12	232.96
775.45	232.85
775.77	232.76
776.09	232.64
776.42	232.56
776.74	232.49
777.07	232.36
777.39	232.26
777.72	232.18
778.04	232.10
778.36	232.02
778.69	231.98
779.01	231.93
779.33	231.76
779.66	231.56
779.98	231.45
780.31	231.38
780.63	231.33
780.95	231.26
781.28	231.19
781.60	231.07
781.92	230.98
782.25	230.88
782.57	230.81
782.89	230.74
783.22	230.66
783.54	230.57
783.86	230.52
784.19	230.46
784.51	230.40
784.83	230.30
785.16	230.24
785.48	230.14
785.80	230.08
786.12	230.01
786.45	229.97
786.77	229.98
787.09	229.90
787.42	229.85
787.74	229.80
788.06	229.73
788.38	229.69
788.71	229.65
789.03	229.64
789.35	229.61
789.67	229.60
789.99	229.57
790.32	229.54
790.64	229.53
790.96	229.55
791.28	229.45
791.61	229.45
791.93	229.42
792.25	229.37
792.57	229.40
792.89	229.37
793.21	229.31
793.54	229.21
793.86	229.19
794.18	229.16
794.50	229.09
794.82	229.06
795.14	229.06
795.47	229.03
795.79	228.96
796.11	228.93
796.43	228.86
796.75	228.84
797.07	228.77
797.39	228.72
797.71	228.63
798.04	228.61
798.36	228.59
798.68	228.52
799.00	228.53
799.32	228.44
799.64	228.42
799.96	228.39
800.28	228.40
800.60	228.37
800.92	228.32
801.24	228.28
801.56	228.25
801.89	228.22
802.21	228.18
802.53	228.15
802.85	228.12
803.17	228.12
803.49	228.04
803.81	228.01
804.13	227.97
804.45	227.92
804.77	227.90
805.09	227.84
805.41	227.82
805.73	227.77
806.05	227.73
806.37	227.66
806.69	227.65
807.01	227.60
807.33	227.58
807.65	227.51
807.97	227.55
808.28	227.50
808.60	227.42
808.92	227.37
809.24	227.41
809.56	227.36
809.88	227.33
810.20	227.32
810.52	227.33
810.84	227.28
811.16	227.25
811.48	227.23
811.80	227.24
812.12	227.23
812.43	227.23
812.75	227.17
813.07	227.13
813.39	227.12
813.71	227.09
814.03	227.04
814.35	227.04
814.67	226.95
814.98	226.90
815.30	226.88
815.62	226.89
815.94	226.78
816.26	226.84
816.58	226.78
816.89	226.78
817.21	226.72
817.53	226.69
817.85	226.66
818.17	226.62
818.48	226.55
818.80	226.55
819.12	226.46
819.44	226.44
819.76	226.42
820.07	226.33
820.39	226.30
820.71	226.29
821.03	226.26
821.34	226.22
821.66	226.23
821.98	226.22
822.30	226.17
822.61	226.21
822.93	226.13
823.25	226.11
823.57	226.06
823.88	226.08
824.20	226.06
824.52	226.08
824.83	226.08
825.15	226.05
825.47	226.01
825.79	226.01
826.10	225.99
826.42	225.97
826.74	225.98
827.05	225.96
827.37	225.96
827.69	225.94
828.00	225.97
828.32	225.99
828.64	225.97
828.95	226.04
829.27	226.01
829.58	226.01
829.90	226.04
830.22	226.03
830.53	225.98
830.85	225.94
831.17	225.89
831.48	225.89
831.80	225.91
832.11	225.88
832.43	225.90
832.75	225.90
833.06	225.97
833.38	225.98
833.69	225.95
834.01	225.95
834.32	225.95
834.64	225.90
834.96	225.88
835.27	225.88
835.59	225.81
835.90	225.80
836.22	225.78
836.53	225.76
836.85	225.75
837.16	225.85
837.48	225.88
837.79	225.92
838.11	225.92
838.42	225.92
838.74	225.96
839.05	225.94
839.37	225.93
839.68	225.85
840.00	225.83
840.31	225.86
840.63	225.81
840.94	225.77
841.26	225.77
841.57	225.77
841.88	225.76
842.20	225.77
842.51	225.74
842.83	225.76
843.14	225.83
843.46	225.82
843.77	225.77
844.08	225.74
844.40	225.71
844.71	225.68
845.03	225.66
845.34	225.63
845.65	225.60
845.97	225.58
846.28	225.60
846.60	225.59
846.91	225.58
847.22	225.62
847.54	225.66
847.85	225.68
848.16	225.65
848.48	225.64
848.79	225.65
849.10	225.64
849.42	225.64
849.73	225.54
850.04	225.51
850.36	225.45
850.67	225.51
850.98	225.46
851.30	225.45
851.61	225.43
851.92	225.42
852.23	225.45
852.55	225.44
852.86	225.42
853.17	225.43
853.49	225.42
853.80	225.41
854.11	225.41
854.42	225.37
854.74	225.36
855.05	225.35
855.36	225.28
855.67	225.28
855.99	225.24
856.30	225.36
856.61	225.36
856.92	225.36
857.23	225.32
857.55	225.30
857.86	225.28
858.17	225.27
858.48	225.26
858.79	225.24
859.11	225.24
859.42	225.23
859.73	225.19
860.04	225.20
860.35	225.13
860.66	225.08
860.98	225.09
861.29	225.09
861.60	225.08
861.91	225.13
862.22	225.11
862.53	225.11
862.84	224.97
863.16	225.00
863.47	224.96
863.78	224.97
864.09	224.97
864.40	224.97
864.71	224.99
865.02	225.00
865.33	224.98
865.64	224.97
865.95	224.98
866.27	225.08
866.58	225.04
866.89	225.10
867.20	225.11
867.51	225.06
867.82	225.06
868.13	225.09
868.44	225.06
868.75	225.07
869.06	225.08
869.37	225.10
869.68	225.09
869.99	225.11
870.30	225.12
870.61	225.15
870.92	225.14
871.23	225.13
871.54	225.14
871.85	225.18
872.16	225.20
872.47	225.20
872.78	225.15
873.09	225.19
873.40	225.17
873.71	225.14
874.02	225.17
874.33	225.20
874.64	225.17
874.95	225.22
875.26	225.22
875.56	225.22
875.87	225.21
876.18	225.17
876.49	225.29
876.80	225.26
877.11	225.24
877.42	225.26
877.73	225.27
878.04	225.25
878.35	225.22
878.66	225.25
878.96	225.23
879.27	225.21
879.58	225.23
879.89	225.25
880.20	225.29
880.51	225.28
880.82	225.27
881.12	225.30
881.43	225.27
881.74	225.25
882.05	225.24
882.36	225.23
882.67	225.24
882.97	225.14
883.28	225.15
883.59	225.14
883.90	225.14
884.21	225.15
884.51	225.19
884.82	225.18
885.13	225.13
885.44	225.12
885.74	225.12
886.05	225.07
886.36	225.06
886.67	225.03
886.98	225.10
887.28	225.07
887.59	225.03
887.90	225.01
888.20	225.00
888.51	225.01
888.82	225.01
889.13	225.01
889.43	225.11
889.74	225.08
890.05	225.09
890.35	225.08
890.66	225.08
890.97	225.03
891.28	225.02
891.58	225.03
891.89	225.02
892.20	225.04
892.50	225.04
892.81	224.99
893.12	224.96
893.42	224.91
893.73	224.93
894.04	224.94
894.34	224.96
894.65	224.96
894.95	224.91
895.26	224.91
895.57	224.93
895.87	224.80
896.18	224.81
896.48	224.83
896.79	224.83
897.10	224.81
897.40	224.81
897.71	224.82
898.01	224.82
898.32	224.84
898.63	224.80
898.93	224.80
899.24	224.82
899.54	224.83
899.85	224.81
900.15	224.81
900.46	224.81
900.76	224.79
901.07	224.80
901.38	224.82
901.68	224.86
901.99	224.81
902.29	224.81
902.60	224.79
902.90	224.77
903.21	224.77
903.51	224.75
903.82	224.78
904.12	224.83
904.43	224.83
904.73	224.81
905.03	224.80
905.34	224.91
905.64	224.89
905.95	224.89
906.25	224.91
906.56	224.90
906.86	224.90
907.17	224.92
907.47	224.92
907.77	224.93
908.08	224.91
908.38	224.92
908.69	224.93
908.99	224.96
909.30	224.99
909.60	225.01
909.90	225.03
910.21	225.00
910.51	224.96
910.81	224.95
911.12	224.96
911.42	225.00
911.73	224.89
912.03	224.94
912.33	224.97
912.64	224.95
912.94	224.94
913.24	224.94
913.55	224.92
913.85	224.91
914.15	224.94
914.46	224.95
914.76	224.94
915.06	224.93
915.37	224.89
915.67	224.85
915.97	224.81
916.27	224.79
916.58	224.81
916.88	224.78
917.18	224.78
917.49	224.85
917.79	224.86
918.09	224.87
918.39	224.88
918.70	224.85
919.00	224.84
919.30	224.88
919.60	224.87
919.91	224.89
920.21	224.90
920.51	224.88
920.81	224.85
921.12	224.87
921.42	224.88
921.72	224.92
922.02	224.97
922.32	224.98
922.63	224.99
922.93	225.05
923.23	225.08
923.53	225.05
923.83	224.98
924.13	225.00
924.44	225.03
924.74	225.06
925.04	225.10
925.34	225.12
925.64	225.12
925.94	225.10
926.24	225.13
926.55	225.17
926.85	225.17
927.15	225.18
927.45	225.18
927.75	225.21
928.05	225.20
928.35	225.17
928.65	225.19
928.95	225.20
929.26	225.16
929.56	225.16
929.86	225.18
930.16	225.16
930.46	225.12
930.76	225.12
931.06	225.05
931.36	225.02
931.66	225.01
931.96	225.02
932.26	225.04
932.56	224.99
932.86	224.94
933.16	224.94
933.46	224.96
933.76	224.95
934.06	224.93
934.36	224.94
934.66	224.94
934.96	224.94
935.26	224.91
935.56	224.90
935.86	224.90
936.16	224.91
936.46	224.90
936.76	224.87
937.06	224.85
937.36	224.87
937.66	224.90
937.96	224.90
938.26	224.84
938.56	224.86
938.86	224.85
939.16	224.91
939.46	224.91
939.76	224.91
940.06	224.92
940.35	224.90
940.65	224.89
940.95	224.90
941.25	224.89
941.55	224.91
941.85	224.90
942.15	224.86
942.45	224.89
942.75	224.88
943.04	224.93
943.34	224.94
943.64	224.90
943.94	224.86
944.24	224.83
944.54	224.84
944.84	224.82
945.13	224.83
945.43	224.77
945.73	224.75
946.03	224.71
946.33	224.71
946.62	224.70
946.92	224.70
947.22	224.69
947.52	224.70
947.82	224.70
948.11	224.70
948.41	224.70
948.71	224.67
949.01	224.71
949.31	224.68
949.60	224.64
949.90	224.69
950.20	224.71
950.50	224.72
950.79	224.74
951.09	224.77
951.39	224.75
951.69	224.78
951.98	224.78
952.28	224.79
952.58	224.77
952.87	224.76
953.17	224.77
953.47	224.74
953.76	224.74
954.06	224.73
954.36	224.71
954.66	224.74
954.95	224.73
955.25	224.74
955.55	224.76
955.84	224.78
956.14	224.77
956.44	224.80
956.73	224.77
957.03	224.75
957.32	224.73
957.62	224.71
957.92	224.72
958.21	224.74
958.51	224.87
958.81	224.89
959.10	224.90
959.40	224.93
959.69	224.96
959.99	224.97
960.29	224.98
960.58	225.02
960.88	225.03
961.17	225.01
961.47	225.03
961.76	225.05
962.06	225.07
962.36	225.03
962.65	225.00
962.95	225.01
963.24	225.01
963.54	225.04
963.83	225.06
964.13	225.03
964.42	225.01
964.72	224.89
965.01	224.88
965.31	224.85
965.60	224.80
965.90	224.84
966.19	224.78
966.49	224.77
966.78	224.74
967.08	224.74
967.37	224.79
967.67	224.74
967.96	224.75
968.26	224.69
968.55	224.72
968.85	224.71
969.14	224.72
969.43	224.72
969.73	224.70
970.02	224.67
970.32	224.69
970.61	224.68
970.91	224.66
971.20	224.64
971.49	224.67
971.79	224.67
972.08	224.58
972.38	224.64
972.67	224.63
972.96	224.66
973.26	224.62
973.55	224.61
973.85	224.62
974.14	224.57
974.43	224.61
974.73	224.59
975.02	224.58
975.31	224.59
975.61	224.56
975.90	224.52
976.19	224.51
976.49	224.51
976.78	224.53
977.07	224.54
977.37	224.57
977.66	224.59
977.95	224.59
978.24	224.62
978.54	224.60
978.83	224.61
979.12	224.60
979.42	224.61
979.71	224.61
980.00	224.60
980.29	224.65
980.59	224.61
980.88	224.64
981.17	224.62
981.46	224.60
981.76	224.63
982.05	224.70
982.34	224.75
982.63	224.74
982.93	224.74
983.22	224.80
983.51	224.77
983.80	224.78
984.09	224.80
984.39	224.81
984.68	224.80
984.97	224.77
985.26	224.77
985.55	224.78
985.85	224.73
986.14	224.73
986.43	224.69
986.72	224.68
987.01	224.65
987.30	224.71
987.59	224.71
987.89	224.72
988.18	224.68
988.47	224.66
988.76	224.66
989.05	224.62
989.34	224.60
989.63	224.66
989.92	224.62
990.22	224.61
990.51	224.59
990.80	224.57
991.09	224.61
991.38	224.63
991.67	224.61
991.96	224.61
992.25	224.64
992.54	224.62
992.83	224.62
993.12	224.63
993.41	224.62
993.70	224.66
993.99	224.67
994.28	224.66
994.58	224.67
994.87	224.65
995.16	224.66
995.45	224.61
995.74	224.57
996.03	224.58
996.32	224.56
996.61	224.56
996.90	224.57
997.19	224.55
997.48	224.53
997.77	224.53
998.06	224.51
998.34	224.51
998.63	224.52
998.92	224.50
999.21	224.48
999.50	224.46
999.79	224.43
1000.08	224.40
1000.37	224.40
1000.66	224.40
1000.95	224.42
1001.24	224.45
1001.53	224.46
1001.82	224.45
1002.11	224.44
1002.40	224.47
1002.68	224.49
1002.97	224.55
1003.26	224.52
1003.55	224.50
1003.84	224.51
1004.13	224.54
1004.42	224.49
1004.71	224.50
1004.99	224.51
1005.28	224.53
1005.57	224.51
1005.86	224.48
1006.15	224.48
1006.44	224.44
1006.72	224.44
1007.01	224.41
1007.30	224.39
1007.59	224.37
1007.88	224.37
1008.17	224.36
1008.45	224.33
1008.74	224.34
1009.03	224.30
1009.32	224.32
1009.60	224.32
1009.89	224.30
1010.18	224.27
1010.47	224.28
1010.76	224.27
1011.04	224.28
1011.33	224.27
1011.62	224.29
1011.91	224.32
1012.19	224.33
1012.48	224.37
1012.77	224.34
1013.05	224.39
1013.34	224.37
1013.63	224.33
1013.92	224.31
1014.20	224.32
1014.49	224.31
1014.78	224.26
1015.06	224.21
1015.35	224.22
1015.64	224.24
1015.92	224.28
1016.21	224.29
1016.50	224.27
1016.78	224.29
1017.07	224.33
1017.36	224.31
1017.64	224.30
1017.93	224.29
1018.22	224.28
1018.50	224.28
1018.79	224.28
1019.08	224.25
1019.36	224.28
1019.65	224.29
1019.93	224.33
1020.22	224.35
1020.51	224.38
1020.79	224.37
1021.08	224.04
1021.36	224.56
1021.65	223.91
1021.94	224.63
1022.22	224.36
1022.51	223.94
1022.79	224.56
1023.08	224.96
1023.36	224.95
1023.65	223.65
>>>>>End Processed Spectral Data<<<<<
