SpectraSuite Data File
++++++++++++++++++++++++++++++++++++
Date: Fri Feb 01 16:23:11 EST 2013
User: group
Dark Spectrum Present: No
Reference Spectrum Present: No
Number of Sampled Component Spectra: 1
Spectrometers: USB2E7196
Integration Time (usec): 35000 (USB2E7196)
Spectra Averaged: 100 (USB2E7196)
Boxcar Smoothing: 10 (USB2E7196)
Correct for Electrical Dark: No (USB2E7196)
Strobe/Lamp Enabled: No (USB2E7196)
Correct for Detector Non-linearity: No (USB2E7196)
Correct for Stray Light: No (USB2E7196)
Number of Pixels in Processed Spectrum: 2048
>>>>>Begin Processed Spectral Data<<<<<
339.09	0.00
339.48	214.22
339.86	215.91
340.24	217.01
340.63	218.05
341.01	221.45
341.39	221.22
341.78	223.16
342.16	224.03
342.54	223.86
342.93	212.60
343.31	223.36
343.69	223.89
344.07	224.35
344.46	224.78
344.84	225.17
345.22	225.40
345.60	225.64
345.99	225.78
346.37	225.91
346.75	226.04
347.13	226.10
347.52	226.13
347.90	226.23
348.28	226.24
348.66	226.30
349.05	226.31
349.43	226.34
349.81	226.38
350.19	226.40
350.57	226.46
350.96	226.50
351.34	226.55
351.72	226.62
352.10	226.70
352.48	226.74
352.87	226.78
353.25	226.82
353.63	226.86
354.01	226.92
354.39	226.97
354.77	227.04
355.15	227.13
355.54	227.20
355.92	227.21
356.30	227.28
356.68	227.40
357.06	227.44
357.44	227.52
357.82	227.55
358.20	227.63
358.58	227.67
358.97	227.77
359.35	227.83
359.73	227.91
360.11	227.98
360.49	228.04
360.87	228.10
361.25	228.14
361.63	228.24
362.01	228.28
362.39	228.28
362.77	228.30
363.15	228.35
363.53	228.37
363.91	228.39
364.29	228.40
364.67	228.32
365.05	228.33
365.43	228.30
365.81	228.33
366.19	228.37
366.57	228.39
366.95	228.38
367.33	228.34
367.71	228.35
368.09	228.34
368.47	228.33
368.85	228.29
369.23	228.32
369.61	228.25
369.99	228.25
370.37	228.25
370.75	228.29
371.13	228.19
371.51	228.13
371.89	228.10
372.27	228.07
372.65	228.07
373.03	228.04
373.41	228.02
373.78	227.98
374.16	227.91
374.54	227.83
374.92	227.76
375.30	227.73
375.68	227.61
376.06	227.53
376.44	227.45
376.82	227.42
377.19	227.32
377.57	227.26
377.95	227.15
378.33	227.11
378.71	226.96
379.09	226.94
379.47	226.92
379.84	226.85
380.22	226.81
380.60	226.72
380.98	226.68
381.36	226.59
381.73	226.53
382.11	226.48
382.49	226.41
382.87	226.37
383.25	226.30
383.62	226.38
384.00	226.32
384.38	226.29
384.76	226.24
385.13	226.25
385.51	226.22
385.89	226.17
386.27	226.13
386.64	226.09
387.02	226.04
387.40	226.00
387.78	225.97
388.15	225.89
388.53	225.85
388.91	225.81
389.29	225.81
389.66	225.79
390.04	225.73
390.42	225.76
390.79	225.73
391.17	225.72
391.55	225.60
391.92	225.63
392.30	225.65
392.68	225.63
393.05	225.59
393.43	225.60
393.81	225.60
394.18	225.56
394.56	225.59
394.94	225.60
395.31	225.59
395.69	225.66
396.06	225.71
396.44	225.72
396.82	225.75
397.19	225.81
397.57	225.85
397.95	225.92
398.32	225.90
398.70	225.96
399.07	226.05
399.45	226.07
399.82	226.13
400.20	226.14
400.58	226.23
400.95	226.26
401.33	226.34
401.70	226.50
402.08	226.60
402.45	226.71
402.83	226.82
403.20	226.93
403.58	226.98
403.95	227.11
404.33	227.24
404.71	227.34
405.08	227.52
405.46	227.65
405.83	227.80
406.21	227.95
406.58	228.10
406.96	228.21
407.33	228.40
407.70	228.56
408.08	228.83
408.45	229.04
408.83	229.28
409.20	229.49
409.58	229.68
409.95	229.94
410.33	230.19
410.70	230.43
411.08	230.74
411.45	231.06
411.82	231.36
412.20	231.71
412.57	232.14
412.95	232.45
413.32	232.87
413.69	233.26
414.07	233.70
414.44	234.19
414.82	234.65
415.19	235.21
415.56	235.74
415.94	236.29
416.31	236.93
416.68	237.57
417.06	238.29
417.43	238.96
417.81	239.74
418.18	240.50
418.55	241.35
418.93	242.21
419.30	243.09
419.67	244.02
420.04	245.00
420.42	245.99
420.79	247.19
421.16	248.32
421.54	249.53
421.91	250.73
422.28	251.98
422.66	253.34
423.03	254.64
423.40	256.00
423.77	257.39
424.15	258.83
424.52	260.35
424.89	261.95
425.26	263.50
425.64	264.94
426.01	266.54
426.38	268.18
426.75	269.85
427.13	271.59
427.50	273.39
427.87	275.24
428.24	277.11
428.61	278.80
428.99	280.75
429.36	282.87
429.73	284.96
430.10	286.95
430.47	289.01
430.85	291.15
431.22	293.41
431.59	295.82
431.96	298.04
432.33	300.54
432.70	302.94
433.08	305.75
433.45	308.38
433.82	310.96
434.19	313.92
434.56	316.75
434.93	319.40
435.30	322.00
435.68	324.90
436.05	327.67
436.42	330.45
436.79	332.96
437.16	335.66
437.53	338.43
437.90	341.29
438.27	344.04
438.64	346.84
439.01	349.38
439.38	351.59
439.75	353.71
440.13	356.12
440.50	358.39
440.87	360.20
441.24	362.15
441.61	364.29
441.98	365.70
442.35	367.45
442.72	369.32
443.09	371.15
443.46	372.11
443.83	372.71
444.20	373.23
444.57	374.05
444.94	374.28
445.31	374.61
445.68	374.95
446.05	374.99
446.42	374.61
446.79	374.18
447.16	373.73
447.53	373.43
447.90	372.27
448.27	371.13
448.64	369.57
449.01	368.44
449.37	366.47
449.74	364.59
450.11	362.33
450.48	359.81
450.85	357.24
451.22	355.13
451.59	353.13
451.96	351.21
452.33	348.60
452.70	346.28
453.07	343.49
453.43	340.59
453.80	337.90
454.17	335.26
454.54	332.72
454.91	330.04
455.28	327.40
455.65	324.95
456.02	322.53
456.38	320.40
456.75	317.73
457.12	315.49
457.49	313.26
457.86	311.11
458.23	309.34
458.59	307.31
458.96	305.22
459.33	303.35
459.70	301.48
460.07	299.97
460.43	298.26
460.80	296.65
461.17	295.19
461.54	293.65
461.91	292.21
462.27	290.79
462.64	289.53
463.01	288.17
463.38	286.89
463.74	285.53
464.11	284.36
464.48	283.36
464.85	282.32
465.21	281.46
465.58	280.56
465.95	279.42
466.32	278.52
466.68	277.63
467.05	276.75
467.42	275.88
467.78	274.96
468.15	274.08
468.52	273.45
468.88	272.62
469.25	271.87
469.62	271.28
469.98	270.60
470.35	269.98
470.72	269.38
471.08	268.71
471.45	268.13
471.82	267.60
472.18	266.98
472.55	266.50
472.92	265.99
473.28	265.54
473.65	265.11
474.02	264.67
474.38	264.34
474.75	264.04
475.11	263.66
475.48	263.44
475.85	263.25
476.21	262.96
476.58	262.82
476.94	262.67
477.31	262.52
477.67	262.38
478.04	262.29
478.41	262.25
478.77	262.33
479.14	262.29
479.50	262.29
479.87	262.39
480.23	262.48
480.60	262.58
480.96	262.64
481.33	262.88
481.69	263.10
482.06	263.26
482.42	263.46
482.79	263.79
483.15	264.12
483.52	264.47
483.88	264.88
484.25	265.26
484.61	265.72
484.98	266.12
485.34	266.69
485.71	267.28
486.07	267.88
486.44	268.43
486.80	269.14
487.17	269.89
487.53	270.69
487.90	271.58
488.26	272.51
488.62	273.55
488.99	274.51
489.35	275.55
489.72	276.71
490.08	277.91
490.44	279.12
490.81	280.44
491.17	281.77
491.54	283.25
491.90	284.72
492.26	286.34
492.63	288.11
492.99	289.88
493.36	291.76
493.72	293.83
494.08	295.97
494.45	298.21
494.81	300.57
495.17	303.03
495.54	305.59
495.90	308.24
496.26	311.04
496.63	314.01
496.99	317.12
497.35	320.38
497.72	323.80
498.08	327.29
498.44	330.99
498.80	334.92
499.17	338.95
499.53	343.16
499.89	347.53
500.26	352.02
500.62	356.71
500.98	361.68
501.34	366.73
501.71	372.06
502.07	377.50
502.43	383.11
502.79	388.92
503.16	395.01
503.52	401.28
503.88	407.68
504.24	414.32
504.60	421.24
504.97	428.35
505.33	435.70
505.69	443.43
506.05	451.22
506.41	459.14
506.78	467.25
507.14	475.72
507.50	484.47
507.86	493.56
508.22	502.75
508.59	511.97
508.95	521.57
509.31	531.34
509.67	541.50
510.03	551.81
510.39	562.35
510.75	573.12
511.12	584.09
511.48	595.37
511.84	606.81
512.20	618.24
512.56	630.14
512.92	642.31
513.28	654.65
513.64	667.11
514.00	679.80
514.37	692.85
514.73	705.95
515.09	718.92
515.45	732.09
515.81	745.65
516.17	759.61
516.53	773.76
516.89	787.99
517.25	802.11
517.61	816.55
517.97	831.07
518.33	845.43
518.69	860.20
519.05	875.17
519.41	890.37
519.77	906.02
520.13	921.46
520.49	936.78
520.85	952.11
521.21	967.76
521.57	983.97
521.93	999.65
522.29	1015.92
522.65	1032.20
523.01	1048.38
523.37	1064.48
523.73	1080.58
524.09	1096.57
524.45	1112.79
524.81	1129.44
525.17	1146.08
525.53	1162.97
525.89	1179.83
526.25	1196.60
526.61	1212.93
526.97	1229.52
527.33	1245.89
527.68	1262.46
528.04	1278.94
528.40	1295.44
528.76	1312.47
529.12	1328.97
529.48	1345.71
529.84	1361.67
530.20	1378.14
530.56	1395.18
530.91	1412.52
531.27	1429.22
531.63	1445.70
531.99	1462.18
532.35	1478.06
532.71	1493.88
533.07	1509.92
533.42	1525.79
533.78	1541.78
534.14	1557.92
534.50	1573.12
534.86	1588.84
535.21	1603.98
535.57	1619.76
535.93	1635.18
536.29	1649.81
536.65	1664.77
537.00	1679.55
537.36	1694.78
537.72	1709.33
538.08	1723.65
538.44	1737.20
538.79	1751.04
539.15	1764.59
539.51	1778.22
539.87	1792.45
540.22	1806.06
540.58	1819.73
540.94	1832.97
541.29	1845.64
541.65	1858.33
542.01	1871.56
542.37	1883.75
542.72	1896.12
543.08	1907.78
543.44	1920.18
543.79	1931.29
544.15	1942.19
544.51	1953.59
544.87	1964.48
545.22	1975.22
545.58	1985.28
545.94	1994.96
546.29	2004.66
546.65	2014.43
547.01	2023.82
547.36	2032.40
547.72	2040.86
548.07	2048.67
548.43	2056.61
548.79	2064.70
549.14	2072.13
549.50	2079.36
549.86	2087.05
550.21	2094.26
550.57	2101.45
550.92	2108.07
551.28	2115.16
551.64	2122.16
551.99	2128.73
552.35	2134.88
552.70	2141.04
553.06	2147.03
553.41	2153.45
553.77	2159.50
554.13	2165.61
554.48	2171.58
554.84	2177.04
555.19	2182.41
555.55	2187.71
555.90	2192.21
556.26	2197.13
556.61	2201.85
556.97	2206.20
557.32	2210.19
557.68	2214.29
558.03	2218.45
558.39	2222.09
558.74	2226.68
559.10	2230.66
559.45	2234.33
559.81	2238.51
560.16	2242.23
560.52	2245.49
560.87	2248.98
561.23	2251.56
561.58	2254.47
561.94	2256.97
562.29	2259.50
562.64	2262.12
563.00	2264.53
563.35	2268.16
563.71	2271.14
564.06	2274.54
564.42	2277.29
564.77	2279.91
565.12	2282.39
565.48	2284.52
565.83	2286.34
566.19	2287.72
566.54	2288.54
566.89	2289.67
567.25	2290.41
567.60	2291.72
567.96	2293.48
568.31	2294.22
568.66	2295.43
569.02	2296.10
569.37	2296.53
569.72	2297.30
570.08	2297.48
570.43	2297.71
570.78	2297.14
571.14	2295.77
571.49	2294.26
571.84	2294.10
572.20	2293.13
572.55	2292.03
572.90	2290.43
573.26	2289.11
573.61	2287.41
573.96	2285.81
574.31	2282.83
574.67	2279.79
575.02	2276.25
575.37	2272.87
575.72	2269.33
576.08	2266.04
576.43	2262.82
576.78	2259.19
577.13	2256.15
577.49	2253.26
577.84	2249.63
578.19	2246.00
578.54	2242.47
578.90	2238.33
579.25	2232.90
579.60	2227.93
579.95	2222.99
580.30	2218.08
580.66	2213.07
581.01	2208.15
581.36	2203.35
581.71	2199.40
582.06	2195.11
582.42	2190.73
582.77	2185.57
583.12	2180.89
583.47	2176.26
583.82	2171.19
584.17	2166.03
584.53	2160.62
584.88	2154.99
585.23	2149.45
585.58	2143.96
585.93	2138.42
586.28	2133.72
586.63	2128.57
586.98	2123.63
587.34	2118.90
587.69	2114.00
588.04	2108.79
588.39	2103.30
588.74	2096.85
589.09	2090.65
589.44	2083.79
589.79	2077.79
590.14	2072.28
590.49	2065.90
590.84	2059.50
591.19	2053.52
591.54	2047.09
591.89	2039.70
592.25	2032.78
592.60	2025.46
592.95	2017.89
593.30	2010.60
593.65	2003.05
594.00	1996.09
594.35	1988.87
594.70	1980.90
595.05	1973.76
595.40	1966.38
595.75	1958.80
596.10	1952.52
596.45	1945.81
596.80	1939.75
597.15	1933.23
597.50	1926.07
597.85	1919.52
598.19	1912.99
598.54	1905.86
598.89	1899.15
599.24	1893.25
599.59	1886.75
599.94	1880.64
600.29	1874.40
600.64	1867.96
600.99	1860.52
601.34	1853.90
601.69	1846.93
602.04	1840.15
602.39	1832.85
602.74	1826.14
603.08	1819.51
603.43	1812.83
603.78	1805.64
604.13	1798.50
604.48	1791.16
604.83	1784.31
605.18	1777.39
605.53	1769.38
605.87	1761.39
606.22	1754.25
606.57	1746.30
606.92	1738.97
607.27	1731.95
607.62	1725.08
607.96	1717.88
608.31	1711.39
608.66	1703.71
609.01	1696.16
609.36	1688.48
609.70	1680.48
610.05	1672.48
610.40	1664.81
610.75	1656.51
611.10	1648.90
611.44	1640.43
611.79	1632.56
612.14	1623.93
612.49	1614.90
612.83	1606.54
613.18	1598.46
613.53	1590.29
613.88	1581.75
614.22	1573.37
614.57	1564.70
614.92	1556.64
615.27	1548.93
615.61	1540.50
615.96	1532.37
616.31	1524.72
616.65	1517.43
617.00	1509.91
617.35	1502.25
617.70	1493.88
618.04	1485.38
618.39	1477.03
618.74	1469.34
619.08	1460.97
619.43	1453.37
619.78	1446.33
620.12	1439.05
620.47	1431.56
620.82	1423.36
621.16	1416.01
621.51	1408.49
621.85	1400.84
622.20	1392.30
622.55	1383.96
622.89	1376.21
623.24	1368.66
623.59	1361.23
623.93	1353.68
624.28	1346.29
624.62	1338.72
624.97	1331.53
625.32	1324.79
625.66	1317.83
626.01	1310.80
626.35	1303.37
626.70	1295.69
627.04	1287.96
627.39	1280.24
627.73	1272.84
628.08	1266.05
628.43	1258.73
628.77	1251.33
629.12	1243.83
629.46	1236.68
629.81	1229.28
630.15	1221.97
630.50	1214.43
630.84	1206.23
631.19	1198.29
631.53	1190.82
631.88	1183.26
632.22	1175.63
632.57	1168.25
632.91	1160.60
633.26	1153.13
633.60	1145.60
633.95	1138.36
634.29	1131.24
634.64	1124.65
634.98	1117.27
635.32	1110.05
635.67	1103.43
636.01	1096.81
636.36	1090.00
636.70	1083.49
637.05	1076.92
637.39	1070.52
637.73	1064.04
638.08	1058.11
638.42	1052.15
638.77	1045.74
639.11	1039.07
639.45	1032.67
639.80	1026.06
640.14	1019.75
640.49	1013.21
640.83	1007.06
641.17	1000.84
641.52	994.45
641.86	987.90
642.20	982.00
642.55	975.69
642.89	969.18
643.23	962.63
643.58	956.87
643.92	950.71
644.26	944.63
644.61	938.55
644.95	932.58
645.29	926.06
645.64	919.25
645.98	912.83
646.32	907.04
646.66	901.05
647.01	895.17
647.35	889.33
647.69	883.49
648.04	877.89
648.38	872.16
648.72	866.31
649.06	860.31
649.41	854.48
649.75	848.52
650.09	842.56
650.43	836.83
650.78	830.60
651.12	824.60
651.46	818.91
651.80	813.07
652.14	807.70
652.49	802.37
652.83	797.23
653.17	791.65
653.51	785.95
653.85	780.52
654.20	774.93
654.54	768.96
654.88	763.27
655.22	757.39
655.56	751.66
655.90	746.26
656.25	740.97
656.59	735.55
656.93	730.51
657.27	725.41
657.61	719.92
657.95	714.84
658.29	709.70
658.64	704.41
658.98	699.11
659.32	693.56
659.66	688.39
660.00	683.05
660.34	678.04
660.68	672.99
661.02	667.96
661.36	663.20
661.70	658.74
662.05	654.35
662.39	650.00
662.73	645.55
663.07	641.12
663.41	636.64
663.75	632.17
664.09	627.55
664.43	623.10
664.77	618.94
665.11	614.67
665.45	610.58
665.79	606.47
666.13	602.37
666.47	598.35
666.81	594.14
667.15	590.08
667.49	586.18
667.83	582.44
668.17	578.51
668.51	574.48
668.85	570.45
669.19	566.60
669.53	562.73
669.87	558.83
670.21	555.01
670.55	551.40
670.89	547.98
671.23	544.54
671.57	541.01
671.91	537.43
672.25	533.91
672.58	530.37
672.92	526.94
673.26	523.78
673.60	520.62
673.94	517.48
674.28	514.53
674.62	511.61
674.96	508.48
675.30	505.59
675.64	502.65
675.97	499.87
676.31	496.99
676.65	494.15
676.99	491.43
677.33	488.60
677.67	485.80
678.01	482.73
678.34	479.76
678.68	476.88
679.02	474.14
679.36	471.37
679.70	468.67
680.04	465.91
680.37	463.03
680.71	460.19
681.05	457.58
681.39	454.87
681.73	452.23
682.06	449.73
682.40	447.14
682.74	444.59
683.08	442.05
683.42	439.46
683.75	436.89
684.09	434.34
684.43	431.89
684.77	429.41
685.10	427.03
685.44	424.68
685.78	422.37
686.12	420.10
686.45	417.84
686.79	415.54
687.13	413.34
687.46	411.21
687.80	409.08
688.14	406.85
688.48	404.76
688.81	402.45
689.15	400.35
689.49	398.20
689.82	396.10
690.16	394.04
690.50	392.08
690.83	390.17
691.17	388.14
691.51	386.25
691.84	384.40
692.18	382.53
692.52	380.63
692.85	378.72
693.19	376.83
693.52	375.03
693.86	373.23
694.20	371.46
694.53	369.70
694.87	367.80
695.21	366.02
695.54	364.19
695.88	362.50
696.21	360.74
696.55	359.08
696.88	357.44
697.22	355.72
697.56	354.05
697.89	352.42
698.23	350.91
698.56	349.31
698.90	347.73
699.23	346.07
699.57	344.52
699.90	342.98
700.24	341.45
700.58	339.86
700.91	338.33
701.25	336.90
701.58	335.49
701.92	334.19
702.25	332.85
702.59	331.48
702.92	330.16
703.26	328.85
703.59	327.59
703.93	326.37
704.26	325.17
704.60	323.93
704.93	322.61
705.26	321.31
705.60	320.12
705.93	318.96
706.27	317.87
706.60	316.79
706.94	315.71
707.27	314.60
707.61	313.52
707.94	312.47
708.27	311.37
708.61	310.26
708.94	309.20
709.28	308.18
709.61	307.20
709.94	306.24
710.28	305.19
710.61	304.18
710.95	303.11
711.28	302.17
711.61	301.18
711.95	300.27
712.28	299.28
712.61	298.32
712.95	297.40
713.28	296.58
713.61	295.63
713.95	294.77
714.28	293.86
714.61	293.01
714.95	292.17
715.28	291.29
715.61	290.43
715.95	289.59
716.28	288.69
716.61	287.88
716.95	287.04
717.28	286.32
717.61	285.54
717.94	284.79
718.28	284.00
718.61	283.30
718.94	282.61
719.27	281.96
719.61	281.27
719.94	280.58
720.27	279.81
720.60	279.17
720.94	278.50
721.27	277.91
721.60	277.30
721.93	276.69
722.27	276.16
722.60	275.59
722.93	274.99
723.26	274.52
723.59	273.91
723.93	273.33
724.26	272.74
724.59	272.17
724.92	271.63
725.25	271.09
725.59	270.56
725.92	270.03
726.25	269.51
726.58	269.04
726.91	268.53
727.24	268.08
727.57	267.60
727.91	267.09
728.24	266.63
728.57	266.16
728.90	265.69
729.23	265.16
729.56	264.71
729.89	264.28
730.22	263.77
730.55	263.32
730.89	262.89
731.22	262.48
731.55	262.03
731.88	261.62
732.21	261.18
732.54	260.71
732.87	260.26
733.20	259.89
733.53	259.46
733.86	259.15
734.19	258.73
734.52	258.36
734.85	258.09
735.18	257.67
735.51	257.33
735.84	257.01
736.17	256.71
736.50	256.33
736.83	256.09
737.16	255.80
737.49	255.48
737.82	255.19
738.15	254.88
738.48	254.58
738.81	254.24
739.14	253.96
739.47	253.70
739.80	253.43
740.13	253.09
740.46	252.78
740.79	252.44
741.12	252.12
741.45	251.84
741.78	251.47
742.11	251.19
742.44	250.86
742.77	250.56
743.10	250.24
743.43	249.97
743.75	249.60
744.08	249.43
744.41	249.15
744.74	248.86
745.07	248.57
745.40	248.32
745.73	248.09
746.06	247.81
746.39	247.53
746.71	247.26
747.04	247.01
747.37	246.75
747.70	246.50
748.03	246.26
748.36	246.02
748.68	245.78
749.01	245.55
749.34	245.31
749.67	245.07
750.00	244.88
750.33	244.75
750.65	244.53
750.98	244.21
751.31	243.99
751.64	243.77
751.97	243.63
752.29	243.38
752.62	243.16
752.95	242.95
753.28	242.77
753.60	242.57
753.93	242.41
754.26	242.22
754.59	242.00
754.91	241.81
755.24	241.56
755.57	241.37
755.90	241.19
756.22	241.01
756.55	240.81
756.88	240.60
757.20	240.32
757.53	240.13
757.86	239.92
758.19	239.75
758.51	239.61
758.84	239.38
759.17	239.26
759.49	239.08
759.82	238.95
760.15	238.78
760.47	238.62
760.80	238.42
761.13	238.26
761.45	238.09
761.78	237.89
762.11	237.80
762.43	237.64
762.76	237.46
763.08	237.30
763.41	237.15
763.74	236.99
764.06	236.86
764.39	236.70
764.71	236.56
765.04	236.44
765.37	236.28
765.69	236.12
766.02	235.96
766.34	235.81
766.67	235.66
767.00	235.55
767.32	235.48
767.65	235.46
767.97	235.39
768.30	235.26
768.62	235.20
768.95	235.07
769.27	234.95
769.60	234.88
769.92	234.76
770.25	234.66
770.57	234.54
770.90	234.43
771.22	234.31
771.55	234.24
771.87	234.17
772.20	234.03
772.52	234.01
772.85	234.02
773.17	233.96
773.50	233.82
773.82	233.71
774.15	233.57
774.47	233.39
774.80	233.27
775.12	233.19
775.45	233.09
775.77	232.99
776.09	232.94
776.42	232.89
776.74	232.83
777.07	232.78
777.39	232.70
777.72	232.62
778.04	232.58
778.36	232.48
778.69	232.37
779.01	232.34
779.33	232.20
779.66	232.06
779.98	231.97
780.31	231.95
780.63	231.91
780.95	231.90
781.28	231.82
781.60	231.75
781.92	231.70
782.25	231.67
782.57	231.61
782.89	231.55
783.22	231.46
783.54	231.40
783.86	231.32
784.19	231.26
784.51	231.23
784.83	231.18
785.16	231.14
785.48	231.13
785.80	231.07
786.12	231.05
786.45	230.96
786.77	230.93
787.09	230.85
787.42	230.77
787.74	230.74
788.06	230.72
788.38	230.71
788.71	230.66
789.03	230.64
789.35	230.61
789.67	230.58
789.99	230.58
790.32	230.55
790.64	230.56
790.96	230.62
791.28	230.55
791.61	230.48
791.93	230.44
792.25	230.41
792.57	230.47
792.89	230.42
793.21	230.40
793.54	230.36
793.86	230.34
794.18	230.35
794.50	230.29
794.82	230.26
795.14	230.22
795.47	230.21
795.79	230.13
796.11	230.09
796.43	230.00
796.75	229.96
797.07	229.95
797.39	229.85
797.71	229.77
798.04	229.75
798.36	229.74
798.68	229.69
799.00	229.66
799.32	229.58
799.64	229.57
799.96	229.57
800.28	229.55
800.60	229.47
800.92	229.42
801.24	229.37
801.56	229.35
801.89	229.32
802.21	229.30
802.53	229.27
802.85	229.25
803.17	229.30
803.49	229.23
803.81	229.17
804.13	229.11
804.45	229.03
804.77	229.02
805.09	228.98
805.41	228.94
805.73	228.89
806.05	228.81
806.37	228.77
806.69	228.71
807.01	228.66
807.33	228.65
807.65	228.60
807.97	228.63
808.28	228.55
808.60	228.47
808.92	228.42
809.24	228.46
809.56	228.40
809.88	228.32
810.20	228.28
810.52	228.26
810.84	228.24
811.16	228.20
811.48	228.15
811.80	228.13
812.12	228.09
812.43	228.02
812.75	228.00
813.07	227.97
813.39	227.92
813.71	227.88
814.03	227.85
814.35	227.83
814.67	227.74
814.98	227.74
815.30	227.72
815.62	227.69
815.94	227.57
816.26	227.59
816.58	227.54
816.89	227.55
817.21	227.50
817.53	227.47
817.85	227.48
818.17	227.44
818.48	227.40
818.80	227.41
819.12	227.44
819.44	227.41
819.76	227.38
820.07	227.36
820.39	227.30
820.71	227.30
821.03	227.26
821.34	227.27
821.66	227.27
821.98	227.24
822.30	227.21
822.61	227.29
822.93	227.26
823.25	227.26
823.57	227.25
823.88	227.28
824.20	227.29
824.52	227.31
824.83	227.30
825.15	227.31
825.47	227.31
825.79	227.27
826.10	227.28
826.42	227.30
826.74	227.32
827.05	227.35
827.37	227.33
827.69	227.34
828.00	227.35
828.32	227.35
828.64	227.39
828.95	227.43
829.27	227.41
829.58	227.39
829.90	227.41
830.22	227.43
830.53	227.41
830.85	227.41
831.17	227.35
831.48	227.40
831.80	227.40
832.11	227.41
832.43	227.43
832.75	227.41
833.06	227.44
833.38	227.44
833.69	227.44
834.01	227.49
834.32	227.50
834.64	227.47
834.96	227.44
835.27	227.44
835.59	227.43
835.90	227.43
836.22	227.41
836.53	227.40
836.85	227.35
837.16	227.44
837.48	227.47
837.79	227.51
838.11	227.51
838.42	227.50
838.74	227.47
839.05	227.49
839.37	227.48
839.68	227.39
840.00	227.35
840.31	227.37
840.63	227.34
840.94	227.30
841.26	227.28
841.57	227.27
841.88	227.25
842.20	227.21
842.51	227.18
842.83	227.17
843.14	227.26
843.46	227.27
843.77	227.21
844.08	227.20
844.40	227.17
844.71	227.10
845.03	227.08
845.34	227.07
845.65	227.05
845.97	227.05
846.28	227.06
846.60	227.09
846.91	227.06
847.22	227.05
847.54	227.06
847.85	227.07
848.16	227.03
848.48	226.99
848.79	227.02
849.10	227.01
849.42	226.99
849.73	226.84
850.04	226.82
850.36	226.76
850.67	226.73
850.98	226.66
851.30	226.67
851.61	226.66
851.92	226.65
852.23	226.66
852.55	226.66
852.86	226.65
853.17	226.63
853.49	226.65
853.80	226.66
854.11	226.64
854.42	226.64
854.74	226.60
855.05	226.59
855.36	226.51
855.67	226.47
855.99	226.46
856.30	226.57
856.61	226.53
856.92	226.51
857.23	226.49
857.55	226.48
857.86	226.47
858.17	226.45
858.48	226.45
858.79	226.38
859.11	226.35
859.42	226.36
859.73	226.29
860.04	226.28
860.35	226.20
860.66	226.18
860.98	226.15
861.29	226.22
861.60	226.20
861.91	226.27
862.22	226.28
862.53	226.29
862.84	226.19
863.16	226.24
863.47	226.24
863.78	226.22
864.09	226.26
864.40	226.24
864.71	226.24
865.02	226.22
865.33	226.22
865.64	226.21
865.95	226.20
866.27	226.30
866.58	226.27
866.89	226.31
867.20	226.31
867.51	226.29
867.82	226.27
868.13	226.31
868.44	226.25
868.75	226.28
869.06	226.27
869.37	226.28
869.68	226.24
869.99	226.27
870.30	226.29
870.61	226.31
870.92	226.33
871.23	226.35
871.54	226.39
871.85	226.43
872.16	226.43
872.47	226.42
872.78	226.35
873.09	226.38
873.40	226.38
873.71	226.39
874.02	226.44
874.33	226.41
874.64	226.42
874.95	226.44
875.26	226.42
875.56	226.44
875.87	226.44
876.18	226.45
876.49	226.57
876.80	226.56
877.11	226.53
877.42	226.55
877.73	226.55
878.04	226.54
878.35	226.52
878.66	226.55
878.96	226.55
879.27	226.58
879.58	226.58
879.89	226.56
880.20	226.58
880.51	226.59
880.82	226.63
881.12	226.64
881.43	226.65
881.74	226.68
882.05	226.65
882.36	226.68
882.67	226.70
882.97	226.61
883.28	226.59
883.59	226.60
883.90	226.60
884.21	226.61
884.51	226.64
884.82	226.68
885.13	226.66
885.44	226.67
885.74	226.67
886.05	226.67
886.36	226.67
886.67	226.63
886.98	226.66
887.28	226.66
887.59	226.65
887.90	226.64
888.20	226.60
888.51	226.64
888.82	226.58
889.13	226.56
889.43	226.62
889.74	226.60
890.05	226.58
890.35	226.57
890.66	226.54
890.97	226.51
891.28	226.45
891.58	226.45
891.89	226.43
892.20	226.40
892.50	226.37
892.81	226.32
893.12	226.32
893.42	226.26
893.73	226.25
894.04	226.21
894.34	226.21
894.65	226.20
894.95	226.15
895.26	226.17
895.57	226.20
895.87	226.11
896.18	226.12
896.48	226.12
896.79	226.10
897.10	226.12
897.40	226.11
897.71	226.12
898.01	226.09
898.32	226.09
898.63	226.09
898.93	226.09
899.24	226.14
899.54	226.12
899.85	226.12
900.15	226.12
900.46	226.12
900.76	226.10
901.07	226.07
901.38	226.08
901.68	226.07
901.99	225.99
902.29	226.00
902.60	226.00
902.90	225.96
903.21	225.94
903.51	225.93
903.82	225.95
904.12	225.93
904.43	225.95
904.73	225.93
905.03	225.91
905.34	226.01
905.64	226.01
905.95	226.05
906.25	226.06
906.56	226.06
906.86	226.05
907.17	226.03
907.47	226.06
907.77	226.04
908.08	226.05
908.38	226.12
908.69	226.12
908.99	226.11
909.30	226.13
909.60	226.15
909.90	226.18
910.21	226.17
910.51	226.17
910.81	226.19
911.12	226.21
911.42	226.24
911.73	226.16
912.03	226.15
912.33	226.15
912.64	226.13
912.94	226.12
913.24	226.15
913.55	226.19
913.85	226.20
914.15	226.23
914.46	226.25
914.76	226.23
915.06	226.19
915.37	226.21
915.67	226.25
915.97	226.25
916.27	226.20
916.58	226.18
916.88	226.18
917.18	226.15
917.49	226.21
917.79	226.22
918.09	226.23
918.39	226.25
918.70	226.25
919.00	226.26
919.30	226.28
919.60	226.27
919.91	226.25
920.21	226.25
920.51	226.25
920.81	226.26
921.12	226.31
921.42	226.35
921.72	226.36
922.02	226.37
922.32	226.41
922.63	226.42
922.93	226.49
923.23	226.51
923.53	226.50
923.83	226.44
924.13	226.41
924.44	226.38
924.74	226.41
925.04	226.41
925.34	226.40
925.64	226.37
925.94	226.38
926.24	226.44
926.55	226.42
926.85	226.42
927.15	226.40
927.45	226.34
927.75	226.31
928.05	226.28
928.35	226.25
928.65	226.23
928.95	226.21
929.26	226.17
929.56	226.14
929.86	226.16
930.16	226.13
930.46	226.11
930.76	226.11
931.06	226.05
931.36	226.05
931.66	226.06
931.96	226.08
932.26	226.05
932.56	225.99
932.86	225.96
933.16	225.93
933.46	225.90
933.76	225.91
934.06	225.91
934.36	225.94
934.66	225.93
934.96	225.90
935.26	225.91
935.56	225.91
935.86	225.93
936.16	225.95
936.46	225.95
936.76	225.93
937.06	225.93
937.36	225.94
937.66	225.91
937.96	225.90
938.26	225.87
938.56	225.87
938.86	225.88
939.16	225.93
939.46	225.95
939.76	225.96
940.06	225.94
940.35	225.95
940.65	225.92
940.95	225.93
941.25	225.92
941.55	225.91
941.85	225.88
942.15	225.90
942.45	225.91
942.75	225.96
943.04	225.97
943.34	226.00
943.64	226.00
943.94	226.01
944.24	226.02
944.54	226.04
944.84	226.06
945.13	226.06
945.43	226.08
945.73	226.08
946.03	226.09
946.33	226.11
946.62	226.09
946.92	226.08
947.22	226.11
947.52	226.16
947.82	226.20
948.11	226.22
948.41	226.19
948.71	226.19
949.01	226.19
949.31	226.22
949.60	226.22
949.90	226.25
950.20	226.27
950.50	226.30
950.79	226.30
951.09	226.31
951.39	226.34
951.69	226.29
951.98	226.32
952.28	226.33
952.58	226.33
952.87	226.34
953.17	226.39
953.47	226.36
953.76	226.34
954.06	226.30
954.36	226.32
954.66	226.29
954.95	226.32
955.25	226.33
955.55	226.31
955.84	226.28
956.14	226.27
956.44	226.25
956.73	226.22
957.03	226.23
957.32	226.23
957.62	226.21
957.92	226.26
958.21	226.24
958.51	226.34
958.81	226.34
959.10	226.33
959.40	226.33
959.69	226.35
959.99	226.35
960.29	226.35
960.58	226.31
960.88	226.35
961.17	226.33
961.47	226.36
961.76	226.38
962.06	226.38
962.36	226.38
962.65	226.39
962.95	226.36
963.24	226.35
963.54	226.33
963.83	226.32
964.13	226.32
964.42	226.27
964.72	226.21
965.01	226.23
965.31	226.22
965.60	226.18
965.90	226.23
966.19	226.17
966.49	226.16
966.78	226.15
967.08	226.16
967.37	226.12
967.67	226.08
967.96	226.05
968.26	226.04
968.55	226.02
968.85	225.97
969.14	225.96
969.43	225.93
969.73	225.90
970.02	225.88
970.32	225.85
970.61	225.83
970.91	225.77
971.20	225.73
971.49	225.71
971.79	225.71
972.08	225.62
972.38	225.66
972.67	225.67
972.96	225.69
973.26	225.64
973.55	225.67
973.85	225.62
974.14	225.63
974.43	225.62
974.73	225.63
975.02	225.62
975.31	225.64
975.61	225.65
975.90	225.64
976.19	225.63
976.49	225.63
976.78	225.67
977.07	225.69
977.37	225.70
977.66	225.73
977.95	225.72
978.24	225.73
978.54	225.75
978.83	225.77
979.12	225.79
979.42	225.79
979.71	225.79
980.00	225.83
980.29	225.86
980.59	225.84
980.88	225.87
981.17	225.91
981.46	225.92
981.76	225.93
982.05	225.99
982.34	226.05
982.63	226.03
982.93	226.03
983.22	226.03
983.51	226.05
983.80	226.05
984.09	226.08
984.39	226.11
984.68	226.10
984.97	226.12
985.26	226.13
985.55	226.17
985.85	226.16
986.14	226.17
986.43	226.16
986.72	226.18
987.01	226.15
987.30	226.15
987.59	226.13
987.89	226.15
988.18	226.13
988.47	226.10
988.76	226.14
989.05	226.16
989.34	226.15
989.63	226.16
989.92	226.17
990.22	226.15
990.51	226.13
990.80	226.14
991.09	226.16
991.38	226.17
991.67	226.17
991.96	226.17
992.25	226.21
992.54	226.22
992.83	226.22
993.12	226.26
993.41	226.29
993.70	226.33
993.99	226.38
994.28	226.39
994.58	226.40
994.87	226.40
995.16	226.38
995.45	226.40
995.74	226.35
996.03	226.36
996.32	226.37
996.61	226.39
996.90	226.37
997.19	226.32
997.48	226.31
997.77	226.27
998.06	226.27
998.34	226.23
998.63	226.22
998.92	226.21
999.21	226.22
999.50	226.18
999.79	226.15
1000.08	226.10
1000.37	226.08
1000.66	226.06
1000.95	226.09
1001.24	226.12
1001.53	226.12
1001.82	226.13
1002.11	226.10
1002.40	226.11
1002.68	226.12
1002.97	226.20
1003.26	226.19
1003.55	226.15
1003.84	226.15
1004.13	226.14
1004.42	226.12
1004.71	226.13
1004.99	226.12
1005.28	226.09
1005.57	226.11
1005.86	226.11
1006.15	226.11
1006.44	226.07
1006.72	226.08
1007.01	226.03
1007.30	226.00
1007.59	225.95
1007.88	225.93
1008.17	225.92
1008.45	225.91
1008.74	225.87
1009.03	225.81
1009.32	225.80
1009.60	225.82
1009.89	225.81
1010.18	225.82
1010.47	225.80
1010.76	225.76
1011.04	225.73
1011.33	225.75
1011.62	225.73
1011.91	225.73
1012.19	225.71
1012.48	225.71
1012.77	225.73
1013.05	225.77
1013.34	225.76
1013.63	225.76
1013.92	225.78
1014.20	225.78
1014.49	225.77
1014.78	225.78
1015.06	225.73
1015.35	225.74
1015.64	225.74
1015.92	225.79
1016.21	225.76
1016.50	225.76
1016.78	225.80
1017.07	225.85
1017.36	225.84
1017.64	225.83
1017.93	225.85
1018.22	225.86
1018.50	225.86
1018.79	225.84
1019.08	225.79
1019.36	225.79
1019.65	225.81
1019.93	225.84
1020.22	225.85
1020.51	225.90
1020.79	225.89
1021.08	225.88
1021.36	225.54
1021.65	226.04
1021.94	225.52
1022.22	225.65
1022.51	225.94
1022.79	226.23
1023.08	225.96
1023.36	226.76
1023.65	225.58
>>>>>End Processed Spectral Data<<<<<
