SpectraSuite Data File
++++++++++++++++++++++++++++++++++++
Date: Fri Feb 01 15:37:12 EST 2013
User: group
Dark Spectrum Present: No
Reference Spectrum Present: No
Number of Sampled Component Spectra: 1
Spectrometers: USB2E7196
Integration Time (usec): 35000 (USB2E7196)
Spectra Averaged: 100 (USB2E7196)
Boxcar Smoothing: 10 (USB2E7196)
Correct for Electrical Dark: No (USB2E7196)
Strobe/Lamp Enabled: No (USB2E7196)
Correct for Detector Non-linearity: No (USB2E7196)
Correct for Stray Light: No (USB2E7196)
Number of Pixels in Processed Spectrum: 2048
>>>>>Begin Processed Spectral Data<<<<<
339.09	0.00
339.48	214.67
339.86	216.41
340.24	217.77
340.63	218.64
341.01	221.79
341.39	221.51
341.78	222.96
342.16	224.43
342.54	225.59
342.93	213.09
343.31	223.87
343.69	224.40
344.07	224.87
344.46	225.31
344.84	225.72
345.22	225.95
345.60	226.20
345.99	226.41
346.37	226.54
346.75	226.60
347.13	226.68
347.52	226.74
347.90	226.82
348.28	226.86
348.66	226.90
349.05	226.92
349.43	226.97
349.81	227.02
350.19	227.05
350.57	227.06
350.96	227.12
351.34	227.17
351.72	227.27
352.10	227.35
352.48	227.39
352.87	227.42
353.25	227.49
353.63	227.60
354.01	227.67
354.39	227.74
354.77	227.79
355.15	227.91
355.54	227.96
355.92	228.02
356.30	228.09
356.68	228.25
357.06	228.32
357.44	228.39
357.82	228.44
358.20	228.55
358.58	228.63
358.97	228.69
359.35	228.78
359.73	228.86
360.11	228.93
360.49	228.97
360.87	229.06
361.25	229.12
361.63	229.13
362.01	229.16
362.39	229.20
362.77	229.29
363.15	229.30
363.53	229.31
363.91	229.33
364.29	229.34
364.67	229.25
365.05	229.28
365.43	229.31
365.81	229.34
366.19	229.37
366.57	229.40
366.95	229.40
367.33	229.38
367.71	229.33
368.09	229.32
368.47	229.33
368.85	229.28
369.23	229.27
369.61	229.25
369.99	229.25
370.37	229.21
370.75	229.20
371.13	229.14
371.51	229.13
371.89	229.11
372.27	229.07
372.65	229.02
373.03	228.94
373.41	228.89
373.78	228.81
374.16	228.72
374.54	228.61
374.92	228.54
375.30	228.50
375.68	228.44
376.06	228.37
376.44	228.31
376.82	228.25
377.19	228.18
377.57	228.08
377.95	227.97
378.33	227.90
378.71	227.77
379.09	227.71
379.47	227.63
379.84	227.53
380.22	227.49
380.60	227.42
380.98	227.36
381.36	227.24
381.73	227.17
382.11	227.11
382.49	227.04
382.87	227.01
383.25	226.91
383.62	226.97
384.00	226.88
384.38	226.79
384.76	226.76
385.13	226.76
385.51	226.70
385.89	226.67
386.27	226.62
386.64	226.57
387.02	226.51
387.40	226.45
387.78	226.39
388.15	226.36
388.53	226.31
388.91	226.27
389.29	226.26
389.66	226.24
390.04	226.21
390.42	226.22
390.79	226.17
391.17	226.16
391.55	226.03
391.92	226.04
392.30	226.06
392.68	226.03
393.05	225.99
393.43	226.02
393.81	226.03
394.18	226.03
394.56	226.08
394.94	226.15
395.31	226.22
395.69	226.30
396.06	226.31
396.44	226.37
396.82	226.41
397.19	226.51
397.57	226.53
397.95	226.58
398.32	226.60
398.70	226.68
399.07	226.78
399.45	226.85
399.82	226.92
400.20	226.95
400.58	227.03
400.95	227.10
401.33	227.20
401.70	227.34
402.08	227.43
402.45	227.50
402.83	227.63
403.20	227.72
403.58	227.82
403.95	227.96
404.33	228.11
404.71	228.23
405.08	228.42
405.46	228.57
405.83	228.73
406.21	228.88
406.58	229.05
406.96	229.20
407.33	229.41
407.70	229.63
408.08	229.93
408.45	230.18
408.83	230.43
409.20	230.64
409.58	230.83
409.95	231.11
410.33	231.37
410.70	231.62
411.08	231.92
411.45	232.23
411.82	232.54
412.20	232.88
412.57	233.30
412.95	233.61
413.32	234.03
413.69	234.43
414.07	234.90
414.44	235.37
414.82	235.88
415.19	236.41
415.56	236.95
415.94	237.49
416.31	238.10
416.68	238.68
417.06	239.39
417.43	240.10
417.81	240.87
418.18	241.66
418.55	242.46
418.93	243.31
419.30	244.18
419.67	245.15
420.04	246.12
420.42	247.11
420.79	248.26
421.16	249.42
421.54	250.65
421.91	251.85
422.28	253.11
422.66	254.43
423.03	255.75
423.40	257.05
423.77	258.48
424.15	259.92
424.52	261.41
424.89	262.98
425.26	264.48
425.64	265.88
426.01	267.48
426.38	269.16
426.75	270.85
427.13	272.57
427.50	274.34
427.87	276.23
428.24	278.04
428.61	279.76
428.99	281.70
429.36	283.72
429.73	285.78
430.10	287.81
430.47	289.82
430.85	291.92
431.22	294.20
431.59	296.56
431.96	298.72
432.33	301.22
432.70	303.64
433.08	306.45
433.45	309.12
433.82	311.70
434.19	314.59
434.56	317.37
434.93	319.99
435.30	322.63
435.68	325.47
436.05	328.33
436.42	331.14
436.79	333.64
437.16	336.32
437.53	339.14
437.90	341.98
438.27	344.73
438.64	347.60
439.01	350.19
439.38	352.41
439.75	354.62
440.13	357.12
440.50	359.46
440.87	361.37
441.24	363.30
441.61	365.50
441.98	367.00
442.35	368.79
442.72	370.67
443.09	372.48
443.46	373.49
443.83	374.12
444.20	374.63
444.57	375.49
444.94	375.79
445.31	376.13
445.68	376.48
446.05	376.60
446.42	376.17
446.79	375.80
447.16	375.34
447.53	375.03
447.90	373.91
448.27	372.73
448.64	371.12
449.01	370.00
449.37	368.02
449.74	366.14
450.11	363.94
450.48	361.51
450.85	358.99
451.22	356.90
451.59	354.85
451.96	352.89
452.33	350.28
452.70	347.99
453.07	345.20
453.43	342.31
453.80	339.52
454.17	336.91
454.54	334.32
454.91	331.64
455.28	329.01
455.65	326.48
456.02	324.07
456.38	321.95
456.75	319.31
457.12	317.06
457.49	314.87
457.86	312.71
458.23	310.84
458.59	308.75
458.96	306.63
459.33	304.79
459.70	302.94
460.07	301.46
460.43	299.72
460.80	298.09
461.17	296.62
461.54	295.09
461.91	293.62
462.27	292.17
462.64	290.90
463.01	289.52
463.38	288.20
463.74	286.83
464.11	285.64
464.48	284.57
464.85	283.48
465.21	282.57
465.58	281.65
465.95	280.57
466.32	279.65
466.68	278.74
467.05	277.81
467.42	276.92
467.78	275.98
468.15	275.09
468.52	274.38
468.88	273.52
469.25	272.78
469.62	272.15
469.98	271.48
470.35	270.87
470.72	270.24
471.08	269.61
471.45	269.07
471.82	268.48
472.18	267.88
472.55	267.41
472.92	266.85
473.28	266.39
473.65	265.91
474.02	265.50
474.38	265.14
474.75	264.79
475.11	264.44
475.48	264.16
475.85	263.97
476.21	263.74
476.58	263.57
476.94	263.40
477.31	263.20
477.67	263.05
478.04	262.92
478.41	262.86
478.77	262.87
479.14	262.80
479.50	262.87
479.87	262.94
480.23	263.00
480.60	263.08
480.96	263.14
481.33	263.38
481.69	263.55
482.06	263.75
482.42	263.97
482.79	264.26
483.15	264.58
483.52	264.92
483.88	265.28
484.25	265.68
484.61	266.11
484.98	266.59
485.34	267.16
485.71	267.75
486.07	268.38
486.44	268.95
486.80	269.63
487.17	270.31
487.53	271.17
487.90	272.02
488.26	272.95
488.62	273.95
488.99	274.91
489.35	275.97
489.72	277.07
490.08	278.27
490.44	279.51
490.81	280.79
491.17	282.16
491.54	283.64
491.90	285.19
492.26	286.85
492.63	288.58
492.99	290.34
493.36	292.25
493.72	294.26
494.08	296.39
494.45	298.68
494.81	301.08
495.17	303.52
495.54	306.14
495.90	308.81
496.26	311.63
496.63	314.59
496.99	317.66
497.35	320.98
497.72	324.40
498.08	327.92
498.44	331.64
498.80	335.57
499.17	339.63
499.53	343.77
499.89	348.15
500.26	352.68
500.62	357.39
500.98	362.32
501.34	367.43
501.71	372.77
502.07	378.23
502.43	383.83
502.79	389.62
503.16	395.66
503.52	401.97
503.88	408.35
504.24	414.96
504.60	421.87
504.97	428.98
505.33	436.30
505.69	444.00
506.05	451.83
506.41	459.69
506.78	467.83
507.14	476.28
507.50	484.96
507.86	493.97
508.22	503.13
508.59	512.36
508.95	521.96
509.31	531.77
509.67	541.83
510.03	552.09
510.39	562.68
510.75	573.49
511.12	584.41
511.48	595.70
511.84	607.20
512.20	618.77
512.56	630.68
512.92	642.90
513.28	655.18
513.64	667.59
514.00	680.31
514.37	693.24
514.73	706.25
515.09	719.26
515.45	732.54
515.81	746.20
516.17	760.16
516.53	774.23
516.89	788.39
517.25	802.55
517.61	816.97
517.97	831.38
518.33	845.78
518.69	860.57
519.05	875.57
519.41	890.74
519.77	906.32
520.13	921.78
520.49	937.10
520.85	952.62
521.21	968.35
521.57	984.56
521.93	1000.39
522.29	1016.86
522.65	1033.19
523.01	1049.42
523.37	1065.51
523.73	1081.76
524.09	1097.83
524.45	1114.19
524.81	1130.89
525.17	1147.81
525.53	1164.74
525.89	1181.74
526.25	1198.54
526.61	1214.94
526.97	1231.66
527.33	1248.12
527.68	1264.72
528.04	1281.32
528.40	1297.93
528.76	1315.04
529.12	1331.71
529.48	1348.66
529.84	1364.66
530.20	1381.32
530.56	1398.45
530.91	1415.82
531.27	1432.48
531.63	1449.07
531.99	1465.63
532.35	1481.53
532.71	1497.29
533.07	1513.55
533.42	1529.39
533.78	1545.44
534.14	1561.67
534.50	1577.01
534.86	1592.91
535.21	1608.11
535.57	1623.96
535.93	1639.43
536.29	1654.26
536.65	1669.31
537.00	1684.08
537.36	1699.49
537.72	1714.02
538.08	1728.28
538.44	1742.08
538.79	1756.02
539.15	1769.71
539.51	1783.46
539.87	1797.83
540.22	1811.72
540.58	1825.71
540.94	1839.12
541.29	1852.03
541.65	1864.94
542.01	1878.19
542.37	1890.49
542.72	1902.93
543.08	1914.75
543.44	1927.09
543.79	1938.33
544.15	1949.32
544.51	1960.81
544.87	1971.78
545.22	1982.54
545.58	1992.88
545.94	2002.71
546.29	2012.57
546.65	2022.41
547.01	2031.71
547.36	2040.49
547.72	2048.99
548.07	2056.70
548.43	2064.87
548.79	2073.01
549.14	2080.46
549.50	2087.92
549.86	2095.62
550.21	2102.98
550.57	2110.10
550.92	2116.73
551.28	2123.74
551.64	2130.84
551.99	2137.40
552.35	2143.51
552.70	2149.69
553.06	2155.80
553.41	2162.04
553.77	2168.11
554.13	2174.25
554.48	2180.33
554.84	2185.67
555.19	2191.00
555.55	2196.00
555.90	2200.42
556.26	2205.28
556.61	2210.01
556.97	2214.10
557.32	2218.13
557.68	2222.34
558.03	2226.78
558.39	2230.46
558.74	2235.10
559.10	2238.88
559.45	2242.51
559.81	2246.86
560.16	2250.77
560.52	2253.80
560.87	2257.32
561.23	2259.95
561.58	2262.90
561.94	2265.46
562.29	2268.04
562.64	2270.65
563.00	2273.46
563.35	2277.04
563.71	2280.16
564.06	2283.45
564.42	2286.27
564.77	2288.84
565.12	2291.04
565.48	2292.87
565.83	2294.69
566.19	2296.01
566.54	2296.88
566.89	2297.91
567.25	2298.32
567.60	2299.69
567.96	2301.41
568.31	2302.16
568.66	2303.21
569.02	2303.71
569.37	2304.04
569.72	2304.75
570.08	2304.79
570.43	2304.70
570.78	2304.03
571.14	2302.38
571.49	2300.90
571.84	2300.57
572.20	2299.26
572.55	2298.22
572.90	2296.56
573.26	2295.21
573.61	2293.39
573.96	2291.62
574.31	2288.67
574.67	2285.74
575.02	2281.93
575.37	2278.45
575.72	2274.56
576.08	2271.39
576.43	2267.94
576.78	2264.13
577.13	2261.01
577.49	2257.88
577.84	2254.31
578.19	2250.54
578.54	2246.84
578.90	2242.51
579.25	2237.00
579.60	2232.24
579.95	2227.11
580.30	2222.00
580.66	2216.88
581.01	2211.93
581.36	2206.93
581.71	2202.72
582.06	2198.18
582.42	2193.72
582.77	2188.47
583.12	2183.87
583.47	2178.82
583.82	2173.72
584.17	2168.52
584.53	2162.93
584.88	2157.38
585.23	2151.57
585.58	2145.98
585.93	2140.52
586.28	2135.95
586.63	2130.79
586.98	2125.60
587.34	2120.94
587.69	2116.15
588.04	2110.73
588.39	2105.06
588.74	2098.67
589.09	2092.52
589.44	2085.73
589.79	2079.58
590.14	2074.03
590.49	2067.46
590.84	2061.22
591.19	2055.39
591.54	2048.93
591.89	2041.56
592.25	2034.58
592.60	2027.42
592.95	2019.85
593.30	2012.49
593.65	2004.75
594.00	1997.83
594.35	1990.51
594.70	1982.29
595.05	1975.00
595.40	1967.70
595.75	1960.14
596.10	1953.87
596.45	1947.11
596.80	1940.86
597.15	1934.25
597.50	1927.07
597.85	1920.73
598.19	1913.99
598.54	1906.74
598.89	1900.04
599.24	1894.19
599.59	1887.52
599.94	1881.27
600.29	1875.01
600.64	1868.46
600.99	1860.81
601.34	1853.86
601.69	1846.97
602.04	1840.04
602.39	1832.73
602.74	1825.89
603.08	1819.22
603.43	1812.47
603.78	1805.13
604.13	1798.00
604.48	1790.69
604.83	1783.81
605.18	1776.64
605.53	1768.67
605.87	1760.73
606.22	1753.37
606.57	1745.26
606.92	1737.86
607.27	1730.52
607.62	1723.42
607.96	1716.00
608.31	1709.41
608.66	1701.83
609.01	1694.08
609.36	1686.63
609.70	1678.66
610.05	1670.46
610.40	1662.77
610.75	1654.51
611.10	1646.86
611.44	1638.42
611.79	1630.36
612.14	1621.56
612.49	1612.53
612.83	1604.13
613.18	1595.94
613.53	1587.88
613.88	1579.22
614.22	1570.94
614.57	1562.35
614.92	1554.32
615.27	1546.72
615.61	1538.40
615.96	1530.38
616.31	1522.87
616.65	1515.39
617.00	1507.68
617.35	1500.11
617.70	1491.63
618.04	1483.05
618.39	1474.81
618.74	1467.17
619.08	1458.86
619.43	1451.38
619.78	1444.43
620.12	1437.13
620.47	1429.60
620.82	1421.36
621.16	1414.15
621.51	1406.55
621.85	1399.01
622.20	1390.57
622.55	1382.21
622.89	1374.37
623.24	1366.68
623.59	1359.33
623.93	1351.92
624.28	1344.71
624.62	1337.22
624.97	1330.13
625.32	1323.44
625.66	1316.44
626.01	1309.21
626.35	1301.80
626.70	1294.08
627.04	1286.23
627.39	1278.51
627.73	1271.11
628.08	1264.32
628.43	1256.93
628.77	1249.65
629.12	1242.12
629.46	1234.92
629.81	1227.62
630.15	1220.44
630.50	1213.05
630.84	1204.88
631.19	1196.97
631.53	1189.48
631.88	1181.87
632.22	1174.26
632.57	1166.88
632.91	1159.33
633.26	1151.97
633.60	1144.64
633.95	1137.44
634.29	1130.47
634.64	1123.86
634.98	1116.48
635.32	1109.34
635.67	1102.78
636.01	1096.10
636.36	1089.22
636.70	1082.76
637.05	1076.10
637.39	1069.62
637.73	1063.05
638.08	1057.15
638.42	1051.17
638.77	1044.70
639.11	1038.15
639.45	1031.73
639.80	1025.04
640.14	1018.61
640.49	1012.05
640.83	1005.80
641.17	999.67
641.52	993.38
641.86	986.95
642.20	981.11
642.55	974.81
642.89	968.29
643.23	961.78
643.58	956.03
643.92	949.88
644.26	943.87
644.61	937.87
644.95	931.92
645.29	925.32
645.64	918.54
645.98	912.24
646.32	906.46
646.66	900.44
647.01	894.71
647.35	889.03
647.69	883.27
648.04	877.78
648.38	871.88
648.72	865.81
649.06	859.70
649.41	853.81
649.75	847.79
650.09	841.86
650.43	836.08
650.78	829.97
651.12	824.00
651.46	818.24
651.80	812.51
652.14	807.04
652.49	801.66
652.83	796.46
653.17	790.75
653.51	784.95
653.85	779.60
654.20	773.93
654.54	767.92
654.88	762.13
655.22	756.19
655.56	750.52
655.90	745.10
656.25	739.90
656.59	734.53
656.93	729.43
657.27	724.18
657.61	718.66
657.95	713.55
658.29	708.39
658.64	703.21
658.98	697.89
659.32	692.46
659.66	687.31
660.00	682.01
660.34	677.15
660.68	672.26
661.02	667.22
661.36	662.42
661.70	657.89
662.05	653.56
662.39	649.17
662.73	644.77
663.07	640.41
663.41	635.91
663.75	631.42
664.09	626.89
664.43	622.59
664.77	618.55
665.11	614.33
665.45	610.29
665.79	606.18
666.13	602.10
666.47	598.03
666.81	593.82
667.15	589.74
667.49	585.83
667.83	582.00
668.17	578.05
668.51	574.15
668.85	570.12
669.19	566.27
669.53	562.46
669.87	558.60
670.21	554.90
670.55	551.29
670.89	547.92
671.23	544.49
671.57	541.00
671.91	537.46
672.25	533.96
672.58	530.39
672.92	527.03
673.26	523.80
673.60	520.69
673.94	517.57
674.28	514.69
674.62	511.70
674.96	508.67
675.30	505.71
675.64	502.73
675.97	500.01
676.31	497.14
676.65	494.22
676.99	491.48
677.33	488.65
677.67	485.82
678.01	482.80
678.34	479.87
678.68	477.01
679.02	474.28
679.36	471.53
679.70	468.85
680.04	466.04
680.37	463.24
680.71	460.40
681.05	457.84
681.39	455.07
681.73	452.47
682.06	449.89
682.40	447.41
682.74	444.90
683.08	442.36
683.42	439.74
683.75	437.28
684.09	434.70
684.43	432.20
684.77	429.76
685.10	427.38
685.44	425.05
685.78	422.75
686.12	420.42
686.45	418.10
686.79	415.77
687.13	413.62
687.46	411.43
687.80	409.32
688.14	407.09
688.48	405.04
688.81	402.72
689.15	400.60
689.49	398.43
689.82	396.37
690.16	394.28
690.50	392.36
690.83	390.38
691.17	388.43
691.51	386.59
691.84	384.74
692.18	382.81
692.52	380.83
692.85	378.94
693.19	377.05
693.52	375.24
693.86	373.47
694.20	371.69
694.53	369.91
694.87	368.09
695.21	366.30
695.54	364.48
695.88	362.80
696.21	361.07
696.55	359.38
696.88	357.65
697.22	356.00
697.56	354.35
697.89	352.69
698.23	351.05
698.56	349.39
698.90	347.78
699.23	346.07
699.57	344.54
699.90	343.01
700.24	341.41
700.58	339.87
700.91	338.36
701.25	336.88
701.58	335.51
701.92	334.18
702.25	332.81
702.59	331.42
702.92	330.06
703.26	328.76
703.59	327.47
703.93	326.32
704.26	325.08
704.60	323.82
704.93	322.58
705.26	321.34
705.60	320.18
705.93	319.03
706.27	318.04
706.60	316.99
706.94	315.87
707.27	314.80
707.61	313.76
707.94	312.74
708.27	311.70
708.61	310.63
708.94	309.54
709.28	308.56
709.61	307.67
709.94	306.77
710.28	305.76
710.61	304.80
710.95	303.70
711.28	302.79
711.61	301.86
711.95	300.94
712.28	300.01
712.61	299.00
712.95	298.07
713.28	297.22
713.61	296.34
713.95	295.47
714.28	294.64
714.61	293.79
714.95	292.96
715.28	292.10
715.61	291.22
715.95	290.39
716.28	289.55
716.61	288.65
716.95	287.84
717.28	287.10
717.61	286.36
717.94	285.61
718.28	284.81
718.61	284.07
718.94	283.40
719.27	282.81
719.61	282.19
719.94	281.55
720.27	280.83
720.60	280.18
720.94	279.54
721.27	278.93
721.60	278.35
721.93	277.72
722.27	277.17
722.60	276.63
722.93	276.06
723.26	275.50
723.59	274.93
723.93	274.35
724.26	273.79
724.59	273.23
724.92	272.75
725.25	272.25
725.59	271.74
725.92	271.22
726.25	270.65
726.58	270.18
726.91	269.68
727.24	269.18
727.57	268.72
727.91	268.20
728.24	267.76
728.57	267.24
728.90	266.83
729.23	266.36
729.56	265.94
729.89	265.44
730.22	264.94
730.55	264.51
730.89	264.09
731.22	263.64
731.55	263.24
731.88	262.78
732.21	262.36
732.54	261.88
732.87	261.43
733.20	261.06
733.53	260.63
733.86	260.27
734.19	259.87
734.52	259.47
734.85	259.15
735.18	258.71
735.51	258.34
735.84	257.94
736.17	257.59
736.50	257.18
736.83	256.99
737.16	256.66
737.49	256.33
737.82	255.99
738.15	255.63
738.48	255.27
738.81	254.94
739.14	254.65
739.47	254.34
739.80	254.02
740.13	253.68
740.46	253.32
740.79	252.93
741.12	252.64
741.45	252.29
741.78	251.96
742.11	251.69
742.44	251.37
742.77	251.09
743.10	250.79
743.43	250.49
743.75	250.06
744.08	249.92
744.41	249.61
744.74	249.34
745.07	249.08
745.40	248.83
745.73	248.55
746.06	248.24
746.39	247.99
746.71	247.74
747.04	247.45
747.37	247.21
747.70	246.98
748.03	246.70
748.36	246.49
748.68	246.26
749.01	245.98
749.34	245.77
749.67	245.52
750.00	245.27
750.33	245.12
750.65	244.94
750.98	244.58
751.31	244.38
751.64	244.17
751.97	244.03
752.29	243.81
752.62	243.58
752.95	243.39
753.28	243.17
753.60	243.00
753.93	242.87
754.26	242.69
754.59	242.47
754.91	242.29
755.24	242.09
755.57	241.87
755.90	241.74
756.22	241.52
756.55	241.34
756.88	241.16
757.20	240.90
757.53	240.72
757.86	240.55
758.19	240.43
758.51	240.25
758.84	240.02
759.17	239.87
759.49	239.74
759.82	239.63
760.15	239.51
760.47	239.35
760.80	239.21
761.13	239.10
761.45	239.01
761.78	238.90
762.11	238.79
762.43	238.69
762.76	238.52
763.08	238.41
763.41	238.27
763.74	238.14
764.06	238.05
764.39	237.89
764.71	237.78
765.04	237.64
765.37	237.51
765.69	237.39
766.02	237.24
766.34	237.13
766.67	236.98
767.00	236.84
767.32	236.75
767.65	236.67
767.97	236.53
768.30	236.43
768.62	236.32
768.95	236.19
769.27	236.03
769.60	235.94
769.92	235.82
770.25	235.69
770.57	235.60
770.90	235.50
771.22	235.39
771.55	235.29
771.87	235.19
772.20	235.07
772.52	235.04
772.85	235.07
773.17	235.01
773.50	234.92
773.82	234.81
774.15	234.66
774.47	234.51
774.80	234.44
775.12	234.33
775.45	234.21
775.77	234.12
776.09	234.07
776.42	233.99
776.74	233.92
777.07	233.85
777.39	233.72
777.72	233.60
778.04	233.56
778.36	233.49
778.69	233.40
779.01	233.35
779.33	233.19
779.66	233.01
779.98	232.87
780.31	232.75
780.63	232.72
780.95	232.69
781.28	232.57
781.60	232.47
781.92	232.38
782.25	232.32
782.57	232.24
782.89	232.17
783.22	232.09
783.54	232.03
783.86	231.95
784.19	231.91
784.51	231.88
784.83	231.78
785.16	231.69
785.48	231.61
785.80	231.55
786.12	231.53
786.45	231.47
786.77	231.41
787.09	231.39
787.42	231.32
787.74	231.26
788.06	231.27
788.38	231.22
788.71	231.16
789.03	231.11
789.35	231.06
789.67	231.00
789.99	230.99
790.32	230.93
790.64	230.90
790.96	230.92
791.28	230.86
791.61	230.84
791.93	230.80
792.25	230.76
792.57	230.76
792.89	230.71
793.21	230.67
793.54	230.64
793.86	230.58
794.18	230.54
794.50	230.52
794.82	230.45
795.14	230.45
795.47	230.46
795.79	230.45
796.11	230.43
796.43	230.38
796.75	230.36
797.07	230.35
797.39	230.32
797.71	230.25
798.04	230.24
798.36	230.21
798.68	230.20
799.00	230.18
799.32	230.15
799.64	230.12
799.96	230.14
800.28	230.13
800.60	230.13
800.92	230.12
801.24	230.04
801.56	230.05
801.89	230.00
802.21	229.97
802.53	229.93
802.85	229.90
803.17	229.95
803.49	229.90
803.81	229.86
804.13	229.82
804.45	229.79
804.77	229.77
805.09	229.76
805.41	229.73
805.73	229.71
806.05	229.68
806.37	229.68
806.69	229.64
807.01	229.60
807.33	229.59
807.65	229.53
807.97	229.56
808.28	229.50
808.60	229.49
808.92	229.48
809.24	229.54
809.56	229.51
809.88	229.45
810.20	229.43
810.52	229.46
810.84	229.45
811.16	229.37
811.48	229.36
811.80	229.35
812.12	229.33
812.43	229.31
812.75	229.29
813.07	229.21
813.39	229.16
813.71	229.09
814.03	229.03
814.35	229.04
814.67	228.99
814.98	228.96
815.30	228.95
815.62	228.91
815.94	228.79
816.26	228.83
816.58	228.81
816.89	228.79
817.21	228.73
817.53	228.72
817.85	228.74
818.17	228.71
818.48	228.67
818.80	228.65
819.12	228.62
819.44	228.59
819.76	228.59
820.07	228.57
820.39	228.59
820.71	228.58
821.03	228.56
821.34	228.53
821.66	228.54
821.98	228.50
822.30	228.48
822.61	228.54
822.93	228.46
823.25	228.41
823.57	228.38
823.88	228.39
824.20	228.34
824.52	228.33
824.83	228.30
825.15	228.28
825.47	228.27
825.79	228.24
826.10	228.22
826.42	228.18
826.74	228.18
827.05	228.17
827.37	228.15
827.69	228.10
828.00	228.09
828.32	228.07
828.64	228.04
828.95	228.09
829.27	228.04
829.58	228.03
829.90	228.04
830.22	228.02
830.53	227.97
830.85	227.95
831.17	227.95
831.48	227.94
831.80	227.94
832.11	227.91
832.43	227.91
832.75	227.88
833.06	227.94
833.38	227.92
833.69	227.89
834.01	227.89
834.32	227.88
834.64	227.89
834.96	227.86
835.27	227.86
835.59	227.80
835.90	227.82
836.22	227.82
836.53	227.80
836.85	227.80
837.16	227.92
837.48	227.96
837.79	227.96
838.11	227.95
838.42	227.94
838.74	227.99
839.05	227.97
839.37	227.97
839.68	227.93
840.00	227.93
840.31	227.95
840.63	227.97
840.94	228.00
841.26	227.98
841.57	228.01
841.88	228.04
842.20	228.05
842.51	228.00
842.83	228.00
843.14	228.05
843.46	228.09
843.77	228.00
844.08	227.97
844.40	227.94
844.71	227.97
845.03	227.95
845.34	227.92
845.65	227.92
845.97	227.94
846.28	227.93
846.60	227.91
846.91	227.91
847.22	227.89
847.54	227.88
847.85	227.87
848.16	227.84
848.48	227.81
848.79	227.82
849.10	227.84
849.42	227.80
849.73	227.73
850.04	227.68
850.36	227.63
850.67	227.65
850.98	227.66
851.30	227.62
851.61	227.61
851.92	227.59
852.23	227.63
852.55	227.61
852.86	227.62
853.17	227.63
853.49	227.63
853.80	227.63
854.11	227.63
854.42	227.67
854.74	227.64
855.05	227.60
855.36	227.53
855.67	227.52
855.99	227.55
856.30	227.66
856.61	227.62
856.92	227.63
857.23	227.61
857.55	227.56
857.86	227.58
858.17	227.59
858.48	227.56
858.79	227.48
859.11	227.50
859.42	227.47
859.73	227.45
860.04	227.41
860.35	227.38
860.66	227.32
860.98	227.28
861.29	227.32
861.60	227.31
861.91	227.35
862.22	227.32
862.53	227.31
862.84	227.20
863.16	227.23
863.47	227.23
863.78	227.19
864.09	227.19
864.40	227.19
864.71	227.18
865.02	227.17
865.33	227.18
865.64	227.13
865.95	227.14
866.27	227.18
866.58	227.15
866.89	227.16
867.20	227.14
867.51	227.10
867.82	227.07
868.13	227.13
868.44	227.09
868.75	227.09
869.06	227.08
869.37	227.08
869.68	227.05
869.99	227.05
870.30	227.09
870.61	227.13
870.92	227.07
871.23	227.02
871.54	227.06
871.85	227.04
872.16	227.04
872.47	227.00
872.78	226.94
873.09	226.95
873.40	226.95
873.71	227.01
874.02	227.04
874.33	227.03
874.64	227.01
874.95	227.00
875.26	226.99
875.56	227.01
875.87	227.00
876.18	227.03
876.49	227.12
876.80	227.10
877.11	227.06
877.42	227.08
877.73	227.14
878.04	227.16
878.35	227.17
878.66	227.21
878.96	227.23
879.27	227.24
879.58	227.29
879.89	227.25
880.20	227.30
880.51	227.28
880.82	227.33
881.12	227.31
881.43	227.31
881.74	227.31
882.05	227.30
882.36	227.32
882.67	227.31
882.97	227.20
883.28	227.19
883.59	227.18
883.90	227.19
884.21	227.18
884.51	227.17
884.82	227.17
885.13	227.15
885.44	227.13
885.74	227.14
886.05	227.10
886.36	227.13
886.67	227.04
886.98	227.08
887.28	227.04
887.59	227.06
887.90	227.08
888.20	227.08
888.51	227.11
888.82	227.08
889.13	227.09
889.43	227.19
889.74	227.15
890.05	227.16
890.35	227.16
890.66	227.15
890.97	227.12
891.28	227.11
891.58	227.13
891.89	227.12
892.20	227.12
892.50	227.10
892.81	227.09
893.12	227.15
893.42	227.11
893.73	227.13
894.04	227.13
894.34	227.14
894.65	227.12
894.95	227.07
895.26	227.04
895.57	227.08
895.87	226.97
896.18	227.01
896.48	227.00
896.79	226.98
897.10	226.97
897.40	226.98
897.71	226.99
898.01	227.00
898.32	227.01
898.63	226.99
898.93	227.00
899.24	226.99
899.54	226.95
899.85	226.96
900.15	226.91
900.46	226.90
900.76	226.89
901.07	226.94
901.38	226.95
901.68	227.00
901.99	226.96
902.29	226.96
902.60	226.97
902.90	226.97
903.21	226.95
903.51	226.92
903.82	226.95
904.12	226.95
904.43	226.93
904.73	226.92
905.03	226.94
905.34	227.02
905.64	227.02
905.95	227.03
906.25	227.01
906.56	227.05
906.86	227.04
907.17	227.04
907.47	227.03
907.77	227.03
908.08	227.01
908.38	227.03
908.69	227.03
908.99	227.03
909.30	227.08
909.60	227.11
909.90	227.11
910.21	227.09
910.51	227.07
910.81	227.06
911.12	227.08
911.42	227.08
911.73	227.02
912.03	227.00
912.33	227.03
912.64	227.06
912.94	227.05
913.24	227.04
913.55	227.06
913.85	227.05
914.15	227.06
914.46	227.07
914.76	227.06
915.06	227.06
915.37	227.08
915.67	227.07
915.97	227.06
916.27	227.05
916.58	227.08
916.88	227.08
917.18	227.09
917.49	227.15
917.79	227.15
918.09	227.15
918.39	227.22
918.70	227.18
919.00	227.17
919.30	227.19
919.60	227.19
919.91	227.18
920.21	227.17
920.51	227.16
920.81	227.15
921.12	227.15
921.42	227.14
921.72	227.16
922.02	227.16
922.32	227.19
922.63	227.23
922.93	227.26
923.23	227.27
923.53	227.25
923.83	227.21
924.13	227.23
924.44	227.22
924.74	227.18
925.04	227.23
925.34	227.22
925.64	227.19
925.94	227.15
926.24	227.19
926.55	227.20
926.85	227.20
927.15	227.18
927.45	227.18
927.75	227.18
928.05	227.16
928.35	227.14
928.65	227.15
928.95	227.15
929.26	227.10
929.56	227.13
929.86	227.11
930.16	227.11
930.46	227.10
930.76	227.10
931.06	227.08
931.36	227.06
931.66	227.06
931.96	227.08
932.26	227.10
932.56	227.01
932.86	226.99
933.16	227.02
933.46	227.05
933.76	227.02
934.06	227.05
934.36	227.06
934.66	227.02
934.96	227.00
935.26	226.99
935.56	226.98
935.86	226.94
936.16	226.93
936.46	226.90
936.76	226.89
937.06	226.86
937.36	226.86
937.66	226.87
937.96	226.88
938.26	226.83
938.56	226.85
938.86	226.85
939.16	226.87
939.46	226.85
939.76	226.83
940.06	226.83
940.35	226.80
940.65	226.75
940.95	226.77
941.25	226.72
941.55	226.71
941.85	226.71
942.15	226.75
942.45	226.77
942.75	226.74
943.04	226.75
943.34	226.78
943.64	226.78
943.94	226.75
944.24	226.77
944.54	226.81
944.84	226.78
945.13	226.78
945.43	226.76
945.73	226.74
946.03	226.73
946.33	226.72
946.62	226.70
946.92	226.69
947.22	226.73
947.52	226.74
947.82	226.74
948.11	226.72
948.41	226.69
948.71	226.68
949.01	226.71
949.31	226.70
949.60	226.67
949.90	226.68
950.20	226.67
950.50	226.65
950.79	226.63
951.09	226.65
951.39	226.67
951.69	226.64
951.98	226.67
952.28	226.65
952.58	226.68
952.87	226.70
953.17	226.73
953.47	226.69
953.76	226.72
954.06	226.72
954.36	226.71
954.66	226.72
954.95	226.77
955.25	226.81
955.55	226.79
955.84	226.79
956.14	226.79
956.44	226.81
956.73	226.79
957.03	226.82
957.32	226.84
957.62	226.85
957.92	226.90
958.21	226.91
958.51	227.06
958.81	227.10
959.10	227.11
959.40	227.11
959.69	227.15
959.99	227.18
960.29	227.22
960.58	227.24
960.88	227.30
961.17	227.28
961.47	227.25
961.76	227.27
962.06	227.31
962.36	227.34
962.65	227.33
962.95	227.34
963.24	227.35
963.54	227.35
963.83	227.35
964.13	227.35
964.42	227.33
964.72	227.22
965.01	227.22
965.31	227.19
965.60	227.21
965.90	227.27
966.19	227.24
966.49	227.23
966.78	227.23
967.08	227.21
967.37	227.20
967.67	227.17
967.96	227.20
968.26	227.18
968.55	227.19
968.85	227.20
969.14	227.18
969.43	227.14
969.73	227.13
970.02	227.12
970.32	227.12
970.61	227.11
970.91	227.11
971.20	227.05
971.49	227.05
971.79	227.00
972.08	226.89
972.38	226.88
972.67	226.86
972.96	226.84
973.26	226.79
973.55	226.80
973.85	226.79
974.14	226.77
974.43	226.78
974.73	226.74
975.02	226.74
975.31	226.75
975.61	226.76
975.90	226.73
976.19	226.72
976.49	226.70
976.78	226.69
977.07	226.66
977.37	226.69
977.66	226.71
977.95	226.71
978.24	226.74
978.54	226.75
978.83	226.75
979.12	226.74
979.42	226.74
979.71	226.75
980.00	226.76
980.29	226.73
980.59	226.73
980.88	226.70
981.17	226.70
981.46	226.69
981.76	226.68
982.05	226.72
982.34	226.70
982.63	226.73
982.93	226.73
983.22	226.77
983.51	226.76
983.80	226.76
984.09	226.79
984.39	226.80
984.68	226.77
984.97	226.76
985.26	226.75
985.55	226.79
985.85	226.74
986.14	226.76
986.43	226.80
986.72	226.77
987.01	226.78
987.30	226.76
987.59	226.74
987.89	226.76
988.18	226.72
988.47	226.74
988.76	226.71
989.05	226.70
989.34	226.69
989.63	226.72
989.92	226.73
990.22	226.72
990.51	226.71
990.80	226.76
991.09	226.77
991.38	226.79
991.67	226.78
991.96	226.80
992.25	226.79
992.54	226.76
992.83	226.78
993.12	226.80
993.41	226.85
993.70	226.92
993.99	226.93
994.28	226.97
994.58	227.00
994.87	227.03
995.16	227.05
995.45	227.07
995.74	227.05
996.03	227.05
996.32	227.07
996.61	227.10
996.90	227.10
997.19	227.13
997.48	227.10
997.77	227.07
998.06	227.08
998.34	227.08
998.63	227.10
998.92	227.11
999.21	227.09
999.50	227.08
999.79	227.03
1000.08	227.02
1000.37	227.02
1000.66	226.98
1000.95	227.01
1001.24	227.00
1001.53	226.99
1001.82	226.98
1002.11	226.96
1002.40	226.98
1002.68	227.01
1002.97	227.05
1003.26	227.01
1003.55	227.01
1003.84	227.05
1004.13	227.05
1004.42	227.04
1004.71	227.04
1004.99	227.01
1005.28	227.04
1005.57	227.03
1005.86	227.00
1006.15	227.02
1006.44	226.99
1006.72	226.98
1007.01	226.94
1007.30	226.94
1007.59	226.93
1007.88	226.90
1008.17	226.91
1008.45	226.86
1008.74	226.79
1009.03	226.76
1009.32	226.77
1009.60	226.76
1009.89	226.72
1010.18	226.71
1010.47	226.68
1010.76	226.68
1011.04	226.68
1011.33	226.67
1011.62	226.68
1011.91	226.71
1012.19	226.66
1012.48	226.63
1012.77	226.64
1013.05	226.67
1013.34	226.64
1013.63	226.59
1013.92	226.60
1014.20	226.59
1014.49	226.58
1014.78	226.57
1015.06	226.51
1015.35	226.47
1015.64	226.52
1015.92	226.51
1016.21	226.50
1016.50	226.49
1016.78	226.48
1017.07	226.47
1017.36	226.45
1017.64	226.41
1017.93	226.42
1018.22	226.42
1018.50	226.43
1018.79	226.43
1019.08	226.40
1019.36	226.41
1019.65	226.42
1019.93	226.46
1020.22	226.49
1020.51	226.53
1020.79	226.54
1021.08	226.47
1021.36	226.23
1021.65	226.66
1021.94	226.40
1022.22	226.32
1022.51	226.33
1022.79	227.10
1023.08	227.02
1023.36	227.42
1023.65	226.64
>>>>>End Processed Spectral Data<<<<<
