SpectraSuite Data File
++++++++++++++++++++++++++++++++++++
Date: Fri Feb 01 15:38:25 EST 2013
User: group
Dark Spectrum Present: No
Reference Spectrum Present: No
Number of Sampled Component Spectra: 1
Spectrometers: USB2E7196
Integration Time (usec): 35000 (USB2E7196)
Spectra Averaged: 100 (USB2E7196)
Boxcar Smoothing: 10 (USB2E7196)
Correct for Electrical Dark: No (USB2E7196)
Strobe/Lamp Enabled: No (USB2E7196)
Correct for Detector Non-linearity: No (USB2E7196)
Correct for Stray Light: No (USB2E7196)
Number of Pixels in Processed Spectrum: 2048
>>>>>Begin Processed Spectral Data<<<<<
339.09	0.00
339.48	215.00
339.86	217.00
340.24	217.64
340.63	219.16
341.01	222.32
341.39	222.45
341.78	222.69
342.16	224.58
342.54	224.55
342.93	213.37
343.31	224.16
343.69	224.71
344.07	225.17
344.46	225.63
344.84	226.03
345.22	226.27
345.60	226.49
345.99	226.70
346.37	226.85
346.75	226.98
347.13	227.05
347.52	227.09
347.90	227.16
348.28	227.16
348.66	227.20
349.05	227.23
349.43	227.28
349.81	227.32
350.19	227.35
350.57	227.39
350.96	227.45
351.34	227.51
351.72	227.58
352.10	227.64
352.48	227.67
352.87	227.71
353.25	227.75
353.63	227.80
354.01	227.86
354.39	227.90
354.77	227.95
355.15	228.07
355.54	228.14
355.92	228.19
356.30	228.25
356.68	228.38
357.06	228.40
357.44	228.43
357.82	228.51
358.20	228.60
358.58	228.64
358.97	228.69
359.35	228.79
359.73	228.84
360.11	228.87
360.49	228.94
360.87	228.95
361.25	229.00
361.63	229.09
362.01	229.15
362.39	229.18
362.77	229.23
363.15	229.22
363.53	229.22
363.91	229.27
364.29	229.30
364.67	229.20
365.05	229.24
365.43	229.25
365.81	229.28
366.19	229.29
366.57	229.33
366.95	229.31
367.33	229.25
367.71	229.24
368.09	229.27
368.47	229.23
368.85	229.26
369.23	229.24
369.61	229.19
369.99	229.20
370.37	229.16
370.75	229.18
371.13	229.12
371.51	229.08
371.89	229.03
372.27	228.97
372.65	228.94
373.03	228.86
373.41	228.81
373.78	228.69
374.16	228.59
374.54	228.47
374.92	228.41
375.30	228.36
375.68	228.29
376.06	228.24
376.44	228.17
376.82	228.08
377.19	228.00
377.57	227.91
377.95	227.81
378.33	227.73
378.71	227.60
379.09	227.54
379.47	227.48
379.84	227.38
380.22	227.31
380.60	227.24
380.98	227.16
381.36	227.07
381.73	227.02
382.11	227.02
382.49	226.99
382.87	226.94
383.25	226.89
383.62	226.93
384.00	226.83
384.38	226.79
384.76	226.76
385.13	226.75
385.51	226.70
385.89	226.60
386.27	226.58
386.64	226.54
387.02	226.51
387.40	226.46
387.78	226.43
388.15	226.40
388.53	226.35
388.91	226.35
389.29	226.33
389.66	226.31
390.04	226.26
390.42	226.23
390.79	226.22
391.17	226.22
391.55	226.12
391.92	226.12
392.30	226.13
392.68	226.09
393.05	226.09
393.43	226.10
393.81	226.15
394.18	226.17
394.56	226.20
394.94	226.23
395.31	226.29
395.69	226.35
396.06	226.35
396.44	226.43
396.82	226.47
397.19	226.56
397.57	226.61
397.95	226.67
398.32	226.74
398.70	226.80
399.07	226.87
399.45	226.96
399.82	227.01
400.20	227.09
400.58	227.17
400.95	227.24
401.33	227.34
401.70	227.46
402.08	227.53
402.45	227.62
402.83	227.76
403.20	227.87
403.58	227.97
403.95	228.14
404.33	228.25
404.71	228.38
405.08	228.56
405.46	228.67
405.83	228.83
406.21	228.97
406.58	229.10
406.96	229.25
407.33	229.39
407.70	229.59
408.08	229.87
408.45	230.08
408.83	230.28
409.20	230.49
409.58	230.66
409.95	230.93
410.33	231.20
410.70	231.43
411.08	231.67
411.45	231.96
411.82	232.23
412.20	232.58
412.57	233.00
412.95	233.28
413.32	233.67
413.69	234.06
414.07	234.51
414.44	234.98
414.82	235.44
415.19	235.99
415.56	236.50
415.94	236.99
416.31	237.60
416.68	238.23
417.06	238.96
417.43	239.69
417.81	240.45
418.18	241.24
418.55	242.09
418.93	242.98
419.30	243.89
419.67	244.85
420.04	245.83
420.42	246.82
420.79	248.00
421.16	249.17
421.54	250.38
421.91	251.56
422.28	252.87
422.66	254.24
423.03	255.55
423.40	256.94
423.77	258.37
424.15	259.81
424.52	261.29
424.89	262.89
425.26	264.40
425.64	265.83
426.01	267.39
426.38	269.04
426.75	270.71
427.13	272.45
427.50	274.25
427.87	276.11
428.24	277.99
428.61	279.77
428.99	281.76
429.36	283.89
429.73	285.99
430.10	287.95
430.47	289.97
430.85	292.09
431.22	294.35
431.59	296.75
431.96	299.02
432.33	301.54
432.70	303.92
433.08	306.74
433.45	309.42
433.82	312.08
434.19	314.98
434.56	317.82
434.93	320.47
435.30	323.11
435.68	326.06
436.05	328.88
436.42	331.67
436.79	334.19
437.16	336.89
437.53	339.75
437.90	342.58
438.27	345.39
438.64	348.23
439.01	350.81
439.38	353.05
439.75	355.20
440.13	357.73
440.50	360.08
440.87	361.99
441.24	363.96
441.61	366.04
441.98	367.52
442.35	369.30
442.72	371.15
443.09	372.98
443.46	373.95
443.83	374.52
444.20	375.02
444.57	375.81
444.94	376.12
445.31	376.45
445.68	376.83
446.05	376.87
446.42	376.52
446.79	376.10
447.16	375.69
447.53	375.37
447.90	374.16
448.27	373.03
448.64	371.41
449.01	370.21
449.37	368.32
449.74	366.46
450.11	364.19
450.48	361.75
450.85	359.20
451.22	357.03
451.59	354.99
451.96	353.04
452.33	350.48
452.70	348.06
453.07	345.17
453.43	342.24
453.80	339.49
454.17	336.77
454.54	334.26
454.91	331.51
455.28	328.86
455.65	326.39
456.02	323.92
456.38	321.79
456.75	319.13
457.12	316.88
457.49	314.64
457.86	312.49
458.23	310.61
458.59	308.57
458.96	306.49
459.33	304.67
459.70	302.80
460.07	301.25
460.43	299.52
460.80	297.94
461.17	296.50
461.54	294.99
461.91	293.57
462.27	292.08
462.64	290.82
463.01	289.43
463.38	288.12
463.74	286.72
464.11	285.52
464.48	284.51
464.85	283.39
465.21	282.49
465.58	281.54
465.95	280.39
466.32	279.48
466.68	278.57
467.05	277.63
467.42	276.75
467.78	275.80
468.15	274.93
468.52	274.26
468.88	273.39
469.25	272.58
469.62	271.92
469.98	271.24
470.35	270.61
470.72	270.02
471.08	269.37
471.45	268.82
471.82	268.28
472.18	267.68
472.55	267.16
472.92	266.64
473.28	266.19
473.65	265.78
474.02	265.33
474.38	264.97
474.75	264.68
475.11	264.31
475.48	264.10
475.85	263.88
476.21	263.61
476.58	263.43
476.94	263.32
477.31	263.17
477.67	262.98
478.04	262.85
478.41	262.77
478.77	262.82
479.14	262.75
479.50	262.77
479.87	262.86
480.23	262.97
480.60	263.04
480.96	263.13
481.33	263.32
481.69	263.54
482.06	263.72
482.42	263.91
482.79	264.18
483.15	264.47
483.52	264.86
483.88	265.21
484.25	265.61
484.61	266.01
484.98	266.46
485.34	267.07
485.71	267.66
486.07	268.32
486.44	268.90
486.80	269.62
487.17	270.33
487.53	271.16
487.90	272.04
488.26	272.98
488.62	273.98
488.99	274.96
489.35	275.97
489.72	277.12
490.08	278.36
490.44	279.63
490.81	280.94
491.17	282.30
491.54	283.81
491.90	285.33
492.26	286.99
492.63	288.70
492.99	290.46
493.36	292.40
493.72	294.41
494.08	296.48
494.45	298.74
494.81	301.10
495.17	303.49
495.54	306.03
495.90	308.72
496.26	311.55
496.63	314.52
496.99	317.66
497.35	320.88
497.72	324.21
498.08	327.71
498.44	331.39
498.80	335.33
499.17	339.38
499.53	343.56
499.89	347.95
500.26	352.49
500.62	357.20
500.98	362.17
501.34	367.23
501.71	372.58
502.07	378.03
502.43	383.69
502.79	389.51
503.16	395.60
503.52	401.86
503.88	408.25
504.24	414.86
504.60	421.77
504.97	428.91
505.33	436.27
505.69	443.97
506.05	451.73
506.41	459.55
506.78	467.66
507.14	476.11
507.50	484.87
507.86	493.86
508.22	503.01
508.59	512.11
508.95	521.72
509.31	531.56
509.67	541.60
510.03	551.82
510.39	562.38
510.75	573.15
511.12	584.08
511.48	595.39
511.84	606.92
512.20	618.43
512.56	630.34
512.92	642.49
513.28	654.80
513.64	667.32
514.00	680.00
514.37	692.95
514.73	705.97
515.09	718.96
515.45	732.28
515.81	745.87
516.17	759.90
516.53	773.97
516.89	788.10
517.25	802.24
517.61	816.77
517.97	831.26
518.33	845.76
518.69	860.53
519.05	875.55
519.41	890.64
519.77	906.20
520.13	921.76
520.49	937.09
520.85	952.45
521.21	968.16
521.57	984.42
521.93	1000.18
522.29	1016.63
522.65	1032.88
523.01	1049.12
523.37	1065.18
523.73	1081.40
524.09	1097.43
524.45	1113.79
524.81	1130.61
525.17	1147.45
525.53	1164.31
525.89	1181.14
526.25	1198.02
526.61	1214.39
526.97	1231.15
527.33	1247.61
527.68	1264.23
528.04	1280.82
528.40	1297.47
528.76	1314.63
529.12	1331.29
529.48	1348.25
529.84	1364.33
530.20	1380.96
530.56	1397.93
530.91	1415.35
531.27	1432.08
531.63	1448.75
531.99	1465.37
532.35	1481.27
532.71	1497.07
533.07	1513.33
533.42	1529.36
533.78	1545.38
534.14	1561.73
534.50	1577.09
534.86	1592.96
535.21	1608.13
535.57	1624.16
535.93	1639.72
536.29	1654.40
536.65	1669.48
537.00	1684.31
537.36	1699.58
537.72	1714.22
538.08	1728.66
538.44	1742.36
538.79	1756.28
539.15	1769.86
539.51	1783.54
539.87	1797.84
540.22	1811.78
540.58	1825.62
540.94	1838.97
541.29	1851.97
541.65	1864.67
542.01	1877.89
542.37	1890.27
542.72	1902.57
543.08	1914.34
543.44	1926.76
543.79	1938.13
544.15	1949.10
544.51	1960.66
544.87	1971.65
545.22	1982.30
545.58	1992.60
545.94	2002.41
546.29	2012.23
546.65	2022.11
547.01	2031.33
547.36	2040.21
547.72	2048.48
548.07	2056.22
548.43	2064.48
548.79	2072.44
549.14	2079.85
549.50	2087.34
549.86	2095.02
550.21	2102.41
550.57	2109.45
550.92	2116.11
551.28	2123.17
551.64	2130.27
551.99	2136.67
552.35	2142.76
552.70	2148.98
553.06	2154.92
553.41	2161.31
553.77	2167.33
554.13	2173.54
554.48	2179.83
554.84	2185.17
555.19	2190.60
555.55	2195.87
555.90	2200.12
556.26	2204.87
556.61	2209.63
556.97	2213.85
557.32	2217.97
557.68	2222.16
558.03	2226.52
558.39	2230.18
558.74	2234.78
559.10	2238.65
559.45	2242.36
559.81	2246.64
560.16	2250.30
560.52	2253.44
560.87	2256.87
561.23	2259.69
561.58	2262.54
561.94	2264.92
562.29	2267.41
562.64	2270.02
563.00	2272.61
563.35	2276.20
563.71	2279.43
564.06	2282.67
564.42	2285.27
564.77	2287.80
565.12	2289.91
565.48	2291.79
565.83	2293.53
566.19	2294.75
566.54	2295.68
566.89	2296.80
567.25	2297.31
567.60	2298.87
567.96	2300.54
568.31	2301.48
568.66	2302.35
569.02	2302.90
569.37	2303.20
569.72	2303.94
570.08	2304.01
570.43	2304.05
570.78	2303.35
571.14	2301.78
571.49	2300.39
571.84	2300.24
572.20	2299.04
572.55	2298.08
572.90	2296.55
573.26	2295.18
573.61	2293.49
573.96	2291.55
574.31	2288.44
574.67	2285.58
575.02	2281.83
575.37	2278.50
575.72	2274.62
576.08	2271.41
576.43	2268.02
576.78	2264.33
577.13	2261.22
577.49	2258.12
577.84	2254.56
578.19	2250.80
578.54	2247.12
578.90	2242.88
579.25	2237.24
579.60	2232.22
579.95	2227.20
580.30	2222.25
580.66	2217.27
581.01	2212.27
581.36	2207.52
581.71	2203.46
582.06	2198.97
582.42	2194.42
582.77	2189.17
583.12	2184.49
583.47	2179.69
583.82	2174.68
584.17	2169.39
584.53	2163.74
584.88	2158.07
585.23	2152.21
585.58	2146.84
585.93	2141.39
586.28	2136.70
586.63	2131.74
586.98	2126.66
587.34	2121.93
587.69	2116.98
588.04	2111.43
588.39	2105.71
588.74	2099.28
589.09	2093.16
589.44	2086.32
589.79	2080.42
590.14	2074.86
590.49	2068.40
590.84	2062.04
591.19	2055.95
591.54	2049.58
591.89	2042.15
592.25	2035.32
592.60	2028.13
592.95	2020.37
593.30	2013.01
593.65	2005.19
594.00	1998.10
594.35	1990.83
594.70	1982.75
595.05	1975.35
595.40	1968.01
595.75	1960.54
596.10	1954.10
596.45	1947.17
596.80	1940.99
597.15	1934.25
597.50	1927.00
597.85	1920.46
598.19	1913.59
598.54	1906.40
598.89	1899.68
599.24	1893.83
599.59	1887.08
599.94	1880.91
600.29	1874.65
600.64	1868.07
600.99	1860.67
601.34	1853.67
601.69	1846.72
602.04	1839.71
602.39	1832.42
602.74	1825.66
603.08	1818.85
603.43	1812.14
603.78	1804.90
604.13	1797.62
604.48	1790.33
604.83	1783.39
605.18	1776.24
605.53	1768.29
605.87	1760.36
606.22	1753.09
606.57	1745.03
606.92	1737.75
607.27	1730.52
607.62	1723.55
607.96	1716.09
608.31	1709.44
608.66	1701.86
609.01	1694.25
609.36	1686.69
609.70	1678.70
610.05	1670.65
610.40	1662.90
610.75	1654.49
611.10	1646.86
611.44	1638.48
611.79	1630.57
612.14	1621.90
612.49	1612.94
612.83	1604.64
613.18	1596.43
613.53	1588.30
613.88	1579.73
614.22	1571.40
614.57	1562.78
614.92	1554.73
615.27	1547.25
615.61	1538.93
615.96	1530.92
616.31	1523.29
616.65	1515.98
617.00	1508.44
617.35	1500.73
617.70	1492.42
618.04	1483.87
618.39	1475.62
618.74	1467.98
619.08	1459.62
619.43	1452.14
619.78	1445.06
620.12	1437.89
620.47	1430.44
620.82	1422.31
621.16	1415.03
621.51	1407.46
621.85	1399.84
622.20	1391.26
622.55	1382.90
622.89	1375.05
623.24	1367.48
623.59	1360.15
623.93	1352.63
624.28	1345.33
624.62	1337.80
624.97	1330.73
625.32	1324.09
625.66	1317.09
626.01	1309.83
626.35	1302.42
626.70	1294.61
627.04	1286.97
627.39	1279.21
627.73	1271.82
628.08	1264.85
628.43	1257.49
628.77	1250.03
629.12	1242.46
629.46	1235.31
629.81	1227.90
630.15	1220.74
630.50	1213.32
630.84	1205.12
631.19	1197.27
631.53	1189.69
631.88	1182.12
632.22	1174.48
632.57	1167.14
632.91	1159.55
633.26	1152.23
633.60	1144.77
633.95	1137.73
634.29	1130.71
634.64	1124.04
634.98	1116.65
635.32	1109.62
635.67	1103.05
636.01	1096.45
636.36	1089.60
636.70	1083.15
637.05	1076.59
637.39	1070.14
637.73	1063.60
638.08	1057.76
638.42	1051.71
638.77	1045.29
639.11	1038.70
639.45	1032.24
639.80	1025.58
640.14	1019.14
640.49	1012.64
640.83	1006.31
641.17	999.98
641.52	993.54
641.86	987.13
642.20	981.23
642.55	974.89
642.89	968.31
643.23	961.84
643.58	956.17
643.92	949.94
644.26	943.85
644.61	937.81
644.95	931.79
645.29	925.07
645.64	918.28
645.98	912.00
646.32	906.22
646.66	900.20
647.01	894.37
647.35	888.68
647.69	882.81
648.04	877.30
648.38	871.56
648.72	865.61
649.06	859.51
649.41	853.67
649.75	847.65
650.09	841.72
650.43	835.88
650.78	829.60
651.12	823.58
651.46	817.84
651.80	812.01
652.14	806.65
652.49	801.31
652.83	796.11
653.17	790.32
653.51	784.64
653.85	779.28
654.20	773.57
654.54	767.56
654.88	761.79
655.22	755.91
655.56	750.18
655.90	744.74
656.25	739.52
656.59	734.14
656.93	729.09
657.27	723.94
657.61	718.50
657.95	713.45
658.29	708.42
658.64	703.17
658.98	697.92
659.32	692.43
659.66	687.26
660.00	681.99
660.34	677.17
660.68	672.15
661.02	667.15
661.36	662.55
661.70	658.08
662.05	653.81
662.39	649.50
662.73	645.11
663.07	640.76
663.41	636.23
663.75	631.74
664.09	627.20
664.43	622.87
664.77	618.79
665.11	614.57
665.45	610.45
665.79	606.43
666.13	602.30
666.47	598.19
666.81	593.98
667.15	589.94
667.49	586.02
667.83	582.26
668.17	578.30
668.51	574.21
668.85	570.18
669.19	566.30
669.53	562.46
669.87	558.53
670.21	554.76
670.55	551.17
670.89	547.73
671.23	544.30
671.57	540.80
671.91	537.27
672.25	533.79
672.58	530.23
672.92	526.84
673.26	523.71
673.60	520.57
673.94	517.48
674.28	514.52
674.62	511.58
674.96	508.42
675.30	505.49
675.64	502.56
675.97	499.84
676.31	496.93
676.65	493.99
676.99	491.33
677.33	488.56
677.67	485.73
678.01	482.73
678.34	479.76
678.68	476.85
679.02	474.02
679.36	471.28
679.70	468.65
680.04	465.88
680.37	462.99
680.71	460.23
681.05	457.60
681.39	454.88
681.73	452.20
682.06	449.73
682.40	447.20
682.74	444.72
683.08	442.13
683.42	439.54
683.75	437.07
684.09	434.50
684.43	432.00
684.77	429.51
685.10	427.19
685.44	424.91
685.78	422.64
686.12	420.46
686.45	418.14
686.79	415.83
687.13	413.65
687.46	411.46
687.80	409.30
688.14	407.13
688.48	405.07
688.81	402.85
689.15	400.69
689.49	398.55
689.82	396.45
690.16	394.39
690.50	392.48
690.83	390.52
691.17	388.54
691.51	386.69
691.84	384.88
692.18	382.95
692.52	380.94
692.85	379.05
693.19	377.11
693.52	375.29
693.86	373.52
694.20	371.74
694.53	369.99
694.87	368.11
695.21	366.35
695.54	364.50
695.88	362.75
696.21	361.09
696.55	359.45
696.88	357.72
697.22	356.09
697.56	354.45
697.89	352.85
698.23	351.24
698.56	349.62
698.90	348.02
699.23	346.36
699.57	344.80
699.90	343.26
700.24	341.70
700.58	340.17
700.91	338.61
701.25	337.15
701.58	335.74
701.92	334.39
702.25	332.99
702.59	331.71
702.92	330.41
703.26	329.05
703.59	327.74
703.93	326.59
704.26	325.30
704.60	324.00
704.93	322.74
705.26	321.51
705.60	320.34
705.93	319.19
706.27	318.16
706.60	317.10
706.94	316.00
707.27	314.90
707.61	313.86
707.94	312.87
708.27	311.78
708.61	310.76
708.94	309.78
709.28	308.83
709.61	307.84
709.94	306.86
710.28	305.85
710.61	304.89
710.95	303.82
711.28	302.95
711.61	302.00
711.95	301.04
712.28	300.08
712.61	299.04
712.95	298.10
713.28	297.24
713.61	296.38
713.95	295.46
714.28	294.63
714.61	293.75
714.95	292.88
715.28	292.02
715.61	291.13
715.95	290.26
716.28	289.40
716.61	288.55
716.95	287.75
717.28	287.01
717.61	286.20
717.94	285.45
718.28	284.63
718.61	283.92
718.94	283.24
719.27	282.62
719.61	282.02
719.94	281.34
720.27	280.64
720.60	279.96
720.94	279.32
721.27	278.72
721.60	278.14
721.93	277.53
722.27	277.01
722.60	276.47
722.93	275.91
723.26	275.37
723.59	274.80
723.93	274.27
724.26	273.70
724.59	273.19
724.92	272.66
725.25	272.17
725.59	271.66
725.92	271.16
726.25	270.61
726.58	270.06
726.91	269.57
727.24	269.08
727.57	268.62
727.91	268.16
728.24	267.68
728.57	267.21
728.90	266.80
729.23	266.31
729.56	265.82
729.89	265.36
730.22	264.87
730.55	264.39
730.89	263.92
731.22	263.49
731.55	263.02
731.88	262.58
732.21	262.14
732.54	261.69
732.87	261.25
733.20	260.83
733.53	260.49
733.86	260.12
734.19	259.70
734.52	259.29
734.85	258.91
735.18	258.53
735.51	258.13
735.84	257.74
736.17	257.34
736.50	256.94
736.83	256.68
737.16	256.33
737.49	255.99
737.82	255.64
738.15	255.31
738.48	255.00
738.81	254.68
739.14	254.36
739.47	254.00
739.80	253.69
740.13	253.40
740.46	253.06
740.79	252.71
741.12	252.41
741.45	252.08
741.78	251.78
742.11	251.46
742.44	251.15
742.77	250.83
743.10	250.55
743.43	250.29
743.75	249.89
744.08	249.74
744.41	249.46
744.74	249.19
745.07	248.88
745.40	248.60
745.73	248.37
746.06	248.07
746.39	247.84
746.71	247.55
747.04	247.26
747.37	247.01
747.70	246.76
748.03	246.53
748.36	246.32
748.68	246.04
749.01	245.78
749.34	245.56
749.67	245.37
750.00	245.16
750.33	245.03
750.65	244.84
750.98	244.51
751.31	244.29
751.64	244.11
751.97	243.95
752.29	243.75
752.62	243.49
752.95	243.31
753.28	243.13
753.60	242.96
753.93	242.83
754.26	242.66
754.59	242.47
754.91	242.26
755.24	242.08
755.57	241.94
755.90	241.80
756.22	241.60
756.55	241.38
756.88	241.20
757.20	240.91
757.53	240.72
757.86	240.58
758.19	240.45
758.51	240.26
758.84	240.09
759.17	239.92
759.49	239.78
759.82	239.67
760.15	239.53
760.47	239.39
760.80	239.20
761.13	239.08
761.45	238.92
761.78	238.78
762.11	238.64
762.43	238.46
762.76	238.30
763.08	238.19
763.41	238.10
763.74	237.95
764.06	237.83
764.39	237.68
764.71	237.56
765.04	237.40
765.37	237.29
765.69	237.18
766.02	237.09
766.34	236.96
766.67	236.82
767.00	236.68
767.32	236.58
767.65	236.53
767.97	236.40
768.30	236.26
768.62	236.18
768.95	236.02
769.27	235.91
769.60	235.83
769.92	235.70
770.25	235.53
770.57	235.45
770.90	235.35
771.22	235.25
771.55	235.14
771.87	235.04
772.20	234.93
772.52	234.88
772.85	234.87
773.17	234.77
773.50	234.63
773.82	234.54
774.15	234.40
774.47	234.25
774.80	234.11
775.12	234.04
775.45	233.93
775.77	233.87
776.09	233.80
776.42	233.69
776.74	233.64
777.07	233.55
777.39	233.46
777.72	233.40
778.04	233.35
778.36	233.25
778.69	233.18
779.01	233.11
779.33	232.98
779.66	232.81
779.98	232.77
780.31	232.72
780.63	232.68
780.95	232.66
781.28	232.59
781.60	232.55
781.92	232.48
782.25	232.37
782.57	232.32
782.89	232.24
783.22	232.16
783.54	232.07
783.86	232.03
784.19	231.95
784.51	231.91
784.83	231.84
785.16	231.81
785.48	231.77
785.80	231.72
786.12	231.66
786.45	231.61
786.77	231.55
787.09	231.53
787.42	231.44
787.74	231.38
788.06	231.34
788.38	231.29
788.71	231.27
789.03	231.27
789.35	231.24
789.67	231.17
789.99	231.16
790.32	231.13
790.64	231.10
790.96	231.14
791.28	231.08
791.61	231.03
791.93	230.97
792.25	230.93
792.57	230.97
792.89	230.93
793.21	230.91
793.54	230.87
793.86	230.81
794.18	230.83
794.50	230.79
794.82	230.76
795.14	230.73
795.47	230.70
795.79	230.69
796.11	230.62
796.43	230.64
796.75	230.62
797.07	230.61
797.39	230.58
797.71	230.50
798.04	230.48
798.36	230.45
798.68	230.46
799.00	230.42
799.32	230.35
799.64	230.36
799.96	230.34
800.28	230.31
800.60	230.29
800.92	230.26
801.24	230.19
801.56	230.16
801.89	230.14
802.21	230.13
802.53	230.11
802.85	230.13
803.17	230.11
803.49	230.04
803.81	230.01
804.13	230.00
804.45	229.94
804.77	229.92
805.09	229.91
805.41	229.84
805.73	229.80
806.05	229.73
806.37	229.70
806.69	229.66
807.01	229.61
807.33	229.58
807.65	229.51
807.97	229.56
808.28	229.53
808.60	229.48
808.92	229.43
809.24	229.42
809.56	229.34
809.88	229.28
810.20	229.27
810.52	229.24
810.84	229.18
811.16	229.13
811.48	229.09
811.80	229.07
812.12	229.05
812.43	229.04
812.75	229.03
813.07	228.97
813.39	228.91
813.71	228.88
814.03	228.83
814.35	228.80
814.67	228.73
814.98	228.69
815.30	228.69
815.62	228.64
815.94	228.57
816.26	228.62
816.58	228.62
816.89	228.60
817.21	228.56
817.53	228.56
817.85	228.57
818.17	228.54
818.48	228.48
818.80	228.48
819.12	228.44
819.44	228.40
819.76	228.38
820.07	228.35
820.39	228.35
820.71	228.34
821.03	228.32
821.34	228.29
821.66	228.25
821.98	228.25
822.30	228.20
822.61	228.25
822.93	228.16
823.25	228.10
823.57	228.07
823.88	228.07
824.20	228.03
824.52	228.01
824.83	228.02
825.15	228.01
825.47	228.01
825.79	227.99
826.10	227.99
826.42	227.95
826.74	227.95
827.05	227.94
827.37	227.91
827.69	227.90
828.00	227.88
828.32	227.88
828.64	227.84
828.95	227.90
829.27	227.86
829.58	227.88
829.90	227.90
830.22	227.88
830.53	227.87
830.85	227.87
831.17	227.81
831.48	227.79
831.80	227.76
832.11	227.70
832.43	227.72
832.75	227.68
833.06	227.73
833.38	227.70
833.69	227.68
834.01	227.71
834.32	227.72
834.64	227.71
834.96	227.69
835.27	227.67
835.59	227.67
835.90	227.64
836.22	227.60
836.53	227.59
836.85	227.61
837.16	227.69
837.48	227.68
837.79	227.72
838.11	227.71
838.42	227.74
838.74	227.78
839.05	227.74
839.37	227.75
839.68	227.71
840.00	227.72
840.31	227.75
840.63	227.71
840.94	227.69
841.26	227.68
841.57	227.69
841.88	227.75
842.20	227.74
842.51	227.75
842.83	227.75
843.14	227.81
843.46	227.77
843.77	227.71
844.08	227.70
844.40	227.71
844.71	227.73
845.03	227.71
845.34	227.72
845.65	227.73
845.97	227.71
846.28	227.71
846.60	227.73
846.91	227.70
847.22	227.68
847.54	227.72
847.85	227.74
848.16	227.72
848.48	227.71
848.79	227.68
849.10	227.68
849.42	227.68
849.73	227.58
850.04	227.59
850.36	227.55
850.67	227.57
850.98	227.53
851.30	227.51
851.61	227.49
851.92	227.48
852.23	227.51
852.55	227.53
852.86	227.50
853.17	227.50
853.49	227.52
853.80	227.54
854.11	227.53
854.42	227.53
854.74	227.54
855.05	227.51
855.36	227.48
855.67	227.47
855.99	227.46
856.30	227.55
856.61	227.55
856.92	227.55
857.23	227.56
857.55	227.59
857.86	227.57
858.17	227.60
858.48	227.56
858.79	227.55
859.11	227.53
859.42	227.54
859.73	227.51
860.04	227.47
860.35	227.45
860.66	227.42
860.98	227.40
861.29	227.40
861.60	227.37
861.91	227.41
862.22	227.40
862.53	227.41
862.84	227.34
863.16	227.37
863.47	227.33
863.78	227.33
864.09	227.29
864.40	227.32
864.71	227.32
865.02	227.33
865.33	227.31
865.64	227.32
865.95	227.32
866.27	227.42
866.58	227.44
866.89	227.49
867.20	227.47
867.51	227.48
867.82	227.47
868.13	227.52
868.44	227.48
868.75	227.48
869.06	227.50
869.37	227.52
869.68	227.51
869.99	227.52
870.30	227.49
870.61	227.52
870.92	227.47
871.23	227.48
871.54	227.51
871.85	227.55
872.16	227.54
872.47	227.53
872.78	227.46
873.09	227.46
873.40	227.40
873.71	227.43
874.02	227.42
874.33	227.41
874.64	227.41
874.95	227.41
875.26	227.43
875.56	227.41
875.87	227.38
876.18	227.35
876.49	227.47
876.80	227.47
877.11	227.45
877.42	227.48
877.73	227.46
878.04	227.44
878.35	227.41
878.66	227.39
878.96	227.39
879.27	227.38
879.58	227.35
879.89	227.36
880.20	227.39
880.51	227.36
880.82	227.36
881.12	227.29
881.43	227.28
881.74	227.22
882.05	227.20
882.36	227.19
882.67	227.21
882.97	227.08
883.28	227.08
883.59	227.06
883.90	227.06
884.21	227.08
884.51	227.07
884.82	227.05
885.13	227.07
885.44	227.04
885.74	227.04
886.05	227.04
886.36	227.02
886.67	226.93
886.98	227.01
887.28	226.99
887.59	227.03
887.90	227.00
888.20	227.02
888.51	227.07
888.82	227.04
889.13	227.03
889.43	227.09
889.74	227.07
890.05	227.06
890.35	227.02
890.66	226.99
890.97	226.94
891.28	226.95
891.58	226.95
891.89	226.95
892.20	226.93
892.50	226.95
892.81	226.95
893.12	226.98
893.42	226.92
893.73	226.94
894.04	226.92
894.34	226.93
894.65	226.93
894.95	226.89
895.26	226.91
895.57	226.92
895.87	226.84
896.18	226.85
896.48	226.87
896.79	226.90
897.10	226.90
897.40	226.94
897.71	226.94
898.01	226.90
898.32	226.93
898.63	226.92
898.93	226.92
899.24	226.94
899.54	226.91
899.85	226.96
900.15	226.95
900.46	226.95
900.76	227.00
901.07	226.96
901.38	226.95
901.68	226.98
901.99	226.97
902.29	226.99
902.60	226.99
902.90	226.99
903.21	226.97
903.51	226.95
903.82	226.95
904.12	226.95
904.43	226.96
904.73	226.96
905.03	226.97
905.34	227.05
905.64	227.02
905.95	227.04
906.25	226.99
906.56	226.96
906.86	226.95
907.17	226.95
907.47	227.00
907.77	227.01
908.08	226.98
908.38	226.99
908.69	226.99
908.99	227.01
909.30	226.99
909.60	227.03
909.90	227.04
910.21	227.00
910.51	226.99
910.81	227.00
911.12	227.02
911.42	227.00
911.73	226.91
912.03	226.92
912.33	226.93
912.64	226.94
912.94	226.93
913.24	226.91
913.55	226.89
913.85	226.88
914.15	226.90
914.46	226.92
914.76	226.92
915.06	226.91
915.37	226.88
915.67	226.88
915.97	226.84
916.27	226.81
916.58	226.83
916.88	226.83
917.18	226.81
917.49	226.87
917.79	226.86
918.09	226.88
918.39	226.90
918.70	226.89
919.00	226.88
919.30	226.92
919.60	226.93
919.91	226.91
920.21	226.92
920.51	226.88
920.81	226.86
921.12	226.85
921.42	226.81
921.72	226.83
922.02	226.85
922.32	226.86
922.63	226.83
922.93	226.89
923.23	226.91
923.53	226.92
923.83	226.85
924.13	226.88
924.44	226.87
924.74	226.91
925.04	226.91
925.34	226.91
925.64	226.90
925.94	226.86
926.24	226.89
926.55	226.87
926.85	226.87
927.15	226.88
927.45	226.89
927.75	226.91
928.05	226.91
928.35	226.89
928.65	226.95
928.95	226.99
929.26	226.96
929.56	226.97
929.86	226.97
930.16	226.95
930.46	226.94
930.76	226.95
931.06	226.92
931.36	226.92
931.66	226.95
931.96	226.96
932.26	227.02
932.56	227.03
932.86	227.04
933.16	227.05
933.46	227.03
933.76	227.04
934.06	227.09
934.36	227.15
934.66	227.15
934.96	227.10
935.26	227.10
935.56	227.11
935.86	227.07
936.16	227.08
936.46	227.08
936.76	227.08
937.06	227.10
937.36	227.09
937.66	227.09
937.96	227.10
938.26	227.07
938.56	227.07
938.86	227.05
939.16	227.10
939.46	227.14
939.76	227.14
940.06	227.10
940.35	227.07
940.65	227.02
940.95	227.03
941.25	227.02
941.55	226.99
941.85	226.98
942.15	226.99
942.45	226.99
942.75	226.97
943.04	226.99
943.34	226.97
943.64	226.98
943.94	226.95
944.24	226.95
944.54	226.99
944.84	226.98
945.13	226.96
945.43	226.93
945.73	226.87
946.03	226.86
946.33	226.87
946.62	226.85
946.92	226.82
947.22	226.84
947.52	226.82
947.82	226.87
948.11	226.82
948.41	226.84
948.71	226.83
949.01	226.86
949.31	226.81
949.60	226.83
949.90	226.82
950.20	226.82
950.50	226.81
950.79	226.77
951.09	226.78
951.39	226.77
951.69	226.76
951.98	226.79
952.28	226.78
952.58	226.75
952.87	226.73
953.17	226.75
953.47	226.71
953.76	226.75
954.06	226.70
954.36	226.68
954.66	226.62
954.95	226.65
955.25	226.64
955.55	226.65
955.84	226.59
956.14	226.58
956.44	226.58
956.73	226.56
957.03	226.55
957.32	226.54
957.62	226.51
957.92	226.51
958.21	226.49
958.51	226.61
958.81	226.63
959.10	226.63
959.40	226.66
959.69	226.65
959.99	226.67
960.29	226.68
960.58	226.70
960.88	226.76
961.17	226.73
961.47	226.72
961.76	226.73
962.06	226.77
962.36	226.76
962.65	226.76
962.95	226.75
963.24	226.75
963.54	226.76
963.83	226.78
964.13	226.77
964.42	226.75
964.72	226.70
965.01	226.71
965.31	226.71
965.60	226.65
965.90	226.74
966.19	226.69
966.49	226.70
966.78	226.73
967.08	226.75
967.37	226.74
967.67	226.75
967.96	226.76
968.26	226.75
968.55	226.74
968.85	226.77
969.14	226.75
969.43	226.74
969.73	226.72
970.02	226.71
970.32	226.70
970.61	226.69
970.91	226.65
971.20	226.65
971.49	226.65
971.79	226.68
972.08	226.59
972.38	226.62
972.67	226.60
972.96	226.59
973.26	226.55
973.55	226.56
973.85	226.57
974.14	226.54
974.43	226.54
974.73	226.57
975.02	226.57
975.31	226.59
975.61	226.61
975.90	226.60
976.19	226.60
976.49	226.62
976.78	226.67
977.07	226.65
977.37	226.66
977.66	226.68
977.95	226.68
978.24	226.72
978.54	226.73
978.83	226.71
979.12	226.71
979.42	226.73
979.71	226.73
980.00	226.73
980.29	226.77
980.59	226.79
980.88	226.78
981.17	226.75
981.46	226.74
981.76	226.74
982.05	226.78
982.34	226.78
982.63	226.80
982.93	226.78
983.22	226.80
983.51	226.81
983.80	226.83
984.09	226.83
984.39	226.81
984.68	226.77
984.97	226.80
985.26	226.80
985.55	226.81
985.85	226.80
986.14	226.80
986.43	226.79
986.72	226.75
987.01	226.74
987.30	226.78
987.59	226.76
987.89	226.75
988.18	226.72
988.47	226.75
988.76	226.71
989.05	226.68
989.34	226.68
989.63	226.68
989.92	226.66
990.22	226.67
990.51	226.68
990.80	226.71
991.09	226.70
991.38	226.67
991.67	226.66
991.96	226.63
992.25	226.62
992.54	226.61
992.83	226.61
993.12	226.58
993.41	226.56
993.70	226.61
993.99	226.58
994.28	226.57
994.58	226.58
994.87	226.58
995.16	226.60
995.45	226.58
995.74	226.56
996.03	226.56
996.32	226.54
996.61	226.57
996.90	226.57
997.19	226.59
997.48	226.60
997.77	226.58
998.06	226.61
998.34	226.62
998.63	226.63
998.92	226.64
999.21	226.66
999.50	226.67
999.79	226.64
1000.08	226.68
1000.37	226.70
1000.66	226.70
1000.95	226.74
1001.24	226.75
1001.53	226.76
1001.82	226.76
1002.11	226.77
1002.40	226.81
1002.68	226.81
1002.97	226.86
1003.26	226.85
1003.55	226.83
1003.84	226.86
1004.13	226.88
1004.42	226.86
1004.71	226.87
1004.99	226.86
1005.28	226.87
1005.57	226.89
1005.86	226.87
1006.15	226.85
1006.44	226.84
1006.72	226.84
1007.01	226.77
1007.30	226.77
1007.59	226.77
1007.88	226.75
1008.17	226.76
1008.45	226.75
1008.74	226.69
1009.03	226.63
1009.32	226.63
1009.60	226.64
1009.89	226.57
1010.18	226.51
1010.47	226.50
1010.76	226.50
1011.04	226.50
1011.33	226.51
1011.62	226.46
1011.91	226.47
1012.19	226.49
1012.48	226.49
1012.77	226.50
1013.05	226.59
1013.34	226.59
1013.63	226.53
1013.92	226.55
1014.20	226.52
1014.49	226.53
1014.78	226.56
1015.06	226.55
1015.35	226.57
1015.64	226.60
1015.92	226.64
1016.21	226.64
1016.50	226.66
1016.78	226.68
1017.07	226.66
1017.36	226.63
1017.64	226.65
1017.93	226.66
1018.22	226.67
1018.50	226.63
1018.79	226.64
1019.08	226.62
1019.36	226.59
1019.65	226.63
1019.93	226.65
1020.22	226.66
1020.51	226.68
1020.79	226.68
1021.08	226.98
1021.36	225.95
1021.65	227.13
1021.94	227.06
1022.22	226.07
1022.51	226.46
1022.79	227.13
1023.08	226.55
1023.36	227.68
1023.65	226.47
>>>>>End Processed Spectral Data<<<<<
