SpectraSuite Data File
++++++++++++++++++++++++++++++++++++
Date: Fri Feb 01 16:22:05 EST 2013
User: group
Dark Spectrum Present: No
Reference Spectrum Present: No
Number of Sampled Component Spectra: 1
Spectrometers: USB2E7196
Integration Time (usec): 35000 (USB2E7196)
Spectra Averaged: 100 (USB2E7196)
Boxcar Smoothing: 10 (USB2E7196)
Correct for Electrical Dark: No (USB2E7196)
Strobe/Lamp Enabled: No (USB2E7196)
Correct for Detector Non-linearity: No (USB2E7196)
Correct for Stray Light: No (USB2E7196)
Number of Pixels in Processed Spectrum: 2048
>>>>>Begin Processed Spectral Data<<<<<
339.09	0.00
339.48	213.95
339.86	215.30
340.24	216.17
340.63	218.55
341.01	221.42
341.39	221.09
341.78	222.37
342.16	223.72
342.54	224.15
342.93	212.35
343.31	223.08
343.69	223.62
344.07	224.07
344.46	224.52
344.84	224.87
345.22	225.08
345.60	225.33
345.99	225.56
346.37	225.67
346.75	225.74
347.13	225.83
347.52	225.87
347.90	225.94
348.28	225.97
348.66	226.04
349.05	226.02
349.43	226.08
349.81	226.12
350.19	226.18
350.57	226.28
350.96	226.33
351.34	226.39
351.72	226.48
352.10	226.59
352.48	226.67
352.87	226.78
353.25	226.88
353.63	226.93
354.01	226.95
354.39	227.02
354.77	227.12
355.15	227.24
355.54	227.33
355.92	227.35
356.30	227.45
356.68	227.59
357.06	227.65
357.44	227.71
357.82	227.80
358.20	227.88
358.58	227.92
358.97	228.02
359.35	228.13
359.73	228.22
360.11	228.28
360.49	228.35
360.87	228.39
361.25	228.42
361.63	228.52
362.01	228.57
362.39	228.61
362.77	228.63
363.15	228.66
363.53	228.70
363.91	228.74
364.29	228.72
364.67	228.64
365.05	228.70
365.43	228.73
365.81	228.73
366.19	228.77
366.57	228.80
366.95	228.78
367.33	228.78
367.71	228.76
368.09	228.75
368.47	228.71
368.85	228.67
369.23	228.68
369.61	228.59
369.99	228.59
370.37	228.57
370.75	228.62
371.13	228.54
371.51	228.48
371.89	228.46
372.27	228.41
372.65	228.39
373.03	228.36
373.41	228.28
373.78	228.24
374.16	228.12
374.54	228.03
374.92	227.98
375.30	227.88
375.68	227.81
376.06	227.77
376.44	227.70
376.82	227.63
377.19	227.54
377.57	227.46
377.95	227.41
378.33	227.37
378.71	227.21
379.09	227.18
379.47	227.12
379.84	227.01
380.22	226.95
380.60	226.84
380.98	226.71
381.36	226.65
381.73	226.53
382.11	226.50
382.49	226.40
382.87	226.34
383.25	226.28
383.62	226.31
384.00	226.20
384.38	226.16
384.76	226.13
385.13	226.13
385.51	226.09
385.89	225.96
386.27	225.88
386.64	225.87
387.02	225.77
387.40	225.71
387.78	225.65
388.15	225.62
388.53	225.61
388.91	225.58
389.29	225.55
389.66	225.56
390.04	225.48
390.42	225.51
390.79	225.45
391.17	225.43
391.55	225.32
391.92	225.35
392.30	225.37
392.68	225.33
393.05	225.31
393.43	225.32
393.81	225.34
394.18	225.35
394.56	225.35
394.94	225.42
395.31	225.42
395.69	225.51
396.06	225.56
396.44	225.60
396.82	225.63
397.19	225.73
397.57	225.74
397.95	225.81
398.32	225.82
398.70	225.91
399.07	225.98
399.45	226.00
399.82	226.05
400.20	226.09
400.58	226.17
400.95	226.18
401.33	226.24
401.70	226.41
402.08	226.51
402.45	226.56
402.83	226.66
403.20	226.78
403.58	226.87
403.95	226.99
404.33	227.16
404.71	227.29
405.08	227.44
405.46	227.59
405.83	227.74
406.21	227.92
406.58	228.10
406.96	228.29
407.33	228.48
407.70	228.68
408.08	228.97
408.45	229.21
408.83	229.46
409.20	229.68
409.58	229.83
409.95	230.08
410.33	230.39
410.70	230.63
411.08	230.93
411.45	231.26
411.82	231.59
412.20	231.93
412.57	232.36
412.95	232.69
413.32	233.12
413.69	233.55
414.07	233.99
414.44	234.47
414.82	234.97
415.19	235.56
415.56	236.10
415.94	236.65
416.31	237.30
416.68	237.92
417.06	238.68
417.43	239.41
417.81	240.20
418.18	241.00
418.55	241.88
418.93	242.77
419.30	243.67
419.67	244.59
420.04	245.53
420.42	246.50
420.79	247.66
421.16	248.79
421.54	249.98
421.91	251.21
422.28	252.45
422.66	253.76
423.03	255.03
423.40	256.35
423.77	257.76
424.15	259.15
424.52	260.64
424.89	262.21
425.26	263.72
425.64	265.17
426.01	266.70
426.38	268.34
426.75	270.03
427.13	271.72
427.50	273.51
427.87	275.38
428.24	277.25
428.61	278.97
428.99	280.92
429.36	283.00
429.73	285.01
430.10	287.02
430.47	289.04
430.85	291.16
431.22	293.37
431.59	295.70
431.96	297.93
432.33	300.40
432.70	302.76
433.08	305.58
433.45	308.20
433.82	310.81
434.19	313.68
434.56	316.41
434.93	319.03
435.30	321.64
435.68	324.47
436.05	327.25
436.42	330.01
436.79	332.52
437.16	335.18
437.53	338.00
437.90	340.79
438.27	343.50
438.64	346.31
439.01	348.91
439.38	351.17
439.75	353.33
440.13	355.82
440.50	358.13
440.87	359.92
441.24	361.86
441.61	363.96
441.98	365.42
442.35	367.27
442.72	369.13
443.09	370.92
443.46	371.93
443.83	372.52
444.20	373.07
444.57	373.87
444.94	374.11
445.31	374.43
445.68	374.76
446.05	374.87
446.42	374.49
446.79	374.05
447.16	373.56
447.53	373.22
447.90	372.01
448.27	370.86
448.64	369.28
449.01	368.17
449.37	366.20
449.74	364.35
450.11	362.05
450.48	359.56
450.85	357.07
451.22	354.95
451.59	352.95
451.96	350.99
452.33	348.39
452.70	346.06
453.07	343.27
453.43	340.41
453.80	337.64
454.17	334.94
454.54	332.40
454.91	329.69
455.28	327.07
455.65	324.61
456.02	322.21
456.38	320.13
456.75	317.41
457.12	315.21
457.49	312.97
457.86	310.85
458.23	309.04
458.59	306.96
458.96	304.83
459.33	303.01
459.70	301.17
460.07	299.71
460.43	298.01
460.80	296.37
461.17	294.95
461.54	293.50
461.91	292.09
462.27	290.69
462.64	289.49
463.01	288.11
463.38	286.87
463.74	285.49
464.11	284.34
464.48	283.38
464.85	282.26
465.21	281.42
465.58	280.51
465.95	279.42
466.32	278.55
466.68	277.70
467.05	276.81
467.42	275.93
467.78	274.97
468.15	274.10
468.52	273.44
468.88	272.59
469.25	271.80
469.62	271.22
469.98	270.55
470.35	269.90
470.72	269.32
471.08	268.67
471.45	268.11
471.82	267.57
472.18	266.96
472.55	266.56
472.92	266.04
473.28	265.59
473.65	265.16
474.02	264.71
474.38	264.35
474.75	264.06
475.11	263.72
475.48	263.49
475.85	263.26
476.21	263.05
476.58	262.86
476.94	262.72
477.31	262.54
477.67	262.39
478.04	262.27
478.41	262.25
478.77	262.30
479.14	262.25
479.50	262.26
479.87	262.35
480.23	262.43
480.60	262.48
480.96	262.57
481.33	262.73
481.69	262.92
482.06	263.11
482.42	263.27
482.79	263.51
483.15	263.81
483.52	264.21
483.88	264.57
484.25	264.96
484.61	265.38
484.98	265.83
485.34	266.43
485.71	267.03
486.07	267.63
486.44	268.14
486.80	268.87
487.17	269.57
487.53	270.35
487.90	271.15
488.26	272.10
488.62	273.10
488.99	274.12
489.35	275.12
489.72	276.24
490.08	277.46
490.44	278.70
490.81	280.07
491.17	281.40
491.54	282.92
491.90	284.47
492.26	286.10
492.63	287.84
492.99	289.60
493.36	291.50
493.72	293.51
494.08	295.66
494.45	297.91
494.81	300.27
495.17	302.75
495.54	305.39
495.90	308.07
496.26	310.86
496.63	313.79
496.99	316.93
497.35	320.18
497.72	323.59
498.08	327.11
498.44	330.78
498.80	334.72
499.17	338.72
499.53	342.87
499.89	347.24
500.26	351.75
500.62	356.45
500.98	361.41
501.34	366.49
501.71	371.82
502.07	377.26
502.43	382.91
502.79	388.74
503.16	394.80
503.52	401.08
503.88	407.49
504.24	414.12
504.60	421.06
504.97	428.19
505.33	435.53
505.69	443.23
506.05	451.09
506.41	459.02
506.78	467.21
507.14	475.66
507.50	484.40
507.86	493.41
508.22	502.60
508.59	511.80
508.95	521.40
509.31	531.24
509.67	541.37
510.03	551.64
510.39	562.17
510.75	573.01
511.12	583.90
511.48	595.21
511.84	606.70
512.20	618.26
512.56	630.25
512.92	642.40
513.28	654.75
513.64	667.13
514.00	679.79
514.37	692.71
514.73	705.77
515.09	718.86
515.45	732.25
515.81	745.90
516.17	759.89
516.53	774.02
516.89	788.16
517.25	802.28
517.61	816.72
517.97	831.19
518.33	845.59
518.69	860.30
519.05	875.33
519.41	890.45
519.77	905.94
520.13	921.35
520.49	936.70
520.85	952.16
521.21	967.84
521.57	984.00
521.93	999.76
522.29	1016.09
522.65	1032.27
523.01	1048.38
523.37	1064.29
523.73	1080.46
524.09	1096.44
524.45	1112.76
524.81	1129.42
525.17	1146.13
525.53	1163.00
525.89	1179.81
526.25	1196.70
526.61	1212.94
526.97	1229.62
527.33	1246.06
527.68	1262.57
528.04	1279.02
528.40	1295.55
528.76	1312.57
529.12	1329.10
529.48	1345.80
529.84	1361.74
530.20	1378.34
530.56	1395.20
530.91	1412.62
531.27	1429.37
531.63	1445.81
531.99	1462.35
532.35	1478.17
532.71	1494.07
533.07	1510.16
533.42	1525.94
533.78	1541.94
534.14	1558.12
534.50	1573.39
534.86	1589.10
535.21	1604.20
535.57	1620.03
535.93	1635.35
536.29	1650.10
536.65	1665.20
537.00	1680.02
537.36	1695.35
537.72	1709.79
538.08	1724.21
538.44	1737.85
538.79	1751.52
539.15	1765.12
539.51	1778.67
539.87	1792.92
540.22	1806.56
540.58	1820.29
540.94	1833.54
541.29	1846.36
541.65	1858.90
542.01	1872.04
542.37	1884.28
542.72	1896.67
543.08	1908.39
543.44	1920.78
543.79	1931.87
544.15	1942.76
544.51	1954.27
544.87	1965.26
545.22	1975.87
545.58	1986.03
545.94	1995.72
546.29	2005.58
546.65	2015.38
547.01	2024.51
547.36	2033.22
547.72	2041.58
548.07	2049.36
548.43	2057.47
548.79	2065.46
549.14	2073.06
549.50	2080.41
549.86	2088.07
550.21	2095.28
550.57	2102.59
550.92	2109.08
551.28	2116.24
551.64	2123.22
551.99	2129.60
552.35	2135.52
552.70	2141.77
553.06	2147.67
553.41	2154.03
553.77	2160.02
554.13	2166.18
554.48	2172.31
554.84	2177.83
555.19	2183.18
555.55	2188.48
555.90	2192.93
556.26	2197.66
556.61	2202.39
556.97	2206.79
557.32	2210.95
557.68	2215.05
558.03	2219.17
558.39	2222.86
558.74	2227.39
559.10	2231.23
559.45	2235.00
559.81	2239.33
560.16	2243.15
560.52	2246.52
560.87	2250.10
561.23	2252.74
561.58	2255.58
561.94	2258.24
562.29	2260.54
562.64	2263.20
563.00	2265.55
563.35	2269.06
563.71	2272.23
564.06	2275.48
564.42	2278.21
564.77	2280.77
565.12	2283.13
565.48	2285.15
565.83	2286.99
566.19	2288.29
566.54	2289.25
566.89	2290.46
567.25	2291.13
567.60	2292.41
567.96	2294.16
568.31	2294.85
568.66	2296.08
569.02	2296.61
569.37	2296.87
569.72	2297.81
570.08	2298.00
570.43	2298.15
570.78	2297.69
571.14	2296.21
571.49	2294.96
571.84	2294.70
572.20	2293.56
572.55	2292.70
572.90	2291.04
573.26	2289.84
573.61	2288.22
573.96	2286.54
574.31	2283.56
574.67	2280.63
575.02	2277.16
575.37	2273.73
575.72	2269.86
576.08	2266.47
576.43	2263.25
576.78	2259.61
577.13	2256.38
577.49	2253.32
577.84	2249.93
578.19	2246.19
578.54	2242.75
578.90	2238.56
579.25	2232.92
579.60	2227.92
579.95	2222.77
580.30	2217.86
580.66	2212.60
581.01	2207.64
581.36	2202.80
581.71	2198.74
582.06	2194.34
582.42	2189.91
582.77	2184.56
583.12	2180.18
583.47	2175.53
583.82	2170.65
584.17	2165.55
584.53	2160.20
584.88	2154.58
585.23	2148.84
585.58	2143.32
585.93	2137.82
586.28	2133.04
586.63	2128.15
586.98	2123.31
587.34	2118.65
587.69	2113.70
588.04	2108.48
588.39	2102.77
588.74	2096.27
589.09	2090.01
589.44	2083.27
589.79	2077.36
590.14	2071.87
590.49	2065.27
590.84	2058.99
591.19	2053.12
591.54	2046.73
591.89	2039.35
592.25	2032.61
592.60	2025.42
592.95	2018.04
593.30	2010.66
593.65	2003.02
594.00	1996.12
594.35	1988.88
594.70	1980.94
595.05	1973.99
595.40	1966.90
595.75	1959.56
596.10	1953.45
596.45	1946.79
596.80	1940.68
597.15	1933.90
597.50	1926.90
597.85	1920.50
598.19	1913.86
598.54	1906.57
598.89	1899.98
599.24	1894.22
599.59	1887.64
599.94	1881.56
600.29	1875.31
600.64	1868.93
600.99	1861.75
601.34	1854.85
601.69	1847.87
602.04	1841.01
602.39	1833.54
602.74	1826.80
603.08	1820.10
603.43	1813.33
603.78	1806.06
604.13	1798.83
604.48	1791.61
604.83	1784.70
605.18	1777.78
605.53	1769.82
605.87	1761.91
606.22	1754.65
606.57	1746.65
606.92	1739.34
607.27	1732.17
607.62	1725.22
607.96	1717.90
608.31	1711.19
608.66	1703.58
609.01	1696.05
609.36	1688.60
609.70	1680.66
610.05	1672.56
610.40	1664.97
610.75	1656.73
611.10	1649.05
611.44	1640.57
611.79	1632.69
612.14	1624.05
612.49	1614.93
612.83	1606.60
613.18	1598.48
613.53	1590.40
613.88	1581.89
614.22	1573.45
614.57	1564.80
614.92	1556.70
615.27	1549.10
615.61	1540.79
615.96	1532.89
616.31	1525.19
616.65	1517.80
617.00	1510.22
617.35	1502.52
617.70	1494.19
618.04	1485.63
618.39	1477.46
618.74	1469.91
619.08	1461.54
619.43	1453.91
619.78	1446.98
620.12	1439.76
620.47	1432.26
620.82	1424.10
621.16	1416.69
621.51	1409.25
621.85	1401.66
622.20	1393.17
622.55	1384.76
622.89	1376.84
623.24	1369.17
623.59	1361.94
623.93	1354.41
624.28	1347.19
624.62	1339.68
624.97	1332.49
625.32	1325.73
625.66	1318.74
626.01	1311.54
626.35	1304.02
626.70	1296.31
627.04	1288.49
627.39	1280.73
627.73	1273.24
628.08	1266.26
628.43	1258.88
628.77	1251.43
629.12	1243.83
629.46	1236.68
629.81	1229.25
630.15	1222.10
630.50	1214.57
630.84	1206.10
631.19	1198.07
631.53	1190.49
631.88	1182.76
632.22	1175.11
632.57	1167.84
632.91	1160.21
633.26	1152.72
633.60	1145.36
633.95	1138.25
634.29	1131.32
634.64	1124.63
634.98	1117.27
635.32	1110.14
635.67	1103.52
636.01	1096.85
636.36	1090.06
636.70	1083.47
637.05	1076.96
637.39	1070.47
637.73	1063.99
638.08	1058.18
638.42	1052.12
638.77	1045.63
639.11	1039.12
639.45	1032.64
639.80	1025.93
640.14	1019.51
640.49	1013.10
640.83	1006.90
641.17	1000.68
641.52	994.25
641.86	987.77
642.20	981.98
642.55	975.68
642.89	969.20
643.23	962.68
643.58	956.93
643.92	950.74
644.26	944.69
644.61	938.56
644.95	932.57
645.29	926.03
645.64	919.40
645.98	913.16
646.32	907.42
646.66	901.42
647.01	895.66
647.35	889.94
647.69	884.03
648.04	878.40
648.38	872.60
648.72	866.62
649.06	860.54
649.41	854.62
649.75	848.64
650.09	842.75
650.43	836.96
650.78	830.78
651.12	824.76
651.46	819.06
651.80	813.38
652.14	807.94
652.49	802.59
652.83	797.34
653.17	791.65
653.51	785.88
653.85	780.46
654.20	774.79
654.54	768.77
654.88	763.07
655.22	757.16
655.56	751.47
655.90	746.04
656.25	740.78
656.59	735.39
656.93	730.29
657.27	725.11
657.61	719.62
657.95	714.55
658.29	709.52
658.64	704.25
658.98	698.92
659.32	693.51
659.66	688.29
660.00	683.04
660.34	678.10
660.68	673.13
661.02	668.16
661.36	663.40
661.70	658.89
662.05	654.52
662.39	650.25
662.73	645.78
663.07	641.33
663.41	636.95
663.75	632.47
664.09	627.84
664.43	623.42
664.77	619.37
665.11	615.07
665.45	610.95
665.79	606.75
666.13	602.60
666.47	598.42
666.81	594.21
667.15	590.00
667.49	586.07
667.83	582.22
668.17	578.24
668.51	574.17
668.85	570.16
669.19	566.25
669.53	562.35
669.87	558.44
670.21	554.79
670.55	551.03
670.89	547.61
671.23	544.21
671.57	540.73
671.91	537.16
672.25	533.59
672.58	530.09
672.92	526.70
673.26	523.46
673.60	520.35
673.94	517.26
674.28	514.39
674.62	511.39
674.96	508.30
675.30	505.37
675.64	502.48
675.97	499.73
676.31	496.84
676.65	493.91
676.99	491.27
677.33	488.38
677.67	485.59
678.01	482.55
678.34	479.53
678.68	476.59
679.02	473.80
679.36	471.05
679.70	468.34
680.04	465.59
680.37	462.71
680.71	459.88
681.05	457.24
681.39	454.53
681.73	451.87
682.06	449.34
682.40	446.79
682.74	444.25
683.08	441.73
683.42	439.17
683.75	436.67
684.09	434.03
684.43	431.59
684.77	429.17
685.10	426.79
685.44	424.50
685.78	422.27
686.12	420.05
686.45	417.76
686.79	415.42
687.13	413.24
687.46	411.12
687.80	409.01
688.14	406.81
688.48	404.76
688.81	402.52
689.15	400.36
689.49	398.22
689.82	396.14
690.16	394.00
690.50	392.09
690.83	390.14
691.17	388.21
691.51	386.25
691.84	384.39
692.18	382.47
692.52	380.52
692.85	378.53
693.19	376.57
693.52	374.78
693.86	373.00
694.20	371.23
694.53	369.44
694.87	367.59
695.21	365.78
695.54	363.99
695.88	362.28
696.21	360.54
696.55	358.88
696.88	357.18
697.22	355.53
697.56	353.89
697.89	352.26
698.23	350.66
698.56	349.10
698.90	347.51
699.23	345.92
699.57	344.36
699.90	342.84
700.24	341.34
700.58	339.84
700.91	338.32
701.25	336.84
701.58	335.46
701.92	334.14
702.25	332.77
702.59	331.35
702.92	330.02
703.26	328.76
703.59	327.48
703.93	326.28
704.26	325.06
704.60	323.73
704.93	322.45
705.26	321.18
705.60	319.95
705.93	318.75
706.27	317.69
706.60	316.62
706.94	315.53
707.27	314.36
707.61	313.28
707.94	312.24
708.27	311.12
708.61	309.99
708.94	308.94
709.28	307.97
709.61	307.02
709.94	306.07
710.28	305.03
710.61	304.05
710.95	302.95
711.28	302.02
711.61	301.08
711.95	300.17
712.28	299.22
712.61	298.24
712.95	297.28
713.28	296.38
713.61	295.47
713.95	294.58
714.28	293.76
714.61	292.87
714.95	292.05
715.28	291.23
715.61	290.37
715.95	289.49
716.28	288.62
716.61	287.77
716.95	286.92
717.28	286.19
717.61	285.36
717.94	284.65
718.28	283.82
718.61	283.10
718.94	282.37
719.27	281.68
719.61	281.06
719.94	280.39
720.27	279.67
720.60	279.00
720.94	278.38
721.27	277.77
721.60	277.15
721.93	276.50
722.27	275.97
722.60	275.45
722.93	274.90
723.26	274.37
723.59	273.82
723.93	273.31
724.26	272.72
724.59	272.22
724.92	271.69
725.25	271.22
725.59	270.70
725.92	270.22
726.25	269.76
726.58	269.27
726.91	268.85
727.24	268.38
727.57	267.91
727.91	267.40
728.24	266.91
728.57	266.48
728.90	266.09
729.23	265.57
729.56	265.16
729.89	264.72
730.22	264.22
730.55	263.76
730.89	263.30
731.22	262.89
731.55	262.49
731.88	262.06
732.21	261.62
732.54	261.17
732.87	260.76
733.20	260.31
733.53	259.94
733.86	259.55
734.19	259.18
734.52	258.82
734.85	258.53
735.18	258.16
735.51	257.79
735.84	257.38
736.17	257.06
736.50	256.63
736.83	256.41
737.16	256.08
737.49	255.76
737.82	255.42
738.15	255.09
738.48	254.70
738.81	254.37
739.14	254.07
739.47	253.76
739.80	253.46
740.13	253.18
740.46	252.83
740.79	252.46
741.12	252.11
741.45	251.77
741.78	251.41
742.11	251.11
742.44	250.76
742.77	250.48
743.10	250.13
743.43	249.82
743.75	249.40
744.08	249.28
744.41	249.01
744.74	248.70
745.07	248.43
745.40	248.20
745.73	247.95
746.06	247.65
746.39	247.38
746.71	247.09
747.04	246.79
747.37	246.54
747.70	246.32
748.03	246.09
748.36	245.86
748.68	245.61
749.01	245.35
749.34	245.14
749.67	244.89
750.00	244.70
750.33	244.58
750.65	244.36
750.98	243.96
751.31	243.72
751.64	243.54
751.97	243.36
752.29	243.13
752.62	242.85
752.95	242.64
753.28	242.42
753.60	242.21
753.93	242.03
754.26	241.83
754.59	241.63
754.91	241.42
755.24	241.24
755.57	241.03
755.90	240.81
756.22	240.61
756.55	240.43
756.88	240.21
757.20	239.95
757.53	239.76
757.86	239.63
758.19	239.45
758.51	239.27
758.84	239.04
759.17	238.85
759.49	238.75
759.82	238.62
760.15	238.49
760.47	238.35
760.80	238.19
761.13	238.06
761.45	237.86
761.78	237.71
762.11	237.57
762.43	237.45
762.76	237.31
763.08	237.23
763.41	237.08
763.74	236.97
764.06	236.83
764.39	236.70
764.71	236.55
765.04	236.42
765.37	236.28
765.69	236.18
766.02	236.08
766.34	235.93
766.67	235.76
767.00	235.68
767.32	235.63
767.65	235.60
767.97	235.45
768.30	235.36
768.62	235.24
768.95	235.11
769.27	235.02
769.60	234.95
769.92	234.81
770.25	234.70
770.57	234.59
770.90	234.55
771.22	234.46
771.55	234.35
771.87	234.27
772.20	234.17
772.52	234.19
772.85	234.23
773.17	234.15
773.50	234.07
773.82	233.96
774.15	233.81
774.47	233.65
774.80	233.57
775.12	233.47
775.45	233.42
775.77	233.37
776.09	233.28
776.42	233.22
776.74	233.19
777.07	233.14
777.39	233.08
777.72	232.96
778.04	232.88
778.36	232.83
778.69	232.78
779.01	232.73
779.33	232.56
779.66	232.36
779.98	232.31
780.31	232.25
780.63	232.23
780.95	232.18
781.28	232.09
781.60	232.02
781.92	231.99
782.25	231.92
782.57	231.82
782.89	231.73
783.22	231.65
783.54	231.55
783.86	231.49
784.19	231.43
784.51	231.39
784.83	231.32
785.16	231.23
785.48	231.15
785.80	231.09
786.12	231.03
786.45	231.02
786.77	230.92
787.09	230.89
787.42	230.76
787.74	230.71
788.06	230.69
788.38	230.64
788.71	230.59
789.03	230.51
789.35	230.50
789.67	230.42
789.99	230.37
790.32	230.33
790.64	230.28
790.96	230.27
791.28	230.19
791.61	230.13
791.93	230.10
792.25	230.09
792.57	230.10
792.89	230.03
793.21	229.95
793.54	229.89
793.86	229.80
794.18	229.80
794.50	229.71
794.82	229.67
795.14	229.64
795.47	229.64
795.79	229.63
796.11	229.54
796.43	229.54
796.75	229.53
797.07	229.50
797.39	229.45
797.71	229.36
798.04	229.35
798.36	229.34
798.68	229.30
799.00	229.25
799.32	229.19
799.64	229.21
799.96	229.17
800.28	229.19
800.60	229.17
800.92	229.14
801.24	229.11
801.56	229.07
801.89	229.00
802.21	228.96
802.53	228.89
802.85	228.89
803.17	228.93
803.49	228.84
803.81	228.80
804.13	228.80
804.45	228.76
804.77	228.71
805.09	228.68
805.41	228.66
805.73	228.61
806.05	228.56
806.37	228.50
806.69	228.48
807.01	228.46
807.33	228.47
807.65	228.40
807.97	228.42
808.28	228.41
808.60	228.43
808.92	228.40
809.24	228.45
809.56	228.42
809.88	228.34
810.20	228.33
810.52	228.36
810.84	228.32
811.16	228.32
811.48	228.32
811.80	228.31
812.12	228.27
812.43	228.30
812.75	228.33
813.07	228.30
813.39	228.29
813.71	228.24
814.03	228.22
814.35	228.21
814.67	228.17
814.98	228.14
815.30	228.13
815.62	228.08
815.94	228.03
816.26	228.05
816.58	228.01
816.89	228.04
817.21	227.96
817.53	227.95
817.85	227.92
818.17	227.88
818.48	227.86
818.80	227.87
819.12	227.84
819.44	227.76
819.76	227.75
820.07	227.73
820.39	227.71
820.71	227.70
821.03	227.67
821.34	227.65
821.66	227.66
821.98	227.66
822.30	227.64
822.61	227.69
822.93	227.64
823.25	227.65
823.57	227.62
823.88	227.64
824.20	227.62
824.52	227.63
824.83	227.59
825.15	227.57
825.47	227.56
825.79	227.55
826.10	227.52
826.42	227.50
826.74	227.47
827.05	227.50
827.37	227.46
827.69	227.45
828.00	227.47
828.32	227.44
828.64	227.41
828.95	227.47
829.27	227.40
829.58	227.39
829.90	227.39
830.22	227.36
830.53	227.34
830.85	227.35
831.17	227.31
831.48	227.35
831.80	227.33
832.11	227.29
832.43	227.27
832.75	227.28
833.06	227.32
833.38	227.31
833.69	227.28
834.01	227.29
834.32	227.30
834.64	227.26
834.96	227.27
835.27	227.26
835.59	227.19
835.90	227.16
836.22	227.16
836.53	227.10
836.85	227.08
837.16	227.15
837.48	227.13
837.79	227.18
838.11	227.14
838.42	227.13
838.74	227.14
839.05	227.14
839.37	227.13
839.68	227.07
840.00	227.04
840.31	227.07
840.63	227.05
840.94	227.01
841.26	226.99
841.57	226.97
841.88	226.95
842.20	226.95
842.51	226.94
842.83	226.94
843.14	227.04
843.46	227.02
843.77	226.96
844.08	226.95
844.40	226.90
844.71	226.92
845.03	226.90
845.34	226.87
845.65	226.85
845.97	226.84
846.28	226.84
846.60	226.82
846.91	226.79
847.22	226.77
847.54	226.79
847.85	226.81
848.16	226.82
848.48	226.80
848.79	226.83
849.10	226.85
849.42	226.83
849.73	226.72
850.04	226.74
850.36	226.70
850.67	226.72
850.98	226.69
851.30	226.69
851.61	226.70
851.92	226.70
852.23	226.73
852.55	226.76
852.86	226.77
853.17	226.80
853.49	226.77
853.80	226.80
854.11	226.81
854.42	226.81
854.74	226.79
855.05	226.79
855.36	226.71
855.67	226.69
855.99	226.67
856.30	226.77
856.61	226.75
856.92	226.76
857.23	226.75
857.55	226.75
857.86	226.72
858.17	226.73
858.48	226.74
858.79	226.69
859.11	226.69
859.42	226.67
859.73	226.65
860.04	226.64
860.35	226.60
860.66	226.53
860.98	226.52
861.29	226.54
861.60	226.50
861.91	226.55
862.22	226.53
862.53	226.53
862.84	226.47
863.16	226.49
863.47	226.45
863.78	226.45
864.09	226.44
864.40	226.44
864.71	226.42
865.02	226.46
865.33	226.45
865.64	226.43
865.95	226.43
866.27	226.52
866.58	226.53
866.89	226.55
867.20	226.57
867.51	226.56
867.82	226.52
868.13	226.59
868.44	226.58
868.75	226.61
869.06	226.63
869.37	226.58
869.68	226.59
869.99	226.62
870.30	226.60
870.61	226.59
870.92	226.62
871.23	226.60
871.54	226.56
871.85	226.62
872.16	226.57
872.47	226.52
872.78	226.44
873.09	226.42
873.40	226.42
873.71	226.44
874.02	226.42
874.33	226.42
874.64	226.39
874.95	226.40
875.26	226.38
875.56	226.35
875.87	226.35
876.18	226.32
876.49	226.40
876.80	226.41
877.11	226.38
877.42	226.36
877.73	226.40
878.04	226.36
878.35	226.33
878.66	226.37
878.96	226.43
879.27	226.40
879.58	226.40
879.89	226.35
880.20	226.37
880.51	226.39
880.82	226.39
881.12	226.39
881.43	226.36
881.74	226.34
882.05	226.33
882.36	226.34
882.67	226.36
882.97	226.23
883.28	226.19
883.59	226.20
883.90	226.21
884.21	226.19
884.51	226.22
884.82	226.20
885.13	226.19
885.44	226.16
885.74	226.19
886.05	226.17
886.36	226.19
886.67	226.14
886.98	226.20
887.28	226.18
887.59	226.15
887.90	226.16
888.20	226.16
888.51	226.20
888.82	226.18
889.13	226.17
889.43	226.29
889.74	226.30
890.05	226.30
890.35	226.27
890.66	226.25
890.97	226.24
891.28	226.24
891.58	226.23
891.89	226.26
892.20	226.22
892.50	226.24
892.81	226.23
893.12	226.23
893.42	226.19
893.73	226.23
894.04	226.25
894.34	226.25
894.65	226.26
894.95	226.24
895.26	226.26
895.57	226.33
895.87	226.23
896.18	226.28
896.48	226.31
896.79	226.33
897.10	226.35
897.40	226.36
897.71	226.34
898.01	226.34
898.32	226.32
898.63	226.37
898.93	226.40
899.24	226.43
899.54	226.44
899.85	226.45
900.15	226.43
900.46	226.44
900.76	226.47
901.07	226.47
901.38	226.51
901.68	226.50
901.99	226.44
902.29	226.48
902.60	226.49
902.90	226.48
903.21	226.49
903.51	226.48
903.82	226.56
904.12	226.57
904.43	226.59
904.73	226.60
905.03	226.57
905.34	226.64
905.64	226.63
905.95	226.63
906.25	226.62
906.56	226.61
906.86	226.62
907.17	226.58
907.47	226.56
907.77	226.51
908.08	226.48
908.38	226.48
908.69	226.46
908.99	226.44
909.30	226.44
909.60	226.43
909.90	226.45
910.21	226.38
910.51	226.40
910.81	226.42
911.12	226.40
911.42	226.42
911.73	226.32
912.03	226.29
912.33	226.31
912.64	226.31
912.94	226.29
913.24	226.25
913.55	226.25
913.85	226.27
914.15	226.29
914.46	226.30
914.76	226.27
915.06	226.27
915.37	226.26
915.67	226.26
915.97	226.23
916.27	226.21
916.58	226.21
916.88	226.17
917.18	226.11
917.49	226.19
917.79	226.19
918.09	226.18
918.39	226.22
918.70	226.22
919.00	226.22
919.30	226.28
919.60	226.27
919.91	226.24
920.21	226.24
920.51	226.22
920.81	226.22
921.12	226.24
921.42	226.25
921.72	226.23
922.02	226.23
922.32	226.25
922.63	226.24
922.93	226.28
923.23	226.27
923.53	226.27
923.83	226.20
924.13	226.19
924.44	226.21
924.74	226.22
925.04	226.23
925.34	226.21
925.64	226.16
925.94	226.14
926.24	226.21
926.55	226.17
926.85	226.20
927.15	226.21
927.45	226.20
927.75	226.18
928.05	226.18
928.35	226.15
928.65	226.20
928.95	226.20
929.26	226.18
929.56	226.22
929.86	226.22
930.16	226.23
930.46	226.21
930.76	226.21
931.06	226.17
931.36	226.10
931.66	226.13
931.96	226.16
932.26	226.21
932.56	226.12
932.86	226.16
933.16	226.16
933.46	226.17
933.76	226.16
934.06	226.19
934.36	226.23
934.66	226.25
934.96	226.20
935.26	226.25
935.56	226.26
935.86	226.28
936.16	226.27
936.46	226.25
936.76	226.26
937.06	226.27
937.36	226.29
937.66	226.33
937.96	226.33
938.26	226.29
938.56	226.28
938.86	226.31
939.16	226.34
939.46	226.33
939.76	226.31
940.06	226.34
940.35	226.32
940.65	226.26
940.95	226.26
941.25	226.23
941.55	226.20
941.85	226.22
942.15	226.20
942.45	226.27
942.75	226.27
943.04	226.27
943.34	226.29
943.64	226.28
943.94	226.27
944.24	226.27
944.54	226.29
944.84	226.28
945.13	226.28
945.43	226.25
945.73	226.24
946.03	226.24
946.33	226.22
946.62	226.19
946.92	226.21
947.22	226.24
947.52	226.26
947.82	226.27
948.11	226.24
948.41	226.23
948.71	226.17
949.01	226.17
949.31	226.16
949.60	226.14
949.90	226.16
950.20	226.13
950.50	226.11
950.79	226.08
951.09	226.11
951.39	226.12
951.69	226.12
951.98	226.14
952.28	226.15
952.58	226.14
952.87	226.18
953.17	226.18
953.47	226.15
953.76	226.17
954.06	226.11
954.36	226.10
954.66	226.09
954.95	226.13
955.25	226.13
955.55	226.13
955.84	226.10
956.14	226.07
956.44	226.10
956.73	226.08
957.03	226.07
957.32	226.02
957.62	226.03
957.92	226.03
958.21	226.02
958.51	226.09
958.81	226.09
959.10	226.09
959.40	226.11
959.69	226.13
959.99	226.12
960.29	226.15
960.58	226.14
960.88	226.16
961.17	226.13
961.47	226.16
961.76	226.17
962.06	226.17
962.36	226.20
962.65	226.21
962.95	226.24
963.24	226.22
963.54	226.24
963.83	226.23
964.13	226.20
964.42	226.18
964.72	226.11
965.01	226.10
965.31	226.08
965.60	226.07
965.90	226.10
966.19	226.08
966.49	226.07
966.78	226.02
967.08	226.03
967.37	226.04
967.67	226.00
967.96	226.00
968.26	225.99
968.55	225.97
968.85	225.93
969.14	225.90
969.43	225.91
969.73	225.87
970.02	225.86
970.32	225.87
970.61	225.87
970.91	225.87
971.20	225.83
971.49	225.82
971.79	225.79
972.08	225.72
972.38	225.70
972.67	225.71
972.96	225.75
973.26	225.71
973.55	225.76
973.85	225.74
974.14	225.72
974.43	225.74
974.73	225.70
975.02	225.73
975.31	225.71
975.61	225.75
975.90	225.74
976.19	225.72
976.49	225.73
976.78	225.71
977.07	225.68
977.37	225.70
977.66	225.71
977.95	225.70
978.24	225.70
978.54	225.72
978.83	225.72
979.12	225.70
979.42	225.70
979.71	225.67
980.00	225.69
980.29	225.70
980.59	225.68
980.88	225.71
981.17	225.70
981.46	225.74
981.76	225.71
982.05	225.73
982.34	225.73
982.63	225.72
982.93	225.74
983.22	225.77
983.51	225.77
983.80	225.79
984.09	225.81
984.39	225.79
984.68	225.78
984.97	225.77
985.26	225.76
985.55	225.76
985.85	225.76
986.14	225.77
986.43	225.78
986.72	225.78
987.01	225.77
987.30	225.79
987.59	225.73
987.89	225.76
988.18	225.78
988.47	225.75
988.76	225.76
989.05	225.75
989.34	225.73
989.63	225.77
989.92	225.72
990.22	225.72
990.51	225.77
990.80	225.77
991.09	225.79
991.38	225.83
991.67	225.84
991.96	225.81
992.25	225.81
992.54	225.80
992.83	225.80
993.12	225.80
993.41	225.78
993.70	225.83
993.99	225.84
994.28	225.83
994.58	225.87
994.87	225.86
995.16	225.89
995.45	225.87
995.74	225.84
996.03	225.88
996.32	225.90
996.61	225.90
996.90	225.90
997.19	225.88
997.48	225.90
997.77	225.86
998.06	225.87
998.34	225.88
998.63	225.87
998.92	225.89
999.21	225.91
999.50	225.94
999.79	225.94
1000.08	225.96
1000.37	225.95
1000.66	225.96
1000.95	225.98
1001.24	225.99
1001.53	226.03
1001.82	226.06
1002.11	226.04
1002.40	226.04
1002.68	226.04
1002.97	226.14
1003.26	226.16
1003.55	226.08
1003.84	226.10
1004.13	226.16
1004.42	226.10
1004.71	226.09
1004.99	226.09
1005.28	226.08
1005.57	226.07
1005.86	226.04
1006.15	226.04
1006.44	226.04
1006.72	226.05
1007.01	226.05
1007.30	226.03
1007.59	225.99
1007.88	225.97
1008.17	225.97
1008.45	225.97
1008.74	225.95
1009.03	225.88
1009.32	225.88
1009.60	225.92
1009.89	225.91
1010.18	225.86
1010.47	225.89
1010.76	225.90
1011.04	225.90
1011.33	225.92
1011.62	225.90
1011.91	225.92
1012.19	225.90
1012.48	225.88
1012.77	225.87
1013.05	225.87
1013.34	225.89
1013.63	225.87
1013.92	225.89
1014.20	225.88
1014.49	225.87
1014.78	225.85
1015.06	225.81
1015.35	225.82
1015.64	225.81
1015.92	225.83
1016.21	225.82
1016.50	225.78
1016.78	225.79
1017.07	225.78
1017.36	225.73
1017.64	225.73
1017.93	225.70
1018.22	225.69
1018.50	225.68
1018.79	225.65
1019.08	225.61
1019.36	225.59
1019.65	225.58
1019.93	225.57
1020.22	225.61
1020.51	225.64
1020.79	225.63
1021.08	225.48
1021.36	225.22
1021.65	225.16
1021.94	225.42
1022.22	225.67
1022.51	225.21
1022.79	225.83
1023.08	226.45
1023.36	226.67
1023.65	225.22
>>>>>End Processed Spectral Data<<<<<
