SpectraSuite Data File
++++++++++++++++++++++++++++++++++++
Date: Fri Feb 01 16:32:41 EST 2013
User: group
Dark Spectrum Present: No
Reference Spectrum Present: No
Number of Sampled Component Spectra: 1
Spectrometers: USB2E7196
Integration Time (usec): 35000 (USB2E7196)
Spectra Averaged: 100 (USB2E7196)
Boxcar Smoothing: 10 (USB2E7196)
Correct for Electrical Dark: No (USB2E7196)
Strobe/Lamp Enabled: No (USB2E7196)
Correct for Detector Non-linearity: No (USB2E7196)
Correct for Stray Light: No (USB2E7196)
Number of Pixels in Processed Spectrum: 2048
>>>>>Begin Processed Spectral Data<<<<<
339.09	0.00
339.48	214.58
339.86	215.21
340.24	216.78
340.63	218.48
341.01	221.29
341.39	220.92
341.78	222.83
342.16	223.33
342.54	223.94
342.93	212.36
343.31	223.10
343.69	223.61
344.07	224.08
344.46	224.54
344.84	224.94
345.22	225.14
345.60	225.38
345.99	225.53
346.37	225.66
346.75	225.73
347.13	225.83
347.52	225.89
347.90	226.00
348.28	226.02
348.66	226.06
349.05	226.05
349.43	226.08
349.81	226.10
350.19	226.17
350.57	226.24
350.96	226.31
351.34	226.39
351.72	226.48
352.10	226.58
352.48	226.62
352.87	226.64
353.25	226.73
353.63	226.78
354.01	226.85
354.39	226.97
354.77	227.06
355.15	227.13
355.54	227.19
355.92	227.23
356.30	227.27
356.68	227.43
357.06	227.51
357.44	227.56
357.82	227.68
358.20	227.75
358.58	227.79
358.97	227.85
359.35	227.93
359.73	228.00
360.11	228.05
360.49	228.09
360.87	228.14
361.25	228.20
361.63	228.32
362.01	228.35
362.39	228.36
362.77	228.41
363.15	228.46
363.53	228.48
363.91	228.50
364.29	228.54
364.67	228.45
365.05	228.50
365.43	228.50
365.81	228.49
366.19	228.55
366.57	228.62
366.95	228.63
367.33	228.58
367.71	228.58
368.09	228.59
368.47	228.58
368.85	228.56
369.23	228.53
369.61	228.48
369.99	228.50
370.37	228.47
370.75	228.48
371.13	228.43
371.51	228.39
371.89	228.39
372.27	228.34
372.65	228.30
373.03	228.24
373.41	228.19
373.78	228.14
374.16	228.02
374.54	227.91
374.92	227.83
375.30	227.80
375.68	227.69
376.06	227.63
376.44	227.55
376.82	227.49
377.19	227.42
377.57	227.35
377.95	227.25
378.33	227.19
378.71	227.06
379.09	227.02
379.47	226.98
379.84	226.88
380.22	226.81
380.60	226.74
380.98	226.66
381.36	226.62
381.73	226.55
382.11	226.50
382.49	226.43
382.87	226.36
383.25	226.26
383.62	226.30
384.00	226.22
384.38	226.17
384.76	226.15
385.13	226.10
385.51	226.04
385.89	225.99
386.27	225.92
386.64	225.90
387.02	225.81
387.40	225.74
387.78	225.70
388.15	225.68
388.53	225.63
388.91	225.59
389.29	225.51
389.66	225.50
390.04	225.46
390.42	225.46
390.79	225.43
391.17	225.44
391.55	225.36
391.92	225.35
392.30	225.37
392.68	225.33
393.05	225.36
393.43	225.35
393.81	225.33
394.18	225.33
394.56	225.31
394.94	225.37
395.31	225.37
395.69	225.42
396.06	225.46
396.44	225.49
396.82	225.51
397.19	225.63
397.57	225.63
397.95	225.70
398.32	225.70
398.70	225.79
399.07	225.83
399.45	225.88
399.82	225.93
400.20	225.96
400.58	226.01
400.95	226.04
401.33	226.11
401.70	226.22
402.08	226.30
402.45	226.40
402.83	226.50
403.20	226.60
403.58	226.65
403.95	226.77
404.33	226.87
404.71	226.99
405.08	227.14
405.46	227.28
405.83	227.39
406.21	227.55
406.58	227.70
406.96	227.87
407.33	228.05
407.70	228.23
408.08	228.51
408.45	228.75
408.83	229.00
409.20	229.21
409.58	229.41
409.95	229.67
410.33	229.95
410.70	230.16
411.08	230.46
411.45	230.82
411.82	231.10
412.20	231.44
412.57	231.88
412.95	232.17
413.32	232.55
413.69	232.97
414.07	233.42
414.44	233.82
414.82	234.32
415.19	234.83
415.56	235.35
415.94	235.89
416.31	236.51
416.68	237.12
417.06	237.87
417.43	238.54
417.81	239.33
418.18	240.14
418.55	240.95
418.93	241.85
419.30	242.71
419.67	243.67
420.04	244.66
420.42	245.63
420.79	246.85
421.16	248.03
421.54	249.20
421.91	250.40
422.28	251.71
422.66	253.04
423.03	254.32
423.40	255.67
423.77	257.07
424.15	258.49
424.52	259.98
424.89	261.58
425.26	263.15
425.64	264.54
426.01	266.15
426.38	267.80
426.75	269.46
427.13	271.17
427.50	272.97
427.87	274.84
428.24	276.72
428.61	278.41
428.99	280.35
429.36	282.46
429.73	284.49
430.10	286.49
430.47	288.49
430.85	290.61
431.22	292.85
431.59	295.18
431.96	297.37
432.33	299.86
432.70	302.26
433.08	305.05
433.45	307.72
433.82	310.25
434.19	313.12
434.56	315.93
434.93	318.54
435.30	321.12
435.68	324.00
436.05	326.81
436.42	329.61
436.79	332.15
437.16	334.85
437.53	337.70
437.90	340.53
438.27	343.31
438.64	346.13
439.01	348.73
439.38	350.96
439.75	353.14
440.13	355.60
440.50	357.89
440.87	359.73
441.24	361.64
441.61	363.85
441.98	365.36
442.35	367.11
442.72	368.97
443.09	370.83
443.46	371.75
443.83	372.31
444.20	372.81
444.57	373.59
444.94	373.88
445.31	374.21
445.68	374.54
446.05	374.59
446.42	374.23
446.79	373.81
447.16	373.34
447.53	373.03
447.90	371.87
448.27	370.68
448.64	369.11
449.01	367.99
449.37	365.97
449.74	364.09
450.11	361.87
450.48	359.45
450.85	356.84
451.22	354.73
451.59	352.74
451.96	350.79
452.33	348.19
452.70	345.83
453.07	343.00
453.43	340.09
453.80	337.35
454.17	334.70
454.54	332.15
454.91	329.48
455.28	326.84
455.65	324.36
456.02	321.95
456.38	319.80
456.75	317.18
457.12	314.96
457.49	312.74
457.86	310.55
458.23	308.67
458.59	306.69
458.96	304.66
459.33	302.83
459.70	300.98
460.07	299.51
460.43	297.84
460.80	296.24
461.17	294.86
461.54	293.35
461.91	291.93
462.27	290.52
462.64	289.28
463.01	287.94
463.38	286.67
463.74	285.32
464.11	284.16
464.48	283.15
464.85	282.06
465.21	281.26
465.58	280.41
465.95	279.32
466.32	278.44
466.68	277.56
467.05	276.64
467.42	275.79
467.78	274.82
468.15	273.93
468.52	273.25
468.88	272.36
469.25	271.62
469.62	271.02
469.98	270.32
470.35	269.72
470.72	269.11
471.08	268.49
471.45	267.98
471.82	267.48
472.18	266.89
472.55	266.47
472.92	265.94
473.28	265.44
473.65	265.04
474.02	264.57
474.38	264.19
474.75	263.87
475.11	263.54
475.48	263.30
475.85	263.09
476.21	262.86
476.58	262.68
476.94	262.55
477.31	262.37
477.67	262.24
478.04	262.11
478.41	262.09
478.77	262.13
479.14	262.03
479.50	262.04
479.87	262.09
480.23	262.20
480.60	262.24
480.96	262.33
481.33	262.51
481.69	262.71
482.06	262.87
482.42	263.08
482.79	263.30
483.15	263.62
483.52	263.99
483.88	264.34
484.25	264.73
484.61	265.13
484.98	265.57
485.34	266.12
485.71	266.70
486.07	267.29
486.44	267.84
486.80	268.55
487.17	269.21
487.53	270.01
487.90	270.83
488.26	271.76
488.62	272.77
488.99	273.73
489.35	274.76
489.72	275.90
490.08	277.09
490.44	278.34
490.81	279.69
491.17	281.06
491.54	282.56
491.90	284.09
492.26	285.74
492.63	287.47
492.99	289.27
493.36	291.20
493.72	293.24
494.08	295.38
494.45	297.62
494.81	300.01
495.17	302.42
495.54	304.97
495.90	307.67
496.26	310.49
496.63	313.50
496.99	316.63
497.35	319.91
497.72	323.37
498.08	326.90
498.44	330.56
498.80	334.50
499.17	338.51
499.53	342.72
499.89	347.11
500.26	351.64
500.62	356.29
500.98	361.25
501.34	366.35
501.71	371.66
502.07	377.13
502.43	382.77
502.79	388.65
503.16	394.78
503.52	401.08
503.88	407.47
504.24	414.15
504.60	421.06
504.97	428.16
505.33	435.45
505.69	443.18
506.05	450.96
506.41	458.82
506.78	467.00
507.14	475.48
507.50	484.23
507.86	493.25
508.22	502.51
508.59	511.72
508.95	521.30
509.31	531.15
509.67	541.25
510.03	551.59
510.39	562.08
510.75	572.84
511.12	583.74
511.48	595.05
511.84	606.54
512.20	618.02
512.56	629.98
512.92	642.18
513.28	654.48
513.64	666.95
514.00	679.64
514.37	692.54
514.73	705.61
515.09	718.59
515.45	731.86
515.81	745.37
516.17	759.35
516.53	773.43
516.89	787.60
517.25	801.77
517.61	816.08
517.97	830.61
518.33	845.00
518.69	859.82
519.05	874.73
519.41	889.76
519.77	905.29
520.13	920.68
520.49	935.95
520.85	951.31
521.21	967.01
521.57	983.22
521.93	999.02
522.29	1015.26
522.65	1031.48
523.01	1047.64
523.37	1063.58
523.73	1079.69
524.09	1095.65
524.45	1111.87
524.81	1128.31
525.17	1145.04
525.53	1161.81
525.89	1178.58
526.25	1195.31
526.61	1211.67
526.97	1228.26
527.33	1244.56
527.68	1261.06
528.04	1277.60
528.40	1294.10
528.76	1311.00
529.12	1327.37
529.48	1344.03
529.84	1359.92
530.20	1376.46
530.56	1393.30
530.91	1410.69
531.27	1427.39
531.63	1443.76
531.99	1460.20
532.35	1476.17
532.71	1492.07
533.07	1508.22
533.42	1524.09
533.78	1539.98
534.14	1556.10
534.50	1571.35
534.86	1587.16
535.21	1602.28
535.57	1617.97
535.93	1633.37
536.29	1648.05
536.65	1663.01
537.00	1677.57
537.36	1692.70
537.72	1707.09
538.08	1721.41
538.44	1734.92
538.79	1748.54
539.15	1762.04
539.51	1775.51
539.87	1789.63
540.22	1803.00
540.58	1816.50
540.94	1829.59
541.29	1842.24
541.65	1854.81
542.01	1867.89
542.37	1880.14
542.72	1892.42
543.08	1904.06
543.44	1916.29
543.79	1927.40
544.15	1938.32
544.51	1949.92
544.87	1960.82
545.22	1971.50
545.58	1981.70
545.94	1991.44
546.29	2001.43
546.65	2011.33
547.01	2020.62
547.36	2029.38
547.72	2037.89
548.07	2045.85
548.43	2053.98
548.79	2062.06
549.14	2069.57
549.50	2076.92
549.86	2084.53
550.21	2091.88
550.57	2099.07
550.92	2105.68
551.28	2112.78
551.64	2119.87
551.99	2126.46
552.35	2132.67
552.70	2138.81
553.06	2144.76
553.41	2151.20
553.77	2157.15
554.13	2163.22
554.48	2169.43
554.84	2174.91
555.19	2180.23
555.55	2185.39
555.90	2189.80
556.26	2194.62
556.61	2199.54
556.97	2203.86
557.32	2208.15
557.68	2212.16
558.03	2216.37
558.39	2219.99
558.74	2224.62
559.10	2228.46
559.45	2232.03
559.81	2236.27
560.16	2240.09
560.52	2243.30
560.87	2246.64
561.23	2249.37
561.58	2252.42
561.94	2254.92
562.29	2257.22
562.64	2259.84
563.00	2262.37
563.35	2266.01
563.71	2269.20
564.06	2272.25
564.42	2275.06
564.77	2277.37
565.12	2279.81
565.48	2281.95
565.83	2283.99
566.19	2285.23
566.54	2286.19
566.89	2287.34
567.25	2288.01
567.60	2289.40
567.96	2291.18
568.31	2292.20
568.66	2293.22
569.02	2293.69
569.37	2293.95
569.72	2294.89
570.08	2295.26
570.43	2295.45
570.78	2295.02
571.14	2293.54
571.49	2292.20
571.84	2291.89
572.20	2290.84
572.55	2289.88
572.90	2288.25
573.26	2286.84
573.61	2285.17
573.96	2283.42
574.31	2280.67
574.67	2277.70
575.02	2274.13
575.37	2270.76
575.72	2266.90
576.08	2263.56
576.43	2260.18
576.78	2256.77
577.13	2253.62
577.49	2250.37
577.84	2246.84
578.19	2243.09
578.54	2239.49
578.90	2235.24
579.25	2229.76
579.60	2224.97
579.95	2219.85
580.30	2214.80
580.66	2209.67
581.01	2204.75
581.36	2199.93
581.71	2195.81
582.06	2191.45
582.42	2187.04
582.77	2181.88
583.12	2177.34
583.47	2172.88
583.82	2168.08
584.17	2162.76
584.53	2157.37
584.88	2152.04
585.23	2146.35
585.58	2140.86
585.93	2135.54
586.28	2130.92
586.63	2126.02
586.98	2120.99
587.34	2116.39
587.69	2111.66
588.04	2106.42
588.39	2100.97
588.74	2094.51
589.09	2088.28
589.44	2081.57
589.79	2075.66
590.14	2070.15
590.49	2063.75
590.84	2057.34
591.19	2051.48
591.54	2045.17
591.89	2037.81
592.25	2030.90
592.60	2023.78
592.95	2016.34
593.30	2009.04
593.65	2001.61
594.00	1994.72
594.35	1987.58
594.70	1979.65
595.05	1972.60
595.40	1965.35
595.75	1958.00
596.10	1951.93
596.45	1945.35
596.80	1939.33
597.15	1932.81
597.50	1925.65
597.85	1919.21
598.19	1912.54
598.54	1905.41
598.89	1898.71
599.24	1892.91
599.59	1886.41
599.94	1880.29
600.29	1874.04
600.64	1867.49
600.99	1860.11
601.34	1853.29
601.69	1846.33
602.04	1839.61
602.39	1832.20
602.74	1825.46
603.08	1818.62
603.43	1811.89
603.78	1804.63
604.13	1797.33
604.48	1790.00
604.83	1783.23
605.18	1776.22
605.53	1768.22
605.87	1760.15
606.22	1752.94
606.57	1744.94
606.92	1737.49
607.27	1730.28
607.62	1723.26
607.96	1715.93
608.31	1709.21
608.66	1701.48
609.01	1693.80
609.36	1686.00
609.70	1677.99
610.05	1670.00
610.40	1662.16
610.75	1653.88
611.10	1646.18
611.44	1637.75
611.79	1629.75
612.14	1621.13
612.49	1612.03
612.83	1603.63
613.18	1595.67
613.53	1587.51
613.88	1578.98
614.22	1570.72
614.57	1562.09
614.92	1554.17
615.27	1546.68
615.61	1538.38
615.96	1530.41
616.31	1522.90
616.65	1515.53
617.00	1508.00
617.35	1500.35
617.70	1492.23
618.04	1483.74
618.39	1475.46
618.74	1467.90
619.08	1459.59
619.43	1451.98
619.78	1445.17
620.12	1438.03
620.47	1430.43
620.82	1422.36
621.16	1414.97
621.51	1407.46
621.85	1399.90
622.20	1391.29
622.55	1383.01
622.89	1375.17
623.24	1367.60
623.59	1360.13
623.93	1352.85
624.28	1345.64
624.62	1338.14
624.97	1330.88
625.32	1324.12
625.66	1317.21
626.01	1310.19
626.35	1302.75
626.70	1295.01
627.04	1287.13
627.39	1279.45
627.73	1272.13
628.08	1265.22
628.43	1257.93
628.77	1250.56
629.12	1243.00
629.46	1236.00
629.81	1228.48
630.15	1221.25
630.50	1213.82
630.84	1205.67
631.19	1197.70
631.53	1190.25
631.88	1182.68
632.22	1175.10
632.57	1167.77
632.91	1160.20
633.26	1152.70
633.60	1145.39
633.95	1138.21
634.29	1131.31
634.64	1124.66
634.98	1117.32
635.32	1110.13
635.67	1103.54
636.01	1096.91
636.36	1090.06
636.70	1083.50
637.05	1076.93
637.39	1070.44
637.73	1063.95
638.08	1058.08
638.42	1052.10
638.77	1045.57
639.11	1039.03
639.45	1032.64
639.80	1025.97
640.14	1019.53
640.49	1013.00
640.83	1006.68
641.17	1000.46
641.52	993.97
641.86	987.44
642.20	981.50
642.55	975.25
642.89	968.78
643.23	962.24
643.58	956.61
643.92	950.35
644.26	944.29
644.61	938.30
644.95	932.18
645.29	925.59
645.64	918.71
645.98	912.37
646.32	906.53
646.66	900.50
647.01	894.70
647.35	889.01
647.69	883.12
648.04	877.52
648.38	871.85
648.72	865.96
649.06	859.96
649.41	854.06
649.75	848.04
650.09	842.18
650.43	836.39
650.78	830.08
651.12	824.17
651.46	818.45
651.80	812.73
652.14	807.38
652.49	802.01
652.83	796.89
653.17	791.20
653.51	785.39
653.85	780.01
654.20	774.43
654.54	768.38
654.88	762.69
655.22	756.78
655.56	751.02
655.90	745.52
656.25	740.24
656.59	734.94
656.93	729.93
657.27	724.69
657.61	719.28
657.95	714.25
658.29	709.12
658.64	703.89
658.98	698.63
659.32	693.16
659.66	687.95
660.00	682.62
660.34	677.69
660.68	672.81
661.02	667.78
661.36	663.03
661.70	658.61
662.05	654.21
662.39	649.83
662.73	645.37
663.07	640.95
663.41	636.51
663.75	631.98
664.09	627.38
664.43	622.99
664.77	618.82
665.11	614.55
665.45	610.46
665.79	606.40
666.13	602.16
666.47	598.10
666.81	593.95
667.15	589.88
667.49	586.01
667.83	582.15
668.17	578.23
668.51	574.14
668.85	570.10
669.19	566.30
669.53	562.53
669.87	558.67
670.21	555.01
670.55	551.37
670.89	547.93
671.23	544.52
671.57	541.02
671.91	537.48
672.25	534.00
672.58	530.47
672.92	527.02
673.26	523.90
673.60	520.67
673.94	517.55
674.28	514.65
674.62	511.64
674.96	508.56
675.30	505.62
675.64	502.66
675.97	499.85
676.31	496.93
676.65	493.97
676.99	491.27
677.33	488.38
677.67	485.57
678.01	482.57
678.34	479.59
678.68	476.75
679.02	473.95
679.36	471.15
679.70	468.44
680.04	465.68
680.37	462.82
680.71	460.09
681.05	457.50
681.39	454.76
681.73	452.13
682.06	449.58
682.40	447.03
682.74	444.51
683.08	441.96
683.42	439.36
683.75	436.91
684.09	434.28
684.43	431.81
684.77	429.36
685.10	426.96
685.44	424.61
685.78	422.25
686.12	419.94
686.45	417.65
686.79	415.31
687.13	413.10
687.46	410.86
687.80	408.69
688.14	406.45
688.48	404.41
688.81	402.17
689.15	400.05
689.49	397.89
689.82	395.85
690.16	393.78
690.50	391.80
690.83	389.82
691.17	387.93
691.51	386.06
691.84	384.21
692.18	382.28
692.52	380.31
692.85	378.40
693.19	376.58
693.52	374.74
693.86	372.97
694.20	371.24
694.53	369.46
694.87	367.63
695.21	365.85
695.54	363.98
695.88	362.20
696.21	360.49
696.55	358.83
696.88	357.16
697.22	355.50
697.56	353.92
697.89	352.31
698.23	350.62
698.56	348.99
698.90	347.38
699.23	345.76
699.57	344.24
699.90	342.73
700.24	341.18
700.58	339.64
700.91	338.14
701.25	336.64
701.58	335.33
701.92	333.95
702.25	332.57
702.59	331.18
702.92	329.87
703.26	328.52
703.59	327.21
703.93	325.99
704.26	324.75
704.60	323.41
704.93	322.11
705.26	320.90
705.60	319.68
705.93	318.53
706.27	317.49
706.60	316.41
706.94	315.28
707.27	314.12
707.61	313.05
707.94	311.96
708.27	310.87
708.61	309.75
708.94	308.76
709.28	307.74
709.61	306.82
709.94	305.87
710.28	304.88
710.61	303.91
710.95	302.84
711.28	301.90
711.61	300.98
711.95	300.04
712.28	299.13
712.61	298.15
712.95	297.19
713.28	296.30
713.61	295.39
713.95	294.53
714.28	293.73
714.61	292.91
714.95	292.08
715.28	291.25
715.61	290.34
715.95	289.45
716.28	288.60
716.61	287.73
716.95	286.92
717.28	286.15
717.61	285.39
717.94	284.64
718.28	283.83
718.61	283.08
718.94	282.42
719.27	281.71
719.61	281.07
719.94	280.40
720.27	279.69
720.60	279.02
720.94	278.35
721.27	277.70
721.60	277.07
721.93	276.48
722.27	275.89
722.60	275.34
722.93	274.78
723.26	274.26
723.59	273.66
723.93	273.11
724.26	272.53
724.59	271.99
724.92	271.47
725.25	270.99
725.59	270.45
725.92	269.89
726.25	269.39
726.58	268.89
726.91	268.38
727.24	267.90
727.57	267.46
727.91	266.95
728.24	266.48
728.57	265.97
728.90	265.54
729.23	265.05
729.56	264.64
729.89	264.17
730.22	263.68
730.55	263.27
730.89	262.85
731.22	262.44
731.55	261.97
731.88	261.53
732.21	261.09
732.54	260.66
732.87	260.23
733.20	259.83
733.53	259.42
733.86	259.03
734.19	258.62
734.52	258.21
734.85	257.91
735.18	257.51
735.51	257.18
735.84	256.73
736.17	256.40
736.50	255.98
736.83	255.79
737.16	255.45
737.49	255.05
737.82	254.70
738.15	254.35
738.48	254.03
738.81	253.72
739.14	253.39
739.47	253.09
739.80	252.84
740.13	252.53
740.46	252.25
740.79	251.92
741.12	251.63
741.45	251.30
741.78	250.94
742.11	250.64
742.44	250.32
742.77	250.08
743.10	249.78
743.43	249.49
743.75	249.09
744.08	248.96
744.41	248.75
744.74	248.45
745.07	248.16
745.40	247.93
745.73	247.66
746.06	247.37
746.39	247.11
746.71	246.84
747.04	246.56
747.37	246.29
747.70	246.08
748.03	245.83
748.36	245.60
748.68	245.38
749.01	245.14
749.34	244.88
749.67	244.63
750.00	244.43
750.33	244.28
750.65	244.05
750.98	243.71
751.31	243.49
751.64	243.30
751.97	243.13
752.29	242.91
752.62	242.68
752.95	242.46
753.28	242.23
753.60	241.99
753.93	241.84
754.26	241.64
754.59	241.41
754.91	241.18
755.24	240.99
755.57	240.81
755.90	240.65
756.22	240.49
756.55	240.31
756.88	240.10
757.20	239.81
757.53	239.62
757.86	239.43
758.19	239.26
758.51	239.09
758.84	238.90
759.17	238.72
759.49	238.52
759.82	238.42
760.15	238.30
760.47	238.16
760.80	237.98
761.13	237.85
761.45	237.69
761.78	237.56
762.11	237.41
762.43	237.25
762.76	237.08
763.08	236.95
763.41	236.85
763.74	236.73
764.06	236.62
764.39	236.52
764.71	236.33
765.04	236.22
765.37	236.06
765.69	235.92
766.02	235.79
766.34	235.72
766.67	235.58
767.00	235.46
767.32	235.41
767.65	235.36
767.97	235.26
768.30	235.18
768.62	235.09
768.95	234.99
769.27	234.90
769.60	234.83
769.92	234.72
770.25	234.60
770.57	234.47
770.90	234.39
771.22	234.30
771.55	234.25
771.87	234.16
772.20	234.10
772.52	234.11
772.85	234.17
773.17	234.04
773.50	233.96
773.82	233.89
774.15	233.73
774.47	233.60
774.80	233.49
775.12	233.40
775.45	233.27
775.77	233.19
776.09	233.13
776.42	233.04
776.74	232.98
777.07	232.90
777.39	232.82
777.72	232.75
778.04	232.69
778.36	232.63
778.69	232.58
779.01	232.53
779.33	232.39
779.66	232.22
779.98	232.19
780.31	232.13
780.63	232.08
780.95	232.06
781.28	232.02
781.60	231.96
781.92	231.91
782.25	231.89
782.57	231.81
782.89	231.76
783.22	231.65
783.54	231.57
783.86	231.50
784.19	231.44
784.51	231.40
784.83	231.33
785.16	231.26
785.48	231.19
785.80	231.12
786.12	231.06
786.45	230.98
786.77	230.91
787.09	230.84
787.42	230.76
787.74	230.70
788.06	230.59
788.38	230.55
788.71	230.48
789.03	230.43
789.35	230.44
789.67	230.38
789.99	230.39
790.32	230.33
790.64	230.31
790.96	230.36
791.28	230.24
791.61	230.16
791.93	230.12
792.25	230.05
792.57	230.08
792.89	230.03
793.21	230.00
793.54	229.94
793.86	229.90
794.18	229.86
794.50	229.81
794.82	229.79
795.14	229.76
795.47	229.75
795.79	229.69
796.11	229.63
796.43	229.57
796.75	229.52
797.07	229.47
797.39	229.43
797.71	229.34
798.04	229.37
798.36	229.35
798.68	229.29
799.00	229.27
799.32	229.19
799.64	229.16
799.96	229.16
800.28	229.13
800.60	229.12
800.92	229.10
801.24	229.04
801.56	229.03
801.89	228.98
802.21	228.95
802.53	228.94
802.85	228.91
803.17	228.95
803.49	228.91
803.81	228.91
804.13	228.91
804.45	228.86
804.77	228.85
805.09	228.83
805.41	228.81
805.73	228.76
806.05	228.71
806.37	228.70
806.69	228.65
807.01	228.62
807.33	228.59
807.65	228.53
807.97	228.58
808.28	228.53
808.60	228.52
808.92	228.48
809.24	228.49
809.56	228.46
809.88	228.39
810.20	228.39
810.52	228.38
810.84	228.33
811.16	228.29
811.48	228.22
811.80	228.23
812.12	228.24
812.43	228.28
812.75	228.26
813.07	228.22
813.39	228.22
813.71	228.19
814.03	228.15
814.35	228.15
814.67	228.08
814.98	228.05
815.30	228.01
815.62	227.99
815.94	227.96
816.26	228.01
816.58	227.96
816.89	227.95
817.21	227.88
817.53	227.85
817.85	227.85
818.17	227.84
818.48	227.77
818.80	227.77
819.12	227.72
819.44	227.70
819.76	227.66
820.07	227.63
820.39	227.65
820.71	227.65
821.03	227.63
821.34	227.58
821.66	227.60
821.98	227.63
822.30	227.62
822.61	227.63
822.93	227.52
823.25	227.51
823.57	227.47
823.88	227.51
824.20	227.54
824.52	227.53
824.83	227.51
825.15	227.51
825.47	227.49
825.79	227.46
826.10	227.41
826.42	227.38
826.74	227.36
827.05	227.34
827.37	227.30
827.69	227.25
828.00	227.30
828.32	227.27
828.64	227.19
828.95	227.24
829.27	227.21
829.58	227.21
829.90	227.21
830.22	227.22
830.53	227.16
830.85	227.12
831.17	227.10
831.48	227.12
831.80	227.11
832.11	227.07
832.43	227.06
832.75	227.10
833.06	227.19
833.38	227.16
833.69	227.14
834.01	227.17
834.32	227.19
834.64	227.14
834.96	227.15
835.27	227.14
835.59	227.07
835.90	227.02
836.22	227.01
836.53	226.97
836.85	226.94
837.16	227.03
837.48	226.99
837.79	227.02
838.11	227.00
838.42	226.99
838.74	226.99
839.05	226.97
839.37	226.95
839.68	226.86
840.00	226.86
840.31	226.83
840.63	226.79
840.94	226.76
841.26	226.77
841.57	226.75
841.88	226.78
842.20	226.76
842.51	226.77
842.83	226.78
843.14	226.87
843.46	226.87
843.77	226.81
844.08	226.82
844.40	226.76
844.71	226.72
845.03	226.71
845.34	226.70
845.65	226.69
845.97	226.66
846.28	226.64
846.60	226.63
846.91	226.64
847.22	226.63
847.54	226.68
847.85	226.66
848.16	226.65
848.48	226.62
848.79	226.63
849.10	226.61
849.42	226.61
849.73	226.51
850.04	226.51
850.36	226.48
850.67	226.50
850.98	226.53
851.30	226.53
851.61	226.52
851.92	226.51
852.23	226.54
852.55	226.52
852.86	226.52
853.17	226.52
853.49	226.53
853.80	226.55
854.11	226.52
854.42	226.52
854.74	226.49
855.05	226.48
855.36	226.46
855.67	226.46
855.99	226.44
856.30	226.54
856.61	226.56
856.92	226.57
857.23	226.56
857.55	226.53
857.86	226.52
858.17	226.53
858.48	226.52
858.79	226.49
859.11	226.53
859.42	226.54
859.73	226.55
860.04	226.57
860.35	226.50
860.66	226.49
860.98	226.49
861.29	226.52
861.60	226.52
861.91	226.54
862.22	226.55
862.53	226.53
862.84	226.43
863.16	226.43
863.47	226.39
863.78	226.39
864.09	226.37
864.40	226.38
864.71	226.38
865.02	226.40
865.33	226.39
865.64	226.35
865.95	226.35
866.27	226.41
866.58	226.39
866.89	226.44
867.20	226.42
867.51	226.39
867.82	226.34
868.13	226.37
868.44	226.33
868.75	226.33
869.06	226.33
869.37	226.34
869.68	226.28
869.99	226.33
870.30	226.32
870.61	226.33
870.92	226.34
871.23	226.31
871.54	226.32
871.85	226.33
872.16	226.34
872.47	226.32
872.78	226.23
873.09	226.27
873.40	226.26
873.71	226.26
874.02	226.29
874.33	226.29
874.64	226.26
874.95	226.26
875.26	226.23
875.56	226.24
875.87	226.21
876.18	226.19
876.49	226.27
876.80	226.26
877.11	226.22
877.42	226.21
877.73	226.20
878.04	226.18
878.35	226.20
878.66	226.18
878.96	226.17
879.27	226.18
879.58	226.15
879.89	226.12
880.20	226.13
880.51	226.11
880.82	226.11
881.12	226.12
881.43	226.13
881.74	226.10
882.05	226.10
882.36	226.11
882.67	226.15
882.97	226.03
883.28	226.03
883.59	226.04
883.90	226.06
884.21	226.09
884.51	226.08
884.82	226.05
885.13	226.04
885.44	226.04
885.74	226.04
886.05	226.04
886.36	226.07
886.67	226.08
886.98	226.15
887.28	226.18
887.59	226.17
887.90	226.17
888.20	226.16
888.51	226.16
888.82	226.15
889.13	226.17
889.43	226.28
889.74	226.29
890.05	226.29
890.35	226.25
890.66	226.24
890.97	226.25
891.28	226.24
891.58	226.27
891.89	226.29
892.20	226.28
892.50	226.24
892.81	226.22
893.12	226.19
893.42	226.12
893.73	226.11
894.04	226.13
894.34	226.13
894.65	226.14
894.95	226.12
895.26	226.13
895.57	226.15
895.87	226.01
896.18	226.02
896.48	226.04
896.79	226.06
897.10	226.06
897.40	226.08
897.71	226.12
898.01	226.12
898.32	226.12
898.63	226.11
898.93	226.12
899.24	226.13
899.54	226.10
899.85	226.08
900.15	226.07
900.46	226.03
900.76	226.05
901.07	226.07
901.38	226.06
901.68	226.05
901.99	226.01
902.29	226.03
902.60	225.99
902.90	226.00
903.21	225.97
903.51	225.94
903.82	225.95
904.12	225.91
904.43	225.91
904.73	225.91
905.03	225.89
905.34	225.98
905.64	225.96
905.95	225.99
906.25	225.99
906.56	225.98
906.86	225.96
907.17	225.97
907.47	225.95
907.77	225.95
908.08	225.95
908.38	225.94
908.69	225.95
908.99	225.98
909.30	225.97
909.60	226.00
909.90	226.02
910.21	225.96
910.51	225.96
910.81	225.97
911.12	225.96
911.42	225.99
911.73	225.88
912.03	225.88
912.33	225.90
912.64	225.90
912.94	225.90
913.24	225.88
913.55	225.85
913.85	225.85
914.15	225.85
914.46	225.86
914.76	225.87
915.06	225.85
915.37	225.83
915.67	225.79
915.97	225.78
916.27	225.78
916.58	225.80
916.88	225.79
917.18	225.79
917.49	225.84
917.79	225.84
918.09	225.87
918.39	225.91
918.70	225.90
919.00	225.91
919.30	225.98
919.60	225.99
919.91	225.98
920.21	225.99
920.51	226.00
920.81	225.99
921.12	225.98
921.42	225.98
921.72	225.99
922.02	226.01
922.32	226.00
922.63	225.98
922.93	226.04
923.23	226.04
923.53	226.03
923.83	225.97
924.13	226.01
924.44	225.99
924.74	225.99
925.04	226.01
925.34	226.00
925.64	225.95
925.94	225.97
926.24	226.06
926.55	226.05
926.85	226.07
927.15	226.07
927.45	226.09
927.75	226.10
928.05	226.09
928.35	226.10
928.65	226.15
928.95	226.17
929.26	226.11
929.56	226.12
929.86	226.12
930.16	226.14
930.46	226.10
930.76	226.13
931.06	226.10
931.36	226.07
931.66	226.11
931.96	226.13
932.26	226.13
932.56	226.10
932.86	226.12
933.16	226.10
933.46	226.13
933.76	226.15
934.06	226.16
934.36	226.23
934.66	226.25
934.96	226.19
935.26	226.20
935.56	226.23
935.86	226.23
936.16	226.21
936.46	226.16
936.76	226.17
937.06	226.14
937.36	226.12
937.66	226.15
937.96	226.13
938.26	226.12
938.56	226.11
938.86	226.08
939.16	226.09
939.46	226.09
939.76	226.05
940.06	226.02
940.35	226.00
940.65	225.95
940.95	225.94
941.25	225.97
941.55	225.92
941.85	225.92
942.15	225.94
942.45	225.98
942.75	225.98
943.04	225.99
943.34	226.00
943.64	226.01
943.94	225.99
944.24	226.02
944.54	226.01
944.84	226.00
945.13	225.97
945.43	225.98
945.73	226.00
946.03	225.98
946.33	225.97
946.62	225.93
946.92	225.91
947.22	225.90
947.52	225.88
947.82	225.91
948.11	225.91
948.41	225.89
948.71	225.89
949.01	225.92
949.31	225.88
949.60	225.86
949.90	225.86
950.20	225.84
950.50	225.81
950.79	225.79
951.09	225.80
951.39	225.83
951.69	225.78
951.98	225.78
952.28	225.84
952.58	225.83
952.87	225.85
953.17	225.87
953.47	225.83
953.76	225.83
954.06	225.81
954.36	225.79
954.66	225.78
954.95	225.77
955.25	225.76
955.55	225.77
955.84	225.78
956.14	225.78
956.44	225.79
956.73	225.78
957.03	225.79
957.32	225.76
957.62	225.75
957.92	225.73
958.21	225.74
958.51	225.80
958.81	225.82
959.10	225.82
959.40	225.85
959.69	225.87
959.99	225.88
960.29	225.88
960.58	225.87
960.88	225.93
961.17	225.95
961.47	225.94
961.76	225.96
962.06	225.97
962.36	225.96
962.65	225.99
962.95	226.00
963.24	226.00
963.54	226.04
963.83	226.06
964.13	226.12
964.42	226.08
964.72	225.99
965.01	226.01
965.31	226.00
965.60	225.97
965.90	226.03
966.19	226.03
966.49	226.05
966.78	226.07
967.08	226.04
967.37	226.02
967.67	226.04
967.96	226.06
968.26	226.06
968.55	226.07
968.85	226.05
969.14	226.06
969.43	226.05
969.73	226.02
970.02	226.02
970.32	225.99
970.61	225.98
970.91	226.00
971.20	225.98
971.49	225.99
971.79	226.01
972.08	225.96
972.38	225.95
972.67	225.92
972.96	225.92
973.26	225.86
973.55	225.89
973.85	225.88
974.14	225.85
974.43	225.85
974.73	225.82
975.02	225.79
975.31	225.75
975.61	225.74
975.90	225.73
976.19	225.69
976.49	225.69
976.78	225.68
977.07	225.67
977.37	225.67
977.66	225.68
977.95	225.62
978.24	225.62
978.54	225.63
978.83	225.62
979.12	225.60
979.42	225.61
979.71	225.61
980.00	225.60
980.29	225.60
980.59	225.58
980.88	225.61
981.17	225.63
981.46	225.63
981.76	225.63
982.05	225.67
982.34	225.70
982.63	225.70
982.93	225.71
983.22	225.73
983.51	225.70
983.80	225.69
984.09	225.72
984.39	225.72
984.68	225.72
984.97	225.73
985.26	225.73
985.55	225.73
985.85	225.67
986.14	225.68
986.43	225.70
986.72	225.67
987.01	225.63
987.30	225.64
987.59	225.62
987.89	225.64
988.18	225.65
988.47	225.57
988.76	225.58
989.05	225.54
989.34	225.50
989.63	225.55
989.92	225.54
990.22	225.53
990.51	225.52
990.80	225.49
991.09	225.54
991.38	225.55
991.67	225.58
991.96	225.59
992.25	225.60
992.54	225.58
992.83	225.56
993.12	225.57
993.41	225.54
993.70	225.61
993.99	225.60
994.28	225.59
994.58	225.64
994.87	225.64
995.16	225.67
995.45	225.64
995.74	225.57
996.03	225.59
996.32	225.60
996.61	225.62
996.90	225.62
997.19	225.59
997.48	225.59
997.77	225.55
998.06	225.55
998.34	225.55
998.63	225.55
998.92	225.57
999.21	225.58
999.50	225.61
999.79	225.55
1000.08	225.55
1000.37	225.54
1000.66	225.56
1000.95	225.58
1001.24	225.58
1001.53	225.63
1001.82	225.64
1002.11	225.65
1002.40	225.69
1002.68	225.70
1002.97	225.79
1003.26	225.78
1003.55	225.78
1003.84	225.79
1004.13	225.83
1004.42	225.80
1004.71	225.79
1004.99	225.80
1005.28	225.85
1005.57	225.87
1005.86	225.87
1006.15	225.89
1006.44	225.87
1006.72	225.85
1007.01	225.83
1007.30	225.83
1007.59	225.81
1007.88	225.83
1008.17	225.78
1008.45	225.74
1008.74	225.74
1009.03	225.69
1009.32	225.69
1009.60	225.65
1009.89	225.64
1010.18	225.60
1010.47	225.63
1010.76	225.66
1011.04	225.65
1011.33	225.67
1011.62	225.66
1011.91	225.67
1012.19	225.68
1012.48	225.70
1012.77	225.72
1013.05	225.77
1013.34	225.75
1013.63	225.78
1013.92	225.79
1014.20	225.81
1014.49	225.83
1014.78	225.82
1015.06	225.77
1015.35	225.78
1015.64	225.80
1015.92	225.82
1016.21	225.83
1016.50	225.82
1016.78	225.82
1017.07	225.86
1017.36	225.84
1017.64	225.85
1017.93	225.88
1018.22	225.84
1018.50	225.85
1018.79	225.83
1019.08	225.77
1019.36	225.80
1019.65	225.74
1019.93	225.77
1020.22	225.78
1020.51	225.81
1020.79	225.78
1021.08	225.35
1021.36	226.03
1021.65	225.49
1021.94	225.49
1022.22	225.69
1022.51	224.93
1022.79	226.40
1023.08	225.46
1023.36	226.81
1023.65	225.50
>>>>>End Processed Spectral Data<<<<<
