SpectraSuite Data File
++++++++++++++++++++++++++++++++++++
Date: Fri Feb 01 16:29:29 EST 2013
User: group
Dark Spectrum Present: No
Reference Spectrum Present: No
Number of Sampled Component Spectra: 1
Spectrometers: USB2E7196
Integration Time (usec): 35000 (USB2E7196)
Spectra Averaged: 100 (USB2E7196)
Boxcar Smoothing: 10 (USB2E7196)
Correct for Electrical Dark: No (USB2E7196)
Strobe/Lamp Enabled: No (USB2E7196)
Correct for Detector Non-linearity: No (USB2E7196)
Correct for Stray Light: No (USB2E7196)
Number of Pixels in Processed Spectrum: 2048
>>>>>Begin Processed Spectral Data<<<<<
339.09	0.00
339.48	213.79
339.86	215.47
340.24	216.70
340.63	217.73
341.01	220.87
341.39	220.69
341.78	221.90
342.16	223.17
342.54	223.86
342.93	212.23
343.31	222.97
343.69	223.52
344.07	223.99
344.46	224.42
344.84	224.83
345.22	225.09
345.60	225.34
345.99	225.55
346.37	225.69
346.75	225.79
347.13	225.86
347.52	225.88
347.90	225.97
348.28	226.02
348.66	226.04
349.05	226.07
349.43	226.13
349.81	226.18
350.19	226.21
350.57	226.28
350.96	226.37
351.34	226.46
351.72	226.53
352.10	226.60
352.48	226.66
352.87	226.70
353.25	226.75
353.63	226.84
354.01	226.90
354.39	226.97
354.77	227.05
355.15	227.19
355.54	227.28
355.92	227.32
356.30	227.38
356.68	227.50
357.06	227.55
357.44	227.61
357.82	227.70
358.20	227.76
358.58	227.81
358.97	227.88
359.35	227.95
359.73	228.05
360.11	228.14
360.49	228.25
360.87	228.29
361.25	228.36
361.63	228.45
362.01	228.50
362.39	228.55
362.77	228.60
363.15	228.62
363.53	228.67
363.91	228.70
364.29	228.73
364.67	228.68
365.05	228.75
365.43	228.74
365.81	228.73
366.19	228.78
366.57	228.82
366.95	228.82
367.33	228.79
367.71	228.80
368.09	228.81
368.47	228.79
368.85	228.81
369.23	228.81
369.61	228.76
369.99	228.75
370.37	228.75
370.75	228.73
371.13	228.67
371.51	228.60
371.89	228.58
372.27	228.54
372.65	228.51
373.03	228.42
373.41	228.37
373.78	228.35
374.16	228.22
374.54	228.13
374.92	228.06
375.30	227.96
375.68	227.86
376.06	227.80
376.44	227.71
376.82	227.61
377.19	227.53
377.57	227.43
377.95	227.31
378.33	227.22
378.71	227.11
379.09	227.06
379.47	227.01
379.84	226.90
380.22	226.83
380.60	226.77
380.98	226.69
381.36	226.60
381.73	226.51
382.11	226.51
382.49	226.46
382.87	226.39
383.25	226.37
383.62	226.42
384.00	226.36
384.38	226.28
384.76	226.26
385.13	226.25
385.51	226.22
385.89	226.18
386.27	226.13
386.64	226.11
387.02	226.04
387.40	225.98
387.78	225.98
388.15	225.94
388.53	225.90
388.91	225.89
389.29	225.88
389.66	225.87
390.04	225.84
390.42	225.80
390.79	225.78
391.17	225.77
391.55	225.65
391.92	225.65
392.30	225.66
392.68	225.61
393.05	225.58
393.43	225.56
393.81	225.57
394.18	225.58
394.56	225.60
394.94	225.66
395.31	225.69
395.69	225.75
396.06	225.77
396.44	225.78
396.82	225.78
397.19	225.86
397.57	225.93
397.95	225.93
398.32	225.96
398.70	226.01
399.07	226.08
399.45	226.13
399.82	226.16
400.20	226.23
400.58	226.30
400.95	226.34
401.33	226.44
401.70	226.58
402.08	226.66
402.45	226.73
402.83	226.80
403.20	226.92
403.58	226.98
403.95	227.12
404.33	227.26
404.71	227.38
405.08	227.58
405.46	227.71
405.83	227.87
406.21	228.02
406.58	228.20
406.96	228.32
407.33	228.50
407.70	228.66
408.08	228.92
408.45	229.16
408.83	229.36
409.20	229.59
409.58	229.78
409.95	230.07
410.33	230.30
410.70	230.53
411.08	230.82
411.45	231.14
411.82	231.44
412.20	231.78
412.57	232.20
412.95	232.44
413.32	232.80
413.69	233.22
414.07	233.67
414.44	234.13
414.82	234.63
415.19	235.16
415.56	235.74
415.94	236.28
416.31	236.92
416.68	237.57
417.06	238.25
417.43	238.94
417.81	239.66
418.18	240.49
418.55	241.36
418.93	242.20
419.30	243.07
419.67	244.00
420.04	244.94
420.42	245.89
420.79	247.07
421.16	248.24
421.54	249.42
421.91	250.63
422.28	251.85
422.66	253.15
423.03	254.48
423.40	255.77
423.77	257.17
424.15	258.57
424.52	260.04
424.89	261.66
425.26	263.16
425.64	264.61
426.01	266.15
426.38	267.79
426.75	269.47
427.13	271.17
427.50	272.96
427.87	274.81
428.24	276.70
428.61	278.45
428.99	280.39
429.36	282.48
429.73	284.54
430.10	286.55
430.47	288.61
430.85	290.71
431.22	292.97
431.59	295.35
431.96	297.61
432.33	300.13
432.70	302.45
433.08	305.27
433.45	307.89
433.82	310.48
434.19	313.32
434.56	316.12
434.93	318.76
435.30	321.34
435.68	324.25
436.05	327.07
436.42	329.86
436.79	332.36
437.16	335.08
437.53	337.91
437.90	340.70
438.27	343.44
438.64	346.23
439.01	348.80
439.38	351.00
439.75	353.09
440.13	355.56
440.50	357.88
440.87	359.72
441.24	361.67
441.61	363.84
441.98	365.32
442.35	367.08
442.72	368.94
443.09	370.73
443.46	371.68
443.83	372.22
444.20	372.72
444.57	373.58
444.94	373.84
445.31	374.14
445.68	374.50
446.05	374.54
446.42	374.16
446.79	373.70
447.16	373.25
447.53	373.01
447.90	371.84
448.27	370.74
448.64	369.17
449.01	368.02
449.37	366.10
449.74	364.27
450.11	362.08
450.48	359.65
450.85	357.14
451.22	355.04
451.59	353.05
451.96	351.12
452.33	348.52
452.70	346.17
453.07	343.42
453.43	340.53
453.80	337.80
454.17	335.16
454.54	332.69
454.91	330.02
455.28	327.34
455.65	324.82
456.02	322.39
456.38	320.23
456.75	317.57
457.12	315.30
457.49	313.04
457.86	310.84
458.23	308.99
458.59	306.96
458.96	304.85
459.33	303.03
459.70	301.19
460.07	299.65
460.43	297.91
460.80	296.26
461.17	294.80
461.54	293.30
461.91	291.90
462.27	290.46
462.64	289.20
463.01	287.85
463.38	286.61
463.74	285.20
464.11	284.07
464.48	283.10
464.85	281.99
465.21	281.15
465.58	280.25
465.95	279.15
466.32	278.26
466.68	277.36
467.05	276.44
467.42	275.54
467.78	274.65
468.15	273.79
468.52	273.12
468.88	272.33
469.25	271.57
469.62	270.92
469.98	270.25
470.35	269.64
470.72	269.05
471.08	268.39
471.45	267.87
471.82	267.32
472.18	266.74
472.55	266.32
472.92	265.82
473.28	265.35
473.65	264.92
474.02	264.50
474.38	264.15
474.75	263.82
475.11	263.49
475.48	263.22
475.85	263.01
476.21	262.81
476.58	262.61
476.94	262.51
477.31	262.36
477.67	262.20
478.04	262.11
478.41	262.05
478.77	262.10
479.14	262.05
479.50	262.09
479.87	262.13
480.23	262.18
480.60	262.24
480.96	262.33
481.33	262.56
481.69	262.81
482.06	263.04
482.42	263.29
482.79	263.56
483.15	263.89
483.52	264.29
483.88	264.63
484.25	265.03
484.61	265.44
484.98	265.92
485.34	266.52
485.71	267.09
486.07	267.69
486.44	268.28
486.80	269.02
487.17	269.76
487.53	270.61
487.90	271.49
488.26	272.41
488.62	273.43
488.99	274.43
489.35	275.44
489.72	276.55
490.08	277.78
490.44	279.03
490.81	280.37
491.17	281.70
491.54	283.18
491.90	284.69
492.26	286.36
492.63	288.08
492.99	289.87
493.36	291.78
493.72	293.84
494.08	295.94
494.45	298.16
494.81	300.54
495.17	302.98
495.54	305.57
495.90	308.30
496.26	311.11
496.63	314.07
496.99	317.19
497.35	320.48
497.72	323.85
498.08	327.41
498.44	331.11
498.80	335.08
499.17	339.11
499.53	343.36
499.89	347.70
500.26	352.22
500.62	356.87
500.98	361.88
501.34	366.90
501.71	372.21
502.07	377.68
502.43	383.29
502.79	389.08
503.16	395.14
503.52	401.44
503.88	407.83
504.24	414.47
504.60	421.32
504.97	428.39
505.33	435.77
505.69	443.48
506.05	451.19
506.41	459.05
506.78	467.19
507.14	475.61
507.50	484.29
507.86	493.29
508.22	502.48
508.59	511.62
508.95	521.29
509.31	531.09
509.67	541.23
510.03	551.50
510.39	562.08
510.75	572.86
511.12	583.75
511.48	595.05
511.84	606.43
512.20	617.93
512.56	629.89
512.92	642.01
513.28	654.34
513.64	666.90
514.00	679.58
514.37	692.59
514.73	705.69
515.09	718.71
515.45	732.04
515.81	745.60
516.17	759.63
516.53	773.71
516.89	787.86
517.25	801.92
517.61	816.29
517.97	830.69
518.33	845.09
518.69	859.76
519.05	874.68
519.41	889.91
519.77	905.39
520.13	920.78
520.49	936.15
520.85	951.46
521.21	967.06
521.57	983.25
521.93	998.92
522.29	1015.21
522.65	1031.47
523.01	1047.58
523.37	1063.56
523.73	1079.61
524.09	1095.51
524.45	1111.78
524.81	1128.34
525.17	1145.10
525.53	1161.96
525.89	1178.81
526.25	1195.73
526.61	1212.08
526.97	1228.70
527.33	1245.14
527.68	1261.63
528.04	1278.05
528.40	1294.58
528.76	1311.51
529.12	1328.03
529.48	1344.83
529.84	1360.74
530.20	1377.21
530.56	1394.08
530.91	1411.48
531.27	1428.19
531.63	1444.65
531.99	1461.14
532.35	1477.07
532.71	1492.99
533.07	1509.07
533.42	1524.81
533.78	1540.71
534.14	1556.90
534.50	1572.22
534.86	1587.96
535.21	1603.10
535.57	1618.81
535.93	1634.17
536.29	1648.90
536.65	1663.81
537.00	1678.45
537.36	1693.63
537.72	1708.09
538.08	1722.40
538.44	1736.05
538.79	1749.87
539.15	1763.39
539.51	1777.03
539.87	1791.30
540.22	1804.83
540.58	1818.57
540.94	1831.81
541.29	1844.52
541.65	1857.08
542.01	1870.06
542.37	1882.37
542.72	1894.64
543.08	1906.35
543.44	1918.66
543.79	1929.92
544.15	1940.90
544.51	1952.55
544.87	1963.40
545.22	1974.16
545.58	1984.35
545.94	1993.98
546.29	2003.65
546.65	2013.47
547.01	2022.69
547.36	2031.26
547.72	2039.74
548.07	2047.41
548.43	2055.52
548.79	2063.53
549.14	2070.96
549.50	2078.20
549.86	2085.80
550.21	2093.20
550.57	2100.29
550.92	2106.75
551.28	2113.74
551.64	2120.68
551.99	2127.08
552.35	2133.26
552.70	2139.38
553.06	2145.33
553.41	2151.70
553.77	2157.73
554.13	2163.74
554.48	2169.85
554.84	2175.35
555.19	2180.50
555.55	2185.84
555.90	2190.29
556.26	2195.25
556.61	2200.11
556.97	2204.43
557.32	2208.61
557.68	2212.63
558.03	2217.08
558.39	2220.91
558.74	2225.51
559.10	2229.39
559.45	2233.10
559.81	2237.43
560.16	2241.42
560.52	2244.76
560.87	2248.16
561.23	2250.88
561.58	2253.97
561.94	2256.44
562.29	2258.81
562.64	2261.48
563.00	2263.91
563.35	2267.47
563.71	2270.37
564.06	2273.56
564.42	2276.47
564.77	2278.95
565.12	2281.31
565.48	2283.15
565.83	2285.03
566.19	2286.35
566.54	2287.25
566.89	2288.32
567.25	2288.85
567.60	2290.08
567.96	2291.87
568.31	2292.83
568.66	2294.03
569.02	2294.76
569.37	2295.12
569.72	2296.07
570.08	2296.26
570.43	2296.42
570.78	2295.85
571.14	2294.43
571.49	2293.04
571.84	2292.81
572.20	2291.91
572.55	2290.91
572.90	2289.43
573.26	2288.11
573.61	2286.54
573.96	2284.84
574.31	2281.94
574.67	2279.13
575.02	2275.71
575.37	2272.30
575.72	2268.43
576.08	2265.09
576.43	2261.82
576.78	2258.37
577.13	2255.17
577.49	2252.16
577.84	2248.74
578.19	2245.22
578.54	2241.83
578.90	2237.65
579.25	2232.06
579.60	2226.85
579.95	2221.93
580.30	2216.98
580.66	2211.95
581.01	2206.96
581.36	2202.05
581.71	2197.93
582.06	2193.38
582.42	2188.88
582.77	2183.77
583.12	2179.33
583.47	2174.67
583.82	2169.75
584.17	2164.54
584.53	2159.25
584.88	2153.76
585.23	2148.19
585.58	2142.62
585.93	2137.21
586.28	2132.57
586.63	2127.65
586.98	2122.81
587.34	2118.08
587.69	2113.12
588.04	2107.80
588.39	2102.33
588.74	2095.96
589.09	2089.87
589.44	2083.19
589.79	2077.16
590.14	2071.55
590.49	2065.04
590.84	2058.70
591.19	2052.55
591.54	2046.16
591.89	2038.76
592.25	2032.00
592.60	2024.79
592.95	2017.34
593.30	2009.99
593.65	2002.58
594.00	1995.59
594.35	1988.29
594.70	1980.40
595.05	1973.31
595.40	1966.09
595.75	1958.49
596.10	1952.43
596.45	1945.81
596.80	1939.70
597.15	1933.18
597.50	1926.10
597.85	1919.78
598.19	1913.21
598.54	1906.17
598.89	1899.57
599.24	1893.80
599.59	1887.13
599.94	1880.95
600.29	1874.62
600.64	1868.03
600.99	1860.62
601.34	1853.80
601.69	1846.79
602.04	1839.96
602.39	1832.68
602.74	1825.99
603.08	1819.33
603.43	1812.65
603.78	1805.33
604.13	1798.21
604.48	1791.00
604.83	1784.20
605.18	1777.19
605.53	1769.24
605.87	1761.23
606.22	1753.92
606.57	1745.91
606.92	1738.58
607.27	1731.39
607.62	1724.52
607.96	1717.31
608.31	1710.64
608.66	1703.05
609.01	1695.63
609.36	1688.07
609.70	1680.10
610.05	1672.07
610.40	1664.28
610.75	1655.78
611.10	1648.17
611.44	1639.71
611.79	1631.60
612.14	1622.82
612.49	1613.58
612.83	1605.19
613.18	1597.17
613.53	1588.99
613.88	1580.46
614.22	1572.28
614.57	1563.62
614.92	1555.51
615.27	1548.01
615.61	1539.60
615.96	1531.66
616.31	1524.13
616.65	1516.76
617.00	1509.27
617.35	1501.55
617.70	1493.30
618.04	1485.03
618.39	1476.66
618.74	1469.08
619.08	1460.81
619.43	1453.28
619.78	1446.53
620.12	1439.42
620.47	1431.81
620.82	1423.77
621.16	1416.42
621.51	1408.71
621.85	1401.17
622.20	1392.70
622.55	1384.29
622.89	1376.59
623.24	1368.81
623.59	1361.39
623.93	1353.85
624.28	1346.61
624.62	1339.08
624.97	1331.96
625.32	1325.10
625.66	1318.15
626.01	1310.94
626.35	1303.51
626.70	1295.78
627.04	1287.93
627.39	1280.16
627.73	1272.76
628.08	1265.73
628.43	1258.42
628.77	1251.16
629.12	1243.58
629.46	1236.43
629.81	1229.00
630.15	1221.59
630.50	1214.31
630.84	1206.04
631.19	1198.16
631.53	1190.59
631.88	1182.97
632.22	1175.30
632.57	1167.94
632.91	1160.38
633.26	1152.89
633.60	1145.50
633.95	1138.31
634.29	1131.37
634.64	1124.58
634.98	1117.24
635.32	1110.04
635.67	1103.39
636.01	1096.64
636.36	1089.82
636.70	1083.30
637.05	1076.78
637.39	1070.38
637.73	1063.81
638.08	1057.85
638.42	1051.79
638.77	1045.35
639.11	1038.73
639.45	1032.33
639.80	1025.79
640.14	1019.43
640.49	1012.95
640.83	1006.55
641.17	1000.33
641.52	993.89
641.86	987.44
642.20	981.49
642.55	975.27
642.89	968.81
643.23	962.28
643.58	956.52
643.92	950.20
644.26	944.06
644.61	938.02
644.95	932.02
645.29	925.51
645.64	918.79
645.98	912.39
646.32	906.67
646.66	900.55
647.01	894.67
647.35	888.97
647.69	883.14
648.04	877.65
648.38	871.89
648.72	865.89
649.06	859.79
649.41	854.06
649.75	848.03
650.09	842.04
650.43	836.29
650.78	830.18
651.12	824.40
651.46	818.77
651.80	812.99
652.14	807.67
652.49	802.33
652.83	797.17
653.17	791.59
653.51	785.81
653.85	780.53
654.20	774.93
654.54	768.87
654.88	763.18
655.22	757.35
655.56	751.64
655.90	746.24
656.25	741.07
656.59	735.62
656.93	730.60
657.27	725.44
657.61	720.04
657.95	714.88
658.29	709.72
658.64	704.48
658.98	699.20
659.32	693.71
659.66	688.49
660.00	683.20
660.34	678.17
660.68	673.24
661.02	668.16
661.36	663.43
661.70	658.97
662.05	654.57
662.39	650.23
662.73	645.78
663.07	641.38
663.41	636.92
663.75	632.43
664.09	627.86
664.43	623.50
664.77	619.34
665.11	615.08
665.45	610.99
665.79	606.83
666.13	602.70
666.47	598.56
666.81	594.42
667.15	590.27
667.49	586.47
667.83	582.70
668.17	578.79
668.51	574.63
668.85	570.56
669.19	566.80
669.53	562.91
669.87	559.05
670.21	555.37
670.55	551.72
670.89	548.33
671.23	544.92
671.57	541.36
671.91	537.78
672.25	534.23
672.58	530.61
672.92	527.21
673.26	524.07
673.60	520.89
673.94	517.72
674.28	514.81
674.62	511.77
674.96	508.59
675.30	505.68
675.64	502.78
675.97	500.06
676.31	497.11
676.65	494.20
676.99	491.45
677.33	488.50
677.67	485.67
678.01	482.58
678.34	479.53
678.68	476.63
679.02	473.79
679.36	471.07
679.70	468.39
680.04	465.57
680.37	462.60
680.71	459.79
681.05	457.17
681.39	454.39
681.73	451.69
682.06	449.21
682.40	446.62
682.74	444.09
683.08	441.46
683.42	438.88
683.75	436.35
684.09	433.76
684.43	431.32
684.77	428.83
685.10	426.49
685.44	424.20
685.78	421.93
686.12	419.66
686.45	417.32
686.79	415.02
687.13	412.85
687.46	410.73
687.80	408.59
688.14	406.35
688.48	404.32
688.81	402.07
689.15	399.90
689.49	397.77
689.82	395.70
690.16	393.66
690.50	391.68
690.83	389.74
691.17	387.77
691.51	385.87
691.84	384.04
692.18	382.10
692.52	380.14
692.85	378.20
693.19	376.35
693.52	374.56
693.86	372.75
694.20	370.99
694.53	369.20
694.87	367.36
695.21	365.62
695.54	363.80
695.88	362.06
696.21	360.31
696.55	358.65
696.88	356.90
697.22	355.25
697.56	353.65
697.89	352.00
698.23	350.43
698.56	348.83
698.90	347.24
699.23	345.59
699.57	344.07
699.90	342.55
700.24	340.98
700.58	339.48
700.91	337.99
701.25	336.59
701.58	335.27
701.92	333.91
702.25	332.54
702.59	331.18
702.92	329.89
703.26	328.64
703.59	327.36
703.93	326.17
704.26	324.94
704.60	323.58
704.93	322.32
705.26	321.08
705.60	319.92
705.93	318.76
706.27	317.73
706.60	316.67
706.94	315.60
707.27	314.50
707.61	313.43
707.94	312.43
708.27	311.29
708.61	310.17
708.94	309.14
709.28	308.16
709.61	307.21
709.94	306.28
710.28	305.24
710.61	304.24
710.95	303.25
711.28	302.32
711.61	301.42
711.95	300.51
712.28	299.57
712.61	298.56
712.95	297.65
713.28	296.75
713.61	295.84
713.95	294.97
714.28	294.15
714.61	293.27
714.95	292.37
715.28	291.53
715.61	290.62
715.95	289.78
716.28	288.93
716.61	288.04
716.95	287.21
717.28	286.46
717.61	285.70
717.94	284.90
718.28	284.06
718.61	283.32
718.94	282.62
719.27	281.95
719.61	281.27
719.94	280.55
720.27	279.84
720.60	279.15
720.94	278.50
721.27	277.88
721.60	277.32
721.93	276.75
722.27	276.18
722.60	275.65
722.93	275.07
723.26	274.50
723.59	273.96
723.93	273.40
724.26	272.83
724.59	272.24
724.92	271.75
725.25	271.27
725.59	270.72
725.92	270.19
726.25	269.66
726.58	269.16
726.91	268.67
727.24	268.21
727.57	267.75
727.91	267.20
728.24	266.71
728.57	266.19
728.90	265.73
729.23	265.22
729.56	264.76
729.89	264.31
730.22	263.84
730.55	263.39
730.89	262.94
731.22	262.52
731.55	262.13
731.88	261.66
732.21	261.22
732.54	260.82
732.87	260.41
733.20	260.00
733.53	259.62
733.86	259.29
734.19	258.91
734.52	258.52
734.85	258.22
735.18	257.81
735.51	257.46
735.84	257.09
736.17	256.74
736.50	256.38
736.83	256.16
737.16	255.84
737.49	255.51
737.82	255.18
738.15	254.84
738.48	254.49
738.81	254.20
739.14	253.90
739.47	253.61
739.80	253.30
740.13	253.00
740.46	252.66
740.79	252.29
741.12	251.96
741.45	251.67
741.78	251.35
742.11	251.09
742.44	250.75
742.77	250.46
743.10	250.16
743.43	249.82
743.75	249.41
744.08	249.25
744.41	248.98
744.74	248.70
745.07	248.40
745.40	248.15
745.73	247.87
746.06	247.61
746.39	247.34
746.71	247.10
747.04	246.82
747.37	246.60
747.70	246.38
748.03	246.14
748.36	245.91
748.68	245.66
749.01	245.42
749.34	245.24
749.67	245.00
750.00	244.80
750.33	244.68
750.65	244.52
750.98	244.18
751.31	243.94
751.64	243.71
751.97	243.56
752.29	243.33
752.62	243.11
752.95	242.88
753.28	242.64
753.60	242.42
753.93	242.25
754.26	242.01
754.59	241.80
754.91	241.59
755.24	241.36
755.57	241.16
755.90	240.98
756.22	240.80
756.55	240.62
756.88	240.41
757.20	240.14
757.53	239.89
757.86	239.69
758.19	239.53
758.51	239.37
758.84	239.13
759.17	238.93
759.49	238.79
759.82	238.65
760.15	238.51
760.47	238.36
760.80	238.16
761.13	238.07
761.45	237.89
761.78	237.73
762.11	237.62
762.43	237.44
762.76	237.29
763.08	237.11
763.41	236.96
763.74	236.81
764.06	236.68
764.39	236.55
764.71	236.41
765.04	236.28
765.37	236.13
765.69	236.01
766.02	235.89
766.34	235.72
766.67	235.59
767.00	235.48
767.32	235.39
767.65	235.35
767.97	235.20
768.30	235.09
768.62	234.94
768.95	234.80
769.27	234.72
769.60	234.59
769.92	234.45
770.25	234.33
770.57	234.22
770.90	234.11
771.22	234.03
771.55	233.95
771.87	233.86
772.20	233.74
772.52	233.77
772.85	233.82
773.17	233.75
773.50	233.64
773.82	233.54
774.15	233.42
774.47	233.23
774.80	233.14
775.12	233.05
775.45	233.02
775.77	232.94
776.09	232.88
776.42	232.82
776.74	232.78
777.07	232.68
777.39	232.65
777.72	232.60
778.04	232.52
778.36	232.48
778.69	232.39
779.01	232.41
779.33	232.28
779.66	232.11
779.98	232.06
780.31	232.02
780.63	231.99
780.95	231.95
781.28	231.95
781.60	231.93
781.92	231.88
782.25	231.83
782.57	231.76
782.89	231.65
783.22	231.63
783.54	231.58
783.86	231.56
784.19	231.47
784.51	231.43
784.83	231.40
785.16	231.33
785.48	231.29
785.80	231.20
786.12	231.13
786.45	231.09
786.77	231.04
787.09	230.99
787.42	230.91
787.74	230.88
788.06	230.84
788.38	230.77
788.71	230.71
789.03	230.69
789.35	230.68
789.67	230.68
789.99	230.61
790.32	230.54
790.64	230.47
790.96	230.53
791.28	230.47
791.61	230.42
791.93	230.38
792.25	230.34
792.57	230.35
792.89	230.25
793.21	230.22
793.54	230.16
793.86	230.11
794.18	230.09
794.50	230.03
794.82	229.98
795.14	229.94
795.47	229.93
795.79	229.86
796.11	229.78
796.43	229.69
796.75	229.66
797.07	229.64
797.39	229.62
797.71	229.50
798.04	229.46
798.36	229.42
798.68	229.39
799.00	229.36
799.32	229.30
799.64	229.29
799.96	229.24
800.28	229.23
800.60	229.16
800.92	229.13
801.24	229.06
801.56	229.03
801.89	229.00
802.21	228.96
802.53	228.93
802.85	228.93
803.17	228.98
803.49	228.93
803.81	228.87
804.13	228.85
804.45	228.82
804.77	228.80
805.09	228.75
805.41	228.69
805.73	228.63
806.05	228.57
806.37	228.54
806.69	228.50
807.01	228.45
807.33	228.43
807.65	228.38
807.97	228.41
808.28	228.36
808.60	228.37
808.92	228.36
809.24	228.37
809.56	228.33
809.88	228.24
810.20	228.22
810.52	228.21
810.84	228.19
811.16	228.16
811.48	228.11
811.80	228.15
812.12	228.13
812.43	228.12
812.75	228.11
813.07	228.08
813.39	228.10
813.71	228.06
814.03	228.03
814.35	228.03
814.67	227.98
814.98	227.96
815.30	227.88
815.62	227.81
815.94	227.74
816.26	227.76
816.58	227.78
816.89	227.77
817.21	227.73
817.53	227.71
817.85	227.71
818.17	227.69
818.48	227.65
818.80	227.63
819.12	227.65
819.44	227.62
819.76	227.59
820.07	227.55
820.39	227.55
820.71	227.56
821.03	227.54
821.34	227.50
821.66	227.51
821.98	227.54
822.30	227.56
822.61	227.61
822.93	227.56
823.25	227.51
823.57	227.47
823.88	227.49
824.20	227.50
824.52	227.48
824.83	227.48
825.15	227.43
825.47	227.45
825.79	227.44
826.10	227.44
826.42	227.44
826.74	227.45
827.05	227.44
827.37	227.42
827.69	227.41
828.00	227.43
828.32	227.41
828.64	227.38
828.95	227.41
829.27	227.38
829.58	227.38
829.90	227.40
830.22	227.42
830.53	227.38
830.85	227.34
831.17	227.34
831.48	227.29
831.80	227.34
832.11	227.34
832.43	227.28
832.75	227.26
833.06	227.32
833.38	227.29
833.69	227.27
834.01	227.25
834.32	227.24
834.64	227.24
834.96	227.24
835.27	227.23
835.59	227.22
835.90	227.17
836.22	227.21
836.53	227.15
836.85	227.13
837.16	227.22
837.48	227.22
837.79	227.21
838.11	227.21
838.42	227.17
838.74	227.18
839.05	227.19
839.37	227.15
839.68	227.08
840.00	227.05
840.31	227.08
840.63	227.10
840.94	227.09
841.26	227.07
841.57	227.05
841.88	227.06
842.20	226.98
842.51	226.94
842.83	226.88
843.14	226.98
843.46	226.99
843.77	226.93
844.08	226.91
844.40	226.86
844.71	226.86
845.03	226.83
845.34	226.79
845.65	226.78
845.97	226.80
846.28	226.79
846.60	226.81
846.91	226.76
847.22	226.71
847.54	226.71
847.85	226.67
848.16	226.67
848.48	226.63
848.79	226.68
849.10	226.71
849.42	226.70
849.73	226.60
850.04	226.59
850.36	226.50
850.67	226.51
850.98	226.51
851.30	226.54
851.61	226.56
851.92	226.56
852.23	226.58
852.55	226.61
852.86	226.59
853.17	226.58
853.49	226.62
853.80	226.65
854.11	226.64
854.42	226.64
854.74	226.62
855.05	226.65
855.36	226.60
855.67	226.59
855.99	226.59
856.30	226.70
856.61	226.69
856.92	226.70
857.23	226.72
857.55	226.70
857.86	226.65
858.17	226.65
858.48	226.60
858.79	226.56
859.11	226.54
859.42	226.52
859.73	226.49
860.04	226.45
860.35	226.39
860.66	226.37
860.98	226.37
861.29	226.37
861.60	226.32
861.91	226.35
862.22	226.31
862.53	226.32
862.84	226.21
863.16	226.25
863.47	226.24
863.78	226.22
864.09	226.23
864.40	226.26
864.71	226.24
865.02	226.28
865.33	226.27
865.64	226.24
865.95	226.24
866.27	226.30
866.58	226.30
866.89	226.33
867.20	226.33
867.51	226.31
867.82	226.31
868.13	226.36
868.44	226.36
868.75	226.42
869.06	226.36
869.37	226.37
869.68	226.28
869.99	226.29
870.30	226.29
870.61	226.31
870.92	226.27
871.23	226.26
871.54	226.25
871.85	226.27
872.16	226.31
872.47	226.33
872.78	226.29
873.09	226.32
873.40	226.32
873.71	226.35
874.02	226.37
874.33	226.35
874.64	226.35
874.95	226.30
875.26	226.28
875.56	226.33
875.87	226.32
876.18	226.35
876.49	226.48
876.80	226.48
877.11	226.47
877.42	226.47
877.73	226.51
878.04	226.49
878.35	226.49
878.66	226.50
878.96	226.49
879.27	226.48
879.58	226.46
879.89	226.44
880.20	226.43
880.51	226.46
880.82	226.46
881.12	226.46
881.43	226.48
881.74	226.47
882.05	226.46
882.36	226.47
882.67	226.45
882.97	226.38
883.28	226.36
883.59	226.34
883.90	226.36
884.21	226.36
884.51	226.37
884.82	226.38
885.13	226.34
885.44	226.33
885.74	226.32
886.05	226.34
886.36	226.35
886.67	226.33
886.98	226.33
887.28	226.35
887.59	226.36
887.90	226.36
888.20	226.37
888.51	226.40
888.82	226.39
889.13	226.41
889.43	226.43
889.74	226.45
890.05	226.45
890.35	226.44
890.66	226.39
890.97	226.39
891.28	226.38
891.58	226.40
891.89	226.40
892.20	226.41
892.50	226.39
892.81	226.38
893.12	226.40
893.42	226.33
893.73	226.33
894.04	226.34
894.34	226.36
894.65	226.32
894.95	226.32
895.26	226.31
895.57	226.36
895.87	226.30
896.18	226.28
896.48	226.29
896.79	226.31
897.10	226.33
897.40	226.32
897.71	226.35
898.01	226.35
898.32	226.37
898.63	226.34
898.93	226.35
899.24	226.36
899.54	226.32
899.85	226.36
900.15	226.31
900.46	226.29
900.76	226.23
901.07	226.23
901.38	226.21
901.68	226.20
901.99	226.16
902.29	226.15
902.60	226.16
902.90	226.14
903.21	226.09
903.51	226.08
903.82	226.09
904.12	226.06
904.43	226.05
904.73	226.04
905.03	226.07
905.34	226.16
905.64	226.17
905.95	226.19
906.25	226.17
906.56	226.19
906.86	226.20
907.17	226.22
907.47	226.21
907.77	226.18
908.08	226.16
908.38	226.15
908.69	226.16
908.99	226.17
909.30	226.16
909.60	226.19
909.90	226.20
910.21	226.16
910.51	226.16
910.81	226.15
911.12	226.16
911.42	226.16
911.73	226.06
912.03	226.08
912.33	226.09
912.64	226.11
912.94	226.11
913.24	226.06
913.55	226.08
913.85	226.11
914.15	226.15
914.46	226.20
914.76	226.20
915.06	226.20
915.37	226.19
915.67	226.23
915.97	226.23
916.27	226.23
916.58	226.26
916.88	226.26
917.18	226.29
917.49	226.34
917.79	226.31
918.09	226.34
918.39	226.34
918.70	226.35
919.00	226.37
919.30	226.44
919.60	226.48
919.91	226.45
920.21	226.45
920.51	226.43
920.81	226.41
921.12	226.45
921.42	226.43
921.72	226.42
922.02	226.39
922.32	226.40
922.63	226.41
922.93	226.44
923.23	226.44
923.53	226.43
923.83	226.37
924.13	226.41
924.44	226.41
924.74	226.43
925.04	226.45
925.34	226.45
925.64	226.33
925.94	226.33
926.24	226.40
926.55	226.37
926.85	226.38
927.15	226.38
927.45	226.34
927.75	226.33
928.05	226.33
928.35	226.34
928.65	226.34
928.95	226.36
929.26	226.32
929.56	226.31
929.86	226.31
930.16	226.29
930.46	226.26
930.76	226.25
931.06	226.20
931.36	226.16
931.66	226.14
931.96	226.18
932.26	226.16
932.56	226.12
932.86	226.14
933.16	226.12
933.46	226.09
933.76	226.11
934.06	226.14
934.36	226.20
934.66	226.18
934.96	226.17
935.26	226.14
935.56	226.15
935.86	226.14
936.16	226.11
936.46	226.11
936.76	226.11
937.06	226.09
937.36	226.08
937.66	226.05
937.96	226.05
938.26	226.05
938.56	226.01
938.86	225.99
939.16	225.98
939.46	226.01
939.76	226.02
940.06	226.00
940.35	225.98
940.65	225.92
940.95	225.91
941.25	225.91
941.55	225.88
941.85	225.91
942.15	225.93
942.45	226.00
942.75	225.97
943.04	225.97
943.34	225.98
943.64	225.98
943.94	225.97
944.24	225.96
944.54	225.96
944.84	226.01
945.13	226.00
945.43	225.98
945.73	225.94
946.03	225.93
946.33	225.95
946.62	225.94
946.92	225.93
947.22	225.94
947.52	225.92
947.82	225.94
948.11	225.92
948.41	225.90
948.71	225.82
949.01	225.85
949.31	225.85
949.60	225.83
949.90	225.82
950.20	225.83
950.50	225.82
950.79	225.82
951.09	225.81
951.39	225.83
951.69	225.84
951.98	225.88
952.28	225.89
952.58	225.90
952.87	225.92
953.17	225.94
953.47	225.93
953.76	225.92
954.06	225.93
954.36	225.90
954.66	225.91
954.95	225.97
955.25	225.97
955.55	226.01
955.84	225.99
956.14	226.03
956.44	226.03
956.73	226.01
957.03	226.00
957.32	226.00
957.62	225.96
957.92	225.96
958.21	225.93
958.51	226.05
958.81	226.01
959.10	226.01
959.40	226.01
959.69	226.01
959.99	226.04
960.29	226.03
960.58	226.05
960.88	226.07
961.17	226.02
961.47	226.02
961.76	225.98
962.06	226.02
962.36	226.00
962.65	225.98
962.95	226.00
963.24	226.00
963.54	225.99
963.83	226.01
964.13	226.01
964.42	226.00
964.72	225.91
965.01	225.91
965.31	225.89
965.60	225.87
965.90	225.93
966.19	225.90
966.49	225.89
966.78	225.85
967.08	225.82
967.37	225.85
967.67	225.79
967.96	225.80
968.26	225.76
968.55	225.76
968.85	225.79
969.14	225.79
969.43	225.81
969.73	225.80
970.02	225.80
970.32	225.77
970.61	225.75
970.91	225.73
971.20	225.74
971.49	225.72
971.79	225.77
972.08	225.72
972.38	225.74
972.67	225.76
972.96	225.76
973.26	225.77
973.55	225.79
973.85	225.81
974.14	225.78
974.43	225.78
974.73	225.76
975.02	225.77
975.31	225.75
975.61	225.74
975.90	225.75
976.19	225.76
976.49	225.79
976.78	225.81
977.07	225.81
977.37	225.84
977.66	225.83
977.95	225.78
978.24	225.77
978.54	225.81
978.83	225.79
979.12	225.81
979.42	225.80
979.71	225.74
980.00	225.75
980.29	225.77
980.59	225.78
980.88	225.82
981.17	225.79
981.46	225.78
981.76	225.78
982.05	225.80
982.34	225.83
982.63	225.83
982.93	225.84
983.22	225.88
983.51	225.87
983.80	225.92
984.09	225.93
984.39	225.93
984.68	225.90
984.97	225.89
985.26	225.91
985.55	225.93
985.85	225.95
986.14	225.99
986.43	226.02
986.72	226.04
987.01	226.03
987.30	226.03
987.59	226.03
987.89	226.04
988.18	226.00
988.47	225.98
988.76	225.98
989.05	225.99
989.34	225.93
989.63	225.92
989.92	225.91
990.22	225.92
990.51	225.92
990.80	225.92
991.09	225.95
991.38	225.96
991.67	225.93
991.96	225.94
992.25	225.96
992.54	225.92
992.83	225.90
993.12	225.90
993.41	225.93
993.70	225.98
993.99	226.02
994.28	226.02
994.58	226.02
994.87	226.01
995.16	225.98
995.45	226.01
995.74	225.99
996.03	226.01
996.32	226.05
996.61	226.06
996.90	226.04
997.19	226.02
997.48	226.02
997.77	225.99
998.06	226.00
998.34	225.94
998.63	225.94
998.92	225.94
999.21	225.97
999.50	225.94
999.79	225.89
1000.08	225.86
1000.37	225.88
1000.66	225.86
1000.95	225.89
1001.24	225.88
1001.53	225.87
1001.82	225.89
1002.11	225.84
1002.40	225.81
1002.68	225.84
1002.97	225.91
1003.26	225.90
1003.55	225.87
1003.84	225.93
1004.13	225.96
1004.42	225.97
1004.71	225.98
1004.99	226.01
1005.28	225.99
1005.57	226.01
1005.86	226.01
1006.15	225.98
1006.44	225.96
1006.72	225.96
1007.01	225.93
1007.30	225.91
1007.59	225.89
1007.88	225.88
1008.17	225.88
1008.45	225.85
1008.74	225.80
1009.03	225.73
1009.32	225.73
1009.60	225.71
1009.89	225.69
1010.18	225.63
1010.47	225.61
1010.76	225.60
1011.04	225.58
1011.33	225.57
1011.62	225.55
1011.91	225.57
1012.19	225.60
1012.48	225.60
1012.77	225.62
1013.05	225.70
1013.34	225.73
1013.63	225.70
1013.92	225.70
1014.20	225.71
1014.49	225.74
1014.78	225.74
1015.06	225.73
1015.35	225.74
1015.64	225.77
1015.92	225.78
1016.21	225.81
1016.50	225.84
1016.78	225.83
1017.07	225.86
1017.36	225.83
1017.64	225.84
1017.93	225.84
1018.22	225.82
1018.50	225.85
1018.79	225.86
1019.08	225.81
1019.36	225.79
1019.65	225.83
1019.93	225.87
1020.22	225.91
1020.51	225.99
1020.79	226.01
1021.08	225.69
1021.36	226.04
1021.65	226.21
1021.94	225.95
1022.22	225.58
1022.51	225.86
1022.79	226.53
1023.08	226.57
1023.36	227.65
1023.65	225.85
>>>>>End Processed Spectral Data<<<<<
