SpectraSuite Data File
++++++++++++++++++++++++++++++++++++
Date: Fri Feb 01 16:33:02 EST 2013
User: group
Dark Spectrum Present: No
Reference Spectrum Present: No
Number of Sampled Component Spectra: 1
Spectrometers: USB2E7196
Integration Time (usec): 35000 (USB2E7196)
Spectra Averaged: 100 (USB2E7196)
Boxcar Smoothing: 10 (USB2E7196)
Correct for Electrical Dark: No (USB2E7196)
Strobe/Lamp Enabled: No (USB2E7196)
Correct for Detector Non-linearity: No (USB2E7196)
Correct for Stray Light: No (USB2E7196)
Number of Pixels in Processed Spectrum: 2048
>>>>>Begin Processed Spectral Data<<<<<
339.09	0.00
339.48	213.74
339.86	215.45
340.24	216.33
340.63	217.91
341.01	220.32
341.39	220.66
341.78	222.01
342.16	223.25
342.54	223.93
342.93	212.13
343.31	222.87
343.69	223.41
344.07	223.86
344.46	224.29
344.84	224.63
345.22	224.89
345.60	225.12
345.99	225.31
346.37	225.44
346.75	225.54
347.13	225.62
347.52	225.68
347.90	225.74
348.28	225.78
348.66	225.84
349.05	225.79
349.43	225.86
349.81	225.89
350.19	225.93
350.57	225.96
350.96	226.01
351.34	226.07
351.72	226.15
352.10	226.23
352.48	226.30
352.87	226.37
353.25	226.46
353.63	226.57
354.01	226.66
354.39	226.72
354.77	226.80
355.15	226.88
355.54	226.96
355.92	227.01
356.30	227.09
356.68	227.23
357.06	227.34
357.44	227.36
357.82	227.44
358.20	227.52
358.58	227.59
358.97	227.70
359.35	227.78
359.73	227.86
360.11	227.96
360.49	228.01
360.87	228.11
361.25	228.17
361.63	228.24
362.01	228.28
362.39	228.36
362.77	228.42
363.15	228.46
363.53	228.47
363.91	228.50
364.29	228.52
364.67	228.45
365.05	228.48
365.43	228.54
365.81	228.59
366.19	228.68
366.57	228.73
366.95	228.73
367.33	228.72
367.71	228.72
368.09	228.72
368.47	228.75
368.85	228.71
369.23	228.71
369.61	228.65
369.99	228.66
370.37	228.62
370.75	228.64
371.13	228.62
371.51	228.57
371.89	228.57
372.27	228.54
372.65	228.51
373.03	228.44
373.41	228.40
373.78	228.32
374.16	228.21
374.54	228.12
374.92	228.03
375.30	228.00
375.68	227.92
376.06	227.82
376.44	227.75
376.82	227.67
377.19	227.59
377.57	227.56
377.95	227.46
378.33	227.42
378.71	227.28
379.09	227.20
379.47	227.16
379.84	227.07
380.22	226.99
380.60	226.88
380.98	226.81
381.36	226.68
381.73	226.60
382.11	226.55
382.49	226.48
382.87	226.40
383.25	226.29
383.62	226.33
384.00	226.26
384.38	226.21
384.76	226.18
385.13	226.19
385.51	226.08
385.89	226.01
386.27	225.94
386.64	225.91
387.02	225.87
387.40	225.82
387.78	225.78
388.15	225.75
388.53	225.71
388.91	225.70
389.29	225.71
389.66	225.68
390.04	225.59
390.42	225.57
390.79	225.59
391.17	225.57
391.55	225.45
391.92	225.44
392.30	225.43
392.68	225.39
393.05	225.36
393.43	225.36
393.81	225.34
394.18	225.33
394.56	225.31
394.94	225.34
395.31	225.33
395.69	225.36
396.06	225.38
396.44	225.45
396.82	225.45
397.19	225.53
397.57	225.57
397.95	225.64
398.32	225.66
398.70	225.71
399.07	225.79
399.45	225.84
399.82	225.92
400.20	225.98
400.58	226.08
400.95	226.08
401.33	226.21
401.70	226.35
402.08	226.45
402.45	226.54
402.83	226.66
403.20	226.80
403.58	226.91
403.95	227.05
404.33	227.15
404.71	227.26
405.08	227.42
405.46	227.56
405.83	227.71
406.21	227.87
406.58	228.01
406.96	228.20
407.33	228.37
407.70	228.55
408.08	228.82
408.45	229.02
408.83	229.26
409.20	229.44
409.58	229.63
409.95	229.87
410.33	230.14
410.70	230.36
411.08	230.64
411.45	230.91
411.82	231.18
412.20	231.55
412.57	231.97
412.95	232.25
413.32	232.64
413.69	233.09
414.07	233.50
414.44	233.98
414.82	234.44
415.19	235.01
415.56	235.55
415.94	236.09
416.31	236.74
416.68	237.44
417.06	238.15
417.43	238.81
417.81	239.57
418.18	240.33
418.55	241.22
418.93	242.08
419.30	243.00
419.67	243.98
420.04	244.90
420.42	245.88
420.79	247.10
421.16	248.24
421.54	249.38
421.91	250.60
422.28	251.84
422.66	253.18
423.03	254.47
423.40	255.78
423.77	257.20
424.15	258.62
424.52	260.05
424.89	261.67
425.26	263.27
425.64	264.71
426.01	266.33
426.38	267.95
426.75	269.62
427.13	271.32
427.50	273.08
427.87	274.95
428.24	276.80
428.61	278.49
428.99	280.45
429.36	282.51
429.73	284.60
430.10	286.62
430.47	288.66
430.85	290.76
431.22	293.04
431.59	295.37
431.96	297.59
432.33	300.04
432.70	302.38
433.08	305.14
433.45	307.83
433.82	310.40
434.19	313.27
434.56	316.07
434.93	318.75
435.30	321.34
435.68	324.24
436.05	327.08
436.42	329.90
436.79	332.39
437.16	335.15
437.53	337.94
437.90	340.69
438.27	343.39
438.64	346.20
439.01	348.73
439.38	350.97
439.75	353.14
440.13	355.61
440.50	357.93
440.87	359.80
441.24	361.71
441.61	363.83
441.98	365.34
442.35	367.11
442.72	368.95
443.09	370.84
443.46	371.85
443.83	372.37
444.20	372.87
444.57	373.71
444.94	373.92
445.31	374.24
445.68	374.64
446.05	374.73
446.42	374.38
446.79	373.99
447.16	373.57
447.53	373.22
447.90	372.08
448.27	370.92
448.64	369.28
449.01	368.15
449.37	366.22
449.74	364.29
450.11	362.09
450.48	359.59
450.85	357.03
451.22	354.89
451.59	352.94
451.96	351.01
452.33	348.39
452.70	346.09
453.07	343.26
453.43	340.35
453.80	337.59
454.17	334.93
454.54	332.39
454.91	329.65
455.28	327.03
455.65	324.59
456.02	322.15
456.38	319.99
456.75	317.29
457.12	315.03
457.49	312.83
457.86	310.66
458.23	308.82
458.59	306.76
458.96	304.66
459.33	302.78
459.70	300.91
460.07	299.45
460.43	297.76
460.80	296.21
461.17	294.76
461.54	293.27
461.91	291.85
462.27	290.39
462.64	289.11
463.01	287.75
463.38	286.44
463.74	285.09
464.11	284.00
464.48	283.02
464.85	281.94
465.21	281.07
465.58	280.15
465.95	279.07
466.32	278.19
466.68	277.33
467.05	276.47
467.42	275.62
467.78	274.70
468.15	273.81
468.52	273.18
468.88	272.34
469.25	271.60
469.62	270.97
469.98	270.29
470.35	269.71
470.72	269.14
471.08	268.46
471.45	267.93
471.82	267.37
472.18	266.77
472.55	266.37
472.92	265.87
473.28	265.41
473.65	264.99
474.02	264.55
474.38	264.15
474.75	263.81
475.11	263.45
475.48	263.20
475.85	262.97
476.21	262.71
476.58	262.57
476.94	262.43
477.31	262.26
477.67	262.16
478.04	262.05
478.41	262.00
478.77	262.08
479.14	262.03
479.50	262.06
479.87	262.16
480.23	262.24
480.60	262.28
480.96	262.38
481.33	262.56
481.69	262.76
482.06	262.97
482.42	263.23
482.79	263.46
483.15	263.73
483.52	264.12
483.88	264.49
484.25	264.84
484.61	265.28
484.98	265.76
485.34	266.35
485.71	266.97
486.07	267.56
486.44	268.14
486.80	268.86
487.17	269.58
487.53	270.37
487.90	271.22
488.26	272.19
488.62	273.17
488.99	274.17
489.35	275.20
489.72	276.32
490.08	277.46
490.44	278.72
490.81	280.09
491.17	281.48
491.54	282.96
491.90	284.50
492.26	286.15
492.63	287.86
492.99	289.60
493.36	291.47
493.72	293.54
494.08	295.68
494.45	297.93
494.81	300.31
495.17	302.78
495.54	305.40
495.90	308.08
496.26	310.92
496.63	313.92
496.99	317.06
497.35	320.37
497.72	323.85
498.08	327.41
498.44	331.11
498.80	334.99
499.17	339.03
499.53	343.25
499.89	347.63
500.26	352.17
500.62	356.89
500.98	361.88
501.34	366.96
501.71	372.29
502.07	377.73
502.43	383.32
502.79	389.15
503.16	395.24
503.52	401.57
503.88	407.99
504.24	414.64
504.60	421.54
504.97	428.61
505.33	435.95
505.69	443.65
506.05	451.49
506.41	459.40
506.78	467.56
507.14	476.06
507.50	484.78
507.86	493.78
508.22	502.98
508.59	512.14
508.95	521.77
509.31	531.56
509.67	541.67
510.03	552.00
510.39	562.52
510.75	573.28
511.12	584.20
511.48	595.46
511.84	606.85
512.20	618.35
512.56	630.34
512.92	642.46
513.28	654.77
513.64	667.18
514.00	679.95
514.37	692.85
514.73	705.89
515.09	718.92
515.45	732.23
515.81	745.80
516.17	759.80
516.53	773.86
516.89	787.99
517.25	802.16
517.61	816.54
517.97	830.94
518.33	845.33
518.69	860.00
519.05	875.00
519.41	890.16
519.77	905.74
520.13	921.11
520.49	936.46
520.85	951.77
521.21	967.36
521.57	983.45
521.93	999.20
522.29	1015.43
522.65	1031.64
523.01	1047.78
523.37	1063.75
523.73	1079.81
524.09	1095.81
524.45	1112.02
524.81	1128.59
525.17	1145.40
525.53	1162.15
525.89	1178.99
526.25	1195.85
526.61	1212.13
526.97	1228.84
527.33	1245.22
527.68	1261.71
528.04	1278.10
528.40	1294.66
528.76	1311.66
529.12	1328.09
529.48	1344.90
529.84	1360.91
530.20	1377.38
530.56	1394.17
530.91	1411.53
531.27	1428.22
531.63	1444.64
531.99	1461.21
532.35	1477.10
532.71	1492.82
533.07	1509.08
533.42	1524.84
533.78	1540.82
534.14	1556.98
534.50	1572.20
534.86	1587.79
535.21	1602.86
535.57	1618.63
535.93	1634.10
536.29	1648.77
536.65	1663.73
537.00	1678.39
537.36	1693.63
537.72	1708.08
538.08	1722.52
538.44	1736.17
538.79	1750.04
539.15	1763.56
539.51	1777.14
539.87	1791.36
540.22	1805.01
540.58	1818.68
540.94	1831.82
541.29	1844.51
541.65	1857.05
542.01	1870.12
542.37	1882.29
542.72	1894.74
543.08	1906.48
543.44	1918.72
543.79	1930.00
544.15	1940.96
544.51	1952.49
544.87	1963.27
545.22	1973.97
545.58	1984.19
545.94	1993.84
546.29	2003.42
546.65	2013.21
547.01	2022.50
547.36	2030.98
547.72	2039.48
548.07	2047.20
548.43	2055.40
548.79	2063.38
549.14	2070.89
549.50	2078.18
549.86	2085.82
550.21	2092.98
550.57	2100.08
550.92	2106.59
551.28	2113.52
551.64	2120.66
551.99	2126.96
552.35	2133.02
552.70	2139.30
553.06	2145.06
553.41	2151.42
553.77	2157.59
554.13	2163.46
554.48	2169.46
554.84	2175.15
555.19	2180.29
555.55	2185.43
555.90	2189.92
556.26	2194.87
556.61	2199.54
556.97	2203.99
557.32	2208.25
557.68	2212.46
558.03	2216.91
558.39	2220.54
558.74	2225.17
559.10	2229.00
559.45	2232.83
559.81	2237.17
560.16	2240.83
560.52	2244.11
560.87	2247.40
561.23	2249.96
561.58	2253.05
561.94	2255.48
562.29	2257.79
562.64	2260.55
563.00	2263.20
563.35	2266.74
563.71	2269.84
564.06	2273.10
564.42	2275.80
564.77	2278.42
565.12	2280.78
565.48	2282.48
565.83	2284.50
566.19	2285.85
566.54	2286.64
566.89	2287.70
567.25	2288.36
567.60	2289.81
567.96	2291.56
568.31	2292.43
568.66	2293.61
569.02	2294.16
569.37	2294.69
569.72	2295.63
570.08	2295.75
570.43	2295.78
570.78	2295.24
571.14	2293.61
571.49	2292.28
571.84	2292.05
572.20	2291.00
572.55	2289.98
572.90	2288.54
573.26	2287.24
573.61	2285.46
573.96	2283.83
574.31	2281.05
574.67	2278.06
575.02	2274.39
575.37	2271.12
575.72	2267.50
576.08	2264.21
576.43	2260.93
576.78	2257.29
577.13	2254.01
577.49	2251.03
577.84	2247.58
578.19	2243.86
578.54	2240.43
578.90	2236.36
579.25	2230.86
579.60	2225.92
579.95	2220.87
580.30	2215.91
580.66	2210.77
581.01	2206.05
581.36	2201.18
581.71	2197.06
582.06	2192.74
582.42	2188.48
582.77	2183.31
583.12	2178.83
583.47	2174.26
583.82	2169.49
584.17	2164.32
584.53	2158.85
584.88	2153.16
585.23	2147.59
585.58	2142.16
585.93	2136.81
586.28	2132.04
586.63	2127.10
586.98	2122.06
587.34	2117.43
587.69	2112.56
588.04	2107.46
588.39	2101.97
588.74	2095.49
589.09	2089.31
589.44	2082.62
589.79	2076.54
590.14	2070.89
590.49	2064.42
590.84	2057.90
591.19	2051.83
591.54	2045.50
591.89	2038.29
592.25	2031.75
592.60	2024.54
592.95	2017.15
593.30	2009.73
593.65	2002.04
594.00	1994.97
594.35	1987.76
594.70	1979.71
595.05	1972.82
595.40	1965.47
595.75	1957.82
596.10	1951.75
596.45	1945.13
596.80	1939.05
597.15	1932.63
597.50	1925.74
597.85	1919.29
598.19	1912.71
598.54	1905.69
598.89	1899.01
599.24	1893.25
599.59	1886.53
599.94	1880.34
600.29	1873.88
600.64	1867.35
600.99	1860.07
601.34	1853.36
601.69	1846.47
602.04	1839.73
602.39	1832.22
602.74	1825.48
603.08	1818.78
603.43	1812.10
603.78	1804.81
604.13	1797.63
604.48	1790.32
604.83	1783.42
605.18	1776.51
605.53	1768.77
605.87	1760.86
606.22	1753.61
606.57	1745.57
606.92	1738.34
607.27	1731.33
607.62	1724.63
607.96	1717.47
608.31	1710.99
608.66	1703.46
609.01	1696.01
609.36	1688.47
609.70	1680.51
610.05	1672.47
610.40	1664.86
610.75	1656.55
611.10	1648.98
611.44	1640.51
611.79	1632.46
612.14	1623.99
612.49	1614.77
612.83	1606.28
613.18	1598.15
613.53	1590.10
613.88	1581.62
614.22	1573.29
614.57	1564.52
614.92	1556.34
615.27	1548.86
615.61	1540.42
615.96	1532.37
616.31	1524.62
616.65	1517.23
617.00	1509.71
617.35	1501.95
617.70	1493.62
618.04	1485.12
618.39	1476.87
618.74	1469.26
619.08	1460.99
619.43	1453.22
619.78	1446.37
620.12	1439.23
620.47	1431.65
620.82	1423.50
621.16	1416.08
621.51	1408.48
621.85	1400.96
622.20	1392.60
622.55	1384.24
622.89	1376.40
623.24	1368.73
623.59	1361.36
623.93	1353.83
624.28	1346.56
624.62	1339.21
624.97	1332.04
625.32	1325.22
625.66	1318.18
626.01	1311.03
626.35	1303.59
626.70	1295.93
627.04	1288.20
627.39	1280.36
627.73	1272.90
628.08	1266.00
628.43	1258.70
628.77	1251.35
629.12	1243.78
629.46	1236.48
629.81	1228.87
630.15	1221.65
630.50	1214.17
630.84	1205.96
631.19	1198.08
631.53	1190.57
631.88	1182.84
632.22	1175.26
632.57	1168.01
632.91	1160.49
633.26	1152.98
633.60	1145.62
633.95	1138.43
634.29	1131.40
634.64	1124.75
634.98	1117.48
635.32	1110.29
635.67	1103.70
636.01	1096.96
636.36	1090.15
636.70	1083.58
637.05	1077.17
637.39	1070.68
637.73	1064.20
638.08	1058.24
638.42	1052.19
638.77	1045.77
639.11	1039.27
639.45	1032.86
639.80	1026.18
640.14	1019.82
640.49	1013.35
640.83	1006.97
641.17	1000.78
641.52	994.40
641.86	987.97
642.20	982.11
642.55	975.75
642.89	969.33
643.23	962.87
643.58	957.04
643.92	950.96
644.26	944.79
644.61	938.72
644.95	932.77
645.29	926.25
645.64	919.51
645.98	913.13
646.32	907.20
646.66	901.17
647.01	895.42
647.35	889.62
647.69	883.76
648.04	878.24
648.38	872.37
648.72	866.45
649.06	860.34
649.41	854.51
649.75	848.59
650.09	842.63
650.43	836.84
650.78	830.74
651.12	824.75
651.46	819.06
651.80	813.37
652.14	807.94
652.49	802.61
652.83	797.44
653.17	791.81
653.51	786.14
653.85	780.69
654.20	775.00
654.54	769.02
654.88	763.27
655.22	757.35
655.56	751.68
655.90	746.09
656.25	740.87
656.59	735.45
656.93	730.38
657.27	725.19
657.61	719.74
657.95	714.57
658.29	709.50
658.64	704.24
658.98	698.96
659.32	693.50
659.66	688.29
660.00	682.97
660.34	678.03
660.68	673.09
661.02	668.00
661.36	663.25
661.70	658.69
662.05	654.37
662.39	650.02
662.73	645.50
663.07	641.14
663.41	636.68
663.75	632.24
664.09	627.60
664.43	623.15
664.77	619.05
665.11	614.87
665.45	610.70
665.79	606.61
666.13	602.49
666.47	598.35
666.81	594.15
667.15	590.03
667.49	586.07
667.83	582.24
668.17	578.38
668.51	574.29
668.85	570.23
669.19	566.35
669.53	562.56
669.87	558.75
670.21	555.07
670.55	551.43
670.89	547.93
671.23	544.54
671.57	540.99
671.91	537.42
672.25	533.84
672.58	530.33
672.92	526.88
673.26	523.66
673.60	520.48
673.94	517.33
674.28	514.44
674.62	511.48
674.96	508.37
675.30	505.47
675.64	502.60
675.97	499.82
676.31	496.93
676.65	494.00
676.99	491.27
677.33	488.37
677.67	485.50
678.01	482.48
678.34	479.51
678.68	476.71
679.02	473.94
679.36	471.17
679.70	468.45
680.04	465.68
680.37	462.85
680.71	460.03
681.05	457.44
681.39	454.71
681.73	452.02
682.06	449.50
682.40	446.91
682.74	444.35
683.08	441.79
683.42	439.28
683.75	436.73
684.09	434.18
684.43	431.75
684.77	429.28
685.10	426.88
685.44	424.52
685.78	422.20
686.12	419.91
686.45	417.62
686.79	415.29
687.13	413.13
687.46	410.93
687.80	408.79
688.14	406.56
688.48	404.51
688.81	402.30
689.15	400.14
689.49	398.01
689.82	395.92
690.16	393.85
690.50	391.82
690.83	389.93
691.17	387.94
691.51	386.06
691.84	384.25
692.18	382.36
692.52	380.41
692.85	378.47
693.19	376.57
693.52	374.73
693.86	372.92
694.20	371.12
694.53	369.31
694.87	367.45
695.21	365.65
695.54	363.78
695.88	362.09
696.21	360.43
696.55	358.77
696.88	357.14
697.22	355.46
697.56	353.82
697.89	352.16
698.23	350.55
698.56	348.88
698.90	347.31
699.23	345.67
699.57	344.16
699.90	342.62
700.24	341.10
700.58	339.59
700.91	338.09
701.25	336.63
701.58	335.26
701.92	333.93
702.25	332.58
702.59	331.21
702.92	329.88
703.26	328.53
703.59	327.21
703.93	325.97
704.26	324.77
704.60	323.48
704.93	322.18
705.26	320.94
705.60	319.79
705.93	318.58
706.27	317.57
706.60	316.50
706.94	315.45
707.27	314.34
707.61	313.27
707.94	312.26
708.27	311.21
708.61	310.12
708.94	309.12
709.28	308.14
709.61	307.16
709.94	306.17
710.28	305.16
710.61	304.14
710.95	303.07
711.28	302.14
711.61	301.23
711.95	300.31
712.28	299.38
712.61	298.39
712.95	297.46
713.28	296.56
713.61	295.67
713.95	294.78
714.28	293.92
714.61	293.08
714.95	292.21
715.28	291.39
715.61	290.52
715.95	289.65
716.28	288.76
716.61	287.95
716.95	287.11
717.28	286.35
717.61	285.58
717.94	284.86
718.28	284.04
718.61	283.31
718.94	282.60
719.27	281.91
719.61	281.28
719.94	280.65
720.27	279.92
720.60	279.24
720.94	278.57
721.27	277.94
721.60	277.34
721.93	276.73
722.27	276.16
722.60	275.59
722.93	275.02
723.26	274.50
723.59	273.98
723.93	273.43
724.26	272.87
724.59	272.33
724.92	271.74
725.25	271.27
725.59	270.73
725.92	270.24
726.25	269.74
726.58	269.25
726.91	268.74
727.24	268.27
727.57	267.78
727.91	267.27
728.24	266.81
728.57	266.33
728.90	265.90
729.23	265.36
729.56	264.97
729.89	264.48
730.22	263.97
730.55	263.49
730.89	263.06
731.22	262.61
731.55	262.17
731.88	261.81
732.21	261.38
732.54	260.98
732.87	260.54
733.20	260.11
733.53	259.72
733.86	259.34
734.19	258.94
734.52	258.54
734.85	258.24
735.18	257.84
735.51	257.44
735.84	257.05
736.17	256.74
736.50	256.29
736.83	256.09
737.16	255.78
737.49	255.43
737.82	255.11
738.15	254.80
738.48	254.44
738.81	254.06
739.14	253.73
739.47	253.38
739.80	253.09
740.13	252.77
740.46	252.41
740.79	252.11
741.12	251.83
741.45	251.52
741.78	251.16
742.11	250.89
742.44	250.60
742.77	250.33
743.10	250.05
743.43	249.76
743.75	249.37
744.08	249.23
744.41	248.97
744.74	248.67
745.07	248.37
745.40	248.17
745.73	247.99
746.06	247.72
746.39	247.47
746.71	247.16
747.04	246.90
747.37	246.66
747.70	246.40
748.03	246.15
748.36	245.96
748.68	245.72
749.01	245.45
749.34	245.27
749.67	245.05
750.00	244.80
750.33	244.65
750.65	244.44
750.98	244.08
751.31	243.87
751.64	243.66
751.97	243.53
752.29	243.27
752.62	243.00
752.95	242.80
753.28	242.58
753.60	242.42
753.93	242.29
754.26	242.09
754.59	241.89
754.91	241.69
755.24	241.50
755.57	241.35
755.90	241.17
756.22	240.95
756.55	240.74
756.88	240.54
757.20	240.29
757.53	240.10
757.86	239.93
758.19	239.77
758.51	239.59
758.84	239.39
759.17	239.21
759.49	239.08
759.82	238.94
760.15	238.81
760.47	238.64
760.80	238.45
761.13	238.32
761.45	238.16
761.78	238.01
762.11	237.84
762.43	237.67
762.76	237.55
763.08	237.41
763.41	237.30
763.74	237.16
764.06	237.04
764.39	236.90
764.71	236.77
765.04	236.63
765.37	236.53
765.69	236.39
766.02	236.29
766.34	236.12
766.67	235.96
767.00	235.81
767.32	235.77
767.65	235.69
767.97	235.55
768.30	235.43
768.62	235.31
768.95	235.15
769.27	235.04
769.60	234.89
769.92	234.76
770.25	234.62
770.57	234.51
770.90	234.43
771.22	234.30
771.55	234.18
771.87	234.06
772.20	233.95
772.52	233.90
772.85	233.92
773.17	233.84
773.50	233.73
773.82	233.65
774.15	233.48
774.47	233.34
774.80	233.22
775.12	233.12
775.45	233.02
775.77	232.93
776.09	232.82
776.42	232.75
776.74	232.71
777.07	232.63
777.39	232.56
777.72	232.47
778.04	232.45
778.36	232.39
778.69	232.30
779.01	232.23
779.33	232.06
779.66	231.86
779.98	231.77
780.31	231.71
780.63	231.68
780.95	231.66
781.28	231.58
781.60	231.54
781.92	231.49
782.25	231.43
782.57	231.42
782.89	231.38
783.22	231.30
783.54	231.24
783.86	231.19
784.19	231.11
784.51	231.05
784.83	230.95
785.16	230.87
785.48	230.85
785.80	230.77
786.12	230.74
786.45	230.69
786.77	230.65
787.09	230.57
787.42	230.47
787.74	230.42
788.06	230.39
788.38	230.32
788.71	230.26
789.03	230.21
789.35	230.18
789.67	230.13
789.99	230.13
790.32	230.08
790.64	230.05
790.96	230.09
791.28	230.02
791.61	229.99
791.93	229.98
792.25	229.94
792.57	229.98
792.89	229.94
793.21	229.93
793.54	229.90
793.86	229.93
794.18	229.91
794.50	229.88
794.82	229.87
795.14	229.85
795.47	229.88
795.79	229.87
796.11	229.83
796.43	229.82
796.75	229.77
797.07	229.73
797.39	229.69
797.71	229.60
798.04	229.63
798.36	229.63
798.68	229.60
799.00	229.59
799.32	229.53
799.64	229.50
799.96	229.49
800.28	229.48
800.60	229.41
800.92	229.38
801.24	229.34
801.56	229.31
801.89	229.30
802.21	229.24
802.53	229.22
802.85	229.20
803.17	229.20
803.49	229.17
803.81	229.16
804.13	229.12
804.45	229.10
804.77	229.07
805.09	229.03
805.41	228.96
805.73	228.92
806.05	228.87
806.37	228.86
806.69	228.85
807.01	228.80
807.33	228.80
807.65	228.71
807.97	228.74
808.28	228.69
808.60	228.67
808.92	228.62
809.24	228.62
809.56	228.56
809.88	228.44
810.20	228.43
810.52	228.38
810.84	228.31
811.16	228.26
811.48	228.22
811.80	228.21
812.12	228.19
812.43	228.15
812.75	228.12
813.07	228.05
813.39	227.97
813.71	227.93
814.03	227.88
814.35	227.90
814.67	227.80
814.98	227.78
815.30	227.75
815.62	227.71
815.94	227.65
816.26	227.68
816.58	227.66
816.89	227.60
817.21	227.57
817.53	227.60
817.85	227.57
818.17	227.52
818.48	227.43
818.80	227.48
819.12	227.43
819.44	227.38
819.76	227.36
820.07	227.36
820.39	227.34
820.71	227.35
821.03	227.31
821.34	227.30
821.66	227.25
821.98	227.23
822.30	227.18
822.61	227.21
822.93	227.12
823.25	227.13
823.57	227.11
823.88	227.09
824.20	227.06
824.52	227.08
824.83	227.07
825.15	227.06
825.47	226.99
825.79	227.01
826.10	226.99
826.42	226.97
826.74	226.95
827.05	226.91
827.37	226.88
827.69	226.88
828.00	226.88
828.32	226.88
828.64	226.87
828.95	226.96
829.27	226.93
829.58	226.93
829.90	226.92
830.22	226.93
830.53	226.88
830.85	226.85
831.17	226.81
831.48	226.80
831.80	226.81
832.11	226.81
832.43	226.81
832.75	226.83
833.06	226.93
833.38	226.90
833.69	226.92
834.01	226.94
834.32	226.94
834.64	226.93
834.96	226.95
835.27	226.95
835.59	226.89
835.90	226.85
836.22	226.89
836.53	226.88
836.85	226.88
837.16	227.00
837.48	227.00
837.79	227.07
838.11	227.10
838.42	227.07
838.74	227.09
839.05	227.07
839.37	227.02
839.68	226.93
840.00	226.93
840.31	226.93
840.63	226.90
840.94	226.87
841.26	226.85
841.57	226.81
841.88	226.80
842.20	226.80
842.51	226.79
842.83	226.78
843.14	226.83
843.46	226.82
843.77	226.75
844.08	226.76
844.40	226.71
844.71	226.66
845.03	226.67
845.34	226.64
845.65	226.65
845.97	226.67
846.28	226.65
846.60	226.67
846.91	226.64
847.22	226.63
847.54	226.65
847.85	226.66
848.16	226.64
848.48	226.61
848.79	226.62
849.10	226.63
849.42	226.60
849.73	226.52
850.04	226.52
850.36	226.48
850.67	226.50
850.98	226.46
851.30	226.45
851.61	226.45
851.92	226.41
852.23	226.42
852.55	226.41
852.86	226.45
853.17	226.41
853.49	226.42
853.80	226.44
854.11	226.44
854.42	226.43
854.74	226.44
855.05	226.43
855.36	226.36
855.67	226.37
855.99	226.38
856.30	226.49
856.61	226.47
856.92	226.44
857.23	226.39
857.55	226.42
857.86	226.41
858.17	226.43
858.48	226.43
858.79	226.39
859.11	226.39
859.42	226.35
859.73	226.35
860.04	226.34
860.35	226.33
860.66	226.30
860.98	226.33
861.29	226.34
861.60	226.35
861.91	226.38
862.22	226.37
862.53	226.36
862.84	226.26
863.16	226.28
863.47	226.29
863.78	226.32
864.09	226.30
864.40	226.32
864.71	226.32
865.02	226.36
865.33	226.38
865.64	226.37
865.95	226.40
866.27	226.47
866.58	226.49
866.89	226.51
867.20	226.53
867.51	226.54
867.82	226.51
868.13	226.50
868.44	226.54
868.75	226.60
869.06	226.62
869.37	226.62
869.68	226.60
869.99	226.60
870.30	226.59
870.61	226.60
870.92	226.60
871.23	226.60
871.54	226.63
871.85	226.68
872.16	226.68
872.47	226.66
872.78	226.65
873.09	226.63
873.40	226.64
873.71	226.61
874.02	226.58
874.33	226.59
874.64	226.60
874.95	226.58
875.26	226.54
875.56	226.55
875.87	226.56
876.18	226.58
876.49	226.69
876.80	226.71
877.11	226.72
877.42	226.71
877.73	226.71
878.04	226.69
878.35	226.65
878.66	226.66
878.96	226.67
879.27	226.65
879.58	226.64
879.89	226.61
880.20	226.65
880.51	226.67
880.82	226.73
881.12	226.74
881.43	226.70
881.74	226.69
882.05	226.68
882.36	226.67
882.67	226.64
882.97	226.54
883.28	226.49
883.59	226.49
883.90	226.50
884.21	226.51
884.51	226.47
884.82	226.48
885.13	226.46
885.44	226.44
885.74	226.42
886.05	226.41
886.36	226.41
886.67	226.34
886.98	226.37
887.28	226.30
887.59	226.28
887.90	226.30
888.20	226.27
888.51	226.26
888.82	226.23
889.13	226.22
889.43	226.29
889.74	226.32
890.05	226.28
890.35	226.25
890.66	226.21
890.97	226.18
891.28	226.16
891.58	226.12
891.89	226.14
892.20	226.10
892.50	226.10
892.81	226.09
893.12	226.11
893.42	226.07
893.73	226.08
894.04	226.07
894.34	226.03
894.65	226.03
894.95	226.02
895.26	226.02
895.57	226.10
895.87	225.97
896.18	225.97
896.48	225.97
896.79	225.97
897.10	225.98
897.40	225.98
897.71	225.99
898.01	226.00
898.32	225.99
898.63	226.00
898.93	225.99
899.24	225.98
899.54	225.96
899.85	225.96
900.15	225.93
900.46	225.92
900.76	225.94
901.07	225.92
901.38	225.92
901.68	225.95
901.99	225.83
902.29	225.87
902.60	225.84
902.90	225.84
903.21	225.86
903.51	225.88
903.82	225.93
904.12	225.91
904.43	225.89
904.73	225.88
905.03	225.90
905.34	226.00
905.64	225.99
905.95	226.00
906.25	226.00
906.56	226.05
906.86	226.09
907.17	226.11
907.47	226.15
907.77	226.16
908.08	226.16
908.38	226.23
908.69	226.24
908.99	226.29
909.30	226.31
909.60	226.30
909.90	226.31
910.21	226.30
910.51	226.31
910.81	226.39
911.12	226.39
911.42	226.39
911.73	226.29
912.03	226.32
912.33	226.35
912.64	226.36
912.94	226.31
913.24	226.28
913.55	226.26
913.85	226.26
914.15	226.26
914.46	226.25
914.76	226.23
915.06	226.24
915.37	226.22
915.67	226.23
915.97	226.25
916.27	226.22
916.58	226.21
916.88	226.19
917.18	226.17
917.49	226.25
917.79	226.28
918.09	226.31
918.39	226.34
918.70	226.34
919.00	226.36
919.30	226.42
919.60	226.41
919.91	226.44
920.21	226.45
920.51	226.41
920.81	226.41
921.12	226.48
921.42	226.47
921.72	226.48
922.02	226.47
922.32	226.49
922.63	226.47
922.93	226.54
923.23	226.58
923.53	226.54
923.83	226.46
924.13	226.46
924.44	226.45
924.74	226.44
925.04	226.43
925.34	226.41
925.64	226.38
925.94	226.36
926.24	226.36
926.55	226.33
926.85	226.35
927.15	226.36
927.45	226.28
927.75	226.27
928.05	226.25
928.35	226.22
928.65	226.23
928.95	226.24
929.26	226.15
929.56	226.11
929.86	226.14
930.16	226.13
930.46	226.08
930.76	226.06
931.06	225.99
931.36	225.96
931.66	225.91
931.96	225.90
932.26	225.91
932.56	225.87
932.86	225.87
933.16	225.88
933.46	225.86
933.76	225.84
934.06	225.88
934.36	225.93
934.66	225.93
934.96	225.91
935.26	225.90
935.56	225.90
935.86	225.86
936.16	225.86
936.46	225.84
936.76	225.86
937.06	225.84
937.36	225.87
937.66	225.87
937.96	225.88
938.26	225.87
938.56	225.86
938.86	225.84
939.16	225.85
939.46	225.81
939.76	225.80
940.06	225.80
940.35	225.75
940.65	225.68
940.95	225.70
941.25	225.67
941.55	225.68
941.85	225.70
942.15	225.76
942.45	225.76
942.75	225.74
943.04	225.74
943.34	225.77
943.64	225.72
943.94	225.75
944.24	225.76
944.54	225.77
944.84	225.80
945.13	225.81
945.43	225.81
945.73	225.84
946.03	225.84
946.33	225.84
946.62	225.84
946.92	225.85
947.22	225.87
947.52	225.86
947.82	225.86
948.11	225.88
948.41	225.86
948.71	225.81
949.01	225.86
949.31	225.85
949.60	225.85
949.90	225.93
950.20	225.92
950.50	225.93
950.79	225.92
951.09	225.93
951.39	225.92
951.69	225.90
951.98	225.93
952.28	225.96
952.58	225.94
952.87	225.93
953.17	225.93
953.47	225.90
953.76	225.92
954.06	225.88
954.36	225.86
954.66	225.88
954.95	225.94
955.25	225.92
955.55	225.96
955.84	225.94
956.14	225.90
956.44	225.90
956.73	225.90
957.03	225.94
957.32	225.94
957.62	225.95
957.92	225.97
958.21	225.96
958.51	226.04
958.81	226.10
959.10	226.12
959.40	226.15
959.69	226.18
959.99	226.18
960.29	226.21
960.58	226.19
960.88	226.22
961.17	226.22
961.47	226.26
961.76	226.23
962.06	226.26
962.36	226.26
962.65	226.27
962.95	226.30
963.24	226.23
963.54	226.21
963.83	226.23
964.13	226.23
964.42	226.18
964.72	226.09
965.01	226.09
965.31	226.06
965.60	226.02
965.90	226.07
966.19	226.03
966.49	226.04
966.78	226.02
967.08	225.98
967.37	225.95
967.67	225.87
967.96	225.89
968.26	225.87
968.55	225.87
968.85	225.88
969.14	225.82
969.43	225.83
969.73	225.83
970.02	225.82
970.32	225.79
970.61	225.79
970.91	225.77
971.20	225.73
971.49	225.73
971.79	225.74
972.08	225.69
972.38	225.69
972.67	225.65
972.96	225.68
973.26	225.62
973.55	225.64
973.85	225.64
974.14	225.61
974.43	225.62
974.73	225.59
975.02	225.53
975.31	225.53
975.61	225.52
975.90	225.50
976.19	225.47
976.49	225.51
976.78	225.54
977.07	225.55
977.37	225.58
977.66	225.59
977.95	225.54
978.24	225.52
978.54	225.53
978.83	225.53
979.12	225.53
979.42	225.55
979.71	225.54
980.00	225.55
980.29	225.58
980.59	225.55
980.88	225.58
981.17	225.58
981.46	225.63
981.76	225.63
982.05	225.68
982.34	225.71
982.63	225.68
982.93	225.71
983.22	225.72
983.51	225.76
983.80	225.80
984.09	225.85
984.39	225.85
984.68	225.86
984.97	225.89
985.26	225.90
985.55	225.92
985.85	225.89
986.14	225.92
986.43	225.91
986.72	225.94
987.01	225.91
987.30	225.93
987.59	225.91
987.89	225.91
988.18	225.89
988.47	225.87
988.76	225.89
989.05	225.87
989.34	225.88
989.63	225.87
989.92	225.84
990.22	225.85
990.51	225.84
990.80	225.84
991.09	225.83
991.38	225.86
991.67	225.85
991.96	225.88
992.25	225.89
992.54	225.92
992.83	225.90
993.12	225.93
993.41	225.93
993.70	225.96
993.99	225.99
994.28	226.00
994.58	226.01
994.87	225.99
995.16	225.98
995.45	225.93
995.74	225.90
996.03	225.91
996.32	225.90
996.61	225.94
996.90	225.94
997.19	225.97
997.48	225.94
997.77	225.93
998.06	225.94
998.34	225.91
998.63	225.89
998.92	225.92
999.21	225.93
999.50	225.97
999.79	225.93
1000.08	225.92
1000.37	225.93
1000.66	225.92
1000.95	225.94
1001.24	225.94
1001.53	225.97
1001.82	226.00
1002.11	225.96
1002.40	225.96
1002.68	225.97
1002.97	226.03
1003.26	225.97
1003.55	225.93
1003.84	225.94
1004.13	225.96
1004.42	225.99
1004.71	225.97
1004.99	225.97
1005.28	225.96
1005.57	225.91
1005.86	225.93
1006.15	225.88
1006.44	225.87
1006.72	225.90
1007.01	225.87
1007.30	225.84
1007.59	225.84
1007.88	225.81
1008.17	225.81
1008.45	225.76
1008.74	225.72
1009.03	225.67
1009.32	225.68
1009.60	225.71
1009.89	225.70
1010.18	225.65
1010.47	225.62
1010.76	225.64
1011.04	225.60
1011.33	225.63
1011.62	225.65
1011.91	225.63
1012.19	225.66
1012.48	225.64
1012.77	225.64
1013.05	225.70
1013.34	225.75
1013.63	225.71
1013.92	225.71
1014.20	225.72
1014.49	225.77
1014.78	225.79
1015.06	225.74
1015.35	225.76
1015.64	225.78
1015.92	225.77
1016.21	225.77
1016.50	225.80
1016.78	225.80
1017.07	225.85
1017.36	225.81
1017.64	225.79
1017.93	225.82
1018.22	225.82
1018.50	225.80
1018.79	225.78
1019.08	225.72
1019.36	225.71
1019.65	225.71
1019.93	225.75
1020.22	225.76
1020.51	225.82
1020.79	225.81
1021.08	225.74
1021.36	225.32
1021.65	225.55
1021.94	225.72
1022.22	225.82
1022.51	225.41
1022.79	226.20
1023.08	225.95
1023.36	227.33
1023.65	225.67
>>>>>End Processed Spectral Data<<<<<
