SpectraSuite Data File
++++++++++++++++++++++++++++++++++++
Date: Fri Feb 01 16:42:24 EST 2013
User: group
Dark Spectrum Present: No
Reference Spectrum Present: No
Number of Sampled Component Spectra: 1
Spectrometers: USB2E7196
Integration Time (usec): 35000 (USB2E7196)
Spectra Averaged: 100 (USB2E7196)
Boxcar Smoothing: 10 (USB2E7196)
Correct for Electrical Dark: No (USB2E7196)
Strobe/Lamp Enabled: No (USB2E7196)
Correct for Detector Non-linearity: No (USB2E7196)
Correct for Stray Light: No (USB2E7196)
Number of Pixels in Processed Spectrum: 2048
>>>>>Begin Processed Spectral Data<<<<<
339.09	0.00
339.48	213.59
339.86	215.29
340.24	215.97
340.63	217.82
341.01	220.86
341.39	220.55
341.78	221.81
342.16	222.57
342.54	223.06
342.93	211.89
343.31	222.59
343.69	223.11
344.07	223.58
344.46	224.02
344.84	224.39
345.22	224.59
345.60	224.81
345.99	224.98
346.37	225.11
346.75	225.23
347.13	225.28
347.52	225.33
347.90	225.38
348.28	225.44
348.66	225.52
349.05	225.53
349.43	225.58
349.81	225.67
350.19	225.73
350.57	225.79
350.96	225.88
351.34	226.00
351.72	226.10
352.10	226.19
352.48	226.28
352.87	226.37
353.25	226.47
353.63	226.58
354.01	226.68
354.39	226.78
354.77	226.87
355.15	227.02
355.54	227.10
355.92	227.18
356.30	227.26
356.68	227.40
357.06	227.47
357.44	227.55
357.82	227.59
358.20	227.67
358.58	227.73
358.97	227.78
359.35	227.86
359.73	227.95
360.11	228.02
360.49	228.08
360.87	228.11
361.25	228.16
361.63	228.26
362.01	228.30
362.39	228.31
362.77	228.35
363.15	228.35
363.53	228.39
363.91	228.42
364.29	228.41
364.67	228.32
365.05	228.34
365.43	228.33
365.81	228.35
366.19	228.35
366.57	228.39
366.95	228.37
367.33	228.33
367.71	228.31
368.09	228.27
368.47	228.25
368.85	228.24
369.23	228.23
369.61	228.16
369.99	228.16
370.37	228.17
370.75	228.19
371.13	228.12
371.51	228.05
371.89	228.02
372.27	227.99
372.65	227.91
373.03	227.89
373.41	227.83
373.78	227.75
374.16	227.66
374.54	227.59
374.92	227.51
375.30	227.43
375.68	227.35
376.06	227.31
376.44	227.25
376.82	227.18
377.19	227.12
377.57	227.01
377.95	226.89
378.33	226.81
378.71	226.68
379.09	226.64
379.47	226.59
379.84	226.47
380.22	226.41
380.60	226.38
380.98	226.31
381.36	226.24
381.73	226.16
382.11	226.11
382.49	226.03
382.87	225.98
383.25	225.92
383.62	225.97
384.00	225.89
384.38	225.81
384.76	225.76
385.13	225.73
385.51	225.68
385.89	225.64
386.27	225.58
386.64	225.52
387.02	225.43
387.40	225.37
387.78	225.33
388.15	225.26
388.53	225.17
388.91	225.12
389.29	225.09
389.66	225.07
390.04	225.06
390.42	225.06
390.79	225.04
391.17	225.01
391.55	224.90
391.92	224.88
392.30	224.88
392.68	224.86
393.05	224.82
393.43	224.83
393.81	224.86
394.18	224.85
394.56	224.89
394.94	224.93
395.31	224.96
395.69	225.01
396.06	225.09
396.44	225.13
396.82	225.16
397.19	225.27
397.57	225.34
397.95	225.41
398.32	225.43
398.70	225.50
399.07	225.60
399.45	225.63
399.82	225.70
400.20	225.75
400.58	225.82
400.95	225.86
401.33	225.95
401.70	226.08
402.08	226.18
402.45	226.26
402.83	226.38
403.20	226.46
403.58	226.57
403.95	226.69
404.33	226.81
404.71	226.91
405.08	227.05
405.46	227.16
405.83	227.26
406.21	227.41
406.58	227.57
406.96	227.72
407.33	227.91
407.70	228.10
408.08	228.36
408.45	228.57
408.83	228.82
409.20	229.04
409.58	229.22
409.95	229.47
410.33	229.73
410.70	229.98
411.08	230.28
411.45	230.55
411.82	230.85
412.20	231.19
412.57	231.62
412.95	231.88
413.32	232.29
413.69	232.68
414.07	233.11
414.44	233.57
414.82	234.02
415.19	234.58
415.56	235.11
415.94	235.65
416.31	236.31
416.68	236.91
417.06	237.62
417.43	238.29
417.81	239.07
418.18	239.85
418.55	240.63
418.93	241.47
419.30	242.39
419.67	243.32
420.04	244.26
420.42	245.23
420.79	246.43
421.16	247.57
421.54	248.76
421.91	249.95
422.28	251.18
422.66	252.52
423.03	253.81
423.40	255.15
423.77	256.55
424.15	257.94
424.52	259.46
424.89	261.02
425.26	262.57
425.64	263.99
426.01	265.58
426.38	267.26
426.75	268.95
427.13	270.66
427.50	272.47
427.87	274.34
428.24	276.19
428.61	277.89
428.99	279.82
429.36	281.91
429.73	283.94
430.10	285.92
430.47	287.94
430.85	290.00
431.22	292.17
431.59	294.54
431.96	296.73
432.33	299.19
432.70	301.54
433.08	304.34
433.45	306.94
433.82	309.49
434.19	312.36
434.56	315.14
434.93	317.75
435.30	320.36
435.68	323.19
436.05	325.99
436.42	328.77
436.79	331.25
437.16	333.90
437.53	336.72
437.90	339.53
438.27	342.24
438.64	345.06
439.01	347.62
439.38	349.81
439.75	352.01
440.13	354.42
440.50	356.72
440.87	358.54
441.24	360.49
441.61	362.66
441.98	364.15
442.35	365.91
442.72	367.77
443.09	369.58
443.46	370.58
443.83	371.18
444.20	371.66
444.57	372.51
444.94	372.87
445.31	373.23
445.68	373.58
446.05	373.71
446.42	373.33
446.79	372.95
447.16	372.54
447.53	372.22
447.90	371.14
448.27	370.03
448.64	368.45
449.01	367.34
449.37	365.41
449.74	363.57
450.11	361.38
450.48	358.92
450.85	356.40
451.22	354.34
451.59	352.36
451.96	350.46
452.33	347.88
452.70	345.51
453.07	342.72
453.43	339.89
453.80	337.13
454.17	334.55
454.54	332.07
454.91	329.40
455.28	326.77
455.65	324.28
456.02	321.86
456.38	319.75
456.75	317.10
457.12	314.85
457.49	312.59
457.86	310.45
458.23	308.64
458.59	306.60
458.96	304.53
459.33	302.65
459.70	300.83
460.07	299.35
460.43	297.68
460.80	296.08
461.17	294.63
461.54	293.15
461.91	291.73
462.27	290.29
462.64	289.03
463.01	287.69
463.38	286.45
463.74	285.11
464.11	283.97
464.48	282.96
464.85	281.86
465.21	281.04
465.58	280.10
465.95	279.02
466.32	278.11
466.68	277.22
467.05	276.36
467.42	275.47
467.78	274.55
468.15	273.65
468.52	273.00
468.88	272.16
469.25	271.41
469.62	270.78
469.98	270.12
470.35	269.53
470.72	268.91
471.08	268.21
471.45	267.66
471.82	267.14
472.18	266.56
472.55	266.12
472.92	265.58
473.28	265.15
473.65	264.68
474.02	264.26
474.38	263.89
474.75	263.60
475.11	263.28
475.48	263.05
475.85	262.81
476.21	262.55
476.58	262.37
476.94	262.21
477.31	262.07
477.67	261.93
478.04	261.82
478.41	261.77
478.77	261.86
479.14	261.83
479.50	261.83
479.87	261.89
480.23	262.00
480.60	262.10
480.96	262.19
481.33	262.41
481.69	262.64
482.06	262.81
482.42	262.99
482.79	263.26
483.15	263.56
483.52	263.93
483.88	264.28
484.25	264.67
484.61	265.12
484.98	265.54
485.34	266.10
485.71	266.69
486.07	267.31
486.44	267.89
486.80	268.55
487.17	269.28
487.53	270.10
487.90	270.96
488.26	271.89
488.62	272.88
488.99	273.88
489.35	274.91
489.72	276.09
490.08	277.32
490.44	278.57
490.81	279.94
491.17	281.32
491.54	282.85
491.90	284.38
492.26	286.04
492.63	287.80
492.99	289.62
493.36	291.50
493.72	293.56
494.08	295.65
494.45	297.94
494.81	300.31
495.17	302.80
495.54	305.32
495.90	308.02
496.26	310.81
496.63	313.79
496.99	316.93
497.35	320.20
497.72	323.63
498.08	327.14
498.44	330.79
498.80	334.75
499.17	338.81
499.53	342.98
499.89	347.34
500.26	351.86
500.62	356.53
500.98	361.48
501.34	366.57
501.71	371.91
502.07	377.38
502.43	383.01
502.79	388.71
503.16	394.80
503.52	401.04
503.88	407.50
504.24	414.12
504.60	420.98
504.97	428.08
505.33	435.33
505.69	443.04
506.05	450.83
506.41	458.64
506.78	466.74
507.14	475.23
507.50	483.89
507.86	492.86
508.22	502.01
508.59	511.19
508.95	520.72
509.31	530.51
509.67	540.52
510.03	550.70
510.39	561.28
510.75	572.00
511.12	582.88
511.48	594.12
511.84	605.46
512.20	616.88
512.56	628.75
512.92	640.88
513.28	653.19
513.64	665.59
514.00	678.29
514.37	691.21
514.73	704.19
515.09	717.17
515.45	730.38
515.81	743.92
516.17	757.85
516.53	771.90
516.89	786.02
517.25	800.19
517.61	814.62
517.97	829.02
518.33	843.35
518.69	858.11
519.05	873.01
519.41	888.05
519.77	903.63
520.13	918.96
520.49	934.32
520.85	949.63
521.21	965.21
521.57	981.26
521.93	996.86
522.29	1012.99
522.65	1029.16
523.01	1045.27
523.37	1061.27
523.73	1077.22
524.09	1093.12
524.45	1109.17
524.81	1125.59
525.17	1142.15
525.53	1158.89
525.89	1175.74
526.25	1192.46
526.61	1208.62
526.97	1225.26
527.33	1241.57
527.68	1258.08
528.04	1274.34
528.40	1290.68
528.76	1307.62
529.12	1324.20
529.48	1341.01
529.84	1357.00
530.20	1373.36
530.56	1390.02
530.91	1407.10
531.27	1423.89
531.63	1440.26
531.99	1456.86
532.35	1472.76
532.71	1488.50
533.07	1504.57
533.42	1520.40
533.78	1536.21
534.14	1552.36
534.50	1567.54
534.86	1583.17
535.21	1598.21
535.57	1613.86
535.93	1629.07
536.29	1643.58
536.65	1658.36
537.00	1672.81
537.36	1687.94
537.72	1702.32
538.08	1716.72
538.44	1730.32
538.79	1743.85
539.15	1757.20
539.51	1770.60
539.87	1784.75
540.22	1798.26
540.58	1811.69
540.94	1824.49
541.29	1837.02
541.65	1849.37
542.01	1862.32
542.37	1874.48
542.72	1886.59
543.08	1898.46
543.44	1910.71
543.79	1922.00
544.15	1932.78
544.51	1944.29
544.87	1955.09
545.22	1965.93
545.58	1976.03
545.94	1985.81
546.29	1995.66
546.65	2005.51
547.01	2014.66
547.36	2023.31
547.72	2031.76
548.07	2039.78
548.43	2048.01
548.79	2056.02
549.14	2063.77
549.50	2070.99
549.86	2078.50
550.21	2085.85
550.57	2092.90
550.92	2099.57
551.28	2106.59
551.64	2113.57
551.99	2119.91
552.35	2125.97
552.70	2131.89
553.06	2137.90
553.41	2144.20
553.77	2150.27
554.13	2156.18
554.48	2162.25
554.84	2167.73
555.19	2172.98
555.55	2178.06
555.90	2182.58
556.26	2187.63
556.61	2192.18
556.97	2196.76
557.32	2201.02
557.68	2205.06
558.03	2209.33
558.39	2212.90
558.74	2217.34
559.10	2221.41
559.45	2225.32
559.81	2229.74
560.16	2233.69
560.52	2236.95
560.87	2240.27
561.23	2242.77
561.58	2245.81
561.94	2248.52
562.29	2250.66
562.64	2253.56
563.00	2256.06
563.35	2259.59
563.71	2262.71
564.06	2265.91
564.42	2268.68
564.77	2271.28
565.12	2273.93
565.48	2275.82
565.83	2277.84
566.19	2279.22
566.54	2279.91
566.89	2281.04
567.25	2281.61
567.60	2282.91
567.96	2284.67
568.31	2285.59
568.66	2286.78
569.02	2287.41
569.37	2287.73
569.72	2288.95
570.08	2289.14
570.43	2289.37
570.78	2288.96
571.14	2287.44
571.49	2286.09
571.84	2285.77
572.20	2284.70
572.55	2283.61
572.90	2282.12
573.26	2280.88
573.61	2279.10
573.96	2277.77
574.31	2274.85
574.67	2271.92
575.02	2268.35
575.37	2264.90
575.72	2261.25
576.08	2257.91
576.43	2254.55
576.78	2251.18
577.13	2247.75
577.49	2244.46
577.84	2241.05
578.19	2237.27
578.54	2233.92
578.90	2229.99
579.25	2224.60
579.60	2219.87
579.95	2214.90
580.30	2209.83
580.66	2204.77
581.01	2200.00
581.36	2194.98
581.71	2190.99
582.06	2186.85
582.42	2182.59
582.77	2177.57
583.12	2173.15
583.47	2168.76
583.82	2164.15
584.17	2158.88
584.53	2153.57
584.88	2148.11
585.23	2142.51
585.58	2137.03
585.93	2131.40
586.28	2126.47
586.63	2121.57
586.98	2116.34
587.34	2111.61
587.69	2106.84
588.04	2101.68
588.39	2096.13
588.74	2089.65
589.09	2083.46
589.44	2076.51
589.79	2070.37
590.14	2064.74
590.49	2058.19
590.84	2051.52
591.19	2045.33
591.54	2039.06
591.89	2032.02
592.25	2025.52
592.60	2018.33
592.95	2010.96
593.30	2003.77
593.65	1996.27
594.00	1989.18
594.35	1982.03
594.70	1974.10
595.05	1967.20
595.40	1959.96
595.75	1952.66
596.10	1946.65
596.45	1940.12
596.80	1934.18
597.15	1927.71
597.50	1920.82
597.85	1914.48
598.19	1908.16
598.54	1901.40
598.89	1894.68
599.24	1888.74
599.59	1882.19
599.94	1876.06
600.29	1869.81
600.64	1863.27
600.99	1856.19
601.34	1849.56
601.69	1842.67
602.04	1835.96
602.39	1828.52
602.74	1821.69
603.08	1815.01
603.43	1808.30
603.78	1800.96
604.13	1793.74
604.48	1786.68
604.83	1779.95
605.18	1773.15
605.53	1765.19
605.87	1757.17
606.22	1749.81
606.57	1741.77
606.92	1734.16
607.27	1727.00
607.62	1720.16
607.96	1713.06
608.31	1706.55
608.66	1699.00
609.01	1691.56
609.36	1684.15
609.70	1676.30
610.05	1668.42
610.40	1660.71
610.75	1652.42
611.10	1644.86
611.44	1636.33
611.79	1628.22
612.14	1619.56
612.49	1610.35
612.83	1601.99
613.18	1593.76
613.53	1585.72
613.88	1577.26
614.22	1569.15
614.57	1560.50
614.92	1552.48
615.27	1545.10
615.61	1536.77
615.96	1528.72
616.31	1521.09
616.65	1513.58
617.00	1506.01
617.35	1498.32
617.70	1490.16
618.04	1481.79
618.39	1473.59
618.74	1466.25
619.08	1458.07
619.43	1450.46
619.78	1443.57
620.12	1436.57
620.47	1429.20
620.82	1421.15
621.16	1413.77
621.51	1406.19
621.85	1398.56
622.20	1390.11
622.55	1381.58
622.89	1373.64
623.24	1365.91
623.59	1358.40
623.93	1351.03
624.28	1343.73
624.62	1336.27
624.97	1329.06
625.32	1322.24
625.66	1315.22
626.01	1308.03
626.35	1300.59
626.70	1292.76
627.04	1285.10
627.39	1277.26
627.73	1269.83
628.08	1262.96
628.43	1255.84
628.77	1248.55
629.12	1241.15
629.46	1234.05
629.81	1226.64
630.15	1219.42
630.50	1212.09
630.84	1204.13
631.19	1196.02
631.53	1188.51
631.88	1180.95
632.22	1173.31
632.57	1165.99
632.91	1158.39
633.26	1150.96
633.60	1143.58
633.95	1136.40
634.29	1129.22
634.64	1122.44
634.98	1115.11
635.32	1108.04
635.67	1101.31
636.01	1094.66
636.36	1087.98
636.70	1081.33
637.05	1074.73
637.39	1068.32
637.73	1061.93
638.08	1055.88
638.42	1049.94
638.77	1043.60
639.11	1037.01
639.45	1030.66
639.80	1023.98
640.14	1017.62
640.49	1011.21
640.83	1004.91
641.17	998.85
641.52	992.70
641.86	986.30
642.20	980.57
642.55	974.13
642.89	967.76
643.23	961.07
643.58	955.28
643.92	949.24
644.26	943.32
644.61	937.29
644.95	931.19
645.29	924.69
645.64	918.00
645.98	911.67
646.32	905.70
646.66	899.69
647.01	893.93
647.35	888.32
647.69	882.44
648.04	876.95
648.38	871.12
648.72	865.16
649.06	859.13
649.41	853.15
649.75	847.30
650.09	841.37
650.43	835.73
650.78	829.51
651.12	823.50
651.46	817.75
651.80	812.12
652.14	806.84
652.49	801.59
652.83	796.40
653.17	790.85
653.51	785.30
653.85	779.82
654.20	774.30
654.54	768.26
654.88	762.49
655.22	756.65
655.56	750.91
655.90	745.36
656.25	740.16
656.59	734.83
656.93	729.82
657.27	724.67
657.61	719.19
657.95	714.14
658.29	709.09
658.64	703.79
658.98	698.34
659.32	692.78
659.66	687.59
660.00	682.40
660.34	677.38
660.68	672.46
661.02	667.50
661.36	662.80
661.70	658.33
662.05	654.02
662.39	649.70
662.73	645.27
663.07	640.91
663.41	636.47
663.75	632.05
664.09	627.44
664.43	623.01
664.77	618.94
665.11	614.67
665.45	610.52
665.79	606.48
666.13	602.37
666.47	598.25
666.81	594.04
667.15	589.89
667.49	585.96
667.83	582.09
668.17	578.12
668.51	573.99
668.85	569.98
669.19	566.06
669.53	562.22
669.87	558.42
670.21	554.72
670.55	551.08
670.89	547.60
671.23	544.10
671.57	540.55
671.91	537.06
672.25	533.52
672.58	529.91
672.92	526.45
673.26	523.27
673.60	520.13
673.94	517.05
674.28	514.09
674.62	511.14
674.96	508.02
675.30	505.17
675.64	502.28
675.97	499.42
676.31	496.56
676.65	493.61
676.99	490.89
677.33	487.95
677.67	485.09
678.01	482.03
678.34	479.09
678.68	476.19
679.02	473.30
679.36	470.52
679.70	467.80
680.04	465.02
680.37	462.19
680.71	459.38
681.05	456.71
681.39	453.99
681.73	451.26
682.06	448.75
682.40	446.19
682.74	443.65
683.08	441.03
683.42	438.35
683.75	435.85
684.09	433.21
684.43	430.79
684.77	428.29
685.10	425.94
685.44	423.60
685.78	421.33
686.12	419.14
686.45	416.84
686.79	414.60
687.13	412.46
687.46	410.26
687.80	408.09
688.14	405.83
688.48	403.77
688.81	401.59
689.15	399.45
689.49	397.30
689.82	395.20
690.16	393.15
690.50	391.28
690.83	389.32
691.17	387.34
691.51	385.41
691.84	383.60
692.18	381.66
692.52	379.70
692.85	377.76
693.19	375.87
693.52	374.03
693.86	372.20
694.20	370.40
694.53	368.62
694.87	366.81
695.21	365.05
695.54	363.20
695.88	361.43
696.21	359.64
696.55	357.97
696.88	356.31
697.22	354.65
697.56	352.96
697.89	351.34
698.23	349.80
698.56	348.23
698.90	346.67
699.23	345.04
699.57	343.53
699.90	342.01
700.24	340.46
700.58	338.99
700.91	337.52
701.25	336.11
701.58	334.77
701.92	333.43
702.25	332.03
702.59	330.70
702.92	329.42
703.26	328.14
703.59	326.84
703.93	325.63
704.26	324.44
704.60	323.20
704.93	321.87
705.26	320.61
705.60	319.45
705.93	318.29
706.27	317.29
706.60	316.23
706.94	315.13
707.27	313.97
707.61	312.89
707.94	311.86
708.27	310.74
708.61	309.63
708.94	308.62
709.28	307.63
709.61	306.70
709.94	305.75
710.28	304.75
710.61	303.75
710.95	302.67
711.28	301.74
711.61	300.76
711.95	299.94
712.28	299.01
712.61	298.00
712.95	297.05
713.28	296.14
713.61	295.22
713.95	294.36
714.28	293.53
714.61	292.66
714.95	291.80
715.28	290.97
715.61	290.10
715.95	289.24
716.28	288.40
716.61	287.52
716.95	286.66
717.28	285.90
717.61	285.15
717.94	284.37
718.28	283.56
718.61	282.81
718.94	282.08
719.27	281.41
719.61	280.78
719.94	280.11
720.27	279.36
720.60	278.67
720.94	278.03
721.27	277.44
721.60	276.88
721.93	276.25
722.27	275.67
722.60	275.11
722.93	274.52
723.26	273.95
723.59	273.38
723.93	272.84
724.26	272.26
724.59	271.66
724.92	271.13
725.25	270.66
725.59	270.17
725.92	269.65
726.25	269.08
726.58	268.60
726.91	268.09
727.24	267.63
727.57	267.17
727.91	266.65
728.24	266.17
728.57	265.66
728.90	265.24
729.23	264.77
729.56	264.35
729.89	263.90
730.22	263.42
730.55	262.98
730.89	262.56
731.22	262.12
731.55	261.72
731.88	261.31
732.21	260.86
732.54	260.42
732.87	260.00
733.20	259.63
733.53	259.20
733.86	258.84
734.19	258.47
734.52	258.11
734.85	257.80
735.18	257.40
735.51	257.05
735.84	256.65
736.17	256.32
736.50	255.93
736.83	255.69
737.16	255.38
737.49	255.07
737.82	254.71
738.15	254.42
738.48	254.09
738.81	253.77
739.14	253.46
739.47	253.16
739.80	252.86
740.13	252.58
740.46	252.29
740.79	251.95
741.12	251.62
741.45	251.30
741.78	250.96
742.11	250.70
742.44	250.43
742.77	250.16
743.10	249.88
743.43	249.57
743.75	249.18
744.08	249.05
744.41	248.82
744.74	248.57
745.07	248.29
745.40	248.06
745.73	247.85
746.06	247.58
746.39	247.31
746.71	247.03
747.04	246.76
747.37	246.50
747.70	246.25
748.03	246.03
748.36	245.82
748.68	245.57
749.01	245.31
749.34	245.04
749.67	244.81
750.00	244.58
750.33	244.44
750.65	244.23
750.98	243.87
751.31	243.63
751.64	243.43
751.97	243.25
752.29	243.04
752.62	242.77
752.95	242.56
753.28	242.36
753.60	242.14
753.93	241.92
754.26	241.70
754.59	241.49
754.91	241.27
755.24	241.04
755.57	240.85
755.90	240.66
756.22	240.45
756.55	240.24
756.88	240.02
757.20	239.76
757.53	239.53
757.86	239.36
758.19	239.18
758.51	238.94
758.84	238.71
759.17	238.54
759.49	238.38
759.82	238.25
760.15	238.07
760.47	237.90
760.80	237.72
761.13	237.61
761.45	237.45
761.78	237.32
762.11	237.16
762.43	237.02
762.76	236.85
763.08	236.72
763.41	236.58
763.74	236.42
764.06	236.27
764.39	236.17
764.71	236.00
765.04	235.81
765.37	235.70
765.69	235.57
766.02	235.39
766.34	235.27
766.67	235.13
767.00	235.05
767.32	235.01
767.65	234.97
767.97	234.84
768.30	234.71
768.62	234.54
768.95	234.41
769.27	234.30
769.60	234.22
769.92	234.12
770.25	234.03
770.57	233.91
770.90	233.80
771.22	233.72
771.55	233.62
771.87	233.53
772.20	233.49
772.52	233.52
772.85	233.57
773.17	233.43
773.50	233.32
773.82	233.20
774.15	233.07
774.47	232.90
774.80	232.81
775.12	232.77
775.45	232.75
775.77	232.68
776.09	232.61
776.42	232.54
776.74	232.48
777.07	232.39
777.39	232.34
777.72	232.27
778.04	232.17
778.36	232.13
778.69	232.11
779.01	231.99
779.33	231.84
779.66	231.64
779.98	231.58
780.31	231.55
780.63	231.55
780.95	231.53
781.28	231.45
781.60	231.41
781.92	231.34
782.25	231.29
782.57	231.27
782.89	231.26
783.22	231.19
783.54	231.14
783.86	231.10
784.19	231.07
784.51	231.02
784.83	230.95
785.16	230.91
785.48	230.85
785.80	230.83
786.12	230.79
786.45	230.81
786.77	230.81
787.09	230.74
787.42	230.63
787.74	230.58
788.06	230.56
788.38	230.50
788.71	230.47
789.03	230.42
789.35	230.40
789.67	230.34
789.99	230.33
790.32	230.27
790.64	230.26
790.96	230.29
791.28	230.25
791.61	230.23
791.93	230.18
792.25	230.16
792.57	230.18
792.89	230.10
793.21	230.02
793.54	229.98
793.86	229.93
794.18	229.89
794.50	229.83
794.82	229.81
795.14	229.76
795.47	229.71
795.79	229.68
796.11	229.61
796.43	229.51
796.75	229.47
797.07	229.43
797.39	229.35
797.71	229.24
798.04	229.18
798.36	229.13
798.68	229.10
799.00	229.07
799.32	228.98
799.64	228.98
799.96	228.93
800.28	228.88
800.60	228.84
800.92	228.83
801.24	228.79
801.56	228.74
801.89	228.70
802.21	228.67
802.53	228.60
802.85	228.56
803.17	228.58
803.49	228.53
803.81	228.50
804.13	228.47
804.45	228.42
804.77	228.39
805.09	228.37
805.41	228.31
805.73	228.25
806.05	228.20
806.37	228.14
806.69	228.12
807.01	228.11
807.33	228.07
807.65	228.01
807.97	228.02
808.28	227.99
808.60	227.96
808.92	227.92
809.24	227.94
809.56	227.89
809.88	227.85
810.20	227.82
810.52	227.81
810.84	227.77
811.16	227.75
811.48	227.74
811.80	227.72
812.12	227.68
812.43	227.65
812.75	227.64
813.07	227.64
813.39	227.61
813.71	227.59
814.03	227.58
814.35	227.55
814.67	227.50
814.98	227.48
815.30	227.50
815.62	227.49
815.94	227.42
816.26	227.45
816.58	227.43
816.89	227.44
817.21	227.41
817.53	227.41
817.85	227.43
818.17	227.40
818.48	227.37
818.80	227.43
819.12	227.44
819.44	227.40
819.76	227.37
820.07	227.38
820.39	227.34
820.71	227.34
821.03	227.35
821.34	227.34
821.66	227.35
821.98	227.35
822.30	227.34
822.61	227.46
822.93	227.44
823.25	227.43
823.57	227.43
823.88	227.45
824.20	227.46
824.52	227.46
824.83	227.48
825.15	227.47
825.47	227.44
825.79	227.48
826.10	227.51
826.42	227.52
826.74	227.53
827.05	227.53
827.37	227.54
827.69	227.54
828.00	227.54
828.32	227.56
828.64	227.52
828.95	227.58
829.27	227.52
829.58	227.51
829.90	227.50
830.22	227.49
830.53	227.44
830.85	227.43
831.17	227.39
831.48	227.38
831.80	227.40
832.11	227.37
832.43	227.30
832.75	227.28
833.06	227.30
833.38	227.25
833.69	227.23
834.01	227.19
834.32	227.16
834.64	227.13
834.96	227.11
835.27	227.08
835.59	227.00
835.90	226.95
836.22	226.92
836.53	226.89
836.85	226.85
837.16	226.97
837.48	226.93
837.79	226.93
838.11	226.94
838.42	226.92
838.74	226.94
839.05	226.96
839.37	226.95
839.68	226.88
840.00	226.84
840.31	226.84
840.63	226.80
840.94	226.81
841.26	226.80
841.57	226.80
841.88	226.78
842.20	226.75
842.51	226.74
842.83	226.72
843.14	226.79
843.46	226.80
843.77	226.68
844.08	226.65
844.40	226.65
844.71	226.58
845.03	226.54
845.34	226.51
845.65	226.47
845.97	226.43
846.28	226.41
846.60	226.45
846.91	226.41
847.22	226.41
847.54	226.41
847.85	226.40
848.16	226.34
848.48	226.31
848.79	226.36
849.10	226.35
849.42	226.35
849.73	226.24
850.04	226.21
850.36	226.21
850.67	226.20
850.98	226.18
851.30	226.17
851.61	226.17
851.92	226.14
852.23	226.18
852.55	226.21
852.86	226.23
853.17	226.19
853.49	226.23
853.80	226.26
854.11	226.25
854.42	226.26
854.74	226.26
855.05	226.26
855.36	226.21
855.67	226.19
855.99	226.21
856.30	226.32
856.61	226.33
856.92	226.29
857.23	226.29
857.55	226.30
857.86	226.33
858.17	226.34
858.48	226.32
858.79	226.30
859.11	226.27
859.42	226.27
859.73	226.26
860.04	226.24
860.35	226.22
860.66	226.20
860.98	226.18
861.29	226.21
861.60	226.24
861.91	226.25
862.22	226.27
862.53	226.24
862.84	226.13
863.16	226.13
863.47	226.13
863.78	226.13
864.09	226.14
864.40	226.12
864.71	226.13
865.02	226.14
865.33	226.13
865.64	226.13
865.95	226.10
866.27	226.19
866.58	226.18
866.89	226.21
867.20	226.22
867.51	226.22
867.82	226.19
868.13	226.19
868.44	226.20
868.75	226.23
869.06	226.23
869.37	226.24
869.68	226.24
869.99	226.26
870.30	226.27
870.61	226.27
870.92	226.27
871.23	226.26
871.54	226.29
871.85	226.31
872.16	226.34
872.47	226.35
872.78	226.27
873.09	226.28
873.40	226.28
873.71	226.27
874.02	226.23
874.33	226.22
874.64	226.22
874.95	226.25
875.26	226.20
875.56	226.24
875.87	226.24
876.18	226.22
876.49	226.30
876.80	226.27
877.11	226.23
877.42	226.23
877.73	226.21
878.04	226.19
878.35	226.14
878.66	226.09
878.96	226.09
879.27	226.09
879.58	226.05
879.89	226.01
880.20	226.02
880.51	226.06
880.82	226.06
881.12	226.04
881.43	225.99
881.74	225.96
882.05	225.94
882.36	225.92
882.67	225.94
882.97	225.83
883.28	225.84
883.59	225.82
883.90	225.83
884.21	225.86
884.51	225.87
884.82	225.85
885.13	225.88
885.44	225.87
885.74	225.87
886.05	225.88
886.36	225.89
886.67	225.86
886.98	225.90
887.28	225.88
887.59	225.88
887.90	225.88
888.20	225.88
888.51	225.87
888.82	225.87
889.13	225.86
889.43	225.94
889.74	225.95
890.05	225.96
890.35	225.94
890.66	225.91
890.97	225.89
891.28	225.91
891.58	225.91
891.89	225.93
892.20	225.92
892.50	225.92
892.81	225.94
893.12	225.93
893.42	225.87
893.73	225.88
894.04	225.91
894.34	225.92
894.65	225.94
894.95	225.93
895.26	225.94
895.57	225.98
895.87	225.89
896.18	225.87
896.48	225.91
896.79	225.91
897.10	225.93
897.40	225.95
897.71	225.98
898.01	225.99
898.32	225.95
898.63	225.97
898.93	225.96
899.24	225.93
899.54	225.91
899.85	225.94
900.15	225.96
900.46	225.93
900.76	225.92
901.07	225.91
901.38	225.88
901.68	225.92
901.99	225.86
902.29	225.86
902.60	225.84
902.90	225.82
903.21	225.83
903.51	225.79
903.82	225.77
904.12	225.74
904.43	225.73
904.73	225.72
905.03	225.68
905.34	225.79
905.64	225.78
905.95	225.78
906.25	225.74
906.56	225.73
906.86	225.71
907.17	225.71
907.47	225.70
907.77	225.73
908.08	225.67
908.38	225.67
908.69	225.67
908.99	225.73
909.30	225.69
909.60	225.71
909.90	225.70
910.21	225.70
910.51	225.68
910.81	225.65
911.12	225.68
911.42	225.70
911.73	225.56
912.03	225.56
912.33	225.58
912.64	225.57
912.94	225.53
913.24	225.52
913.55	225.53
913.85	225.51
914.15	225.51
914.46	225.51
914.76	225.49
915.06	225.51
915.37	225.46
915.67	225.46
915.97	225.44
916.27	225.42
916.58	225.40
916.88	225.37
917.18	225.39
917.49	225.44
917.79	225.42
918.09	225.44
918.39	225.47
918.70	225.49
919.00	225.50
919.30	225.59
919.60	225.58
919.91	225.54
920.21	225.54
920.51	225.49
920.81	225.49
921.12	225.57
921.42	225.57
921.72	225.57
922.02	225.61
922.32	225.64
922.63	225.65
922.93	225.71
923.23	225.72
923.53	225.71
923.83	225.65
924.13	225.69
924.44	225.69
924.74	225.70
925.04	225.71
925.34	225.71
925.64	225.63
925.94	225.64
926.24	225.73
926.55	225.74
926.85	225.79
927.15	225.77
927.45	225.73
927.75	225.70
928.05	225.72
928.35	225.70
928.65	225.70
928.95	225.71
929.26	225.64
929.56	225.68
929.86	225.67
930.16	225.64
930.46	225.60
930.76	225.62
931.06	225.57
931.36	225.53
931.66	225.56
931.96	225.61
932.26	225.59
932.56	225.50
932.86	225.54
933.16	225.52
933.46	225.54
933.76	225.53
934.06	225.54
934.36	225.57
934.66	225.59
934.96	225.58
935.26	225.60
935.56	225.63
935.86	225.60
936.16	225.61
936.46	225.60
936.76	225.61
937.06	225.61
937.36	225.63
937.66	225.64
937.96	225.63
938.26	225.61
938.56	225.62
938.86	225.67
939.16	225.68
939.46	225.68
939.76	225.67
940.06	225.67
940.35	225.68
940.65	225.62
940.95	225.63
941.25	225.60
941.55	225.56
941.85	225.55
942.15	225.58
942.45	225.63
942.75	225.66
943.04	225.65
943.34	225.66
943.64	225.68
943.94	225.66
944.24	225.68
944.54	225.69
944.84	225.68
945.13	225.63
945.43	225.60
945.73	225.58
946.03	225.61
946.33	225.62
946.62	225.59
946.92	225.56
947.22	225.55
947.52	225.58
947.82	225.61
948.11	225.59
948.41	225.59
948.71	225.55
949.01	225.55
949.31	225.56
949.60	225.55
949.90	225.55
950.20	225.52
950.50	225.49
950.79	225.46
951.09	225.46
951.39	225.49
951.69	225.48
951.98	225.54
952.28	225.52
952.58	225.52
952.87	225.50
953.17	225.55
953.47	225.52
953.76	225.50
954.06	225.49
954.36	225.50
954.66	225.47
954.95	225.48
955.25	225.49
955.55	225.49
955.84	225.48
956.14	225.49
956.44	225.53
956.73	225.51
957.03	225.50
957.32	225.51
957.62	225.49
957.92	225.49
958.21	225.46
958.51	225.57
958.81	225.55
959.10	225.58
959.40	225.60
959.69	225.62
959.99	225.63
960.29	225.60
960.58	225.58
960.88	225.63
961.17	225.60
961.47	225.58
961.76	225.60
962.06	225.58
962.36	225.54
962.65	225.52
962.95	225.53
963.24	225.53
963.54	225.54
963.83	225.55
964.13	225.56
964.42	225.54
964.72	225.47
965.01	225.46
965.31	225.48
965.60	225.45
965.90	225.50
966.19	225.50
966.49	225.53
966.78	225.52
967.08	225.50
967.37	225.51
967.67	225.50
967.96	225.50
968.26	225.52
968.55	225.57
968.85	225.59
969.14	225.61
969.43	225.64
969.73	225.64
970.02	225.65
970.32	225.67
970.61	225.67
970.91	225.67
971.20	225.67
971.49	225.63
971.79	225.66
972.08	225.59
972.38	225.61
972.67	225.60
972.96	225.64
973.26	225.64
973.55	225.67
973.85	225.66
974.14	225.65
974.43	225.65
974.73	225.62
975.02	225.62
975.31	225.61
975.61	225.60
975.90	225.59
976.19	225.60
976.49	225.60
976.78	225.62
977.07	225.63
977.37	225.64
977.66	225.67
977.95	225.63
978.24	225.67
978.54	225.69
978.83	225.70
979.12	225.69
979.42	225.69
979.71	225.69
980.00	225.73
980.29	225.74
980.59	225.72
980.88	225.78
981.17	225.75
981.46	225.74
981.76	225.75
982.05	225.77
982.34	225.76
982.63	225.71
982.93	225.70
983.22	225.71
983.51	225.69
983.80	225.75
984.09	225.76
984.39	225.74
984.68	225.70
984.97	225.70
985.26	225.71
985.55	225.71
985.85	225.68
986.14	225.65
986.43	225.68
986.72	225.68
987.01	225.63
987.30	225.66
987.59	225.68
987.89	225.65
988.18	225.61
988.47	225.55
988.76	225.57
989.05	225.57
989.34	225.53
989.63	225.55
989.92	225.52
990.22	225.50
990.51	225.49
990.80	225.50
991.09	225.53
991.38	225.54
991.67	225.52
991.96	225.49
992.25	225.50
992.54	225.48
992.83	225.48
993.12	225.47
993.41	225.48
993.70	225.47
993.99	225.49
994.28	225.54
994.58	225.59
994.87	225.56
995.16	225.55
995.45	225.53
995.74	225.50
996.03	225.54
996.32	225.53
996.61	225.54
996.90	225.53
997.19	225.48
997.48	225.44
997.77	225.46
998.06	225.45
998.34	225.41
998.63	225.42
998.92	225.42
999.21	225.43
999.50	225.43
999.79	225.42
1000.08	225.44
1000.37	225.42
1000.66	225.42
1000.95	225.45
1001.24	225.45
1001.53	225.45
1001.82	225.44
1002.11	225.36
1002.40	225.36
1002.68	225.39
1002.97	225.48
1003.26	225.47
1003.55	225.44
1003.84	225.45
1004.13	225.48
1004.42	225.52
1004.71	225.50
1004.99	225.50
1005.28	225.50
1005.57	225.47
1005.86	225.44
1006.15	225.42
1006.44	225.39
1006.72	225.40
1007.01	225.38
1007.30	225.39
1007.59	225.38
1007.88	225.38
1008.17	225.40
1008.45	225.38
1008.74	225.33
1009.03	225.26
1009.32	225.28
1009.60	225.30
1009.89	225.28
1010.18	225.27
1010.47	225.25
1010.76	225.26
1011.04	225.25
1011.33	225.26
1011.62	225.29
1011.91	225.31
1012.19	225.32
1012.48	225.30
1012.77	225.28
1013.05	225.33
1013.34	225.29
1013.63	225.29
1013.92	225.30
1014.20	225.32
1014.49	225.34
1014.78	225.37
1015.06	225.33
1015.35	225.36
1015.64	225.35
1015.92	225.37
1016.21	225.36
1016.50	225.37
1016.78	225.38
1017.07	225.39
1017.36	225.38
1017.64	225.37
1017.93	225.35
1018.22	225.35
1018.50	225.37
1018.79	225.37
1019.08	225.32
1019.36	225.36
1019.65	225.38
1019.93	225.41
1020.22	225.40
1020.51	225.48
1020.79	225.46
1021.08	225.29
1021.36	225.03
1021.65	225.13
1021.94	225.24
1022.22	225.56
1022.51	225.61
1022.79	225.94
1023.08	225.35
1023.36	227.14
1023.65	225.15
>>>>>End Processed Spectral Data<<<<<
