SpectraSuite Data File
++++++++++++++++++++++++++++++++++++
Date: Fri Feb 01 15:35:16 EST 2013
User: group
Dark Spectrum Present: No
Reference Spectrum Present: No
Number of Sampled Component Spectra: 1
Spectrometers: USB2E7196
Integration Time (usec): 35000 (USB2E7196)
Spectra Averaged: 100 (USB2E7196)
Boxcar Smoothing: 10 (USB2E7196)
Correct for Electrical Dark: No (USB2E7196)
Strobe/Lamp Enabled: No (USB2E7196)
Correct for Detector Non-linearity: No (USB2E7196)
Correct for Stray Light: No (USB2E7196)
Number of Pixels in Processed Spectrum: 2048
>>>>>Begin Processed Spectral Data<<<<<
339.09	0.00
339.48	214.93
339.86	216.19
340.24	217.35
340.63	218.76
341.01	221.96
341.39	221.90
341.78	222.69
342.16	224.91
342.54	224.38
342.93	213.12
343.31	223.88
343.69	224.41
344.07	224.84
344.46	225.28
344.84	225.66
345.22	225.91
345.60	226.13
345.99	226.33
346.37	226.42
346.75	226.56
347.13	226.59
347.52	226.67
347.90	226.71
348.28	226.69
348.66	226.76
349.05	226.73
349.43	226.79
349.81	226.84
350.19	226.87
350.57	226.94
350.96	227.00
351.34	227.10
351.72	227.22
352.10	227.37
352.48	227.43
352.87	227.50
353.25	227.53
353.63	227.61
354.01	227.68
354.39	227.75
354.77	227.83
355.15	227.93
355.54	227.94
355.92	227.99
356.30	228.07
356.68	228.19
357.06	228.30
357.44	228.36
357.82	228.44
358.20	228.56
358.58	228.63
358.97	228.69
359.35	228.77
359.73	228.82
360.11	228.84
360.49	228.92
360.87	228.94
361.25	229.02
361.63	229.12
362.01	229.17
362.39	229.23
362.77	229.24
363.15	229.29
363.53	229.34
363.91	229.38
364.29	229.41
364.67	229.31
365.05	229.34
365.43	229.35
365.81	229.34
366.19	229.37
366.57	229.39
366.95	229.38
367.33	229.31
367.71	229.31
368.09	229.32
368.47	229.29
368.85	229.31
369.23	229.29
369.61	229.21
369.99	229.20
370.37	229.15
370.75	229.18
371.13	229.11
371.51	229.06
371.89	229.05
372.27	229.00
372.65	228.98
373.03	228.93
373.41	228.89
373.78	228.83
374.16	228.75
374.54	228.66
374.92	228.62
375.30	228.58
375.68	228.50
376.06	228.41
376.44	228.35
376.82	228.26
377.19	228.20
377.57	228.12
377.95	228.04
378.33	227.97
378.71	227.83
379.09	227.77
379.47	227.73
379.84	227.62
380.22	227.57
380.60	227.44
380.98	227.36
381.36	227.31
381.73	227.23
382.11	227.15
382.49	227.11
382.87	227.03
383.25	226.97
383.62	227.00
384.00	226.94
384.38	226.87
384.76	226.84
385.13	226.81
385.51	226.76
385.89	226.70
386.27	226.68
386.64	226.64
387.02	226.57
387.40	226.50
387.78	226.47
388.15	226.42
388.53	226.41
388.91	226.38
389.29	226.34
389.66	226.31
390.04	226.29
390.42	226.29
390.79	226.26
391.17	226.26
391.55	226.13
391.92	226.10
392.30	226.13
392.68	226.10
393.05	226.10
393.43	226.08
393.81	226.09
394.18	226.09
394.56	226.11
394.94	226.18
395.31	226.21
395.69	226.26
396.06	226.32
396.44	226.36
396.82	226.38
397.19	226.42
397.57	226.49
397.95	226.54
398.32	226.55
398.70	226.64
399.07	226.74
399.45	226.82
399.82	226.93
400.20	226.99
400.58	227.10
400.95	227.14
401.33	227.27
401.70	227.44
402.08	227.56
402.45	227.67
402.83	227.78
403.20	227.85
403.58	227.97
403.95	228.10
404.33	228.26
404.71	228.37
405.08	228.57
405.46	228.68
405.83	228.85
406.21	229.02
406.58	229.17
406.96	229.32
407.33	229.51
407.70	229.66
408.08	229.94
408.45	230.15
408.83	230.40
409.20	230.62
409.58	230.80
409.95	231.06
410.33	231.29
410.70	231.54
411.08	231.85
411.45	232.16
411.82	232.46
412.20	232.80
412.57	233.25
412.95	233.54
413.32	234.00
413.69	234.40
414.07	234.82
414.44	235.28
414.82	235.75
415.19	236.32
415.56	236.90
415.94	237.42
416.31	238.07
416.68	238.71
417.06	239.43
417.43	240.08
417.81	240.81
418.18	241.60
418.55	242.45
418.93	243.34
419.30	244.21
419.67	245.15
420.04	246.09
420.42	247.07
420.79	248.28
421.16	249.40
421.54	250.65
421.91	251.89
422.28	253.12
422.66	254.44
423.03	255.72
423.40	257.05
423.77	258.46
424.15	259.88
424.52	261.35
424.89	262.96
425.26	264.55
425.64	266.02
426.01	267.64
426.38	269.30
426.75	270.97
427.13	272.71
427.50	274.49
427.87	276.39
428.24	278.24
428.61	279.94
428.99	281.88
429.36	283.93
429.73	286.00
430.10	288.08
430.47	290.16
430.85	292.25
431.22	294.49
431.59	296.86
431.96	299.13
432.33	301.65
432.70	303.98
433.08	306.80
433.45	309.42
433.82	312.00
434.19	314.89
434.56	317.73
434.93	320.40
435.30	323.05
435.68	325.93
436.05	328.77
436.42	331.62
436.79	334.14
437.16	336.84
437.53	339.68
437.90	342.42
438.27	345.13
438.64	347.99
439.01	350.60
439.38	352.87
439.75	355.01
440.13	357.48
440.50	359.83
440.87	361.67
441.24	363.67
441.61	365.83
441.98	367.35
442.35	369.17
442.72	371.04
443.09	372.83
443.46	373.83
443.83	374.45
444.20	374.95
444.57	375.78
444.94	376.08
445.31	376.42
445.68	376.89
446.05	377.00
446.42	376.61
446.79	376.15
447.16	375.69
447.53	375.35
447.90	374.19
448.27	373.07
448.64	371.46
449.01	370.31
449.37	368.35
449.74	366.43
450.11	364.17
450.48	361.70
450.85	359.19
451.22	357.04
451.59	354.97
451.96	353.05
452.33	350.47
452.70	348.10
453.07	345.24
453.43	342.26
453.80	339.49
454.17	336.81
454.54	334.24
454.91	331.54
455.28	328.87
455.65	326.39
456.02	323.92
456.38	321.81
456.75	319.07
457.12	316.81
457.49	314.59
457.86	312.39
458.23	310.53
458.59	308.44
458.96	306.36
459.33	304.54
459.70	302.61
460.07	301.09
460.43	299.38
460.80	297.76
461.17	296.33
461.54	294.81
461.91	293.39
462.27	291.97
462.64	290.73
463.01	289.37
463.38	288.06
463.74	286.70
464.11	285.50
464.48	284.51
464.85	283.40
465.21	282.54
465.58	281.62
465.95	280.52
466.32	279.63
466.68	278.72
467.05	277.78
467.42	276.89
467.78	275.97
468.15	275.06
468.52	274.39
468.88	273.56
469.25	272.82
469.62	272.20
469.98	271.56
470.35	270.88
470.72	270.28
471.08	269.61
471.45	269.08
471.82	268.52
472.18	267.91
472.55	267.46
472.92	266.92
473.28	266.43
473.65	265.98
474.02	265.56
474.38	265.18
474.75	264.88
475.11	264.55
475.48	264.29
475.85	264.03
476.21	263.80
476.58	263.57
476.94	263.40
477.31	263.23
477.67	263.07
478.04	262.97
478.41	262.95
478.77	262.96
479.14	262.84
479.50	262.85
479.87	262.96
480.23	263.03
480.60	263.11
480.96	263.20
481.33	263.41
481.69	263.58
482.06	263.79
482.42	264.01
482.79	264.26
483.15	264.56
483.52	264.94
483.88	265.29
484.25	265.66
484.61	266.11
484.98	266.53
485.34	267.04
485.71	267.66
486.07	268.24
486.44	268.82
486.80	269.56
487.17	270.26
487.53	271.08
487.90	271.93
488.26	272.83
488.62	273.83
488.99	274.80
489.35	275.86
489.72	276.96
490.08	278.15
490.44	279.42
490.81	280.77
491.17	282.16
491.54	283.63
491.90	285.20
492.26	286.81
492.63	288.54
492.99	290.35
493.36	292.21
493.72	294.25
494.08	296.39
494.45	298.66
494.81	301.09
495.17	303.51
495.54	306.08
495.90	308.77
496.26	311.55
496.63	314.54
496.99	317.66
497.35	320.93
497.72	324.37
498.08	327.87
498.44	331.57
498.80	335.47
499.17	339.52
499.53	343.67
499.89	348.05
500.26	352.57
500.62	357.32
500.98	362.32
501.34	367.44
501.71	372.73
502.07	378.16
502.43	383.72
502.79	389.54
503.16	395.62
503.52	401.91
503.88	408.39
504.24	414.96
504.60	421.85
504.97	428.93
505.33	436.23
505.69	443.96
506.05	451.73
506.41	459.60
506.78	467.78
507.14	476.23
507.50	484.98
507.86	494.00
508.22	503.12
508.59	512.29
508.95	521.85
509.31	531.65
509.67	541.79
510.03	552.08
510.39	562.60
510.75	573.39
511.12	584.29
511.48	595.57
511.84	607.09
512.20	618.58
512.56	630.65
512.92	642.78
513.28	655.11
513.64	667.55
514.00	680.29
514.37	693.25
514.73	706.35
515.09	719.36
515.45	732.70
515.81	746.37
516.17	760.37
516.53	774.50
516.89	788.63
517.25	802.83
517.61	817.27
517.97	831.79
518.33	846.26
518.69	861.06
519.05	875.98
519.41	891.26
519.77	906.86
520.13	922.22
520.49	937.75
520.85	953.16
521.21	968.97
521.57	985.24
521.93	1000.97
522.29	1017.44
522.65	1033.76
523.01	1049.90
523.37	1065.91
523.73	1081.96
524.09	1098.09
524.45	1114.49
524.81	1131.19
525.17	1148.15
525.53	1165.09
525.89	1181.98
526.25	1198.80
526.61	1215.25
526.97	1231.89
527.33	1248.35
527.68	1264.95
528.04	1281.37
528.40	1297.96
528.76	1314.95
529.12	1331.55
529.48	1348.46
529.84	1364.40
530.20	1381.02
530.56	1398.11
530.91	1415.54
531.27	1432.45
531.63	1448.92
531.99	1465.49
532.35	1481.45
532.71	1497.30
533.07	1513.48
533.42	1529.34
533.78	1545.46
534.14	1561.76
534.50	1577.06
534.86	1592.92
535.21	1608.27
535.57	1624.30
535.93	1640.00
536.29	1654.85
536.65	1670.04
537.00	1684.97
537.36	1700.44
537.72	1714.95
538.08	1729.40
538.44	1743.17
538.79	1757.09
539.15	1770.91
539.51	1784.73
539.87	1799.13
540.22	1812.79
540.58	1826.67
540.94	1840.12
541.29	1853.14
541.65	1865.92
542.01	1879.26
542.37	1891.68
542.72	1903.97
543.08	1915.66
543.44	1927.90
543.79	1939.19
544.15	1950.17
544.51	1961.60
544.87	1972.66
545.22	1983.57
545.58	1993.69
545.94	2003.44
546.29	2013.22
546.65	2022.95
547.01	2032.27
547.36	2040.96
547.72	2049.51
548.07	2057.34
548.43	2065.56
548.79	2073.49
549.14	2080.98
549.50	2088.47
549.86	2096.12
550.21	2103.61
550.57	2110.75
550.92	2117.38
551.28	2124.46
551.64	2131.45
551.99	2137.92
552.35	2143.91
552.70	2150.02
553.06	2156.21
553.41	2162.68
553.77	2168.81
554.13	2174.88
554.48	2180.88
554.84	2186.26
555.19	2191.55
555.55	2196.73
555.90	2201.17
556.26	2206.07
556.61	2210.85
556.97	2215.01
557.32	2219.19
557.68	2223.26
558.03	2227.68
558.39	2231.43
558.74	2236.04
559.10	2239.87
559.45	2243.69
559.81	2248.09
560.16	2251.93
560.52	2255.02
560.87	2258.38
561.23	2260.99
561.58	2264.10
561.94	2266.73
562.29	2269.28
562.64	2272.02
563.00	2274.69
563.35	2278.07
563.71	2281.21
564.06	2284.41
564.42	2287.10
564.77	2289.54
565.12	2291.75
565.48	2293.59
565.83	2295.27
566.19	2296.37
566.54	2297.41
566.89	2298.48
567.25	2298.92
567.60	2300.24
567.96	2301.96
568.31	2302.95
568.66	2304.03
569.02	2304.56
569.37	2304.94
569.72	2305.57
570.08	2305.61
570.43	2305.53
570.78	2304.92
571.14	2303.29
571.49	2301.86
571.84	2301.57
572.20	2300.46
572.55	2299.47
572.90	2297.97
573.26	2296.72
573.61	2295.14
573.96	2293.17
574.31	2290.11
574.67	2287.15
575.02	2283.52
575.37	2280.10
575.72	2276.19
576.08	2272.90
576.43	2269.40
576.78	2265.50
577.13	2262.51
577.49	2259.37
577.84	2255.89
578.19	2252.26
578.54	2248.47
578.90	2244.26
579.25	2238.70
579.60	2233.60
579.95	2228.41
580.30	2223.33
580.66	2218.16
581.01	2213.26
581.36	2208.34
581.71	2204.13
582.06	2199.68
582.42	2195.07
582.77	2189.67
583.12	2184.99
583.47	2180.24
583.82	2175.06
584.17	2169.89
584.53	2164.17
584.88	2158.47
585.23	2152.54
585.58	2146.98
585.93	2141.64
586.28	2136.81
586.63	2131.71
586.98	2126.63
587.34	2122.10
587.69	2117.06
588.04	2111.67
588.39	2105.88
588.74	2099.44
589.09	2093.21
589.44	2086.31
589.79	2080.37
590.14	2074.80
590.49	2068.16
590.84	2061.72
591.19	2055.87
591.54	2049.33
591.89	2041.92
592.25	2035.11
592.60	2027.88
592.95	2020.18
593.30	2012.67
593.65	2005.07
594.00	1998.00
594.35	1990.67
594.70	1982.38
595.05	1975.09
595.40	1967.80
595.75	1960.20
596.10	1953.73
596.45	1947.15
596.80	1940.94
597.15	1934.03
597.50	1926.89
597.85	1920.54
598.19	1913.78
598.54	1906.64
598.89	1899.95
599.24	1893.98
599.59	1887.11
599.94	1880.86
600.29	1874.60
600.64	1868.06
600.99	1860.42
601.34	1853.53
601.69	1846.59
602.04	1839.73
602.39	1832.43
602.74	1825.51
603.08	1818.83
603.43	1812.18
603.78	1804.80
604.13	1797.42
604.48	1790.27
604.83	1783.37
605.18	1776.17
605.53	1768.18
605.87	1759.99
606.22	1752.86
606.57	1744.94
606.92	1737.73
607.27	1730.51
607.62	1723.56
607.96	1716.28
608.31	1709.74
608.66	1702.01
609.01	1694.38
609.36	1686.79
609.70	1678.72
610.05	1670.59
610.40	1662.76
610.75	1654.47
611.10	1646.73
611.44	1638.44
611.79	1630.27
612.14	1621.52
612.49	1612.35
612.83	1604.04
613.18	1596.07
613.53	1587.76
613.88	1579.21
614.22	1570.93
614.57	1562.34
614.92	1554.20
615.27	1546.55
615.61	1538.22
615.96	1530.30
616.31	1522.67
616.65	1515.29
617.00	1507.69
617.35	1500.15
617.70	1491.78
618.04	1483.31
618.39	1475.14
618.74	1467.44
619.08	1459.32
619.43	1451.82
619.78	1444.88
620.12	1437.60
620.47	1429.92
620.82	1421.88
621.16	1414.59
621.51	1407.01
621.85	1399.42
622.20	1390.87
622.55	1382.66
622.89	1374.71
623.24	1367.11
623.59	1359.81
623.93	1352.33
624.28	1345.23
624.62	1337.68
624.97	1330.58
625.32	1323.81
625.66	1316.66
626.01	1309.50
626.35	1301.97
626.70	1294.22
627.04	1286.58
627.39	1278.85
627.73	1271.57
628.08	1264.63
628.43	1257.27
628.77	1249.88
629.12	1242.31
629.46	1235.24
629.81	1227.80
630.15	1220.66
630.50	1213.22
630.84	1205.04
631.19	1197.11
631.53	1189.53
631.88	1181.94
632.22	1174.34
632.57	1167.06
632.91	1159.59
633.26	1152.17
633.60	1144.82
633.95	1137.78
634.29	1130.77
634.64	1124.03
634.98	1116.62
635.32	1109.40
635.67	1102.81
636.01	1096.15
636.36	1089.34
636.70	1082.85
637.05	1076.27
637.39	1069.88
637.73	1063.34
638.08	1057.47
638.42	1051.54
638.77	1045.07
639.11	1038.44
639.45	1032.11
639.80	1025.41
640.14	1018.94
640.49	1012.45
640.83	1006.19
641.17	999.87
641.52	993.56
641.86	987.19
642.20	981.33
642.55	975.08
642.89	968.50
643.23	962.04
643.58	956.32
643.92	950.09
644.26	943.99
644.61	937.93
644.95	931.91
645.29	925.32
645.64	918.57
645.98	912.31
646.32	906.53
646.66	900.52
647.01	894.73
647.35	889.09
647.69	883.31
648.04	877.84
648.38	872.03
648.72	865.98
649.06	859.98
649.41	854.15
649.75	848.12
650.09	842.19
650.43	836.35
650.78	830.18
651.12	824.17
651.46	818.43
651.80	812.61
652.14	807.26
652.49	801.85
652.83	796.65
653.17	790.98
653.51	785.26
653.85	779.84
654.20	774.21
654.54	768.17
654.88	762.42
655.22	756.49
655.56	750.86
655.90	745.55
656.25	740.23
656.59	734.84
656.93	729.83
657.27	724.73
657.61	719.33
657.95	714.23
658.29	709.20
658.64	704.01
658.98	698.79
659.32	693.28
659.66	688.08
660.00	682.72
660.34	677.73
660.68	672.80
661.02	667.77
661.36	663.04
661.70	658.53
662.05	654.24
662.39	649.88
662.73	645.43
663.07	640.94
663.41	636.44
663.75	631.95
664.09	627.38
664.43	622.99
664.77	618.90
665.11	614.63
665.45	610.49
665.79	606.37
666.13	602.12
666.47	598.09
666.81	593.92
667.15	589.86
667.49	585.98
667.83	582.19
668.17	578.24
668.51	574.17
668.85	570.18
669.19	566.23
669.53	562.40
669.87	558.48
670.21	554.77
670.55	551.13
670.89	547.69
671.23	544.23
671.57	540.71
671.91	537.10
672.25	533.61
672.58	530.11
672.92	526.69
673.26	523.59
673.60	520.46
673.94	517.33
674.28	514.41
674.62	511.49
674.96	508.32
675.30	505.40
675.64	502.46
675.97	499.66
676.31	496.83
676.65	493.90
676.99	491.19
677.33	488.35
677.67	485.56
678.01	482.53
678.34	479.59
678.68	476.72
679.02	473.89
679.36	471.09
679.70	468.39
680.04	465.64
680.37	462.81
680.71	459.94
681.05	457.40
681.39	454.69
681.73	451.98
682.06	449.45
682.40	446.88
682.74	444.37
683.08	441.85
683.42	439.25
683.75	436.73
684.09	434.19
684.43	431.71
684.77	429.22
685.10	426.89
685.44	424.55
685.78	422.25
686.12	420.03
686.45	417.84
686.79	415.51
687.13	413.34
687.46	411.17
687.80	409.06
688.14	406.77
688.48	404.74
688.81	402.52
689.15	400.41
689.49	398.24
689.82	396.14
690.16	394.00
690.50	392.00
690.83	390.13
691.17	388.17
691.51	386.29
691.84	384.51
692.18	382.56
692.52	380.57
692.85	378.66
693.19	376.77
693.52	374.89
693.86	373.12
694.20	371.34
694.53	369.57
694.87	367.71
695.21	365.99
695.54	364.12
695.88	362.41
696.21	360.72
696.55	359.11
696.88	357.45
697.22	355.88
697.56	354.33
697.89	352.63
698.23	351.03
698.56	349.41
698.90	347.79
699.23	346.16
699.57	344.64
699.90	343.10
700.24	341.54
700.58	340.01
700.91	338.54
701.25	337.08
701.58	335.65
701.92	334.32
702.25	332.96
702.59	331.62
702.92	330.32
703.26	328.99
703.59	327.73
703.93	326.58
704.26	325.35
704.60	324.03
704.93	322.78
705.26	321.56
705.60	320.43
705.93	319.27
706.27	318.24
706.60	317.20
706.94	316.17
707.27	315.09
707.61	314.08
707.94	313.03
708.27	311.94
708.61	310.92
708.94	309.97
709.28	308.98
709.61	308.04
709.94	307.08
710.28	306.06
710.61	305.06
710.95	304.01
711.28	303.09
711.61	302.16
711.95	301.25
712.28	300.30
712.61	299.30
712.95	298.40
713.28	297.53
713.61	296.62
713.95	295.70
714.28	294.86
714.61	293.95
714.95	293.08
715.28	292.29
715.61	291.42
715.95	290.51
716.28	289.64
716.61	288.80
716.95	287.98
717.28	287.25
717.61	286.47
717.94	285.67
718.28	284.89
718.61	284.18
718.94	283.47
719.27	282.78
719.61	282.14
719.94	281.46
720.27	280.74
720.60	280.06
720.94	279.44
721.27	278.83
721.60	278.26
721.93	277.65
722.27	277.06
722.60	276.50
722.93	275.94
723.26	275.38
723.59	274.82
723.93	274.27
724.26	273.72
724.59	273.17
724.92	272.67
725.25	272.16
725.59	271.63
725.92	271.11
726.25	270.64
726.58	270.11
726.91	269.61
727.24	269.16
727.57	268.69
727.91	268.20
728.24	267.72
728.57	267.21
728.90	266.77
729.23	266.26
729.56	265.81
729.89	265.35
730.22	264.90
730.55	264.45
730.89	263.98
731.22	263.53
731.55	263.09
731.88	262.64
732.21	262.20
732.54	261.74
732.87	261.34
733.20	260.91
733.53	260.57
733.86	260.21
734.19	259.82
734.52	259.43
734.85	259.12
735.18	258.69
735.51	258.35
735.84	258.01
736.17	257.67
736.50	257.28
736.83	257.03
737.16	256.71
737.49	256.38
737.82	256.07
738.15	255.72
738.48	255.41
738.81	255.10
739.14	254.76
739.47	254.44
739.80	254.14
740.13	253.81
740.46	253.43
740.79	253.11
741.12	252.75
741.45	252.45
741.78	252.07
742.11	251.81
742.44	251.51
742.77	251.21
743.10	250.94
743.43	250.66
743.75	250.30
744.08	250.13
744.41	249.87
744.74	249.54
745.07	249.28
745.40	249.04
745.73	248.82
746.06	248.57
746.39	248.33
746.71	248.06
747.04	247.83
747.37	247.59
747.70	247.34
748.03	247.17
748.36	246.97
748.68	246.74
749.01	246.50
749.34	246.28
749.67	246.05
750.00	245.79
750.33	245.63
750.65	245.41
750.98	245.10
751.31	244.89
751.64	244.72
751.97	244.55
752.29	244.31
752.62	244.06
752.95	243.84
753.28	243.62
753.60	243.44
753.93	243.26
754.26	243.08
754.59	242.85
754.91	242.58
755.24	242.38
755.57	242.21
755.90	242.00
756.22	241.78
756.55	241.60
756.88	241.42
757.20	241.17
757.53	240.97
757.86	240.79
758.19	240.59
758.51	240.44
758.84	240.22
759.17	240.05
759.49	239.93
759.82	239.82
760.15	239.69
760.47	239.53
760.80	239.36
761.13	239.22
761.45	239.10
761.78	238.97
762.11	238.81
762.43	238.67
762.76	238.54
763.08	238.43
763.41	238.28
763.74	238.13
764.06	237.97
764.39	237.82
764.71	237.69
765.04	237.55
765.37	237.38
765.69	237.24
766.02	237.08
766.34	236.88
766.67	236.72
767.00	236.59
767.32	236.52
767.65	236.47
767.97	236.36
768.30	236.24
768.62	236.13
768.95	235.98
769.27	235.85
769.60	235.76
769.92	235.62
770.25	235.48
770.57	235.37
770.90	235.28
771.22	235.13
771.55	235.00
771.87	234.89
772.20	234.82
772.52	234.81
772.85	234.90
773.17	234.82
773.50	234.71
773.82	234.66
774.15	234.51
774.47	234.34
774.80	234.22
775.12	234.09
775.45	234.00
775.77	233.94
776.09	233.88
776.42	233.79
776.74	233.74
777.07	233.69
777.39	233.64
777.72	233.54
778.04	233.49
778.36	233.43
778.69	233.35
779.01	233.30
779.33	233.14
779.66	232.93
779.98	232.88
780.31	232.85
780.63	232.74
780.95	232.68
781.28	232.63
781.60	232.56
781.92	232.49
782.25	232.44
782.57	232.39
782.89	232.34
783.22	232.27
783.54	232.20
783.86	232.15
784.19	232.11
784.51	232.09
784.83	232.04
785.16	231.99
785.48	232.01
785.80	231.96
786.12	231.94
786.45	231.88
786.77	231.84
787.09	231.76
787.42	231.69
787.74	231.68
788.06	231.63
788.38	231.61
788.71	231.55
789.03	231.49
789.35	231.46
789.67	231.43
789.99	231.40
790.32	231.39
790.64	231.37
790.96	231.38
791.28	231.32
791.61	231.30
791.93	231.28
792.25	231.20
792.57	231.22
792.89	231.17
793.21	231.15
793.54	231.09
793.86	231.07
794.18	231.08
794.50	231.02
794.82	230.94
795.14	230.90
795.47	230.92
795.79	230.90
796.11	230.84
796.43	230.78
796.75	230.72
797.07	230.65
797.39	230.58
797.71	230.49
798.04	230.46
798.36	230.41
798.68	230.37
799.00	230.35
799.32	230.29
799.64	230.27
799.96	230.23
800.28	230.21
800.60	230.15
800.92	230.08
801.24	230.03
801.56	230.03
801.89	230.00
802.21	229.96
802.53	229.89
802.85	229.88
803.17	229.89
803.49	229.87
803.81	229.84
804.13	229.81
804.45	229.76
804.77	229.74
805.09	229.73
805.41	229.63
805.73	229.59
806.05	229.49
806.37	229.43
806.69	229.41
807.01	229.37
807.33	229.35
807.65	229.31
807.97	229.33
808.28	229.30
808.60	229.29
808.92	229.25
809.24	229.32
809.56	229.25
809.88	229.16
810.20	229.14
810.52	229.11
810.84	229.06
811.16	229.01
811.48	228.98
811.80	228.97
812.12	228.98
812.43	228.93
812.75	228.98
813.07	228.96
813.39	228.92
813.71	228.87
814.03	228.87
814.35	228.86
814.67	228.80
814.98	228.76
815.30	228.73
815.62	228.71
815.94	228.61
816.26	228.65
816.58	228.64
816.89	228.63
817.21	228.57
817.53	228.55
817.85	228.56
818.17	228.51
818.48	228.44
818.80	228.43
819.12	228.40
819.44	228.35
819.76	228.34
820.07	228.31
820.39	228.31
820.71	228.31
821.03	228.29
821.34	228.27
821.66	228.29
821.98	228.30
822.30	228.30
822.61	228.35
822.93	228.30
823.25	228.29
823.57	228.29
823.88	228.35
824.20	228.34
824.52	228.34
824.83	228.34
825.15	228.33
825.47	228.38
825.79	228.38
826.10	228.36
826.42	228.35
826.74	228.36
827.05	228.35
827.37	228.33
827.69	228.31
828.00	228.33
828.32	228.32
828.64	228.33
828.95	228.39
829.27	228.37
829.58	228.37
829.90	228.41
830.22	228.42
830.53	228.37
830.85	228.39
831.17	228.36
831.48	228.39
831.80	228.43
832.11	228.40
832.43	228.41
832.75	228.41
833.06	228.43
833.38	228.43
833.69	228.47
834.01	228.46
834.32	228.45
834.64	228.44
834.96	228.42
835.27	228.38
835.59	228.33
835.90	228.30
836.22	228.32
836.53	228.26
836.85	228.24
837.16	228.34
837.48	228.30
837.79	228.32
838.11	228.31
838.42	228.30
838.74	228.29
839.05	228.28
839.37	228.27
839.68	228.22
840.00	228.19
840.31	228.16
840.63	228.14
840.94	228.14
841.26	228.09
841.57	228.05
841.88	228.03
842.20	227.99
842.51	227.93
842.83	227.90
843.14	227.96
843.46	227.93
843.77	227.86
844.08	227.85
844.40	227.79
844.71	227.75
845.03	227.73
845.34	227.69
845.65	227.67
845.97	227.65
846.28	227.64
846.60	227.64
846.91	227.59
847.22	227.56
847.54	227.56
847.85	227.56
848.16	227.55
848.48	227.52
848.79	227.51
849.10	227.51
849.42	227.47
849.73	227.35
850.04	227.30
850.36	227.26
850.67	227.28
850.98	227.27
851.30	227.24
851.61	227.24
851.92	227.22
852.23	227.23
852.55	227.22
852.86	227.21
853.17	227.17
853.49	227.20
853.80	227.23
854.11	227.23
854.42	227.22
854.74	227.22
855.05	227.21
855.36	227.19
855.67	227.18
855.99	227.19
856.30	227.32
856.61	227.35
856.92	227.38
857.23	227.36
857.55	227.35
857.86	227.36
858.17	227.37
858.48	227.33
858.79	227.34
859.11	227.34
859.42	227.35
859.73	227.37
860.04	227.37
860.35	227.35
860.66	227.31
860.98	227.33
861.29	227.36
861.60	227.38
861.91	227.40
862.22	227.40
862.53	227.36
862.84	227.26
863.16	227.28
863.47	227.25
863.78	227.25
864.09	227.24
864.40	227.24
864.71	227.23
865.02	227.24
865.33	227.22
865.64	227.20
865.95	227.19
866.27	227.27
866.58	227.22
866.89	227.23
867.20	227.24
867.51	227.22
867.82	227.22
868.13	227.23
868.44	227.19
868.75	227.23
869.06	227.28
869.37	227.29
869.68	227.25
869.99	227.27
870.30	227.27
870.61	227.29
870.92	227.27
871.23	227.26
871.54	227.32
871.85	227.33
872.16	227.37
872.47	227.34
872.78	227.29
873.09	227.34
873.40	227.32
873.71	227.32
874.02	227.32
874.33	227.31
874.64	227.33
874.95	227.38
875.26	227.39
875.56	227.35
875.87	227.37
876.18	227.38
876.49	227.50
876.80	227.49
877.11	227.50
877.42	227.51
877.73	227.51
878.04	227.47
878.35	227.50
878.66	227.45
878.96	227.48
879.27	227.48
879.58	227.46
879.89	227.46
880.20	227.49
880.51	227.46
880.82	227.44
881.12	227.45
881.43	227.41
881.74	227.37
882.05	227.38
882.36	227.37
882.67	227.38
882.97	227.25
883.28	227.26
883.59	227.24
883.90	227.24
884.21	227.27
884.51	227.26
884.82	227.22
885.13	227.23
885.44	227.23
885.74	227.19
886.05	227.16
886.36	227.13
886.67	227.10
886.98	227.17
887.28	227.19
887.59	227.13
887.90	227.11
888.20	227.08
888.51	227.10
888.82	227.06
889.13	227.03
889.43	227.11
889.74	227.11
890.05	227.11
890.35	227.13
890.66	227.08
890.97	227.07
891.28	227.05
891.58	227.07
891.89	227.06
892.20	227.08
892.50	227.09
892.81	227.11
893.12	227.09
893.42	227.05
893.73	227.02
894.04	227.02
894.34	227.02
894.65	227.04
894.95	227.01
895.26	226.98
895.57	227.01
895.87	226.92
896.18	226.90
896.48	226.90
896.79	226.86
897.10	226.91
897.40	226.90
897.71	226.92
898.01	226.91
898.32	226.90
898.63	226.90
898.93	226.90
899.24	226.90
899.54	226.92
899.85	226.92
900.15	226.92
900.46	226.93
900.76	226.97
901.07	226.93
901.38	226.94
901.68	226.97
901.99	226.97
902.29	226.98
902.60	226.98
902.90	226.98
903.21	226.99
903.51	226.93
903.82	226.97
904.12	226.96
904.43	226.94
904.73	226.97
905.03	226.94
905.34	227.04
905.64	227.03
905.95	227.02
906.25	227.03
906.56	227.06
906.86	227.08
907.17	227.09
907.47	227.15
907.77	227.13
908.08	227.15
908.38	227.11
908.69	227.11
908.99	227.13
909.30	227.14
909.60	227.14
909.90	227.20
910.21	227.15
910.51	227.16
910.81	227.20
911.12	227.19
911.42	227.21
911.73	227.10
912.03	227.10
912.33	227.14
912.64	227.13
912.94	227.11
913.24	227.11
913.55	227.08
913.85	227.08
914.15	227.15
914.46	227.16
914.76	227.20
915.06	227.20
915.37	227.19
915.67	227.18
915.97	227.19
916.27	227.13
916.58	227.15
916.88	227.17
917.18	227.14
917.49	227.20
917.79	227.19
918.09	227.24
918.39	227.27
918.70	227.24
919.00	227.26
919.30	227.29
919.60	227.26
919.91	227.26
920.21	227.26
920.51	227.20
920.81	227.19
921.12	227.20
921.42	227.19
921.72	227.18
922.02	227.19
922.32	227.18
922.63	227.20
922.93	227.23
923.23	227.20
923.53	227.19
923.83	227.13
924.13	227.16
924.44	227.13
924.74	227.14
925.04	227.18
925.34	227.12
925.64	227.08
925.94	227.09
926.24	227.12
926.55	227.11
926.85	227.10
927.15	227.08
927.45	227.07
927.75	227.09
928.05	227.09
928.35	227.10
928.65	227.14
928.95	227.16
929.26	227.09
929.56	227.11
929.86	227.11
930.16	227.11
930.46	227.08
930.76	227.08
931.06	227.04
931.36	227.00
931.66	227.05
931.96	227.05
932.26	227.03
932.56	227.00
932.86	226.98
933.16	226.98
933.46	226.98
933.76	226.94
934.06	226.97
934.36	226.98
934.66	226.92
934.96	226.90
935.26	226.91
935.56	226.93
935.86	226.91
936.16	226.92
936.46	226.91
936.76	226.89
937.06	226.87
937.36	226.89
937.66	226.93
937.96	226.91
938.26	226.88
938.56	226.87
938.86	226.85
939.16	226.87
939.46	226.87
939.76	226.88
940.06	226.90
940.35	226.84
940.65	226.84
940.95	226.89
941.25	226.88
941.55	226.84
941.85	226.84
942.15	226.85
942.45	226.87
942.75	226.86
943.04	226.90
943.34	226.93
943.64	226.91
943.94	226.87
944.24	226.89
944.54	226.91
944.84	226.95
945.13	226.94
945.43	226.96
945.73	226.98
946.03	226.97
946.33	226.95
946.62	226.99
946.92	226.96
947.22	226.99
947.52	226.99
947.82	227.01
948.11	227.01
948.41	226.97
948.71	226.92
949.01	226.92
949.31	226.88
949.60	226.86
949.90	226.85
950.20	226.86
950.50	226.84
950.79	226.83
951.09	226.85
951.39	226.88
951.69	226.89
951.98	226.90
952.28	226.91
952.58	226.92
952.87	226.91
953.17	226.91
953.47	226.87
953.76	226.89
954.06	226.88
954.36	226.87
954.66	226.91
954.95	226.97
955.25	227.00
955.55	227.03
955.84	227.02
956.14	227.04
956.44	227.04
956.73	227.02
957.03	227.05
957.32	227.05
957.62	227.04
957.92	227.02
958.21	227.01
958.51	227.14
958.81	227.14
959.10	227.12
959.40	227.13
959.69	227.13
959.99	227.14
960.29	227.13
960.58	227.14
960.88	227.17
961.17	227.15
961.47	227.14
961.76	227.14
962.06	227.14
962.36	227.13
962.65	227.15
962.95	227.15
963.24	227.12
963.54	227.10
963.83	227.11
964.13	227.11
964.42	227.10
964.72	227.02
965.01	227.03
965.31	227.04
965.60	227.04
965.90	227.11
966.19	227.09
966.49	227.10
966.78	227.07
967.08	227.05
967.37	227.01
967.67	226.97
967.96	226.97
968.26	226.96
968.55	226.96
968.85	226.97
969.14	226.95
969.43	226.97
969.73	226.95
970.02	226.93
970.32	226.92
970.61	226.87
970.91	226.83
971.20	226.82
971.49	226.78
971.79	226.77
972.08	226.71
972.38	226.72
972.67	226.68
972.96	226.72
973.26	226.70
973.55	226.76
973.85	226.76
974.14	226.77
974.43	226.76
974.73	226.76
975.02	226.72
975.31	226.73
975.61	226.72
975.90	226.71
976.19	226.69
976.49	226.69
976.78	226.73
977.07	226.74
977.37	226.72
977.66	226.74
977.95	226.75
978.24	226.75
978.54	226.77
978.83	226.78
979.12	226.78
979.42	226.77
979.71	226.76
980.00	226.77
980.29	226.75
980.59	226.75
980.88	226.77
981.17	226.77
981.46	226.76
981.76	226.78
982.05	226.80
982.34	226.81
982.63	226.83
982.93	226.83
983.22	226.84
983.51	226.87
983.80	226.89
984.09	226.89
984.39	226.91
984.68	226.87
984.97	226.89
985.26	226.88
985.55	226.87
985.85	226.84
986.14	226.85
986.43	226.89
986.72	226.91
987.01	226.91
987.30	226.90
987.59	226.93
987.89	226.91
988.18	226.90
988.47	226.89
988.76	226.87
989.05	226.88
989.34	226.86
989.63	226.87
989.92	226.87
990.22	226.86
990.51	226.82
990.80	226.81
991.09	226.82
991.38	226.84
991.67	226.85
991.96	226.84
992.25	226.88
992.54	226.82
992.83	226.80
993.12	226.80
993.41	226.83
993.70	226.84
993.99	226.87
994.28	226.88
994.58	226.93
994.87	226.90
995.16	226.88
995.45	226.88
995.74	226.83
996.03	226.82
996.32	226.85
996.61	226.87
996.90	226.88
997.19	226.86
997.48	226.85
997.77	226.84
998.06	226.82
998.34	226.80
998.63	226.81
998.92	226.80
999.21	226.79
999.50	226.79
999.79	226.76
1000.08	226.74
1000.37	226.75
1000.66	226.71
1000.95	226.73
1001.24	226.71
1001.53	226.71
1001.82	226.73
1002.11	226.68
1002.40	226.66
1002.68	226.65
1002.97	226.72
1003.26	226.71
1003.55	226.69
1003.84	226.72
1004.13	226.75
1004.42	226.75
1004.71	226.73
1004.99	226.73
1005.28	226.75
1005.57	226.72
1005.86	226.72
1006.15	226.68
1006.44	226.63
1006.72	226.65
1007.01	226.61
1007.30	226.64
1007.59	226.63
1007.88	226.61
1008.17	226.65
1008.45	226.63
1008.74	226.64
1009.03	226.58
1009.32	226.55
1009.60	226.56
1009.89	226.53
1010.18	226.49
1010.47	226.46
1010.76	226.47
1011.04	226.44
1011.33	226.44
1011.62	226.45
1011.91	226.44
1012.19	226.46
1012.48	226.50
1012.77	226.51
1013.05	226.60
1013.34	226.60
1013.63	226.60
1013.92	226.62
1014.20	226.60
1014.49	226.59
1014.78	226.58
1015.06	226.53
1015.35	226.58
1015.64	226.55
1015.92	226.57
1016.21	226.55
1016.50	226.56
1016.78	226.56
1017.07	226.58
1017.36	226.57
1017.64	226.56
1017.93	226.58
1018.22	226.61
1018.50	226.60
1018.79	226.59
1019.08	226.51
1019.36	226.51
1019.65	226.52
1019.93	226.56
1020.22	226.60
1020.51	226.65
1020.79	226.66
1021.08	226.95
1021.36	226.60
1021.65	226.88
1021.94	226.10
1022.22	226.69
1022.51	226.88
1022.79	227.59
1023.08	226.84
1023.36	227.73
1023.65	226.88
>>>>>End Processed Spectral Data<<<<<
