SpectraSuite Data File
++++++++++++++++++++++++++++++++++++
Date: Fri Feb 01 15:19:36 EST 2013
User: group
Dark Spectrum Present: No
Reference Spectrum Present: No
Number of Sampled Component Spectra: 1
Spectrometers: USB2E7196
Integration Time (usec): 35000 (USB2E7196)
Spectra Averaged: 100 (USB2E7196)
Boxcar Smoothing: 10 (USB2E7196)
Correct for Electrical Dark: No (USB2E7196)
Strobe/Lamp Enabled: No (USB2E7196)
Correct for Detector Non-linearity: No (USB2E7196)
Correct for Stray Light: No (USB2E7196)
Number of Pixels in Processed Spectrum: 2048
>>>>>Begin Processed Spectral Data<<<<<
339.09	0.00
339.48	215.32
339.86	216.58
340.24	217.58
340.63	218.70
341.01	222.25
341.39	222.15
341.78	223.49
342.16	224.11
342.54	224.16
342.93	213.36
343.31	224.16
343.69	224.70
344.07	225.14
344.46	225.56
344.84	226.00
345.22	226.23
345.60	226.47
345.99	226.64
346.37	226.80
346.75	226.92
347.13	227.01
347.52	227.10
347.90	227.16
348.28	227.21
348.66	227.23
349.05	227.19
349.43	227.25
349.81	227.30
350.19	227.33
350.57	227.38
350.96	227.46
351.34	227.55
351.72	227.64
352.10	227.78
352.48	227.88
352.87	227.89
353.25	227.95
353.63	228.03
354.01	228.11
354.39	228.18
354.77	228.26
355.15	228.36
355.54	228.40
355.92	228.46
356.30	228.51
356.68	228.65
357.06	228.75
357.44	228.79
357.82	228.86
358.20	228.98
358.58	229.04
358.97	229.12
359.35	229.20
359.73	229.25
360.11	229.31
360.49	229.35
360.87	229.42
361.25	229.49
361.63	229.54
362.01	229.58
362.39	229.59
362.77	229.66
363.15	229.66
363.53	229.71
363.91	229.71
364.29	229.75
364.67	229.67
365.05	229.67
365.43	229.68
365.81	229.68
366.19	229.69
366.57	229.73
366.95	229.73
367.33	229.66
367.71	229.66
368.09	229.62
368.47	229.63
368.85	229.59
369.23	229.57
369.61	229.52
369.99	229.53
370.37	229.50
370.75	229.48
371.13	229.44
371.51	229.37
371.89	229.33
372.27	229.27
372.65	229.22
373.03	229.16
373.41	229.06
373.78	228.95
374.16	228.81
374.54	228.70
374.92	228.61
375.30	228.53
375.68	228.46
376.06	228.39
376.44	228.30
376.82	228.22
377.19	228.14
377.57	228.06
377.95	227.92
378.33	227.84
378.71	227.73
379.09	227.65
379.47	227.58
379.84	227.49
380.22	227.38
380.60	227.29
380.98	227.24
381.36	227.20
381.73	227.13
382.11	227.09
382.49	226.99
382.87	226.93
383.25	226.88
383.62	226.91
384.00	226.82
384.38	226.75
384.76	226.72
385.13	226.66
385.51	226.64
385.89	226.61
386.27	226.58
386.64	226.56
387.02	226.53
387.40	226.48
387.78	226.49
388.15	226.48
388.53	226.44
388.91	226.38
389.29	226.33
389.66	226.36
390.04	226.33
390.42	226.37
390.79	226.31
391.17	226.32
391.55	226.21
391.92	226.21
392.30	226.23
392.68	226.18
393.05	226.20
393.43	226.20
393.81	226.19
394.18	226.15
394.56	226.13
394.94	226.13
395.31	226.16
395.69	226.18
396.06	226.26
396.44	226.32
396.82	226.37
397.19	226.46
397.57	226.49
397.95	226.55
398.32	226.56
398.70	226.65
399.07	226.73
399.45	226.78
399.82	226.85
400.20	226.91
400.58	227.00
400.95	227.06
401.33	227.17
401.70	227.32
402.08	227.46
402.45	227.59
402.83	227.72
403.20	227.85
403.58	227.96
403.95	228.09
404.33	228.24
404.71	228.39
405.08	228.59
405.46	228.74
405.83	228.95
406.21	229.12
406.58	229.29
406.96	229.45
407.33	229.65
407.70	229.84
408.08	230.12
408.45	230.34
408.83	230.60
409.20	230.80
409.58	230.98
409.95	231.24
410.33	231.50
410.70	231.74
411.08	232.03
411.45	232.33
411.82	232.61
412.20	232.98
412.57	233.39
412.95	233.68
413.32	234.08
413.69	234.42
414.07	234.84
414.44	235.32
414.82	235.77
415.19	236.32
415.56	236.89
415.94	237.44
416.31	238.09
416.68	238.68
417.06	239.41
417.43	240.08
417.81	240.83
418.18	241.61
418.55	242.47
418.93	243.34
419.30	244.24
419.67	245.19
420.04	246.11
420.42	247.10
420.79	248.29
421.16	249.47
421.54	250.69
421.91	251.93
422.28	253.19
422.66	254.56
423.03	255.88
423.40	257.22
423.77	258.63
424.15	260.06
424.52	261.58
424.89	263.19
425.26	264.79
425.64	266.24
426.01	267.83
426.38	269.47
426.75	271.14
427.13	272.88
427.50	274.67
427.87	276.55
428.24	278.39
428.61	280.13
428.99	282.06
429.36	284.19
429.73	286.25
430.10	288.30
430.47	290.36
430.85	292.51
431.22	294.75
431.59	297.14
431.96	299.41
432.33	301.91
432.70	304.30
433.08	307.10
433.45	309.77
433.82	312.38
434.19	315.31
434.56	318.19
434.93	320.85
435.30	323.49
435.68	326.42
436.05	329.32
436.42	332.14
436.79	334.70
437.16	337.39
437.53	340.25
437.90	343.06
438.27	345.83
438.64	348.65
439.01	351.27
439.38	353.50
439.75	355.64
440.13	358.16
440.50	360.54
440.87	362.40
441.24	364.36
441.61	366.56
441.98	368.00
442.35	369.79
442.72	371.64
443.09	373.47
443.46	374.47
443.83	375.03
444.20	375.52
444.57	376.31
444.94	376.57
445.31	376.84
445.68	377.19
446.05	377.21
446.42	376.81
446.79	376.37
447.16	375.90
447.53	375.60
447.90	374.40
448.27	373.17
448.64	371.57
449.01	370.40
449.37	368.40
449.74	366.51
450.11	364.21
450.48	361.70
450.85	359.14
451.22	356.99
451.59	354.97
451.96	353.00
452.33	350.40
452.70	348.03
453.07	345.22
453.43	342.32
453.80	339.56
454.17	336.88
454.54	334.30
454.91	331.55
455.28	328.88
455.65	326.38
456.02	323.93
456.38	321.78
456.75	319.08
457.12	316.85
457.49	314.64
457.86	312.44
458.23	310.55
458.59	308.49
458.96	306.37
459.33	304.48
459.70	302.68
460.07	301.14
460.43	299.40
460.80	297.76
461.17	296.28
461.54	294.79
461.91	293.34
462.27	291.89
462.64	290.66
463.01	289.26
463.38	287.98
463.74	286.60
464.11	285.44
464.48	284.44
464.85	283.29
465.21	282.43
465.58	281.50
465.95	280.45
466.32	279.55
466.68	278.68
467.05	277.79
467.42	276.85
467.78	275.92
468.15	275.06
468.52	274.39
468.88	273.57
469.25	272.77
469.62	272.18
469.98	271.52
470.35	270.89
470.72	270.31
471.08	269.64
471.45	269.08
471.82	268.51
472.18	267.92
472.55	267.47
472.92	266.96
473.28	266.51
473.65	266.06
474.02	265.63
474.38	265.24
474.75	264.90
475.11	264.57
475.48	264.34
475.85	264.08
476.21	263.88
476.58	263.67
476.94	263.52
477.31	263.31
477.67	263.17
478.04	263.06
478.41	262.99
478.77	263.02
479.14	262.98
479.50	262.98
479.87	263.03
480.23	263.13
480.60	263.18
480.96	263.27
481.33	263.49
481.69	263.67
482.06	263.83
482.42	264.01
482.79	264.26
483.15	264.56
483.52	264.97
483.88	265.32
484.25	265.74
484.61	266.17
484.98	266.65
485.34	267.25
485.71	267.84
486.07	268.43
486.44	269.00
486.80	269.70
487.17	270.46
487.53	271.26
487.90	272.10
488.26	273.05
488.62	274.05
488.99	274.99
489.35	276.01
489.72	277.17
490.08	278.39
490.44	279.60
490.81	280.92
491.17	282.27
491.54	283.74
491.90	285.28
492.26	286.95
492.63	288.64
492.99	290.34
493.36	292.23
493.72	294.27
494.08	296.38
494.45	298.62
494.81	300.95
495.17	303.35
495.54	305.90
495.90	308.52
496.26	311.29
496.63	314.27
496.99	317.36
497.35	320.58
497.72	324.00
498.08	327.49
498.44	331.13
498.80	335.00
499.17	338.96
499.53	343.06
499.89	347.41
500.26	351.88
500.62	356.56
500.98	361.50
501.34	366.53
501.71	371.86
502.07	377.27
502.43	382.90
502.79	388.77
503.16	394.85
503.52	401.15
503.88	407.56
504.24	414.16
504.60	421.06
504.97	428.23
505.33	435.57
505.69	443.27
506.05	451.04
506.41	458.96
506.78	467.20
507.14	475.68
507.50	484.36
507.86	493.41
508.22	502.55
508.59	511.71
508.95	521.32
509.31	531.04
509.67	541.16
510.03	551.39
510.39	561.94
510.75	572.70
511.12	583.72
511.48	595.07
511.84	606.54
512.20	618.09
512.56	630.05
512.92	642.20
513.28	654.55
513.64	667.14
514.00	679.88
514.37	692.78
514.73	705.86
515.09	718.95
515.45	732.27
515.81	745.90
516.17	759.97
516.53	774.16
516.89	788.47
517.25	802.63
517.61	817.23
517.97	831.74
518.33	846.21
518.69	860.96
519.05	875.95
519.41	891.16
519.77	906.76
520.13	922.24
520.49	937.75
520.85	953.27
521.21	969.00
521.57	985.28
521.93	1001.12
522.29	1017.61
522.65	1033.99
523.01	1050.36
523.37	1066.52
523.73	1082.86
524.09	1098.98
524.45	1115.34
524.81	1132.04
525.17	1148.81
525.53	1165.80
525.89	1182.83
526.25	1199.71
526.61	1216.21
526.97	1233.05
527.33	1249.49
527.68	1266.19
528.04	1282.69
528.40	1299.41
528.76	1316.44
529.12	1333.11
529.48	1350.05
529.84	1366.17
530.20	1382.80
530.56	1399.93
530.91	1417.36
531.27	1434.06
531.63	1450.62
531.99	1467.30
532.35	1483.47
532.71	1499.46
533.07	1515.90
533.42	1531.78
533.78	1547.85
534.14	1564.19
534.50	1579.63
534.86	1595.59
535.21	1610.71
535.57	1626.72
535.93	1642.34
536.29	1657.25
536.65	1672.38
537.00	1687.21
537.36	1702.46
537.72	1717.15
538.08	1731.44
538.44	1745.36
538.79	1759.44
539.15	1773.28
539.51	1787.08
539.87	1801.43
540.22	1815.09
540.58	1828.80
540.94	1842.30
541.29	1855.36
541.65	1868.03
542.01	1881.23
542.37	1893.67
542.72	1906.21
543.08	1917.96
543.44	1930.43
543.79	1941.70
544.15	1952.74
544.51	1964.44
544.87	1975.59
545.22	1986.33
545.58	1996.58
545.94	2006.51
546.29	2016.30
546.65	2025.98
547.01	2035.19
547.36	2044.06
547.72	2052.69
548.07	2060.47
548.43	2068.73
548.79	2076.73
549.14	2084.24
549.50	2091.71
549.86	2099.53
550.21	2106.86
550.57	2114.09
550.92	2120.56
551.28	2127.65
551.64	2134.81
551.99	2141.41
552.35	2147.41
552.70	2153.51
553.06	2159.54
553.41	2165.70
553.77	2171.74
554.13	2178.08
554.48	2184.22
554.84	2189.56
555.19	2194.79
555.55	2199.93
555.90	2204.26
556.26	2209.08
556.61	2213.84
556.97	2217.87
557.32	2221.91
557.68	2226.02
558.03	2230.34
558.39	2234.15
558.74	2238.83
559.10	2242.62
559.45	2246.21
559.81	2250.74
560.16	2254.65
560.52	2257.97
560.87	2261.45
561.23	2264.17
561.58	2266.91
561.94	2269.30
562.29	2271.61
562.64	2274.44
563.00	2277.11
563.35	2280.74
563.71	2283.85
564.06	2287.07
564.42	2290.08
564.77	2292.50
565.12	2294.81
565.48	2296.64
565.83	2298.30
566.19	2299.51
566.54	2300.55
566.89	2301.61
567.25	2301.91
567.60	2303.28
567.96	2304.86
568.31	2305.60
568.66	2306.56
569.02	2307.06
569.37	2307.46
569.72	2308.32
570.08	2308.14
570.43	2308.04
570.78	2307.10
571.14	2305.52
571.49	2304.23
571.84	2303.93
572.20	2302.82
572.55	2301.68
572.90	2300.15
573.26	2298.86
573.61	2297.20
573.96	2295.15
574.31	2292.17
574.67	2289.20
575.02	2285.41
575.37	2281.85
575.72	2277.96
576.08	2274.49
576.43	2271.10
576.78	2267.43
577.13	2264.26
577.49	2261.25
577.84	2257.72
578.19	2254.05
578.54	2250.43
578.90	2246.11
579.25	2240.36
579.60	2235.03
579.95	2229.97
580.30	2224.77
580.66	2219.45
581.01	2214.30
581.36	2209.26
581.71	2205.00
582.06	2200.35
582.42	2195.60
582.77	2190.35
583.12	2185.83
583.47	2181.07
583.82	2176.00
584.17	2170.62
584.53	2164.92
584.88	2159.18
585.23	2153.23
585.58	2147.80
585.93	2142.09
586.28	2137.12
586.63	2132.00
586.98	2126.99
587.34	2122.13
587.69	2117.18
588.04	2111.80
588.39	2106.11
588.74	2099.66
589.09	2093.36
589.44	2086.47
589.79	2080.54
590.14	2074.79
590.49	2068.08
590.84	2061.67
591.19	2055.46
591.54	2048.81
591.89	2041.33
592.25	2034.41
592.60	2027.15
592.95	2019.38
593.30	2011.99
593.65	2004.30
594.00	1997.12
594.35	1989.86
594.70	1981.66
595.05	1974.26
595.40	1966.93
595.75	1959.25
596.10	1952.81
596.45	1945.83
596.80	1939.59
597.15	1932.77
597.50	1925.55
597.85	1919.07
598.19	1912.23
598.54	1905.11
598.89	1898.43
599.24	1892.55
599.59	1885.78
599.94	1879.59
600.29	1873.18
600.64	1866.66
600.99	1859.15
601.34	1852.27
601.69	1845.18
602.04	1838.29
602.39	1830.97
602.74	1824.02
603.08	1817.32
603.43	1810.61
603.78	1803.30
604.13	1796.11
604.48	1788.80
604.83	1782.13
605.18	1774.91
605.53	1766.93
605.87	1758.86
606.22	1751.65
606.57	1743.62
606.92	1736.34
607.27	1729.18
607.62	1722.20
607.96	1714.79
608.31	1708.13
608.66	1700.41
609.01	1692.94
609.36	1685.39
609.70	1677.35
610.05	1669.24
610.40	1661.51
610.75	1653.25
611.10	1645.67
611.44	1637.26
611.79	1629.39
612.14	1620.64
612.49	1611.63
612.83	1603.35
613.18	1595.40
613.53	1587.32
613.88	1578.73
614.22	1570.45
614.57	1561.82
614.92	1553.93
615.27	1546.37
615.61	1538.12
615.96	1530.24
616.31	1522.48
616.65	1515.16
617.00	1507.61
617.35	1499.99
617.70	1491.63
618.04	1483.08
618.39	1474.85
618.74	1467.23
619.08	1458.84
619.43	1451.23
619.78	1444.31
620.12	1437.08
620.47	1429.45
620.82	1421.26
621.16	1413.95
621.51	1406.30
621.85	1398.68
622.20	1390.08
622.55	1381.77
622.89	1373.98
623.24	1366.43
623.59	1359.12
623.93	1351.58
624.28	1344.29
624.62	1336.74
624.97	1329.58
625.32	1322.91
625.66	1315.89
626.01	1308.69
626.35	1301.30
626.70	1293.60
627.04	1285.81
627.39	1278.03
627.73	1270.58
628.08	1263.57
628.43	1256.20
628.77	1248.84
629.12	1241.16
629.46	1234.02
629.81	1226.53
630.15	1219.23
630.50	1211.85
630.84	1203.59
631.19	1195.69
631.53	1188.25
631.88	1180.80
632.22	1173.17
632.57	1165.85
632.91	1158.33
633.26	1150.97
633.60	1143.65
633.95	1136.51
634.29	1129.58
634.64	1122.90
634.98	1115.62
635.32	1108.50
635.67	1101.96
636.01	1095.47
636.36	1088.82
636.70	1082.29
637.05	1075.77
637.39	1069.32
637.73	1062.69
638.08	1056.97
638.42	1051.03
638.77	1044.55
639.11	1037.89
639.45	1031.54
639.80	1024.87
640.14	1018.48
640.49	1011.96
640.83	1005.65
641.17	999.38
641.52	993.07
641.86	986.62
642.20	980.76
642.55	974.52
642.89	968.00
643.23	961.35
643.58	955.51
643.92	949.26
644.26	943.20
644.61	937.24
644.95	931.15
645.29	924.47
645.64	917.72
645.98	911.47
646.32	905.72
646.66	899.65
647.01	893.72
647.35	887.89
647.69	882.10
648.04	876.61
648.38	870.82
648.72	864.68
649.06	858.66
649.41	852.80
649.75	846.80
650.09	840.91
650.43	835.16
650.78	829.01
651.12	823.12
651.46	817.33
651.80	811.49
652.14	806.18
652.49	800.79
652.83	795.56
653.17	789.92
653.51	784.08
653.85	778.68
654.20	773.10
654.54	767.18
654.88	761.38
655.22	755.45
655.56	749.75
655.90	744.39
656.25	739.08
656.59	733.73
656.93	728.68
657.27	723.45
657.61	717.97
657.95	712.87
658.29	707.72
658.64	702.58
658.98	697.37
659.32	691.87
659.66	686.68
660.00	681.43
660.34	676.44
660.68	671.60
661.02	666.55
661.36	661.84
661.70	657.39
662.05	653.01
662.39	648.66
662.73	644.26
663.07	639.90
663.41	635.51
663.75	631.03
664.09	626.43
664.43	622.14
664.77	618.04
665.11	613.82
665.45	609.76
665.79	605.70
666.13	601.59
666.47	597.56
666.81	593.42
667.15	589.25
667.49	585.33
667.83	581.56
668.17	577.66
668.51	573.63
668.85	569.62
669.19	565.91
669.53	562.11
669.87	558.28
670.21	554.61
670.55	550.96
670.89	547.51
671.23	544.13
671.57	540.62
671.91	537.07
672.25	533.57
672.58	530.07
672.92	526.69
673.26	523.55
673.60	520.38
673.94	517.30
674.28	514.48
674.62	511.58
674.96	508.47
675.30	505.58
675.64	502.72
675.97	500.03
676.31	497.15
676.65	494.22
676.99	491.50
677.33	488.60
677.67	485.76
678.01	482.71
678.34	479.73
678.68	476.87
679.02	474.14
679.36	471.45
679.70	468.78
680.04	465.99
680.37	463.11
680.71	460.41
681.05	457.79
681.39	455.06
681.73	452.46
682.06	449.93
682.40	447.42
682.74	444.86
683.08	442.30
683.42	439.68
683.75	437.24
684.09	434.67
684.43	432.22
684.77	429.81
685.10	427.52
685.44	425.24
685.78	422.98
686.12	420.71
686.45	418.39
686.79	416.07
687.13	413.89
687.46	411.71
687.80	409.45
688.14	407.27
688.48	405.21
688.81	402.93
689.15	400.76
689.49	398.63
689.82	396.58
690.16	394.50
690.50	392.55
690.83	390.57
691.17	388.58
691.51	386.69
691.84	384.84
692.18	382.88
692.52	380.89
692.85	378.96
693.19	377.05
693.52	375.22
693.86	373.39
694.20	371.63
694.53	369.86
694.87	368.09
695.21	366.28
695.54	364.46
695.88	362.74
696.21	361.07
696.55	359.38
696.88	357.68
697.22	356.02
697.56	354.36
697.89	352.70
698.23	351.12
698.56	349.49
698.90	347.92
699.23	346.32
699.57	344.80
699.90	343.27
700.24	341.73
700.58	340.16
700.91	338.67
701.25	337.21
701.58	335.77
701.92	334.35
702.25	332.98
702.59	331.61
702.92	330.26
703.26	328.91
703.59	327.59
703.93	326.41
704.26	325.15
704.60	323.88
704.93	322.63
705.26	321.32
705.60	320.18
705.93	319.02
706.27	318.00
706.60	316.95
706.94	315.83
707.27	314.71
707.61	313.69
707.94	312.67
708.27	311.62
708.61	310.57
708.94	309.59
709.28	308.62
709.61	307.66
709.94	306.73
710.28	305.70
710.61	304.75
710.95	303.70
711.28	302.80
711.61	301.84
711.95	300.91
712.28	300.01
712.61	299.06
712.95	298.11
713.28	297.21
713.61	296.32
713.95	295.48
714.28	294.64
714.61	293.83
714.95	292.99
715.28	292.12
715.61	291.27
715.95	290.45
716.28	289.62
716.61	288.79
716.95	288.02
717.28	287.33
717.61	286.57
717.94	285.83
718.28	285.01
718.61	284.32
718.94	283.64
719.27	283.01
719.61	282.32
719.94	281.66
720.27	280.97
720.60	280.25
720.94	279.65
721.27	279.08
721.60	278.51
721.93	277.94
722.27	277.39
722.60	276.88
722.93	276.30
723.26	275.76
723.59	275.20
723.93	274.64
724.26	274.07
724.59	273.50
724.92	272.97
725.25	272.51
725.59	271.96
725.92	271.42
726.25	270.93
726.58	270.45
726.91	269.95
727.24	269.48
727.57	269.04
727.91	268.51
728.24	268.03
728.57	267.49
728.90	267.04
729.23	266.54
729.56	266.07
729.89	265.58
730.22	265.13
730.55	264.67
730.89	264.22
731.22	263.76
731.55	263.31
731.88	262.87
732.21	262.40
732.54	261.96
732.87	261.54
733.20	261.15
733.53	260.78
733.86	260.42
734.19	259.98
734.52	259.61
734.85	259.29
735.18	258.87
735.51	258.52
735.84	258.10
736.17	257.76
736.50	257.33
736.83	257.14
737.16	256.75
737.49	256.39
737.82	256.04
738.15	255.72
738.48	255.41
738.81	255.08
739.14	254.78
739.47	254.45
739.80	254.14
740.13	253.82
740.46	253.50
740.79	253.13
741.12	252.84
741.45	252.49
741.78	252.10
742.11	251.81
742.44	251.47
742.77	251.16
743.10	250.83
743.43	250.54
743.75	250.11
744.08	249.94
744.41	249.68
744.74	249.37
745.07	249.05
745.40	248.83
745.73	248.60
746.06	248.32
746.39	248.07
746.71	247.78
747.04	247.49
747.37	247.18
747.70	246.96
748.03	246.72
748.36	246.55
748.68	246.32
749.01	246.05
749.34	245.81
749.67	245.60
750.00	245.39
750.33	245.24
750.65	245.04
750.98	244.71
751.31	244.48
751.64	244.29
751.97	244.17
752.29	243.90
752.62	243.65
752.95	243.41
753.28	243.21
753.60	243.01
753.93	242.82
754.26	242.65
754.59	242.42
754.91	242.22
755.24	242.00
755.57	241.85
755.90	241.68
756.22	241.52
756.55	241.33
756.88	241.12
757.20	240.93
757.53	240.74
757.86	240.59
758.19	240.45
758.51	240.30
758.84	240.07
759.17	239.94
759.49	239.78
759.82	239.68
760.15	239.55
760.47	239.43
760.80	239.28
761.13	239.16
761.45	239.07
761.78	238.93
762.11	238.81
762.43	238.64
762.76	238.48
763.08	238.39
763.41	238.26
763.74	238.16
764.06	238.00
764.39	237.89
764.71	237.77
765.04	237.64
765.37	237.52
765.69	237.39
766.02	237.22
766.34	237.09
766.67	236.92
767.00	236.81
767.32	236.72
767.65	236.65
767.97	236.54
768.30	236.38
768.62	236.25
768.95	236.08
769.27	235.98
769.60	235.90
769.92	235.75
770.25	235.64
770.57	235.51
770.90	235.41
771.22	235.25
771.55	235.12
771.87	235.05
772.20	234.94
772.52	234.94
772.85	234.99
773.17	234.89
773.50	234.80
773.82	234.69
774.15	234.56
774.47	234.42
774.80	234.30
775.12	234.21
775.45	234.11
775.77	234.07
776.09	233.96
776.42	233.87
776.74	233.79
777.07	233.68
777.39	233.64
777.72	233.54
778.04	233.49
778.36	233.42
778.69	233.32
779.01	233.28
779.33	233.12
779.66	232.94
779.98	232.88
780.31	232.82
780.63	232.76
780.95	232.70
781.28	232.63
781.60	232.56
781.92	232.49
782.25	232.45
782.57	232.37
782.89	232.29
783.22	232.26
783.54	232.20
783.86	232.14
784.19	232.04
784.51	232.03
784.83	231.96
785.16	231.90
785.48	231.85
785.80	231.78
786.12	231.74
786.45	231.70
786.77	231.67
787.09	231.66
787.42	231.60
787.74	231.57
788.06	231.55
788.38	231.52
788.71	231.56
789.03	231.52
789.35	231.51
789.67	231.47
789.99	231.40
790.32	231.38
790.64	231.39
790.96	231.47
791.28	231.41
791.61	231.42
791.93	231.38
792.25	231.37
792.57	231.41
792.89	231.39
793.21	231.39
793.54	231.32
793.86	231.27
794.18	231.27
794.50	231.24
794.82	231.20
795.14	231.19
795.47	231.14
795.79	231.11
796.11	231.08
796.43	231.08
796.75	231.07
797.07	231.06
797.39	231.03
797.71	230.92
798.04	230.91
798.36	230.86
798.68	230.83
799.00	230.79
799.32	230.70
799.64	230.68
799.96	230.62
800.28	230.64
800.60	230.60
800.92	230.56
801.24	230.51
801.56	230.48
801.89	230.43
802.21	230.42
802.53	230.37
802.85	230.35
803.17	230.35
803.49	230.31
803.81	230.26
804.13	230.19
804.45	230.12
804.77	230.10
805.09	230.07
805.41	230.05
805.73	230.00
806.05	229.93
806.37	229.88
806.69	229.84
807.01	229.80
807.33	229.79
807.65	229.73
807.97	229.75
808.28	229.74
808.60	229.69
808.92	229.61
809.24	229.65
809.56	229.58
809.88	229.53
810.20	229.51
810.52	229.49
810.84	229.46
811.16	229.46
811.48	229.39
811.80	229.40
812.12	229.36
812.43	229.37
812.75	229.35
813.07	229.27
813.39	229.20
813.71	229.11
814.03	229.05
814.35	229.02
814.67	228.92
814.98	228.89
815.30	228.83
815.62	228.80
815.94	228.70
816.26	228.71
816.58	228.65
816.89	228.61
817.21	228.55
817.53	228.52
817.85	228.49
818.17	228.45
818.48	228.42
818.80	228.42
819.12	228.37
819.44	228.33
819.76	228.31
820.07	228.34
820.39	228.37
820.71	228.36
821.03	228.31
821.34	228.31
821.66	228.28
821.98	228.32
822.30	228.30
822.61	228.33
822.93	228.30
823.25	228.30
823.57	228.31
823.88	228.34
824.20	228.35
824.52	228.35
824.83	228.37
825.15	228.33
825.47	228.31
825.79	228.32
826.10	228.32
826.42	228.34
826.74	228.32
827.05	228.32
827.37	228.33
827.69	228.35
828.00	228.32
828.32	228.33
828.64	228.30
828.95	228.35
829.27	228.35
829.58	228.35
829.90	228.36
830.22	228.36
830.53	228.33
830.85	228.31
831.17	228.28
831.48	228.27
831.80	228.27
832.11	228.27
832.43	228.24
832.75	228.26
833.06	228.32
833.38	228.30
833.69	228.28
834.01	228.28
834.32	228.28
834.64	228.30
834.96	228.28
835.27	228.27
835.59	228.20
835.90	228.17
836.22	228.13
836.53	228.09
836.85	228.02
837.16	228.13
837.48	228.13
837.79	228.18
838.11	228.18
838.42	228.19
838.74	228.19
839.05	228.18
839.37	228.16
839.68	228.12
840.00	228.12
840.31	228.15
840.63	228.12
840.94	228.11
841.26	228.11
841.57	228.09
841.88	228.10
842.20	228.08
842.51	228.06
842.83	228.07
843.14	228.14
843.46	228.20
843.77	228.12
844.08	228.10
844.40	228.04
844.71	228.01
845.03	227.99
845.34	227.96
845.65	227.96
845.97	227.94
846.28	227.91
846.60	227.95
846.91	227.90
847.22	227.93
847.54	227.95
847.85	227.92
848.16	227.94
848.48	227.91
848.79	227.98
849.10	227.97
849.42	227.96
849.73	227.89
850.04	227.85
850.36	227.83
850.67	227.84
850.98	227.84
851.30	227.83
851.61	227.80
851.92	227.81
852.23	227.85
852.55	227.87
852.86	227.84
853.17	227.81
853.49	227.83
853.80	227.84
854.11	227.81
854.42	227.83
854.74	227.78
855.05	227.76
855.36	227.67
855.67	227.66
855.99	227.64
856.30	227.72
856.61	227.70
856.92	227.69
857.23	227.67
857.55	227.65
857.86	227.66
858.17	227.65
858.48	227.61
858.79	227.57
859.11	227.52
859.42	227.52
859.73	227.51
860.04	227.49
860.35	227.42
860.66	227.39
860.98	227.38
861.29	227.41
861.60	227.43
861.91	227.43
862.22	227.45
862.53	227.43
862.84	227.33
863.16	227.36
863.47	227.31
863.78	227.30
864.09	227.29
864.40	227.28
864.71	227.29
865.02	227.33
865.33	227.28
865.64	227.31
865.95	227.32
866.27	227.37
866.58	227.36
866.89	227.38
867.20	227.37
867.51	227.36
867.82	227.33
868.13	227.33
868.44	227.36
868.75	227.38
869.06	227.42
869.37	227.47
869.68	227.45
869.99	227.50
870.30	227.49
870.61	227.53
870.92	227.54
871.23	227.51
871.54	227.49
871.85	227.53
872.16	227.54
872.47	227.52
872.78	227.49
873.09	227.49
873.40	227.48
873.71	227.52
874.02	227.56
874.33	227.59
874.64	227.55
874.95	227.55
875.26	227.54
875.56	227.55
875.87	227.51
876.18	227.53
876.49	227.64
876.80	227.68
877.11	227.66
877.42	227.67
877.73	227.73
878.04	227.73
878.35	227.77
878.66	227.76
878.96	227.78
879.27	227.77
879.58	227.79
879.89	227.80
880.20	227.84
880.51	227.82
880.82	227.83
881.12	227.87
881.43	227.86
881.74	227.85
882.05	227.83
882.36	227.85
882.67	227.85
882.97	227.74
883.28	227.71
883.59	227.68
883.90	227.70
884.21	227.68
884.51	227.67
884.82	227.63
885.13	227.65
885.44	227.65
885.74	227.61
886.05	227.60
886.36	227.57
886.67	227.50
886.98	227.53
887.28	227.52
887.59	227.51
887.90	227.52
888.20	227.51
888.51	227.52
888.82	227.48
889.13	227.48
889.43	227.53
889.74	227.52
890.05	227.51
890.35	227.44
890.66	227.42
890.97	227.42
891.28	227.40
891.58	227.39
891.89	227.37
892.20	227.40
892.50	227.35
892.81	227.35
893.12	227.32
893.42	227.24
893.73	227.22
894.04	227.20
894.34	227.22
894.65	227.17
894.95	227.15
895.26	227.14
895.57	227.16
895.87	227.04
896.18	227.02
896.48	227.04
896.79	227.05
897.10	227.04
897.40	227.03
897.71	227.00
898.01	226.97
898.32	226.96
898.63	226.93
898.93	226.96
899.24	226.97
899.54	226.98
899.85	227.02
900.15	227.01
900.46	226.99
900.76	226.93
901.07	226.93
901.38	226.91
901.68	226.93
901.99	226.87
902.29	226.88
902.60	226.90
902.90	226.91
903.21	226.90
903.51	226.88
903.82	226.90
904.12	226.93
904.43	226.91
904.73	226.89
905.03	226.89
905.34	226.99
905.64	226.98
905.95	227.02
906.25	226.98
906.56	226.98
906.86	227.03
907.17	227.07
907.47	227.06
907.77	227.06
908.08	227.03
908.38	227.05
908.69	227.07
908.99	227.10
909.30	227.11
909.60	227.15
909.90	227.18
910.21	227.19
910.51	227.18
910.81	227.20
911.12	227.24
911.42	227.28
911.73	227.17
912.03	227.17
912.33	227.18
912.64	227.21
912.94	227.20
913.24	227.18
913.55	227.17
913.85	227.21
914.15	227.24
914.46	227.28
914.76	227.30
915.06	227.31
915.37	227.26
915.67	227.27
915.97	227.26
916.27	227.22
916.58	227.22
916.88	227.23
917.18	227.23
917.49	227.30
917.79	227.29
918.09	227.32
918.39	227.34
918.70	227.32
919.00	227.34
919.30	227.39
919.60	227.37
919.91	227.38
920.21	227.39
920.51	227.35
920.81	227.33
921.12	227.32
921.42	227.29
921.72	227.32
922.02	227.30
922.32	227.32
922.63	227.33
922.93	227.40
923.23	227.38
923.53	227.38
923.83	227.31
924.13	227.32
924.44	227.32
924.74	227.34
925.04	227.36
925.34	227.34
925.64	227.30
925.94	227.31
926.24	227.34
926.55	227.32
926.85	227.35
927.15	227.37
927.45	227.38
927.75	227.35
928.05	227.34
928.35	227.34
928.65	227.32
928.95	227.34
929.26	227.25
929.56	227.24
929.86	227.21
930.16	227.19
930.46	227.15
930.76	227.14
931.06	227.09
931.36	227.05
931.66	227.03
931.96	227.02
932.26	227.00
932.56	226.95
932.86	226.93
933.16	226.94
933.46	226.94
933.76	226.92
934.06	226.97
934.36	226.98
934.66	226.97
934.96	226.95
935.26	226.95
935.56	226.97
935.86	226.98
936.16	226.94
936.46	226.93
936.76	226.93
937.06	226.93
937.36	226.92
937.66	226.93
937.96	226.91
938.26	226.91
938.56	226.91
938.86	226.95
939.16	226.99
939.46	226.97
939.76	226.90
940.06	226.88
940.35	226.85
940.65	226.81
940.95	226.78
941.25	226.74
941.55	226.71
941.85	226.68
942.15	226.67
942.45	226.74
942.75	226.75
943.04	226.74
943.34	226.74
943.64	226.74
943.94	226.74
944.24	226.77
944.54	226.76
944.84	226.75
945.13	226.67
945.43	226.64
945.73	226.62
946.03	226.68
946.33	226.68
946.62	226.68
946.92	226.67
947.22	226.69
947.52	226.71
947.82	226.73
948.11	226.75
948.41	226.73
948.71	226.72
949.01	226.72
949.31	226.76
949.60	226.76
949.90	226.79
950.20	226.80
950.50	226.80
950.79	226.79
951.09	226.80
951.39	226.84
951.69	226.85
951.98	226.87
952.28	226.86
952.58	226.88
952.87	226.90
953.17	226.94
953.47	226.95
953.76	227.01
954.06	227.02
954.36	226.98
954.66	227.03
954.95	227.06
955.25	227.08
955.55	227.07
955.84	227.07
956.14	227.06
956.44	227.03
956.73	227.04
957.03	227.07
957.32	227.10
957.62	227.12
957.92	227.12
958.21	227.11
958.51	227.25
958.81	227.25
959.10	227.29
959.40	227.33
959.69	227.36
959.99	227.36
960.29	227.34
960.58	227.38
960.88	227.40
961.17	227.40
961.47	227.40
961.76	227.40
962.06	227.41
962.36	227.41
962.65	227.44
962.95	227.43
963.24	227.41
963.54	227.42
963.83	227.46
964.13	227.46
964.42	227.46
964.72	227.40
965.01	227.39
965.31	227.37
965.60	227.33
965.90	227.38
966.19	227.35
966.49	227.35
966.78	227.35
967.08	227.33
967.37	227.33
967.67	227.33
967.96	227.33
968.26	227.33
968.55	227.35
968.85	227.32
969.14	227.34
969.43	227.34
969.73	227.29
970.02	227.25
970.32	227.25
970.61	227.23
970.91	227.16
971.20	227.16
971.49	227.15
971.79	227.16
972.08	227.10
972.38	227.09
972.67	227.07
972.96	227.06
973.26	227.06
973.55	227.06
973.85	227.06
974.14	227.08
974.43	227.06
974.73	227.02
975.02	227.00
975.31	226.96
975.61	226.95
975.90	226.96
976.19	226.95
976.49	226.96
976.78	226.93
977.07	226.92
977.37	226.91
977.66	226.87
977.95	226.85
978.24	226.85
978.54	226.88
978.83	226.88
979.12	226.87
979.42	226.85
979.71	226.85
980.00	226.85
980.29	226.83
980.59	226.82
980.88	226.86
981.17	226.90
981.46	226.90
981.76	226.90
982.05	226.92
982.34	226.91
982.63	226.90
982.93	226.95
983.22	226.99
983.51	227.00
983.80	227.06
984.09	227.06
984.39	227.03
984.68	227.03
984.97	227.02
985.26	227.05
985.55	227.07
985.85	227.05
986.14	227.05
986.43	227.05
986.72	227.06
987.01	227.02
987.30	227.02
987.59	227.02
987.89	227.06
988.18	227.02
988.47	227.01
988.76	227.00
989.05	226.99
989.34	226.98
989.63	227.01
989.92	226.98
990.22	226.97
990.51	226.98
990.80	226.96
991.09	226.97
991.38	226.97
991.67	226.96
991.96	226.94
992.25	226.96
992.54	226.96
992.83	226.95
993.12	226.92
993.41	226.92
993.70	226.97
993.99	226.99
994.28	227.03
994.58	227.05
994.87	227.06
995.16	227.05
995.45	227.06
995.74	227.02
996.03	227.03
996.32	227.07
996.61	227.10
996.90	227.11
997.19	227.11
997.48	227.11
997.77	227.10
998.06	227.13
998.34	227.10
998.63	227.11
998.92	227.12
999.21	227.17
999.50	227.19
999.79	227.16
1000.08	227.15
1000.37	227.13
1000.66	227.14
1000.95	227.15
1001.24	227.14
1001.53	227.14
1001.82	227.13
1002.11	227.08
1002.40	227.09
1002.68	227.09
1002.97	227.14
1003.26	227.14
1003.55	227.13
1003.84	227.14
1004.13	227.15
1004.42	227.15
1004.71	227.16
1004.99	227.15
1005.28	227.17
1005.57	227.14
1005.86	227.11
1006.15	227.06
1006.44	227.05
1006.72	227.03
1007.01	226.99
1007.30	227.00
1007.59	226.96
1007.88	226.95
1008.17	226.96
1008.45	226.90
1008.74	226.82
1009.03	226.77
1009.32	226.76
1009.60	226.74
1009.89	226.70
1010.18	226.66
1010.47	226.64
1010.76	226.60
1011.04	226.59
1011.33	226.65
1011.62	226.65
1011.91	226.63
1012.19	226.63
1012.48	226.62
1012.77	226.61
1013.05	226.67
1013.34	226.68
1013.63	226.66
1013.92	226.69
1014.20	226.73
1014.49	226.74
1014.78	226.76
1015.06	226.73
1015.35	226.73
1015.64	226.71
1015.92	226.73
1016.21	226.69
1016.50	226.71
1016.78	226.71
1017.07	226.72
1017.36	226.63
1017.64	226.58
1017.93	226.63
1018.22	226.63
1018.50	226.64
1018.79	226.65
1019.08	226.60
1019.36	226.61
1019.65	226.62
1019.93	226.64
1020.22	226.61
1020.51	226.63
1020.79	226.64
1021.08	226.34
1021.36	226.77
1021.65	226.53
1021.94	226.83
1022.22	226.93
1022.51	226.67
1022.79	227.51
1023.08	226.42
1023.36	227.08
1023.65	226.46
>>>>>End Processed Spectral Data<<<<<
