SpectraSuite Data File
++++++++++++++++++++++++++++++++++++
Date: Fri Feb 01 16:40:52 EST 2013
User: group
Dark Spectrum Present: No
Reference Spectrum Present: No
Number of Sampled Component Spectra: 1
Spectrometers: USB2E7196
Integration Time (usec): 35000 (USB2E7196)
Spectra Averaged: 100 (USB2E7196)
Boxcar Smoothing: 10 (USB2E7196)
Correct for Electrical Dark: No (USB2E7196)
Strobe/Lamp Enabled: No (USB2E7196)
Correct for Detector Non-linearity: No (USB2E7196)
Correct for Stray Light: No (USB2E7196)
Number of Pixels in Processed Spectrum: 2048
>>>>>Begin Processed Spectral Data<<<<<
339.09	0.00
339.48	214.08
339.86	216.02
340.24	216.73
340.63	217.86
341.01	220.93
341.39	220.91
341.78	222.50
342.16	223.51
342.54	224.00
342.93	212.44
343.31	223.16
343.69	223.69
344.07	224.12
344.46	224.55
344.84	224.92
345.22	225.17
345.60	225.41
345.99	225.57
346.37	225.69
346.75	225.80
347.13	225.88
347.52	225.96
347.90	226.01
348.28	226.01
348.66	226.06
349.05	226.03
349.43	226.00
349.81	226.05
350.19	226.06
350.57	226.09
350.96	226.18
351.34	226.28
351.72	226.34
352.10	226.43
352.48	226.48
352.87	226.57
353.25	226.61
353.63	226.67
354.01	226.74
354.39	226.81
354.77	226.87
355.15	226.93
355.54	226.97
355.92	227.01
356.30	227.09
356.68	227.24
357.06	227.32
357.44	227.35
357.82	227.41
358.20	227.50
358.58	227.56
358.97	227.59
359.35	227.63
359.73	227.74
360.11	227.81
360.49	227.87
360.87	227.93
361.25	227.98
361.63	228.04
362.01	228.10
362.39	228.13
362.77	228.19
363.15	228.20
363.53	228.22
363.91	228.25
364.29	228.25
364.67	228.14
365.05	228.16
365.43	228.21
365.81	228.22
366.19	228.21
366.57	228.22
366.95	228.22
367.33	228.24
367.71	228.20
368.09	228.20
368.47	228.17
368.85	228.12
369.23	228.08
369.61	228.03
369.99	228.00
370.37	227.98
370.75	227.98
371.13	227.95
371.51	227.92
371.89	227.90
372.27	227.87
372.65	227.83
373.03	227.77
373.41	227.70
373.78	227.66
374.16	227.57
374.54	227.48
374.92	227.44
375.30	227.32
375.68	227.24
376.06	227.17
376.44	227.12
376.82	227.06
377.19	227.01
377.57	226.93
377.95	226.85
378.33	226.76
378.71	226.63
379.09	226.56
379.47	226.50
379.84	226.44
380.22	226.35
380.60	226.27
380.98	226.22
381.36	226.20
381.73	226.11
382.11	226.10
382.49	226.07
382.87	225.99
383.25	225.99
383.62	226.06
384.00	226.01
384.38	225.95
384.76	225.92
385.13	225.93
385.51	225.90
385.89	225.83
386.27	225.78
386.64	225.76
387.02	225.71
387.40	225.67
387.78	225.63
388.15	225.62
388.53	225.59
388.91	225.57
389.29	225.51
389.66	225.53
390.04	225.49
390.42	225.51
390.79	225.50
391.17	225.48
391.55	225.33
391.92	225.33
392.30	225.30
392.68	225.29
393.05	225.25
393.43	225.27
393.81	225.28
394.18	225.30
394.56	225.33
394.94	225.41
395.31	225.43
395.69	225.44
396.06	225.48
396.44	225.48
396.82	225.49
397.19	225.59
397.57	225.57
397.95	225.62
398.32	225.64
398.70	225.70
399.07	225.76
399.45	225.82
399.82	225.89
400.20	225.97
400.58	226.03
400.95	226.09
401.33	226.19
401.70	226.34
402.08	226.42
402.45	226.47
402.83	226.52
403.20	226.60
403.58	226.69
403.95	226.79
404.33	226.93
404.71	227.05
405.08	227.22
405.46	227.33
405.83	227.47
406.21	227.58
406.58	227.73
406.96	227.88
407.33	228.04
407.70	228.20
408.08	228.47
408.45	228.67
408.83	228.91
409.20	229.11
409.58	229.29
409.95	229.56
410.33	229.85
410.70	230.08
411.08	230.38
411.45	230.71
411.82	231.00
412.20	231.35
412.57	231.76
412.95	232.07
413.32	232.51
413.69	232.93
414.07	233.37
414.44	233.84
414.82	234.32
415.19	234.87
415.56	235.41
415.94	235.95
416.31	236.60
416.68	237.23
417.06	237.96
417.43	238.63
417.81	239.40
418.18	240.15
418.55	241.03
418.93	241.89
419.30	242.78
419.67	243.71
420.04	244.69
420.42	245.68
420.79	246.84
421.16	247.98
421.54	249.17
421.91	250.34
422.28	251.56
422.66	252.86
423.03	254.17
423.40	255.50
423.77	256.88
424.15	258.28
424.52	259.75
424.89	261.31
425.26	262.86
425.64	264.31
426.01	265.89
426.38	267.56
426.75	269.25
427.13	270.95
427.50	272.75
427.87	274.58
428.24	276.42
428.61	278.12
428.99	280.05
429.36	282.12
429.73	284.18
430.10	286.19
430.47	288.26
430.85	290.40
431.22	292.61
431.59	295.01
431.96	297.24
432.33	299.72
432.70	302.08
433.08	304.86
433.45	307.46
433.82	310.03
434.19	312.85
434.56	315.60
434.93	318.27
435.30	320.86
435.68	323.72
436.05	326.52
436.42	329.28
436.79	331.78
437.16	334.43
437.53	337.24
437.90	340.02
438.27	342.71
438.64	345.47
439.01	348.02
439.38	350.20
439.75	352.34
440.13	354.78
440.50	357.08
440.87	358.91
441.24	360.84
441.61	362.98
441.98	364.44
442.35	366.23
442.72	368.02
443.09	369.83
443.46	370.82
443.83	371.41
444.20	371.92
444.57	372.72
444.94	372.99
445.31	373.38
445.68	373.74
446.05	373.85
446.42	373.49
446.79	373.10
447.16	372.71
447.53	372.41
447.90	371.28
448.27	370.17
448.64	368.62
449.01	367.54
449.37	365.63
449.74	363.78
450.11	361.55
450.48	359.14
450.85	356.67
451.22	354.57
451.59	352.58
451.96	350.68
452.33	348.12
452.70	345.83
453.07	343.04
453.43	340.18
453.80	337.40
454.17	334.76
454.54	332.26
454.91	329.52
455.28	326.88
455.65	324.42
456.02	321.98
456.38	319.85
456.75	317.18
457.12	314.93
457.49	312.76
457.86	310.64
458.23	308.81
458.59	306.78
458.96	304.71
459.33	302.86
459.70	300.98
460.07	299.49
460.43	297.78
460.80	296.17
461.17	294.74
461.54	293.28
461.91	291.87
462.27	290.43
462.64	289.21
463.01	287.86
463.38	286.56
463.74	285.21
464.11	284.06
464.48	283.04
464.85	281.93
465.21	281.06
465.58	280.14
465.95	279.03
466.32	278.09
466.68	277.22
467.05	276.36
467.42	275.51
467.78	274.63
468.15	273.78
468.52	273.12
468.88	272.26
469.25	271.49
469.62	270.87
469.98	270.20
470.35	269.61
470.72	269.03
471.08	268.41
471.45	267.87
471.82	267.34
472.18	266.80
472.55	266.37
472.92	265.88
473.28	265.42
473.65	265.01
474.02	264.61
474.38	264.26
474.75	263.93
475.11	263.60
475.48	263.33
475.85	263.11
476.21	262.91
476.58	262.79
476.94	262.65
477.31	262.47
477.67	262.34
478.04	262.22
478.41	262.18
478.77	262.21
479.14	262.17
479.50	262.18
479.87	262.24
480.23	262.35
480.60	262.39
480.96	262.48
481.33	262.71
481.69	262.91
482.06	263.06
482.42	263.26
482.79	263.52
483.15	263.83
483.52	264.21
483.88	264.53
484.25	264.91
484.61	265.38
484.98	265.84
485.34	266.41
485.71	267.02
486.07	267.61
486.44	268.18
486.80	268.86
487.17	269.58
487.53	270.40
487.90	271.25
488.26	272.18
488.62	273.19
488.99	274.14
489.35	275.16
489.72	276.32
490.08	277.58
490.44	278.79
490.81	280.14
491.17	281.46
491.54	282.91
491.90	284.42
492.26	286.04
492.63	287.80
492.99	289.54
493.36	291.40
493.72	293.43
494.08	295.52
494.45	297.78
494.81	300.12
495.17	302.50
495.54	305.06
495.90	307.78
496.26	310.56
496.63	313.50
496.99	316.61
497.35	319.85
497.72	323.23
498.08	326.82
498.44	330.49
498.80	334.48
499.17	338.53
499.53	342.68
499.89	347.09
500.26	351.62
500.62	356.35
500.98	361.30
501.34	366.43
501.71	371.77
502.07	377.21
502.43	382.89
502.79	388.76
503.16	394.79
503.52	401.06
503.88	407.49
504.24	414.11
504.60	420.97
504.97	428.12
505.33	435.47
505.69	443.06
506.05	450.83
506.41	458.64
506.78	466.79
507.14	475.22
507.50	483.86
507.86	492.85
508.22	501.95
508.59	511.17
508.95	520.68
509.31	530.51
509.67	540.61
510.03	550.85
510.39	561.40
510.75	572.22
511.12	583.08
511.48	594.31
511.84	605.67
512.20	617.20
512.56	629.13
512.92	641.20
513.28	653.60
513.64	666.04
514.00	678.71
514.37	691.67
514.73	704.62
515.09	717.57
515.45	730.81
515.81	744.44
516.17	758.38
516.53	772.54
516.89	786.75
517.25	800.85
517.61	815.13
517.97	829.53
518.33	843.89
518.69	858.53
519.05	873.41
519.41	888.62
519.77	904.05
520.13	919.46
520.49	934.86
520.85	950.12
521.21	965.68
521.57	981.95
521.93	997.58
522.29	1013.87
522.65	1030.07
523.01	1046.09
523.37	1062.03
523.73	1078.03
524.09	1093.89
524.45	1109.98
524.81	1126.47
525.17	1143.15
525.53	1159.86
525.89	1176.55
526.25	1193.30
526.61	1209.57
526.97	1226.13
527.33	1242.46
527.68	1258.80
528.04	1275.05
528.40	1291.48
528.76	1308.43
529.12	1324.82
529.48	1341.59
529.84	1357.48
530.20	1374.03
530.56	1390.86
530.91	1408.10
531.27	1424.78
531.63	1441.10
531.99	1457.43
532.35	1473.23
532.71	1489.03
533.07	1505.23
533.42	1521.07
533.78	1537.12
534.14	1553.32
534.50	1568.55
534.86	1584.27
535.21	1599.34
535.57	1615.06
535.93	1630.30
536.29	1644.92
536.65	1659.73
537.00	1674.22
537.36	1689.37
537.72	1703.62
538.08	1717.90
538.44	1731.40
538.79	1745.04
539.15	1758.46
539.51	1771.96
539.87	1786.20
540.22	1799.70
540.58	1813.11
540.94	1825.99
541.29	1838.55
541.65	1850.89
542.01	1863.89
542.37	1876.05
542.72	1888.32
543.08	1900.07
543.44	1912.34
543.79	1923.49
544.15	1934.25
544.51	1945.80
544.87	1956.69
545.22	1967.51
545.58	1977.72
545.94	1987.50
546.29	1997.27
546.65	2007.21
547.01	2016.60
547.36	2025.17
547.72	2033.71
548.07	2041.65
548.43	2049.98
548.79	2057.88
549.14	2065.64
549.50	2073.01
549.86	2080.53
550.21	2087.75
550.57	2094.86
550.92	2101.53
551.28	2108.46
551.64	2115.50
551.99	2121.87
552.35	2128.07
552.70	2134.15
553.06	2140.03
553.41	2146.36
553.77	2152.30
554.13	2158.29
554.48	2164.31
554.84	2169.90
555.19	2174.92
555.55	2180.17
555.90	2184.67
556.26	2189.69
556.61	2194.14
556.97	2198.36
557.32	2202.62
557.68	2206.75
558.03	2210.90
558.39	2214.59
558.74	2219.24
559.10	2223.24
559.45	2227.01
559.81	2231.13
560.16	2234.96
560.52	2238.23
560.87	2241.75
561.23	2244.55
561.58	2247.33
561.94	2249.87
562.29	2252.00
562.64	2254.97
563.00	2257.33
563.35	2260.81
563.71	2263.94
564.06	2267.28
564.42	2270.21
564.77	2272.81
565.12	2275.36
565.48	2277.44
565.83	2279.39
566.19	2280.81
566.54	2281.63
566.89	2282.59
567.25	2283.43
567.60	2284.73
567.96	2286.47
568.31	2287.19
568.66	2288.18
569.02	2288.93
569.37	2289.31
569.72	2290.52
570.08	2290.73
570.43	2290.88
570.78	2290.35
571.14	2288.88
571.49	2287.46
571.84	2287.11
572.20	2286.05
572.55	2284.89
572.90	2283.34
573.26	2282.02
573.61	2280.31
573.96	2278.94
574.31	2276.34
574.67	2273.37
575.02	2269.77
575.37	2266.50
575.72	2262.92
576.08	2259.75
576.43	2256.32
576.78	2252.80
577.13	2249.41
577.49	2246.11
577.84	2242.87
578.19	2239.27
578.54	2235.79
578.90	2231.79
579.25	2226.37
579.60	2221.52
579.95	2216.69
580.30	2211.70
580.66	2206.51
581.01	2201.65
581.36	2196.66
581.71	2192.56
582.06	2188.33
582.42	2184.11
582.77	2179.04
583.12	2174.63
583.47	2170.10
583.82	2165.42
584.17	2160.22
584.53	2154.78
584.88	2149.35
585.23	2143.66
585.58	2138.12
585.93	2132.61
586.28	2127.82
586.63	2122.87
586.98	2117.79
587.34	2112.97
587.69	2108.15
588.04	2102.94
588.39	2097.44
588.74	2090.96
589.09	2084.78
589.44	2078.06
589.79	2071.82
590.14	2066.18
590.49	2059.48
590.84	2052.94
591.19	2046.88
591.54	2040.51
591.89	2033.56
592.25	2027.00
592.60	2019.86
592.95	2012.47
593.30	2005.29
593.65	1997.70
594.00	1990.74
594.35	1983.60
594.70	1975.63
595.05	1968.70
595.40	1961.58
595.75	1954.08
596.10	1948.00
596.45	1941.47
596.80	1935.35
597.15	1929.06
597.50	1922.17
597.85	1915.75
598.19	1909.45
598.54	1902.81
598.89	1896.30
599.24	1890.35
599.59	1883.75
599.94	1877.41
600.29	1871.10
600.64	1864.52
600.99	1857.26
601.34	1850.48
601.69	1843.47
602.04	1836.79
602.39	1829.39
602.74	1822.72
603.08	1816.13
603.43	1809.41
603.78	1802.06
604.13	1794.69
604.48	1787.52
604.83	1780.52
605.18	1773.89
605.53	1765.91
605.87	1757.70
606.22	1750.38
606.57	1742.38
606.92	1734.97
607.27	1728.05
607.62	1721.30
607.96	1714.14
608.31	1707.86
608.66	1700.34
609.01	1692.95
609.36	1685.52
609.70	1677.49
610.05	1669.46
610.40	1661.78
610.75	1653.60
611.10	1645.98
611.44	1637.71
611.79	1629.59
612.14	1620.95
612.49	1611.61
612.83	1603.18
613.18	1595.04
613.53	1586.91
613.88	1578.49
614.22	1570.35
614.57	1561.68
614.92	1553.59
615.27	1546.16
615.61	1537.74
615.96	1529.70
616.31	1522.04
616.65	1514.59
617.00	1507.04
617.35	1499.34
617.70	1491.01
618.04	1482.61
618.39	1474.45
618.74	1466.93
619.08	1458.68
619.43	1451.12
619.78	1444.21
620.12	1437.13
620.47	1429.63
620.82	1421.50
621.16	1414.05
621.51	1406.26
621.85	1398.65
622.20	1390.18
622.55	1381.78
622.89	1373.88
623.24	1366.26
623.59	1358.91
623.93	1351.44
624.28	1344.29
624.62	1336.89
624.97	1329.77
625.32	1322.82
625.66	1315.72
626.01	1308.52
626.35	1301.25
626.70	1293.49
627.04	1285.80
627.39	1278.01
627.73	1270.61
628.08	1263.83
628.43	1256.75
628.77	1249.61
629.12	1242.07
629.46	1234.94
629.81	1227.35
630.15	1220.17
630.50	1212.78
630.84	1204.61
631.19	1196.68
631.53	1189.18
631.88	1181.53
632.22	1173.94
632.57	1166.66
632.91	1159.19
633.26	1151.75
633.60	1144.24
633.95	1137.19
634.29	1130.09
634.64	1123.30
634.98	1115.97
635.32	1108.82
635.67	1101.99
636.01	1095.36
636.36	1088.62
636.70	1082.09
637.05	1075.65
637.39	1069.05
637.73	1062.59
638.08	1056.71
638.42	1050.62
638.77	1044.19
639.11	1037.70
639.45	1031.29
639.80	1024.60
640.14	1018.28
640.49	1011.77
640.83	1005.47
641.17	999.26
641.52	993.04
641.86	986.67
642.20	980.75
642.55	974.37
642.89	967.98
643.23	961.30
643.58	955.49
643.92	949.35
644.26	943.35
644.61	937.39
644.95	931.43
645.29	924.87
645.64	918.20
645.98	911.84
646.32	905.96
646.66	899.94
647.01	894.20
647.35	888.47
647.69	882.61
648.04	877.15
648.38	871.41
648.72	865.51
649.06	859.45
649.41	853.59
649.75	847.71
650.09	841.77
650.43	836.03
650.78	829.95
651.12	824.02
651.46	818.26
651.80	812.53
652.14	807.11
652.49	801.71
652.83	796.52
653.17	790.96
653.51	785.28
653.85	779.81
654.20	774.23
654.54	768.17
654.88	762.43
655.22	756.53
655.56	750.79
655.90	745.24
656.25	740.00
656.59	734.67
656.93	729.59
657.27	724.52
657.61	719.00
657.95	713.81
658.29	708.63
658.64	703.34
658.98	698.01
659.32	692.52
659.66	687.30
660.00	682.03
660.34	676.96
660.68	672.06
661.02	667.04
661.36	662.28
661.70	657.77
662.05	653.53
662.39	649.22
662.73	644.75
663.07	640.33
663.41	635.95
663.75	631.47
664.09	626.91
664.43	622.45
664.77	618.39
665.11	614.20
665.45	610.05
665.79	606.01
666.13	601.93
666.47	597.75
666.81	593.62
667.15	589.55
667.49	585.57
667.83	581.68
668.17	577.73
668.51	573.69
668.85	569.67
669.19	565.69
669.53	561.89
669.87	558.00
670.21	554.32
670.55	550.64
670.89	547.24
671.23	543.80
671.57	540.26
671.91	536.72
672.25	533.13
672.58	529.67
672.92	526.20
673.26	522.96
673.60	519.83
673.94	516.77
674.28	513.75
674.62	510.87
674.96	507.80
675.30	504.95
675.64	502.03
675.97	499.25
676.31	496.35
676.65	493.39
676.99	490.69
677.33	487.86
677.67	485.02
678.01	481.97
678.34	478.98
678.68	476.13
679.02	473.41
679.36	470.66
679.70	467.91
680.04	465.19
680.37	462.37
680.71	459.57
681.05	456.92
681.39	454.24
681.73	451.61
682.06	449.04
682.40	446.51
682.74	443.93
683.08	441.35
683.42	438.80
683.75	436.32
684.09	433.74
684.43	431.25
684.77	428.83
685.10	426.46
685.44	424.11
685.78	421.82
686.12	419.50
686.45	417.25
686.79	414.96
687.13	412.74
687.46	410.52
687.80	408.43
688.14	406.20
688.48	404.15
688.81	401.93
689.15	399.80
689.49	397.58
689.82	395.53
690.16	393.43
690.50	391.49
690.83	389.54
691.17	387.61
691.51	385.75
691.84	383.86
692.18	381.97
692.52	380.09
692.85	378.12
693.19	376.23
693.52	374.41
693.86	372.59
694.20	370.83
694.53	369.08
694.87	367.21
695.21	365.43
695.54	363.62
695.88	361.85
696.21	360.14
696.55	358.54
696.88	356.88
697.22	355.21
697.56	353.53
697.89	351.88
698.23	350.31
698.56	348.66
698.90	347.10
699.23	345.49
699.57	343.89
699.90	342.36
700.24	340.86
700.58	339.31
700.91	337.81
701.25	336.33
701.58	334.99
701.92	333.62
702.25	332.24
702.59	330.86
702.92	329.56
703.26	328.21
703.59	326.90
703.93	325.69
704.26	324.49
704.60	323.21
704.93	321.96
705.26	320.66
705.60	319.46
705.93	318.27
706.27	317.19
706.60	316.16
706.94	315.05
707.27	313.88
707.61	312.79
707.94	311.77
708.27	310.68
708.61	309.59
708.94	308.57
709.28	307.55
709.61	306.59
709.94	305.62
710.28	304.62
710.61	303.63
710.95	302.53
711.28	301.60
711.61	300.66
711.95	299.72
712.28	298.78
712.61	297.84
712.95	296.91
713.28	296.02
713.61	295.08
713.95	294.21
714.28	293.40
714.61	292.55
714.95	291.70
715.28	290.84
715.61	289.93
715.95	289.09
716.28	288.25
716.61	287.41
716.95	286.57
717.28	285.81
717.61	285.02
717.94	284.30
718.28	283.46
718.61	282.71
718.94	281.97
719.27	281.31
719.61	280.65
719.94	279.97
720.27	279.22
720.60	278.55
720.94	277.94
721.27	277.31
721.60	276.73
721.93	276.10
722.27	275.57
722.60	275.09
722.93	274.54
723.26	274.05
723.59	273.49
723.93	272.96
724.26	272.40
724.59	271.83
724.92	271.35
725.25	270.90
725.59	270.41
725.92	269.92
726.25	269.41
726.58	268.91
726.91	268.46
727.24	268.04
727.57	267.61
727.91	267.13
728.24	266.69
728.57	266.22
728.90	265.81
729.23	265.32
729.56	264.86
729.89	264.39
730.22	263.85
730.55	263.42
730.89	263.02
731.22	262.60
731.55	262.21
731.88	261.76
732.21	261.35
732.54	260.93
732.87	260.53
733.20	260.15
733.53	259.75
733.86	259.38
734.19	258.97
734.52	258.59
734.85	258.28
735.18	257.87
735.51	257.52
735.84	257.11
736.17	256.76
736.50	256.35
736.83	256.12
737.16	255.82
737.49	255.48
737.82	255.11
738.15	254.78
738.48	254.45
738.81	254.11
739.14	253.76
739.47	253.45
739.80	253.13
740.13	252.82
740.46	252.53
740.79	252.18
741.12	251.90
741.45	251.58
741.78	251.27
742.11	250.99
742.44	250.65
742.77	250.39
743.10	250.08
743.43	249.80
743.75	249.39
744.08	249.25
744.41	248.97
744.74	248.69
745.07	248.41
745.40	248.19
745.73	247.97
746.06	247.71
746.39	247.44
746.71	247.16
747.04	246.89
747.37	246.61
747.70	246.40
748.03	246.14
748.36	245.92
748.68	245.65
749.01	245.39
749.34	245.20
749.67	244.99
750.00	244.81
750.33	244.64
750.65	244.44
750.98	244.10
751.31	243.86
751.64	243.67
751.97	243.50
752.29	243.23
752.62	242.99
752.95	242.80
753.28	242.56
753.60	242.36
753.93	242.19
754.26	241.99
754.59	241.74
754.91	241.52
755.24	241.29
755.57	241.08
755.90	240.86
756.22	240.68
756.55	240.47
756.88	240.22
757.20	239.98
757.53	239.78
757.86	239.60
758.19	239.47
758.51	239.29
758.84	239.08
759.17	238.92
759.49	238.74
759.82	238.59
760.15	238.44
760.47	238.27
760.80	238.09
761.13	237.96
761.45	237.83
761.78	237.64
762.11	237.49
762.43	237.32
762.76	237.19
763.08	237.02
763.41	236.90
763.74	236.78
764.06	236.65
764.39	236.49
764.71	236.37
765.04	236.17
765.37	236.01
765.69	235.91
766.02	235.80
766.34	235.70
766.67	235.52
767.00	235.47
767.32	235.41
767.65	235.34
767.97	235.20
768.30	235.10
768.62	235.01
768.95	234.90
769.27	234.79
769.60	234.71
769.92	234.58
770.25	234.45
770.57	234.36
770.90	234.24
771.22	234.16
771.55	234.08
771.87	234.03
772.20	233.93
772.52	233.90
772.85	233.93
773.17	233.84
773.50	233.76
773.82	233.60
774.15	233.48
774.47	233.35
774.80	233.29
775.12	233.19
775.45	233.13
775.77	233.05
776.09	233.00
776.42	232.90
776.74	232.85
777.07	232.77
777.39	232.65
777.72	232.59
778.04	232.51
778.36	232.38
778.69	232.31
779.01	232.27
779.33	232.14
779.66	231.93
779.98	231.83
780.31	231.75
780.63	231.74
780.95	231.67
781.28	231.60
781.60	231.52
781.92	231.47
782.25	231.40
782.57	231.36
782.89	231.29
783.22	231.23
783.54	231.16
783.86	231.12
784.19	231.10
784.51	231.07
784.83	231.01
785.16	230.96
785.48	230.89
785.80	230.81
786.12	230.75
786.45	230.70
786.77	230.66
787.09	230.63
787.42	230.53
787.74	230.47
788.06	230.40
788.38	230.36
788.71	230.31
789.03	230.24
789.35	230.19
789.67	230.13
789.99	230.12
790.32	230.08
790.64	230.05
790.96	230.05
791.28	229.94
791.61	229.88
791.93	229.85
792.25	229.83
792.57	229.86
792.89	229.80
793.21	229.77
793.54	229.70
793.86	229.62
794.18	229.60
794.50	229.59
794.82	229.58
795.14	229.56
795.47	229.53
795.79	229.47
796.11	229.40
796.43	229.37
796.75	229.31
797.07	229.23
797.39	229.18
797.71	229.08
798.04	229.09
798.36	229.09
798.68	229.05
799.00	229.01
799.32	228.93
799.64	228.92
799.96	228.87
800.28	228.86
800.60	228.85
800.92	228.82
801.24	228.76
801.56	228.74
801.89	228.69
802.21	228.66
802.53	228.63
802.85	228.61
803.17	228.63
803.49	228.58
803.81	228.59
804.13	228.56
804.45	228.52
804.77	228.49
805.09	228.45
805.41	228.41
805.73	228.38
806.05	228.34
806.37	228.31
806.69	228.29
807.01	228.27
807.33	228.27
807.65	228.22
807.97	228.25
808.28	228.23
808.60	228.18
808.92	228.13
809.24	228.19
809.56	228.17
809.88	228.10
810.20	228.11
810.52	228.09
810.84	228.06
811.16	228.05
811.48	228.03
811.80	228.04
812.12	228.04
812.43	228.06
812.75	228.00
813.07	227.99
813.39	228.01
813.71	227.98
814.03	227.96
814.35	227.96
814.67	227.89
814.98	227.84
815.30	227.84
815.62	227.85
815.94	227.74
816.26	227.78
816.58	227.75
816.89	227.72
817.21	227.69
817.53	227.68
817.85	227.69
818.17	227.69
818.48	227.64
818.80	227.63
819.12	227.60
819.44	227.62
819.76	227.58
820.07	227.54
820.39	227.54
820.71	227.51
821.03	227.50
821.34	227.48
821.66	227.51
821.98	227.50
822.30	227.48
822.61	227.55
822.93	227.48
823.25	227.44
823.57	227.43
823.88	227.44
824.20	227.40
824.52	227.38
824.83	227.35
825.15	227.33
825.47	227.32
825.79	227.31
826.10	227.29
826.42	227.32
826.74	227.32
827.05	227.31
827.37	227.32
827.69	227.32
828.00	227.33
828.32	227.29
828.64	227.26
828.95	227.34
829.27	227.28
829.58	227.27
829.90	227.32
830.22	227.31
830.53	227.27
830.85	227.25
831.17	227.22
831.48	227.21
831.80	227.19
832.11	227.16
832.43	227.12
832.75	227.06
833.06	227.05
833.38	227.00
833.69	226.99
834.01	226.97
834.32	226.89
834.64	226.87
834.96	226.86
835.27	226.83
835.59	226.75
835.90	226.72
836.22	226.71
836.53	226.68
836.85	226.65
837.16	226.75
837.48	226.76
837.79	226.75
838.11	226.73
838.42	226.73
838.74	226.73
839.05	226.71
839.37	226.71
839.68	226.63
840.00	226.63
840.31	226.61
840.63	226.59
840.94	226.59
841.26	226.56
841.57	226.55
841.88	226.55
842.20	226.52
842.51	226.53
842.83	226.50
843.14	226.56
843.46	226.58
843.77	226.50
844.08	226.49
844.40	226.46
844.71	226.43
845.03	226.42
845.34	226.39
845.65	226.39
845.97	226.40
846.28	226.42
846.60	226.44
846.91	226.43
847.22	226.41
847.54	226.42
847.85	226.39
848.16	226.37
848.48	226.37
848.79	226.40
849.10	226.38
849.42	226.43
849.73	226.33
850.04	226.31
850.36	226.28
850.67	226.29
850.98	226.31
851.30	226.34
851.61	226.35
851.92	226.38
852.23	226.41
852.55	226.42
852.86	226.43
853.17	226.42
853.49	226.44
853.80	226.48
854.11	226.52
854.42	226.57
854.74	226.56
855.05	226.57
855.36	226.53
855.67	226.51
855.99	226.50
856.30	226.61
856.61	226.57
856.92	226.59
857.23	226.59
857.55	226.56
857.86	226.54
858.17	226.55
858.48	226.51
858.79	226.49
859.11	226.50
859.42	226.50
859.73	226.48
860.04	226.47
860.35	226.42
860.66	226.36
860.98	226.34
861.29	226.35
861.60	226.35
861.91	226.34
862.22	226.37
862.53	226.35
862.84	226.25
863.16	226.31
863.47	226.24
863.78	226.22
864.09	226.24
864.40	226.26
864.71	226.24
865.02	226.25
865.33	226.22
865.64	226.20
865.95	226.20
866.27	226.25
866.58	226.21
866.89	226.21
867.20	226.22
867.51	226.20
867.82	226.20
868.13	226.21
868.44	226.21
868.75	226.18
869.06	226.16
869.37	226.17
869.68	226.11
869.99	226.13
870.30	226.16
870.61	226.14
870.92	226.10
871.23	226.07
871.54	226.08
871.85	226.08
872.16	226.07
872.47	226.03
872.78	226.00
873.09	226.02
873.40	226.03
873.71	226.04
874.02	226.04
874.33	226.02
874.64	225.98
874.95	225.99
875.26	225.99
875.56	225.97
875.87	225.94
876.18	225.94
876.49	226.02
876.80	226.03
877.11	226.02
877.42	226.03
877.73	226.04
878.04	226.03
878.35	226.04
878.66	226.02
878.96	226.01
879.27	225.99
879.58	225.98
879.89	225.95
880.20	225.95
880.51	225.94
880.82	225.93
881.12	225.95
881.43	225.93
881.74	225.93
882.05	225.93
882.36	225.92
882.67	225.95
882.97	225.88
883.28	225.83
883.59	225.82
883.90	225.84
884.21	225.85
884.51	225.83
884.82	225.82
885.13	225.86
885.44	225.87
885.74	225.85
886.05	225.84
886.36	225.88
886.67	225.87
886.98	225.94
887.28	225.93
887.59	225.93
887.90	225.93
888.20	225.92
888.51	225.97
888.82	225.99
889.13	225.98
889.43	226.06
889.74	226.08
890.05	226.08
890.35	226.08
890.66	226.08
890.97	226.10
891.28	226.11
891.58	226.14
891.89	226.15
892.20	226.16
892.50	226.15
892.81	226.13
893.12	226.15
893.42	226.10
893.73	226.12
894.04	226.14
894.34	226.16
894.65	226.14
894.95	226.12
895.26	226.12
895.57	226.16
895.87	226.05
896.18	226.07
896.48	226.09
896.79	226.07
897.10	226.08
897.40	226.06
897.71	226.07
898.01	226.03
898.32	226.03
898.63	226.03
898.93	226.03
899.24	226.02
899.54	225.98
899.85	225.97
900.15	225.96
900.46	225.96
900.76	225.95
901.07	225.96
901.38	225.94
901.68	225.92
901.99	225.86
902.29	225.85
902.60	225.83
902.90	225.83
903.21	225.84
903.51	225.82
903.82	225.85
904.12	225.85
904.43	225.87
904.73	225.84
905.03	225.85
905.34	225.94
905.64	225.93
905.95	225.93
906.25	225.93
906.56	225.93
906.86	225.90
907.17	225.85
907.47	225.86
907.77	225.88
908.08	225.85
908.38	225.87
908.69	225.88
908.99	225.90
909.30	225.86
909.60	225.86
909.90	225.84
910.21	225.82
910.51	225.81
910.81	225.77
911.12	225.78
911.42	225.77
911.73	225.69
912.03	225.70
912.33	225.69
912.64	225.67
912.94	225.65
913.24	225.64
913.55	225.65
913.85	225.62
914.15	225.61
914.46	225.63
914.76	225.63
915.06	225.60
915.37	225.58
915.67	225.57
915.97	225.53
916.27	225.54
916.58	225.52
916.88	225.48
917.18	225.50
917.49	225.57
917.79	225.55
918.09	225.59
918.39	225.60
918.70	225.61
919.00	225.61
919.30	225.67
919.60	225.63
919.91	225.62
920.21	225.63
920.51	225.60
920.81	225.61
921.12	225.59
921.42	225.63
921.72	225.64
922.02	225.69
922.32	225.71
922.63	225.69
922.93	225.73
923.23	225.75
923.53	225.71
923.83	225.67
924.13	225.67
924.44	225.63
924.74	225.68
925.04	225.71
925.34	225.70
925.64	225.64
925.94	225.69
926.24	225.77
926.55	225.80
926.85	225.84
927.15	225.82
927.45	225.85
927.75	225.81
928.05	225.81
928.35	225.81
928.65	225.85
928.95	225.88
929.26	225.86
929.56	225.87
929.86	225.90
930.16	225.92
930.46	225.93
930.76	225.96
931.06	225.90
931.36	225.90
931.66	225.94
931.96	225.96
932.26	225.97
932.56	225.95
932.86	225.94
933.16	225.96
933.46	225.96
933.76	225.96
934.06	226.01
934.36	226.04
934.66	226.05
934.96	226.06
935.26	226.05
935.56	226.13
935.86	226.13
936.16	226.15
936.46	226.13
936.76	226.12
937.06	226.11
937.36	226.14
937.66	226.10
937.96	226.14
938.26	226.11
938.56	226.10
938.86	226.09
939.16	226.12
939.46	226.10
939.76	226.12
940.06	226.13
940.35	226.09
940.65	226.05
940.95	226.03
941.25	226.00
941.55	226.01
941.85	225.99
942.15	226.01
942.45	226.02
942.75	226.04
943.04	226.02
943.34	226.02
943.64	225.97
943.94	225.95
944.24	225.91
944.54	225.94
944.84	225.95
945.13	225.95
945.43	225.90
945.73	225.89
946.03	225.89
946.33	225.86
946.62	225.87
946.92	225.85
947.22	225.86
947.52	225.82
947.82	225.82
948.11	225.77
948.41	225.76
948.71	225.70
949.01	225.66
949.31	225.66
949.60	225.67
949.90	225.72
950.20	225.72
950.50	225.74
950.79	225.70
951.09	225.69
951.39	225.66
951.69	225.62
951.98	225.62
952.28	225.58
952.58	225.57
952.87	225.56
953.17	225.56
953.47	225.56
953.76	225.55
954.06	225.52
954.36	225.52
954.66	225.48
954.95	225.53
955.25	225.52
955.55	225.53
955.84	225.49
956.14	225.48
956.44	225.51
956.73	225.48
957.03	225.48
957.32	225.49
957.62	225.50
957.92	225.55
958.21	225.56
958.51	225.71
958.81	225.70
959.10	225.67
959.40	225.72
959.69	225.72
959.99	225.73
960.29	225.76
960.58	225.71
960.88	225.76
961.17	225.74
961.47	225.74
961.76	225.78
962.06	225.82
962.36	225.81
962.65	225.81
962.95	225.84
963.24	225.81
963.54	225.83
963.83	225.86
964.13	225.86
964.42	225.85
964.72	225.75
965.01	225.79
965.31	225.82
965.60	225.83
965.90	225.86
966.19	225.87
966.49	225.87
966.78	225.88
967.08	225.90
967.37	225.88
967.67	225.87
967.96	225.85
968.26	225.83
968.55	225.85
968.85	225.83
969.14	225.84
969.43	225.84
969.73	225.83
970.02	225.81
970.32	225.83
970.61	225.79
970.91	225.79
971.20	225.77
971.49	225.76
971.79	225.79
972.08	225.75
972.38	225.78
972.67	225.80
972.96	225.84
973.26	225.81
973.55	225.87
973.85	225.87
974.14	225.83
974.43	225.85
974.73	225.85
975.02	225.87
975.31	225.90
975.61	225.94
975.90	225.92
976.19	225.93
976.49	225.91
976.78	225.94
977.07	225.95
977.37	225.97
977.66	225.97
977.95	225.93
978.24	225.91
978.54	225.93
978.83	225.90
979.12	225.90
979.42	225.87
979.71	225.83
980.00	225.86
980.29	225.90
980.59	225.89
980.88	225.90
981.17	225.88
981.46	225.82
981.76	225.82
982.05	225.86
982.34	225.87
982.63	225.88
982.93	225.90
983.22	225.89
983.51	225.87
983.80	225.87
984.09	225.85
984.39	225.85
984.68	225.84
984.97	225.86
985.26	225.85
985.55	225.89
985.85	225.85
986.14	225.84
986.43	225.83
986.72	225.83
987.01	225.76
987.30	225.76
987.59	225.77
987.89	225.77
988.18	225.70
988.47	225.66
988.76	225.63
989.05	225.61
989.34	225.60
989.63	225.64
989.92	225.63
990.22	225.62
990.51	225.63
990.80	225.60
991.09	225.56
991.38	225.55
991.67	225.53
991.96	225.52
992.25	225.52
992.54	225.53
992.83	225.50
993.12	225.54
993.41	225.55
993.70	225.58
993.99	225.56
994.28	225.57
994.58	225.56
994.87	225.58
995.16	225.57
995.45	225.56
995.74	225.46
996.03	225.46
996.32	225.49
996.61	225.48
996.90	225.44
997.19	225.43
997.48	225.46
997.77	225.44
998.06	225.47
998.34	225.42
998.63	225.39
998.92	225.40
999.21	225.41
999.50	225.40
999.79	225.35
1000.08	225.35
1000.37	225.37
1000.66	225.36
1000.95	225.35
1001.24	225.35
1001.53	225.37
1001.82	225.41
1002.11	225.40
1002.40	225.36
1002.68	225.39
1002.97	225.49
1003.26	225.48
1003.55	225.45
1003.84	225.46
1004.13	225.47
1004.42	225.45
1004.71	225.47
1004.99	225.48
1005.28	225.47
1005.57	225.47
1005.86	225.47
1006.15	225.48
1006.44	225.49
1006.72	225.55
1007.01	225.52
1007.30	225.55
1007.59	225.53
1007.88	225.55
1008.17	225.55
1008.45	225.57
1008.74	225.59
1009.03	225.54
1009.32	225.56
1009.60	225.57
1009.89	225.57
1010.18	225.57
1010.47	225.59
1010.76	225.60
1011.04	225.60
1011.33	225.66
1011.62	225.67
1011.91	225.71
1012.19	225.72
1012.48	225.71
1012.77	225.73
1013.05	225.83
1013.34	225.79
1013.63	225.80
1013.92	225.84
1014.20	225.87
1014.49	225.87
1014.78	225.86
1015.06	225.82
1015.35	225.86
1015.64	225.88
1015.92	225.90
1016.21	225.90
1016.50	225.93
1016.78	225.97
1017.07	226.01
1017.36	225.96
1017.64	225.95
1017.93	225.94
1018.22	225.92
1018.50	225.94
1018.79	225.97
1019.08	225.88
1019.36	225.91
1019.65	225.90
1019.93	225.90
1020.22	225.89
1020.51	225.93
1020.79	225.91
1021.08	225.78
1021.36	225.81
1021.65	226.68
1021.94	225.35
1022.22	225.87
1022.51	225.56
1022.79	226.05
1023.08	225.72
1023.36	226.75
1023.65	225.62
>>>>>End Processed Spectral Data<<<<<
