SpectraSuite Data File
++++++++++++++++++++++++++++++++++++
Date: Fri Feb 01 18:12:18 EST 2013
User: group
Dark Spectrum Present: No
Reference Spectrum Present: No
Number of Sampled Component Spectra: 1
Spectrometers: USB2E7196
Integration Time (usec): 35000 (USB2E7196)
Spectra Averaged: 100 (USB2E7196)
Boxcar Smoothing: 10 (USB2E7196)
Correct for Electrical Dark: No (USB2E7196)
Strobe/Lamp Enabled: No (USB2E7196)
Correct for Detector Non-linearity: No (USB2E7196)
Correct for Stray Light: No (USB2E7196)
Number of Pixels in Processed Spectrum: 2048
>>>>>Begin Processed Spectral Data<<<<<
339.09	0.00
339.48	213.27
339.86	214.69
340.24	215.94
340.63	217.68
341.01	219.71
341.39	219.73
341.78	221.32
342.16	222.58
342.54	222.83
342.93	211.51
343.31	222.20
343.69	222.73
344.07	223.17
344.46	223.58
344.84	223.97
345.22	224.21
345.60	224.47
345.99	224.67
346.37	224.79
346.75	224.91
347.13	224.97
347.52	225.00
347.90	225.06
348.28	225.06
348.66	225.08
349.05	225.10
349.43	225.13
349.81	225.19
350.19	225.23
350.57	225.29
350.96	225.38
351.34	225.46
351.72	225.54
352.10	225.63
352.48	225.67
352.87	225.71
353.25	225.78
353.63	225.84
354.01	225.90
354.39	225.97
354.77	226.05
355.15	226.14
355.54	226.20
355.92	226.24
356.30	226.33
356.68	226.48
357.06	226.53
357.44	226.58
357.82	226.65
358.20	226.72
358.58	226.81
358.97	226.87
359.35	226.93
359.73	227.01
360.11	227.07
360.49	227.17
360.87	227.22
361.25	227.30
361.63	227.38
362.01	227.44
362.39	227.50
362.77	227.53
363.15	227.55
363.53	227.60
363.91	227.64
364.29	227.68
364.67	227.61
365.05	227.66
365.43	227.71
365.81	227.76
366.19	227.80
366.57	227.84
366.95	227.85
367.33	227.85
367.71	227.85
368.09	227.90
368.47	227.88
368.85	227.85
369.23	227.85
369.61	227.78
369.99	227.78
370.37	227.76
370.75	227.79
371.13	227.73
371.51	227.66
371.89	227.64
372.27	227.59
372.65	227.55
373.03	227.50
373.41	227.41
373.78	227.33
374.16	227.26
374.54	227.19
374.92	227.12
375.30	227.07
375.68	226.99
376.06	226.93
376.44	226.88
376.82	226.83
377.19	226.77
377.57	226.73
377.95	226.64
378.33	226.58
378.71	226.45
379.09	226.44
379.47	226.37
379.84	226.31
380.22	226.23
380.60	226.16
380.98	226.11
381.36	226.06
381.73	225.97
382.11	225.91
382.49	225.85
382.87	225.80
383.25	225.76
383.62	225.82
384.00	225.71
384.38	225.65
384.76	225.63
385.13	225.59
385.51	225.55
385.89	225.46
386.27	225.41
386.64	225.39
387.02	225.32
387.40	225.28
387.78	225.23
388.15	225.19
388.53	225.15
388.91	225.07
389.29	225.04
389.66	225.07
390.04	225.03
390.42	225.03
390.79	225.00
391.17	225.00
391.55	224.88
391.92	224.90
392.30	224.89
392.68	224.87
393.05	224.89
393.43	224.90
393.81	224.94
394.18	224.94
394.56	224.94
394.94	224.99
395.31	225.05
395.69	225.08
396.06	225.10
396.44	225.17
396.82	225.23
397.19	225.30
397.57	225.31
397.95	225.40
398.32	225.40
398.70	225.46
399.07	225.51
399.45	225.55
399.82	225.60
400.20	225.68
400.58	225.78
400.95	225.79
401.33	225.89
401.70	226.03
402.08	226.12
402.45	226.23
402.83	226.37
403.20	226.46
403.58	226.61
403.95	226.77
404.33	226.89
404.71	227.04
405.08	227.25
405.46	227.39
405.83	227.52
406.21	227.70
406.58	227.89
406.96	228.09
407.33	228.32
407.70	228.57
408.08	228.89
408.45	229.12
408.83	229.43
409.20	229.72
409.58	229.99
409.95	230.33
410.33	230.69
410.70	231.02
411.08	231.43
411.45	231.84
411.82	232.26
412.20	232.74
412.57	233.29
412.95	233.73
413.32	234.31
413.69	234.92
414.07	235.54
414.44	236.19
414.82	236.88
415.19	237.64
415.56	238.41
415.94	239.18
416.31	240.09
416.68	240.93
417.06	241.89
417.43	242.81
417.81	243.87
418.18	244.97
418.55	246.14
418.93	247.34
419.30	248.58
419.67	249.91
420.04	251.28
420.42	252.67
420.79	254.28
421.16	255.92
421.54	257.51
421.91	259.23
422.28	260.98
422.66	262.84
423.03	264.64
423.40	266.50
423.77	268.47
424.15	270.44
424.52	272.56
424.89	274.83
425.26	277.04
425.64	279.08
426.01	281.31
426.38	283.61
426.75	285.95
427.13	288.38
427.50	290.92
427.87	293.51
428.24	296.14
428.61	298.62
428.99	301.30
429.36	304.31
429.73	307.20
430.10	310.07
430.47	312.94
430.85	315.97
431.22	319.10
431.59	322.43
431.96	325.56
432.33	329.02
432.70	332.38
433.08	336.27
433.45	340.00
433.82	343.63
434.19	347.71
434.56	351.59
434.93	355.29
435.30	358.96
435.68	363.05
436.05	367.02
436.42	370.96
436.79	374.52
437.16	378.27
437.53	382.24
437.90	386.19
438.27	390.04
438.64	394.00
439.01	397.71
439.38	400.88
439.75	403.93
440.13	407.52
440.50	410.77
440.87	413.39
441.24	416.18
441.61	419.25
441.98	421.33
442.35	423.95
442.72	426.61
443.09	429.18
443.46	430.56
443.83	431.41
444.20	432.11
444.57	433.32
444.94	433.76
445.31	434.25
445.68	434.65
446.05	434.79
446.42	434.24
446.79	433.59
447.16	432.95
447.53	432.49
447.90	430.86
448.27	429.22
448.64	426.97
449.01	425.33
449.37	422.54
449.74	419.91
450.11	416.71
450.48	413.21
450.85	409.61
451.22	406.57
451.59	403.70
451.96	400.97
452.33	397.28
452.70	393.94
453.07	389.97
453.43	385.99
453.80	382.10
454.17	378.33
454.54	374.77
454.91	370.94
455.28	367.22
455.65	363.65
456.02	360.14
456.38	357.15
456.75	353.36
457.12	350.20
457.49	347.02
457.86	343.94
458.23	341.26
458.59	338.37
458.96	335.50
459.33	332.87
459.70	330.18
460.07	328.04
460.43	325.62
460.80	323.30
461.17	321.20
461.54	319.05
461.91	317.00
462.27	314.94
462.64	313.14
463.01	311.17
463.38	309.37
463.74	307.52
464.11	305.84
464.48	304.40
464.85	302.81
465.21	301.57
465.58	300.25
465.95	298.73
466.32	297.46
466.68	296.13
467.05	294.87
467.42	293.65
467.78	292.31
468.15	291.02
468.52	290.07
468.88	288.85
469.25	287.74
469.62	286.89
469.98	285.92
470.35	285.01
470.72	284.18
471.08	283.23
471.45	282.46
471.82	281.73
472.18	280.87
472.55	280.22
472.92	279.47
473.28	278.82
473.65	278.17
474.02	277.51
474.38	276.98
474.75	276.48
475.11	275.92
475.48	275.52
475.85	275.17
476.21	274.78
476.58	274.45
476.94	274.20
477.31	273.88
477.67	273.62
478.04	273.37
478.41	273.22
478.77	273.15
479.14	272.94
479.50	272.82
479.87	272.82
480.23	272.79
480.60	272.79
480.96	272.80
481.33	272.94
481.69	273.08
482.06	273.21
482.42	273.33
482.79	273.58
483.15	273.85
483.52	274.20
483.88	274.53
484.25	274.91
484.61	275.30
484.98	275.74
485.34	276.31
485.71	276.92
486.07	277.51
486.44	278.11
486.80	278.85
487.17	279.60
487.53	280.43
487.90	281.36
488.26	282.32
488.62	283.37
488.99	284.42
489.35	285.52
489.72	286.67
490.08	287.94
490.44	289.24
490.81	290.65
491.17	292.05
491.54	293.60
491.90	295.19
492.26	296.96
492.63	298.78
492.99	300.69
493.36	302.74
493.72	304.95
494.08	307.21
494.45	309.60
494.81	312.10
495.17	314.72
495.54	317.47
495.90	320.37
496.26	323.33
496.63	326.50
496.99	329.83
497.35	333.31
497.72	337.01
498.08	340.77
498.44	344.73
498.80	348.98
499.17	353.35
499.53	357.92
499.89	362.64
500.26	367.49
500.62	372.48
500.98	377.79
501.34	383.18
501.71	388.94
502.07	394.80
502.43	400.90
502.79	407.16
503.16	413.63
503.52	420.37
503.88	427.33
504.24	434.46
504.60	441.86
504.97	449.60
505.33	457.44
505.69	465.75
506.05	474.14
506.41	482.59
506.78	491.41
507.14	500.55
507.50	509.99
507.86	519.77
508.22	529.73
508.59	539.68
508.95	550.10
509.31	560.65
509.67	571.61
510.03	582.66
510.39	594.15
510.75	605.87
511.12	617.70
511.48	629.88
511.84	642.39
512.20	654.92
512.56	667.93
512.92	681.19
513.28	694.65
513.64	708.24
514.00	722.21
514.37	736.35
514.73	750.52
515.09	764.77
515.45	779.29
515.81	794.20
516.17	809.52
516.53	824.99
516.89	840.58
517.25	856.15
517.61	872.07
517.97	887.99
518.33	903.85
518.69	920.22
519.05	936.86
519.41	953.56
519.77	970.73
520.13	987.89
520.49	1005.02
520.85	1022.12
521.21	1039.54
521.57	1057.45
521.93	1074.93
522.29	1093.16
522.65	1111.21
523.01	1129.27
523.37	1147.10
523.73	1165.15
524.09	1183.15
524.45	1201.35
524.81	1220.00
525.17	1238.74
525.53	1257.59
525.89	1276.62
526.25	1295.49
526.61	1313.85
526.97	1332.74
527.33	1351.33
527.68	1369.84
528.04	1388.38
528.40	1407.19
528.76	1426.35
529.12	1445.17
529.48	1464.44
529.84	1482.63
530.20	1501.45
530.56	1520.88
530.91	1540.74
531.27	1560.02
531.63	1578.79
531.99	1597.79
532.35	1616.12
532.71	1634.48
533.07	1653.27
533.42	1671.57
533.78	1690.10
534.14	1708.87
534.50	1726.71
534.86	1745.17
535.21	1763.02
535.57	1781.53
535.93	1799.42
536.29	1816.89
536.65	1834.58
537.00	1851.64
537.36	1869.59
537.72	1886.68
538.08	1903.74
538.44	1920.09
538.79	1936.43
539.15	1952.56
539.51	1968.77
539.87	1985.74
540.22	2002.00
540.58	2018.28
540.94	2034.24
541.29	2049.64
541.65	2064.99
542.01	2080.71
542.37	2095.45
542.72	2110.44
543.08	2124.84
543.44	2139.98
543.79	2153.80
544.15	2167.29
544.51	2181.54
544.87	2195.13
545.22	2208.73
545.58	2221.38
545.94	2233.59
546.29	2245.98
546.65	2258.51
547.01	2270.41
547.36	2281.59
547.72	2292.69
548.07	2302.94
548.43	2313.51
548.79	2323.84
549.14	2333.78
549.50	2343.40
549.86	2353.37
550.21	2363.03
550.57	2372.49
550.92	2381.33
551.28	2390.58
551.64	2399.77
551.99	2408.59
552.35	2416.84
552.70	2425.04
553.06	2433.09
553.41	2441.60
553.77	2449.53
554.13	2457.65
554.48	2465.95
554.84	2473.52
555.19	2480.55
555.55	2487.75
555.90	2494.21
556.26	2501.24
556.61	2507.94
556.97	2514.19
557.32	2520.20
557.68	2525.94
558.03	2532.08
558.39	2537.49
558.74	2543.98
559.10	2549.91
559.45	2555.38
559.81	2561.44
560.16	2567.03
560.52	2572.17
560.87	2577.18
561.23	2581.42
561.58	2586.02
561.94	2589.96
562.29	2593.64
562.64	2598.00
563.00	2602.10
563.35	2606.99
563.71	2611.50
564.06	2616.08
564.42	2620.38
564.77	2624.55
565.12	2628.43
565.48	2631.48
565.83	2634.72
566.19	2637.37
566.54	2639.18
566.89	2641.46
567.25	2643.24
567.60	2645.63
567.96	2648.37
568.31	2650.29
568.66	2652.66
569.02	2654.16
569.37	2655.55
569.72	2657.50
570.08	2658.46
570.43	2659.26
570.78	2659.57
571.14	2658.70
571.49	2657.85
571.84	2658.34
572.20	2657.82
572.55	2657.34
572.90	2656.27
573.26	2655.33
573.61	2653.86
573.96	2652.58
574.31	2649.86
574.67	2647.01
575.02	2643.55
575.37	2640.20
575.72	2636.44
576.08	2632.99
576.43	2629.65
576.78	2625.97
577.13	2622.91
577.49	2619.86
577.84	2616.46
578.19	2612.58
578.54	2608.86
578.90	2604.76
579.25	2598.75
579.60	2593.24
579.95	2587.79
580.30	2582.54
580.66	2577.05
581.01	2571.85
581.36	2566.59
581.71	2562.01
582.06	2557.21
582.42	2552.44
582.77	2546.90
583.12	2542.10
583.47	2537.15
583.82	2531.88
584.17	2526.15
584.53	2519.99
584.88	2513.92
585.23	2507.54
585.58	2501.36
585.93	2495.45
586.28	2489.98
586.63	2484.50
586.98	2479.02
587.34	2473.81
587.69	2468.42
588.04	2462.55
588.39	2456.12
588.74	2448.79
589.09	2441.80
589.44	2433.99
589.79	2426.93
590.14	2420.33
590.49	2412.69
590.84	2405.24
591.19	2398.26
591.54	2390.80
591.89	2382.47
592.25	2374.63
592.60	2366.27
592.95	2357.72
593.30	2349.12
593.65	2340.27
594.00	2332.01
594.35	2323.49
594.70	2314.11
595.05	2305.78
595.40	2297.21
595.75	2288.47
596.10	2281.33
596.45	2273.54
596.80	2266.56
597.15	2258.92
597.50	2250.69
597.85	2243.12
598.19	2235.28
598.54	2227.02
598.89	2219.18
599.24	2212.20
599.59	2204.27
599.94	2196.90
600.29	2189.21
600.64	2181.25
600.99	2172.62
601.34	2164.59
601.69	2156.36
602.04	2148.31
602.39	2139.51
602.74	2131.45
603.08	2123.38
603.43	2115.27
603.78	2106.60
604.13	2097.96
604.48	2089.35
604.83	2081.16
605.18	2072.92
605.53	2063.58
605.87	2053.94
606.22	2045.31
606.57	2035.65
606.92	2026.76
607.27	2018.26
607.62	2010.01
607.96	2001.51
608.31	1993.57
608.66	1984.46
609.01	1975.51
609.36	1966.49
609.70	1956.86
610.05	1947.19
610.40	1937.99
610.75	1928.03
611.10	1918.74
611.44	1908.59
611.79	1898.88
612.14	1888.56
612.49	1877.56
612.83	1867.47
613.18	1857.72
613.53	1847.99
613.88	1837.89
614.22	1828.02
614.57	1817.72
614.92	1808.22
615.27	1799.12
615.61	1789.04
615.96	1779.40
616.31	1770.21
616.65	1761.22
617.00	1752.21
617.35	1742.89
617.70	1732.94
618.04	1722.75
618.39	1712.87
618.74	1703.62
619.08	1693.77
619.43	1684.52
619.78	1676.13
620.12	1667.52
620.47	1658.47
620.82	1648.50
621.16	1639.45
621.51	1630.17
621.85	1620.83
622.20	1610.51
622.55	1600.45
622.89	1591.04
623.24	1581.64
623.59	1572.61
623.93	1563.62
624.28	1554.80
624.62	1545.75
624.97	1537.14
625.32	1528.87
625.66	1520.43
626.01	1512.06
626.35	1503.08
626.70	1493.73
627.04	1484.37
627.39	1474.92
627.73	1465.99
628.08	1457.73
628.43	1449.07
628.77	1440.39
629.12	1431.41
629.46	1422.89
629.81	1413.79
630.15	1405.06
630.50	1396.25
630.84	1386.44
631.19	1376.86
631.53	1367.79
631.88	1358.81
632.22	1349.75
632.57	1341.01
632.91	1331.88
633.26	1322.91
633.60	1313.93
633.95	1305.37
634.29	1296.95
634.64	1288.97
634.98	1280.17
635.32	1271.66
635.67	1263.68
636.01	1255.57
636.36	1247.42
636.70	1239.47
637.05	1231.62
637.39	1223.83
637.73	1216.05
638.08	1208.97
638.42	1201.70
638.77	1194.03
639.11	1186.22
639.45	1178.36
639.80	1170.41
640.14	1162.85
640.49	1154.98
640.83	1147.48
641.17	1140.11
641.52	1132.53
641.86	1124.74
642.20	1117.79
642.55	1110.12
642.89	1102.34
643.23	1094.42
643.58	1087.60
643.92	1080.24
644.26	1073.24
644.61	1066.00
644.95	1058.84
645.29	1051.08
645.64	1043.19
645.98	1035.65
646.32	1028.54
646.66	1021.40
647.01	1014.51
647.35	1007.69
647.69	1000.75
648.04	994.18
648.38	987.29
648.72	980.27
649.06	973.24
649.41	966.27
649.75	959.30
650.09	952.33
650.43	945.58
650.78	938.20
651.12	931.19
651.46	924.33
651.80	917.70
652.14	911.32
652.49	904.94
652.83	898.77
653.17	892.05
653.51	885.33
653.85	878.96
654.20	872.32
654.54	865.30
654.88	858.50
655.22	851.53
655.56	844.78
655.90	838.33
656.25	832.11
656.59	825.69
656.93	819.67
657.27	813.57
657.61	807.22
657.95	801.22
658.29	795.19
658.64	788.94
658.98	782.56
659.32	776.07
659.66	769.96
660.00	763.69
660.34	757.90
660.68	752.10
661.02	746.18
661.36	740.57
661.70	735.28
662.05	730.15
662.39	725.05
662.73	719.81
663.07	714.60
663.41	709.35
663.75	704.07
664.09	698.67
664.43	693.51
664.77	688.64
665.11	683.63
665.45	678.67
665.79	673.86
666.13	668.95
666.47	664.14
666.81	659.21
667.15	654.39
667.49	649.79
667.83	645.30
668.17	640.71
668.51	635.92
668.85	631.12
669.19	626.60
669.53	622.11
669.87	617.59
670.21	613.28
670.55	608.95
670.89	604.90
671.23	600.87
671.57	596.70
671.91	592.57
672.25	588.42
672.58	584.32
672.92	580.23
673.26	576.53
673.60	572.81
673.94	569.16
674.28	565.69
674.62	562.20
674.96	558.56
675.30	555.14
675.64	551.64
675.97	548.37
676.31	544.96
676.65	541.53
676.99	538.31
677.33	534.91
677.67	531.59
678.01	528.05
678.34	524.58
678.68	521.20
679.02	517.84
679.36	514.51
679.70	511.38
680.04	508.25
680.37	504.93
680.71	501.67
681.05	498.55
681.39	495.36
681.73	492.23
682.06	489.22
682.40	486.17
682.74	483.29
683.08	480.28
683.42	477.22
683.75	474.24
684.09	471.20
684.43	468.26
684.77	465.38
685.10	462.59
685.44	459.84
685.78	457.10
686.12	454.48
686.45	451.80
686.79	449.07
687.13	446.42
687.46	443.82
687.80	441.29
688.14	438.65
688.48	436.30
688.81	433.64
689.15	431.11
689.49	428.60
689.82	426.09
690.16	423.64
690.50	421.33
690.83	419.04
691.17	416.71
691.51	414.52
691.84	412.37
692.18	410.07
692.52	407.78
692.85	405.49
693.19	403.24
693.52	401.13
693.86	398.98
694.20	396.89
694.53	394.78
694.87	392.54
695.21	390.48
695.54	388.26
695.88	386.23
696.21	384.15
696.55	382.14
696.88	380.14
697.22	378.14
697.56	376.19
697.89	374.27
698.23	372.42
698.56	370.49
698.90	368.58
699.23	366.67
699.57	364.83
699.90	363.03
700.24	361.24
700.58	359.42
700.91	357.67
701.25	355.95
701.58	354.32
701.92	352.75
702.25	351.08
702.59	349.47
702.92	347.91
703.26	346.41
703.59	344.91
703.93	343.49
704.26	342.07
704.60	340.58
704.93	339.07
705.26	337.60
705.60	336.16
705.93	334.78
706.27	333.58
706.60	332.32
706.94	331.03
707.27	329.68
707.61	328.42
707.94	327.18
708.27	325.89
708.61	324.62
708.94	323.41
709.28	322.24
709.61	321.11
709.94	319.97
710.28	318.75
710.61	317.58
710.95	316.30
711.28	315.18
711.61	314.05
711.95	312.96
712.28	311.81
712.61	310.66
712.95	309.55
713.28	308.47
713.61	307.37
713.95	306.34
714.28	305.31
714.61	304.30
714.95	303.28
715.28	302.24
715.61	301.17
715.95	300.13
716.28	299.12
716.61	298.13
716.95	297.14
717.28	296.27
717.61	295.38
717.94	294.53
718.28	293.57
718.61	292.65
718.94	291.80
719.27	291.02
719.61	290.24
719.94	289.47
720.27	288.64
720.60	287.84
720.94	287.08
721.27	286.38
721.60	285.67
721.93	284.96
722.27	284.30
722.60	283.65
722.93	283.00
723.26	282.35
723.59	281.67
723.93	281.04
724.26	280.33
724.59	279.62
724.92	279.00
725.25	278.43
725.59	277.83
725.92	277.24
726.25	276.62
726.58	276.05
726.91	275.47
727.24	274.88
727.57	274.35
727.91	273.74
728.24	273.22
728.57	272.64
728.90	272.10
729.23	271.55
729.56	271.03
729.89	270.48
730.22	269.95
730.55	269.43
730.89	268.92
731.22	268.42
731.55	267.95
731.88	267.44
732.21	266.93
732.54	266.45
732.87	265.95
733.20	265.48
733.53	265.04
733.86	264.56
734.19	264.11
734.52	263.65
734.85	263.26
735.18	262.76
735.51	262.35
735.84	261.92
736.17	261.49
736.50	261.04
736.83	260.75
737.16	260.31
737.49	259.89
737.82	259.43
738.15	259.01
738.48	258.58
738.81	258.17
739.14	257.79
739.47	257.43
739.80	257.08
740.13	256.72
740.46	256.32
740.79	255.93
741.12	255.54
741.45	255.19
741.78	254.78
742.11	254.43
742.44	254.03
742.77	253.66
743.10	253.29
743.43	252.91
743.75	252.47
744.08	252.27
744.41	251.95
744.74	251.67
745.07	251.36
745.40	251.08
745.73	250.82
746.06	250.50
746.39	250.16
746.71	249.79
747.04	249.46
747.37	249.13
747.70	248.82
748.03	248.53
748.36	248.23
748.68	247.92
749.01	247.61
749.34	247.36
749.67	247.06
750.00	246.80
750.33	246.62
750.65	246.35
750.98	245.96
751.31	245.68
751.64	245.44
751.97	245.24
752.29	244.95
752.62	244.65
752.95	244.38
753.28	244.11
753.60	243.86
753.93	243.65
754.26	243.41
754.59	243.16
754.91	242.90
755.24	242.65
755.57	242.44
755.90	242.22
756.22	241.98
756.55	241.75
756.88	241.52
757.20	241.24
757.53	241.01
757.86	240.81
758.19	240.62
758.51	240.39
758.84	240.15
759.17	239.97
759.49	239.78
759.82	239.65
760.15	239.51
760.47	239.35
760.80	239.14
761.13	239.00
761.45	238.85
761.78	238.66
762.11	238.51
762.43	238.34
762.76	238.18
763.08	238.03
763.41	237.88
763.74	237.74
764.06	237.57
764.39	237.40
764.71	237.23
765.04	237.07
765.37	236.91
765.69	236.76
766.02	236.62
766.34	236.48
766.67	236.30
767.00	236.17
767.32	236.10
767.65	236.03
767.97	235.91
768.30	235.79
768.62	235.68
768.95	235.55
769.27	235.44
769.60	235.34
769.92	235.22
770.25	235.07
770.57	234.96
770.90	234.87
771.22	234.81
771.55	234.75
771.87	234.65
772.20	234.55
772.52	234.56
772.85	234.56
773.17	234.42
773.50	234.29
773.82	234.15
774.15	234.02
774.47	233.87
774.80	233.76
775.12	233.64
775.45	233.57
775.77	233.51
776.09	233.43
776.42	233.36
776.74	233.27
777.07	233.18
777.39	233.08
777.72	232.94
778.04	232.83
778.36	232.71
778.69	232.63
779.01	232.55
779.33	232.39
779.66	232.21
779.98	232.14
780.31	232.11
780.63	232.08
780.95	231.98
781.28	231.88
781.60	231.80
781.92	231.73
782.25	231.63
782.57	231.55
782.89	231.46
783.22	231.38
783.54	231.27
783.86	231.26
784.19	231.19
784.51	231.19
784.83	231.11
785.16	231.06
785.48	230.99
785.80	230.92
786.12	230.85
786.45	230.76
786.77	230.72
787.09	230.64
787.42	230.55
787.74	230.52
788.06	230.50
788.38	230.45
788.71	230.37
789.03	230.35
789.35	230.28
789.67	230.23
789.99	230.16
790.32	230.08
790.64	230.00
790.96	230.01
791.28	229.91
791.61	229.86
791.93	229.79
792.25	229.73
792.57	229.74
792.89	229.65
793.21	229.63
793.54	229.56
793.86	229.49
794.18	229.42
794.50	229.33
794.82	229.25
795.14	229.23
795.47	229.21
795.79	229.11
796.11	229.08
796.43	229.01
796.75	228.95
797.07	228.94
797.39	228.88
797.71	228.75
798.04	228.71
798.36	228.66
798.68	228.61
799.00	228.57
799.32	228.49
799.64	228.49
799.96	228.44
800.28	228.42
800.60	228.39
800.92	228.41
801.24	228.38
801.56	228.38
801.89	228.32
802.21	228.28
802.53	228.26
802.85	228.23
803.17	228.28
803.49	228.25
803.81	228.22
804.13	228.23
804.45	228.23
804.77	228.23
805.09	228.27
805.41	228.25
805.73	228.18
806.05	228.13
806.37	228.09
806.69	228.07
807.01	228.09
807.33	228.08
807.65	227.99
807.97	228.02
808.28	227.98
808.60	227.98
808.92	227.97
809.24	228.02
809.56	227.98
809.88	227.90
810.20	227.91
810.52	227.95
810.84	227.91
811.16	227.87
811.48	227.87
811.80	227.84
812.12	227.85
812.43	227.90
812.75	227.90
813.07	227.88
813.39	227.90
813.71	227.81
814.03	227.78
814.35	227.79
814.67	227.72
814.98	227.67
815.30	227.62
815.62	227.59
815.94	227.51
816.26	227.55
816.58	227.53
816.89	227.52
817.21	227.43
817.53	227.41
817.85	227.40
818.17	227.33
818.48	227.29
818.80	227.27
819.12	227.24
819.44	227.20
819.76	227.16
820.07	227.12
820.39	227.12
820.71	227.11
821.03	227.09
821.34	227.10
821.66	227.10
821.98	227.13
822.30	227.09
822.61	227.10
822.93	226.99
823.25	226.98
823.57	226.91
823.88	226.91
824.20	226.90
824.52	226.90
824.83	226.88
825.15	226.86
825.47	226.81
825.79	226.78
826.10	226.73
826.42	226.74
826.74	226.71
827.05	226.66
827.37	226.63
827.69	226.59
828.00	226.57
828.32	226.54
828.64	226.51
828.95	226.56
829.27	226.52
829.58	226.52
829.90	226.51
830.22	226.50
830.53	226.47
830.85	226.44
831.17	226.41
831.48	226.39
831.80	226.34
832.11	226.32
832.43	226.31
832.75	226.31
833.06	226.33
833.38	226.29
833.69	226.29
834.01	226.28
834.32	226.25
834.64	226.21
834.96	226.21
835.27	226.16
835.59	226.12
835.90	226.11
836.22	226.10
836.53	226.07
836.85	226.08
837.16	226.13
837.48	226.11
837.79	226.10
838.11	226.13
838.42	226.13
838.74	226.13
839.05	226.08
839.37	226.09
839.68	226.01
840.00	225.99
840.31	226.00
840.63	226.00
840.94	226.03
841.26	226.02
841.57	226.02
841.88	226.05
842.20	226.03
842.51	225.98
842.83	225.97
843.14	226.04
843.46	226.04
843.77	226.04
844.08	226.06
844.40	226.03
844.71	226.01
845.03	226.02
845.34	226.01
845.65	226.04
845.97	226.02
846.28	226.06
846.60	226.08
846.91	226.06
847.22	226.06
847.54	226.07
847.85	226.06
848.16	226.06
848.48	226.06
848.79	226.11
849.10	226.15
849.42	226.16
849.73	226.05
850.04	226.02
850.36	225.96
850.67	225.97
850.98	225.99
851.30	226.01
851.61	225.98
851.92	225.97
852.23	225.98
852.55	226.00
852.86	225.99
853.17	226.04
853.49	226.05
853.80	226.05
854.11	226.07
854.42	226.07
854.74	226.05
855.05	226.03
855.36	225.97
855.67	225.99
855.99	226.00
856.30	226.12
856.61	226.11
856.92	226.10
857.23	226.08
857.55	226.10
857.86	226.08
858.17	226.10
858.48	226.10
858.79	226.08
859.11	226.07
859.42	226.06
859.73	225.99
860.04	225.94
860.35	225.90
860.66	225.86
860.98	225.87
861.29	225.85
861.60	225.82
861.91	225.83
862.22	225.82
862.53	225.78
862.84	225.67
863.16	225.68
863.47	225.64
863.78	225.62
864.09	225.57
864.40	225.58
864.71	225.58
865.02	225.55
865.33	225.49
865.64	225.44
865.95	225.44
866.27	225.51
866.58	225.51
866.89	225.54
867.20	225.51
867.51	225.50
867.82	225.48
868.13	225.50
868.44	225.48
868.75	225.47
869.06	225.47
869.37	225.50
869.68	225.47
869.99	225.50
870.30	225.51
870.61	225.53
870.92	225.49
871.23	225.50
871.54	225.56
871.85	225.64
872.16	225.67
872.47	225.63
872.78	225.59
873.09	225.61
873.40	225.57
873.71	225.56
874.02	225.56
874.33	225.58
874.64	225.58
874.95	225.59
875.26	225.56
875.56	225.56
875.87	225.53
876.18	225.51
876.49	225.58
876.80	225.56
877.11	225.51
877.42	225.51
877.73	225.47
878.04	225.40
878.35	225.38
878.66	225.35
878.96	225.42
879.27	225.40
879.58	225.42
879.89	225.43
880.20	225.49
880.51	225.47
880.82	225.47
881.12	225.44
881.43	225.43
881.74	225.37
882.05	225.37
882.36	225.34
882.67	225.35
882.97	225.25
883.28	225.27
883.59	225.30
883.90	225.29
884.21	225.33
884.51	225.32
884.82	225.30
885.13	225.29
885.44	225.26
885.74	225.25
886.05	225.23
886.36	225.21
886.67	225.19
886.98	225.24
887.28	225.27
887.59	225.27
887.90	225.26
888.20	225.28
888.51	225.29
888.82	225.33
889.13	225.34
889.43	225.43
889.74	225.42
890.05	225.42
890.35	225.44
890.66	225.43
890.97	225.44
891.28	225.42
891.58	225.44
891.89	225.44
892.20	225.44
892.50	225.43
892.81	225.45
893.12	225.43
893.42	225.37
893.73	225.38
894.04	225.39
894.34	225.47
894.65	225.48
894.95	225.49
895.26	225.48
895.57	225.53
895.87	225.42
896.18	225.44
896.48	225.44
896.79	225.40
897.10	225.41
897.40	225.44
897.71	225.46
898.01	225.45
898.32	225.47
898.63	225.43
898.93	225.40
899.24	225.40
899.54	225.38
899.85	225.38
900.15	225.34
900.46	225.30
900.76	225.25
901.07	225.28
901.38	225.26
901.68	225.29
901.99	225.22
902.29	225.23
902.60	225.22
902.90	225.22
903.21	225.26
903.51	225.24
903.82	225.25
904.12	225.26
904.43	225.27
904.73	225.25
905.03	225.27
905.34	225.36
905.64	225.35
905.95	225.33
906.25	225.33
906.56	225.33
906.86	225.31
907.17	225.29
907.47	225.27
907.77	225.26
908.08	225.24
908.38	225.25
908.69	225.27
908.99	225.29
909.30	225.26
909.60	225.22
909.90	225.22
910.21	225.15
910.51	225.13
910.81	225.08
911.12	225.06
911.42	225.08
911.73	225.01
912.03	224.99
912.33	225.06
912.64	225.05
912.94	225.03
913.24	225.02
913.55	225.03
913.85	225.03
914.15	225.03
914.46	225.02
914.76	225.00
915.06	224.97
915.37	224.94
915.67	224.94
915.97	224.95
916.27	224.96
916.58	224.98
916.88	224.98
917.18	224.99
917.49	225.04
917.79	225.03
918.09	225.02
918.39	225.04
918.70	224.99
919.00	224.98
919.30	225.03
919.60	225.05
919.91	224.99
920.21	224.97
920.51	224.95
920.81	224.96
921.12	224.93
921.42	224.90
921.72	224.88
922.02	224.87
922.32	224.87
922.63	224.82
922.93	224.89
923.23	224.89
923.53	224.86
923.83	224.81
924.13	224.82
924.44	224.83
924.74	224.83
925.04	224.86
925.34	224.87
925.64	224.83
925.94	224.84
926.24	224.92
926.55	224.94
926.85	224.96
927.15	224.94
927.45	224.99
927.75	225.04
928.05	225.08
928.35	225.12
928.65	225.15
928.95	225.18
929.26	225.14
929.56	225.18
929.86	225.23
930.16	225.24
930.46	225.26
930.76	225.26
931.06	225.24
931.36	225.24
931.66	225.27
931.96	225.31
932.26	225.34
932.56	225.32
932.86	225.31
933.16	225.32
933.46	225.36
933.76	225.33
934.06	225.34
934.36	225.36
934.66	225.34
934.96	225.30
935.26	225.30
935.56	225.34
935.86	225.32
936.16	225.32
936.46	225.31
936.76	225.28
937.06	225.27
937.36	225.32
937.66	225.31
937.96	225.29
938.26	225.28
938.56	225.26
938.86	225.26
939.16	225.31
939.46	225.34
939.76	225.33
940.06	225.33
940.35	225.31
940.65	225.31
940.95	225.32
941.25	225.31
941.55	225.30
941.85	225.27
942.15	225.28
942.45	225.30
942.75	225.31
943.04	225.33
943.34	225.34
943.64	225.30
943.94	225.29
944.24	225.30
944.54	225.28
944.84	225.26
945.13	225.22
945.43	225.17
945.73	225.15
946.03	225.13
946.33	225.12
946.62	225.09
946.92	225.06
947.22	225.06
947.52	225.06
947.82	225.09
948.11	225.07
948.41	225.03
948.71	224.99
949.01	224.99
949.31	224.97
949.60	224.91
949.90	224.91
950.20	224.91
950.50	224.89
950.79	224.89
951.09	224.90
951.39	224.90
951.69	224.90
951.98	224.88
952.28	224.87
952.58	224.85
952.87	224.86
953.17	224.85
953.47	224.83
953.76	224.83
954.06	224.77
954.36	224.74
954.66	224.74
954.95	224.73
955.25	224.73
955.55	224.73
955.84	224.73
956.14	224.73
956.44	224.72
956.73	224.69
957.03	224.68
957.32	224.68
957.62	224.68
957.92	224.69
958.21	224.69
958.51	224.77
958.81	224.79
959.10	224.79
959.40	224.80
959.69	224.80
959.99	224.81
960.29	224.80
960.58	224.82
960.88	224.86
961.17	224.89
961.47	224.87
961.76	224.88
962.06	224.93
962.36	224.93
962.65	224.94
962.95	224.93
963.24	224.93
963.54	224.94
963.83	224.93
964.13	224.93
964.42	224.92
964.72	224.89
965.01	224.90
965.31	224.92
965.60	224.91
965.90	224.99
966.19	224.94
966.49	224.99
966.78	224.99
967.08	224.99
967.37	225.01
967.67	225.01
967.96	225.04
968.26	225.01
968.55	225.03
968.85	225.03
969.14	225.05
969.43	225.05
969.73	225.07
970.02	225.10
970.32	225.07
970.61	225.09
970.91	225.07
971.20	225.09
971.49	225.06
971.79	225.09
972.08	225.02
972.38	225.05
972.67	225.03
972.96	225.04
973.26	225.04
973.55	225.06
973.85	225.06
974.14	225.04
974.43	225.07
974.73	225.07
975.02	225.06
975.31	225.05
975.61	225.09
975.90	225.10
976.19	225.11
976.49	225.15
976.78	225.16
977.07	225.15
977.37	225.13
977.66	225.15
977.95	225.12
978.24	225.10
978.54	225.13
978.83	225.14
979.12	225.14
979.42	225.13
979.71	225.11
980.00	225.12
980.29	225.12
980.59	225.10
980.88	225.09
981.17	225.08
981.46	225.09
981.76	225.05
982.05	225.05
982.34	225.02
982.63	224.99
982.93	224.96
983.22	224.96
983.51	224.96
983.80	224.97
984.09	225.01
984.39	225.01
984.68	224.98
984.97	224.98
985.26	224.95
985.55	224.94
985.85	224.89
986.14	224.89
986.43	224.89
986.72	224.86
987.01	224.82
987.30	224.80
987.59	224.78
987.89	224.77
988.18	224.73
988.47	224.71
988.76	224.69
989.05	224.70
989.34	224.66
989.63	224.65
989.92	224.63
990.22	224.59
990.51	224.59
990.80	224.60
991.09	224.57
991.38	224.57
991.67	224.55
991.96	224.50
992.25	224.51
992.54	224.47
992.83	224.46
993.12	224.44
993.41	224.47
993.70	224.45
993.99	224.45
994.28	224.46
994.58	224.46
994.87	224.46
995.16	224.45
995.45	224.45
995.74	224.42
996.03	224.40
996.32	224.38
996.61	224.38
996.90	224.36
997.19	224.38
997.48	224.39
997.77	224.39
998.06	224.44
998.34	224.41
998.63	224.43
998.92	224.46
999.21	224.50
999.50	224.50
999.79	224.51
1000.08	224.52
1000.37	224.49
1000.66	224.49
1000.95	224.52
1001.24	224.52
1001.53	224.54
1001.82	224.55
1002.11	224.53
1002.40	224.57
1002.68	224.63
1002.97	224.72
1003.26	224.68
1003.55	224.69
1003.84	224.71
1004.13	224.77
1004.42	224.79
1004.71	224.79
1004.99	224.80
1005.28	224.81
1005.57	224.82
1005.86	224.82
1006.15	224.82
1006.44	224.83
1006.72	224.87
1007.01	224.86
1007.30	224.87
1007.59	224.88
1007.88	224.92
1008.17	224.99
1008.45	224.95
1008.74	224.92
1009.03	224.87
1009.32	224.91
1009.60	224.91
1009.89	224.87
1010.18	224.83
1010.47	224.84
1010.76	224.88
1011.04	224.84
1011.33	224.89
1011.62	224.88
1011.91	224.93
1012.19	224.96
1012.48	225.00
1012.77	224.97
1013.05	225.02
1013.34	225.04
1013.63	225.06
1013.92	225.02
1014.20	225.00
1014.49	225.03
1014.78	225.03
1015.06	225.02
1015.35	225.02
1015.64	225.05
1015.92	225.11
1016.21	225.10
1016.50	225.09
1016.78	225.09
1017.07	225.11
1017.36	225.04
1017.64	225.03
1017.93	225.04
1018.22	225.03
1018.50	225.02
1018.79	225.03
1019.08	224.98
1019.36	224.97
1019.65	224.97
1019.93	225.04
1020.22	225.04
1020.51	225.07
1020.79	225.06
1021.08	224.88
1021.36	225.01
1021.65	224.94
1021.94	224.85
1022.22	224.97
1022.51	225.38
1022.79	225.69
1023.08	224.92
1023.36	225.82
1023.65	224.81
>>>>>End Processed Spectral Data<<<<<
