SpectraSuite Data File
++++++++++++++++++++++++++++++++++++
Date: Fri Feb 01 16:17:43 EST 2013
User: group
Dark Spectrum Present: No
Reference Spectrum Present: No
Number of Sampled Component Spectra: 1
Spectrometers: USB2E7196
Integration Time (usec): 35000 (USB2E7196)
Spectra Averaged: 100 (USB2E7196)
Boxcar Smoothing: 10 (USB2E7196)
Correct for Electrical Dark: No (USB2E7196)
Strobe/Lamp Enabled: No (USB2E7196)
Correct for Detector Non-linearity: No (USB2E7196)
Correct for Stray Light: No (USB2E7196)
Number of Pixels in Processed Spectrum: 2048
>>>>>Begin Processed Spectral Data<<<<<
339.09	0.00
339.48	214.57
339.86	215.88
340.24	217.18
340.63	219.39
341.01	221.34
341.39	221.33
341.78	222.16
342.16	224.22
342.54	224.08
342.93	212.72
343.31	223.46
343.69	224.00
344.07	224.43
344.46	224.83
344.84	225.18
345.22	225.39
345.60	225.62
345.99	225.84
346.37	225.93
346.75	226.01
347.13	226.05
347.52	226.15
347.90	226.20
348.28	226.23
348.66	226.27
349.05	226.27
349.43	226.28
349.81	226.30
350.19	226.35
350.57	226.38
350.96	226.43
351.34	226.51
351.72	226.56
352.10	226.67
352.48	226.76
352.87	226.80
353.25	226.87
353.63	226.91
354.01	226.96
354.39	227.01
354.77	227.10
355.15	227.21
355.54	227.27
355.92	227.30
356.30	227.37
356.68	227.49
357.06	227.54
357.44	227.59
357.82	227.65
358.20	227.74
358.58	227.80
358.97	227.85
359.35	227.91
359.73	227.99
360.11	228.03
360.49	228.11
360.87	228.15
361.25	228.23
361.63	228.30
362.01	228.33
362.39	228.37
362.77	228.43
363.15	228.45
363.53	228.47
363.91	228.50
364.29	228.48
364.67	228.44
365.05	228.46
365.43	228.50
365.81	228.53
366.19	228.52
366.57	228.54
366.95	228.54
367.33	228.52
367.71	228.50
368.09	228.47
368.47	228.41
368.85	228.40
369.23	228.36
369.61	228.30
369.99	228.31
370.37	228.35
370.75	228.32
371.13	228.22
371.51	228.19
371.89	228.15
372.27	228.14
372.65	228.07
373.03	228.04
373.41	227.98
373.78	227.88
374.16	227.83
374.54	227.72
374.92	227.66
375.30	227.61
375.68	227.55
376.06	227.53
376.44	227.50
376.82	227.41
377.19	227.38
377.57	227.31
377.95	227.21
378.33	227.10
378.71	227.02
379.09	226.99
379.47	226.92
379.84	226.82
380.22	226.77
380.60	226.68
380.98	226.61
381.36	226.54
381.73	226.51
382.11	226.43
382.49	226.40
382.87	226.33
383.25	226.29
383.62	226.31
384.00	226.26
384.38	226.18
384.76	226.17
385.13	226.14
385.51	226.10
385.89	226.06
386.27	226.01
386.64	225.98
387.02	225.95
387.40	225.89
387.78	225.90
388.15	225.85
388.53	225.85
388.91	225.80
389.29	225.78
389.66	225.78
390.04	225.77
390.42	225.74
390.79	225.73
391.17	225.68
391.55	225.57
391.92	225.51
392.30	225.53
392.68	225.51
393.05	225.52
393.43	225.51
393.81	225.51
394.18	225.51
394.56	225.51
394.94	225.52
395.31	225.53
395.69	225.55
396.06	225.61
396.44	225.61
396.82	225.63
397.19	225.71
397.57	225.73
397.95	225.77
398.32	225.80
398.70	225.86
399.07	225.97
399.45	226.05
399.82	226.14
400.20	226.17
400.58	226.24
400.95	226.26
401.33	226.36
401.70	226.51
402.08	226.57
402.45	226.69
402.83	226.81
403.20	226.92
403.58	227.00
403.95	227.09
404.33	227.23
404.71	227.38
405.08	227.57
405.46	227.69
405.83	227.84
406.21	228.01
406.58	228.19
406.96	228.33
407.33	228.49
407.70	228.70
408.08	228.97
408.45	229.15
408.83	229.36
409.20	229.58
409.58	229.76
409.95	230.03
410.33	230.27
410.70	230.52
411.08	230.79
411.45	231.13
411.82	231.46
412.20	231.84
412.57	232.25
412.95	232.53
413.32	232.93
413.69	233.34
414.07	233.80
414.44	234.22
414.82	234.71
415.19	235.24
415.56	235.78
415.94	236.32
416.31	236.99
416.68	237.63
417.06	238.35
417.43	239.08
417.81	239.86
418.18	240.64
418.55	241.50
418.93	242.45
419.30	243.36
419.67	244.28
420.04	245.23
420.42	246.17
420.79	247.38
421.16	248.55
421.54	249.76
421.91	250.96
422.28	252.24
422.66	253.58
423.03	254.89
423.40	256.24
423.77	257.69
424.15	259.13
424.52	260.63
424.89	262.25
425.26	263.75
425.64	265.18
426.01	266.79
426.38	268.45
426.75	270.07
427.13	271.78
427.50	273.60
427.87	275.49
428.24	277.37
428.61	279.13
428.99	281.06
429.36	283.14
429.73	285.16
430.10	287.20
430.47	289.25
430.85	291.39
431.22	293.64
431.59	296.01
431.96	298.26
432.33	300.72
432.70	303.11
433.08	305.94
433.45	308.59
433.82	311.16
434.19	314.03
434.56	316.87
434.93	319.51
435.30	322.11
435.68	324.96
436.05	327.78
436.42	330.50
436.79	333.03
437.16	335.70
437.53	338.54
437.90	341.30
438.27	344.01
438.64	346.78
439.01	349.37
439.38	351.57
439.75	353.67
440.13	356.14
440.50	358.43
440.87	360.27
441.24	362.21
441.61	364.36
441.98	365.81
442.35	367.57
442.72	369.41
443.09	371.20
443.46	372.23
443.83	372.79
444.20	373.33
444.57	374.11
444.94	374.41
445.31	374.71
445.68	375.08
446.05	375.13
446.42	374.73
446.79	374.27
447.16	373.78
447.53	373.47
447.90	372.32
448.27	371.14
448.64	369.52
449.01	368.36
449.37	366.41
449.74	364.52
450.11	362.26
450.48	359.77
450.85	357.25
451.22	355.09
451.59	353.09
451.96	351.12
452.33	348.56
452.70	346.18
453.07	343.40
453.43	340.48
453.80	337.74
454.17	335.12
454.54	332.61
454.91	329.90
455.28	327.26
455.65	324.76
456.02	322.33
456.38	320.22
456.75	317.57
457.12	315.29
457.49	313.11
457.86	310.95
458.23	309.14
458.59	307.12
458.96	305.05
459.33	303.22
459.70	301.38
460.07	299.89
460.43	298.19
460.80	296.57
461.17	295.16
461.54	293.68
461.91	292.29
462.27	290.83
462.64	289.62
463.01	288.27
463.38	287.04
463.74	285.70
464.11	284.54
464.48	283.54
464.85	282.47
465.21	281.59
465.58	280.70
465.95	279.60
466.32	278.68
466.68	277.81
467.05	276.91
467.42	276.05
467.78	275.12
468.15	274.26
468.52	273.59
468.88	272.74
469.25	271.99
469.62	271.39
469.98	270.75
470.35	270.12
470.72	269.57
471.08	268.90
471.45	268.37
471.82	267.85
472.18	267.27
472.55	266.87
472.92	266.34
473.28	265.89
473.65	265.45
474.02	265.02
474.38	264.65
474.75	264.35
475.11	264.00
475.48	263.78
475.85	263.55
476.21	263.35
476.58	263.18
476.94	263.07
477.31	262.90
477.67	262.73
478.04	262.61
478.41	262.49
478.77	262.55
479.14	262.53
479.50	262.56
479.87	262.62
480.23	262.67
480.60	262.78
480.96	262.86
481.33	263.08
481.69	263.24
482.06	263.40
482.42	263.58
482.79	263.89
483.15	264.18
483.52	264.59
483.88	264.91
484.25	265.31
484.61	265.69
484.98	266.13
485.34	266.70
485.71	267.34
486.07	268.00
486.44	268.53
486.80	269.20
487.17	269.90
487.53	270.72
487.90	271.54
488.26	272.44
488.62	273.38
488.99	274.37
489.35	275.43
489.72	276.59
490.08	277.82
490.44	279.01
490.81	280.34
491.17	281.65
491.54	283.17
491.90	284.73
492.26	286.40
492.63	288.15
492.99	289.92
493.36	291.82
493.72	293.84
494.08	295.94
494.45	298.16
494.81	300.56
495.17	303.02
495.54	305.64
495.90	308.36
496.26	311.22
496.63	314.19
496.99	317.37
497.35	320.61
497.72	324.02
498.08	327.58
498.44	331.27
498.80	335.19
499.17	339.24
499.53	343.40
499.89	347.76
500.26	352.24
500.62	356.89
500.98	361.83
501.34	366.94
501.71	372.26
502.07	377.73
502.43	383.34
502.79	389.16
503.16	395.22
503.52	401.55
503.88	408.00
504.24	414.54
504.60	421.39
504.97	428.55
505.33	435.88
505.69	443.57
506.05	451.32
506.41	459.27
506.78	467.38
507.14	475.83
507.50	484.52
507.86	493.53
508.22	502.77
508.59	512.04
508.95	521.60
509.31	531.42
509.67	541.58
510.03	551.87
510.39	562.44
510.75	573.27
511.12	584.22
511.48	595.47
511.84	607.03
512.20	618.65
512.56	630.62
512.92	642.79
513.28	655.16
513.64	667.63
514.00	680.27
514.37	693.31
514.73	706.41
515.09	719.45
515.45	732.69
515.81	746.30
516.17	760.19
516.53	774.31
516.89	788.52
517.25	802.63
517.61	817.09
517.97	831.45
518.33	845.84
518.69	860.54
519.05	875.46
519.41	890.62
519.77	906.10
520.13	921.52
520.49	936.82
520.85	952.34
521.21	968.10
521.57	984.30
521.93	999.99
522.29	1016.37
522.65	1032.70
523.01	1048.90
523.37	1064.94
523.73	1081.17
524.09	1097.18
524.45	1113.43
524.81	1130.08
525.17	1146.78
525.53	1163.72
525.89	1180.61
526.25	1197.34
526.61	1213.77
526.97	1230.48
527.33	1246.87
527.68	1263.36
528.04	1279.84
528.40	1296.30
528.76	1313.41
529.12	1330.03
529.48	1346.81
529.84	1362.84
530.20	1379.35
530.56	1396.26
530.91	1413.58
531.27	1430.16
531.63	1446.67
531.99	1463.26
532.35	1479.05
532.71	1494.99
533.07	1511.10
533.42	1526.97
533.78	1543.06
534.14	1559.18
534.50	1574.55
534.86	1590.36
535.21	1605.53
535.57	1621.41
535.93	1636.82
536.29	1651.33
536.65	1666.26
537.00	1681.03
537.36	1696.15
537.72	1710.68
538.08	1725.14
538.44	1738.93
538.79	1752.81
539.15	1766.39
539.51	1780.03
539.87	1794.43
540.22	1808.10
540.58	1821.84
540.94	1835.04
541.29	1847.76
541.65	1860.51
542.01	1873.57
542.37	1885.73
542.72	1897.99
543.08	1909.66
543.44	1921.87
543.79	1933.16
544.15	1944.18
544.51	1955.68
544.87	1966.52
545.22	1977.11
545.58	1987.30
545.94	1996.88
546.29	2006.64
546.65	2016.45
547.01	2025.75
547.36	2034.30
547.72	2042.63
548.07	2050.40
548.43	2058.55
548.79	2066.66
549.14	2074.16
549.50	2081.28
549.86	2089.03
550.21	2096.48
550.57	2103.67
550.92	2110.35
551.28	2117.33
551.64	2124.27
551.99	2130.85
552.35	2137.15
552.70	2143.36
553.06	2149.18
553.41	2155.53
553.77	2161.59
554.13	2167.66
554.48	2173.78
554.84	2179.44
555.19	2184.73
555.55	2189.99
555.90	2194.35
556.26	2199.16
556.61	2203.89
556.97	2208.47
557.32	2212.41
557.68	2216.42
558.03	2220.72
558.39	2224.38
558.74	2229.03
559.10	2232.86
559.45	2236.54
559.81	2240.76
560.16	2244.57
560.52	2247.85
560.87	2251.30
561.23	2253.94
561.58	2256.87
561.94	2259.36
562.29	2261.51
562.64	2264.20
563.00	2266.64
563.35	2270.29
563.71	2273.44
564.06	2276.54
564.42	2279.31
564.77	2281.97
565.12	2284.30
565.48	2286.22
565.83	2288.11
566.19	2289.40
566.54	2290.42
566.89	2291.49
567.25	2292.08
567.60	2293.49
567.96	2295.29
568.31	2296.12
568.66	2297.29
569.02	2297.92
569.37	2298.33
569.72	2299.23
570.08	2299.44
570.43	2299.61
570.78	2299.00
571.14	2297.40
571.49	2296.16
571.84	2295.74
572.20	2294.84
572.55	2293.86
572.90	2292.24
573.26	2290.86
573.61	2289.27
573.96	2287.45
574.31	2284.52
574.67	2281.59
575.02	2278.11
575.37	2274.87
575.72	2271.11
576.08	2267.76
576.43	2264.41
576.78	2260.69
577.13	2257.59
577.49	2254.44
577.84	2251.11
578.19	2247.32
578.54	2243.91
578.90	2239.73
579.25	2234.29
579.60	2229.16
579.95	2224.11
580.30	2219.14
580.66	2213.98
581.01	2209.14
581.36	2204.44
581.71	2200.19
582.06	2195.78
582.42	2191.20
582.77	2185.89
583.12	2181.49
583.47	2177.01
583.82	2172.00
584.17	2166.83
584.53	2161.24
584.88	2155.57
585.23	2149.76
585.58	2144.43
585.93	2139.00
586.28	2134.24
586.63	2129.30
586.98	2124.48
587.34	2119.81
587.69	2115.02
588.04	2109.89
588.39	2104.16
588.74	2097.72
589.09	2091.77
589.44	2085.04
589.79	2079.19
590.14	2073.50
590.49	2066.91
590.84	2060.37
591.19	2054.57
591.54	2048.08
591.89	2040.92
592.25	2034.33
592.60	2027.13
592.95	2019.54
593.30	2012.10
593.65	2004.57
594.00	1997.58
594.35	1990.27
594.70	1982.45
595.05	1975.47
595.40	1968.27
595.75	1960.74
596.10	1954.48
596.45	1947.73
596.80	1941.53
597.15	1934.87
597.50	1927.82
597.85	1921.33
598.19	1914.65
598.54	1907.48
598.89	1900.92
599.24	1895.05
599.59	1888.35
599.94	1882.13
600.29	1875.78
600.64	1869.28
600.99	1861.79
601.34	1854.96
601.69	1848.02
602.04	1841.06
602.39	1833.57
602.74	1826.66
603.08	1819.98
603.43	1813.26
603.78	1806.01
604.13	1798.94
604.48	1791.63
604.83	1784.88
605.18	1778.05
605.53	1770.21
605.87	1762.13
606.22	1754.87
606.57	1746.93
606.92	1739.57
607.27	1732.40
607.62	1725.49
607.96	1718.14
608.31	1711.64
608.66	1704.07
609.01	1696.41
609.36	1688.78
609.70	1680.66
610.05	1672.68
610.40	1665.03
610.75	1656.67
611.10	1648.94
611.44	1640.40
611.79	1632.40
612.14	1623.64
612.49	1614.32
612.83	1605.89
613.18	1597.73
613.53	1589.65
613.88	1580.98
614.22	1572.82
614.57	1564.26
614.92	1556.33
615.27	1548.84
615.61	1540.32
615.96	1532.17
616.31	1524.56
616.65	1517.30
617.00	1509.96
617.35	1502.27
617.70	1493.85
618.04	1485.40
618.39	1477.21
618.74	1469.57
619.08	1461.30
619.43	1453.72
619.78	1446.87
620.12	1439.66
620.47	1432.12
620.82	1423.93
621.16	1416.67
621.51	1408.97
621.85	1401.27
622.20	1392.67
622.55	1384.36
622.89	1376.65
623.24	1369.07
623.59	1361.67
623.93	1354.02
624.28	1346.69
624.62	1339.14
624.97	1332.05
625.32	1325.21
625.66	1318.24
626.01	1311.14
626.35	1303.63
626.70	1295.91
627.04	1288.23
627.39	1280.50
627.73	1273.26
628.08	1266.40
628.43	1259.08
628.77	1251.66
629.12	1244.13
629.46	1237.05
629.81	1229.51
630.15	1222.25
630.50	1214.86
630.84	1206.68
631.19	1198.90
631.53	1191.32
631.88	1183.66
632.22	1176.04
632.57	1168.70
632.91	1161.00
633.26	1153.57
633.60	1146.23
633.95	1139.24
634.29	1132.06
634.64	1125.32
634.98	1117.84
635.32	1110.61
635.67	1103.97
636.01	1097.36
636.36	1090.58
636.70	1084.04
637.05	1077.54
637.39	1071.04
637.73	1064.51
638.08	1058.61
638.42	1052.57
638.77	1046.10
639.11	1039.64
639.45	1033.19
639.80	1026.61
640.14	1020.33
640.49	1013.81
640.83	1007.46
641.17	1001.09
641.52	994.83
641.86	988.34
642.20	982.44
642.55	976.17
642.89	969.72
643.23	963.22
643.58	957.41
643.92	951.19
644.26	945.09
644.61	939.00
644.95	932.99
645.29	926.30
645.64	919.42
645.98	913.08
646.32	907.19
646.66	901.13
647.01	895.39
647.35	889.63
647.69	883.78
648.04	878.33
648.38	872.53
648.72	866.50
649.06	860.50
649.41	854.69
649.75	848.66
650.09	842.77
650.43	836.99
650.78	830.80
651.12	824.82
651.46	819.09
651.80	813.43
652.14	808.00
652.49	802.69
652.83	797.59
653.17	791.87
653.51	786.12
653.85	780.77
654.20	775.07
654.54	769.02
654.88	763.20
655.22	757.19
655.56	751.53
655.90	746.08
656.25	740.79
656.59	735.34
656.93	730.21
657.27	725.02
657.61	719.52
657.95	714.47
658.29	709.43
658.64	704.20
658.98	698.85
659.32	693.35
659.66	688.13
660.00	682.78
660.34	677.85
660.68	672.94
661.02	667.84
661.36	663.07
661.70	658.60
662.05	654.23
662.39	649.92
662.73	645.42
663.07	641.04
663.41	636.57
663.75	632.12
664.09	627.55
664.43	623.11
664.77	618.96
665.11	614.73
665.45	610.56
665.79	606.48
666.13	602.36
666.47	598.29
666.81	594.17
667.15	590.10
667.49	586.18
667.83	582.34
668.17	578.47
668.51	574.40
668.85	570.35
669.19	566.52
669.53	562.71
669.87	558.85
670.21	555.15
670.55	551.51
670.89	548.09
671.23	544.73
671.57	541.21
671.91	537.66
672.25	534.17
672.58	530.64
672.92	527.21
673.26	523.97
673.60	520.84
673.94	517.73
674.28	514.75
674.62	511.82
674.96	508.68
675.30	505.79
675.64	502.87
675.97	500.08
676.31	497.17
676.65	494.17
676.99	491.45
677.33	488.58
677.67	485.82
678.01	482.77
678.34	479.74
678.68	476.86
679.02	474.06
679.36	471.27
679.70	468.55
680.04	465.72
680.37	462.85
680.71	460.03
681.05	457.34
681.39	454.61
681.73	451.93
682.06	449.42
682.40	446.83
682.74	444.27
683.08	441.71
683.42	439.09
683.75	436.64
684.09	434.06
684.43	431.58
684.77	429.08
685.10	426.73
685.44	424.44
685.78	422.12
686.12	419.83
686.45	417.50
686.79	415.17
687.13	413.03
687.46	410.88
687.80	408.74
688.14	406.51
688.48	404.48
688.81	402.24
689.15	400.09
689.49	397.94
689.82	395.83
690.16	393.76
690.50	391.87
690.83	389.91
691.17	387.97
691.51	386.07
691.84	384.24
692.18	382.31
692.52	380.31
692.85	378.40
693.19	376.54
693.52	374.69
693.86	372.90
694.20	371.11
694.53	369.36
694.87	367.49
695.21	365.74
695.54	363.90
695.88	362.21
696.21	360.47
696.55	358.76
696.88	357.13
697.22	355.47
697.56	353.82
697.89	352.16
698.23	350.54
698.56	348.93
698.90	347.31
699.23	345.66
699.57	344.15
699.90	342.60
700.24	341.10
700.58	339.57
700.91	338.06
701.25	336.58
701.58	335.20
701.92	333.84
702.25	332.44
702.59	331.08
702.92	329.72
703.26	328.46
703.59	327.17
703.93	325.97
704.26	324.74
704.60	323.42
704.93	322.16
705.26	320.89
705.60	319.67
705.93	318.48
706.27	317.45
706.60	316.39
706.94	315.33
707.27	314.15
707.61	313.12
707.94	312.09
708.27	311.04
708.61	309.97
708.94	308.97
709.28	308.00
709.61	307.06
709.94	306.10
710.28	305.05
710.61	304.09
710.95	303.00
711.28	302.04
711.61	301.09
711.95	300.14
712.28	299.20
712.61	298.27
712.95	297.35
713.28	296.46
713.61	295.60
713.95	294.72
714.28	293.87
714.61	293.00
714.95	292.19
715.28	291.32
715.61	290.40
715.95	289.56
716.28	288.66
716.61	287.81
716.95	286.98
717.28	286.27
717.61	285.49
717.94	284.74
718.28	283.95
718.61	283.26
718.94	282.59
719.27	281.91
719.61	281.26
719.94	280.64
720.27	279.91
720.60	279.19
720.94	278.55
721.27	277.96
721.60	277.39
721.93	276.75
722.27	276.20
722.60	275.67
722.93	275.09
723.26	274.56
723.59	274.02
723.93	273.50
724.26	272.90
724.59	272.33
724.92	271.86
725.25	271.38
725.59	270.85
725.92	270.32
726.25	269.87
726.58	269.35
726.91	268.83
727.24	268.35
727.57	267.92
727.91	267.42
728.24	266.93
728.57	266.42
728.90	265.99
729.23	265.52
729.56	265.08
729.89	264.60
730.22	264.15
730.55	263.66
730.89	263.22
731.22	262.80
731.55	262.38
731.88	261.89
732.21	261.46
732.54	261.04
732.87	260.62
733.20	260.24
733.53	259.87
733.86	259.50
734.19	259.16
734.52	258.75
734.85	258.46
735.18	258.06
735.51	257.69
735.84	257.28
736.17	256.92
736.50	256.51
736.83	256.28
737.16	255.94
737.49	255.64
737.82	255.30
738.15	254.98
738.48	254.64
738.81	254.36
739.14	254.04
739.47	253.70
739.80	253.41
740.13	253.05
740.46	252.71
740.79	252.37
741.12	252.05
741.45	251.74
741.78	251.34
742.11	251.06
742.44	250.73
742.77	250.49
743.10	250.19
743.43	249.89
743.75	249.50
744.08	249.35
744.41	249.06
744.74	248.79
745.07	248.49
745.40	248.25
745.73	248.02
746.06	247.73
746.39	247.48
746.71	247.21
747.04	246.94
747.37	246.71
747.70	246.51
748.03	246.26
748.36	246.04
748.68	245.83
749.01	245.56
749.34	245.36
749.67	245.11
750.00	244.90
750.33	244.75
750.65	244.56
750.98	244.22
751.31	244.04
751.64	243.83
751.97	243.68
752.29	243.48
752.62	243.21
752.95	243.02
753.28	242.81
753.60	242.61
753.93	242.46
754.26	242.26
754.59	242.02
754.91	241.80
755.24	241.59
755.57	241.42
755.90	241.28
756.22	241.09
756.55	240.91
756.88	240.72
757.20	240.48
757.53	240.30
757.86	240.16
758.19	239.98
758.51	239.80
758.84	239.59
759.17	239.42
759.49	239.23
759.82	239.09
760.15	238.95
760.47	238.81
760.80	238.64
761.13	238.49
761.45	238.35
761.78	238.20
762.11	238.06
762.43	237.89
762.76	237.72
763.08	237.60
763.41	237.47
763.74	237.33
764.06	237.19
764.39	237.06
764.71	236.91
765.04	236.80
765.37	236.68
765.69	236.57
766.02	236.43
766.34	236.36
766.67	236.20
767.00	236.08
767.32	235.99
767.65	235.92
767.97	235.79
768.30	235.69
768.62	235.60
768.95	235.48
769.27	235.38
769.60	235.28
769.92	235.14
770.25	235.01
770.57	234.88
770.90	234.78
771.22	234.64
771.55	234.54
771.87	234.41
772.20	234.30
772.52	234.23
772.85	234.26
773.17	234.16
773.50	234.10
773.82	233.98
774.15	233.83
774.47	233.69
774.80	233.57
775.12	233.46
775.45	233.34
775.77	233.28
776.09	233.19
776.42	233.10
776.74	233.07
777.07	233.01
777.39	232.95
777.72	232.85
778.04	232.78
778.36	232.73
778.69	232.65
779.01	232.58
779.33	232.42
779.66	232.26
779.98	232.16
780.31	232.08
780.63	232.07
780.95	232.02
781.28	231.91
781.60	231.88
781.92	231.81
782.25	231.78
782.57	231.72
782.89	231.64
783.22	231.57
783.54	231.47
783.86	231.39
784.19	231.33
784.51	231.31
784.83	231.25
785.16	231.16
785.48	231.11
785.80	231.12
786.12	231.10
786.45	231.01
786.77	230.96
787.09	230.91
787.42	230.83
787.74	230.79
788.06	230.80
788.38	230.75
788.71	230.72
789.03	230.67
789.35	230.62
789.67	230.58
789.99	230.54
790.32	230.48
790.64	230.47
790.96	230.51
791.28	230.40
791.61	230.37
791.93	230.32
792.25	230.29
792.57	230.29
792.89	230.23
793.21	230.23
793.54	230.20
793.86	230.18
794.18	230.14
794.50	230.12
794.82	230.05
795.14	230.01
795.47	230.01
795.79	229.95
796.11	229.91
796.43	229.87
796.75	229.88
797.07	229.86
797.39	229.80
797.71	229.69
798.04	229.68
798.36	229.67
798.68	229.64
799.00	229.60
799.32	229.51
799.64	229.49
799.96	229.42
800.28	229.40
800.60	229.35
800.92	229.34
801.24	229.25
801.56	229.29
801.89	229.25
802.21	229.19
802.53	229.19
802.85	229.18
803.17	229.21
803.49	229.12
803.81	229.08
804.13	229.03
804.45	228.99
804.77	228.96
805.09	228.89
805.41	228.86
805.73	228.81
806.05	228.75
806.37	228.77
806.69	228.77
807.01	228.75
807.33	228.73
807.65	228.66
807.97	228.70
808.28	228.59
808.60	228.58
808.92	228.55
809.24	228.57
809.56	228.52
809.88	228.47
810.20	228.47
810.52	228.48
810.84	228.47
811.16	228.46
811.48	228.47
811.80	228.50
812.12	228.51
812.43	228.54
812.75	228.51
813.07	228.46
813.39	228.43
813.71	228.40
814.03	228.37
814.35	228.37
814.67	228.30
814.98	228.30
815.30	228.29
815.62	228.26
815.94	228.16
816.26	228.20
816.58	228.15
816.89	228.14
817.21	228.09
817.53	228.06
817.85	228.04
818.17	227.97
818.48	227.92
818.80	227.89
819.12	227.85
819.44	227.82
819.76	227.76
820.07	227.76
820.39	227.74
820.71	227.74
821.03	227.71
821.34	227.71
821.66	227.68
821.98	227.68
822.30	227.66
822.61	227.70
822.93	227.64
823.25	227.63
823.57	227.62
823.88	227.65
824.20	227.66
824.52	227.66
824.83	227.68
825.15	227.66
825.47	227.65
825.79	227.64
826.10	227.64
826.42	227.63
826.74	227.62
827.05	227.61
827.37	227.59
827.69	227.57
828.00	227.56
828.32	227.56
828.64	227.50
828.95	227.52
829.27	227.51
829.58	227.49
829.90	227.48
830.22	227.50
830.53	227.41
830.85	227.37
831.17	227.35
831.48	227.34
831.80	227.32
832.11	227.32
832.43	227.33
832.75	227.30
833.06	227.37
833.38	227.34
833.69	227.29
834.01	227.31
834.32	227.32
834.64	227.28
834.96	227.26
835.27	227.31
835.59	227.29
835.90	227.26
836.22	227.24
836.53	227.21
836.85	227.17
837.16	227.32
837.48	227.33
837.79	227.32
838.11	227.30
838.42	227.29
838.74	227.28
839.05	227.23
839.37	227.25
839.68	227.20
840.00	227.17
840.31	227.21
840.63	227.18
840.94	227.15
841.26	227.15
841.57	227.17
841.88	227.15
842.20	227.13
842.51	227.11
842.83	227.09
843.14	227.17
843.46	227.17
843.77	227.08
844.08	227.06
844.40	227.06
844.71	227.06
845.03	227.07
845.34	227.03
845.65	227.03
845.97	227.00
846.28	226.99
846.60	227.02
846.91	226.98
847.22	226.99
847.54	227.02
847.85	227.03
848.16	227.00
848.48	226.95
848.79	226.97
849.10	226.96
849.42	226.96
849.73	226.87
850.04	226.85
850.36	226.81
850.67	226.84
850.98	226.82
851.30	226.82
851.61	226.78
851.92	226.77
852.23	226.80
852.55	226.83
852.86	226.78
853.17	226.75
853.49	226.76
853.80	226.76
854.11	226.76
854.42	226.73
854.74	226.71
855.05	226.73
855.36	226.67
855.67	226.67
855.99	226.67
856.30	226.81
856.61	226.79
856.92	226.79
857.23	226.78
857.55	226.77
857.86	226.77
858.17	226.81
858.48	226.82
858.79	226.79
859.11	226.78
859.42	226.78
859.73	226.74
860.04	226.72
860.35	226.68
860.66	226.62
860.98	226.64
861.29	226.64
861.60	226.60
861.91	226.61
862.22	226.61
862.53	226.60
862.84	226.45
863.16	226.47
863.47	226.44
863.78	226.41
864.09	226.43
864.40	226.41
864.71	226.37
865.02	226.37
865.33	226.33
865.64	226.30
865.95	226.30
866.27	226.42
866.58	226.42
866.89	226.44
867.20	226.43
867.51	226.40
867.82	226.42
868.13	226.47
868.44	226.45
868.75	226.48
869.06	226.46
869.37	226.48
869.68	226.45
869.99	226.46
870.30	226.49
870.61	226.51
870.92	226.47
871.23	226.49
871.54	226.50
871.85	226.55
872.16	226.55
872.47	226.56
872.78	226.47
873.09	226.46
873.40	226.43
873.71	226.43
874.02	226.46
874.33	226.46
874.64	226.42
874.95	226.43
875.26	226.39
875.56	226.41
875.87	226.39
876.18	226.36
876.49	226.45
876.80	226.43
877.11	226.36
877.42	226.39
877.73	226.38
878.04	226.34
878.35	226.33
878.66	226.34
878.96	226.32
879.27	226.36
879.58	226.35
879.89	226.34
880.20	226.38
880.51	226.37
880.82	226.36
881.12	226.37
881.43	226.36
881.74	226.35
882.05	226.35
882.36	226.38
882.67	226.38
882.97	226.28
883.28	226.25
883.59	226.28
883.90	226.28
884.21	226.30
884.51	226.32
884.82	226.30
885.13	226.29
885.44	226.31
885.74	226.30
886.05	226.29
886.36	226.31
886.67	226.28
886.98	226.31
887.28	226.32
887.59	226.32
887.90	226.34
888.20	226.36
888.51	226.35
888.82	226.31
889.13	226.33
889.43	226.42
889.74	226.41
890.05	226.42
890.35	226.41
890.66	226.39
890.97	226.38
891.28	226.38
891.58	226.38
891.89	226.39
892.20	226.38
892.50	226.36
892.81	226.33
893.12	226.32
893.42	226.26
893.73	226.25
894.04	226.23
894.34	226.21
894.65	226.23
894.95	226.24
895.26	226.27
895.57	226.32
895.87	226.24
896.18	226.28
896.48	226.26
896.79	226.29
897.10	226.32
897.40	226.29
897.71	226.28
898.01	226.27
898.32	226.26
898.63	226.23
898.93	226.24
899.24	226.27
899.54	226.28
899.85	226.29
900.15	226.27
900.46	226.30
900.76	226.32
901.07	226.27
901.38	226.26
901.68	226.23
901.99	226.18
902.29	226.18
902.60	226.17
902.90	226.14
903.21	226.11
903.51	226.09
903.82	226.12
904.12	226.13
904.43	226.13
904.73	226.10
905.03	226.12
905.34	226.21
905.64	226.18
905.95	226.16
906.25	226.16
906.56	226.15
906.86	226.13
907.17	226.13
907.47	226.16
907.77	226.12
908.08	226.12
908.38	226.11
908.69	226.13
908.99	226.12
909.30	226.15
909.60	226.16
909.90	226.16
910.21	226.16
910.51	226.15
910.81	226.13
911.12	226.16
911.42	226.14
911.73	226.02
912.03	226.03
912.33	226.02
912.64	225.99
912.94	225.99
913.24	225.96
913.55	225.92
913.85	225.91
914.15	225.94
914.46	225.94
914.76	225.93
915.06	225.92
915.37	225.89
915.67	225.88
915.97	225.87
916.27	225.85
916.58	225.84
916.88	225.85
917.18	225.87
917.49	225.94
917.79	225.96
918.09	226.03
918.39	226.06
918.70	226.10
919.00	226.16
919.30	226.19
919.60	226.22
919.91	226.22
920.21	226.22
920.51	226.21
920.81	226.23
921.12	226.27
921.42	226.25
921.72	226.29
922.02	226.29
922.32	226.30
922.63	226.32
922.93	226.33
923.23	226.36
923.53	226.31
923.83	226.21
924.13	226.22
924.44	226.23
924.74	226.25
925.04	226.26
925.34	226.24
925.64	226.22
925.94	226.23
926.24	226.29
926.55	226.27
926.85	226.30
927.15	226.30
927.45	226.28
927.75	226.29
928.05	226.28
928.35	226.25
928.65	226.28
928.95	226.27
929.26	226.25
929.56	226.23
929.86	226.29
930.16	226.29
930.46	226.26
930.76	226.25
931.06	226.21
931.36	226.20
931.66	226.22
931.96	226.24
932.26	226.25
932.56	226.22
932.86	226.25
933.16	226.26
933.46	226.25
933.76	226.26
934.06	226.30
934.36	226.33
934.66	226.36
934.96	226.34
935.26	226.37
935.56	226.42
935.86	226.40
936.16	226.41
936.46	226.41
936.76	226.42
937.06	226.38
937.36	226.40
937.66	226.39
937.96	226.35
938.26	226.33
938.56	226.33
938.86	226.32
939.16	226.32
939.46	226.29
939.76	226.29
940.06	226.30
940.35	226.27
940.65	226.20
940.95	226.23
941.25	226.23
941.55	226.20
941.85	226.15
942.15	226.19
942.45	226.20
942.75	226.22
943.04	226.22
943.34	226.23
943.64	226.22
943.94	226.22
944.24	226.25
944.54	226.25
944.84	226.25
945.13	226.22
945.43	226.23
945.73	226.23
946.03	226.21
946.33	226.19
946.62	226.20
946.92	226.20
947.22	226.20
947.52	226.22
947.82	226.22
948.11	226.25
948.41	226.23
948.71	226.19
949.01	226.19
949.31	226.17
949.60	226.17
949.90	226.19
950.20	226.17
950.50	226.13
950.79	226.10
951.09	226.10
951.39	226.14
951.69	226.13
951.98	226.16
952.28	226.18
952.58	226.17
952.87	226.14
953.17	226.19
953.47	226.18
953.76	226.17
954.06	226.13
954.36	226.10
954.66	226.08
954.95	226.10
955.25	226.14
955.55	226.16
955.84	226.16
956.14	226.17
956.44	226.19
956.73	226.19
957.03	226.19
957.32	226.21
957.62	226.21
957.92	226.21
958.21	226.17
958.51	226.26
958.81	226.26
959.10	226.30
959.40	226.30
959.69	226.30
959.99	226.33
960.29	226.34
960.58	226.34
960.88	226.36
961.17	226.35
961.47	226.36
961.76	226.36
962.06	226.37
962.36	226.35
962.65	226.35
962.95	226.35
963.24	226.38
963.54	226.34
963.83	226.34
964.13	226.31
964.42	226.31
964.72	226.25
965.01	226.25
965.31	226.22
965.60	226.18
965.90	226.24
966.19	226.17
966.49	226.16
966.78	226.16
967.08	226.15
967.37	226.16
967.67	226.11
967.96	226.12
968.26	226.09
968.55	226.09
968.85	226.07
969.14	226.07
969.43	226.05
969.73	226.05
970.02	226.01
970.32	226.01
970.61	225.99
970.91	225.95
971.20	225.93
971.49	225.92
971.79	225.92
972.08	225.86
972.38	225.86
972.67	225.85
972.96	225.84
973.26	225.80
973.55	225.79
973.85	225.80
974.14	225.79
974.43	225.83
974.73	225.82
975.02	225.82
975.31	225.80
975.61	225.82
975.90	225.81
976.19	225.82
976.49	225.86
976.78	225.88
977.07	225.87
977.37	225.86
977.66	225.86
977.95	225.84
978.24	225.85
978.54	225.90
978.83	225.89
979.12	225.87
979.42	225.92
979.71	225.90
980.00	225.88
980.29	225.86
980.59	225.84
980.88	225.83
981.17	225.83
981.46	225.84
981.76	225.81
982.05	225.86
982.34	225.85
982.63	225.82
982.93	225.79
983.22	225.82
983.51	225.84
983.80	225.85
984.09	225.87
984.39	225.85
984.68	225.81
984.97	225.85
985.26	225.89
985.55	225.90
985.85	225.92
986.14	225.95
986.43	225.96
986.72	225.95
987.01	225.93
987.30	225.91
987.59	225.93
987.89	225.92
988.18	225.90
988.47	225.88
988.76	225.91
989.05	225.90
989.34	225.88
989.63	225.88
989.92	225.88
990.22	225.89
990.51	225.89
990.80	225.90
991.09	225.91
991.38	225.93
991.67	225.90
991.96	225.88
992.25	225.89
992.54	225.89
992.83	225.90
993.12	225.92
993.41	225.99
993.70	226.01
993.99	226.04
994.28	226.03
994.58	226.06
994.87	226.04
995.16	226.07
995.45	226.08
995.74	226.07
996.03	226.10
996.32	226.08
996.61	226.10
996.90	226.09
997.19	226.05
997.48	226.02
997.77	226.04
998.06	226.03
998.34	226.02
998.63	226.02
998.92	226.02
999.21	226.03
999.50	226.01
999.79	225.98
1000.08	225.95
1000.37	225.97
1000.66	225.96
1000.95	225.96
1001.24	225.97
1001.53	225.99
1001.82	226.00
1002.11	225.97
1002.40	226.05
1002.68	226.08
1002.97	226.15
1003.26	226.15
1003.55	226.16
1003.84	226.16
1004.13	226.20
1004.42	226.21
1004.71	226.22
1004.99	226.21
1005.28	226.23
1005.57	226.25
1005.86	226.23
1006.15	226.26
1006.44	226.23
1006.72	226.24
1007.01	226.24
1007.30	226.23
1007.59	226.24
1007.88	226.24
1008.17	226.20
1008.45	226.11
1008.74	226.07
1009.03	226.03
1009.32	226.02
1009.60	225.98
1009.89	225.95
1010.18	225.92
1010.47	225.87
1010.76	225.81
1011.04	225.78
1011.33	225.78
1011.62	225.74
1011.91	225.77
1012.19	225.76
1012.48	225.77
1012.77	225.74
1013.05	225.78
1013.34	225.78
1013.63	225.75
1013.92	225.74
1014.20	225.75
1014.49	225.79
1014.78	225.79
1015.06	225.75
1015.35	225.76
1015.64	225.80
1015.92	225.81
1016.21	225.82
1016.50	225.81
1016.78	225.84
1017.07	225.84
1017.36	225.78
1017.64	225.77
1017.93	225.75
1018.22	225.72
1018.50	225.73
1018.79	225.75
1019.08	225.69
1019.36	225.71
1019.65	225.69
1019.93	225.73
1020.22	225.75
1020.51	225.77
1020.79	225.74
1021.08	225.71
1021.36	225.81
1021.65	225.98
1021.94	225.31
1022.22	226.29
1022.51	225.33
1022.79	226.73
1023.08	225.80
1023.36	226.74
1023.65	225.26
>>>>>End Processed Spectral Data<<<<<
