SpectraSuite Data File
++++++++++++++++++++++++++++++++++++
Date: Fri Feb 01 15:25:04 EST 2013
User: group
Dark Spectrum Present: No
Reference Spectrum Present: No
Number of Sampled Component Spectra: 1
Spectrometers: USB2E7196
Integration Time (usec): 35000 (USB2E7196)
Spectra Averaged: 100 (USB2E7196)
Boxcar Smoothing: 10 (USB2E7196)
Correct for Electrical Dark: No (USB2E7196)
Strobe/Lamp Enabled: No (USB2E7196)
Correct for Detector Non-linearity: No (USB2E7196)
Correct for Stray Light: No (USB2E7196)
Number of Pixels in Processed Spectrum: 2048
>>>>>Begin Processed Spectral Data<<<<<
339.09	0.00
339.48	215.42
339.86	216.96
340.24	218.00
340.63	220.30
341.01	222.06
341.39	222.49
341.78	223.66
342.16	224.72
342.54	225.22
342.93	213.85
343.31	224.68
343.69	225.21
344.07	225.66
344.46	226.06
344.84	226.41
345.22	226.63
345.60	226.85
345.99	227.04
346.37	227.17
346.75	227.29
347.13	227.35
347.52	227.37
347.90	227.46
348.28	227.47
348.66	227.50
349.05	227.46
349.43	227.48
349.81	227.49
350.19	227.52
350.57	227.58
350.96	227.65
351.34	227.70
351.72	227.78
352.10	227.87
352.48	227.96
352.87	228.01
353.25	228.13
353.63	228.19
354.01	228.21
354.39	228.28
354.77	228.36
355.15	228.41
355.54	228.47
355.92	228.47
356.30	228.50
356.68	228.60
357.06	228.65
357.44	228.72
357.82	228.79
358.20	228.84
358.58	228.93
358.97	228.96
359.35	229.00
359.73	229.06
360.11	229.10
360.49	229.12
360.87	229.16
361.25	229.19
361.63	229.21
362.01	229.26
362.39	229.27
362.77	229.30
363.15	229.32
363.53	229.32
363.91	229.34
364.29	229.36
364.67	229.27
365.05	229.29
365.43	229.28
365.81	229.26
366.19	229.32
366.57	229.31
366.95	229.32
367.33	229.30
367.71	229.29
368.09	229.31
368.47	229.31
368.85	229.26
369.23	229.25
369.61	229.23
369.99	229.21
370.37	229.17
370.75	229.17
371.13	229.13
371.51	229.09
371.89	229.04
372.27	229.01
372.65	228.97
373.03	228.94
373.41	228.89
373.78	228.84
374.16	228.72
374.54	228.62
374.92	228.53
375.30	228.48
375.68	228.38
376.06	228.32
376.44	228.26
376.82	228.19
377.19	228.09
377.57	228.04
377.95	227.96
378.33	227.88
378.71	227.76
379.09	227.71
379.47	227.63
379.84	227.56
380.22	227.46
380.60	227.37
380.98	227.25
381.36	227.21
381.73	227.11
382.11	227.08
382.49	227.03
382.87	226.97
383.25	226.88
383.62	226.95
384.00	226.85
384.38	226.80
384.76	226.81
385.13	226.81
385.51	226.76
385.89	226.71
386.27	226.71
386.64	226.70
387.02	226.64
387.40	226.59
387.78	226.57
388.15	226.57
388.53	226.58
388.91	226.57
389.29	226.51
389.66	226.52
390.04	226.47
390.42	226.45
390.79	226.44
391.17	226.46
391.55	226.31
391.92	226.33
392.30	226.34
392.68	226.30
393.05	226.29
393.43	226.30
393.81	226.33
394.18	226.32
394.56	226.35
394.94	226.41
395.31	226.45
395.69	226.55
396.06	226.57
396.44	226.60
396.82	226.65
397.19	226.75
397.57	226.79
397.95	226.90
398.32	226.97
398.70	227.02
399.07	227.14
399.45	227.24
399.82	227.30
400.20	227.38
400.58	227.48
400.95	227.53
401.33	227.63
401.70	227.80
402.08	227.89
402.45	227.97
402.83	228.08
403.20	228.23
403.58	228.32
403.95	228.46
404.33	228.61
404.71	228.74
405.08	228.95
405.46	229.11
405.83	229.24
406.21	229.42
406.58	229.61
406.96	229.76
407.33	229.94
407.70	230.14
408.08	230.42
408.45	230.63
408.83	230.86
409.20	231.04
409.58	231.19
409.95	231.44
410.33	231.69
410.70	231.93
411.08	232.19
411.45	232.48
411.82	232.79
412.20	233.12
412.57	233.53
412.95	233.81
413.32	234.21
413.69	234.62
414.07	235.03
414.44	235.53
414.82	235.98
415.19	236.49
415.56	237.02
415.94	237.55
416.31	238.16
416.68	238.79
417.06	239.48
417.43	240.14
417.81	240.92
418.18	241.71
418.55	242.56
418.93	243.41
419.30	244.30
419.67	245.22
420.04	246.17
420.42	247.16
420.79	248.33
421.16	249.46
421.54	250.63
421.91	251.85
422.28	253.09
422.66	254.43
423.03	255.76
423.40	257.15
423.77	258.55
424.15	259.98
424.52	261.51
424.89	263.17
425.26	264.77
425.64	266.23
426.01	267.81
426.38	269.46
426.75	271.15
427.13	272.87
427.50	274.68
427.87	276.59
428.24	278.44
428.61	280.19
428.99	282.14
429.36	284.26
429.73	286.32
430.10	288.31
430.47	290.38
430.85	292.47
431.22	294.70
431.59	297.08
431.96	299.35
432.33	301.80
432.70	304.17
433.08	306.96
433.45	309.62
433.82	312.27
434.19	315.20
434.56	318.05
434.93	320.74
435.30	323.39
435.68	326.27
436.05	329.13
436.42	331.88
436.79	334.42
437.16	337.08
437.53	339.89
437.90	342.71
438.27	345.43
438.64	348.25
439.01	350.82
439.38	353.10
439.75	355.27
440.13	357.78
440.50	360.10
440.87	361.94
441.24	363.86
441.61	365.99
441.98	367.49
442.35	369.29
442.72	371.12
443.09	372.91
443.46	373.89
443.83	374.48
444.20	375.02
444.57	375.81
444.94	376.12
445.31	376.49
445.68	376.88
446.05	376.96
446.42	376.62
446.79	376.23
447.16	375.71
447.53	375.37
447.90	374.26
448.27	373.07
448.64	371.48
449.01	370.37
449.37	368.40
449.74	366.51
450.11	364.23
450.48	361.73
450.85	359.20
451.22	357.06
451.59	355.05
451.96	353.18
452.33	350.60
452.70	348.27
453.07	345.44
453.43	342.51
453.80	339.77
454.17	337.08
454.54	334.49
454.91	331.80
455.28	329.12
455.65	326.62
456.02	324.25
456.38	322.11
456.75	319.43
457.12	317.19
457.49	314.92
457.86	312.74
458.23	310.89
458.59	308.86
458.96	306.78
459.33	304.89
459.70	302.92
460.07	301.41
460.43	299.66
460.80	298.00
461.17	296.56
461.54	295.04
461.91	293.59
462.27	292.14
462.64	290.89
463.01	289.54
463.38	288.20
463.74	286.76
464.11	285.62
464.48	284.59
464.85	283.48
465.21	282.59
465.58	281.67
465.95	280.59
466.32	279.65
466.68	278.73
467.05	277.86
467.42	277.04
467.78	276.12
468.15	275.24
468.52	274.58
468.88	273.77
469.25	272.98
469.62	272.37
469.98	271.74
470.35	271.11
470.72	270.50
471.08	269.86
471.45	269.32
471.82	268.74
472.18	268.13
472.55	267.62
472.92	267.09
473.28	266.62
473.65	266.17
474.02	265.73
474.38	265.36
474.75	265.00
475.11	264.61
475.48	264.32
475.85	264.12
476.21	263.90
476.58	263.64
476.94	263.52
477.31	263.35
477.67	263.14
478.04	262.99
478.41	262.92
478.77	262.93
479.14	262.91
479.50	262.95
479.87	263.02
480.23	263.15
480.60	263.24
480.96	263.34
481.33	263.52
481.69	263.67
482.06	263.86
482.42	264.06
482.79	264.30
483.15	264.59
483.52	264.95
483.88	265.30
484.25	265.70
484.61	266.10
484.98	266.55
485.34	267.13
485.71	267.76
486.07	268.35
486.44	268.93
486.80	269.59
487.17	270.31
487.53	271.13
487.90	271.97
488.26	272.88
488.62	273.86
488.99	274.85
489.35	275.92
489.72	277.07
490.08	278.27
490.44	279.55
490.81	280.90
491.17	282.24
491.54	283.70
491.90	285.25
492.26	286.90
492.63	288.65
492.99	290.41
493.36	292.28
493.72	294.36
494.08	296.45
494.45	298.75
494.81	301.16
495.17	303.61
495.54	306.22
495.90	308.94
496.26	311.73
496.63	314.70
496.99	317.83
497.35	321.10
497.72	324.50
498.08	327.98
498.44	331.64
498.80	335.56
499.17	339.66
499.53	343.83
499.89	348.23
500.26	352.73
500.62	357.42
500.98	362.40
501.34	367.46
501.71	372.80
502.07	378.16
502.43	383.74
502.79	389.57
503.16	395.64
503.52	401.91
503.88	408.33
504.24	414.97
504.60	421.90
504.97	429.00
505.33	436.31
505.69	444.08
506.05	451.82
506.41	459.67
506.78	467.81
507.14	476.25
507.50	484.94
507.86	494.01
508.22	503.22
508.59	512.38
508.95	522.03
509.31	531.82
509.67	541.98
510.03	552.23
510.39	562.73
510.75	573.53
511.12	584.48
511.48	595.77
511.84	607.20
512.20	618.63
512.56	630.61
512.92	642.83
513.28	655.08
513.64	667.64
514.00	680.39
514.37	693.25
514.73	706.27
515.09	719.38
515.45	732.68
515.81	746.25
516.17	760.31
516.53	774.33
516.89	788.48
517.25	802.61
517.61	817.09
517.97	831.62
518.33	846.10
518.69	860.89
519.05	875.90
519.41	891.11
519.77	906.73
520.13	922.15
520.49	937.54
520.85	952.95
521.21	968.75
521.57	985.11
521.93	1001.02
522.29	1017.55
522.65	1033.79
523.01	1050.02
523.37	1066.19
523.73	1082.40
524.09	1098.65
524.45	1115.20
524.81	1132.02
525.17	1148.99
525.53	1165.96
525.89	1182.90
526.25	1199.76
526.61	1216.29
526.97	1233.11
527.33	1249.68
527.68	1266.39
528.04	1283.00
528.40	1299.85
528.76	1316.93
529.12	1333.50
529.48	1350.48
529.84	1366.61
530.20	1383.37
530.56	1400.44
530.91	1417.85
531.27	1434.69
531.63	1451.21
531.99	1467.77
532.35	1483.81
532.71	1499.61
533.07	1515.97
533.42	1531.90
533.78	1547.95
534.14	1564.17
534.50	1579.64
534.86	1595.53
535.21	1610.74
535.57	1626.75
535.93	1642.11
536.29	1656.99
536.65	1672.15
537.00	1686.99
537.36	1702.30
537.72	1716.94
538.08	1731.39
538.44	1745.38
538.79	1759.31
539.15	1773.00
539.51	1786.81
539.87	1801.21
540.22	1815.05
540.58	1828.94
540.94	1842.33
541.29	1855.45
541.65	1868.28
542.01	1881.51
542.37	1893.89
542.72	1906.50
543.08	1918.30
543.44	1930.85
543.79	1942.19
544.15	1953.18
544.51	1964.81
544.87	1975.79
545.22	1986.50
545.58	1996.83
545.94	2006.42
546.29	2016.30
546.65	2026.15
547.01	2035.41
547.36	2044.10
547.72	2052.71
548.07	2060.40
548.43	2068.64
548.79	2076.54
549.14	2084.07
549.50	2091.55
549.86	2099.42
550.21	2106.59
550.57	2113.72
550.92	2120.20
551.28	2127.26
551.64	2134.32
551.99	2140.85
552.35	2147.00
552.70	2153.18
553.06	2159.11
553.41	2165.60
553.77	2171.68
554.13	2177.89
554.48	2184.01
554.84	2189.39
555.19	2194.61
555.55	2199.72
555.90	2204.21
556.26	2209.11
556.61	2213.86
556.97	2217.95
557.32	2221.96
557.68	2226.17
558.03	2230.45
558.39	2234.35
558.74	2238.90
559.10	2242.81
559.45	2246.32
559.81	2250.79
560.16	2254.61
560.52	2257.83
560.87	2261.25
561.23	2263.79
561.58	2266.69
561.94	2269.23
562.29	2271.74
562.64	2274.45
563.00	2277.23
563.35	2280.64
563.71	2283.76
564.06	2286.99
564.42	2289.80
564.77	2292.21
565.12	2294.48
565.48	2296.33
565.83	2298.11
566.19	2299.38
566.54	2300.35
566.89	2301.56
567.25	2302.03
567.60	2303.30
567.96	2305.08
568.31	2305.85
568.66	2307.04
569.02	2307.64
569.37	2307.88
569.72	2308.59
570.08	2308.67
570.43	2308.46
570.78	2307.77
571.14	2306.16
571.49	2304.78
571.84	2304.43
572.20	2303.19
572.55	2302.04
572.90	2300.50
573.26	2298.95
573.61	2297.16
573.96	2295.21
574.31	2292.22
574.67	2289.06
575.02	2285.43
575.37	2281.91
575.72	2278.07
576.08	2274.71
576.43	2271.35
576.78	2267.68
577.13	2264.47
577.49	2261.23
577.84	2257.78
578.19	2253.98
578.54	2250.35
578.90	2245.98
579.25	2240.35
579.60	2235.41
579.95	2230.35
580.30	2225.30
580.66	2220.23
581.01	2215.30
581.36	2210.23
581.71	2205.85
582.06	2201.40
582.42	2196.77
582.77	2191.34
583.12	2186.60
583.47	2181.68
583.82	2176.30
584.17	2170.97
584.53	2165.36
584.88	2159.63
585.23	2153.70
585.58	2148.20
585.93	2142.61
586.28	2137.86
586.63	2132.74
586.98	2127.43
587.34	2122.77
587.69	2117.70
588.04	2112.19
588.39	2106.43
588.74	2100.03
589.09	2093.81
589.44	2086.90
589.79	2080.97
590.14	2075.33
590.49	2068.64
590.84	2062.21
591.19	2056.20
591.54	2049.69
591.89	2042.24
592.25	2035.41
592.60	2028.32
592.95	2020.55
593.30	2013.08
593.65	2005.28
594.00	1998.21
594.35	1991.11
594.70	1982.94
595.05	1975.63
595.40	1968.37
595.75	1960.75
596.10	1954.36
596.45	1947.51
596.80	1941.32
597.15	1934.53
597.50	1927.34
597.85	1921.03
598.19	1914.21
598.54	1907.19
598.89	1900.47
599.24	1894.47
599.59	1887.73
599.94	1881.41
600.29	1875.13
600.64	1868.66
600.99	1861.11
601.34	1854.14
601.69	1847.04
602.04	1840.01
602.39	1832.72
602.74	1825.71
603.08	1818.93
603.43	1812.17
603.78	1804.95
604.13	1797.71
604.48	1790.29
604.83	1783.40
605.18	1776.10
605.53	1768.07
605.87	1759.92
606.22	1752.61
606.57	1744.71
606.92	1737.26
607.27	1729.91
607.62	1722.98
607.96	1715.59
608.31	1709.04
608.66	1701.45
609.01	1693.90
609.36	1686.28
609.70	1678.27
610.05	1670.18
610.40	1662.55
610.75	1654.18
611.10	1646.51
611.44	1638.14
611.79	1630.24
612.14	1621.57
612.49	1612.63
612.83	1604.32
613.18	1596.20
613.53	1588.18
613.88	1579.61
614.22	1571.45
614.57	1562.96
614.92	1554.95
615.27	1547.26
615.61	1538.83
615.96	1530.88
616.31	1523.23
616.65	1515.91
617.00	1508.32
617.35	1500.72
617.70	1492.25
618.04	1483.83
618.39	1475.42
618.74	1467.71
619.08	1459.30
619.43	1451.74
619.78	1444.79
620.12	1437.54
620.47	1430.10
620.82	1421.93
621.16	1414.57
621.51	1406.97
621.85	1399.38
622.20	1390.78
622.55	1382.52
622.89	1374.84
623.24	1367.11
623.59	1359.82
623.93	1352.31
624.28	1345.01
624.62	1337.45
624.97	1330.32
625.32	1323.64
625.66	1316.72
626.01	1309.53
626.35	1302.14
626.70	1294.29
627.04	1286.50
627.39	1278.85
627.73	1271.41
628.08	1264.47
628.43	1257.13
628.77	1249.70
629.12	1242.05
629.46	1234.91
629.81	1227.63
630.15	1220.29
630.50	1212.93
630.84	1204.71
631.19	1196.79
631.53	1189.37
631.88	1181.85
632.22	1174.22
632.57	1166.78
632.91	1159.27
633.26	1151.85
633.60	1144.58
633.95	1137.71
634.29	1130.77
634.64	1124.05
634.98	1116.70
635.32	1109.52
635.67	1102.94
636.01	1096.35
636.36	1089.57
636.70	1083.12
637.05	1076.46
637.39	1070.02
637.73	1063.50
638.08	1057.67
638.42	1051.69
638.77	1045.19
639.11	1038.61
639.45	1032.23
639.80	1025.68
640.14	1019.15
640.49	1012.60
640.83	1006.18
641.17	999.76
641.52	993.44
641.86	987.02
642.20	981.19
642.55	975.01
642.89	968.43
643.23	961.88
643.58	956.13
643.92	949.86
644.26	943.80
644.61	937.84
644.95	931.82
645.29	925.11
645.64	918.28
645.98	912.04
646.32	906.23
646.66	900.16
647.01	894.40
647.35	888.75
647.69	882.99
648.04	877.48
648.38	871.71
648.72	865.66
649.06	859.56
649.41	853.65
649.75	847.58
650.09	841.64
650.43	835.89
650.78	829.72
651.12	823.78
651.46	818.08
651.80	812.26
652.14	806.86
652.49	801.43
652.83	796.34
653.17	790.59
653.51	784.80
653.85	779.44
654.20	773.65
654.54	767.61
654.88	761.82
655.22	755.95
655.56	750.28
655.90	744.76
656.25	739.50
656.59	734.15
656.93	729.10
657.27	723.96
657.61	718.51
657.95	713.34
658.29	708.24
658.64	702.99
658.98	697.73
659.32	692.25
659.66	687.13
660.00	681.82
660.34	676.93
660.68	672.07
661.02	667.06
661.36	662.38
661.70	657.96
662.05	653.71
662.39	649.34
662.73	644.88
663.07	640.60
663.41	636.17
663.75	631.71
664.09	627.17
664.43	622.81
664.77	618.67
665.11	614.47
665.45	610.41
665.79	606.34
666.13	602.20
666.47	598.18
666.81	593.99
667.15	589.83
667.49	585.89
667.83	582.09
668.17	578.16
668.51	574.13
668.85	570.10
669.19	566.17
669.53	562.35
669.87	558.47
670.21	554.76
670.55	551.12
670.89	547.68
671.23	544.26
671.57	540.78
671.91	537.22
672.25	533.75
672.58	530.21
672.92	526.81
673.26	523.59
673.60	520.38
673.94	517.30
674.28	514.45
674.62	511.49
674.96	508.41
675.30	505.50
675.64	502.57
675.97	499.79
676.31	496.98
676.65	494.09
676.99	491.44
677.33	488.61
677.67	485.80
678.01	482.74
678.34	479.69
678.68	476.81
679.02	474.00
679.36	471.22
679.70	468.47
680.04	465.68
680.37	462.86
680.71	460.10
681.05	457.54
681.39	454.82
681.73	452.21
682.06	449.66
682.40	447.14
682.74	444.61
683.08	442.14
683.42	439.54
683.75	437.07
684.09	434.50
684.43	432.01
684.77	429.55
685.10	427.25
685.44	424.97
685.78	422.74
686.12	420.52
686.45	418.27
686.79	416.01
687.13	413.84
687.46	411.67
687.80	409.52
688.14	407.30
688.48	405.25
688.81	402.96
689.15	400.82
689.49	398.65
689.82	396.60
690.16	394.48
690.50	392.52
690.83	390.55
691.17	388.57
691.51	386.73
691.84	384.89
692.18	382.94
692.52	380.93
692.85	378.97
693.19	377.11
693.52	375.28
693.86	373.46
694.20	371.69
694.53	369.91
694.87	368.08
695.21	366.29
695.54	364.47
695.88	362.84
696.21	361.12
696.55	359.50
696.88	357.82
697.22	356.18
697.56	354.56
697.89	352.95
698.23	351.34
698.56	349.68
698.90	348.08
699.23	346.42
699.57	344.92
699.90	343.38
700.24	341.80
700.58	340.25
700.91	338.79
701.25	337.35
701.58	335.97
701.92	334.61
702.25	333.23
702.59	331.83
702.92	330.45
703.26	329.16
703.59	327.84
703.93	326.63
704.26	325.41
704.60	324.12
704.93	322.81
705.26	321.56
705.60	320.43
705.93	319.31
706.27	318.33
706.60	317.26
706.94	316.21
707.27	315.10
707.61	314.05
707.94	313.02
708.27	311.95
708.61	310.91
708.94	309.89
709.28	308.92
709.61	308.01
709.94	307.08
710.28	306.05
710.61	305.07
710.95	304.05
711.28	303.12
711.61	302.18
711.95	301.28
712.28	300.35
712.61	299.33
712.95	298.39
713.28	297.50
713.61	296.58
713.95	295.67
714.28	294.85
714.61	293.99
714.95	293.14
715.28	292.26
715.61	291.38
715.95	290.56
716.28	289.75
716.61	288.89
716.95	288.08
717.28	287.35
717.61	286.60
717.94	285.83
718.28	285.02
718.61	284.27
718.94	283.57
719.27	282.91
719.61	282.27
719.94	281.60
720.27	280.86
720.60	280.21
720.94	279.59
721.27	279.00
721.60	278.43
721.93	277.77
722.27	277.23
722.60	276.68
722.93	276.05
723.26	275.46
723.59	274.89
723.93	274.33
724.26	273.80
724.59	273.24
724.92	272.71
725.25	272.24
725.59	271.73
725.92	271.24
726.25	270.71
726.58	270.21
726.91	269.73
727.24	269.25
727.57	268.80
727.91	268.32
728.24	267.82
728.57	267.32
728.90	266.91
729.23	266.41
729.56	266.01
729.89	265.56
730.22	265.09
730.55	264.66
730.89	264.23
731.22	263.80
731.55	263.34
731.88	262.98
732.21	262.52
732.54	262.07
732.87	261.62
733.20	261.23
733.53	260.86
733.86	260.47
734.19	260.08
734.52	259.69
734.85	259.34
735.18	258.95
735.51	258.61
735.84	258.25
736.17	257.87
736.50	257.45
736.83	257.26
737.16	256.97
737.49	256.63
737.82	256.25
738.15	255.91
738.48	255.61
738.81	255.26
739.14	254.95
739.47	254.63
739.80	254.34
740.13	254.05
740.46	253.68
740.79	253.37
741.12	253.09
741.45	252.78
741.78	252.44
742.11	252.15
742.44	251.83
742.77	251.52
743.10	251.22
743.43	250.91
743.75	250.54
744.08	250.35
744.41	250.06
744.74	249.81
745.07	249.51
745.40	249.27
745.73	249.02
746.06	248.74
746.39	248.47
746.71	248.22
747.04	247.98
747.37	247.76
747.70	247.49
748.03	247.25
748.36	247.01
748.68	246.81
749.01	246.57
749.34	246.33
749.67	246.11
750.00	245.93
750.33	245.78
750.65	245.55
750.98	245.23
751.31	245.01
751.64	244.82
751.97	244.69
752.29	244.46
752.62	244.21
752.95	244.02
753.28	243.82
753.60	243.61
753.93	243.38
754.26	243.19
754.59	242.98
754.91	242.76
755.24	242.58
755.57	242.37
755.90	242.19
756.22	241.99
756.55	241.81
756.88	241.57
757.20	241.32
757.53	241.11
757.86	240.93
758.19	240.79
758.51	240.61
758.84	240.36
759.17	240.21
759.49	240.06
759.82	239.94
760.15	239.79
760.47	239.59
760.80	239.45
761.13	239.32
761.45	239.17
761.78	239.01
762.11	238.86
762.43	238.72
762.76	238.58
763.08	238.48
763.41	238.32
763.74	238.19
764.06	238.06
764.39	237.92
764.71	237.77
765.04	237.58
765.37	237.44
765.69	237.34
766.02	237.20
766.34	237.05
766.67	236.89
767.00	236.78
767.32	236.77
767.65	236.74
767.97	236.59
768.30	236.48
768.62	236.38
768.95	236.26
769.27	236.15
769.60	236.04
769.92	235.88
770.25	235.75
770.57	235.70
770.90	235.57
771.22	235.48
771.55	235.39
771.87	235.30
772.20	235.21
772.52	235.19
772.85	235.17
773.17	235.09
773.50	235.01
773.82	234.88
774.15	234.71
774.47	234.49
774.80	234.40
775.12	234.33
775.45	234.24
775.77	234.17
776.09	234.05
776.42	233.98
776.74	233.95
777.07	233.87
777.39	233.75
777.72	233.67
778.04	233.60
778.36	233.54
778.69	233.48
779.01	233.41
779.33	233.26
779.66	233.10
779.98	233.02
780.31	232.96
780.63	232.96
780.95	232.94
781.28	232.92
781.60	232.85
781.92	232.78
782.25	232.72
782.57	232.66
782.89	232.63
783.22	232.54
783.54	232.46
783.86	232.41
784.19	232.36
784.51	232.38
784.83	232.33
785.16	232.26
785.48	232.22
785.80	232.21
786.12	232.18
786.45	232.14
786.77	232.10
787.09	232.03
787.42	231.96
787.74	231.89
788.06	231.84
788.38	231.80
788.71	231.76
789.03	231.74
789.35	231.71
789.67	231.67
789.99	231.67
790.32	231.61
790.64	231.60
790.96	231.65
791.28	231.56
791.61	231.54
791.93	231.52
792.25	231.50
792.57	231.51
792.89	231.43
793.21	231.41
793.54	231.36
793.86	231.33
794.18	231.31
794.50	231.26
794.82	231.21
795.14	231.19
795.47	231.15
795.79	231.11
796.11	231.07
796.43	231.03
796.75	230.99
797.07	231.00
797.39	230.98
797.71	230.86
798.04	230.82
798.36	230.79
798.68	230.76
799.00	230.71
799.32	230.63
799.64	230.65
799.96	230.61
800.28	230.56
800.60	230.53
800.92	230.50
801.24	230.48
801.56	230.47
801.89	230.42
802.21	230.40
802.53	230.33
802.85	230.33
803.17	230.32
803.49	230.26
803.81	230.19
804.13	230.11
804.45	230.08
804.77	230.08
805.09	230.01
805.41	229.99
805.73	229.95
806.05	229.91
806.37	229.88
806.69	229.85
807.01	229.84
807.33	229.80
807.65	229.73
807.97	229.75
808.28	229.71
808.60	229.65
808.92	229.60
809.24	229.68
809.56	229.59
809.88	229.52
810.20	229.53
810.52	229.52
810.84	229.49
811.16	229.42
811.48	229.36
811.80	229.38
812.12	229.33
812.43	229.28
812.75	229.23
813.07	229.17
813.39	229.16
813.71	229.12
814.03	229.10
814.35	229.10
814.67	229.01
814.98	228.97
815.30	228.98
815.62	228.95
815.94	228.80
816.26	228.85
816.58	228.80
816.89	228.77
817.21	228.75
817.53	228.74
817.85	228.70
818.17	228.69
818.48	228.62
818.80	228.61
819.12	228.60
819.44	228.57
819.76	228.54
820.07	228.48
820.39	228.47
820.71	228.44
821.03	228.41
821.34	228.40
821.66	228.38
821.98	228.37
822.30	228.36
822.61	228.42
822.93	228.36
823.25	228.37
823.57	228.33
823.88	228.33
824.20	228.33
824.52	228.36
824.83	228.34
825.15	228.35
825.47	228.38
825.79	228.36
826.10	228.38
826.42	228.36
826.74	228.36
827.05	228.37
827.37	228.38
827.69	228.36
828.00	228.36
828.32	228.37
828.64	228.33
828.95	228.40
829.27	228.36
829.58	228.34
829.90	228.36
830.22	228.38
830.53	228.32
830.85	228.30
831.17	228.30
831.48	228.31
831.80	228.30
832.11	228.28
832.43	228.28
832.75	228.26
833.06	228.32
833.38	228.33
833.69	228.31
834.01	228.28
834.32	228.28
834.64	228.25
834.96	228.26
835.27	228.29
835.59	228.24
835.90	228.23
836.22	228.24
836.53	228.20
836.85	228.17
837.16	228.32
837.48	228.35
837.79	228.37
838.11	228.34
838.42	228.34
838.74	228.32
839.05	228.30
839.37	228.32
839.68	228.30
840.00	228.28
840.31	228.30
840.63	228.34
840.94	228.32
841.26	228.30
841.57	228.28
841.88	228.26
842.20	228.24
842.51	228.22
842.83	228.22
843.14	228.30
843.46	228.30
843.77	228.21
844.08	228.19
844.40	228.15
844.71	228.19
845.03	228.15
845.34	228.16
845.65	228.13
845.97	228.12
846.28	228.12
846.60	228.10
846.91	228.06
847.22	228.04
847.54	228.08
847.85	228.11
848.16	228.10
848.48	228.10
848.79	228.13
849.10	228.13
849.42	228.12
849.73	228.01
850.04	228.01
850.36	227.95
850.67	227.96
850.98	227.96
851.30	227.93
851.61	227.93
851.92	227.88
852.23	227.89
852.55	227.87
852.86	227.84
853.17	227.85
853.49	227.87
853.80	227.87
854.11	227.85
854.42	227.86
854.74	227.82
855.05	227.81
855.36	227.74
855.67	227.70
855.99	227.69
856.30	227.81
856.61	227.79
856.92	227.78
857.23	227.78
857.55	227.73
857.86	227.72
858.17	227.75
858.48	227.76
858.79	227.74
859.11	227.75
859.42	227.73
859.73	227.70
860.04	227.68
860.35	227.65
860.66	227.62
860.98	227.61
861.29	227.64
861.60	227.62
861.91	227.65
862.22	227.63
862.53	227.63
862.84	227.50
863.16	227.55
863.47	227.56
863.78	227.52
864.09	227.58
864.40	227.57
864.71	227.58
865.02	227.57
865.33	227.59
865.64	227.55
865.95	227.55
866.27	227.62
866.58	227.62
866.89	227.64
867.20	227.65
867.51	227.64
867.82	227.61
868.13	227.63
868.44	227.63
868.75	227.69
869.06	227.72
869.37	227.77
869.68	227.72
869.99	227.76
870.30	227.79
870.61	227.78
870.92	227.78
871.23	227.76
871.54	227.79
871.85	227.78
872.16	227.80
872.47	227.82
872.78	227.78
873.09	227.79
873.40	227.79
873.71	227.83
874.02	227.83
874.33	227.83
874.64	227.82
874.95	227.87
875.26	227.84
875.56	227.80
875.87	227.79
876.18	227.82
876.49	227.89
876.80	227.88
877.11	227.87
877.42	227.88
877.73	227.88
878.04	227.85
878.35	227.87
878.66	227.90
878.96	227.86
879.27	227.84
879.58	227.83
879.89	227.79
880.20	227.74
880.51	227.73
880.82	227.72
881.12	227.74
881.43	227.67
881.74	227.67
882.05	227.70
882.36	227.69
882.67	227.67
882.97	227.59
883.28	227.60
883.59	227.58
883.90	227.54
884.21	227.56
884.51	227.53
884.82	227.51
885.13	227.48
885.44	227.48
885.74	227.49
886.05	227.49
886.36	227.50
886.67	227.47
886.98	227.51
887.28	227.52
887.59	227.51
887.90	227.53
888.20	227.49
888.51	227.46
888.82	227.44
889.13	227.44
889.43	227.48
889.74	227.44
890.05	227.43
890.35	227.45
890.66	227.42
890.97	227.44
891.28	227.40
891.58	227.38
891.89	227.37
892.20	227.38
892.50	227.34
892.81	227.33
893.12	227.36
893.42	227.28
893.73	227.25
894.04	227.23
894.34	227.22
894.65	227.21
894.95	227.19
895.26	227.19
895.57	227.24
895.87	227.15
896.18	227.16
896.48	227.16
896.79	227.15
897.10	227.18
897.40	227.17
897.71	227.19
898.01	227.20
898.32	227.21
898.63	227.21
898.93	227.21
899.24	227.21
899.54	227.22
899.85	227.23
900.15	227.24
900.46	227.27
900.76	227.25
901.07	227.28
901.38	227.28
901.68	227.32
901.99	227.23
902.29	227.26
902.60	227.24
902.90	227.21
903.21	227.20
903.51	227.17
903.82	227.17
904.12	227.20
904.43	227.21
904.73	227.22
905.03	227.18
905.34	227.29
905.64	227.27
905.95	227.27
906.25	227.28
906.56	227.31
906.86	227.31
907.17	227.33
907.47	227.34
907.77	227.34
908.08	227.32
908.38	227.38
908.69	227.37
908.99	227.41
909.30	227.44
909.60	227.47
909.90	227.51
910.21	227.48
910.51	227.44
910.81	227.43
911.12	227.44
911.42	227.49
911.73	227.40
912.03	227.44
912.33	227.45
912.64	227.42
912.94	227.42
913.24	227.41
913.55	227.39
913.85	227.37
914.15	227.38
914.46	227.37
914.76	227.36
915.06	227.36
915.37	227.33
915.67	227.34
915.97	227.31
916.27	227.28
916.58	227.29
916.88	227.35
917.18	227.37
917.49	227.41
917.79	227.38
918.09	227.39
918.39	227.42
918.70	227.42
919.00	227.46
919.30	227.47
919.60	227.45
919.91	227.44
920.21	227.47
920.51	227.42
920.81	227.41
921.12	227.40
921.42	227.39
921.72	227.40
922.02	227.37
922.32	227.41
922.63	227.38
922.93	227.45
923.23	227.39
923.53	227.36
923.83	227.31
924.13	227.31
924.44	227.31
924.74	227.29
925.04	227.26
925.34	227.27
925.64	227.27
925.94	227.28
926.24	227.32
926.55	227.28
926.85	227.31
927.15	227.32
927.45	227.31
927.75	227.30
928.05	227.27
928.35	227.28
928.65	227.26
928.95	227.26
929.26	227.18
929.56	227.24
929.86	227.25
930.16	227.21
930.46	227.20
930.76	227.17
931.06	227.14
931.36	227.14
931.66	227.12
931.96	227.11
932.26	227.12
932.56	227.10
932.86	227.10
933.16	227.07
933.46	227.05
933.76	227.03
934.06	227.02
934.36	227.07
934.66	227.05
934.96	227.07
935.26	227.10
935.56	227.10
935.86	227.03
936.16	226.98
936.46	226.99
936.76	226.98
937.06	226.96
937.36	226.96
937.66	226.94
937.96	226.94
938.26	226.91
938.56	226.89
938.86	226.90
939.16	226.92
939.46	226.95
939.76	226.95
940.06	226.96
940.35	226.96
940.65	226.90
940.95	226.92
941.25	226.85
941.55	226.82
941.85	226.85
942.15	226.88
942.45	226.92
942.75	226.92
943.04	226.95
943.34	226.99
943.64	226.98
943.94	226.98
944.24	226.97
944.54	226.99
944.84	226.98
945.13	226.95
945.43	226.93
945.73	226.95
946.03	226.93
946.33	226.93
946.62	226.92
946.92	226.95
947.22	226.99
947.52	227.02
947.82	227.07
948.11	227.07
948.41	227.07
948.71	227.09
949.01	227.11
949.31	227.10
949.60	227.11
949.90	227.14
950.20	227.15
950.50	227.16
950.79	227.17
951.09	227.16
951.39	227.16
951.69	227.18
951.98	227.18
952.28	227.23
952.58	227.24
952.87	227.27
953.17	227.29
953.47	227.25
953.76	227.25
954.06	227.23
954.36	227.22
954.66	227.24
954.95	227.25
955.25	227.24
955.55	227.26
955.84	227.23
956.14	227.24
956.44	227.27
956.73	227.25
957.03	227.25
957.32	227.26
957.62	227.27
957.92	227.30
958.21	227.27
958.51	227.34
958.81	227.37
959.10	227.36
959.40	227.39
959.69	227.39
959.99	227.41
960.29	227.41
960.58	227.43
960.88	227.45
961.17	227.44
961.47	227.43
961.76	227.42
962.06	227.41
962.36	227.41
962.65	227.40
962.95	227.44
963.24	227.43
963.54	227.43
963.83	227.42
964.13	227.36
964.42	227.35
964.72	227.26
965.01	227.23
965.31	227.22
965.60	227.19
965.90	227.24
966.19	227.19
966.49	227.18
966.78	227.15
967.08	227.15
967.37	227.11
967.67	227.09
967.96	227.12
968.26	227.11
968.55	227.11
968.85	227.09
969.14	227.06
969.43	227.02
969.73	227.04
970.02	227.05
970.32	227.07
970.61	227.08
970.91	227.06
971.20	227.06
971.49	227.02
971.79	226.99
972.08	226.91
972.38	226.92
972.67	226.90
972.96	226.90
973.26	226.85
973.55	226.89
973.85	226.86
974.14	226.83
974.43	226.85
974.73	226.82
975.02	226.82
975.31	226.83
975.61	226.84
975.90	226.81
976.19	226.78
976.49	226.78
976.78	226.76
977.07	226.76
977.37	226.75
977.66	226.80
977.95	226.81
978.24	226.83
978.54	226.85
978.83	226.88
979.12	226.87
979.42	226.89
979.71	226.85
980.00	226.85
980.29	226.84
980.59	226.82
980.88	226.82
981.17	226.82
981.46	226.84
981.76	226.83
982.05	226.86
982.34	226.88
982.63	226.91
982.93	226.93
983.22	226.96
983.51	226.97
983.80	226.96
984.09	226.98
984.39	226.98
984.68	226.98
984.97	226.98
985.26	227.00
985.55	226.99
985.85	226.98
986.14	227.02
986.43	227.05
986.72	227.06
987.01	227.04
987.30	227.04
987.59	227.03
987.89	227.03
988.18	227.02
988.47	227.00
988.76	226.98
989.05	226.95
989.34	226.95
989.63	226.97
989.92	226.96
990.22	226.96
990.51	226.96
990.80	226.94
991.09	226.97
991.38	226.99
991.67	227.02
991.96	227.06
992.25	227.06
992.54	227.05
992.83	227.06
993.12	227.07
993.41	227.12
993.70	227.17
993.99	227.17
994.28	227.20
994.58	227.23
994.87	227.23
995.16	227.27
995.45	227.27
995.74	227.26
996.03	227.30
996.32	227.30
996.61	227.31
996.90	227.33
997.19	227.32
997.48	227.31
997.77	227.27
998.06	227.27
998.34	227.27
998.63	227.24
998.92	227.26
999.21	227.27
999.50	227.26
999.79	227.20
1000.08	227.24
1000.37	227.23
1000.66	227.19
1000.95	227.19
1001.24	227.21
1001.53	227.23
1001.82	227.25
1002.11	227.20
1002.40	227.20
1002.68	227.23
1002.97	227.27
1003.26	227.24
1003.55	227.21
1003.84	227.20
1004.13	227.23
1004.42	227.21
1004.71	227.23
1004.99	227.23
1005.28	227.24
1005.57	227.21
1005.86	227.22
1006.15	227.17
1006.44	227.12
1006.72	227.15
1007.01	227.16
1007.30	227.11
1007.59	227.06
1007.88	227.02
1008.17	227.04
1008.45	227.01
1008.74	226.95
1009.03	226.90
1009.32	226.91
1009.60	226.91
1009.89	226.93
1010.18	226.88
1010.47	226.88
1010.76	226.87
1011.04	226.84
1011.33	226.84
1011.62	226.86
1011.91	226.86
1012.19	226.87
1012.48	226.88
1012.77	226.89
1013.05	226.92
1013.34	226.92
1013.63	226.93
1013.92	226.94
1014.20	226.93
1014.49	226.93
1014.78	226.99
1015.06	226.97
1015.35	226.96
1015.64	226.96
1015.92	226.99
1016.21	227.02
1016.50	227.02
1016.78	227.05
1017.07	227.04
1017.36	227.06
1017.64	227.06
1017.93	227.05
1018.22	227.05
1018.50	227.05
1018.79	227.04
1019.08	226.98
1019.36	227.01
1019.65	227.02
1019.93	227.08
1020.22	227.10
1020.51	227.17
1020.79	227.13
1021.08	226.93
1021.36	226.80
1021.65	226.80
1021.94	226.67
1022.22	227.25
1022.51	226.91
1022.79	228.26
1023.08	227.45
1023.36	228.29
1023.65	226.55
>>>>>End Processed Spectral Data<<<<<
