SpectraSuite Data File
++++++++++++++++++++++++++++++++++++
Date: Fri Feb 01 16:29:07 EST 2013
User: group
Dark Spectrum Present: No
Reference Spectrum Present: No
Number of Sampled Component Spectra: 1
Spectrometers: USB2E7196
Integration Time (usec): 35000 (USB2E7196)
Spectra Averaged: 100 (USB2E7196)
Boxcar Smoothing: 10 (USB2E7196)
Correct for Electrical Dark: No (USB2E7196)
Strobe/Lamp Enabled: No (USB2E7196)
Correct for Detector Non-linearity: No (USB2E7196)
Correct for Stray Light: No (USB2E7196)
Number of Pixels in Processed Spectrum: 2048
>>>>>Begin Processed Spectral Data<<<<<
339.09	0.00
339.48	214.40
339.86	215.21
340.24	216.87
340.63	218.78
341.01	221.03
341.39	221.24
341.78	222.33
342.16	223.24
342.54	224.34
342.93	212.55
343.31	223.29
343.69	223.82
344.07	224.32
344.46	224.71
344.84	225.05
345.22	225.30
345.60	225.55
345.99	225.72
346.37	225.84
346.75	225.94
347.13	226.02
347.52	226.09
347.90	226.10
348.28	226.10
348.66	226.13
349.05	226.11
349.43	226.16
349.81	226.23
350.19	226.29
350.57	226.30
350.96	226.36
351.34	226.45
351.72	226.53
352.10	226.60
352.48	226.69
352.87	226.75
353.25	226.83
353.63	226.89
354.01	226.96
354.39	227.08
354.77	227.14
355.15	227.21
355.54	227.27
355.92	227.35
356.30	227.46
356.68	227.59
357.06	227.66
357.44	227.69
357.82	227.75
358.20	227.82
358.58	227.90
358.97	227.97
359.35	228.03
359.73	228.13
360.11	228.16
360.49	228.23
360.87	228.31
361.25	228.32
361.63	228.39
362.01	228.45
362.39	228.47
362.77	228.54
363.15	228.57
363.53	228.60
363.91	228.62
364.29	228.62
364.67	228.54
365.05	228.59
365.43	228.65
365.81	228.63
366.19	228.66
366.57	228.69
366.95	228.67
367.33	228.64
367.71	228.62
368.09	228.61
368.47	228.56
368.85	228.55
369.23	228.56
369.61	228.50
369.99	228.49
370.37	228.46
370.75	228.47
371.13	228.39
371.51	228.38
371.89	228.35
372.27	228.31
372.65	228.27
373.03	228.19
373.41	228.13
373.78	228.07
374.16	227.99
374.54	227.92
374.92	227.88
375.30	227.84
375.68	227.74
376.06	227.73
376.44	227.68
376.82	227.61
377.19	227.55
377.57	227.48
377.95	227.41
378.33	227.33
378.71	227.19
379.09	227.18
379.47	227.08
379.84	227.00
380.22	226.95
380.60	226.87
380.98	226.82
381.36	226.71
381.73	226.64
382.11	226.58
382.49	226.53
382.87	226.42
383.25	226.37
383.62	226.43
384.00	226.35
384.38	226.31
384.76	226.27
385.13	226.25
385.51	226.20
385.89	226.13
386.27	226.09
386.64	226.05
387.02	225.95
387.40	225.90
387.78	225.83
388.15	225.77
388.53	225.73
388.91	225.72
389.29	225.70
389.66	225.69
390.04	225.67
390.42	225.62
390.79	225.62
391.17	225.58
391.55	225.44
391.92	225.45
392.30	225.43
392.68	225.40
393.05	225.39
393.43	225.37
393.81	225.37
394.18	225.38
394.56	225.37
394.94	225.42
395.31	225.44
395.69	225.50
396.06	225.55
396.44	225.60
396.82	225.58
397.19	225.67
397.57	225.70
397.95	225.74
398.32	225.77
398.70	225.83
399.07	225.92
399.45	225.98
399.82	225.99
400.20	226.08
400.58	226.15
400.95	226.16
401.33	226.28
401.70	226.44
402.08	226.52
402.45	226.62
402.83	226.75
403.20	226.88
403.58	226.94
403.95	227.04
404.33	227.17
404.71	227.28
405.08	227.45
405.46	227.61
405.83	227.76
406.21	227.95
406.58	228.11
406.96	228.29
407.33	228.50
407.70	228.70
408.08	228.95
408.45	229.15
408.83	229.38
409.20	229.58
409.58	229.73
409.95	230.00
410.33	230.30
410.70	230.57
411.08	230.84
411.45	231.17
411.82	231.50
412.20	231.85
412.57	232.30
412.95	232.61
413.32	232.99
413.69	233.39
414.07	233.84
414.44	234.32
414.82	234.78
415.19	235.31
415.56	235.87
415.94	236.46
416.31	237.13
416.68	237.78
417.06	238.51
417.43	239.23
417.81	239.97
418.18	240.69
418.55	241.50
418.93	242.39
419.30	243.28
419.67	244.21
420.04	245.15
420.42	246.13
420.79	247.31
421.16	248.45
421.54	249.64
421.91	250.83
422.28	252.10
422.66	253.45
423.03	254.78
423.40	256.13
423.77	257.49
424.15	258.91
424.52	260.41
424.89	262.02
425.26	263.57
425.64	265.02
426.01	266.65
426.38	268.28
426.75	269.94
427.13	271.69
427.50	273.48
427.87	275.36
428.24	277.19
428.61	278.89
428.99	280.85
429.36	282.93
429.73	284.99
430.10	286.99
430.47	289.06
430.85	291.19
431.22	293.42
431.59	295.81
431.96	298.03
432.33	300.50
432.70	302.86
433.08	305.64
433.45	308.30
433.82	310.84
434.19	313.71
434.56	316.50
434.93	319.14
435.30	321.75
435.68	324.60
436.05	327.43
436.42	330.22
436.79	332.72
437.16	335.42
437.53	338.28
437.90	341.07
438.27	343.73
438.64	346.47
439.01	348.99
439.38	351.18
439.75	353.33
440.13	355.81
440.50	358.08
440.87	359.95
441.24	361.88
441.61	364.07
441.98	365.58
442.35	367.37
442.72	369.23
443.09	370.96
443.46	371.97
443.83	372.58
444.20	373.11
444.57	373.92
444.94	374.18
445.31	374.42
445.68	374.74
446.05	374.81
446.42	374.41
446.79	374.00
447.16	373.58
447.53	373.26
447.90	372.12
448.27	370.97
448.64	369.35
449.01	368.18
449.37	366.21
449.74	364.27
450.11	362.03
450.48	359.55
450.85	357.08
451.22	354.93
451.59	352.91
451.96	350.94
452.33	348.31
452.70	345.94
453.07	343.14
453.43	340.27
453.80	337.51
454.17	334.88
454.54	332.35
454.91	329.65
455.28	326.94
455.65	324.39
456.02	321.98
456.38	319.82
456.75	317.19
457.12	314.92
457.49	312.70
457.86	310.56
458.23	308.73
458.59	306.68
458.96	304.60
459.33	302.72
459.70	300.86
460.07	299.39
460.43	297.71
460.80	296.12
461.17	294.69
461.54	293.24
461.91	291.83
462.27	290.39
462.64	289.09
463.01	287.79
463.38	286.54
463.74	285.18
464.11	284.05
464.48	283.01
464.85	281.91
465.21	281.08
465.58	280.14
465.95	279.03
466.32	278.14
466.68	277.30
467.05	276.42
467.42	275.54
467.78	274.63
468.15	273.76
468.52	273.11
468.88	272.25
469.25	271.48
469.62	270.88
469.98	270.25
470.35	269.60
470.72	269.01
471.08	268.33
471.45	267.83
471.82	267.32
472.18	266.74
472.55	266.36
472.92	265.87
473.28	265.38
473.65	264.95
474.02	264.54
474.38	264.15
474.75	263.84
475.11	263.52
475.48	263.26
475.85	263.02
476.21	262.79
476.58	262.66
476.94	262.53
477.31	262.33
477.67	262.21
478.04	262.17
478.41	262.14
478.77	262.25
479.14	262.16
479.50	262.16
479.87	262.27
480.23	262.31
480.60	262.37
480.96	262.54
481.33	262.77
481.69	262.96
482.06	263.18
482.42	263.43
482.79	263.70
483.15	264.07
483.52	264.47
483.88	264.83
484.25	265.20
484.61	265.63
484.98	266.11
485.34	266.65
485.71	267.28
486.07	267.87
486.44	268.40
486.80	269.13
487.17	269.88
487.53	270.68
487.90	271.56
488.26	272.50
488.62	273.47
488.99	274.47
489.35	275.51
489.72	276.65
490.08	277.83
490.44	279.10
490.81	280.43
491.17	281.79
491.54	283.30
491.90	284.86
492.26	286.53
492.63	288.30
492.99	290.08
493.36	291.95
493.72	294.00
494.08	296.13
494.45	298.37
494.81	300.72
495.17	303.17
495.54	305.73
495.90	308.44
496.26	311.19
496.63	314.12
496.99	317.25
497.35	320.47
497.72	323.86
498.08	327.34
498.44	330.99
498.80	334.93
499.17	338.95
499.53	343.12
499.89	347.49
500.26	351.93
500.62	356.64
500.98	361.56
501.34	366.63
501.71	371.94
502.07	377.38
502.43	383.01
502.79	388.85
503.16	394.96
503.52	401.27
503.88	407.70
504.24	414.34
504.60	421.22
504.97	428.37
505.33	435.70
505.69	443.42
506.05	451.18
506.41	459.04
506.78	467.21
507.14	475.65
507.50	484.38
507.86	493.42
508.22	502.59
508.59	511.85
508.95	521.46
509.31	531.29
509.67	541.40
510.03	551.71
510.39	562.18
510.75	572.89
511.12	583.73
511.48	595.05
511.84	606.55
512.20	618.03
512.56	629.95
512.92	642.12
513.28	654.44
513.64	666.98
514.00	679.64
514.37	692.55
514.73	705.61
515.09	718.56
515.45	731.81
515.81	745.41
516.17	759.34
516.53	773.37
516.89	787.47
517.25	801.58
517.61	815.96
517.97	830.40
518.33	844.85
518.69	859.68
519.05	874.54
519.41	889.63
519.77	905.20
520.13	920.58
520.49	936.02
520.85	951.41
521.21	967.07
521.57	983.27
521.93	998.97
522.29	1015.32
522.65	1031.53
523.01	1047.69
523.37	1063.59
523.73	1079.74
524.09	1095.78
524.45	1112.06
524.81	1128.65
525.17	1145.30
525.53	1162.28
525.89	1179.09
526.25	1195.85
526.61	1212.31
526.97	1229.00
527.33	1245.41
527.68	1261.97
528.04	1278.27
528.40	1294.80
528.76	1311.74
529.12	1328.21
529.48	1345.11
529.84	1361.03
530.20	1377.61
530.56	1394.57
530.91	1411.94
531.27	1428.55
531.63	1444.90
531.99	1461.32
532.35	1477.16
532.71	1492.99
533.07	1509.04
533.42	1524.85
533.78	1540.78
534.14	1556.97
534.50	1572.29
534.86	1587.97
535.21	1603.12
535.57	1618.94
535.93	1634.24
536.29	1648.98
536.65	1663.99
537.00	1678.55
537.36	1693.77
537.72	1708.27
538.08	1722.46
538.44	1736.22
538.79	1750.05
539.15	1763.80
539.51	1777.49
539.87	1791.76
540.22	1805.43
540.58	1819.09
540.94	1832.37
541.29	1845.16
541.65	1857.65
542.01	1870.65
542.37	1882.97
542.72	1895.07
543.08	1906.76
543.44	1919.21
543.79	1930.31
544.15	1941.16
544.51	1952.71
544.87	1963.55
545.22	1974.17
545.58	1984.42
545.94	1993.99
546.29	2003.67
546.65	2013.51
547.01	2022.69
547.36	2031.29
547.72	2039.71
548.07	2047.40
548.43	2055.46
548.79	2063.38
549.14	2070.78
549.50	2078.03
549.86	2085.56
550.21	2093.10
550.57	2100.20
550.92	2106.75
551.28	2113.64
551.64	2120.72
551.99	2127.20
552.35	2133.32
552.70	2139.49
553.06	2145.54
553.41	2151.85
553.77	2157.90
554.13	2163.77
554.48	2169.85
554.84	2175.33
555.19	2180.61
555.55	2185.95
555.90	2190.32
556.26	2195.24
556.61	2200.07
556.97	2204.34
557.32	2208.40
557.68	2212.44
558.03	2216.73
558.39	2220.32
558.74	2224.94
559.10	2228.87
559.45	2232.43
559.81	2236.75
560.16	2240.43
560.52	2243.51
560.87	2246.93
561.23	2249.69
561.58	2252.57
561.94	2255.20
562.29	2257.59
562.64	2260.32
563.00	2262.75
563.35	2266.24
563.71	2269.34
564.06	2272.47
564.42	2275.26
564.77	2277.82
565.12	2280.10
565.48	2282.11
565.83	2284.08
566.19	2285.49
566.54	2286.41
566.89	2287.61
567.25	2288.27
567.60	2289.66
567.96	2291.49
568.31	2292.34
568.66	2293.48
569.02	2294.09
569.37	2294.44
569.72	2295.44
570.08	2295.55
570.43	2295.62
570.78	2295.15
571.14	2293.64
571.49	2292.43
571.84	2292.46
572.20	2291.48
572.55	2290.49
572.90	2288.97
573.26	2287.66
573.61	2286.12
573.96	2284.41
574.31	2281.49
574.67	2278.48
575.02	2275.13
575.37	2271.74
575.72	2268.19
576.08	2264.76
576.43	2261.48
576.78	2257.85
577.13	2254.72
577.49	2251.67
577.84	2248.32
578.19	2244.77
578.54	2241.32
578.90	2237.17
579.25	2231.47
579.60	2226.61
579.95	2221.57
580.30	2216.64
580.66	2211.51
581.01	2206.60
581.36	2201.72
581.71	2197.74
582.06	2193.36
582.42	2188.82
582.77	2183.64
583.12	2179.18
583.47	2174.69
583.82	2169.96
584.17	2164.72
584.53	2159.37
584.88	2153.93
585.23	2148.26
585.58	2142.85
585.93	2137.43
586.28	2132.84
586.63	2127.86
586.98	2122.91
587.34	2118.25
587.69	2113.31
588.04	2108.05
588.39	2102.36
588.74	2095.98
589.09	2089.84
589.44	2083.11
589.79	2077.20
590.14	2071.87
590.49	2065.24
590.84	2058.84
591.19	2052.84
591.54	2046.61
591.89	2039.18
592.25	2032.34
592.60	2025.18
592.95	2017.64
593.30	2010.21
593.65	2002.79
594.00	1995.89
594.35	1988.66
594.70	1980.76
595.05	1973.69
595.40	1966.57
595.75	1959.20
596.10	1953.05
596.45	1946.48
596.80	1940.37
597.15	1933.65
597.50	1926.51
597.85	1920.15
598.19	1913.57
598.54	1906.41
598.89	1899.69
599.24	1893.81
599.59	1887.22
599.94	1881.09
600.29	1874.91
600.64	1868.47
600.99	1860.83
601.34	1854.11
601.69	1847.14
602.04	1840.33
602.39	1833.03
602.74	1826.30
603.08	1819.47
603.43	1812.74
603.78	1805.30
604.13	1798.05
604.48	1790.85
604.83	1783.95
605.18	1776.89
605.53	1769.01
605.87	1761.04
606.22	1753.88
606.57	1745.93
606.92	1738.56
607.27	1731.32
607.62	1724.30
607.96	1717.03
608.31	1710.48
608.66	1702.82
609.01	1695.35
609.36	1687.71
609.70	1679.69
610.05	1671.57
610.40	1663.87
610.75	1655.45
611.10	1647.81
611.44	1639.51
611.79	1631.60
612.14	1622.85
612.49	1613.71
612.83	1605.26
613.18	1597.24
613.53	1589.06
613.88	1580.54
614.22	1572.27
614.57	1563.74
614.92	1555.63
615.27	1548.00
615.61	1539.63
615.96	1531.58
616.31	1523.99
616.65	1516.70
617.00	1509.16
617.35	1501.45
617.70	1493.20
618.04	1484.81
618.39	1476.55
618.74	1468.96
619.08	1460.66
619.43	1453.10
619.78	1446.20
620.12	1439.04
620.47	1431.39
620.82	1423.28
621.16	1415.92
621.51	1408.34
621.85	1400.71
622.20	1392.19
622.55	1383.98
622.89	1376.20
623.24	1368.52
623.59	1361.08
623.93	1353.53
624.28	1346.34
624.62	1338.71
624.97	1331.51
625.32	1324.77
625.66	1317.82
626.01	1310.65
626.35	1303.16
626.70	1295.39
627.04	1287.69
627.39	1279.95
627.73	1272.59
628.08	1265.64
628.43	1258.27
628.77	1250.87
629.12	1243.30
629.46	1236.16
629.81	1228.63
630.15	1221.36
630.50	1213.99
630.84	1205.63
631.19	1197.71
631.53	1190.05
631.88	1182.58
632.22	1175.08
632.57	1167.72
632.91	1160.09
633.26	1152.63
633.60	1145.26
633.95	1138.18
634.29	1131.14
634.64	1124.44
634.98	1117.09
635.32	1109.95
635.67	1103.42
636.01	1096.84
636.36	1090.02
636.70	1083.44
637.05	1076.89
637.39	1070.31
637.73	1063.82
638.08	1058.01
638.42	1051.98
638.77	1045.61
639.11	1039.02
639.45	1032.48
639.80	1025.78
640.14	1019.55
640.49	1013.05
640.83	1006.72
641.17	1000.53
641.52	994.13
641.86	987.66
642.20	981.76
642.55	975.42
642.89	968.91
643.23	962.36
643.58	956.55
643.92	950.41
644.26	944.29
644.61	938.36
644.95	932.31
645.29	925.71
645.64	919.02
645.98	912.64
646.32	906.80
646.66	900.87
647.01	895.12
647.35	889.27
647.69	883.38
648.04	877.86
648.38	872.01
648.72	866.05
649.06	860.05
649.41	854.21
649.75	848.26
650.09	842.30
650.43	836.47
650.78	830.35
651.12	824.42
651.46	818.75
651.80	813.10
652.14	807.68
652.49	802.31
652.83	797.10
653.17	791.43
653.51	785.68
653.85	780.34
654.20	774.72
654.54	768.75
654.88	763.00
655.22	757.10
655.56	751.43
655.90	745.96
656.25	740.66
656.59	735.24
656.93	730.23
657.27	725.11
657.61	719.66
657.95	714.57
658.29	709.52
658.64	704.23
658.98	698.81
659.32	693.35
659.66	688.22
660.00	682.96
660.34	678.07
660.68	673.20
661.02	668.03
661.36	663.24
661.70	658.69
662.05	654.36
662.39	650.06
662.73	645.61
663.07	641.23
663.41	636.80
663.75	632.35
664.09	627.62
664.43	623.23
664.77	619.12
665.11	614.81
665.45	610.64
665.79	606.58
666.13	602.48
666.47	598.40
666.81	594.18
667.15	590.02
667.49	586.04
667.83	582.24
668.17	578.34
668.51	574.26
668.85	570.23
669.19	566.37
669.53	562.53
669.87	558.65
670.21	554.92
670.55	551.25
670.89	547.77
671.23	544.43
671.57	540.93
671.91	537.36
672.25	533.86
672.58	530.32
672.92	526.86
673.26	523.64
673.60	520.46
673.94	517.31
674.28	514.43
674.62	511.50
674.96	508.33
675.30	505.40
675.64	502.45
675.97	499.69
676.31	496.83
676.65	493.87
676.99	491.17
677.33	488.32
677.67	485.47
678.01	482.44
678.34	479.43
678.68	476.52
679.02	473.71
679.36	470.97
679.70	468.26
680.04	465.51
680.37	462.62
680.71	459.82
681.05	457.23
681.39	454.48
681.73	451.80
682.06	449.31
682.40	446.77
682.74	444.28
683.08	441.71
683.42	439.10
683.75	436.63
684.09	434.03
684.43	431.57
684.77	429.09
685.10	426.77
685.44	424.48
685.78	422.17
686.12	419.96
686.45	417.69
686.79	415.38
687.13	413.20
687.46	411.06
687.80	408.97
688.14	406.76
688.48	404.70
688.81	402.46
689.15	400.27
689.49	398.11
689.82	396.04
690.16	393.97
690.50	392.04
690.83	390.07
691.17	388.08
691.51	386.18
691.84	384.43
692.18	382.48
692.52	380.50
692.85	378.61
693.19	376.68
693.52	374.81
693.86	372.99
694.20	371.20
694.53	369.40
694.87	367.53
695.21	365.77
695.54	363.95
695.88	362.22
696.21	360.52
696.55	358.88
696.88	357.17
697.22	355.49
697.56	353.84
697.89	352.19
698.23	350.61
698.56	348.94
698.90	347.28
699.23	345.62
699.57	344.08
699.90	342.52
700.24	341.02
700.58	339.53
700.91	338.02
701.25	336.55
701.58	335.22
701.92	333.83
702.25	332.39
702.59	331.02
702.92	329.66
703.26	328.32
703.59	327.02
703.93	325.88
704.26	324.63
704.60	323.32
704.93	322.04
705.26	320.79
705.60	319.64
705.93	318.49
706.27	317.43
706.60	316.35
706.94	315.24
707.27	314.10
707.61	313.02
707.94	312.04
708.27	310.92
708.61	309.81
708.94	308.82
709.28	307.86
709.61	306.88
709.94	305.92
710.28	304.94
710.61	303.93
710.95	302.86
711.28	301.91
711.61	300.98
711.95	300.08
712.28	299.10
712.61	298.10
712.95	297.15
713.28	296.30
713.61	295.43
713.95	294.53
714.28	293.71
714.61	292.84
714.95	291.99
715.28	291.19
715.61	290.26
715.95	289.38
716.28	288.54
716.61	287.73
716.95	286.92
717.28	286.16
717.61	285.37
717.94	284.64
718.28	283.89
718.61	283.17
718.94	282.49
719.27	281.88
719.61	281.28
719.94	280.60
720.27	279.87
720.60	279.18
720.94	278.57
721.27	277.98
721.60	277.40
721.93	276.76
722.27	276.20
722.60	275.69
722.93	275.15
723.26	274.61
723.59	274.06
723.93	273.49
724.26	272.93
724.59	272.43
724.92	271.89
725.25	271.40
725.59	270.91
725.92	270.39
726.25	269.87
726.58	269.36
726.91	268.89
727.24	268.44
727.57	267.95
727.91	267.44
728.24	266.97
728.57	266.50
728.90	266.07
729.23	265.57
729.56	265.17
729.89	264.70
730.22	264.21
730.55	263.73
730.89	263.30
731.22	262.87
731.55	262.44
731.88	262.01
732.21	261.58
732.54	261.14
732.87	260.75
733.20	260.38
733.53	259.99
733.86	259.62
734.19	259.22
734.52	258.90
734.85	258.63
735.18	258.19
735.51	257.81
735.84	257.43
736.17	257.09
736.50	256.66
736.83	256.41
737.16	256.05
737.49	255.72
737.82	255.40
738.15	255.08
738.48	254.69
738.81	254.37
739.14	254.06
739.47	253.73
739.80	253.41
740.13	253.09
740.46	252.76
740.79	252.43
741.12	252.09
741.45	251.74
741.78	251.36
742.11	251.09
742.44	250.77
742.77	250.45
743.10	250.15
743.43	249.87
743.75	249.51
744.08	249.35
744.41	249.10
744.74	248.83
745.07	248.53
745.40	248.32
745.73	248.07
746.06	247.77
746.39	247.50
746.71	247.21
747.04	246.96
747.37	246.70
747.70	246.44
748.03	246.20
748.36	245.98
748.68	245.75
749.01	245.50
749.34	245.26
749.67	245.04
750.00	244.80
750.33	244.68
750.65	244.40
750.98	244.11
751.31	243.85
751.64	243.64
751.97	243.47
752.29	243.21
752.62	242.95
752.95	242.74
753.28	242.52
753.60	242.31
753.93	242.07
754.26	241.84
754.59	241.63
754.91	241.43
755.24	241.22
755.57	241.00
755.90	240.80
756.22	240.59
756.55	240.41
756.88	240.23
757.20	239.93
757.53	239.75
757.86	239.55
758.19	239.40
758.51	239.21
758.84	238.98
759.17	238.83
759.49	238.66
759.82	238.55
760.15	238.43
760.47	238.27
760.80	238.14
761.13	238.05
761.45	237.89
761.78	237.73
762.11	237.59
762.43	237.46
762.76	237.33
763.08	237.23
763.41	237.09
763.74	236.95
764.06	236.79
764.39	236.67
764.71	236.56
765.04	236.42
765.37	236.31
765.69	236.21
766.02	236.09
766.34	236.00
766.67	235.87
767.00	235.74
767.32	235.71
767.65	235.62
767.97	235.48
768.30	235.37
768.62	235.28
768.95	235.16
769.27	235.03
769.60	234.93
769.92	234.78
770.25	234.70
770.57	234.61
770.90	234.55
771.22	234.45
771.55	234.37
771.87	234.27
772.20	234.16
772.52	234.13
772.85	234.17
773.17	234.09
773.50	233.97
773.82	233.90
774.15	233.76
774.47	233.61
774.80	233.52
775.12	233.47
775.45	233.39
775.77	233.31
776.09	233.26
776.42	233.18
776.74	233.14
777.07	233.05
777.39	232.98
777.72	232.91
778.04	232.84
778.36	232.73
778.69	232.69
779.01	232.63
779.33	232.51
779.66	232.32
779.98	232.24
780.31	232.19
780.63	232.14
780.95	232.11
781.28	232.08
781.60	232.01
781.92	231.95
782.25	231.88
782.57	231.81
782.89	231.76
783.22	231.72
783.54	231.64
783.86	231.57
784.19	231.51
784.51	231.50
784.83	231.47
785.16	231.41
785.48	231.34
785.80	231.32
786.12	231.26
786.45	231.21
786.77	231.14
787.09	231.10
787.42	231.01
787.74	230.93
788.06	230.91
788.38	230.89
788.71	230.83
789.03	230.80
789.35	230.78
789.67	230.70
789.99	230.68
790.32	230.63
790.64	230.62
790.96	230.66
791.28	230.56
791.61	230.45
791.93	230.45
792.25	230.41
792.57	230.41
792.89	230.35
793.21	230.32
793.54	230.28
793.86	230.23
794.18	230.21
794.50	230.17
794.82	230.12
795.14	230.08
795.47	230.06
795.79	230.05
796.11	230.00
796.43	229.96
796.75	229.90
797.07	229.88
797.39	229.83
797.71	229.71
798.04	229.69
798.36	229.69
798.68	229.63
799.00	229.59
799.32	229.51
799.64	229.48
799.96	229.46
800.28	229.43
800.60	229.35
800.92	229.29
801.24	229.23
801.56	229.19
801.89	229.17
802.21	229.12
802.53	229.04
802.85	229.01
803.17	229.04
803.49	228.97
803.81	228.94
804.13	228.87
804.45	228.84
804.77	228.78
805.09	228.76
805.41	228.71
805.73	228.68
806.05	228.62
806.37	228.63
806.69	228.57
807.01	228.56
807.33	228.55
807.65	228.48
807.97	228.51
808.28	228.48
808.60	228.40
808.92	228.40
809.24	228.44
809.56	228.45
809.88	228.40
810.20	228.39
810.52	228.37
810.84	228.38
811.16	228.35
811.48	228.34
811.80	228.33
812.12	228.33
812.43	228.34
812.75	228.33
813.07	228.26
813.39	228.25
813.71	228.21
814.03	228.19
814.35	228.21
814.67	228.13
814.98	228.14
815.30	228.13
815.62	228.07
815.94	228.02
816.26	228.00
816.58	227.96
816.89	227.99
817.21	227.95
817.53	227.95
817.85	227.93
818.17	227.93
818.48	227.91
818.80	227.91
819.12	227.87
819.44	227.86
819.76	227.84
820.07	227.84
820.39	227.82
820.71	227.85
821.03	227.81
821.34	227.82
821.66	227.78
821.98	227.78
822.30	227.78
822.61	227.80
822.93	227.75
823.25	227.69
823.57	227.64
823.88	227.65
824.20	227.61
824.52	227.64
824.83	227.60
825.15	227.56
825.47	227.50
825.79	227.50
826.10	227.47
826.42	227.45
826.74	227.39
827.05	227.36
827.37	227.35
827.69	227.35
828.00	227.32
828.32	227.28
828.64	227.25
828.95	227.25
829.27	227.19
829.58	227.19
829.90	227.20
830.22	227.19
830.53	227.14
830.85	227.11
831.17	227.06
831.48	227.03
831.80	227.02
832.11	227.04
832.43	227.00
832.75	226.97
833.06	227.01
833.38	227.03
833.69	227.02
834.01	226.97
834.32	226.97
834.64	226.94
834.96	226.90
835.27	226.92
835.59	226.88
835.90	226.84
836.22	226.81
836.53	226.79
836.85	226.75
837.16	226.85
837.48	226.84
837.79	226.86
838.11	226.89
838.42	226.87
838.74	226.85
839.05	226.85
839.37	226.86
839.68	226.80
840.00	226.79
840.31	226.80
840.63	226.80
840.94	226.78
841.26	226.77
841.57	226.79
841.88	226.79
842.20	226.79
842.51	226.78
842.83	226.79
843.14	226.90
843.46	226.91
843.77	226.86
844.08	226.84
844.40	226.82
844.71	226.77
845.03	226.77
845.34	226.78
845.65	226.80
845.97	226.79
846.28	226.81
846.60	226.82
846.91	226.79
847.22	226.81
847.54	226.77
847.85	226.82
848.16	226.81
848.48	226.79
848.79	226.80
849.10	226.81
849.42	226.80
849.73	226.70
850.04	226.69
850.36	226.67
850.67	226.67
850.98	226.69
851.30	226.72
851.61	226.70
851.92	226.69
852.23	226.71
852.55	226.73
852.86	226.71
853.17	226.68
853.49	226.71
853.80	226.73
854.11	226.79
854.42	226.80
854.74	226.81
855.05	226.82
855.36	226.79
855.67	226.81
855.99	226.84
856.30	226.95
856.61	226.97
856.92	226.96
857.23	226.97
857.55	226.93
857.86	226.92
858.17	226.97
858.48	226.93
858.79	226.92
859.11	226.90
859.42	226.88
859.73	226.89
860.04	226.87
860.35	226.79
860.66	226.76
860.98	226.74
861.29	226.75
861.60	226.75
861.91	226.79
862.22	226.75
862.53	226.71
862.84	226.58
863.16	226.58
863.47	226.56
863.78	226.52
864.09	226.56
864.40	226.55
864.71	226.52
865.02	226.57
865.33	226.55
865.64	226.52
865.95	226.54
866.27	226.59
866.58	226.54
866.89	226.58
867.20	226.56
867.51	226.53
867.82	226.50
868.13	226.54
868.44	226.52
868.75	226.53
869.06	226.53
869.37	226.56
869.68	226.53
869.99	226.52
870.30	226.56
870.61	226.52
870.92	226.51
871.23	226.49
871.54	226.50
871.85	226.49
872.16	226.52
872.47	226.50
872.78	226.46
873.09	226.49
873.40	226.47
873.71	226.46
874.02	226.44
874.33	226.44
874.64	226.39
874.95	226.36
875.26	226.37
875.56	226.34
875.87	226.32
876.18	226.28
876.49	226.36
876.80	226.34
877.11	226.32
877.42	226.33
877.73	226.35
878.04	226.32
878.35	226.35
878.66	226.32
878.96	226.34
879.27	226.31
879.58	226.31
879.89	226.32
880.20	226.36
880.51	226.37
880.82	226.36
881.12	226.35
881.43	226.36
881.74	226.35
882.05	226.32
882.36	226.32
882.67	226.35
882.97	226.29
883.28	226.31
883.59	226.31
883.90	226.30
884.21	226.29
884.51	226.28
884.82	226.26
885.13	226.29
885.44	226.25
885.74	226.23
886.05	226.22
886.36	226.23
886.67	226.22
886.98	226.27
887.28	226.30
887.59	226.31
887.90	226.31
888.20	226.27
888.51	226.31
888.82	226.30
889.13	226.33
889.43	226.37
889.74	226.36
890.05	226.35
890.35	226.37
890.66	226.35
890.97	226.37
891.28	226.35
891.58	226.36
891.89	226.38
892.20	226.39
892.50	226.36
892.81	226.37
893.12	226.34
893.42	226.25
893.73	226.24
894.04	226.24
894.34	226.20
894.65	226.22
894.95	226.21
895.26	226.22
895.57	226.27
895.87	226.22
896.18	226.21
896.48	226.24
896.79	226.25
897.10	226.25
897.40	226.23
897.71	226.23
898.01	226.21
898.32	226.21
898.63	226.24
898.93	226.27
899.24	226.23
899.54	226.24
899.85	226.31
900.15	226.30
900.46	226.31
900.76	226.34
901.07	226.36
901.38	226.37
901.68	226.36
901.99	226.27
902.29	226.26
902.60	226.27
902.90	226.24
903.21	226.23
903.51	226.22
903.82	226.25
904.12	226.25
904.43	226.26
904.73	226.25
905.03	226.25
905.34	226.33
905.64	226.34
905.95	226.34
906.25	226.30
906.56	226.36
906.86	226.38
907.17	226.35
907.47	226.37
907.77	226.37
908.08	226.37
908.38	226.38
908.69	226.40
908.99	226.42
909.30	226.43
909.60	226.42
909.90	226.43
910.21	226.41
910.51	226.40
910.81	226.38
911.12	226.40
911.42	226.40
911.73	226.32
912.03	226.33
912.33	226.32
912.64	226.33
912.94	226.27
913.24	226.22
913.55	226.24
913.85	226.20
914.15	226.22
914.46	226.23
914.76	226.23
915.06	226.21
915.37	226.15
915.67	226.15
915.97	226.17
916.27	226.16
916.58	226.14
916.88	226.16
917.18	226.14
917.49	226.20
917.79	226.22
918.09	226.25
918.39	226.25
918.70	226.25
919.00	226.22
919.30	226.25
919.60	226.25
919.91	226.21
920.21	226.22
920.51	226.21
920.81	226.18
921.12	226.20
921.42	226.17
921.72	226.16
922.02	226.15
922.32	226.14
922.63	226.13
922.93	226.18
923.23	226.17
923.53	226.21
923.83	226.13
924.13	226.11
924.44	226.07
924.74	226.08
925.04	226.11
925.34	226.14
925.64	226.08
925.94	226.08
926.24	226.16
926.55	226.13
926.85	226.11
927.15	226.12
927.45	226.12
927.75	226.15
928.05	226.17
928.35	226.16
928.65	226.20
928.95	226.21
929.26	226.18
929.56	226.16
929.86	226.15
930.16	226.14
930.46	226.12
930.76	226.14
931.06	226.09
931.36	226.07
931.66	226.05
931.96	226.10
932.26	226.10
932.56	226.06
932.86	226.06
933.16	226.11
933.46	226.08
933.76	226.05
934.06	226.07
934.36	226.14
934.66	226.13
934.96	226.11
935.26	226.10
935.56	226.13
935.86	226.12
936.16	226.09
936.46	226.10
936.76	226.11
937.06	226.08
937.36	226.12
937.66	226.13
937.96	226.17
938.26	226.14
938.56	226.12
938.86	226.12
939.16	226.17
939.46	226.12
939.76	226.17
940.06	226.18
940.35	226.15
940.65	226.09
940.95	226.08
941.25	226.03
941.55	226.03
941.85	226.01
942.15	226.04
942.45	226.11
942.75	226.09
943.04	226.10
943.34	226.15
943.64	226.12
943.94	226.10
944.24	226.11
944.54	226.09
944.84	226.13
945.13	226.10
945.43	226.08
945.73	226.10
946.03	226.08
946.33	226.06
946.62	226.08
946.92	226.06
947.22	226.08
947.52	226.12
947.82	226.10
948.11	226.10
948.41	226.09
948.71	226.06
949.01	226.08
949.31	226.05
949.60	226.03
949.90	226.04
950.20	226.03
950.50	226.03
950.79	226.03
951.09	226.02
951.39	226.04
951.69	226.01
951.98	226.02
952.28	226.06
952.58	226.08
952.87	226.05
953.17	226.04
953.47	226.08
953.76	226.05
954.06	226.05
954.36	226.03
954.66	226.01
954.95	225.98
955.25	225.99
955.55	226.00
955.84	225.98
956.14	226.00
956.44	225.98
956.73	225.93
957.03	225.91
957.32	225.94
957.62	225.91
957.92	225.95
958.21	225.94
958.51	226.01
958.81	226.00
959.10	226.03
959.40	226.07
959.69	226.02
959.99	226.03
960.29	226.03
960.58	226.00
960.88	226.04
961.17	226.05
961.47	226.03
961.76	226.02
962.06	226.03
962.36	226.01
962.65	226.05
962.95	226.04
963.24	226.04
963.54	226.02
963.83	226.03
964.13	226.01
964.42	225.99
964.72	225.91
965.01	225.92
965.31	225.86
965.60	225.82
965.90	225.87
966.19	225.85
966.49	225.87
966.78	225.88
967.08	225.85
967.37	225.86
967.67	225.86
967.96	225.90
968.26	225.90
968.55	225.90
968.85	225.88
969.14	225.89
969.43	225.91
969.73	225.91
970.02	225.91
970.32	225.91
970.61	225.90
970.91	225.84
971.20	225.83
971.49	225.84
971.79	225.89
972.08	225.83
972.38	225.82
972.67	225.81
972.96	225.83
973.26	225.82
973.55	225.84
973.85	225.85
974.14	225.83
974.43	225.82
974.73	225.82
975.02	225.83
975.31	225.83
975.61	225.81
975.90	225.83
976.19	225.83
976.49	225.84
976.78	225.85
977.07	225.89
977.37	225.91
977.66	225.92
977.95	225.89
978.24	225.92
978.54	225.96
978.83	225.97
979.12	225.98
979.42	226.00
979.71	225.97
980.00	225.95
980.29	225.96
980.59	225.98
980.88	226.01
981.17	226.04
981.46	226.04
981.76	226.06
982.05	226.07
982.34	226.06
982.63	226.09
982.93	226.10
983.22	226.14
983.51	226.15
983.80	226.17
984.09	226.18
984.39	226.19
984.68	226.18
984.97	226.20
985.26	226.19
985.55	226.23
985.85	226.22
986.14	226.24
986.43	226.26
986.72	226.26
987.01	226.27
987.30	226.26
987.59	226.24
987.89	226.25
988.18	226.23
988.47	226.25
988.76	226.22
989.05	226.19
989.34	226.17
989.63	226.17
989.92	226.18
990.22	226.16
990.51	226.14
990.80	226.12
991.09	226.14
991.38	226.19
991.67	226.13
991.96	226.13
992.25	226.12
992.54	226.08
992.83	226.08
993.12	226.05
993.41	226.06
993.70	226.14
993.99	226.14
994.28	226.15
994.58	226.16
994.87	226.17
995.16	226.14
995.45	226.09
995.74	226.05
996.03	226.05
996.32	226.08
996.61	226.11
996.90	226.14
997.19	226.12
997.48	226.06
997.77	226.05
998.06	226.06
998.34	226.03
998.63	226.02
998.92	225.98
999.21	225.98
999.50	225.96
999.79	225.89
1000.08	225.87
1000.37	225.86
1000.66	225.83
1000.95	225.84
1001.24	225.86
1001.53	225.88
1001.82	225.90
1002.11	225.87
1002.40	225.84
1002.68	225.85
1002.97	225.89
1003.26	225.87
1003.55	225.88
1003.84	225.87
1004.13	225.89
1004.42	225.89
1004.71	225.88
1004.99	225.88
1005.28	225.89
1005.57	225.85
1005.86	225.81
1006.15	225.82
1006.44	225.77
1006.72	225.79
1007.01	225.74
1007.30	225.73
1007.59	225.72
1007.88	225.69
1008.17	225.72
1008.45	225.71
1008.74	225.66
1009.03	225.61
1009.32	225.59
1009.60	225.55
1009.89	225.53
1010.18	225.47
1010.47	225.48
1010.76	225.49
1011.04	225.51
1011.33	225.54
1011.62	225.55
1011.91	225.60
1012.19	225.64
1012.48	225.64
1012.77	225.64
1013.05	225.72
1013.34	225.71
1013.63	225.72
1013.92	225.74
1014.20	225.70
1014.49	225.71
1014.78	225.72
1015.06	225.70
1015.35	225.73
1015.64	225.79
1015.92	225.80
1016.21	225.86
1016.50	225.87
1016.78	225.88
1017.07	225.87
1017.36	225.86
1017.64	225.87
1017.93	225.85
1018.22	225.78
1018.50	225.81
1018.79	225.82
1019.08	225.79
1019.36	225.78
1019.65	225.78
1019.93	225.81
1020.22	225.84
1020.51	225.91
1020.79	225.92
1021.08	225.16
1021.36	226.01
1021.65	225.97
1021.94	225.91
1022.22	225.25
1022.51	225.77
1022.79	226.41
1023.08	226.01
1023.36	227.39
1023.65	225.92
>>>>>End Processed Spectral Data<<<<<
