SpectraSuite Data File
++++++++++++++++++++++++++++++++++++
Date: Fri Feb 01 16:24:09 EST 2013
User: group
Dark Spectrum Present: No
Reference Spectrum Present: No
Number of Sampled Component Spectra: 1
Spectrometers: USB2E7196
Integration Time (usec): 35000 (USB2E7196)
Spectra Averaged: 100 (USB2E7196)
Boxcar Smoothing: 10 (USB2E7196)
Correct for Electrical Dark: No (USB2E7196)
Strobe/Lamp Enabled: No (USB2E7196)
Correct for Detector Non-linearity: No (USB2E7196)
Correct for Stray Light: No (USB2E7196)
Number of Pixels in Processed Spectrum: 2048
>>>>>Begin Processed Spectral Data<<<<<
339.09	0.00
339.48	214.91
339.86	215.51
340.24	216.89
340.63	218.52
341.01	221.56
341.39	221.37
341.78	222.19
342.16	223.38
342.54	223.97
342.93	212.58
343.31	223.32
343.69	223.85
344.07	224.34
344.46	224.78
344.84	225.16
345.22	225.38
345.60	225.62
345.99	225.81
346.37	225.93
346.75	226.04
347.13	226.13
347.52	226.20
347.90	226.31
348.28	226.34
348.66	226.38
349.05	226.37
349.43	226.37
349.81	226.42
350.19	226.46
350.57	226.54
350.96	226.61
351.34	226.70
351.72	226.74
352.10	226.81
352.48	226.89
352.87	226.90
353.25	226.96
353.63	227.05
354.01	227.11
354.39	227.21
354.77	227.25
355.15	227.33
355.54	227.39
355.92	227.42
356.30	227.45
356.68	227.61
357.06	227.67
357.44	227.72
357.82	227.77
358.20	227.86
358.58	227.92
358.97	227.97
359.35	228.04
359.73	228.14
360.11	228.20
360.49	228.25
360.87	228.34
361.25	228.39
361.63	228.48
362.01	228.52
362.39	228.57
362.77	228.65
363.15	228.70
363.53	228.75
363.91	228.80
364.29	228.84
364.67	228.73
365.05	228.76
365.43	228.80
365.81	228.81
366.19	228.83
366.57	228.86
366.95	228.90
367.33	228.89
367.71	228.87
368.09	228.87
368.47	228.85
368.85	228.80
369.23	228.82
369.61	228.75
369.99	228.76
370.37	228.70
370.75	228.72
371.13	228.63
371.51	228.56
371.89	228.52
372.27	228.51
372.65	228.48
373.03	228.42
373.41	228.34
373.78	228.27
374.16	228.22
374.54	228.13
374.92	228.04
375.30	227.98
375.68	227.90
376.06	227.86
376.44	227.78
376.82	227.71
377.19	227.63
377.57	227.55
377.95	227.48
378.33	227.42
378.71	227.30
379.09	227.25
379.47	227.19
379.84	227.11
380.22	227.03
380.60	226.96
380.98	226.91
381.36	226.85
381.73	226.78
382.11	226.70
382.49	226.65
382.87	226.57
383.25	226.51
383.62	226.55
384.00	226.45
384.38	226.40
384.76	226.41
385.13	226.37
385.51	226.31
385.89	226.21
386.27	226.16
386.64	226.14
387.02	226.08
387.40	226.02
387.78	225.96
388.15	225.91
388.53	225.86
388.91	225.81
389.29	225.79
389.66	225.77
390.04	225.72
390.42	225.68
390.79	225.66
391.17	225.64
391.55	225.53
391.92	225.53
392.30	225.53
392.68	225.47
393.05	225.46
393.43	225.47
393.81	225.48
394.18	225.45
394.56	225.44
394.94	225.45
395.31	225.46
395.69	225.57
396.06	225.56
396.44	225.60
396.82	225.60
397.19	225.64
397.57	225.65
397.95	225.71
398.32	225.75
398.70	225.79
399.07	225.85
399.45	225.89
399.82	225.92
400.20	225.97
400.58	226.03
400.95	226.07
401.33	226.17
401.70	226.32
402.08	226.44
402.45	226.54
402.83	226.67
403.20	226.77
403.58	226.82
403.95	226.94
404.33	227.07
404.71	227.22
405.08	227.41
405.46	227.56
405.83	227.70
406.21	227.84
406.58	227.99
406.96	228.12
407.33	228.31
407.70	228.54
408.08	228.79
408.45	229.04
408.83	229.28
409.20	229.46
409.58	229.65
409.95	229.91
410.33	230.15
410.70	230.35
411.08	230.64
411.45	230.92
411.82	231.25
412.20	231.60
412.57	232.02
412.95	232.34
413.32	232.72
413.69	233.14
414.07	233.56
414.44	234.06
414.82	234.51
415.19	235.08
415.56	235.62
415.94	236.15
416.31	236.75
416.68	237.34
417.06	238.08
417.43	238.74
417.81	239.49
418.18	240.32
418.55	241.20
418.93	242.06
419.30	243.00
419.67	243.92
420.04	244.88
420.42	245.82
420.79	246.98
421.16	248.17
421.54	249.33
421.91	250.54
422.28	251.76
422.66	253.10
423.03	254.35
423.40	255.65
423.77	257.09
424.15	258.52
424.52	260.10
424.89	261.70
425.26	263.24
425.64	264.69
426.01	266.27
426.38	267.93
426.75	269.64
427.13	271.36
427.50	273.17
427.87	275.04
428.24	276.95
428.61	278.68
428.99	280.60
429.36	282.71
429.73	284.78
430.10	286.81
430.47	288.92
430.85	291.06
431.22	293.33
431.59	295.69
431.96	297.92
432.33	300.33
432.70	302.72
433.08	305.55
433.45	308.17
433.82	310.74
434.19	313.65
434.56	316.44
434.93	319.13
435.30	321.78
435.68	324.65
436.05	327.45
436.42	330.23
436.79	332.75
437.16	335.43
437.53	338.24
437.90	341.03
438.27	343.74
438.64	346.55
439.01	349.12
439.38	351.31
439.75	353.50
440.13	356.00
440.50	358.29
440.87	360.14
441.24	362.08
441.61	364.19
441.98	365.63
442.35	367.42
442.72	369.19
443.09	370.95
443.46	371.95
443.83	372.52
444.20	373.09
444.57	373.89
444.94	374.17
445.31	374.53
445.68	374.92
446.05	374.99
446.42	374.63
446.79	374.18
447.16	373.74
447.53	373.43
447.90	372.26
448.27	371.13
448.64	369.55
449.01	368.43
449.37	366.48
449.74	364.61
450.11	362.34
450.48	359.92
450.85	357.39
451.22	355.26
451.59	353.25
451.96	351.25
452.33	348.68
452.70	346.35
453.07	343.51
453.43	340.56
453.80	337.83
454.17	335.17
454.54	332.67
454.91	330.01
455.28	327.35
455.65	324.84
456.02	322.41
456.38	320.29
456.75	317.63
457.12	315.42
457.49	313.16
457.86	311.02
458.23	309.15
458.59	307.13
458.96	305.07
459.33	303.22
459.70	301.39
460.07	299.92
460.43	298.22
460.80	296.65
461.17	295.25
461.54	293.75
461.91	292.32
462.27	290.88
462.64	289.63
463.01	288.25
463.38	287.01
463.74	285.67
464.11	284.49
464.48	283.48
464.85	282.36
465.21	281.56
465.58	280.66
465.95	279.58
466.32	278.69
466.68	277.76
467.05	276.87
467.42	275.99
467.78	275.07
468.15	274.18
468.52	273.48
468.88	272.61
469.25	271.84
469.62	271.23
469.98	270.58
470.35	269.93
470.72	269.36
471.08	268.69
471.45	268.14
471.82	267.61
472.18	267.03
472.55	266.58
472.92	266.04
473.28	265.59
473.65	265.14
474.02	264.69
474.38	264.32
474.75	264.01
475.11	263.66
475.48	263.36
475.85	263.14
476.21	262.95
476.58	262.80
476.94	262.68
477.31	262.48
477.67	262.28
478.04	262.20
478.41	262.14
478.77	262.18
479.14	262.11
479.50	262.11
479.87	262.18
480.23	262.28
480.60	262.35
480.96	262.45
481.33	262.69
481.69	262.90
482.06	263.11
482.42	263.33
482.79	263.59
483.15	263.94
483.52	264.34
483.88	264.70
484.25	265.08
484.61	265.47
484.98	265.98
485.34	266.58
485.71	267.16
486.07	267.77
486.44	268.37
486.80	269.07
487.17	269.79
487.53	270.59
487.90	271.43
488.26	272.35
488.62	273.33
488.99	274.32
489.35	275.37
489.72	276.51
490.08	277.71
490.44	278.95
490.81	280.30
491.17	281.63
491.54	283.10
491.90	284.64
492.26	286.30
492.63	288.02
492.99	289.77
493.36	291.70
493.72	293.75
494.08	295.83
494.45	298.10
494.81	300.49
495.17	302.95
495.54	305.53
495.90	308.26
496.26	311.07
496.63	314.01
496.99	317.11
497.35	320.38
497.72	323.75
498.08	327.28
498.44	330.96
498.80	334.94
499.17	338.99
499.53	343.18
499.89	347.58
500.26	352.07
500.62	356.74
500.98	361.68
501.34	366.74
501.71	372.12
502.07	377.55
502.43	383.15
502.79	388.94
503.16	395.00
503.52	401.25
503.88	407.69
504.24	414.36
504.60	421.26
504.97	428.41
505.33	435.73
505.69	443.48
506.05	451.23
506.41	459.09
506.78	467.28
507.14	475.73
507.50	484.47
507.86	493.50
508.22	502.72
508.59	511.98
508.95	521.58
509.31	531.36
509.67	541.50
510.03	551.83
510.39	562.48
510.75	573.29
511.12	584.30
511.48	595.56
511.84	606.98
512.20	618.53
512.56	630.42
512.92	642.66
513.28	654.95
513.64	667.46
514.00	680.15
514.37	693.13
514.73	706.18
515.09	719.17
515.45	732.51
515.81	746.14
516.17	760.05
516.53	774.10
516.89	788.25
517.25	802.40
517.61	816.80
517.97	831.24
518.33	845.60
518.69	860.25
519.05	875.17
519.41	890.21
519.77	905.67
520.13	921.14
520.49	936.42
520.85	951.81
521.21	967.49
521.57	983.68
521.93	999.33
522.29	1015.70
522.65	1031.93
523.01	1048.07
523.37	1064.04
523.73	1080.21
524.09	1096.35
524.45	1112.65
524.81	1129.28
525.17	1145.95
525.53	1162.77
525.89	1179.64
526.25	1196.44
526.61	1212.89
526.97	1229.61
527.33	1246.05
527.68	1262.53
528.04	1279.10
528.40	1295.63
528.76	1312.56
529.12	1328.99
529.48	1345.84
529.84	1361.69
530.20	1378.23
530.56	1395.06
530.91	1412.41
531.27	1428.97
531.63	1445.26
531.99	1461.74
532.35	1477.54
532.71	1493.39
533.07	1509.47
533.42	1525.23
533.78	1541.20
534.14	1557.33
534.50	1572.61
534.86	1588.46
535.21	1603.63
535.57	1619.39
535.93	1634.80
536.29	1649.48
536.65	1664.44
537.00	1679.11
537.36	1694.33
537.72	1708.71
538.08	1723.18
538.44	1736.79
538.79	1750.70
539.15	1764.33
539.51	1777.97
539.87	1792.30
540.22	1805.87
540.58	1819.66
540.94	1833.07
541.29	1845.80
541.65	1858.31
542.01	1871.36
542.37	1883.42
542.72	1895.66
543.08	1907.29
543.44	1919.62
543.79	1930.82
544.15	1941.91
544.51	1953.40
544.87	1964.29
545.22	1975.11
545.58	1985.18
545.94	1995.01
546.29	2004.67
546.65	2014.48
547.01	2023.68
547.36	2032.29
547.72	2040.66
548.07	2048.37
548.43	2056.36
548.79	2064.47
549.14	2072.07
549.50	2079.41
549.86	2087.23
550.21	2094.58
550.57	2101.73
550.92	2108.18
551.28	2115.17
551.64	2122.16
551.99	2128.58
552.35	2134.84
552.70	2140.95
553.06	2146.88
553.41	2153.13
553.77	2159.16
554.13	2165.28
554.48	2171.52
554.84	2176.89
555.19	2182.35
555.55	2187.52
555.90	2191.98
556.26	2196.77
556.61	2201.51
556.97	2205.96
557.32	2210.03
557.68	2214.13
558.03	2218.38
558.39	2222.19
558.74	2226.89
559.10	2230.79
559.45	2234.59
559.81	2238.72
560.16	2242.54
560.52	2245.84
560.87	2249.25
561.23	2252.06
561.58	2254.97
561.94	2257.30
562.29	2259.84
562.64	2262.42
563.00	2264.88
563.35	2268.33
563.71	2271.41
564.06	2274.61
564.42	2277.44
564.77	2279.85
565.12	2282.33
565.48	2284.31
565.83	2286.13
566.19	2287.46
566.54	2288.35
566.89	2289.44
567.25	2290.22
567.60	2291.52
567.96	2293.13
568.31	2293.90
568.66	2295.04
569.02	2295.74
569.37	2296.15
569.72	2297.08
570.08	2297.27
570.43	2297.50
570.78	2297.04
571.14	2295.55
571.49	2294.15
571.84	2293.88
572.20	2292.87
572.55	2291.74
572.90	2290.20
573.26	2288.83
573.61	2287.17
573.96	2285.50
574.31	2282.52
574.67	2279.61
575.02	2276.15
575.37	2272.92
575.72	2269.19
576.08	2265.77
576.43	2262.31
576.78	2258.67
577.13	2255.30
577.49	2252.23
577.84	2248.78
578.19	2245.15
578.54	2241.66
578.90	2237.56
579.25	2232.09
579.60	2227.24
579.95	2222.23
580.30	2217.33
580.66	2212.20
581.01	2207.21
581.36	2202.21
581.71	2198.11
582.06	2193.51
582.42	2189.04
582.77	2183.85
583.12	2179.52
583.47	2175.00
583.82	2170.26
584.17	2165.11
584.53	2159.81
584.88	2154.20
585.23	2148.54
585.58	2143.00
585.93	2137.60
586.28	2132.94
586.63	2127.79
586.98	2122.66
587.34	2118.02
587.69	2113.17
588.04	2108.01
588.39	2102.49
588.74	2096.16
589.09	2090.08
589.44	2083.40
589.79	2077.47
590.14	2071.85
590.49	2065.15
590.84	2058.81
591.19	2052.79
591.54	2046.27
591.89	2038.87
592.25	2032.30
592.60	2025.14
592.95	2017.69
593.30	2010.41
593.65	2002.71
594.00	1995.83
594.35	1988.64
594.70	1980.75
595.05	1973.56
595.40	1966.44
595.75	1958.98
596.10	1952.80
596.45	1946.08
596.80	1940.03
597.15	1933.46
597.50	1926.54
597.85	1920.29
598.19	1913.63
598.54	1906.54
598.89	1899.94
599.24	1894.10
599.59	1887.31
599.94	1881.18
600.29	1874.90
600.64	1868.32
600.99	1861.06
601.34	1854.27
601.69	1847.41
602.04	1840.41
602.39	1833.13
602.74	1826.28
603.08	1819.50
603.43	1812.76
603.78	1805.47
604.13	1798.30
604.48	1790.95
604.83	1784.03
605.18	1777.05
605.53	1769.05
605.87	1760.94
606.22	1753.76
606.57	1745.87
606.92	1738.70
607.27	1731.41
607.62	1724.50
607.96	1717.12
608.31	1710.52
608.66	1702.88
609.01	1695.31
609.36	1687.81
609.70	1679.80
610.05	1671.72
610.40	1664.08
610.75	1655.94
611.10	1648.30
611.44	1639.82
611.79	1631.98
612.14	1623.34
612.49	1614.18
612.83	1605.94
613.18	1597.85
613.53	1589.81
613.88	1581.24
614.22	1572.89
614.57	1564.35
614.92	1556.27
615.27	1548.90
615.61	1540.52
615.96	1532.51
616.31	1524.92
616.65	1517.60
617.00	1510.04
617.35	1502.26
617.70	1494.00
618.04	1485.34
618.39	1477.11
618.74	1469.60
619.08	1461.17
619.43	1453.51
619.78	1446.57
620.12	1439.27
620.47	1431.78
620.82	1423.67
621.16	1416.22
621.51	1408.65
621.85	1401.05
622.20	1392.60
622.55	1384.13
622.89	1376.27
623.24	1368.75
623.59	1361.32
623.93	1353.75
624.28	1346.53
624.62	1339.13
624.97	1331.93
625.32	1325.29
625.66	1318.38
626.01	1311.15
626.35	1303.79
626.70	1296.12
627.04	1288.44
627.39	1280.70
627.73	1273.24
628.08	1266.28
628.43	1259.08
628.77	1251.76
629.12	1244.22
629.46	1237.13
629.81	1229.73
630.15	1222.57
630.50	1215.05
630.84	1206.77
631.19	1198.83
631.53	1191.27
631.88	1183.70
632.22	1176.04
632.57	1168.63
632.91	1160.99
633.26	1153.49
633.60	1146.03
633.95	1138.79
634.29	1131.74
634.64	1125.03
634.98	1117.68
635.32	1110.47
635.67	1103.82
636.01	1097.09
636.36	1090.24
636.70	1083.57
637.05	1076.95
637.39	1070.44
637.73	1063.94
638.08	1058.12
638.42	1052.13
638.77	1045.73
639.11	1039.15
639.45	1032.79
639.80	1026.15
640.14	1019.73
640.49	1013.30
640.83	1006.99
641.17	1000.82
641.52	994.40
641.86	987.91
642.20	982.08
642.55	975.77
642.89	969.30
643.23	962.71
643.58	956.93
643.92	950.69
644.26	944.66
644.61	938.57
644.95	932.43
645.29	925.82
645.64	919.04
645.98	912.67
646.32	906.77
646.66	900.64
647.01	894.84
647.35	889.17
647.69	883.27
648.04	877.78
648.38	871.92
648.72	865.94
649.06	859.91
649.41	854.02
649.75	848.09
650.09	842.20
650.43	836.52
650.78	830.33
651.12	824.40
651.46	818.66
651.80	812.95
652.14	807.63
652.49	802.34
652.83	797.27
653.17	791.50
653.51	785.83
653.85	780.50
654.20	774.86
654.54	768.81
654.88	763.15
655.22	757.21
655.56	751.63
655.90	746.17
656.25	740.90
656.59	735.54
656.93	730.46
657.27	725.25
657.61	719.75
657.95	714.70
658.29	709.64
658.64	704.42
658.98	699.13
659.32	693.67
659.66	688.44
660.00	683.06
660.34	678.17
660.68	673.22
661.02	668.12
661.36	663.36
661.70	658.86
662.05	654.41
662.39	650.13
662.73	645.56
663.07	641.11
663.41	636.72
663.75	632.22
664.09	627.68
664.43	623.22
664.77	619.12
665.11	614.92
665.45	610.79
665.79	606.65
666.13	602.45
666.47	598.32
666.81	594.13
667.15	590.01
667.49	586.11
667.83	582.31
668.17	578.40
668.51	574.37
668.85	570.36
669.19	566.55
669.53	562.67
669.87	558.83
670.21	555.20
670.55	551.53
670.89	548.09
671.23	544.58
671.57	541.09
671.91	537.51
672.25	533.94
672.58	530.42
672.92	527.06
673.26	523.93
673.60	520.76
673.94	517.63
674.28	514.71
674.62	511.70
674.96	508.55
675.30	505.67
675.64	502.71
675.97	499.89
676.31	496.95
676.65	494.02
676.99	491.30
677.33	488.45
677.67	485.63
678.01	482.58
678.34	479.64
678.68	476.74
679.02	473.93
679.36	471.17
679.70	468.44
680.04	465.67
680.37	462.80
680.71	460.04
681.05	457.42
681.39	454.67
681.73	452.03
682.06	449.54
682.40	446.92
682.74	444.40
683.08	441.87
683.42	439.31
683.75	436.78
684.09	434.25
684.43	431.72
684.77	429.25
685.10	426.91
685.44	424.59
685.78	422.34
686.12	420.10
686.45	417.81
686.79	415.49
687.13	413.29
687.46	411.14
687.80	408.95
688.14	406.73
688.48	404.73
688.81	402.53
689.15	400.37
689.49	398.24
689.82	396.14
690.16	394.04
690.50	392.09
690.83	390.14
691.17	388.18
691.51	386.29
691.84	384.43
692.18	382.47
692.52	380.49
692.85	378.52
693.19	376.62
693.52	374.77
693.86	372.98
694.20	371.14
694.53	369.35
694.87	367.51
695.21	365.75
695.54	363.91
695.88	362.17
696.21	360.42
696.55	358.77
696.88	357.12
697.22	355.43
697.56	353.83
697.89	352.23
698.23	350.59
698.56	349.00
698.90	347.45
699.23	345.83
699.57	344.32
699.90	342.82
700.24	341.26
700.58	339.77
700.91	338.28
701.25	336.85
701.58	335.49
701.92	334.15
702.25	332.71
702.59	331.34
702.92	330.00
703.26	328.73
703.59	327.46
703.93	326.25
704.26	325.04
704.60	323.70
704.93	322.40
705.26	321.15
705.60	319.97
705.93	318.81
706.27	317.77
706.60	316.68
706.94	315.59
707.27	314.45
707.61	313.38
707.94	312.32
708.27	311.21
708.61	310.08
708.94	309.10
709.28	308.17
709.61	307.22
709.94	306.26
710.28	305.21
710.61	304.25
710.95	303.18
711.28	302.26
711.61	301.31
711.95	300.40
712.28	299.50
712.61	298.51
712.95	297.56
713.28	296.68
713.61	295.76
713.95	294.89
714.28	294.09
714.61	293.24
714.95	292.39
715.28	291.56
715.61	290.69
715.95	289.80
716.28	288.95
716.61	288.12
716.95	287.27
717.28	286.56
717.61	285.76
717.94	285.03
718.28	284.23
718.61	283.52
718.94	282.84
719.27	282.15
719.61	281.49
719.94	280.81
720.27	280.08
720.60	279.44
720.94	278.76
721.27	278.16
721.60	277.56
721.93	276.92
722.27	276.37
722.60	275.81
722.93	275.25
723.26	274.71
723.59	274.11
723.93	273.58
724.26	272.98
724.59	272.41
724.92	271.89
725.25	271.38
725.59	270.82
725.92	270.29
726.25	269.77
726.58	269.31
726.91	268.84
727.24	268.35
727.57	267.84
727.91	267.33
728.24	266.89
728.57	266.43
728.90	266.02
729.23	265.50
729.56	265.11
729.89	264.66
730.22	264.18
730.55	263.75
730.89	263.34
731.22	262.94
731.55	262.50
731.88	262.08
732.21	261.67
732.54	261.23
732.87	260.81
733.20	260.43
733.53	260.01
733.86	259.63
734.19	259.22
734.52	258.88
734.85	258.57
735.18	258.14
735.51	257.74
735.84	257.36
736.17	257.01
736.50	256.60
736.83	256.33
737.16	255.99
737.49	255.63
737.82	255.27
738.15	254.92
738.48	254.60
738.81	254.25
739.14	253.92
739.47	253.64
739.80	253.34
740.13	253.02
740.46	252.70
740.79	252.35
741.12	252.08
741.45	251.74
741.78	251.41
742.11	251.16
742.44	250.83
742.77	250.54
743.10	250.24
743.43	249.93
743.75	249.55
744.08	249.38
744.41	249.13
744.74	248.87
745.07	248.55
745.40	248.32
745.73	248.09
746.06	247.77
746.39	247.50
746.71	247.24
747.04	246.95
747.37	246.72
747.70	246.50
748.03	246.24
748.36	246.03
748.68	245.80
749.01	245.52
749.34	245.29
749.67	245.06
750.00	244.84
750.33	244.71
750.65	244.52
750.98	244.19
751.31	243.92
751.64	243.70
751.97	243.55
752.29	243.32
752.62	243.06
752.95	242.87
753.28	242.67
753.60	242.45
753.93	242.28
754.26	242.04
754.59	241.81
754.91	241.58
755.24	241.37
755.57	241.14
755.90	240.95
756.22	240.75
756.55	240.55
756.88	240.38
757.20	240.14
757.53	239.95
757.86	239.81
758.19	239.67
758.51	239.49
758.84	239.29
759.17	239.12
759.49	238.98
759.82	238.86
760.15	238.71
760.47	238.55
760.80	238.37
761.13	238.24
761.45	238.08
761.78	237.95
762.11	237.81
762.43	237.69
762.76	237.54
763.08	237.42
763.41	237.31
763.74	237.17
764.06	236.99
764.39	236.83
764.71	236.65
765.04	236.50
765.37	236.38
765.69	236.25
766.02	236.11
766.34	235.96
766.67	235.81
767.00	235.70
767.32	235.63
767.65	235.57
767.97	235.44
768.30	235.35
768.62	235.24
768.95	235.13
769.27	235.02
769.60	234.95
769.92	234.85
770.25	234.72
770.57	234.61
770.90	234.54
771.22	234.45
771.55	234.39
771.87	234.31
772.20	234.21
772.52	234.19
772.85	234.20
773.17	234.11
773.50	234.02
773.82	233.90
774.15	233.77
774.47	233.63
774.80	233.52
775.12	233.45
775.45	233.35
775.77	233.26
776.09	233.17
776.42	233.08
776.74	233.01
777.07	232.92
777.39	232.84
777.72	232.76
778.04	232.71
778.36	232.62
778.69	232.55
779.01	232.49
779.33	232.36
779.66	232.19
779.98	232.13
780.31	232.05
780.63	232.05
780.95	232.00
781.28	231.96
781.60	231.93
781.92	231.82
782.25	231.78
782.57	231.72
782.89	231.68
783.22	231.58
783.54	231.52
783.86	231.46
784.19	231.42
784.51	231.37
784.83	231.28
785.16	231.24
785.48	231.21
785.80	231.13
786.12	231.06
786.45	231.03
786.77	230.98
787.09	230.95
787.42	230.85
787.74	230.82
788.06	230.76
788.38	230.68
788.71	230.66
789.03	230.62
789.35	230.57
789.67	230.54
789.99	230.56
790.32	230.46
790.64	230.43
790.96	230.45
791.28	230.37
791.61	230.31
791.93	230.27
792.25	230.21
792.57	230.23
792.89	230.16
793.21	230.12
793.54	230.07
793.86	230.01
794.18	229.94
794.50	229.88
794.82	229.82
795.14	229.83
795.47	229.76
795.79	229.73
796.11	229.69
796.43	229.63
796.75	229.54
797.07	229.55
797.39	229.52
797.71	229.42
798.04	229.38
798.36	229.37
798.68	229.30
799.00	229.25
799.32	229.19
799.64	229.18
799.96	229.16
800.28	229.16
800.60	229.11
800.92	229.12
801.24	229.07
801.56	229.05
801.89	228.99
802.21	228.94
802.53	228.90
802.85	228.90
803.17	228.92
803.49	228.91
803.81	228.87
804.13	228.83
804.45	228.79
804.77	228.78
805.09	228.73
805.41	228.71
805.73	228.68
806.05	228.63
806.37	228.61
806.69	228.55
807.01	228.50
807.33	228.48
807.65	228.41
807.97	228.46
808.28	228.43
808.60	228.42
808.92	228.42
809.24	228.44
809.56	228.42
809.88	228.35
810.20	228.32
810.52	228.30
810.84	228.28
811.16	228.29
811.48	228.28
811.80	228.27
812.12	228.27
812.43	228.28
812.75	228.29
813.07	228.23
813.39	228.24
813.71	228.25
814.03	228.26
814.35	228.26
814.67	228.20
814.98	228.12
815.30	228.12
815.62	228.09
815.94	228.05
816.26	228.06
816.58	228.04
816.89	228.03
817.21	228.00
817.53	227.97
817.85	227.95
818.17	227.93
818.48	227.91
818.80	227.91
819.12	227.87
819.44	227.83
819.76	227.82
820.07	227.79
820.39	227.74
820.71	227.70
821.03	227.70
821.34	227.68
821.66	227.72
821.98	227.70
822.30	227.69
822.61	227.72
822.93	227.65
823.25	227.62
823.57	227.61
823.88	227.62
824.20	227.62
824.52	227.58
824.83	227.53
825.15	227.50
825.47	227.44
825.79	227.43
826.10	227.45
826.42	227.44
826.74	227.41
827.05	227.44
827.37	227.43
827.69	227.41
828.00	227.40
828.32	227.37
828.64	227.33
828.95	227.37
829.27	227.30
829.58	227.30
829.90	227.29
830.22	227.28
830.53	227.23
830.85	227.22
831.17	227.20
831.48	227.24
831.80	227.25
832.11	227.27
832.43	227.25
832.75	227.23
833.06	227.30
833.38	227.25
833.69	227.22
834.01	227.21
834.32	227.19
834.64	227.17
834.96	227.14
835.27	227.14
835.59	227.11
835.90	227.06
836.22	227.08
836.53	227.05
836.85	227.02
837.16	227.09
837.48	227.11
837.79	227.13
838.11	227.12
838.42	227.10
838.74	227.08
839.05	227.06
839.37	227.02
839.68	226.93
840.00	226.95
840.31	226.96
840.63	226.95
840.94	226.94
841.26	226.96
841.57	226.97
841.88	226.97
842.20	226.93
842.51	226.95
842.83	226.94
843.14	227.03
843.46	227.04
843.77	227.01
844.08	227.00
844.40	226.94
844.71	226.92
845.03	226.88
845.34	226.86
845.65	226.86
845.97	226.89
846.28	226.90
846.60	226.91
846.91	226.89
847.22	226.87
847.54	226.90
847.85	226.87
848.16	226.87
848.48	226.85
848.79	226.92
849.10	226.92
849.42	226.93
849.73	226.83
850.04	226.83
850.36	226.78
850.67	226.77
850.98	226.78
851.30	226.81
851.61	226.82
851.92	226.85
852.23	226.90
852.55	226.87
852.86	226.89
853.17	226.90
853.49	226.89
853.80	226.94
854.11	226.94
854.42	226.93
854.74	226.93
855.05	226.90
855.36	226.82
855.67	226.85
855.99	226.82
856.30	226.95
856.61	226.92
856.92	226.95
857.23	226.97
857.55	226.96
857.86	226.92
858.17	226.93
858.48	226.92
858.79	226.85
859.11	226.87
859.42	226.84
859.73	226.81
860.04	226.79
860.35	226.77
860.66	226.72
860.98	226.72
861.29	226.73
861.60	226.74
861.91	226.78
862.22	226.74
862.53	226.73
862.84	226.59
863.16	226.60
863.47	226.58
863.78	226.52
864.09	226.50
864.40	226.53
864.71	226.52
865.02	226.51
865.33	226.50
865.64	226.46
865.95	226.45
866.27	226.52
866.58	226.52
866.89	226.53
867.20	226.54
867.51	226.55
867.82	226.55
868.13	226.61
868.44	226.59
868.75	226.59
869.06	226.59
869.37	226.62
869.68	226.59
869.99	226.60
870.30	226.64
870.61	226.68
870.92	226.66
871.23	226.66
871.54	226.68
871.85	226.71
872.16	226.73
872.47	226.74
872.78	226.67
873.09	226.66
873.40	226.62
873.71	226.66
874.02	226.67
874.33	226.67
874.64	226.61
874.95	226.63
875.26	226.62
875.56	226.63
875.87	226.60
876.18	226.59
876.49	226.68
876.80	226.69
877.11	226.66
877.42	226.63
877.73	226.65
878.04	226.64
878.35	226.64
878.66	226.68
878.96	226.68
879.27	226.68
879.58	226.67
879.89	226.67
880.20	226.65
880.51	226.63
880.82	226.64
881.12	226.68
881.43	226.60
881.74	226.60
882.05	226.58
882.36	226.59
882.67	226.65
882.97	226.55
883.28	226.51
883.59	226.54
883.90	226.59
884.21	226.57
884.51	226.54
884.82	226.51
885.13	226.49
885.44	226.49
885.74	226.49
886.05	226.49
886.36	226.47
886.67	226.46
886.98	226.49
887.28	226.47
887.59	226.43
887.90	226.50
888.20	226.48
888.51	226.51
888.82	226.49
889.13	226.45
889.43	226.52
889.74	226.49
890.05	226.44
890.35	226.41
890.66	226.38
890.97	226.39
891.28	226.36
891.58	226.32
891.89	226.27
892.20	226.27
892.50	226.27
892.81	226.29
893.12	226.29
893.42	226.24
893.73	226.23
894.04	226.24
894.34	226.22
894.65	226.23
894.95	226.22
895.26	226.24
895.57	226.30
895.87	226.21
896.18	226.25
896.48	226.29
896.79	226.28
897.10	226.28
897.40	226.26
897.71	226.26
898.01	226.28
898.32	226.29
898.63	226.25
898.93	226.24
899.24	226.28
899.54	226.23
899.85	226.21
900.15	226.22
900.46	226.21
900.76	226.20
901.07	226.18
901.38	226.16
901.68	226.16
901.99	226.10
902.29	226.06
902.60	226.03
902.90	226.02
903.21	226.01
903.51	226.05
903.82	226.08
904.12	226.10
904.43	226.10
904.73	226.10
905.03	226.13
905.34	226.20
905.64	226.15
905.95	226.18
906.25	226.20
906.56	226.22
906.86	226.24
907.17	226.23
907.47	226.24
907.77	226.24
908.08	226.21
908.38	226.24
908.69	226.26
908.99	226.27
909.30	226.29
909.60	226.28
909.90	226.26
910.21	226.24
910.51	226.22
910.81	226.24
911.12	226.26
911.42	226.29
911.73	226.23
912.03	226.25
912.33	226.26
912.64	226.25
912.94	226.21
913.24	226.18
913.55	226.21
913.85	226.18
914.15	226.19
914.46	226.19
914.76	226.17
915.06	226.15
915.37	226.15
915.67	226.13
915.97	226.15
916.27	226.11
916.58	226.12
916.88	226.15
917.18	226.13
917.49	226.19
917.79	226.16
918.09	226.16
918.39	226.18
918.70	226.19
919.00	226.20
919.30	226.24
919.60	226.21
919.91	226.16
920.21	226.15
920.51	226.13
920.81	226.11
921.12	226.09
921.42	226.11
921.72	226.11
922.02	226.12
922.32	226.12
922.63	226.14
922.93	226.20
923.23	226.16
923.53	226.14
923.83	226.08
924.13	226.09
924.44	226.07
924.74	226.08
925.04	226.08
925.34	226.04
925.64	225.99
925.94	226.02
926.24	226.11
926.55	226.11
926.85	226.12
927.15	226.13
927.45	226.16
927.75	226.14
928.05	226.13
928.35	226.13
928.65	226.12
928.95	226.11
929.26	226.07
929.56	226.09
929.86	226.13
930.16	226.08
930.46	226.05
930.76	226.06
931.06	226.01
931.36	225.99
931.66	226.03
931.96	226.03
932.26	226.05
932.56	225.98
932.86	225.98
933.16	226.01
933.46	226.01
933.76	226.00
934.06	226.04
934.36	226.05
934.66	226.01
934.96	225.98
935.26	226.02
935.56	226.01
935.86	226.00
936.16	225.98
936.46	226.00
936.76	226.00
937.06	225.98
937.36	225.98
937.66	226.00
937.96	225.98
938.26	226.00
938.56	225.99
938.86	226.01
939.16	226.04
939.46	226.04
939.76	226.06
940.06	226.05
940.35	226.03
940.65	225.98
940.95	226.01
941.25	226.01
941.55	225.99
941.85	225.98
942.15	226.01
942.45	226.03
942.75	226.04
943.04	226.03
943.34	226.05
943.64	226.09
943.94	226.04
944.24	226.05
944.54	226.04
944.84	226.04
945.13	226.00
945.43	225.98
945.73	225.95
946.03	225.92
946.33	225.91
946.62	225.90
946.92	225.93
947.22	225.90
947.52	225.95
947.82	225.97
948.11	226.01
948.41	226.01
948.71	226.00
949.01	226.00
949.31	226.01
949.60	226.01
949.90	225.99
950.20	226.02
950.50	226.02
950.79	226.02
951.09	226.04
951.39	226.05
951.69	226.05
951.98	226.07
952.28	226.09
952.58	226.11
952.87	226.12
953.17	226.14
953.47	226.19
953.76	226.18
954.06	226.16
954.36	226.13
954.66	226.10
954.95	226.14
955.25	226.16
955.55	226.16
955.84	226.13
956.14	226.16
956.44	226.16
956.73	226.14
957.03	226.15
957.32	226.17
957.62	226.20
957.92	226.24
958.21	226.23
958.51	226.34
958.81	226.35
959.10	226.36
959.40	226.38
959.69	226.36
959.99	226.38
960.29	226.37
960.58	226.37
960.88	226.42
961.17	226.40
961.47	226.42
961.76	226.41
962.06	226.44
962.36	226.44
962.65	226.43
962.95	226.45
963.24	226.44
963.54	226.43
963.83	226.43
964.13	226.40
964.42	226.38
964.72	226.32
965.01	226.31
965.31	226.31
965.60	226.30
965.90	226.34
966.19	226.31
966.49	226.31
966.78	226.29
967.08	226.26
967.37	226.21
967.67	226.19
967.96	226.19
968.26	226.18
968.55	226.15
968.85	226.17
969.14	226.14
969.43	226.13
969.73	226.12
970.02	226.07
970.32	226.07
970.61	226.06
970.91	226.00
971.20	225.98
971.49	225.94
971.79	225.95
972.08	225.91
972.38	225.89
972.67	225.90
972.96	225.93
973.26	225.91
973.55	225.96
973.85	225.95
974.14	225.95
974.43	225.95
974.73	225.95
975.02	225.89
975.31	225.90
975.61	225.91
975.90	225.90
976.19	225.89
976.49	225.88
976.78	225.89
977.07	225.91
977.37	225.91
977.66	225.90
977.95	225.86
978.24	225.84
978.54	225.87
978.83	225.86
979.12	225.85
979.42	225.84
979.71	225.81
980.00	225.80
980.29	225.80
980.59	225.76
980.88	225.78
981.17	225.80
981.46	225.79
981.76	225.77
982.05	225.81
982.34	225.83
982.63	225.82
982.93	225.81
983.22	225.84
983.51	225.84
983.80	225.84
984.09	225.84
984.39	225.83
984.68	225.81
984.97	225.82
985.26	225.76
985.55	225.76
985.85	225.75
986.14	225.76
986.43	225.77
986.72	225.79
987.01	225.77
987.30	225.76
987.59	225.75
987.89	225.75
988.18	225.70
988.47	225.66
988.76	225.69
989.05	225.65
989.34	225.60
989.63	225.62
989.92	225.61
990.22	225.63
990.51	225.63
990.80	225.63
991.09	225.62
991.38	225.65
991.67	225.65
991.96	225.65
992.25	225.65
992.54	225.62
992.83	225.64
993.12	225.63
993.41	225.67
993.70	225.72
993.99	225.73
994.28	225.72
994.58	225.74
994.87	225.70
995.16	225.73
995.45	225.74
995.74	225.72
996.03	225.75
996.32	225.76
996.61	225.79
996.90	225.82
997.19	225.83
997.48	225.81
997.77	225.84
998.06	225.84
998.34	225.86
998.63	225.90
998.92	225.86
999.21	225.87
999.50	225.88
999.79	225.85
1000.08	225.86
1000.37	225.90
1000.66	225.91
1000.95	225.96
1001.24	225.96
1001.53	226.00
1001.82	225.98
1002.11	225.95
1002.40	225.95
1002.68	225.96
1002.97	226.03
1003.26	226.01
1003.55	226.03
1003.84	226.03
1004.13	226.06
1004.42	226.04
1004.71	226.03
1004.99	226.07
1005.28	226.11
1005.57	226.08
1005.86	226.09
1006.15	226.06
1006.44	226.03
1006.72	226.02
1007.01	225.98
1007.30	226.01
1007.59	225.97
1007.88	226.01
1008.17	226.04
1008.45	226.03
1008.74	226.00
1009.03	225.95
1009.32	225.96
1009.60	225.93
1009.89	225.89
1010.18	225.89
1010.47	225.88
1010.76	225.89
1011.04	225.88
1011.33	225.87
1011.62	225.90
1011.91	225.89
1012.19	225.91
1012.48	225.93
1012.77	225.93
1013.05	225.98
1013.34	225.97
1013.63	225.96
1013.92	225.92
1014.20	225.89
1014.49	225.90
1014.78	225.91
1015.06	225.88
1015.35	225.87
1015.64	225.91
1015.92	225.94
1016.21	225.92
1016.50	225.92
1016.78	225.92
1017.07	225.89
1017.36	225.84
1017.64	225.81
1017.93	225.79
1018.22	225.77
1018.50	225.76
1018.79	225.76
1019.08	225.73
1019.36	225.73
1019.65	225.72
1019.93	225.78
1020.22	225.82
1020.51	225.85
1020.79	225.83
1021.08	225.18
1021.36	225.70
1021.65	225.71
1021.94	225.78
1022.22	225.97
1022.51	225.65
1022.79	226.62
1023.08	226.20
1023.36	226.72
1023.65	225.64
>>>>>End Processed Spectral Data<<<<<
