SpectraSuite Data File
++++++++++++++++++++++++++++++++++++
Date: Fri Feb 01 17:44:53 EST 2013
User: group
Dark Spectrum Present: No
Reference Spectrum Present: No
Number of Sampled Component Spectra: 1
Spectrometers: USB2E7196
Integration Time (usec): 35000 (USB2E7196)
Spectra Averaged: 100 (USB2E7196)
Boxcar Smoothing: 10 (USB2E7196)
Correct for Electrical Dark: No (USB2E7196)
Strobe/Lamp Enabled: No (USB2E7196)
Correct for Detector Non-linearity: No (USB2E7196)
Correct for Stray Light: No (USB2E7196)
Number of Pixels in Processed Spectrum: 2048
>>>>>Begin Processed Spectral Data<<<<<
339.09	0.00
339.48	212.85
339.86	214.23
340.24	215.66
340.63	216.57
341.01	219.54
341.39	219.85
341.78	220.88
342.16	222.60
342.54	222.77
342.93	211.25
343.31	221.94
343.69	222.46
344.07	222.93
344.46	223.33
344.84	223.71
345.22	223.96
345.60	224.18
345.99	224.38
346.37	224.49
346.75	224.59
347.13	224.62
347.52	224.66
347.90	224.72
348.28	224.77
348.66	224.81
349.05	224.81
349.43	224.86
349.81	224.88
350.19	224.89
350.57	224.92
350.96	224.99
351.34	225.06
351.72	225.13
352.10	225.21
352.48	225.28
352.87	225.34
353.25	225.36
353.63	225.43
354.01	225.49
354.39	225.54
354.77	225.61
355.15	225.68
355.54	225.72
355.92	225.79
356.30	225.84
356.68	225.97
357.06	226.05
357.44	226.09
357.82	226.15
358.20	226.23
358.58	226.28
358.97	226.38
359.35	226.43
359.73	226.53
360.11	226.56
360.49	226.61
360.87	226.67
361.25	226.75
361.63	226.81
362.01	226.83
362.39	226.85
362.77	226.90
363.15	226.94
363.53	226.99
363.91	226.97
364.29	226.98
364.67	226.90
365.05	226.88
365.43	226.90
365.81	226.90
366.19	226.90
366.57	226.96
366.95	226.90
367.33	226.89
367.71	226.86
368.09	226.89
368.47	226.88
368.85	226.85
369.23	226.84
369.61	226.82
369.99	226.82
370.37	226.83
370.75	226.85
371.13	226.79
371.51	226.76
371.89	226.77
372.27	226.72
372.65	226.69
373.03	226.69
373.41	226.63
373.78	226.58
374.16	226.47
374.54	226.38
374.92	226.35
375.30	226.27
375.68	226.21
376.06	226.14
376.44	226.10
376.82	226.07
377.19	226.05
377.57	225.97
377.95	225.91
378.33	225.84
378.71	225.71
379.09	225.71
379.47	225.68
379.84	225.62
380.22	225.62
380.60	225.57
380.98	225.49
381.36	225.45
381.73	225.39
382.11	225.39
382.49	225.36
382.87	225.29
383.25	225.26
383.62	225.34
384.00	225.28
384.38	225.24
384.76	225.22
385.13	225.18
385.51	225.15
385.89	225.10
386.27	225.05
386.64	225.03
387.02	224.94
387.40	224.88
387.78	224.83
388.15	224.76
388.53	224.74
388.91	224.71
389.29	224.67
389.66	224.68
390.04	224.65
390.42	224.63
390.79	224.63
391.17	224.61
391.55	224.47
391.92	224.43
392.30	224.39
392.68	224.38
393.05	224.36
393.43	224.37
393.81	224.38
394.18	224.37
394.56	224.38
394.94	224.41
395.31	224.41
395.69	224.44
396.06	224.46
396.44	224.46
396.82	224.49
397.19	224.56
397.57	224.57
397.95	224.64
398.32	224.66
398.70	224.71
399.07	224.80
399.45	224.85
399.82	224.93
400.20	225.01
400.58	225.07
400.95	225.09
401.33	225.18
401.70	225.33
402.08	225.43
402.45	225.47
402.83	225.57
403.20	225.71
403.58	225.81
403.95	225.95
404.33	226.11
404.71	226.20
405.08	226.42
405.46	226.56
405.83	226.68
406.21	226.85
406.58	227.03
406.96	227.16
407.33	227.35
407.70	227.60
408.08	227.92
408.45	228.14
408.83	228.43
409.20	228.64
409.58	228.84
409.95	229.17
410.33	229.51
410.70	229.82
411.08	230.13
411.45	230.49
411.82	230.82
412.20	231.23
412.57	231.77
412.95	232.11
413.32	232.60
413.69	233.11
414.07	233.63
414.44	234.20
414.82	234.81
415.19	235.51
415.56	236.18
415.94	236.87
416.31	237.69
416.68	238.48
417.06	239.38
417.43	240.24
417.81	241.19
418.18	242.19
418.55	243.23
418.93	244.34
419.30	245.44
419.67	246.62
420.04	247.81
420.42	249.05
420.79	250.50
421.16	251.96
421.54	253.48
421.91	255.01
422.28	256.56
422.66	258.22
423.03	259.81
423.40	261.46
423.77	263.23
424.15	264.98
424.52	266.84
424.89	268.88
425.26	270.81
425.64	272.62
426.01	274.60
426.38	276.66
426.75	278.78
427.13	280.97
427.50	283.26
427.87	285.62
428.24	287.98
428.61	290.19
428.99	292.58
429.36	295.19
429.73	297.73
430.10	300.28
430.47	302.86
430.85	305.53
431.22	308.34
431.59	311.19
431.96	313.97
432.33	317.07
432.70	320.05
433.08	323.53
433.45	326.81
433.82	330.06
434.19	333.65
434.56	337.08
434.93	340.39
435.30	343.65
435.68	347.25
436.05	350.75
436.42	354.18
436.79	357.29
437.16	360.61
437.53	364.12
437.90	367.58
438.27	370.98
438.64	374.50
439.01	377.64
439.38	380.49
439.75	383.19
440.13	386.28
440.50	389.14
440.87	391.41
441.24	393.82
441.61	396.52
441.98	398.38
442.35	400.72
442.72	403.01
443.09	405.26
443.46	406.48
443.83	407.20
444.20	407.87
444.57	408.95
444.94	409.34
445.31	409.78
445.68	410.24
446.05	410.36
446.42	409.90
446.79	409.44
447.16	408.90
447.53	408.60
447.90	407.15
448.27	405.74
448.64	403.77
449.01	402.38
449.37	399.93
449.74	397.60
450.11	394.77
450.48	391.72
450.85	388.52
451.22	385.83
451.59	383.32
451.96	380.93
452.33	377.69
452.70	374.75
453.07	371.24
453.43	367.64
453.80	364.22
454.17	360.89
454.54	357.72
454.91	354.36
455.28	350.97
455.65	347.88
456.02	344.75
456.38	342.12
456.75	338.78
457.12	335.92
457.49	333.09
457.86	330.34
458.23	327.98
458.59	325.48
458.96	322.90
459.33	320.57
459.70	318.25
460.07	316.37
460.43	314.22
460.80	312.20
461.17	310.38
461.54	308.44
461.91	306.61
462.27	304.80
462.64	303.20
463.01	301.50
463.38	299.86
463.74	298.20
464.11	296.74
464.48	295.45
464.85	294.10
465.21	293.04
465.58	291.90
465.95	290.57
466.32	289.43
466.68	288.33
467.05	287.20
467.42	286.07
467.78	284.89
468.15	283.81
468.52	282.99
468.88	281.94
469.25	281.03
469.62	280.29
469.98	279.46
470.35	278.66
470.72	277.93
471.08	277.14
471.45	276.46
471.82	275.77
472.18	275.03
472.55	274.48
472.92	273.85
473.28	273.28
473.65	272.71
474.02	272.14
474.38	271.64
474.75	271.22
475.11	270.74
475.48	270.39
475.85	270.06
476.21	269.72
476.58	269.43
476.94	269.21
477.31	268.93
477.67	268.73
478.04	268.59
478.41	268.46
478.77	268.46
479.14	268.34
479.50	268.30
479.87	268.35
480.23	268.35
480.60	268.39
480.96	268.40
481.33	268.54
481.69	268.72
482.06	268.89
482.42	269.05
482.79	269.32
483.15	269.62
483.52	269.98
483.88	270.36
484.25	270.72
484.61	271.12
484.98	271.56
485.34	272.05
485.71	272.60
486.07	273.19
486.44	273.69
486.80	274.40
487.17	275.12
487.53	275.94
487.90	276.82
488.26	277.71
488.62	278.74
488.99	279.75
489.35	280.79
489.72	281.96
490.08	283.18
490.44	284.43
490.81	285.80
491.17	287.16
491.54	288.67
491.90	290.25
492.26	291.94
492.63	293.68
492.99	295.52
493.36	297.46
493.72	299.57
494.08	301.77
494.45	304.06
494.81	306.51
495.17	308.98
495.54	311.62
495.90	314.40
496.26	317.28
496.63	320.36
496.99	323.56
497.35	326.83
497.72	330.37
498.08	334.01
498.44	337.84
498.80	341.88
499.17	346.02
499.53	350.35
499.89	354.87
500.26	359.58
500.62	364.42
500.98	369.55
501.34	374.75
501.71	380.23
502.07	385.89
502.43	391.70
502.79	397.74
503.16	403.97
503.52	410.48
503.88	417.09
504.24	423.97
504.60	431.09
504.97	438.51
505.33	446.07
505.69	454.04
506.05	462.05
506.41	470.25
506.78	478.73
507.14	487.52
507.50	496.57
507.86	505.84
508.22	515.45
508.59	525.01
508.95	534.95
509.31	545.18
509.67	555.60
510.03	566.28
510.39	577.23
510.75	588.57
511.12	599.95
511.48	611.67
511.84	623.62
512.20	635.68
512.56	648.11
512.92	660.79
513.28	673.66
513.64	686.73
514.00	700.01
514.37	713.49
514.73	727.07
515.09	740.67
515.45	754.55
515.81	768.66
516.17	783.23
516.53	798.07
516.89	812.83
517.25	827.78
517.61	842.86
517.97	858.06
518.33	873.14
518.69	888.65
519.05	904.31
519.41	920.24
519.77	936.51
520.13	952.88
520.49	969.17
520.85	985.31
521.21	1001.74
521.57	1018.90
521.93	1035.51
522.29	1052.75
522.65	1069.98
523.01	1087.17
523.37	1104.20
523.73	1121.35
524.09	1138.37
524.45	1155.71
524.81	1173.27
525.17	1191.10
525.53	1209.01
525.89	1226.86
526.25	1244.68
526.61	1262.19
526.97	1280.01
527.33	1297.60
527.68	1315.05
528.04	1332.59
528.40	1350.37
528.76	1368.64
529.12	1386.23
529.48	1404.46
529.84	1421.67
530.20	1439.36
530.56	1457.56
530.91	1476.23
531.27	1494.28
531.63	1511.97
531.99	1529.74
532.35	1546.96
532.71	1564.08
533.07	1581.63
533.42	1598.84
533.78	1616.30
534.14	1633.86
534.50	1650.32
534.86	1667.44
535.21	1684.12
535.57	1701.38
535.93	1718.23
536.29	1734.38
536.65	1750.99
537.00	1766.90
537.36	1783.72
537.72	1799.58
538.08	1815.42
538.44	1830.56
538.79	1845.88
539.15	1860.89
539.51	1876.10
539.87	1891.97
540.22	1907.19
540.58	1922.32
540.94	1937.05
541.29	1951.21
541.65	1965.45
542.01	1980.30
542.37	1994.18
542.72	2008.00
543.08	2021.31
543.44	2035.27
543.79	2048.05
544.15	2060.48
544.51	2073.57
544.87	2085.95
545.22	2098.46
545.58	2110.23
545.94	2121.46
546.29	2132.82
546.65	2144.32
547.01	2155.23
547.36	2165.44
547.72	2175.38
548.07	2184.92
548.43	2194.59
548.79	2203.91
549.14	2212.98
549.50	2221.58
549.86	2230.51
550.21	2239.21
550.57	2247.86
550.92	2255.76
551.28	2264.11
551.64	2272.48
551.99	2280.32
552.35	2287.79
552.70	2295.20
553.06	2302.61
553.41	2310.42
553.77	2317.65
554.13	2325.02
554.48	2332.44
554.84	2339.50
555.19	2345.92
555.55	2352.25
555.90	2358.02
556.26	2364.59
556.61	2370.45
556.97	2376.23
557.32	2381.80
557.68	2387.14
558.03	2392.37
558.39	2397.13
558.74	2402.96
559.10	2407.93
559.45	2412.84
559.81	2418.18
560.16	2423.15
560.52	2427.48
560.87	2431.87
561.23	2435.60
561.58	2439.40
561.94	2442.95
562.29	2446.03
562.64	2449.99
563.00	2453.58
563.35	2458.06
563.71	2462.07
564.06	2466.16
564.42	2469.98
564.77	2473.51
565.12	2477.07
565.48	2480.20
565.83	2483.19
566.19	2485.60
566.54	2487.35
566.89	2489.42
567.25	2491.07
567.60	2493.05
567.96	2495.62
568.31	2497.15
568.66	2499.13
569.02	2500.57
569.37	2501.34
569.72	2502.94
570.08	2503.74
570.43	2504.30
570.78	2504.45
571.14	2503.57
571.49	2502.71
571.84	2502.70
572.20	2502.00
572.55	2501.11
572.90	2499.83
573.26	2498.94
573.61	2497.37
573.96	2496.28
574.31	2493.53
574.67	2490.91
575.02	2487.71
575.37	2484.36
575.72	2480.87
576.08	2477.64
576.43	2474.33
576.78	2471.21
577.13	2467.98
577.49	2464.95
577.84	2461.70
578.19	2458.01
578.54	2454.41
578.90	2450.41
579.25	2444.93
579.60	2440.02
579.95	2435.06
580.30	2429.88
580.66	2424.66
581.01	2419.53
581.36	2414.34
581.71	2410.22
582.06	2405.67
582.42	2401.09
582.77	2395.91
583.12	2391.27
583.47	2386.64
583.82	2381.67
584.17	2376.19
584.53	2370.59
584.88	2364.63
585.23	2358.70
585.58	2352.75
585.93	2346.97
586.28	2341.80
586.63	2336.58
586.98	2331.21
587.34	2326.25
587.69	2321.08
588.04	2315.53
588.39	2309.71
588.74	2302.75
589.09	2296.14
589.44	2288.77
589.79	2282.21
590.14	2276.05
590.49	2268.97
590.84	2261.81
591.19	2255.42
591.54	2248.42
591.89	2240.65
592.25	2233.50
592.60	2225.65
592.95	2217.72
593.30	2209.79
593.65	2201.67
594.00	2193.99
594.35	2186.13
594.70	2177.29
595.05	2169.79
595.40	2161.70
595.75	2153.57
596.10	2147.01
596.45	2139.65
596.80	2132.97
597.15	2125.74
597.50	2118.29
597.85	2111.25
598.19	2104.21
598.54	2096.62
598.89	2089.40
599.24	2082.88
599.59	2075.72
599.94	2068.89
600.29	2061.98
600.64	2054.57
600.99	2046.42
601.34	2038.92
601.69	2031.05
602.04	2023.71
602.39	2015.53
602.74	2008.13
603.08	2000.85
603.43	1993.24
603.78	1985.26
604.13	1977.20
604.48	1969.44
604.83	1961.62
605.18	1954.12
605.53	1945.30
605.87	1936.27
606.22	1928.10
606.57	1919.31
606.92	1910.87
607.27	1903.02
607.62	1895.22
607.96	1887.37
608.31	1880.23
608.66	1871.89
609.01	1863.57
609.36	1855.21
609.70	1846.15
610.05	1837.19
610.40	1828.54
610.75	1819.27
611.10	1810.65
611.44	1801.36
611.79	1792.18
612.14	1782.48
612.49	1772.10
612.83	1762.58
613.18	1753.48
613.53	1744.44
613.88	1734.89
614.22	1725.68
614.57	1715.95
614.92	1707.02
615.27	1698.69
615.61	1689.39
615.96	1680.31
616.31	1671.78
616.65	1663.41
617.00	1655.06
617.35	1646.34
617.70	1637.10
618.04	1627.80
618.39	1618.50
618.74	1610.08
619.08	1600.86
619.43	1592.37
619.78	1584.50
620.12	1576.59
620.47	1568.19
620.82	1558.90
621.16	1550.42
621.51	1541.77
621.85	1533.18
622.20	1523.68
622.55	1514.14
622.89	1505.30
623.24	1496.68
623.59	1488.37
623.93	1479.85
624.28	1471.68
624.62	1463.29
624.97	1455.19
625.32	1447.33
625.66	1439.30
626.01	1431.16
626.35	1423.04
626.70	1414.35
627.04	1405.76
627.39	1396.96
627.73	1388.52
628.08	1380.78
628.43	1372.69
628.77	1364.58
629.12	1356.18
629.46	1348.07
629.81	1339.57
630.15	1331.18
630.50	1322.86
630.84	1313.76
631.19	1304.90
631.53	1296.38
631.88	1287.90
632.22	1279.28
632.57	1271.04
632.91	1262.60
633.26	1254.30
633.60	1245.85
633.95	1237.82
634.29	1229.88
634.64	1222.33
634.98	1214.24
635.32	1206.27
635.67	1198.84
636.01	1191.41
636.36	1183.73
636.70	1176.42
637.05	1169.11
637.39	1161.97
637.73	1154.73
638.08	1148.00
638.42	1141.21
638.77	1133.98
639.11	1126.65
639.45	1119.48
639.80	1112.10
640.14	1105.11
640.49	1097.84
640.83	1090.77
641.17	1083.84
641.52	1076.83
641.86	1069.61
642.20	1062.99
642.55	1055.87
642.89	1048.70
643.23	1041.29
643.58	1034.90
643.92	1028.02
644.26	1021.48
644.61	1014.68
644.95	1008.04
645.29	1000.75
645.64	993.32
645.98	986.33
646.32	979.64
646.66	972.95
647.01	966.57
647.35	960.27
647.69	953.68
648.04	947.46
648.38	941.01
648.72	934.45
649.06	927.80
649.41	921.22
649.75	914.77
650.09	908.19
650.43	901.86
650.78	894.94
651.12	888.37
651.46	881.95
651.80	875.69
652.14	869.60
652.49	863.73
652.83	857.97
653.17	851.78
653.51	845.64
653.85	839.65
654.20	833.38
654.54	826.68
654.88	820.32
655.22	813.81
655.56	807.55
655.90	801.43
656.25	795.67
656.59	789.68
656.93	783.99
657.27	778.23
657.61	772.18
657.95	766.63
658.29	760.93
658.64	755.01
658.98	749.10
659.32	743.12
659.66	737.32
660.00	731.51
660.34	726.00
660.68	720.48
661.02	714.83
661.36	709.69
661.70	704.68
662.05	699.86
662.39	695.14
662.73	690.13
663.07	685.27
663.41	680.32
663.75	675.39
664.09	670.30
664.43	665.53
664.77	661.01
665.11	656.29
665.45	651.70
665.79	647.22
666.13	642.69
666.47	638.11
666.81	633.54
667.15	628.99
667.49	624.61
667.83	620.40
668.17	616.10
668.51	611.60
668.85	607.12
669.19	602.85
669.53	598.60
669.87	594.38
670.21	590.28
670.55	586.26
670.89	582.44
671.23	578.60
671.57	574.59
671.91	570.68
672.25	566.71
672.58	562.85
672.92	559.04
673.26	555.52
673.60	551.95
673.94	548.46
674.28	545.18
674.62	541.92
674.96	538.50
675.30	535.24
675.64	532.01
675.97	528.91
676.31	525.74
676.65	522.49
676.99	519.45
677.33	516.25
677.67	513.05
678.01	509.74
678.34	506.56
678.68	503.43
679.02	500.29
679.36	497.28
679.70	494.24
680.04	491.26
680.37	488.13
680.71	485.09
681.05	482.18
681.39	479.17
681.73	476.18
682.06	473.37
682.40	470.64
682.74	467.82
683.08	465.02
683.42	462.14
683.75	459.35
684.09	456.48
684.43	453.76
684.77	451.06
685.10	448.47
685.44	445.88
685.78	443.35
686.12	440.81
686.45	438.25
686.79	435.74
687.13	433.28
687.46	430.80
687.80	428.42
688.14	425.96
688.48	423.72
688.81	421.31
689.15	418.90
689.49	416.47
689.82	414.10
690.16	411.75
690.50	409.61
690.83	407.47
691.17	405.24
691.51	403.09
691.84	401.03
692.18	398.93
692.52	396.77
692.85	394.58
693.19	392.57
693.52	390.50
693.86	388.45
694.20	386.45
694.53	384.51
694.87	382.42
695.21	380.43
695.54	378.35
695.88	376.39
696.21	374.46
696.55	372.60
696.88	370.79
697.22	369.00
697.56	367.19
697.89	365.39
698.23	363.67
698.56	361.92
698.90	360.20
699.23	358.37
699.57	356.58
699.90	354.84
700.24	353.08
700.58	351.44
700.91	349.81
701.25	348.22
701.58	346.66
701.92	345.19
702.25	343.71
702.59	342.25
702.92	340.84
703.26	339.41
703.59	337.98
703.93	336.62
704.26	335.24
704.60	333.79
704.93	332.37
705.26	330.96
705.60	329.61
705.93	328.30
706.27	327.14
706.60	325.98
706.94	324.80
707.27	323.56
707.61	322.32
707.94	321.17
708.27	319.93
708.61	318.68
708.94	317.56
709.28	316.41
709.61	315.31
709.94	314.21
710.28	313.02
710.61	311.90
710.95	310.63
711.28	309.58
711.61	308.49
711.95	307.45
712.28	306.45
712.61	305.34
712.95	304.25
713.28	303.19
713.61	302.15
713.95	301.19
714.28	300.24
714.61	299.28
714.95	298.31
715.28	297.38
715.61	296.43
715.95	295.44
716.28	294.45
716.61	293.50
716.95	292.59
717.28	291.76
717.61	290.91
717.94	290.16
718.28	289.25
718.61	288.46
718.94	287.66
719.27	286.87
719.61	286.16
719.94	285.42
720.27	284.63
720.60	283.89
720.94	283.15
721.27	282.50
721.60	281.90
721.93	281.25
722.27	280.59
722.60	279.99
722.93	279.39
723.26	278.82
723.59	278.21
723.93	277.56
724.26	276.99
724.59	276.35
724.92	275.75
725.25	275.18
725.59	274.57
725.92	274.01
726.25	273.40
726.58	272.82
726.91	272.30
727.24	271.78
727.57	271.24
727.91	270.67
728.24	270.14
728.57	269.59
728.90	269.05
729.23	268.53
729.56	268.02
729.89	267.48
730.22	266.93
730.55	266.39
730.89	265.89
731.22	265.39
731.55	264.90
731.88	264.44
732.21	263.98
732.54	263.50
732.87	263.02
733.20	262.55
733.53	262.12
733.86	261.69
734.19	261.24
734.52	260.85
734.85	260.48
735.18	260.02
735.51	259.60
735.84	259.22
736.17	258.83
736.50	258.42
736.83	258.18
737.16	257.79
737.49	257.43
737.82	257.05
738.15	256.66
738.48	256.28
738.81	255.89
739.14	255.55
739.47	255.24
739.80	254.90
740.13	254.59
740.46	254.23
740.79	253.90
741.12	253.56
741.45	253.21
741.78	252.88
742.11	252.55
742.44	252.17
742.77	251.81
743.10	251.45
743.43	251.11
743.75	250.64
744.08	250.51
744.41	250.20
744.74	249.91
745.07	249.60
745.40	249.35
745.73	249.13
746.06	248.81
746.39	248.48
746.71	248.18
747.04	247.89
747.37	247.61
747.70	247.32
748.03	247.01
748.36	246.75
748.68	246.44
749.01	246.18
749.34	245.95
749.67	245.74
750.00	245.52
750.33	245.32
750.65	245.08
750.98	244.68
751.31	244.43
751.64	244.19
751.97	244.00
752.29	243.73
752.62	243.40
752.95	243.16
753.28	242.92
753.60	242.69
753.93	242.49
754.26	242.26
754.59	242.01
754.91	241.81
755.24	241.60
755.57	241.40
755.90	241.19
756.22	240.94
756.55	240.66
756.88	240.44
757.20	240.16
757.53	239.99
757.86	239.81
758.19	239.67
758.51	239.46
758.84	239.26
759.17	239.06
759.49	238.91
759.82	238.79
760.15	238.62
760.47	238.46
760.80	238.26
761.13	238.10
761.45	237.93
761.78	237.78
762.11	237.62
762.43	237.44
762.76	237.29
763.08	237.21
763.41	237.10
763.74	236.96
764.06	236.81
764.39	236.61
764.71	236.43
765.04	236.26
765.37	236.11
765.69	235.93
766.02	235.80
766.34	235.64
766.67	235.44
767.00	235.35
767.32	235.25
767.65	235.17
767.97	235.04
768.30	234.93
768.62	234.80
768.95	234.65
769.27	234.56
769.60	234.44
769.92	234.24
770.25	234.11
770.57	233.96
770.90	233.88
771.22	233.77
771.55	233.71
771.87	233.58
772.20	233.53
772.52	233.54
772.85	233.54
773.17	233.44
773.50	233.31
773.82	233.15
774.15	233.01
774.47	232.83
774.80	232.75
775.12	232.61
775.45	232.54
775.77	232.46
776.09	232.35
776.42	232.26
776.74	232.23
777.07	232.11
777.39	232.04
777.72	231.95
778.04	231.87
778.36	231.74
778.69	231.66
779.01	231.55
779.33	231.38
779.66	231.18
779.98	231.11
780.31	231.08
780.63	231.07
780.95	231.02
781.28	230.98
781.60	230.89
781.92	230.85
782.25	230.76
782.57	230.68
782.89	230.58
783.22	230.50
783.54	230.40
783.86	230.36
784.19	230.31
784.51	230.31
784.83	230.24
785.16	230.20
785.48	230.15
785.80	230.07
786.12	230.02
786.45	229.96
786.77	229.93
787.09	229.87
787.42	229.77
787.74	229.73
788.06	229.71
788.38	229.66
788.71	229.60
789.03	229.58
789.35	229.56
789.67	229.53
789.99	229.49
790.32	229.46
790.64	229.43
790.96	229.47
791.28	229.36
791.61	229.34
791.93	229.32
792.25	229.29
792.57	229.34
792.89	229.27
793.21	229.27
793.54	229.23
793.86	229.18
794.18	229.17
794.50	229.11
794.82	229.08
795.14	229.07
795.47	229.06
795.79	228.99
796.11	228.94
796.43	228.89
796.75	228.87
797.07	228.81
797.39	228.77
797.71	228.64
798.04	228.63
798.36	228.57
798.68	228.50
799.00	228.46
799.32	228.39
799.64	228.37
799.96	228.32
800.28	228.27
800.60	228.23
800.92	228.18
801.24	228.14
801.56	228.12
801.89	228.07
802.21	228.05
802.53	228.02
802.85	228.02
803.17	228.07
803.49	228.02
803.81	228.00
804.13	227.96
804.45	227.92
804.77	227.90
805.09	227.90
805.41	227.86
805.73	227.85
806.05	227.77
806.37	227.73
806.69	227.67
807.01	227.66
807.33	227.66
807.65	227.59
807.97	227.59
808.28	227.53
808.60	227.47
808.92	227.43
809.24	227.46
809.56	227.38
809.88	227.30
810.20	227.28
810.52	227.26
810.84	227.22
811.16	227.15
811.48	227.12
811.80	227.12
812.12	227.10
812.43	227.04
812.75	227.02
813.07	226.95
813.39	226.93
813.71	226.87
814.03	226.82
814.35	226.82
814.67	226.75
814.98	226.71
815.30	226.68
815.62	226.62
815.94	226.54
816.26	226.59
816.58	226.54
816.89	226.50
817.21	226.45
817.53	226.44
817.85	226.43
818.17	226.40
818.48	226.31
818.80	226.30
819.12	226.31
819.44	226.30
819.76	226.32
820.07	226.31
820.39	226.29
820.71	226.25
821.03	226.23
821.34	226.19
821.66	226.19
821.98	226.16
822.30	226.13
822.61	226.14
822.93	226.03
823.25	226.05
823.57	226.02
823.88	226.03
824.20	226.04
824.52	226.05
824.83	225.97
825.15	225.95
825.47	225.90
825.79	225.87
826.10	225.86
826.42	225.81
826.74	225.80
827.05	225.81
827.37	225.83
827.69	225.82
828.00	225.83
828.32	225.82
828.64	225.83
828.95	225.90
829.27	225.86
829.58	225.91
829.90	225.90
830.22	225.92
830.53	225.91
830.85	225.83
831.17	225.82
831.48	225.86
831.80	225.86
832.11	225.90
832.43	225.84
832.75	225.78
833.06	225.87
833.38	225.83
833.69	225.84
834.01	225.86
834.32	225.86
834.64	225.83
834.96	225.83
835.27	225.81
835.59	225.75
835.90	225.75
836.22	225.68
836.53	225.65
836.85	225.63
837.16	225.70
837.48	225.75
837.79	225.76
838.11	225.75
838.42	225.75
838.74	225.73
839.05	225.74
839.37	225.79
839.68	225.68
840.00	225.68
840.31	225.65
840.63	225.60
840.94	225.59
841.26	225.59
841.57	225.59
841.88	225.62
842.20	225.62
842.51	225.60
842.83	225.63
843.14	225.74
843.46	225.74
843.77	225.70
844.08	225.68
844.40	225.64
844.71	225.65
845.03	225.64
845.34	225.60
845.65	225.60
845.97	225.60
846.28	225.62
846.60	225.67
846.91	225.64
847.22	225.63
847.54	225.64
847.85	225.63
848.16	225.60
848.48	225.55
848.79	225.55
849.10	225.53
849.42	225.53
849.73	225.41
850.04	225.38
850.36	225.32
850.67	225.31
850.98	225.31
851.30	225.28
851.61	225.26
851.92	225.27
852.23	225.31
852.55	225.30
852.86	225.29
853.17	225.27
853.49	225.29
853.80	225.30
854.11	225.30
854.42	225.29
854.74	225.28
855.05	225.27
855.36	225.25
855.67	225.25
855.99	225.25
856.30	225.35
856.61	225.37
856.92	225.35
857.23	225.34
857.55	225.31
857.86	225.31
858.17	225.31
858.48	225.27
858.79	225.23
859.11	225.22
859.42	225.18
859.73	225.15
860.04	225.14
860.35	225.08
860.66	225.02
860.98	225.03
861.29	225.03
861.60	225.00
861.91	225.02
862.22	224.98
862.53	224.94
862.84	224.81
863.16	224.80
863.47	224.79
863.78	224.77
864.09	224.77
864.40	224.77
864.71	224.78
865.02	224.82
865.33	224.81
865.64	224.81
865.95	224.86
866.27	224.92
866.58	224.90
866.89	224.95
867.20	224.95
867.51	224.93
867.82	224.95
868.13	224.97
868.44	224.92
868.75	224.94
869.06	224.98
869.37	225.00
869.68	224.96
869.99	224.95
870.30	224.96
870.61	224.99
870.92	224.98
871.23	224.96
871.54	224.95
871.85	224.98
872.16	224.99
872.47	224.97
872.78	224.93
873.09	224.95
873.40	224.93
873.71	224.96
874.02	224.99
874.33	224.99
874.64	225.01
874.95	225.06
875.26	225.05
875.56	225.04
875.87	225.07
876.18	225.10
876.49	225.24
876.80	225.23
877.11	225.20
877.42	225.21
877.73	225.24
878.04	225.25
878.35	225.25
878.66	225.27
878.96	225.23
879.27	225.23
879.58	225.24
879.89	225.24
880.20	225.28
880.51	225.28
880.82	225.32
881.12	225.28
881.43	225.28
881.74	225.29
882.05	225.26
882.36	225.25
882.67	225.23
882.97	225.13
883.28	225.14
883.59	225.14
883.90	225.16
884.21	225.17
884.51	225.18
884.82	225.18
885.13	225.16
885.44	225.19
885.74	225.20
886.05	225.18
886.36	225.19
886.67	225.12
886.98	225.19
887.28	225.15
887.59	225.20
887.90	225.17
888.20	225.16
888.51	225.20
888.82	225.19
889.13	225.23
889.43	225.29
889.74	225.27
890.05	225.28
890.35	225.26
890.66	225.22
890.97	225.17
891.28	225.12
891.58	225.10
891.89	225.07
892.20	225.06
892.50	225.02
892.81	224.99
893.12	225.01
893.42	224.91
893.73	224.88
894.04	224.82
894.34	224.83
894.65	224.83
894.95	224.80
895.26	224.79
895.57	224.80
895.87	224.72
896.18	224.73
896.48	224.72
896.79	224.69
897.10	224.70
897.40	224.70
897.71	224.70
898.01	224.70
898.32	224.71
898.63	224.71
898.93	224.72
899.24	224.72
899.54	224.69
899.85	224.69
900.15	224.67
900.46	224.69
900.76	224.69
901.07	224.65
901.38	224.63
901.68	224.64
901.99	224.61
902.29	224.58
902.60	224.57
902.90	224.56
903.21	224.57
903.51	224.57
903.82	224.58
904.12	224.59
904.43	224.61
904.73	224.60
905.03	224.59
905.34	224.68
905.64	224.65
905.95	224.67
906.25	224.68
906.56	224.69
906.86	224.67
907.17	224.67
907.47	224.68
907.77	224.68
908.08	224.65
908.38	224.64
908.69	224.66
908.99	224.69
909.30	224.66
909.60	224.66
909.90	224.67
910.21	224.66
910.51	224.67
910.81	224.64
911.12	224.64
911.42	224.66
911.73	224.56
912.03	224.59
912.33	224.62
912.64	224.63
912.94	224.64
913.24	224.65
913.55	224.64
913.85	224.68
914.15	224.71
914.46	224.75
914.76	224.74
915.06	224.73
915.37	224.73
915.67	224.80
915.97	224.81
916.27	224.80
916.58	224.81
916.88	224.80
917.18	224.85
917.49	224.94
917.79	224.95
918.09	225.01
918.39	225.07
918.70	225.08
919.00	225.07
919.30	225.10
919.60	225.11
919.91	225.14
920.21	225.13
920.51	225.11
920.81	225.14
921.12	225.18
921.42	225.20
921.72	225.18
922.02	225.17
922.32	225.18
922.63	225.19
922.93	225.27
923.23	225.29
923.53	225.25
923.83	225.21
924.13	225.19
924.44	225.17
924.74	225.17
925.04	225.17
925.34	225.16
925.64	225.11
925.94	225.09
926.24	225.16
926.55	225.13
926.85	225.14
927.15	225.11
927.45	225.08
927.75	225.10
928.05	225.12
928.35	225.10
928.65	225.11
928.95	225.07
929.26	225.01
929.56	225.01
929.86	224.98
930.16	224.95
930.46	224.95
930.76	224.93
931.06	224.86
931.36	224.80
931.66	224.85
931.96	224.85
932.26	224.87
932.56	224.76
932.86	224.77
933.16	224.77
933.46	224.75
933.76	224.73
934.06	224.73
934.36	224.73
934.66	224.72
934.96	224.70
935.26	224.72
935.56	224.73
935.86	224.71
936.16	224.70
936.46	224.66
936.76	224.64
937.06	224.62
937.36	224.64
937.66	224.64
937.96	224.58
938.26	224.56
938.56	224.53
938.86	224.55
939.16	224.53
939.46	224.52
939.76	224.54
940.06	224.54
940.35	224.50
940.65	224.45
940.95	224.45
941.25	224.43
941.55	224.38
941.85	224.38
942.15	224.40
942.45	224.43
942.75	224.45
943.04	224.44
943.34	224.45
943.64	224.45
943.94	224.45
944.24	224.49
944.54	224.51
944.84	224.52
945.13	224.51
945.43	224.50
945.73	224.48
946.03	224.47
946.33	224.45
946.62	224.45
946.92	224.42
947.22	224.45
947.52	224.44
947.82	224.48
948.11	224.45
948.41	224.44
948.71	224.44
949.01	224.42
949.31	224.43
949.60	224.43
949.90	224.45
950.20	224.46
950.50	224.48
950.79	224.49
951.09	224.49
951.39	224.51
951.69	224.55
951.98	224.58
952.28	224.57
952.58	224.57
952.87	224.59
953.17	224.64
953.47	224.59
953.76	224.60
954.06	224.58
954.36	224.55
954.66	224.52
954.95	224.55
955.25	224.59
955.55	224.62
955.84	224.61
956.14	224.60
956.44	224.60
956.73	224.56
957.03	224.57
957.32	224.58
957.62	224.57
957.92	224.57
958.21	224.56
958.51	224.69
958.81	224.73
959.10	224.73
959.40	224.75
959.69	224.78
959.99	224.83
960.29	224.88
960.58	224.90
960.88	224.93
961.17	224.94
961.47	224.95
961.76	224.95
962.06	224.96
962.36	224.95
962.65	224.96
962.95	224.98
963.24	224.93
963.54	224.95
963.83	224.96
964.13	224.94
964.42	224.92
964.72	224.83
965.01	224.82
965.31	224.84
965.60	224.81
965.90	224.86
966.19	224.80
966.49	224.77
966.78	224.78
967.08	224.77
967.37	224.75
967.67	224.73
967.96	224.74
968.26	224.73
968.55	224.74
968.85	224.76
969.14	224.73
969.43	224.75
969.73	224.74
970.02	224.73
970.32	224.73
970.61	224.69
970.91	224.68
971.20	224.63
971.49	224.57
971.79	224.58
972.08	224.53
972.38	224.57
972.67	224.56
972.96	224.56
973.26	224.58
973.55	224.61
973.85	224.58
974.14	224.56
974.43	224.61
974.73	224.57
975.02	224.55
975.31	224.58
975.61	224.57
975.90	224.57
976.19	224.57
976.49	224.57
976.78	224.59
977.07	224.58
977.37	224.63
977.66	224.69
977.95	224.68
978.24	224.69
978.54	224.68
978.83	224.69
979.12	224.71
979.42	224.68
979.71	224.67
980.00	224.69
980.29	224.68
980.59	224.62
980.88	224.64
981.17	224.67
981.46	224.66
981.76	224.68
982.05	224.71
982.34	224.70
982.63	224.72
982.93	224.71
983.22	224.76
983.51	224.75
983.80	224.73
984.09	224.76
984.39	224.71
984.68	224.71
984.97	224.74
985.26	224.73
985.55	224.73
985.85	224.71
986.14	224.72
986.43	224.73
986.72	224.71
987.01	224.70
987.30	224.67
987.59	224.63
987.89	224.62
988.18	224.60
988.47	224.60
988.76	224.56
989.05	224.58
989.34	224.54
989.63	224.59
989.92	224.58
990.22	224.54
990.51	224.57
990.80	224.55
991.09	224.51
991.38	224.50
991.67	224.49
991.96	224.47
992.25	224.48
992.54	224.50
992.83	224.54
993.12	224.51
993.41	224.49
993.70	224.55
993.99	224.57
994.28	224.55
994.58	224.55
994.87	224.56
995.16	224.52
995.45	224.53
995.74	224.46
996.03	224.48
996.32	224.51
996.61	224.50
996.90	224.52
997.19	224.52
997.48	224.51
997.77	224.51
998.06	224.53
998.34	224.49
998.63	224.44
998.92	224.47
999.21	224.49
999.50	224.52
999.79	224.51
1000.08	224.51
1000.37	224.50
1000.66	224.48
1000.95	224.50
1001.24	224.55
1001.53	224.56
1001.82	224.56
1002.11	224.53
1002.40	224.52
1002.68	224.57
1002.97	224.61
1003.26	224.62
1003.55	224.62
1003.84	224.62
1004.13	224.65
1004.42	224.65
1004.71	224.68
1004.99	224.66
1005.28	224.69
1005.57	224.67
1005.86	224.68
1006.15	224.65
1006.44	224.62
1006.72	224.64
1007.01	224.63
1007.30	224.57
1007.59	224.53
1007.88	224.51
1008.17	224.50
1008.45	224.47
1008.74	224.41
1009.03	224.40
1009.32	224.39
1009.60	224.36
1009.89	224.33
1010.18	224.31
1010.47	224.26
1010.76	224.21
1011.04	224.19
1011.33	224.20
1011.62	224.20
1011.91	224.18
1012.19	224.16
1012.48	224.18
1012.77	224.19
1013.05	224.26
1013.34	224.30
1013.63	224.29
1013.92	224.31
1014.20	224.30
1014.49	224.31
1014.78	224.31
1015.06	224.25
1015.35	224.24
1015.64	224.29
1015.92	224.33
1016.21	224.32
1016.50	224.36
1016.78	224.39
1017.07	224.40
1017.36	224.37
1017.64	224.38
1017.93	224.39
1018.22	224.43
1018.50	224.42
1018.79	224.42
1019.08	224.33
1019.36	224.32
1019.65	224.32
1019.93	224.37
1020.22	224.41
1020.51	224.46
1020.79	224.49
1021.08	224.66
1021.36	223.91
1021.65	224.63
1021.94	223.93
1022.22	223.91
1022.51	224.09
1022.79	225.36
1023.08	224.63
1023.36	225.44
1023.65	224.83
>>>>>End Processed Spectral Data<<<<<
