SpectraSuite Data File
++++++++++++++++++++++++++++++++++++
Date: Fri Feb 01 16:07:50 EST 2013
User: group
Dark Spectrum Present: No
Reference Spectrum Present: No
Number of Sampled Component Spectra: 1
Spectrometers: USB2E7196
Integration Time (usec): 35000 (USB2E7196)
Spectra Averaged: 100 (USB2E7196)
Boxcar Smoothing: 10 (USB2E7196)
Correct for Electrical Dark: No (USB2E7196)
Strobe/Lamp Enabled: No (USB2E7196)
Correct for Detector Non-linearity: No (USB2E7196)
Correct for Stray Light: No (USB2E7196)
Number of Pixels in Processed Spectrum: 2048
>>>>>Begin Processed Spectral Data<<<<<
339.09	0.00
339.48	215.26
339.86	216.03
340.24	218.45
340.63	219.04
341.01	221.98
341.39	221.91
341.78	223.20
342.16	224.23
342.54	225.46
342.93	213.27
343.31	224.05
343.69	224.56
344.07	225.04
344.46	225.42
344.84	225.81
345.22	226.03
345.60	226.28
345.99	226.45
346.37	226.55
346.75	226.63
347.13	226.70
347.52	226.72
347.90	226.79
348.28	226.81
348.66	226.83
349.05	226.81
349.43	226.87
349.81	226.89
350.19	226.92
350.57	226.96
350.96	226.99
351.34	227.06
351.72	227.12
352.10	227.22
352.48	227.25
352.87	227.29
353.25	227.34
353.63	227.38
354.01	227.42
354.39	227.53
354.77	227.58
355.15	227.67
355.54	227.71
355.92	227.76
356.30	227.83
356.68	227.96
357.06	228.04
357.44	228.07
357.82	228.11
358.20	228.21
358.58	228.25
358.97	228.34
359.35	228.41
359.73	228.48
360.11	228.51
360.49	228.59
360.87	228.61
361.25	228.66
361.63	228.72
362.01	228.78
362.39	228.80
362.77	228.82
363.15	228.82
363.53	228.90
363.91	228.91
364.29	228.92
364.67	228.84
365.05	228.84
365.43	228.90
365.81	228.93
366.19	228.96
366.57	229.04
366.95	229.04
367.33	228.99
367.71	228.99
368.09	229.01
368.47	228.96
368.85	228.93
369.23	228.94
369.61	228.91
369.99	228.91
370.37	228.90
370.75	228.95
371.13	228.92
371.51	228.86
371.89	228.83
372.27	228.82
372.65	228.79
373.03	228.78
373.41	228.68
373.78	228.61
374.16	228.52
374.54	228.41
374.92	228.37
375.30	228.34
375.68	228.28
376.06	228.22
376.44	228.21
376.82	228.15
377.19	228.08
377.57	228.03
377.95	227.93
378.33	227.84
378.71	227.69
379.09	227.62
379.47	227.55
379.84	227.46
380.22	227.36
380.60	227.29
380.98	227.20
381.36	227.17
381.73	227.08
382.11	227.02
382.49	226.98
382.87	226.89
383.25	226.80
383.62	226.83
384.00	226.78
384.38	226.69
384.76	226.68
385.13	226.70
385.51	226.64
385.89	226.56
386.27	226.51
386.64	226.48
387.02	226.44
387.40	226.41
387.78	226.39
388.15	226.36
388.53	226.31
388.91	226.26
389.29	226.21
389.66	226.22
390.04	226.18
390.42	226.15
390.79	226.14
391.17	226.14
391.55	226.04
391.92	226.03
392.30	226.04
392.68	226.04
393.05	225.99
393.43	225.97
393.81	226.00
394.18	225.99
394.56	226.00
394.94	226.02
395.31	226.03
395.69	226.05
396.06	226.08
396.44	226.12
396.82	226.14
397.19	226.19
397.57	226.21
397.95	226.27
398.32	226.30
398.70	226.34
399.07	226.39
399.45	226.45
399.82	226.48
400.20	226.54
400.58	226.57
400.95	226.60
401.33	226.70
401.70	226.86
402.08	227.01
402.45	227.08
402.83	227.20
403.20	227.30
403.58	227.43
403.95	227.57
404.33	227.71
404.71	227.87
405.08	228.06
405.46	228.20
405.83	228.35
406.21	228.51
406.58	228.69
406.96	228.87
407.33	229.04
407.70	229.25
408.08	229.50
408.45	229.76
408.83	230.03
409.20	230.25
409.58	230.38
409.95	230.59
410.33	230.91
410.70	231.16
411.08	231.46
411.45	231.77
411.82	232.06
412.20	232.40
412.57	232.83
412.95	233.11
413.32	233.53
413.69	233.96
414.07	234.44
414.44	234.90
414.82	235.37
415.19	235.89
415.56	236.46
415.94	237.01
416.31	237.65
416.68	238.26
417.06	238.99
417.43	239.73
417.81	240.52
418.18	241.30
418.55	242.15
418.93	243.05
419.30	243.92
419.67	244.87
420.04	245.80
420.42	246.76
420.79	247.95
421.16	249.10
421.54	250.29
421.91	251.49
422.28	252.74
422.66	254.07
423.03	255.40
423.40	256.73
423.77	258.13
424.15	259.49
424.52	260.96
424.89	262.52
425.26	264.07
425.64	265.52
426.01	267.11
426.38	268.75
426.75	270.41
427.13	272.13
427.50	273.90
427.87	275.81
428.24	277.64
428.61	279.40
428.99	281.33
429.36	283.41
429.73	285.42
430.10	287.44
430.47	289.49
430.85	291.61
431.22	293.86
431.59	296.25
431.96	298.52
432.33	300.98
432.70	303.35
433.08	306.14
433.45	308.77
433.82	311.34
434.19	314.22
434.56	317.03
434.93	319.69
435.30	322.34
435.68	325.21
436.05	328.06
436.42	330.81
436.79	333.31
437.16	335.98
437.53	338.77
437.90	341.58
438.27	344.32
438.64	347.11
439.01	349.65
439.38	351.90
439.75	354.07
440.13	356.61
440.50	358.99
440.87	360.84
441.24	362.74
441.61	364.88
441.98	366.35
442.35	368.14
442.72	369.98
443.09	371.80
443.46	372.78
443.83	373.38
444.20	373.88
444.57	374.73
444.94	374.99
445.31	375.39
445.68	375.77
446.05	375.83
446.42	375.50
446.79	375.09
447.16	374.61
447.53	374.31
447.90	373.11
448.27	371.90
448.64	370.35
449.01	369.26
449.37	367.33
449.74	365.43
450.11	363.16
450.48	360.66
450.85	358.09
451.22	355.94
451.59	353.85
451.96	351.96
452.33	349.38
452.70	347.00
453.07	344.14
453.43	341.24
453.80	338.47
454.17	335.77
454.54	333.23
454.91	330.51
455.28	327.79
455.65	325.33
456.02	322.93
456.38	320.78
456.75	318.06
457.12	315.80
457.49	313.59
457.86	311.44
458.23	309.60
458.59	307.59
458.96	305.50
459.33	303.67
459.70	301.80
460.07	300.27
460.43	298.60
460.80	297.00
461.17	295.55
461.54	294.11
461.91	292.69
462.27	291.25
462.64	290.01
463.01	288.68
463.38	287.39
463.74	285.99
464.11	284.78
464.48	283.82
464.85	282.69
465.21	281.85
465.58	280.90
465.95	279.81
466.32	278.91
466.68	278.05
467.05	277.17
467.42	276.28
467.78	275.37
468.15	274.51
468.52	273.86
468.88	273.03
469.25	272.22
469.62	271.60
469.98	270.94
470.35	270.29
470.72	269.71
471.08	269.06
471.45	268.53
471.82	268.02
472.18	267.40
472.55	267.00
472.92	266.44
473.28	266.03
473.65	265.59
474.02	265.21
474.38	264.87
474.75	264.58
475.11	264.24
475.48	263.97
475.85	263.75
476.21	263.53
476.58	263.34
476.94	263.19
477.31	263.02
477.67	262.87
478.04	262.81
478.41	262.79
478.77	262.83
479.14	262.83
479.50	262.81
479.87	262.88
480.23	262.97
480.60	263.08
480.96	263.14
481.33	263.36
481.69	263.52
482.06	263.66
482.42	263.84
482.79	264.09
483.15	264.42
483.52	264.80
483.88	265.12
484.25	265.52
484.61	265.95
484.98	266.43
485.34	266.99
485.71	267.59
486.07	268.13
486.44	268.70
486.80	269.37
487.17	270.12
487.53	270.92
487.90	271.75
488.26	272.70
488.62	273.72
488.99	274.69
489.35	275.71
489.72	276.88
490.08	278.10
490.44	279.35
490.81	280.69
491.17	282.06
491.54	283.56
491.90	285.11
492.26	286.77
492.63	288.50
492.99	290.28
493.36	292.15
493.72	294.24
494.08	296.38
494.45	298.61
494.81	300.98
495.17	303.44
495.54	306.01
495.90	308.64
496.26	311.44
496.63	314.39
496.99	317.52
497.35	320.76
497.72	324.16
498.08	327.68
498.44	331.39
498.80	335.32
499.17	339.33
499.53	343.49
499.89	347.86
500.26	352.38
500.62	357.04
500.98	362.02
501.34	367.15
501.71	372.46
502.07	377.92
502.43	383.51
502.79	389.30
503.16	395.37
503.52	401.64
503.88	408.05
504.24	414.69
504.60	421.57
504.97	428.72
505.33	436.11
505.69	443.81
506.05	451.60
506.41	459.48
506.78	467.67
507.14	476.13
507.50	484.87
507.86	493.93
508.22	503.14
508.59	512.33
508.95	521.78
509.31	531.60
509.67	541.69
510.03	551.99
510.39	562.58
510.75	573.42
511.12	584.42
511.48	595.72
511.84	607.16
512.20	618.73
512.56	630.70
512.92	642.80
513.28	655.18
513.64	667.58
514.00	680.30
514.37	693.26
514.73	706.34
515.09	719.38
515.45	732.56
515.81	746.18
516.17	760.20
516.53	774.35
516.89	788.53
517.25	802.64
517.61	817.06
517.97	831.57
518.33	845.93
518.69	860.60
519.05	875.51
519.41	890.60
519.77	906.01
520.13	921.37
520.49	936.72
520.85	952.16
521.21	967.83
521.57	984.04
521.93	999.77
522.29	1016.07
522.65	1032.32
523.01	1048.56
523.37	1064.52
523.73	1080.56
524.09	1096.67
524.45	1112.87
524.81	1129.45
525.17	1146.18
525.53	1162.94
525.89	1179.77
526.25	1196.60
526.61	1212.97
526.97	1229.84
527.33	1246.34
527.68	1262.94
528.04	1279.40
528.40	1295.81
528.76	1312.81
529.12	1329.31
529.48	1346.03
529.84	1362.00
530.20	1378.49
530.56	1395.41
530.91	1412.78
531.27	1429.52
531.63	1445.98
531.99	1462.51
532.35	1478.50
532.71	1494.30
533.07	1510.52
533.42	1526.38
533.78	1542.39
534.14	1558.65
534.50	1573.83
534.86	1589.63
535.21	1604.70
535.57	1620.60
535.93	1636.16
536.29	1651.03
536.65	1666.00
537.00	1680.77
537.36	1696.02
537.72	1710.51
538.08	1724.90
538.44	1738.62
538.79	1752.46
539.15	1766.02
539.51	1779.71
539.87	1794.04
540.22	1807.72
540.58	1821.27
540.94	1834.48
541.29	1847.29
541.65	1859.85
542.01	1872.83
542.37	1885.02
542.72	1897.41
543.08	1909.08
543.44	1921.32
543.79	1932.45
544.15	1943.33
544.51	1954.88
544.87	1965.76
545.22	1976.67
545.58	1986.84
545.94	1996.51
546.29	2006.28
546.65	2016.13
547.01	2025.33
547.36	2033.94
547.72	2042.50
548.07	2050.60
548.43	2058.76
548.79	2066.73
549.14	2074.30
549.50	2081.65
549.86	2089.36
550.21	2096.60
550.57	2103.76
550.92	2110.33
551.28	2117.37
551.64	2124.49
551.99	2131.06
552.35	2137.21
552.70	2143.18
553.06	2149.08
553.41	2155.45
553.77	2161.42
554.13	2167.41
554.48	2173.51
554.84	2179.02
555.19	2184.13
555.55	2189.12
555.90	2193.64
556.26	2198.67
556.61	2203.35
556.97	2207.86
557.32	2211.98
557.68	2216.09
558.03	2220.40
558.39	2224.15
558.74	2228.68
559.10	2232.64
559.45	2236.22
559.81	2240.45
560.16	2244.21
560.52	2247.59
560.87	2251.12
561.23	2253.77
561.58	2256.80
561.94	2259.31
562.29	2261.53
562.64	2264.43
563.00	2267.09
563.35	2270.54
563.71	2273.56
564.06	2276.75
564.42	2279.59
564.77	2282.26
565.12	2284.72
565.48	2286.65
565.83	2288.50
566.19	2289.87
566.54	2290.73
566.89	2291.84
567.25	2292.70
567.60	2293.94
567.96	2295.64
568.31	2296.34
568.66	2297.58
569.02	2298.20
569.37	2298.61
569.72	2299.71
570.08	2299.80
570.43	2299.75
570.78	2299.27
571.14	2297.74
571.49	2296.40
571.84	2296.08
572.20	2294.90
572.55	2293.67
572.90	2292.20
573.26	2290.93
573.61	2289.16
573.96	2287.51
574.31	2284.63
574.67	2281.52
575.02	2278.07
575.37	2274.53
575.72	2270.91
576.08	2267.54
576.43	2264.08
576.78	2260.45
577.13	2257.10
577.49	2253.94
577.84	2250.46
578.19	2246.75
578.54	2243.17
578.90	2239.16
579.25	2233.58
579.60	2228.58
579.95	2223.67
580.30	2218.62
580.66	2213.30
581.01	2208.47
581.36	2203.55
581.71	2199.32
582.06	2194.92
582.42	2190.41
582.77	2185.25
583.12	2180.68
583.47	2175.97
583.82	2171.03
584.17	2165.83
584.53	2160.47
584.88	2154.84
585.23	2149.13
585.58	2143.55
585.93	2138.10
586.28	2133.11
586.63	2128.12
586.98	2123.24
587.34	2118.52
587.69	2113.51
588.04	2108.34
588.39	2102.75
588.74	2096.20
589.09	2090.14
589.44	2083.35
589.79	2077.29
590.14	2071.63
590.49	2064.93
590.84	2058.46
591.19	2052.55
591.54	2046.06
591.89	2038.78
592.25	2032.08
592.60	2024.93
592.95	2017.47
593.30	2010.14
593.65	2002.53
594.00	1995.39
594.35	1987.97
594.70	1979.87
595.05	1972.91
595.40	1965.64
595.75	1958.19
596.10	1951.94
596.45	1945.18
596.80	1938.97
597.15	1932.30
597.50	1925.37
597.85	1918.88
598.19	1912.26
598.54	1905.14
598.89	1898.43
599.24	1892.51
599.59	1885.94
599.94	1879.74
600.29	1873.42
600.64	1866.82
600.99	1859.53
601.34	1852.83
601.69	1845.85
602.04	1838.96
602.39	1831.57
602.74	1824.76
603.08	1817.97
603.43	1811.33
603.78	1804.00
604.13	1796.80
604.48	1789.62
604.83	1782.73
605.18	1775.92
605.53	1768.03
605.87	1760.03
606.22	1752.97
606.57	1745.09
606.92	1737.70
607.27	1730.63
607.62	1723.83
607.96	1716.70
608.31	1710.21
608.66	1702.55
609.01	1695.18
609.36	1687.76
609.70	1679.73
610.05	1671.74
610.40	1663.99
610.75	1655.67
611.10	1648.05
611.44	1639.71
611.79	1631.85
612.14	1623.19
612.49	1613.99
612.83	1605.54
613.18	1597.45
613.53	1589.25
613.88	1580.65
614.22	1572.41
614.57	1563.67
614.92	1555.62
615.27	1548.03
615.61	1539.63
615.96	1531.70
616.31	1524.04
616.65	1516.75
617.00	1509.20
617.35	1501.52
617.70	1493.29
618.04	1484.82
618.39	1476.63
618.74	1469.12
619.08	1460.75
619.43	1453.20
619.78	1446.30
620.12	1439.27
620.47	1431.72
620.82	1423.61
621.16	1416.24
621.51	1408.61
621.85	1400.94
622.20	1392.43
622.55	1383.97
622.89	1376.06
623.24	1368.29
623.59	1360.77
623.93	1353.20
624.28	1345.93
624.62	1338.43
624.97	1331.17
625.32	1324.42
625.66	1317.38
626.01	1310.20
626.35	1302.81
626.70	1295.04
627.04	1287.37
627.39	1279.54
627.73	1272.13
628.08	1265.22
628.43	1257.92
628.77	1250.62
629.12	1243.14
629.46	1235.90
629.81	1228.46
630.15	1221.33
630.50	1213.96
630.84	1205.76
631.19	1197.78
631.53	1190.29
631.88	1182.63
632.22	1175.02
632.57	1167.63
632.91	1160.10
633.26	1152.62
633.60	1145.14
633.95	1138.00
634.29	1130.85
634.64	1124.16
634.98	1116.80
635.32	1109.55
635.67	1102.89
636.01	1096.10
636.36	1089.34
636.70	1082.87
637.05	1076.33
637.39	1069.85
637.73	1063.38
638.08	1057.44
638.42	1051.38
638.77	1044.91
639.11	1038.41
639.45	1032.16
639.80	1025.54
640.14	1019.16
640.49	1012.61
640.83	1006.35
641.17	1000.17
641.52	993.87
641.86	987.43
642.20	981.63
642.55	975.30
642.89	968.87
643.23	962.38
643.58	956.66
643.92	950.44
644.26	944.47
644.61	938.36
644.95	932.36
645.29	925.91
645.64	919.26
645.98	912.97
646.32	907.05
646.66	900.92
647.01	895.14
647.35	889.37
647.69	883.51
648.04	877.93
648.38	872.09
648.72	866.13
649.06	860.01
649.41	854.03
649.75	848.20
650.09	842.26
650.43	836.51
650.78	830.26
651.12	824.32
651.46	818.50
651.80	812.80
652.14	807.44
652.49	802.06
652.83	796.93
653.17	791.23
653.51	785.60
653.85	780.24
654.20	774.61
654.54	768.58
654.88	762.86
655.22	757.02
655.56	751.32
655.90	745.86
656.25	740.69
656.59	735.36
656.93	730.19
657.27	725.01
657.61	719.50
657.95	714.46
658.29	709.32
658.64	704.08
658.98	698.76
659.32	693.21
659.66	688.03
660.00	682.68
660.34	677.74
660.68	672.76
661.02	667.70
661.36	662.94
661.70	658.51
662.05	654.18
662.39	649.86
662.73	645.38
663.07	641.01
663.41	636.53
663.75	632.01
664.09	627.46
664.43	623.14
664.77	619.07
665.11	614.79
665.45	610.65
665.79	606.59
666.13	602.46
666.47	598.39
666.81	594.19
667.15	590.08
667.49	586.19
667.83	582.35
668.17	578.44
668.51	574.44
668.85	570.38
669.19	566.46
669.53	562.62
669.87	558.76
670.21	555.10
670.55	551.49
670.89	548.13
671.23	544.70
671.57	541.11
671.91	537.60
672.25	534.10
672.58	530.56
672.92	527.15
673.26	523.95
673.60	520.82
673.94	517.76
674.28	514.81
674.62	511.83
674.96	508.77
675.30	505.82
675.64	502.87
675.97	500.09
676.31	497.29
676.65	494.40
676.99	491.78
677.33	488.89
677.67	486.10
678.01	483.08
678.34	480.07
678.68	477.25
679.02	474.43
679.36	471.66
679.70	469.02
680.04	466.32
680.37	463.48
680.71	460.63
681.05	457.97
681.39	455.27
681.73	452.57
682.06	450.04
682.40	447.50
682.74	444.96
683.08	442.45
683.42	439.87
683.75	437.33
684.09	434.67
684.43	432.20
684.77	429.66
685.10	427.26
685.44	424.96
685.78	422.68
686.12	420.42
686.45	418.14
686.79	415.82
687.13	413.57
687.46	411.41
687.80	409.26
688.14	407.01
688.48	404.99
688.81	402.82
689.15	400.65
689.49	398.50
689.82	396.46
690.16	394.30
690.50	392.31
690.83	390.39
691.17	388.44
691.51	386.54
691.84	384.75
692.18	382.82
692.52	380.87
692.85	378.89
693.19	376.99
693.52	375.13
693.86	373.30
694.20	371.51
694.53	369.73
694.87	367.87
695.21	366.14
695.54	364.30
695.88	362.58
696.21	360.87
696.55	359.20
696.88	357.45
697.22	355.81
697.56	354.17
697.89	352.51
698.23	350.91
698.56	349.28
698.90	347.68
699.23	346.07
699.57	344.48
699.90	342.91
700.24	341.37
700.58	339.81
700.91	338.34
701.25	336.84
701.58	335.47
701.92	334.14
702.25	332.71
702.59	331.36
702.92	330.02
703.26	328.66
703.59	327.39
703.93	326.24
704.26	325.03
704.60	323.74
704.93	322.48
705.26	321.19
705.60	319.98
705.93	318.79
706.27	317.77
706.60	316.73
706.94	315.70
707.27	314.63
707.61	313.64
707.94	312.62
708.27	311.61
708.61	310.53
708.94	309.52
709.28	308.59
709.61	307.65
709.94	306.70
710.28	305.72
710.61	304.73
710.95	303.65
711.28	302.73
711.61	301.77
711.95	300.88
712.28	300.00
712.61	299.06
712.95	298.16
713.28	297.26
713.61	296.40
713.95	295.48
714.28	294.63
714.61	293.74
714.95	292.88
715.28	292.06
715.61	291.14
715.95	290.29
716.28	289.42
716.61	288.56
716.95	287.74
717.28	287.00
717.61	286.26
717.94	285.53
718.28	284.76
718.61	284.06
718.94	283.36
719.27	282.72
719.61	282.10
719.94	281.47
720.27	280.72
720.60	280.06
720.94	279.44
721.27	278.82
721.60	278.29
721.93	277.71
722.27	277.13
722.60	276.62
722.93	276.07
723.26	275.55
723.59	275.00
723.93	274.45
724.26	273.92
724.59	273.32
724.92	272.78
725.25	272.29
725.59	271.78
725.92	271.24
726.25	270.73
726.58	270.22
726.91	269.67
727.24	269.25
727.57	268.77
727.91	268.26
728.24	267.79
728.57	267.25
728.90	266.81
729.23	266.32
729.56	265.87
729.89	265.37
730.22	264.88
730.55	264.41
730.89	263.93
731.22	263.43
731.55	263.02
731.88	262.59
732.21	262.14
732.54	261.68
732.87	261.25
733.20	260.84
733.53	260.42
733.86	260.07
734.19	259.65
734.52	259.27
734.85	259.00
735.18	258.54
735.51	258.17
735.84	257.76
736.17	257.39
736.50	256.96
736.83	256.72
737.16	256.39
737.49	256.04
737.82	255.73
738.15	255.42
738.48	255.09
738.81	254.78
739.14	254.43
739.47	254.12
739.80	253.80
740.13	253.44
740.46	253.11
740.79	252.75
741.12	252.42
741.45	252.06
741.78	251.68
742.11	251.44
742.44	251.11
742.77	250.82
743.10	250.51
743.43	250.23
743.75	249.85
744.08	249.66
744.41	249.39
744.74	249.10
745.07	248.79
745.40	248.52
745.73	248.28
746.06	248.02
746.39	247.73
746.71	247.46
747.04	247.19
747.37	246.97
747.70	246.73
748.03	246.47
748.36	246.27
748.68	245.99
749.01	245.73
749.34	245.50
749.67	245.27
750.00	245.07
750.33	244.90
750.65	244.71
750.98	244.40
751.31	244.17
751.64	243.96
751.97	243.81
752.29	243.60
752.62	243.33
752.95	243.11
753.28	242.89
753.60	242.69
753.93	242.50
754.26	242.29
754.59	242.05
754.91	241.87
755.24	241.67
755.57	241.53
755.90	241.34
756.22	241.17
756.55	240.95
756.88	240.72
757.20	240.49
757.53	240.31
757.86	240.10
758.19	239.96
758.51	239.78
758.84	239.56
759.17	239.36
759.49	239.22
759.82	239.11
760.15	238.97
760.47	238.85
760.80	238.71
761.13	238.57
761.45	238.45
761.78	238.29
762.11	238.13
762.43	237.98
762.76	237.82
763.08	237.68
763.41	237.56
763.74	237.44
764.06	237.32
764.39	237.13
764.71	237.00
765.04	236.85
765.37	236.70
765.69	236.60
766.02	236.47
766.34	236.34
766.67	236.17
767.00	236.07
767.32	235.98
767.65	235.91
767.97	235.80
768.30	235.67
768.62	235.53
768.95	235.40
769.27	235.27
769.60	235.20
769.92	235.08
770.25	234.96
770.57	234.88
770.90	234.75
771.22	234.67
771.55	234.58
771.87	234.51
772.20	234.41
772.52	234.37
772.85	234.40
773.17	234.29
773.50	234.20
773.82	234.09
774.15	233.94
774.47	233.78
774.80	233.68
775.12	233.61
775.45	233.55
775.77	233.47
776.09	233.39
776.42	233.26
776.74	233.23
777.07	233.18
777.39	233.05
777.72	232.98
778.04	232.92
778.36	232.83
778.69	232.75
779.01	232.67
779.33	232.53
779.66	232.37
779.98	232.29
780.31	232.23
780.63	232.23
780.95	232.20
781.28	232.13
781.60	232.07
781.92	231.99
782.25	231.96
782.57	231.92
782.89	231.88
783.22	231.85
783.54	231.76
783.86	231.71
784.19	231.70
784.51	231.67
784.83	231.62
785.16	231.61
785.48	231.56
785.80	231.57
786.12	231.55
786.45	231.50
786.77	231.49
787.09	231.47
787.42	231.37
787.74	231.34
788.06	231.33
788.38	231.29
788.71	231.24
789.03	231.19
789.35	231.20
789.67	231.18
789.99	231.16
790.32	231.13
790.64	231.10
790.96	231.12
791.28	231.07
791.61	231.08
791.93	231.03
792.25	231.03
792.57	231.05
792.89	231.01
793.21	230.99
793.54	230.93
793.86	230.89
794.18	230.88
794.50	230.83
794.82	230.82
795.14	230.77
795.47	230.80
795.79	230.79
796.11	230.69
796.43	230.64
796.75	230.57
797.07	230.57
797.39	230.53
797.71	230.45
798.04	230.43
798.36	230.37
798.68	230.34
799.00	230.30
799.32	230.20
799.64	230.17
799.96	230.14
800.28	230.13
800.60	230.10
800.92	230.05
801.24	230.02
801.56	229.99
801.89	229.97
802.21	229.93
802.53	229.88
802.85	229.90
803.17	229.91
803.49	229.88
803.81	229.81
804.13	229.75
804.45	229.70
804.77	229.66
805.09	229.62
805.41	229.60
805.73	229.51
806.05	229.48
806.37	229.45
806.69	229.40
807.01	229.36
807.33	229.28
807.65	229.19
807.97	229.22
808.28	229.17
808.60	229.14
808.92	229.08
809.24	229.11
809.56	229.04
809.88	228.96
810.20	228.90
810.52	228.86
810.84	228.82
811.16	228.75
811.48	228.72
811.80	228.71
812.12	228.62
812.43	228.63
812.75	228.57
813.07	228.52
813.39	228.48
813.71	228.44
814.03	228.43
814.35	228.43
814.67	228.32
814.98	228.30
815.30	228.25
815.62	228.19
815.94	228.05
816.26	228.05
816.58	228.07
816.89	228.05
817.21	228.03
817.53	228.02
817.85	228.03
818.17	227.96
818.48	227.91
818.80	227.91
819.12	227.84
819.44	227.83
819.76	227.79
820.07	227.76
820.39	227.70
820.71	227.71
821.03	227.68
821.34	227.64
821.66	227.62
821.98	227.64
822.30	227.65
822.61	227.73
822.93	227.67
823.25	227.64
823.57	227.63
823.88	227.65
824.20	227.64
824.52	227.64
824.83	227.65
825.15	227.60
825.47	227.59
825.79	227.61
826.10	227.62
826.42	227.62
826.74	227.65
827.05	227.69
827.37	227.68
827.69	227.66
828.00	227.70
828.32	227.69
828.64	227.67
828.95	227.71
829.27	227.68
829.58	227.67
829.90	227.70
830.22	227.73
830.53	227.70
830.85	227.69
831.17	227.68
831.48	227.68
831.80	227.71
832.11	227.71
832.43	227.71
832.75	227.73
833.06	227.80
833.38	227.75
833.69	227.76
834.01	227.79
834.32	227.83
834.64	227.83
834.96	227.86
835.27	227.83
835.59	227.78
835.90	227.77
836.22	227.77
836.53	227.72
836.85	227.71
837.16	227.84
837.48	227.84
837.79	227.87
838.11	227.89
838.42	227.88
838.74	227.91
839.05	227.91
839.37	227.89
839.68	227.86
840.00	227.87
840.31	227.88
840.63	227.83
840.94	227.79
841.26	227.76
841.57	227.75
841.88	227.80
842.20	227.81
842.51	227.80
842.83	227.80
843.14	227.90
843.46	227.90
843.77	227.81
844.08	227.80
844.40	227.75
844.71	227.74
845.03	227.72
845.34	227.67
845.65	227.65
845.97	227.64
846.28	227.60
846.60	227.61
846.91	227.57
847.22	227.56
847.54	227.58
847.85	227.58
848.16	227.54
848.48	227.46
848.79	227.49
849.10	227.48
849.42	227.45
849.73	227.35
850.04	227.30
850.36	227.29
850.67	227.29
850.98	227.30
851.30	227.26
851.61	227.23
851.92	227.28
852.23	227.26
852.55	227.22
852.86	227.20
853.17	227.19
853.49	227.21
853.80	227.19
854.11	227.19
854.42	227.18
854.74	227.15
855.05	227.16
855.36	227.07
855.67	227.08
855.99	227.09
856.30	227.15
856.61	227.15
856.92	227.11
857.23	227.05
857.55	227.03
857.86	227.01
858.17	227.04
858.48	226.99
858.79	226.99
859.11	227.04
859.42	227.01
859.73	226.99
860.04	226.96
860.35	226.94
860.66	226.89
860.98	226.89
861.29	226.89
861.60	226.88
861.91	226.91
862.22	226.88
862.53	226.86
862.84	226.76
863.16	226.77
863.47	226.74
863.78	226.75
864.09	226.76
864.40	226.76
864.71	226.74
865.02	226.75
865.33	226.70
865.64	226.64
865.95	226.65
866.27	226.74
866.58	226.72
866.89	226.74
867.20	226.76
867.51	226.74
867.82	226.73
868.13	226.77
868.44	226.76
868.75	226.81
869.06	226.80
869.37	226.83
869.68	226.81
869.99	226.83
870.30	226.89
870.61	226.89
870.92	226.89
871.23	226.88
871.54	226.92
871.85	226.94
872.16	226.99
872.47	226.99
872.78	226.95
873.09	226.96
873.40	226.97
873.71	226.98
874.02	227.01
874.33	227.03
874.64	227.00
874.95	227.03
875.26	226.99
875.56	227.02
875.87	227.04
876.18	227.06
876.49	227.16
876.80	227.15
877.11	227.12
877.42	227.15
877.73	227.19
878.04	227.16
878.35	227.20
878.66	227.19
878.96	227.20
879.27	227.17
879.58	227.20
879.89	227.19
880.20	227.22
880.51	227.22
880.82	227.23
881.12	227.23
881.43	227.20
881.74	227.20
882.05	227.20
882.36	227.18
882.67	227.17
882.97	227.07
883.28	227.09
883.59	227.12
883.90	227.11
884.21	227.12
884.51	227.14
884.82	227.10
885.13	227.10
885.44	227.06
885.74	227.06
886.05	227.03
886.36	227.01
886.67	226.95
886.98	226.96
887.28	226.98
887.59	226.99
887.90	226.98
888.20	226.94
888.51	226.94
888.82	226.92
889.13	226.92
889.43	226.97
889.74	226.96
890.05	226.94
890.35	226.91
890.66	226.85
890.97	226.79
891.28	226.80
891.58	226.80
891.89	226.82
892.20	226.82
892.50	226.79
892.81	226.80
893.12	226.82
893.42	226.78
893.73	226.74
894.04	226.74
894.34	226.74
894.65	226.75
894.95	226.72
895.26	226.69
895.57	226.73
895.87	226.65
896.18	226.63
896.48	226.64
896.79	226.64
897.10	226.67
897.40	226.67
897.71	226.67
898.01	226.67
898.32	226.66
898.63	226.64
898.93	226.66
899.24	226.64
899.54	226.63
899.85	226.64
900.15	226.66
900.46	226.65
900.76	226.66
901.07	226.65
901.38	226.64
901.68	226.66
901.99	226.59
902.29	226.59
902.60	226.57
902.90	226.54
903.21	226.53
903.51	226.51
903.82	226.53
904.12	226.51
904.43	226.49
904.73	226.47
905.03	226.47
905.34	226.51
905.64	226.52
905.95	226.53
906.25	226.50
906.56	226.48
906.86	226.47
907.17	226.46
907.47	226.47
907.77	226.49
908.08	226.50
908.38	226.51
908.69	226.49
908.99	226.48
909.30	226.53
909.60	226.56
909.90	226.58
910.21	226.57
910.51	226.57
910.81	226.62
911.12	226.65
911.42	226.69
911.73	226.64
912.03	226.65
912.33	226.69
912.64	226.70
912.94	226.69
913.24	226.69
913.55	226.70
913.85	226.74
914.15	226.77
914.46	226.82
914.76	226.83
915.06	226.88
915.37	226.93
915.67	226.90
915.97	226.89
916.27	226.88
916.58	226.89
916.88	226.86
917.18	226.86
917.49	226.96
917.79	226.93
918.09	226.98
918.39	227.01
918.70	226.98
919.00	227.02
919.30	227.08
919.60	227.07
919.91	227.06
920.21	227.04
920.51	226.97
920.81	226.93
921.12	226.98
921.42	226.98
921.72	226.94
922.02	226.93
922.32	226.93
922.63	226.97
922.93	227.04
923.23	227.09
923.53	227.03
923.83	226.93
924.13	226.93
924.44	226.90
924.74	226.89
925.04	226.92
925.34	226.86
925.64	226.80
925.94	226.80
926.24	226.82
926.55	226.81
926.85	226.85
927.15	226.87
927.45	226.82
927.75	226.78
928.05	226.83
928.35	226.81
928.65	226.82
928.95	226.79
929.26	226.74
929.56	226.72
929.86	226.74
930.16	226.69
930.46	226.68
930.76	226.68
931.06	226.66
931.36	226.61
931.66	226.63
931.96	226.66
932.26	226.65
932.56	226.62
932.86	226.63
933.16	226.62
933.46	226.61
933.76	226.61
934.06	226.65
934.36	226.64
934.66	226.65
934.96	226.62
935.26	226.61
935.56	226.62
935.86	226.59
936.16	226.55
936.46	226.57
936.76	226.56
937.06	226.50
937.36	226.52
937.66	226.50
937.96	226.54
938.26	226.50
938.56	226.53
938.86	226.51
939.16	226.54
939.46	226.53
939.76	226.52
940.06	226.51
940.35	226.45
940.65	226.41
940.95	226.38
941.25	226.37
941.55	226.34
941.85	226.33
942.15	226.37
942.45	226.42
942.75	226.42
943.04	226.47
943.34	226.51
943.64	226.47
943.94	226.47
944.24	226.41
944.54	226.44
944.84	226.41
945.13	226.42
945.43	226.39
945.73	226.39
946.03	226.40
946.33	226.40
946.62	226.42
946.92	226.45
947.22	226.51
947.52	226.52
947.82	226.59
948.11	226.59
948.41	226.58
948.71	226.56
949.01	226.58
949.31	226.54
949.60	226.54
949.90	226.57
950.20	226.59
950.50	226.63
950.79	226.60
951.09	226.62
951.39	226.63
951.69	226.63
951.98	226.66
952.28	226.68
952.58	226.68
952.87	226.68
953.17	226.67
953.47	226.62
953.76	226.66
954.06	226.63
954.36	226.62
954.66	226.61
954.95	226.65
955.25	226.67
955.55	226.70
955.84	226.69
956.14	226.71
956.44	226.73
956.73	226.72
957.03	226.74
957.32	226.74
957.62	226.76
957.92	226.76
958.21	226.75
958.51	226.84
958.81	226.83
959.10	226.88
959.40	226.90
959.69	226.95
959.99	226.94
960.29	226.93
960.58	226.94
960.88	226.97
961.17	226.95
961.47	226.94
961.76	226.93
962.06	226.98
962.36	226.94
962.65	226.93
962.95	226.95
963.24	226.94
963.54	226.93
963.83	226.92
964.13	226.90
964.42	226.93
964.72	226.84
965.01	226.85
965.31	226.83
965.60	226.82
965.90	226.88
966.19	226.83
966.49	226.88
966.78	226.86
967.08	226.87
967.37	226.85
967.67	226.83
967.96	226.82
968.26	226.79
968.55	226.81
968.85	226.79
969.14	226.75
969.43	226.78
969.73	226.76
970.02	226.74
970.32	226.76
970.61	226.70
970.91	226.66
971.20	226.65
971.49	226.60
971.79	226.59
972.08	226.51
972.38	226.47
972.67	226.37
972.96	226.35
973.26	226.32
973.55	226.32
973.85	226.33
974.14	226.34
974.43	226.33
974.73	226.29
975.02	226.26
975.31	226.24
975.61	226.19
975.90	226.19
976.19	226.17
976.49	226.16
976.78	226.16
977.07	226.15
977.37	226.11
977.66	226.13
977.95	226.12
978.24	226.11
978.54	226.16
978.83	226.17
979.12	226.18
979.42	226.16
979.71	226.16
980.00	226.14
980.29	226.14
980.59	226.09
980.88	226.14
981.17	226.18
981.46	226.19
981.76	226.21
982.05	226.24
982.34	226.26
982.63	226.25
982.93	226.26
983.22	226.30
983.51	226.34
983.80	226.35
984.09	226.39
984.39	226.41
984.68	226.40
984.97	226.43
985.26	226.41
985.55	226.44
985.85	226.42
986.14	226.44
986.43	226.44
986.72	226.46
987.01	226.43
987.30	226.43
987.59	226.43
987.89	226.46
988.18	226.43
988.47	226.42
988.76	226.41
989.05	226.43
989.34	226.43
989.63	226.44
989.92	226.43
990.22	226.40
990.51	226.39
990.80	226.41
991.09	226.43
991.38	226.47
991.67	226.48
991.96	226.48
992.25	226.49
992.54	226.49
992.83	226.50
993.12	226.51
993.41	226.52
993.70	226.56
993.99	226.59
994.28	226.60
994.58	226.62
994.87	226.63
995.16	226.62
995.45	226.60
995.74	226.58
996.03	226.61
996.32	226.63
996.61	226.66
996.90	226.62
997.19	226.61
997.48	226.61
997.77	226.58
998.06	226.58
998.34	226.56
998.63	226.56
998.92	226.59
999.21	226.60
999.50	226.59
999.79	226.56
1000.08	226.54
1000.37	226.55
1000.66	226.52
1000.95	226.54
1001.24	226.52
1001.53	226.53
1001.82	226.54
1002.11	226.49
1002.40	226.50
1002.68	226.50
1002.97	226.60
1003.26	226.57
1003.55	226.54
1003.84	226.55
1004.13	226.60
1004.42	226.58
1004.71	226.56
1004.99	226.52
1005.28	226.53
1005.57	226.52
1005.86	226.51
1006.15	226.51
1006.44	226.49
1006.72	226.51
1007.01	226.49
1007.30	226.51
1007.59	226.50
1007.88	226.48
1008.17	226.47
1008.45	226.41
1008.74	226.35
1009.03	226.28
1009.32	226.29
1009.60	226.27
1009.89	226.27
1010.18	226.23
1010.47	226.25
1010.76	226.26
1011.04	226.28
1011.33	226.29
1011.62	226.30
1011.91	226.31
1012.19	226.27
1012.48	226.27
1012.77	226.28
1013.05	226.32
1013.34	226.30
1013.63	226.31
1013.92	226.33
1014.20	226.34
1014.49	226.37
1014.78	226.39
1015.06	226.39
1015.35	226.38
1015.64	226.41
1015.92	226.41
1016.21	226.38
1016.50	226.38
1016.78	226.37
1017.07	226.38
1017.36	226.41
1017.64	226.38
1017.93	226.38
1018.22	226.38
1018.50	226.38
1018.79	226.36
1019.08	226.30
1019.36	226.32
1019.65	226.30
1019.93	226.31
1020.22	226.32
1020.51	226.34
1020.79	226.36
1021.08	226.11
1021.36	226.25
1021.65	226.12
1021.94	226.08
1022.22	226.43
1022.51	226.28
1022.79	226.50
1023.08	226.27
1023.36	227.02
1023.65	226.23
>>>>>End Processed Spectral Data<<<<<
