SpectraSuite Data File
++++++++++++++++++++++++++++++++++++
Date: Fri Feb 01 15:02:18 EST 2013
User: group
Dark Spectrum Present: No
Reference Spectrum Present: No
Number of Sampled Component Spectra: 1
Spectrometers: USB2E7196
Integration Time (usec): 35000 (USB2E7196)
Spectra Averaged: 100 (USB2E7196)
Boxcar Smoothing: 10 (USB2E7196)
Correct for Electrical Dark: No (USB2E7196)
Strobe/Lamp Enabled: No (USB2E7196)
Correct for Detector Non-linearity: No (USB2E7196)
Correct for Stray Light: No (USB2E7196)
Number of Pixels in Processed Spectrum: 2048
>>>>>Begin Processed Spectral Data<<<<<
339.09	0.00
339.48	214.86
339.86	216.66
340.24	218.34
340.63	219.94
341.01	222.21
341.39	222.53
341.78	223.61
342.16	224.59
342.54	225.59
342.93	213.56
343.31	224.37
343.69	224.92
344.07	225.39
344.46	225.82
344.84	226.15
345.22	226.39
345.60	226.62
345.99	226.80
346.37	226.90
346.75	226.99
347.13	227.07
347.52	227.13
347.90	227.21
348.28	227.23
348.66	227.26
349.05	227.26
349.43	227.29
349.81	227.33
350.19	227.35
350.57	227.38
350.96	227.41
351.34	227.46
351.72	227.56
352.10	227.63
352.48	227.71
352.87	227.80
353.25	227.87
353.63	227.93
354.01	227.96
354.39	228.05
354.77	228.11
355.15	228.18
355.54	228.23
355.92	228.29
356.30	228.37
356.68	228.50
357.06	228.57
357.44	228.61
357.82	228.70
358.20	228.80
358.58	228.90
358.97	228.99
359.35	229.05
359.73	229.13
360.11	229.18
360.49	229.23
360.87	229.24
361.25	229.32
361.63	229.38
362.01	229.43
362.39	229.45
362.77	229.51
363.15	229.54
363.53	229.59
363.91	229.60
364.29	229.59
364.67	229.54
365.05	229.58
365.43	229.62
365.81	229.63
366.19	229.63
366.57	229.69
366.95	229.68
367.33	229.67
367.71	229.63
368.09	229.62
368.47	229.59
368.85	229.56
369.23	229.52
369.61	229.48
369.99	229.48
370.37	229.48
370.75	229.46
371.13	229.39
371.51	229.31
371.89	229.24
372.27	229.22
372.65	229.13
373.03	229.07
373.41	228.99
373.78	228.93
374.16	228.84
374.54	228.74
374.92	228.65
375.30	228.58
375.68	228.48
376.06	228.44
376.44	228.40
376.82	228.33
377.19	228.26
377.57	228.17
377.95	228.07
378.33	227.93
378.71	227.81
379.09	227.72
379.47	227.64
379.84	227.57
380.22	227.47
380.60	227.38
380.98	227.31
381.36	227.24
381.73	227.16
382.11	227.12
382.49	227.04
382.87	227.00
383.25	226.91
383.62	227.01
384.00	226.89
384.38	226.78
384.76	226.74
385.13	226.70
385.51	226.65
385.89	226.59
386.27	226.56
386.64	226.55
387.02	226.53
387.40	226.48
387.78	226.43
388.15	226.40
388.53	226.35
388.91	226.28
389.29	226.23
389.66	226.16
390.04	226.10
390.42	226.09
390.79	226.03
391.17	225.99
391.55	225.84
391.92	225.85
392.30	225.86
392.68	225.83
393.05	225.83
393.43	225.87
393.81	225.89
394.18	225.91
394.56	225.90
394.94	225.93
395.31	225.97
395.69	226.05
396.06	226.14
396.44	226.21
396.82	226.24
397.19	226.39
397.57	226.47
397.95	226.56
398.32	226.57
398.70	226.66
399.07	226.78
399.45	226.85
399.82	226.93
400.20	227.02
400.58	227.13
400.95	227.17
401.33	227.27
401.70	227.42
402.08	227.55
402.45	227.65
402.83	227.78
403.20	227.88
403.58	227.99
403.95	228.12
404.33	228.27
404.71	228.45
405.08	228.62
405.46	228.77
405.83	228.91
406.21	229.07
406.58	229.30
406.96	229.48
407.33	229.66
407.70	229.87
408.08	230.18
408.45	230.42
408.83	230.69
409.20	230.92
409.58	231.12
409.95	231.36
410.33	231.68
410.70	231.93
411.08	232.27
411.45	232.56
411.82	232.88
412.20	233.25
412.57	233.66
412.95	233.95
413.32	234.36
413.69	234.81
414.07	235.27
414.44	235.70
414.82	236.18
415.19	236.76
415.56	237.30
415.94	237.82
416.31	238.46
416.68	239.07
417.06	239.75
417.43	240.45
417.81	241.24
418.18	242.02
418.55	242.86
418.93	243.72
419.30	244.62
419.67	245.56
420.04	246.51
420.42	247.48
420.79	248.66
421.16	249.80
421.54	250.96
421.91	252.17
422.28	253.41
422.66	254.72
423.03	256.01
423.40	257.36
423.77	258.72
424.15	260.10
424.52	261.61
424.89	263.23
425.26	264.78
425.64	266.20
426.01	267.76
426.38	269.44
426.75	271.12
427.13	272.84
427.50	274.62
427.87	276.50
428.24	278.36
428.61	280.08
428.99	282.05
429.36	284.16
429.73	286.21
430.10	288.24
430.47	290.30
430.85	292.40
431.22	294.65
431.59	297.02
431.96	299.29
432.33	301.74
432.70	304.14
433.08	306.95
433.45	309.59
433.82	312.22
434.19	315.08
434.56	317.83
434.93	320.51
435.30	323.14
435.68	326.03
436.05	328.88
436.42	331.72
436.79	334.25
437.16	336.95
437.53	339.80
437.90	342.65
438.27	345.39
438.64	348.21
439.01	350.81
439.38	353.08
439.75	355.25
440.13	357.77
440.50	360.10
440.87	361.93
441.24	363.92
441.61	366.08
441.98	367.59
442.35	369.47
442.72	371.34
443.09	373.17
443.46	374.13
443.83	374.76
444.20	375.24
444.57	376.14
444.94	376.44
445.31	376.83
445.68	377.16
446.05	377.26
446.42	376.91
446.79	376.51
447.16	376.10
447.53	375.78
447.90	374.63
448.27	373.46
448.64	371.87
449.01	370.71
449.37	368.75
449.74	366.86
450.11	364.61
450.48	362.12
450.85	359.58
451.22	357.50
451.59	355.45
451.96	353.53
452.33	350.87
452.70	348.52
453.07	345.64
453.43	342.76
453.80	340.01
454.17	337.31
454.54	334.74
454.91	332.02
455.28	329.36
455.65	326.84
456.02	324.41
456.38	322.33
456.75	319.66
457.12	317.38
457.49	315.16
457.86	312.99
458.23	311.15
458.59	309.08
458.96	306.96
459.33	305.11
459.70	303.21
460.07	301.69
460.43	299.94
460.80	298.30
461.17	296.83
461.54	295.28
461.91	293.87
462.27	292.42
462.64	291.17
463.01	289.80
463.38	288.49
463.74	287.10
464.11	285.87
464.48	284.83
464.85	283.76
465.21	282.87
465.58	281.90
465.95	280.77
466.32	279.89
466.68	278.95
467.05	278.01
467.42	277.14
467.78	276.16
468.15	275.25
468.52	274.57
468.88	273.72
469.25	272.97
469.62	272.33
469.98	271.65
470.35	270.98
470.72	270.33
471.08	269.69
471.45	269.16
471.82	268.62
472.18	268.01
472.55	267.52
472.92	267.01
473.28	266.56
473.65	266.11
474.02	265.61
474.38	265.25
474.75	264.96
475.11	264.56
475.48	264.27
475.85	264.03
476.21	263.78
476.58	263.58
476.94	263.43
477.31	263.22
477.67	263.05
478.04	262.91
478.41	262.87
478.77	262.88
479.14	262.77
479.50	262.75
479.87	262.77
480.23	262.86
480.60	262.89
480.96	262.97
481.33	263.18
481.69	263.38
482.06	263.55
482.42	263.72
482.79	263.97
483.15	264.32
483.52	264.72
483.88	265.06
484.25	265.39
484.61	265.79
484.98	266.24
485.34	266.80
485.71	267.41
486.07	268.02
486.44	268.59
486.80	269.32
487.17	270.05
487.53	270.92
487.90	271.75
488.26	272.66
488.62	273.65
488.99	274.58
489.35	275.65
489.72	276.79
490.08	277.98
490.44	279.21
490.81	280.56
491.17	281.91
491.54	283.41
491.90	285.00
492.26	286.64
492.63	288.37
492.99	290.13
493.36	292.02
493.72	294.08
494.08	296.24
494.45	298.46
494.81	300.82
495.17	303.18
495.54	305.71
495.90	308.39
496.26	311.19
496.63	314.11
496.99	317.23
497.35	320.41
497.72	323.80
498.08	327.36
498.44	331.00
498.80	334.90
499.17	338.95
499.53	343.09
499.89	347.43
500.26	351.94
500.62	356.60
500.98	361.50
501.34	366.52
501.71	371.80
502.07	377.20
502.43	382.80
502.79	388.63
503.16	394.74
503.52	400.96
503.88	407.28
504.24	413.92
504.60	420.77
504.97	427.97
505.33	435.24
505.69	442.87
506.05	450.61
506.41	458.49
506.78	466.65
507.14	475.09
507.50	483.84
507.86	492.83
508.22	502.03
508.59	511.25
508.95	520.82
509.31	530.53
509.67	540.59
510.03	550.83
510.39	561.37
510.75	572.15
511.12	583.14
511.48	594.47
511.84	605.89
512.20	617.36
512.56	629.29
512.92	641.49
513.28	653.82
513.64	666.27
514.00	678.91
514.37	691.82
514.73	704.85
515.09	717.80
515.45	731.04
515.81	744.63
516.17	758.62
516.53	772.72
516.89	786.91
517.25	801.13
517.61	815.54
517.97	829.98
518.33	844.42
518.69	859.13
519.05	874.05
519.41	889.27
519.77	904.81
520.13	920.28
520.49	935.78
520.85	951.27
521.21	967.08
521.57	983.41
521.93	999.21
522.29	1015.65
522.65	1032.00
523.01	1048.32
523.37	1064.37
523.73	1080.68
524.09	1096.94
524.45	1113.37
524.81	1130.02
525.17	1147.02
525.53	1164.07
525.89	1180.98
526.25	1197.83
526.61	1214.31
526.97	1231.09
527.33	1247.71
527.68	1264.27
528.04	1280.77
528.40	1297.38
528.76	1314.42
529.12	1330.98
529.48	1347.95
529.84	1364.10
530.20	1380.80
530.56	1398.02
530.91	1415.39
531.27	1432.22
531.63	1448.69
531.99	1465.34
532.35	1481.49
532.71	1497.40
533.07	1513.71
533.42	1529.63
533.78	1545.82
534.14	1562.18
534.50	1577.67
534.86	1593.56
535.21	1608.82
535.57	1624.77
535.93	1640.43
536.29	1655.43
536.65	1670.74
537.00	1685.66
537.36	1701.01
537.72	1715.64
538.08	1730.00
538.44	1744.01
538.79	1757.91
539.15	1771.75
539.51	1785.60
539.87	1800.02
540.22	1813.86
540.58	1827.66
540.94	1841.16
541.29	1854.20
541.65	1867.05
542.01	1880.45
542.37	1892.92
542.72	1905.60
543.08	1917.51
543.44	1930.10
543.79	1941.32
544.15	1952.35
544.51	1963.91
544.87	1975.08
545.22	1985.96
545.58	1996.26
545.94	2006.11
546.29	2015.97
546.65	2025.74
547.01	2034.87
547.36	2043.65
547.72	2052.28
548.07	2060.11
548.43	2068.46
548.79	2076.52
549.14	2084.01
549.50	2091.33
549.86	2099.06
550.21	2106.28
550.57	2113.42
550.92	2119.91
551.28	2126.95
551.64	2134.04
551.99	2140.54
552.35	2146.50
552.70	2152.67
553.06	2158.63
553.41	2164.81
553.77	2170.88
554.13	2177.00
554.48	2183.34
554.84	2188.71
555.19	2193.87
555.55	2199.06
555.90	2203.47
556.26	2208.33
556.61	2212.98
556.97	2217.16
557.32	2221.37
557.68	2225.60
558.03	2229.95
558.39	2233.64
558.74	2238.35
559.10	2242.14
559.45	2245.85
559.81	2250.04
560.16	2253.65
560.52	2256.87
560.87	2260.34
561.23	2262.93
561.58	2265.85
561.94	2268.29
562.29	2270.73
562.64	2273.28
563.00	2275.92
563.35	2279.34
563.71	2282.35
564.06	2285.55
564.42	2288.24
564.77	2290.49
565.12	2292.51
565.48	2294.12
565.83	2295.75
566.19	2296.93
566.54	2297.80
566.89	2298.81
567.25	2299.32
567.60	2300.72
567.96	2302.13
568.31	2302.78
568.66	2303.62
569.02	2304.04
569.37	2304.09
569.72	2304.64
570.08	2304.61
570.43	2304.41
570.78	2303.41
571.14	2301.82
571.49	2300.26
571.84	2299.88
572.20	2298.61
572.55	2297.32
572.90	2295.75
573.26	2294.27
573.61	2292.38
573.96	2290.46
574.31	2287.28
574.67	2284.17
575.02	2280.32
575.37	2276.79
575.72	2272.95
576.08	2269.69
576.43	2266.27
576.78	2262.51
577.13	2259.35
577.49	2256.21
577.84	2252.51
578.19	2248.84
578.54	2244.92
578.90	2240.69
579.25	2234.93
579.60	2229.86
579.95	2224.86
580.30	2219.76
580.66	2214.48
581.01	2209.48
581.36	2204.30
581.71	2199.90
582.06	2195.32
582.42	2190.78
582.77	2185.58
583.12	2180.78
583.47	2175.78
583.82	2170.56
584.17	2165.24
584.53	2159.43
584.88	2153.62
585.23	2147.62
585.58	2142.03
585.93	2136.47
586.28	2131.60
586.63	2126.44
586.98	2121.26
587.34	2116.45
587.69	2111.47
588.04	2106.00
588.39	2100.14
588.74	2093.82
589.09	2087.59
589.44	2080.64
589.79	2074.48
590.14	2068.69
590.49	2062.09
590.84	2055.64
591.19	2049.49
591.54	2042.89
591.89	2035.36
592.25	2028.51
592.60	2021.37
592.95	2013.67
593.30	2006.25
593.65	1998.52
594.00	1991.44
594.35	1984.09
594.70	1976.03
595.05	1968.52
595.40	1961.31
595.75	1953.69
596.10	1947.14
596.45	1940.32
596.80	1934.12
597.15	1927.23
597.50	1919.90
597.85	1913.45
598.19	1906.61
598.54	1899.42
598.89	1892.70
599.24	1886.90
599.59	1879.97
599.94	1873.76
600.29	1867.47
600.64	1860.92
600.99	1853.30
601.34	1846.36
601.69	1839.38
602.04	1832.33
602.39	1825.04
602.74	1818.23
603.08	1811.56
603.43	1804.86
603.78	1797.56
604.13	1790.37
604.48	1783.26
604.83	1776.50
605.18	1769.39
605.53	1761.46
605.87	1753.46
606.22	1746.21
606.57	1738.34
606.92	1731.11
607.27	1723.84
607.62	1716.78
607.96	1709.40
608.31	1702.83
608.66	1695.23
609.01	1687.60
609.36	1680.13
609.70	1672.20
610.05	1664.01
610.40	1656.20
610.75	1647.82
611.10	1640.14
611.44	1631.82
611.79	1623.73
612.14	1615.13
612.49	1606.03
612.83	1597.73
613.18	1589.66
613.53	1581.55
613.88	1572.93
614.22	1564.54
614.57	1556.00
614.92	1547.97
615.27	1540.38
615.61	1532.07
615.96	1524.03
616.31	1516.39
616.65	1508.91
617.00	1501.35
617.35	1493.78
617.70	1485.36
618.04	1476.87
618.39	1468.75
618.74	1461.07
619.08	1452.74
619.43	1445.12
619.78	1438.25
620.12	1430.97
620.47	1423.46
620.82	1415.34
621.16	1407.99
621.51	1400.55
621.85	1392.98
622.20	1384.64
622.55	1376.38
622.89	1368.60
623.24	1361.09
623.59	1353.89
623.93	1346.46
624.28	1339.27
624.62	1331.71
624.97	1324.73
625.32	1318.14
625.66	1311.09
626.01	1303.91
626.35	1296.51
626.70	1288.74
627.04	1281.15
627.39	1273.57
627.73	1266.30
628.08	1259.47
628.43	1252.13
628.77	1244.81
629.12	1237.22
629.46	1230.02
629.81	1222.67
630.15	1215.50
630.50	1208.18
630.84	1200.01
631.19	1192.16
631.53	1184.70
631.88	1177.29
632.22	1169.70
632.57	1162.31
632.91	1154.87
633.26	1147.57
633.60	1140.40
633.95	1133.56
634.29	1126.50
634.64	1119.81
634.98	1112.46
635.32	1105.36
635.67	1098.88
636.01	1092.31
636.36	1085.52
636.70	1079.05
637.05	1072.49
637.39	1066.10
637.73	1059.60
638.08	1053.83
638.42	1047.89
638.77	1041.49
639.11	1034.82
639.45	1028.50
639.80	1022.02
640.14	1015.57
640.49	1009.06
640.83	1002.76
641.17	996.40
641.52	990.08
641.86	983.76
642.20	977.95
642.55	971.80
642.89	965.37
643.23	958.86
643.58	953.20
643.92	946.99
644.26	941.03
644.61	935.09
644.95	929.05
645.29	922.35
645.64	915.63
645.98	909.33
646.32	903.58
646.66	897.62
647.01	891.74
647.35	886.07
647.69	880.31
648.04	874.88
648.38	869.16
648.72	863.19
649.06	857.14
649.41	851.26
649.75	845.16
650.09	839.18
650.43	833.42
650.78	827.25
651.12	821.37
651.46	815.61
651.80	809.76
652.14	804.36
652.49	799.03
652.83	793.81
653.17	788.13
653.51	782.30
653.85	776.88
654.20	771.18
654.54	765.20
654.88	759.45
655.22	753.52
655.56	747.80
655.90	742.32
656.25	737.04
656.59	731.71
656.93	726.72
657.27	721.59
657.61	716.13
657.95	711.07
658.29	705.96
658.64	700.73
658.98	695.48
659.32	690.07
659.66	684.88
660.00	679.68
660.34	674.72
660.68	669.94
661.02	664.94
661.36	660.26
661.70	655.85
662.05	651.45
662.39	647.12
662.73	642.78
663.07	638.52
663.41	634.07
663.75	629.52
664.09	624.96
664.43	620.60
664.77	616.58
665.11	612.35
665.45	608.27
665.79	604.19
666.13	600.08
666.47	596.00
666.81	591.87
667.15	587.77
667.49	583.95
667.83	580.15
668.17	576.27
668.51	572.26
668.85	568.21
669.19	564.45
669.53	560.65
669.87	556.78
670.21	553.04
670.55	549.42
670.89	546.04
671.23	542.58
671.57	539.16
671.91	535.56
672.25	532.09
672.58	528.61
672.92	525.26
673.26	522.13
673.60	519.04
673.94	515.98
674.28	513.06
674.62	510.09
674.96	507.00
675.30	504.04
675.64	501.20
675.97	498.45
676.31	495.66
676.65	492.74
676.99	490.06
677.33	487.28
677.67	484.53
678.01	481.53
678.34	478.62
678.68	475.74
679.02	472.99
679.36	470.26
679.70	467.60
680.04	464.84
680.37	461.98
680.71	459.24
681.05	456.59
681.39	453.90
681.73	451.32
682.06	448.82
682.40	446.35
682.74	443.86
683.08	441.35
683.42	438.71
683.75	436.20
684.09	433.64
684.43	431.20
684.77	428.79
685.10	426.51
685.44	424.20
685.78	421.91
686.12	419.70
686.45	417.44
686.79	415.16
687.13	413.01
687.46	410.86
687.80	408.69
688.14	406.50
688.48	404.48
688.81	402.18
689.15	400.01
689.49	397.90
689.82	395.79
690.16	393.75
690.50	391.81
690.83	389.86
691.17	387.92
691.51	386.03
691.84	384.17
692.18	382.22
692.52	380.25
692.85	378.38
693.19	376.54
693.52	374.71
693.86	372.91
694.20	371.16
694.53	369.37
694.87	367.49
695.21	365.77
695.54	363.98
695.88	362.29
696.21	360.60
696.55	358.90
696.88	357.20
697.22	355.54
697.56	353.91
697.89	352.29
698.23	350.65
698.56	349.04
698.90	347.41
699.23	345.76
699.57	344.25
699.90	342.68
700.24	341.14
700.58	339.59
700.91	338.05
701.25	336.61
701.58	335.24
701.92	333.93
702.25	332.53
702.59	331.14
702.92	329.86
703.26	328.54
703.59	327.26
703.93	326.14
704.26	324.93
704.60	323.68
704.93	322.43
705.26	321.24
705.60	320.06
705.93	318.95
706.27	317.96
706.60	316.93
706.94	315.88
707.27	314.71
707.61	313.69
707.94	312.69
708.27	311.60
708.61	310.56
708.94	309.56
709.28	308.63
709.61	307.69
709.94	306.69
710.28	305.70
710.61	304.71
710.95	303.59
711.28	302.70
711.61	301.73
711.95	300.83
712.28	299.88
712.61	298.86
712.95	297.94
713.28	297.04
713.61	296.11
713.95	295.20
714.28	294.40
714.61	293.53
714.95	292.69
715.28	291.88
715.61	291.00
715.95	290.11
716.28	289.26
716.61	288.43
716.95	287.68
717.28	286.95
717.61	286.21
717.94	285.52
718.28	284.67
718.61	283.97
718.94	283.29
719.27	282.62
719.61	281.99
719.94	281.31
720.27	280.59
720.60	279.93
720.94	279.34
721.27	278.74
721.60	278.19
721.93	277.60
722.27	276.99
722.60	276.46
722.93	275.92
723.26	275.36
723.59	274.81
723.93	274.24
724.26	273.68
724.59	273.13
724.92	272.57
725.25	272.10
725.59	271.57
725.92	271.08
726.25	270.61
726.58	270.13
726.91	269.59
727.24	269.14
727.57	268.71
727.91	268.21
728.24	267.74
728.57	267.24
728.90	266.76
729.23	266.32
729.56	265.88
729.89	265.40
730.22	264.96
730.55	264.47
730.89	264.03
731.22	263.58
731.55	263.13
731.88	262.70
732.21	262.28
732.54	261.85
732.87	261.40
733.20	261.01
733.53	260.63
733.86	260.28
734.19	259.85
734.52	259.46
734.85	259.13
735.18	258.72
735.51	258.37
735.84	258.03
736.17	257.66
736.50	257.26
736.83	257.03
737.16	256.68
737.49	256.35
737.82	255.98
738.15	255.65
738.48	255.31
738.81	254.99
739.14	254.66
739.47	254.35
739.80	254.04
740.13	253.75
740.46	253.40
740.79	253.09
741.12	252.80
741.45	252.47
741.78	252.11
742.11	251.84
742.44	251.47
742.77	251.18
743.10	250.88
743.43	250.59
743.75	250.19
744.08	250.05
744.41	249.78
744.74	249.52
745.07	249.30
745.40	249.07
745.73	248.86
746.06	248.59
746.39	248.33
746.71	248.07
747.04	247.76
747.37	247.51
747.70	247.27
748.03	247.03
748.36	246.81
748.68	246.56
749.01	246.29
749.34	246.13
749.67	245.90
750.00	245.67
750.33	245.48
750.65	245.32
750.98	244.97
751.31	244.75
751.64	244.58
751.97	244.39
752.29	244.20
752.62	243.91
752.95	243.72
753.28	243.52
753.60	243.34
753.93	243.17
754.26	242.96
754.59	242.76
754.91	242.55
755.24	242.35
755.57	242.18
755.90	241.98
756.22	241.79
756.55	241.55
756.88	241.34
757.20	241.14
757.53	240.95
757.86	240.74
758.19	240.63
758.51	240.42
758.84	240.18
759.17	239.98
759.49	239.84
759.82	239.72
760.15	239.53
760.47	239.36
760.80	239.19
761.13	239.08
761.45	238.91
761.78	238.76
762.11	238.64
762.43	238.50
762.76	238.40
763.08	238.27
763.41	238.19
763.74	238.09
764.06	237.94
764.39	237.75
764.71	237.64
765.04	237.46
765.37	237.34
765.69	237.23
766.02	237.10
766.34	237.00
766.67	236.83
767.00	236.73
767.32	236.67
767.65	236.64
767.97	236.53
768.30	236.45
768.62	236.33
768.95	236.20
769.27	236.11
769.60	236.00
769.92	235.86
770.25	235.73
770.57	235.61
770.90	235.51
771.22	235.46
771.55	235.37
771.87	235.28
772.20	235.19
772.52	235.20
772.85	235.24
773.17	235.12
773.50	235.02
773.82	234.91
774.15	234.74
774.47	234.58
774.80	234.47
775.12	234.37
775.45	234.27
775.77	234.18
776.09	234.06
776.42	233.97
776.74	233.90
777.07	233.83
777.39	233.75
777.72	233.67
778.04	233.61
778.36	233.55
778.69	233.47
779.01	233.41
779.33	233.24
779.66	233.05
779.98	232.98
780.31	232.93
780.63	232.94
780.95	232.92
781.28	232.87
781.60	232.78
781.92	232.74
782.25	232.70
782.57	232.61
782.89	232.57
783.22	232.51
783.54	232.48
783.86	232.41
784.19	232.37
784.51	232.34
784.83	232.25
785.16	232.18
785.48	232.14
785.80	232.08
786.12	232.04
786.45	232.01
786.77	231.96
787.09	231.92
787.42	231.83
787.74	231.74
788.06	231.67
788.38	231.66
788.71	231.58
789.03	231.56
789.35	231.56
789.67	231.50
789.99	231.45
790.32	231.35
790.64	231.35
790.96	231.36
791.28	231.30
791.61	231.26
791.93	231.25
792.25	231.22
792.57	231.25
792.89	231.22
793.21	231.19
793.54	231.14
793.86	231.10
794.18	231.05
794.50	231.05
794.82	231.02
795.14	230.98
795.47	231.00
795.79	230.97
796.11	230.92
796.43	230.89
796.75	230.86
797.07	230.89
797.39	230.84
797.71	230.77
798.04	230.70
798.36	230.67
798.68	230.63
799.00	230.60
799.32	230.54
799.64	230.50
799.96	230.47
800.28	230.48
800.60	230.46
800.92	230.45
801.24	230.43
801.56	230.43
801.89	230.38
802.21	230.32
802.53	230.25
802.85	230.25
803.17	230.25
803.49	230.24
803.81	230.19
804.13	230.13
804.45	230.05
804.77	230.04
805.09	229.99
805.41	229.95
805.73	229.90
806.05	229.84
806.37	229.80
806.69	229.76
807.01	229.71
807.33	229.65
807.65	229.56
807.97	229.56
808.28	229.49
808.60	229.46
808.92	229.44
809.24	229.49
809.56	229.46
809.88	229.42
810.20	229.34
810.52	229.34
810.84	229.34
811.16	229.34
811.48	229.32
811.80	229.37
812.12	229.35
812.43	229.35
812.75	229.33
813.07	229.31
813.39	229.28
813.71	229.25
814.03	229.23
814.35	229.24
814.67	229.16
814.98	229.13
815.30	229.11
815.62	229.08
815.94	229.00
816.26	229.00
816.58	228.92
816.89	228.93
817.21	228.87
817.53	228.82
817.85	228.82
818.17	228.80
818.48	228.71
818.80	228.72
819.12	228.67
819.44	228.62
819.76	228.57
820.07	228.55
820.39	228.53
820.71	228.52
821.03	228.50
821.34	228.50
821.66	228.50
821.98	228.47
822.30	228.44
822.61	228.47
822.93	228.40
823.25	228.39
823.57	228.34
823.88	228.35
824.20	228.34
824.52	228.36
824.83	228.34
825.15	228.32
825.47	228.29
825.79	228.27
826.10	228.24
826.42	228.25
826.74	228.28
827.05	228.26
827.37	228.25
827.69	228.23
828.00	228.23
828.32	228.22
828.64	228.23
828.95	228.28
829.27	228.24
829.58	228.26
829.90	228.25
830.22	228.27
830.53	228.23
830.85	228.21
831.17	228.17
831.48	228.17
831.80	228.19
832.11	228.18
832.43	228.16
832.75	228.17
833.06	228.21
833.38	228.15
833.69	228.16
834.01	228.15
834.32	228.19
834.64	228.20
834.96	228.22
835.27	228.16
835.59	228.12
835.90	228.10
836.22	228.10
836.53	228.13
836.85	228.15
837.16	228.26
837.48	228.24
837.79	228.27
838.11	228.28
838.42	228.28
838.74	228.28
839.05	228.26
839.37	228.27
839.68	228.18
840.00	228.19
840.31	228.18
840.63	228.18
840.94	228.17
841.26	228.13
841.57	228.08
841.88	228.10
842.20	228.09
842.51	228.08
842.83	228.07
843.14	228.14
843.46	228.12
843.77	228.04
844.08	228.04
844.40	228.04
844.71	228.00
845.03	227.97
845.34	227.96
845.65	227.98
845.97	227.97
846.28	228.01
846.60	228.00
846.91	227.96
847.22	227.95
847.54	227.91
847.85	227.89
848.16	227.89
848.48	227.88
848.79	227.90
849.10	227.88
849.42	227.90
849.73	227.78
850.04	227.77
850.36	227.71
850.67	227.70
850.98	227.68
851.30	227.67
851.61	227.65
851.92	227.62
852.23	227.62
852.55	227.58
852.86	227.55
853.17	227.56
853.49	227.60
853.80	227.59
854.11	227.60
854.42	227.62
854.74	227.62
855.05	227.61
855.36	227.57
855.67	227.55
855.99	227.50
856.30	227.60
856.61	227.60
856.92	227.62
857.23	227.63
857.55	227.59
857.86	227.58
858.17	227.54
858.48	227.53
858.79	227.49
859.11	227.51
859.42	227.50
859.73	227.47
860.04	227.44
860.35	227.43
860.66	227.41
860.98	227.38
861.29	227.37
861.60	227.35
861.91	227.33
862.22	227.31
862.53	227.30
862.84	227.23
863.16	227.26
863.47	227.23
863.78	227.22
864.09	227.23
864.40	227.23
864.71	227.28
865.02	227.28
865.33	227.29
865.64	227.27
865.95	227.30
866.27	227.34
866.58	227.33
866.89	227.32
867.20	227.31
867.51	227.31
867.82	227.31
868.13	227.37
868.44	227.34
868.75	227.38
869.06	227.41
869.37	227.41
869.68	227.37
869.99	227.40
870.30	227.41
870.61	227.44
870.92	227.43
871.23	227.43
871.54	227.46
871.85	227.47
872.16	227.51
872.47	227.56
872.78	227.52
873.09	227.56
873.40	227.58
873.71	227.61
874.02	227.64
874.33	227.65
874.64	227.62
874.95	227.70
875.26	227.67
875.56	227.67
875.87	227.66
876.18	227.64
876.49	227.74
876.80	227.71
877.11	227.72
877.42	227.71
877.73	227.74
878.04	227.71
878.35	227.75
878.66	227.74
878.96	227.73
879.27	227.70
879.58	227.70
879.89	227.70
880.20	227.71
880.51	227.71
880.82	227.73
881.12	227.72
881.43	227.66
881.74	227.67
882.05	227.67
882.36	227.70
882.67	227.73
882.97	227.62
883.28	227.64
883.59	227.61
883.90	227.63
884.21	227.59
884.51	227.59
884.82	227.55
885.13	227.54
885.44	227.50
885.74	227.51
886.05	227.50
886.36	227.48
886.67	227.44
886.98	227.47
887.28	227.48
887.59	227.48
887.90	227.47
888.20	227.42
888.51	227.40
888.82	227.36
889.13	227.34
889.43	227.40
889.74	227.39
890.05	227.37
890.35	227.34
890.66	227.33
890.97	227.35
891.28	227.33
891.58	227.32
891.89	227.34
892.20	227.33
892.50	227.29
892.81	227.28
893.12	227.27
893.42	227.19
893.73	227.13
894.04	227.14
894.34	227.16
894.65	227.19
894.95	227.17
895.26	227.16
895.57	227.19
895.87	227.10
896.18	227.09
896.48	227.10
896.79	227.08
897.10	227.08
897.40	227.07
897.71	227.05
898.01	227.06
898.32	227.05
898.63	227.04
898.93	227.02
899.24	227.02
899.54	227.03
899.85	227.08
900.15	227.07
900.46	227.06
900.76	227.06
901.07	227.05
901.38	227.04
901.68	227.06
901.99	227.02
902.29	227.04
902.60	227.02
902.90	227.02
903.21	227.03
903.51	227.02
903.82	227.04
904.12	227.05
904.43	227.09
904.73	227.08
905.03	227.08
905.34	227.21
905.64	227.21
905.95	227.18
906.25	227.12
906.56	227.17
906.86	227.18
907.17	227.17
907.47	227.20
907.77	227.24
908.08	227.24
908.38	227.24
908.69	227.25
908.99	227.29
909.30	227.30
909.60	227.32
909.90	227.34
910.21	227.33
910.51	227.33
910.81	227.31
911.12	227.31
911.42	227.33
911.73	227.26
912.03	227.31
912.33	227.33
912.64	227.39
912.94	227.38
913.24	227.37
913.55	227.38
913.85	227.38
914.15	227.39
914.46	227.42
914.76	227.44
915.06	227.45
915.37	227.47
915.67	227.49
915.97	227.50
916.27	227.50
916.58	227.50
916.88	227.53
917.18	227.52
917.49	227.60
917.79	227.61
918.09	227.58
918.39	227.61
918.70	227.59
919.00	227.56
919.30	227.61
919.60	227.61
919.91	227.58
920.21	227.58
920.51	227.57
920.81	227.54
921.12	227.54
921.42	227.53
921.72	227.51
922.02	227.48
922.32	227.49
922.63	227.50
922.93	227.52
923.23	227.47
923.53	227.46
923.83	227.39
924.13	227.40
924.44	227.39
924.74	227.37
925.04	227.40
925.34	227.41
925.64	227.36
925.94	227.35
926.24	227.40
926.55	227.36
926.85	227.37
927.15	227.38
927.45	227.37
927.75	227.33
928.05	227.36
928.35	227.36
928.65	227.37
928.95	227.35
929.26	227.33
929.56	227.34
929.86	227.32
930.16	227.28
930.46	227.24
930.76	227.26
931.06	227.21
931.36	227.16
931.66	227.15
931.96	227.13
932.26	227.14
932.56	227.07
932.86	227.08
933.16	227.07
933.46	227.01
933.76	226.99
934.06	227.03
934.36	227.03
934.66	227.02
934.96	226.98
935.26	226.97
935.56	226.96
935.86	226.95
936.16	226.94
936.46	226.94
936.76	226.93
937.06	226.89
937.36	226.89
937.66	226.90
937.96	226.90
938.26	226.91
938.56	226.87
938.86	226.89
939.16	226.91
939.46	226.92
939.76	226.96
940.06	226.97
940.35	226.93
940.65	226.89
940.95	226.88
941.25	226.88
941.55	226.88
941.85	226.88
942.15	226.89
942.45	226.95
942.75	226.99
943.04	226.99
943.34	227.05
943.64	227.04
943.94	227.02
944.24	227.02
944.54	227.02
944.84	227.05
945.13	227.02
945.43	227.00
945.73	227.00
946.03	227.01
946.33	227.00
946.62	227.02
946.92	227.01
947.22	227.03
947.52	227.03
947.82	227.02
948.11	227.03
948.41	227.04
948.71	226.99
949.01	226.96
949.31	226.97
949.60	226.94
949.90	226.97
950.20	227.01
950.50	227.02
950.79	227.00
951.09	227.04
951.39	227.08
951.69	227.09
951.98	227.11
952.28	227.07
952.58	227.07
952.87	227.08
953.17	227.11
953.47	227.09
953.76	227.10
954.06	227.10
954.36	227.09
954.66	227.08
954.95	227.09
955.25	227.13
955.55	227.14
955.84	227.14
956.14	227.14
956.44	227.13
956.73	227.09
957.03	227.11
957.32	227.11
957.62	227.08
957.92	227.11
958.21	227.11
958.51	227.20
958.81	227.22
959.10	227.20
959.40	227.25
959.69	227.26
959.99	227.25
960.29	227.28
960.58	227.28
960.88	227.30
961.17	227.30
961.47	227.30
961.76	227.28
962.06	227.29
962.36	227.27
962.65	227.28
962.95	227.31
963.24	227.30
963.54	227.27
963.83	227.25
964.13	227.22
964.42	227.21
964.72	227.14
965.01	227.16
965.31	227.12
965.60	227.06
965.90	227.11
966.19	227.12
966.49	227.11
966.78	227.10
967.08	227.09
967.37	227.11
967.67	227.06
967.96	227.08
968.26	227.06
968.55	227.07
968.85	227.03
969.14	227.00
969.43	226.99
969.73	227.01
970.02	226.97
970.32	226.98
970.61	226.96
970.91	226.94
971.20	226.88
971.49	226.90
971.79	226.91
972.08	226.87
972.38	226.86
972.67	226.84
972.96	226.85
973.26	226.83
973.55	226.83
973.85	226.82
974.14	226.81
974.43	226.82
974.73	226.80
975.02	226.81
975.31	226.81
975.61	226.78
975.90	226.75
976.19	226.77
976.49	226.74
976.78	226.75
977.07	226.73
977.37	226.76
977.66	226.76
977.95	226.73
978.24	226.71
978.54	226.71
978.83	226.71
979.12	226.69
979.42	226.70
979.71	226.68
980.00	226.70
980.29	226.70
980.59	226.66
980.88	226.69
981.17	226.69
981.46	226.69
981.76	226.74
982.05	226.77
982.34	226.79
982.63	226.80
982.93	226.81
983.22	226.83
983.51	226.82
983.80	226.88
984.09	226.90
984.39	226.90
984.68	226.90
984.97	226.92
985.26	226.92
985.55	226.94
985.85	226.95
986.14	226.98
986.43	227.01
986.72	227.04
987.01	227.03
987.30	227.06
987.59	227.09
987.89	227.05
988.18	227.04
988.47	227.05
988.76	227.08
989.05	227.08
989.34	227.10
989.63	227.15
989.92	227.12
990.22	227.12
990.51	227.18
990.80	227.14
991.09	227.13
991.38	227.16
991.67	227.16
991.96	227.15
992.25	227.16
992.54	227.12
992.83	227.16
993.12	227.19
993.41	227.19
993.70	227.22
993.99	227.28
994.28	227.29
994.58	227.33
994.87	227.30
995.16	227.29
995.45	227.26
995.74	227.26
996.03	227.29
996.32	227.31
996.61	227.32
996.90	227.35
997.19	227.33
997.48	227.31
997.77	227.30
998.06	227.31
998.34	227.25
998.63	227.27
998.92	227.28
999.21	227.25
999.50	227.26
999.79	227.23
1000.08	227.20
1000.37	227.23
1000.66	227.19
1000.95	227.21
1001.24	227.21
1001.53	227.20
1001.82	227.19
1002.11	227.15
1002.40	227.13
1002.68	227.14
1002.97	227.21
1003.26	227.20
1003.55	227.19
1003.84	227.16
1004.13	227.17
1004.42	227.18
1004.71	227.19
1004.99	227.12
1005.28	227.14
1005.57	227.12
1005.86	227.13
1006.15	227.12
1006.44	227.09
1006.72	227.11
1007.01	227.09
1007.30	227.09
1007.59	227.11
1007.88	227.09
1008.17	227.05
1008.45	227.02
1008.74	226.93
1009.03	226.87
1009.32	226.87
1009.60	226.90
1009.89	226.89
1010.18	226.82
1010.47	226.84
1010.76	226.79
1011.04	226.79
1011.33	226.79
1011.62	226.78
1011.91	226.78
1012.19	226.76
1012.48	226.76
1012.77	226.75
1013.05	226.80
1013.34	226.79
1013.63	226.78
1013.92	226.78
1014.20	226.77
1014.49	226.79
1014.78	226.83
1015.06	226.83
1015.35	226.85
1015.64	226.82
1015.92	226.82
1016.21	226.85
1016.50	226.83
1016.78	226.84
1017.07	226.85
1017.36	226.82
1017.64	226.80
1017.93	226.78
1018.22	226.79
1018.50	226.77
1018.79	226.76
1019.08	226.72
1019.36	226.73
1019.65	226.68
1019.93	226.73
1020.22	226.76
1020.51	226.81
1020.79	226.79
1021.08	226.90
1021.36	226.57
1021.65	226.88
1021.94	227.14
1022.22	227.04
1022.51	225.92
1022.79	227.60
1023.08	226.73
1023.36	228.16
1023.65	226.63
>>>>>End Processed Spectral Data<<<<<
