SpectraSuite Data File
++++++++++++++++++++++++++++++++++++
Date: Fri Feb 01 16:21:39 EST 2013
User: group
Dark Spectrum Present: No
Reference Spectrum Present: No
Number of Sampled Component Spectra: 1
Spectrometers: USB2E7196
Integration Time (usec): 35000 (USB2E7196)
Spectra Averaged: 100 (USB2E7196)
Boxcar Smoothing: 10 (USB2E7196)
Correct for Electrical Dark: No (USB2E7196)
Strobe/Lamp Enabled: No (USB2E7196)
Correct for Detector Non-linearity: No (USB2E7196)
Correct for Stray Light: No (USB2E7196)
Number of Pixels in Processed Spectrum: 2048
>>>>>Begin Processed Spectral Data<<<<<
339.09	0.00
339.48	214.22
339.86	215.45
340.24	217.73
340.63	218.86
341.01	221.18
341.39	220.93
341.78	222.23
342.16	223.72
342.54	224.44
342.93	212.64
343.31	223.37
343.69	223.91
344.07	224.43
344.46	224.81
344.84	225.19
345.22	225.44
345.60	225.73
345.99	225.94
346.37	226.07
346.75	226.14
347.13	226.21
347.52	226.26
347.90	226.32
348.28	226.32
348.66	226.36
349.05	226.36
349.43	226.37
349.81	226.43
350.19	226.52
350.57	226.56
350.96	226.64
351.34	226.71
351.72	226.81
352.10	226.82
352.48	226.89
352.87	226.93
353.25	226.98
353.63	226.98
354.01	227.00
354.39	227.06
354.77	227.13
355.15	227.21
355.54	227.25
355.92	227.27
356.30	227.36
356.68	227.49
357.06	227.54
357.44	227.58
357.82	227.61
358.20	227.64
358.58	227.73
358.97	227.74
359.35	227.84
359.73	227.90
360.11	228.01
360.49	228.05
360.87	228.08
361.25	228.11
361.63	228.19
362.01	228.26
362.39	228.28
362.77	228.32
363.15	228.37
363.53	228.42
363.91	228.47
364.29	228.48
364.67	228.38
365.05	228.39
365.43	228.41
365.81	228.44
366.19	228.48
366.57	228.47
366.95	228.46
367.33	228.42
367.71	228.39
368.09	228.39
368.47	228.38
368.85	228.35
369.23	228.37
369.61	228.32
369.99	228.30
370.37	228.29
370.75	228.31
371.13	228.24
371.51	228.18
371.89	228.14
372.27	228.12
372.65	228.12
373.03	228.07
373.41	228.00
373.78	227.97
374.16	227.86
374.54	227.81
374.92	227.75
375.30	227.66
375.68	227.60
376.06	227.52
376.44	227.45
376.82	227.41
377.19	227.32
377.57	227.22
377.95	227.12
378.33	227.06
378.71	226.98
379.09	226.91
379.47	226.88
379.84	226.78
380.22	226.68
380.60	226.59
380.98	226.52
381.36	226.46
381.73	226.38
382.11	226.36
382.49	226.29
382.87	226.19
383.25	226.15
383.62	226.21
384.00	226.15
384.38	226.13
384.76	226.13
385.13	226.12
385.51	226.14
385.89	226.10
386.27	226.04
386.64	225.99
387.02	225.99
387.40	225.92
387.78	225.94
388.15	225.90
388.53	225.87
388.91	225.85
389.29	225.84
389.66	225.82
390.04	225.80
390.42	225.82
390.79	225.86
391.17	225.88
391.55	225.77
391.92	225.74
392.30	225.77
392.68	225.71
393.05	225.73
393.43	225.73
393.81	225.74
394.18	225.77
394.56	225.80
394.94	225.78
395.31	225.81
395.69	225.83
396.06	225.89
396.44	225.93
396.82	225.98
397.19	226.08
397.57	226.11
397.95	226.15
398.32	226.17
398.70	226.22
399.07	226.27
399.45	226.32
399.82	226.40
400.20	226.40
400.58	226.49
400.95	226.49
401.33	226.61
401.70	226.74
402.08	226.84
402.45	226.94
402.83	227.05
403.20	227.16
403.58	227.26
403.95	227.36
404.33	227.48
404.71	227.59
405.08	227.73
405.46	227.90
405.83	228.04
406.21	228.15
406.58	228.31
406.96	228.46
407.33	228.65
407.70	228.81
408.08	229.09
408.45	229.32
408.83	229.55
409.20	229.72
409.58	229.91
409.95	230.14
410.33	230.38
410.70	230.59
411.08	230.89
411.45	231.18
411.82	231.51
412.20	231.88
412.57	232.29
412.95	232.62
413.32	233.00
413.69	233.43
414.07	233.88
414.44	234.36
414.82	234.82
415.19	235.37
415.56	235.96
415.94	236.47
416.31	237.11
416.68	237.74
417.06	238.46
417.43	239.16
417.81	239.89
418.18	240.67
418.55	241.53
418.93	242.40
419.30	243.28
419.67	244.19
420.04	245.14
420.42	246.09
420.79	247.25
421.16	248.42
421.54	249.58
421.91	250.81
422.28	252.07
422.66	253.42
423.03	254.72
423.40	256.03
423.77	257.45
424.15	258.87
424.52	260.35
424.89	262.00
425.26	263.51
425.64	264.98
426.01	266.57
426.38	268.24
426.75	269.90
427.13	271.64
427.50	273.44
427.87	275.29
428.24	277.19
428.61	278.92
428.99	280.84
429.36	282.97
429.73	285.00
430.10	286.99
430.47	289.04
430.85	291.16
431.22	293.39
431.59	295.78
431.96	298.01
432.33	300.45
432.70	302.76
433.08	305.58
433.45	308.23
433.82	310.83
434.19	313.71
434.56	316.55
434.93	319.20
435.30	321.82
435.68	324.72
436.05	327.51
436.42	330.31
436.79	332.80
437.16	335.45
437.53	338.29
437.90	341.07
438.27	343.83
438.64	346.68
439.01	349.27
439.38	351.44
439.75	353.58
440.13	356.09
440.50	358.43
440.87	360.27
441.24	362.26
441.61	364.40
441.98	365.87
442.35	367.66
442.72	369.47
443.09	371.26
443.46	372.26
443.83	372.85
444.20	373.33
444.57	374.18
444.94	374.49
445.31	374.80
445.68	375.14
446.05	375.15
446.42	374.69
446.79	374.22
447.16	373.85
447.53	373.50
447.90	372.32
448.27	371.13
448.64	369.54
449.01	368.33
449.37	366.36
449.74	364.46
450.11	362.20
450.48	359.77
450.85	357.23
451.22	355.05
451.59	353.05
451.96	351.13
452.33	348.51
452.70	346.09
453.07	343.27
453.43	340.40
453.80	337.66
454.17	335.00
454.54	332.50
454.91	329.72
455.28	327.06
455.65	324.56
456.02	322.14
456.38	320.04
456.75	317.39
457.12	315.15
457.49	312.95
457.86	310.78
458.23	308.95
458.59	306.89
458.96	304.83
459.33	302.95
459.70	301.09
460.07	299.56
460.43	297.89
460.80	296.29
461.17	294.85
461.54	293.42
461.91	291.99
462.27	290.55
462.64	289.35
463.01	288.04
463.38	286.78
463.74	285.45
464.11	284.26
464.48	283.24
464.85	282.11
465.21	281.25
465.58	280.33
465.95	279.18
466.32	278.35
466.68	277.48
467.05	276.59
467.42	275.69
467.78	274.81
468.15	273.97
468.52	273.32
468.88	272.49
469.25	271.72
469.62	271.17
469.98	270.53
470.35	269.93
470.72	269.36
471.08	268.73
471.45	268.18
471.82	267.64
472.18	267.08
472.55	266.66
472.92	266.12
473.28	265.68
473.65	265.28
474.02	264.81
474.38	264.46
474.75	264.19
475.11	263.87
475.48	263.59
475.85	263.36
476.21	263.16
476.58	262.97
476.94	262.82
477.31	262.65
477.67	262.47
478.04	262.33
478.41	262.24
478.77	262.26
479.14	262.20
479.50	262.27
479.87	262.34
480.23	262.46
480.60	262.58
480.96	262.70
481.33	262.91
481.69	263.12
482.06	263.30
482.42	263.49
482.79	263.77
483.15	264.15
483.52	264.52
483.88	264.87
484.25	265.26
484.61	265.70
484.98	266.13
485.34	266.73
485.71	267.35
486.07	268.02
486.44	268.64
486.80	269.37
487.17	270.09
487.53	270.90
487.90	271.73
488.26	272.65
488.62	273.62
488.99	274.62
489.35	275.68
489.72	276.79
490.08	277.99
490.44	279.22
490.81	280.56
491.17	281.90
491.54	283.37
491.90	284.90
492.26	286.56
492.63	288.28
492.99	290.01
493.36	291.89
493.72	293.89
494.08	295.98
494.45	298.23
494.81	300.56
495.17	302.99
495.54	305.52
495.90	308.22
496.26	311.04
496.63	314.01
496.99	317.11
497.35	320.42
497.72	323.87
498.08	327.33
498.44	331.03
498.80	334.94
499.17	338.99
499.53	343.16
499.89	347.52
500.26	352.08
500.62	356.82
500.98	361.80
501.34	366.91
501.71	372.16
502.07	377.61
502.43	383.25
502.79	389.06
503.16	395.19
503.52	401.45
503.88	407.86
504.24	414.52
504.60	421.37
504.97	428.49
505.33	435.73
505.69	443.51
506.05	451.26
506.41	459.12
506.78	467.28
507.14	475.72
507.50	484.44
507.86	493.42
508.22	502.58
508.59	511.80
508.95	521.33
509.31	531.23
509.67	541.29
510.03	551.64
510.39	562.21
510.75	573.03
511.12	584.00
511.48	595.34
511.84	606.77
512.20	618.31
512.56	630.29
512.92	642.49
513.28	654.86
513.64	667.37
514.00	680.16
514.37	693.13
514.73	706.15
515.09	719.15
515.45	732.48
515.81	746.13
516.17	760.12
516.53	774.25
516.89	788.46
517.25	802.65
517.61	816.99
517.97	831.45
518.33	845.83
518.69	860.57
519.05	875.46
519.41	890.61
519.77	906.19
520.13	921.56
520.49	936.99
520.85	952.27
521.21	967.91
521.57	984.02
521.93	999.72
522.29	1016.12
522.65	1032.34
523.01	1048.48
523.37	1064.43
523.73	1080.57
524.09	1096.55
524.45	1112.70
524.81	1129.31
525.17	1146.09
525.53	1162.95
525.89	1179.84
526.25	1196.58
526.61	1212.96
526.97	1229.65
527.33	1245.95
527.68	1262.47
528.04	1278.89
528.40	1295.49
528.76	1312.39
529.12	1329.00
529.48	1345.78
529.84	1361.82
530.20	1378.50
530.56	1395.46
530.91	1412.80
531.27	1429.44
531.63	1445.85
531.99	1462.39
532.35	1478.24
532.71	1494.01
533.07	1510.17
533.42	1525.99
533.78	1542.03
534.14	1558.22
534.50	1573.54
534.86	1589.42
535.21	1604.56
535.57	1620.28
535.93	1635.76
536.29	1650.57
536.65	1665.49
537.00	1680.23
537.36	1695.37
537.72	1709.82
538.08	1724.29
538.44	1737.95
538.79	1751.78
539.15	1765.47
539.51	1779.13
539.87	1793.28
540.22	1807.00
540.58	1820.66
540.94	1834.01
541.29	1846.78
541.65	1859.24
542.01	1872.43
542.37	1884.63
542.72	1896.85
543.08	1908.59
543.44	1920.82
543.79	1931.97
544.15	1942.90
544.51	1954.39
544.87	1965.25
545.22	1975.83
545.58	1985.91
545.94	1995.74
546.29	2005.47
546.65	2015.24
547.01	2024.54
547.36	2033.29
547.72	2041.73
548.07	2049.45
548.43	2057.43
548.79	2065.37
549.14	2072.99
549.50	2080.08
549.86	2087.79
550.21	2095.19
550.57	2102.24
550.92	2108.79
551.28	2115.73
551.64	2122.78
551.99	2129.31
552.35	2135.58
552.70	2141.72
553.06	2147.66
553.41	2153.81
553.77	2159.93
554.13	2166.00
554.48	2172.09
554.84	2177.57
555.19	2182.78
555.55	2187.97
555.90	2192.53
556.26	2197.36
556.61	2202.03
556.97	2206.20
557.32	2210.30
557.68	2214.30
558.03	2218.71
558.39	2222.45
558.74	2227.08
559.10	2230.88
559.45	2234.43
559.81	2238.62
560.16	2242.45
560.52	2245.58
560.87	2249.05
561.23	2251.61
561.58	2254.56
561.94	2257.05
562.29	2259.38
562.64	2262.07
563.00	2264.65
563.35	2267.91
563.71	2270.98
564.06	2274.22
564.42	2277.27
564.77	2279.89
565.12	2282.39
565.48	2284.41
565.83	2286.34
566.19	2287.73
566.54	2288.64
566.89	2289.84
567.25	2290.50
567.60	2291.81
567.96	2293.66
568.31	2294.55
568.66	2295.83
569.02	2296.34
569.37	2296.71
569.72	2297.68
570.08	2297.71
570.43	2297.83
570.78	2297.51
571.14	2296.12
571.49	2294.95
571.84	2294.68
572.20	2293.51
572.55	2292.44
572.90	2290.81
573.26	2289.43
573.61	2287.80
573.96	2286.21
574.31	2283.51
574.67	2280.53
575.02	2277.10
575.37	2273.74
575.72	2269.95
576.08	2266.53
576.43	2263.38
576.78	2259.65
577.13	2256.56
577.49	2253.72
577.84	2250.21
578.19	2246.54
578.54	2242.93
578.90	2238.61
579.25	2233.29
579.60	2228.40
579.95	2223.42
580.30	2218.49
580.66	2213.35
581.01	2208.50
581.36	2203.52
581.71	2199.24
582.06	2194.84
582.42	2190.29
582.77	2185.07
583.12	2180.69
583.47	2175.98
583.82	2171.09
584.17	2166.08
584.53	2160.55
584.88	2154.84
585.23	2149.32
585.58	2143.83
585.93	2138.42
586.28	2133.76
586.63	2128.55
586.98	2123.73
587.34	2118.98
587.69	2114.09
588.04	2108.94
588.39	2103.19
588.74	2096.80
589.09	2090.80
589.44	2084.02
589.79	2078.17
590.14	2072.58
590.49	2066.03
590.84	2059.82
591.19	2053.72
591.54	2047.16
591.89	2039.88
592.25	2033.22
592.60	2025.93
592.95	2018.33
593.30	2011.08
593.65	2003.51
594.00	1996.59
594.35	1989.23
594.70	1981.31
595.05	1974.23
595.40	1966.95
595.75	1959.67
596.10	1953.53
596.45	1946.67
596.80	1940.60
597.15	1933.83
597.50	1926.74
597.85	1920.19
598.19	1913.37
598.54	1906.27
598.89	1899.73
599.24	1893.90
599.59	1887.21
599.94	1881.10
600.29	1874.91
600.64	1868.33
600.99	1861.02
601.34	1854.19
601.69	1847.16
602.04	1840.35
602.39	1833.01
602.74	1826.20
603.08	1819.35
603.43	1812.61
603.78	1805.35
604.13	1798.16
604.48	1791.01
604.83	1784.16
605.18	1777.23
605.53	1769.33
605.87	1761.29
606.22	1754.05
606.57	1746.23
606.92	1738.96
607.27	1731.84
607.62	1724.87
607.96	1717.52
608.31	1710.84
608.66	1703.25
609.01	1695.80
609.36	1688.16
609.70	1680.13
610.05	1672.08
610.40	1664.47
610.75	1656.20
611.10	1648.63
611.44	1640.13
611.79	1632.05
612.14	1623.45
612.49	1614.37
612.83	1606.11
613.18	1597.98
613.53	1589.91
613.88	1581.20
614.22	1572.96
614.57	1564.27
614.92	1556.28
615.27	1548.81
615.61	1540.45
615.96	1532.43
616.31	1524.75
616.65	1517.52
617.00	1509.92
617.35	1502.18
617.70	1493.80
618.04	1485.31
618.39	1476.98
618.74	1469.47
619.08	1461.21
619.43	1453.55
619.78	1446.56
620.12	1439.30
620.47	1431.89
620.82	1423.56
621.16	1416.22
621.51	1408.55
621.85	1400.98
622.20	1392.38
622.55	1384.06
622.89	1376.25
623.24	1368.57
623.59	1361.14
623.93	1353.55
624.28	1346.34
624.62	1338.90
624.97	1331.78
625.32	1324.99
625.66	1317.92
626.01	1310.80
626.35	1303.49
626.70	1295.76
627.04	1288.10
627.39	1280.42
627.73	1273.18
628.08	1266.40
628.43	1259.07
628.77	1251.70
629.12	1244.21
629.46	1237.18
629.81	1229.77
630.15	1222.56
630.50	1215.21
630.84	1206.88
631.19	1198.87
631.53	1191.28
631.88	1183.67
632.22	1176.06
632.57	1168.82
632.91	1161.30
633.26	1153.78
633.60	1146.37
633.95	1139.28
634.29	1132.14
634.64	1125.40
634.98	1117.87
635.32	1110.67
635.67	1104.08
636.01	1097.37
636.36	1090.45
636.70	1083.90
637.05	1077.26
637.39	1070.79
637.73	1064.18
638.08	1058.42
638.42	1052.43
638.77	1046.11
639.11	1039.54
639.45	1033.13
639.80	1026.43
640.14	1020.08
640.49	1013.63
640.83	1007.26
641.17	1000.96
641.52	994.69
641.86	988.26
642.20	982.40
642.55	976.05
642.89	969.52
643.23	963.10
643.58	957.31
643.92	951.02
644.26	945.03
644.61	938.95
644.95	932.97
645.29	926.34
645.64	919.58
645.98	913.28
646.32	907.43
646.66	901.39
647.01	895.62
647.35	889.83
647.69	883.88
648.04	878.40
648.38	872.68
648.72	866.62
649.06	860.60
649.41	854.64
649.75	848.75
650.09	842.82
650.43	836.97
650.78	830.79
651.12	824.91
651.46	819.12
651.80	813.33
652.14	807.90
652.49	802.55
652.83	797.45
653.17	791.72
653.51	785.99
653.85	780.54
654.20	774.87
654.54	768.88
654.88	763.17
655.22	757.19
655.56	751.53
655.90	746.08
656.25	740.84
656.59	735.51
656.93	730.43
657.27	725.30
657.61	719.85
657.95	714.81
658.29	709.69
658.64	704.48
658.98	699.18
659.32	693.75
659.66	688.57
660.00	683.28
660.34	678.32
660.68	673.47
661.02	668.48
661.36	663.76
661.70	659.23
662.05	654.86
662.39	650.56
662.73	646.05
663.07	641.74
663.41	637.20
663.75	632.64
664.09	628.05
664.43	623.57
664.77	619.45
665.11	615.16
665.45	611.03
665.79	606.89
666.13	602.78
666.47	598.68
666.81	594.46
667.15	590.32
667.49	586.30
667.83	582.38
668.17	578.43
668.51	574.33
668.85	570.29
669.19	566.42
669.53	562.55
669.87	558.61
670.21	554.82
670.55	551.18
670.89	547.79
671.23	544.29
671.57	540.83
671.91	537.23
672.25	533.70
672.58	530.15
672.92	526.69
673.26	523.46
673.60	520.22
673.94	517.13
674.28	514.18
674.62	511.30
674.96	508.22
675.30	505.25
675.64	502.26
675.97	499.51
676.31	496.66
676.65	493.76
676.99	491.04
677.33	488.23
677.67	485.38
678.01	482.32
678.34	479.37
678.68	476.48
679.02	473.70
679.36	470.93
679.70	468.23
680.04	465.50
680.37	462.65
680.71	459.91
681.05	457.27
681.39	454.53
681.73	451.88
682.06	449.38
682.40	446.84
682.74	444.31
683.08	441.77
683.42	439.18
683.75	436.68
684.09	434.16
684.43	431.63
684.77	429.20
685.10	426.88
685.44	424.57
685.78	422.29
686.12	420.05
686.45	417.80
686.79	415.48
687.13	413.27
687.46	411.07
687.80	408.92
688.14	406.73
688.48	404.70
688.81	402.41
689.15	400.25
689.49	398.09
689.82	395.98
690.16	393.88
690.50	391.95
690.83	389.99
691.17	388.02
691.51	386.12
691.84	384.25
692.18	382.32
692.52	380.32
692.85	378.36
693.19	376.47
693.52	374.65
693.86	372.87
694.20	371.11
694.53	369.36
694.87	367.52
695.21	365.73
695.54	363.93
695.88	362.24
696.21	360.51
696.55	358.85
696.88	357.18
697.22	355.55
697.56	353.91
697.89	352.27
698.23	350.66
698.56	349.06
698.90	347.48
699.23	345.84
699.57	344.35
699.90	342.83
700.24	341.29
700.58	339.73
700.91	338.18
701.25	336.74
701.58	335.38
701.92	334.03
702.25	332.61
702.59	331.21
702.92	329.87
703.26	328.58
703.59	327.29
703.93	326.12
704.26	324.90
704.60	323.58
704.93	322.33
705.26	321.10
705.60	319.91
705.93	318.76
706.27	317.70
706.60	316.59
706.94	315.49
707.27	314.37
707.61	313.31
707.94	312.29
708.27	311.19
708.61	310.08
708.94	309.08
709.28	308.15
709.61	307.17
709.94	306.25
710.28	305.21
710.61	304.24
710.95	303.19
711.28	302.27
711.61	301.34
711.95	300.42
712.28	299.45
712.61	298.50
712.95	297.56
713.28	296.69
713.61	295.81
713.95	294.91
714.28	294.07
714.61	293.18
714.95	292.33
715.28	291.44
715.61	290.59
715.95	289.67
716.28	288.76
716.61	287.96
716.95	287.15
717.28	286.44
717.61	285.66
717.94	284.90
718.28	284.07
718.61	283.36
718.94	282.65
719.27	282.01
719.61	281.36
719.94	280.72
720.27	279.99
720.60	279.31
720.94	278.68
721.27	278.07
721.60	277.50
721.93	276.96
722.27	276.46
722.60	275.92
722.93	275.39
723.26	274.90
723.59	274.33
723.93	273.74
724.26	273.18
724.59	272.61
724.92	272.10
725.25	271.57
725.59	271.02
725.92	270.49
726.25	269.93
726.58	269.46
726.91	268.98
727.24	268.49
727.57	268.03
727.91	267.53
728.24	267.05
728.57	266.56
728.90	266.07
729.23	265.52
729.56	265.10
729.89	264.63
730.22	264.11
730.55	263.61
730.89	263.16
731.22	262.71
731.55	262.28
731.88	261.84
732.21	261.47
732.54	261.03
732.87	260.64
733.20	260.26
733.53	259.84
733.86	259.46
734.19	259.10
734.52	258.72
734.85	258.41
735.18	257.99
735.51	257.65
735.84	257.28
736.17	256.99
736.50	256.58
736.83	256.36
737.16	256.03
737.49	255.74
737.82	255.42
738.15	255.06
738.48	254.77
738.81	254.42
739.14	254.09
739.47	253.78
739.80	253.46
740.13	253.18
740.46	252.86
740.79	252.52
741.12	252.20
741.45	251.89
741.78	251.57
742.11	251.28
742.44	250.91
742.77	250.61
743.10	250.28
743.43	250.00
743.75	249.60
744.08	249.48
744.41	249.18
744.74	248.90
745.07	248.65
745.40	248.38
745.73	248.15
746.06	247.87
746.39	247.61
746.71	247.33
747.04	247.04
747.37	246.81
747.70	246.58
748.03	246.33
748.36	246.09
748.68	245.86
749.01	245.64
749.34	245.47
749.67	245.27
750.00	245.06
750.33	244.89
750.65	244.67
750.98	244.31
751.31	244.09
751.64	243.87
751.97	243.71
752.29	243.47
752.62	243.22
752.95	243.03
753.28	242.80
753.60	242.63
753.93	242.44
754.26	242.21
754.59	241.96
754.91	241.75
755.24	241.55
755.57	241.33
755.90	241.13
756.22	240.90
756.55	240.71
756.88	240.50
757.20	240.24
757.53	240.03
757.86	239.86
758.19	239.74
758.51	239.57
758.84	239.32
759.17	239.15
759.49	238.99
759.82	238.82
760.15	238.69
760.47	238.50
760.80	238.34
761.13	238.22
761.45	238.09
761.78	237.94
762.11	237.82
762.43	237.66
762.76	237.52
763.08	237.40
763.41	237.25
763.74	237.13
764.06	237.02
764.39	236.87
764.71	236.73
765.04	236.55
765.37	236.43
765.69	236.32
766.02	236.23
766.34	236.07
766.67	235.93
767.00	235.82
767.32	235.76
767.65	235.71
767.97	235.58
768.30	235.46
768.62	235.36
768.95	235.22
769.27	235.13
769.60	235.06
769.92	234.94
770.25	234.85
770.57	234.73
770.90	234.63
771.22	234.55
771.55	234.49
771.87	234.44
772.20	234.34
772.52	234.34
772.85	234.36
773.17	234.29
773.50	234.25
773.82	234.17
774.15	234.02
774.47	233.85
774.80	233.75
775.12	233.66
775.45	233.58
775.77	233.50
776.09	233.43
776.42	233.34
776.74	233.29
777.07	233.19
777.39	233.11
777.72	233.03
778.04	232.95
778.36	232.86
778.69	232.79
779.01	232.76
779.33	232.60
779.66	232.43
779.98	232.39
780.31	232.30
780.63	232.27
780.95	232.25
781.28	232.20
781.60	232.15
781.92	232.08
782.25	232.02
782.57	231.94
782.89	231.87
783.22	231.81
783.54	231.74
783.86	231.70
784.19	231.64
784.51	231.57
784.83	231.54
785.16	231.46
785.48	231.39
785.80	231.31
786.12	231.24
786.45	231.17
786.77	231.11
787.09	231.03
787.42	230.92
787.74	230.86
788.06	230.84
788.38	230.76
788.71	230.72
789.03	230.66
789.35	230.63
789.67	230.56
789.99	230.52
790.32	230.46
790.64	230.41
790.96	230.45
791.28	230.41
791.61	230.32
791.93	230.28
792.25	230.23
792.57	230.24
792.89	230.17
793.21	230.13
793.54	230.06
793.86	230.01
794.18	230.00
794.50	229.93
794.82	229.86
795.14	229.83
795.47	229.82
795.79	229.78
796.11	229.75
796.43	229.72
796.75	229.65
797.07	229.62
797.39	229.56
797.71	229.44
798.04	229.41
798.36	229.41
798.68	229.37
799.00	229.33
799.32	229.26
799.64	229.27
799.96	229.23
800.28	229.23
800.60	229.20
800.92	229.15
801.24	229.11
801.56	229.07
801.89	229.06
802.21	229.00
802.53	228.97
802.85	228.94
803.17	228.98
803.49	228.94
803.81	228.88
804.13	228.89
804.45	228.85
804.77	228.83
805.09	228.78
805.41	228.74
805.73	228.72
806.05	228.67
806.37	228.64
806.69	228.60
807.01	228.58
807.33	228.53
807.65	228.51
807.97	228.56
808.28	228.56
808.60	228.53
808.92	228.51
809.24	228.54
809.56	228.51
809.88	228.46
810.20	228.46
810.52	228.45
810.84	228.40
811.16	228.38
811.48	228.37
811.80	228.40
812.12	228.39
812.43	228.41
812.75	228.37
813.07	228.33
813.39	228.33
813.71	228.31
814.03	228.34
814.35	228.33
814.67	228.28
814.98	228.25
815.30	228.24
815.62	228.22
815.94	228.14
816.26	228.18
816.58	228.15
816.89	228.16
817.21	228.13
817.53	228.13
817.85	228.15
818.17	228.11
818.48	228.08
818.80	228.08
819.12	228.03
819.44	228.03
819.76	228.00
820.07	227.98
820.39	227.99
820.71	227.98
821.03	227.96
821.34	227.92
821.66	227.90
821.98	227.91
822.30	227.90
822.61	227.94
822.93	227.88
823.25	227.84
823.57	227.78
823.88	227.82
824.20	227.77
824.52	227.75
824.83	227.76
825.15	227.72
825.47	227.72
825.79	227.71
826.10	227.71
826.42	227.70
826.74	227.68
827.05	227.65
827.37	227.61
827.69	227.60
828.00	227.59
828.32	227.59
828.64	227.55
828.95	227.59
829.27	227.56
829.58	227.54
829.90	227.54
830.22	227.56
830.53	227.49
830.85	227.49
831.17	227.45
831.48	227.43
831.80	227.43
832.11	227.40
832.43	227.37
832.75	227.34
833.06	227.40
833.38	227.37
833.69	227.34
834.01	227.34
834.32	227.32
834.64	227.28
834.96	227.24
835.27	227.22
835.59	227.16
835.90	227.13
836.22	227.10
836.53	227.09
836.85	227.04
837.16	227.11
837.48	227.09
837.79	227.13
838.11	227.11
838.42	227.09
838.74	227.05
839.05	227.07
839.37	227.04
839.68	226.96
840.00	226.96
840.31	226.98
840.63	226.93
840.94	226.92
841.26	226.90
841.57	226.91
841.88	226.92
842.20	226.91
842.51	226.86
842.83	226.85
843.14	226.92
843.46	226.91
843.77	226.88
844.08	226.87
844.40	226.82
844.71	226.83
845.03	226.81
845.34	226.81
845.65	226.79
845.97	226.80
846.28	226.82
846.60	226.80
846.91	226.76
847.22	226.78
847.54	226.78
847.85	226.80
848.16	226.78
848.48	226.74
848.79	226.79
849.10	226.84
849.42	226.87
849.73	226.78
850.04	226.78
850.36	226.73
850.67	226.74
850.98	226.74
851.30	226.75
851.61	226.71
851.92	226.70
852.23	226.73
852.55	226.72
852.86	226.67
853.17	226.67
853.49	226.70
853.80	226.73
854.11	226.71
854.42	226.74
854.74	226.72
855.05	226.73
855.36	226.67
855.67	226.66
855.99	226.63
856.30	226.75
856.61	226.72
856.92	226.74
857.23	226.71
857.55	226.71
857.86	226.69
858.17	226.72
858.48	226.70
858.79	226.63
859.11	226.66
859.42	226.69
859.73	226.70
860.04	226.69
860.35	226.66
860.66	226.65
860.98	226.62
861.29	226.66
861.60	226.68
861.91	226.70
862.22	226.70
862.53	226.69
862.84	226.58
863.16	226.60
863.47	226.59
863.78	226.61
864.09	226.61
864.40	226.62
864.71	226.61
865.02	226.64
865.33	226.68
865.64	226.66
865.95	226.65
866.27	226.67
866.58	226.66
866.89	226.68
867.20	226.68
867.51	226.70
867.82	226.70
868.13	226.71
868.44	226.69
868.75	226.67
869.06	226.69
869.37	226.71
869.68	226.70
869.99	226.70
870.30	226.70
870.61	226.71
870.92	226.66
871.23	226.66
871.54	226.65
871.85	226.65
872.16	226.64
872.47	226.66
872.78	226.63
873.09	226.65
873.40	226.63
873.71	226.66
874.02	226.62
874.33	226.60
874.64	226.55
874.95	226.53
875.26	226.51
875.56	226.50
875.87	226.44
876.18	226.43
876.49	226.52
876.80	226.49
877.11	226.49
877.42	226.52
877.73	226.53
878.04	226.51
878.35	226.50
878.66	226.50
878.96	226.48
879.27	226.47
879.58	226.42
879.89	226.40
880.20	226.40
880.51	226.39
880.82	226.37
881.12	226.40
881.43	226.39
881.74	226.35
882.05	226.34
882.36	226.37
882.67	226.36
882.97	226.24
883.28	226.24
883.59	226.20
883.90	226.20
884.21	226.21
884.51	226.20
884.82	226.19
885.13	226.19
885.44	226.18
885.74	226.18
886.05	226.18
886.36	226.15
886.67	226.14
886.98	226.19
887.28	226.18
887.59	226.17
887.90	226.20
888.20	226.21
888.51	226.25
888.82	226.26
889.13	226.28
889.43	226.34
889.74	226.34
890.05	226.34
890.35	226.30
890.66	226.26
890.97	226.26
891.28	226.25
891.58	226.23
891.89	226.22
892.20	226.20
892.50	226.22
892.81	226.24
893.12	226.21
893.42	226.17
893.73	226.17
894.04	226.18
894.34	226.17
894.65	226.15
894.95	226.10
895.26	226.07
895.57	226.10
895.87	226.01
896.18	226.04
896.48	226.04
896.79	226.04
897.10	226.07
897.40	226.08
897.71	226.09
898.01	226.08
898.32	226.06
898.63	226.07
898.93	226.04
899.24	226.05
899.54	226.05
899.85	226.06
900.15	226.05
900.46	226.04
900.76	226.07
901.07	226.06
901.38	226.07
901.68	226.08
901.99	226.04
902.29	226.08
902.60	226.09
902.90	226.09
903.21	226.08
903.51	226.05
903.82	226.08
904.12	226.09
904.43	226.11
904.73	226.17
905.03	226.17
905.34	226.28
905.64	226.30
905.95	226.33
906.25	226.33
906.56	226.34
906.86	226.33
907.17	226.31
907.47	226.36
907.77	226.38
908.08	226.37
908.38	226.38
908.69	226.39
908.99	226.38
909.30	226.39
909.60	226.43
909.90	226.48
910.21	226.46
910.51	226.48
910.81	226.47
911.12	226.46
911.42	226.48
911.73	226.40
912.03	226.38
912.33	226.41
912.64	226.38
912.94	226.40
913.24	226.39
913.55	226.37
913.85	226.33
914.15	226.34
914.46	226.35
914.76	226.36
915.06	226.36
915.37	226.32
915.67	226.30
915.97	226.28
916.27	226.25
916.58	226.23
916.88	226.17
917.18	226.18
917.49	226.20
917.79	226.16
918.09	226.16
918.39	226.18
918.70	226.17
919.00	226.19
919.30	226.23
919.60	226.23
919.91	226.20
920.21	226.21
920.51	226.18
920.81	226.16
921.12	226.17
921.42	226.12
921.72	226.15
922.02	226.14
922.32	226.20
922.63	226.20
922.93	226.25
923.23	226.27
923.53	226.24
923.83	226.19
924.13	226.22
924.44	226.22
924.74	226.23
925.04	226.22
925.34	226.20
925.64	226.15
925.94	226.15
926.24	226.19
926.55	226.19
926.85	226.21
927.15	226.21
927.45	226.20
927.75	226.21
928.05	226.17
928.35	226.16
928.65	226.14
928.95	226.14
929.26	226.11
929.56	226.11
929.86	226.12
930.16	226.09
930.46	226.08
930.76	226.06
931.06	226.00
931.36	225.95
931.66	225.94
931.96	225.96
932.26	225.92
932.56	225.91
932.86	225.92
933.16	225.91
933.46	225.89
933.76	225.85
934.06	225.90
934.36	225.94
934.66	225.96
934.96	225.94
935.26	225.92
935.56	225.92
935.86	225.90
936.16	225.88
936.46	225.90
936.76	225.85
937.06	225.82
937.36	225.81
937.66	225.85
937.96	225.85
938.26	225.83
938.56	225.87
938.86	225.85
939.16	225.88
939.46	225.89
939.76	225.91
940.06	225.92
940.35	225.88
940.65	225.85
940.95	225.83
941.25	225.81
941.55	225.84
941.85	225.85
942.15	225.87
942.45	225.93
942.75	225.93
943.04	225.95
943.34	226.00
943.64	226.03
943.94	226.02
944.24	226.02
944.54	226.03
944.84	225.96
945.13	225.99
945.43	225.98
945.73	225.98
946.03	225.99
946.33	225.99
946.62	225.99
946.92	226.01
947.22	226.02
947.52	226.04
947.82	226.04
948.11	226.05
948.41	226.03
948.71	225.99
949.01	225.99
949.31	225.98
949.60	225.98
949.90	226.00
950.20	225.96
950.50	225.98
950.79	226.01
951.09	226.09
951.39	226.07
951.69	226.06
951.98	226.06
952.28	226.05
952.58	226.06
952.87	226.06
953.17	226.08
953.47	226.10
953.76	226.10
954.06	226.11
954.36	226.04
954.66	226.05
954.95	226.08
955.25	226.11
955.55	226.15
955.84	226.11
956.14	226.07
956.44	226.10
956.73	226.10
957.03	226.11
957.32	226.08
957.62	226.09
957.92	226.07
958.21	226.08
958.51	226.19
958.81	226.20
959.10	226.22
959.40	226.25
959.69	226.25
959.99	226.29
960.29	226.28
960.58	226.31
960.88	226.34
961.17	226.30
961.47	226.30
961.76	226.27
962.06	226.30
962.36	226.30
962.65	226.30
962.95	226.32
963.24	226.27
963.54	226.27
963.83	226.29
964.13	226.33
964.42	226.29
964.72	226.20
965.01	226.17
965.31	226.14
965.60	226.10
965.90	226.12
966.19	226.06
966.49	226.06
966.78	226.07
967.08	226.06
967.37	226.06
967.67	226.02
967.96	226.07
968.26	226.07
968.55	226.07
968.85	226.05
969.14	226.01
969.43	226.01
969.73	226.01
970.02	225.98
970.32	225.96
970.61	225.92
970.91	225.88
971.20	225.91
971.49	225.92
971.79	225.90
972.08	225.84
972.38	225.86
972.67	225.87
972.96	225.89
973.26	225.84
973.55	225.89
973.85	225.88
974.14	225.84
974.43	225.86
974.73	225.86
975.02	225.85
975.31	225.88
975.61	225.87
975.90	225.85
976.19	225.82
976.49	225.84
976.78	225.88
977.07	225.91
977.37	225.89
977.66	225.91
977.95	225.94
978.24	225.95
978.54	225.95
978.83	225.91
979.12	225.90
979.42	225.92
979.71	225.92
980.00	225.95
980.29	225.95
980.59	225.95
980.88	225.98
981.17	226.00
981.46	225.99
981.76	225.99
982.05	226.04
982.34	226.08
982.63	226.09
982.93	226.08
983.22	226.12
983.51	226.14
983.80	226.14
984.09	226.14
984.39	226.10
984.68	226.09
984.97	226.11
985.26	226.10
985.55	226.09
985.85	226.08
986.14	226.10
986.43	226.12
986.72	226.10
987.01	226.06
987.30	226.09
987.59	226.10
987.89	226.10
988.18	226.07
988.47	226.06
988.76	226.06
989.05	226.06
989.34	226.02
989.63	226.05
989.92	226.02
990.22	226.01
990.51	226.05
990.80	226.08
991.09	226.11
991.38	226.10
991.67	226.08
991.96	226.02
992.25	226.01
992.54	226.01
992.83	225.99
993.12	226.00
993.41	225.97
993.70	226.00
993.99	226.01
994.28	226.01
994.58	226.02
994.87	225.97
995.16	225.97
995.45	225.97
995.74	225.92
996.03	225.94
996.32	225.93
996.61	225.95
996.90	225.91
997.19	225.88
997.48	225.90
997.77	225.89
998.06	225.91
998.34	225.89
998.63	225.86
998.92	225.86
999.21	225.84
999.50	225.85
999.79	225.79
1000.08	225.79
1000.37	225.79
1000.66	225.77
1000.95	225.79
1001.24	225.81
1001.53	225.79
1001.82	225.77
1002.11	225.77
1002.40	225.77
1002.68	225.75
1002.97	225.83
1003.26	225.82
1003.55	225.81
1003.84	225.85
1004.13	225.87
1004.42	225.86
1004.71	225.86
1004.99	225.84
1005.28	225.87
1005.57	225.87
1005.86	225.87
1006.15	225.86
1006.44	225.85
1006.72	225.86
1007.01	225.84
1007.30	225.82
1007.59	225.85
1007.88	225.87
1008.17	225.89
1008.45	225.86
1008.74	225.86
1009.03	225.79
1009.32	225.82
1009.60	225.80
1009.89	225.77
1010.18	225.74
1010.47	225.75
1010.76	225.75
1011.04	225.78
1011.33	225.75
1011.62	225.75
1011.91	225.76
1012.19	225.75
1012.48	225.76
1012.77	225.79
1013.05	225.85
1013.34	225.88
1013.63	225.85
1013.92	225.82
1014.20	225.80
1014.49	225.82
1014.78	225.81
1015.06	225.77
1015.35	225.76
1015.64	225.78
1015.92	225.81
1016.21	225.83
1016.50	225.83
1016.78	225.88
1017.07	225.89
1017.36	225.91
1017.64	225.93
1017.93	225.97
1018.22	225.99
1018.50	226.00
1018.79	225.97
1019.08	225.93
1019.36	225.90
1019.65	225.90
1019.93	225.96
1020.22	225.96
1020.51	226.01
1020.79	226.01
1021.08	226.19
1021.36	225.81
1021.65	225.73
1021.94	226.07
1022.22	225.85
1022.51	225.40
1022.79	226.49
1023.08	225.91
1023.36	227.09
1023.65	225.85
>>>>>End Processed Spectral Data<<<<<
