SpectraSuite Data File
++++++++++++++++++++++++++++++++++++
Date: Fri Feb 01 15:54:52 EST 2013
User: group
Dark Spectrum Present: No
Reference Spectrum Present: No
Number of Sampled Component Spectra: 1
Spectrometers: USB2E7196
Integration Time (usec): 35000 (USB2E7196)
Spectra Averaged: 100 (USB2E7196)
Boxcar Smoothing: 10 (USB2E7196)
Correct for Electrical Dark: No (USB2E7196)
Strobe/Lamp Enabled: No (USB2E7196)
Correct for Detector Non-linearity: No (USB2E7196)
Correct for Stray Light: No (USB2E7196)
Number of Pixels in Processed Spectrum: 2048
>>>>>Begin Processed Spectral Data<<<<<
339.09	0.00
339.48	214.97
339.86	217.06
340.24	218.00
340.63	219.54
341.01	221.31
341.39	222.00
341.78	222.62
342.16	224.59
342.54	224.40
342.93	213.29
343.31	224.05
343.69	224.58
344.07	225.00
344.46	225.39
344.84	225.77
345.22	226.03
345.60	226.26
345.99	226.45
346.37	226.56
346.75	226.69
347.13	226.76
347.52	226.82
347.90	226.87
348.28	226.90
348.66	226.94
349.05	226.93
349.43	227.01
349.81	227.04
350.19	227.08
350.57	227.16
350.96	227.22
351.34	227.30
351.72	227.38
352.10	227.50
352.48	227.59
352.87	227.61
353.25	227.70
353.63	227.80
354.01	227.89
354.39	228.00
354.77	228.07
355.15	228.18
355.54	228.26
355.92	228.30
356.30	228.34
356.68	228.46
357.06	228.53
357.44	228.58
357.82	228.64
358.20	228.70
358.58	228.74
358.97	228.83
359.35	228.93
359.73	229.00
360.11	229.05
360.49	229.12
360.87	229.16
361.25	229.19
361.63	229.23
362.01	229.25
362.39	229.25
362.77	229.30
363.15	229.31
363.53	229.33
363.91	229.36
364.29	229.42
364.67	229.35
365.05	229.38
365.43	229.36
365.81	229.39
366.19	229.46
366.57	229.53
366.95	229.48
367.33	229.42
367.71	229.41
368.09	229.41
368.47	229.37
368.85	229.37
369.23	229.36
369.61	229.33
369.99	229.33
370.37	229.31
370.75	229.28
371.13	229.22
371.51	229.18
371.89	229.13
372.27	229.07
372.65	229.01
373.03	228.95
373.41	228.89
373.78	228.82
374.16	228.70
374.54	228.57
374.92	228.54
375.30	228.50
375.68	228.45
376.06	228.39
376.44	228.35
376.82	228.28
377.19	228.23
377.57	228.14
377.95	228.05
378.33	227.96
378.71	227.87
379.09	227.83
379.47	227.75
379.84	227.69
380.22	227.61
380.60	227.53
380.98	227.44
381.36	227.39
381.73	227.31
382.11	227.24
382.49	227.17
382.87	227.06
383.25	226.99
383.62	227.03
384.00	226.93
384.38	226.85
384.76	226.79
385.13	226.76
385.51	226.69
385.89	226.63
386.27	226.59
386.64	226.54
387.02	226.44
387.40	226.38
387.78	226.35
388.15	226.31
388.53	226.27
388.91	226.29
389.29	226.21
389.66	226.24
390.04	226.22
390.42	226.24
390.79	226.26
391.17	226.24
391.55	226.09
391.92	226.07
392.30	226.07
392.68	226.07
393.05	226.06
393.43	226.10
393.81	226.11
394.18	226.09
394.56	226.12
394.94	226.16
395.31	226.20
395.69	226.25
396.06	226.32
396.44	226.35
396.82	226.36
397.19	226.47
397.57	226.48
397.95	226.55
398.32	226.59
398.70	226.63
399.07	226.71
399.45	226.79
399.82	226.85
400.20	226.93
400.58	227.00
400.95	227.05
401.33	227.15
401.70	227.31
402.08	227.44
402.45	227.54
402.83	227.65
403.20	227.75
403.58	227.82
403.95	227.93
404.33	228.07
404.71	228.19
405.08	228.36
405.46	228.50
405.83	228.64
406.21	228.79
406.58	228.98
406.96	229.16
407.33	229.34
407.70	229.54
408.08	229.77
408.45	230.04
408.83	230.28
409.20	230.46
409.58	230.62
409.95	230.88
410.33	231.14
410.70	231.38
411.08	231.68
411.45	232.03
411.82	232.32
412.20	232.69
412.57	233.09
412.95	233.41
413.32	233.79
413.69	234.22
414.07	234.65
414.44	235.11
414.82	235.57
415.19	236.12
415.56	236.67
415.94	237.22
416.31	237.82
416.68	238.43
417.06	239.16
417.43	239.87
417.81	240.66
418.18	241.43
418.55	242.30
418.93	243.19
419.30	244.06
419.67	245.02
420.04	245.96
420.42	246.95
420.79	248.12
421.16	249.29
421.54	250.47
421.91	251.67
422.28	252.92
422.66	254.25
423.03	255.56
423.40	256.94
423.77	258.33
424.15	259.74
424.52	261.23
424.89	262.83
425.26	264.35
425.64	265.76
426.01	267.34
426.38	268.99
426.75	270.62
427.13	272.33
427.50	274.09
427.87	275.99
428.24	277.90
428.61	279.63
428.99	281.59
429.36	283.65
429.73	285.70
430.10	287.74
430.47	289.77
430.85	291.89
431.22	294.11
431.59	296.51
431.96	298.76
432.33	301.24
432.70	303.66
433.08	306.48
433.45	309.12
433.82	311.75
434.19	314.64
434.56	317.43
434.93	320.12
435.30	322.76
435.68	325.64
436.05	328.44
436.42	331.21
436.79	333.75
437.16	336.45
437.53	339.30
437.90	342.12
438.27	344.88
438.64	347.73
439.01	350.32
439.38	352.57
439.75	354.73
440.13	357.21
440.50	359.48
440.87	361.37
441.24	363.33
441.61	365.47
441.98	366.93
442.35	368.80
442.72	370.62
443.09	372.45
443.46	373.46
443.83	374.04
444.20	374.61
444.57	375.40
444.94	375.72
445.31	376.05
445.68	376.39
446.05	376.45
446.42	375.99
446.79	375.55
447.16	375.09
447.53	374.80
447.90	373.68
448.27	372.54
448.64	370.87
449.01	369.72
449.37	367.75
449.74	365.89
450.11	363.58
450.48	361.09
450.85	358.54
451.22	356.36
451.59	354.33
451.96	352.34
452.33	349.72
452.70	347.35
453.07	344.51
453.43	341.60
453.80	338.85
454.17	336.21
454.54	333.65
454.91	330.90
455.28	328.20
455.65	325.73
456.02	323.29
456.38	321.18
456.75	318.52
457.12	316.26
457.49	314.02
457.86	311.89
458.23	310.05
458.59	308.00
458.96	305.89
459.33	304.05
459.70	302.21
460.07	300.71
460.43	299.01
460.80	297.41
461.17	295.94
461.54	294.41
461.91	292.97
462.27	291.51
462.64	290.29
463.01	288.95
463.38	287.62
463.74	286.24
464.11	285.10
464.48	284.05
464.85	282.96
465.21	282.08
465.58	281.16
465.95	280.08
466.32	279.19
466.68	278.29
467.05	277.39
467.42	276.45
467.78	275.54
468.15	274.67
468.52	274.02
468.88	273.19
469.25	272.45
469.62	271.86
469.98	271.21
470.35	270.57
470.72	269.98
471.08	269.30
471.45	268.78
471.82	268.19
472.18	267.62
472.55	267.20
472.92	266.69
473.28	266.21
473.65	265.79
474.02	265.35
474.38	265.02
474.75	264.71
475.11	264.41
475.48	264.14
475.85	263.88
476.21	263.62
476.58	263.47
476.94	263.35
477.31	263.14
477.67	263.00
478.04	262.88
478.41	262.81
478.77	262.89
479.14	262.81
479.50	262.87
479.87	262.94
480.23	263.00
480.60	263.06
480.96	263.16
481.33	263.32
481.69	263.50
482.06	263.72
482.42	263.90
482.79	264.15
483.15	264.48
483.52	264.88
483.88	265.23
484.25	265.57
484.61	266.00
484.98	266.49
485.34	267.06
485.71	267.71
486.07	268.31
486.44	268.89
486.80	269.63
487.17	270.36
487.53	271.14
487.90	272.00
488.26	272.94
488.62	273.93
488.99	274.95
489.35	275.98
489.72	277.10
490.08	278.33
490.44	279.60
490.81	280.92
491.17	282.25
491.54	283.77
491.90	285.33
492.26	287.00
492.63	288.72
492.99	290.49
493.36	292.31
493.72	294.35
494.08	296.47
494.45	298.72
494.81	301.07
495.17	303.55
495.54	306.09
495.90	308.84
496.26	311.63
496.63	314.59
496.99	317.72
497.35	320.95
497.72	324.35
498.08	327.89
498.44	331.55
498.80	335.46
499.17	339.50
499.53	343.68
499.89	347.97
500.26	352.51
500.62	357.19
500.98	362.18
501.34	367.26
501.71	372.60
502.07	378.04
502.43	383.67
502.79	389.43
503.16	395.53
503.52	401.81
503.88	408.24
504.24	414.82
504.60	421.72
504.97	428.89
505.33	436.24
505.69	443.90
506.05	451.71
506.41	459.64
506.78	467.84
507.14	476.28
507.50	485.05
507.86	494.06
508.22	503.25
508.59	512.53
508.95	522.19
509.31	532.02
509.67	542.10
510.03	552.42
510.39	563.02
510.75	573.83
511.12	584.71
511.48	596.08
511.84	607.52
512.20	619.08
512.56	631.11
512.92	643.28
513.28	655.62
513.64	668.07
514.00	680.78
514.37	693.63
514.73	706.67
515.09	719.69
515.45	733.01
515.81	746.63
516.17	760.56
516.53	774.58
516.89	788.68
517.25	802.84
517.61	817.22
517.97	831.63
518.33	846.10
518.69	860.95
519.05	875.86
519.41	891.06
519.77	906.56
520.13	921.93
520.49	937.21
520.85	952.67
521.21	968.39
521.57	984.62
521.93	1000.31
522.29	1016.58
522.65	1032.83
523.01	1049.08
523.37	1065.04
523.73	1081.16
524.09	1097.20
524.45	1113.47
524.81	1130.08
525.17	1146.87
525.53	1163.83
525.89	1180.68
526.25	1197.44
526.61	1213.74
526.97	1230.52
527.33	1247.01
527.68	1263.58
528.04	1280.02
528.40	1296.53
528.76	1313.57
529.12	1330.10
529.48	1347.02
529.84	1363.08
530.20	1379.70
530.56	1396.66
530.91	1414.08
531.27	1430.92
531.63	1447.48
531.99	1463.94
532.35	1479.86
532.71	1495.74
533.07	1511.97
533.42	1527.85
533.78	1543.89
534.14	1560.29
534.50	1575.42
534.86	1591.26
535.21	1606.48
535.57	1622.38
535.93	1637.87
536.29	1652.67
536.65	1667.83
537.00	1682.59
537.36	1697.85
537.72	1712.38
538.08	1726.65
538.44	1740.29
538.79	1754.19
539.15	1767.88
539.51	1781.76
539.87	1796.08
540.22	1809.84
540.58	1823.49
540.94	1836.77
541.29	1849.50
541.65	1862.00
542.01	1875.33
542.37	1887.57
542.72	1899.88
543.08	1911.62
543.44	1923.93
543.79	1935.14
544.15	1946.05
544.51	1957.59
544.87	1968.59
545.22	1979.25
545.58	1989.50
545.94	1999.32
546.29	2009.11
546.65	2018.76
547.01	2027.94
547.36	2036.68
547.72	2045.00
548.07	2052.86
548.43	2061.00
548.79	2069.19
549.14	2076.73
549.50	2084.01
549.86	2091.58
550.21	2098.98
550.57	2106.33
550.92	2113.07
551.28	2120.06
551.64	2127.11
551.99	2133.75
552.35	2139.94
552.70	2146.21
553.06	2152.17
553.41	2158.65
553.77	2164.60
554.13	2170.77
554.48	2176.89
554.84	2182.35
555.19	2187.75
555.55	2192.94
555.90	2197.42
556.26	2202.25
556.61	2207.05
556.97	2211.41
557.32	2215.63
557.68	2219.57
558.03	2223.74
558.39	2227.34
558.74	2232.07
559.10	2235.82
559.45	2239.30
559.81	2243.68
560.16	2247.51
560.52	2250.82
560.87	2254.14
561.23	2256.87
561.58	2259.85
561.94	2262.47
562.29	2264.88
562.64	2267.56
563.00	2270.03
563.35	2273.73
563.71	2276.88
564.06	2280.01
564.42	2282.80
564.77	2285.26
565.12	2287.52
565.48	2289.53
565.83	2291.30
566.19	2292.36
566.54	2293.37
566.89	2294.53
567.25	2295.03
567.60	2296.24
567.96	2297.69
568.31	2298.48
568.66	2299.51
569.02	2299.99
569.37	2300.21
569.72	2300.88
570.08	2300.92
570.43	2301.21
570.78	2300.45
571.14	2298.85
571.49	2297.52
571.84	2297.23
572.20	2295.93
572.55	2295.08
572.90	2293.54
573.26	2292.25
573.61	2290.77
573.96	2289.03
574.31	2286.18
574.67	2283.28
575.02	2279.78
575.37	2276.47
575.72	2272.63
576.08	2269.37
576.43	2266.07
576.78	2262.47
577.13	2259.52
577.49	2256.51
577.84	2252.82
578.19	2249.15
578.54	2245.55
578.90	2241.48
579.25	2235.84
579.60	2231.06
579.95	2226.04
580.30	2221.01
580.66	2215.86
581.01	2210.77
581.36	2205.84
581.71	2201.57
582.06	2196.91
582.42	2192.31
582.77	2187.16
583.12	2182.74
583.47	2177.88
583.82	2172.78
584.17	2167.59
584.53	2162.08
584.88	2156.51
585.23	2150.78
585.58	2145.26
585.93	2139.80
586.28	2134.94
586.63	2130.01
586.98	2124.94
587.34	2120.19
587.69	2115.31
588.04	2110.00
588.39	2104.36
588.74	2097.81
589.09	2091.54
589.44	2084.83
589.79	2078.94
590.14	2073.43
590.49	2066.87
590.84	2060.68
591.19	2054.80
591.54	2048.22
591.89	2040.77
592.25	2033.84
592.60	2026.66
592.95	2018.99
593.30	2011.61
593.65	2004.06
594.00	1996.98
594.35	1989.73
594.70	1981.71
595.05	1974.41
595.40	1967.17
595.75	1959.76
596.10	1953.59
596.45	1946.95
596.80	1940.75
597.15	1934.10
597.50	1926.85
597.85	1920.23
598.19	1913.36
598.54	1906.13
598.89	1899.45
599.24	1893.50
599.59	1886.79
599.94	1880.58
600.29	1874.33
600.64	1867.78
600.99	1860.18
601.34	1853.42
601.69	1846.54
602.04	1839.64
602.39	1832.18
602.74	1825.33
603.08	1818.63
603.43	1811.99
603.78	1804.65
604.13	1797.51
604.48	1790.07
604.83	1783.16
605.18	1776.27
605.53	1768.36
605.87	1760.50
606.22	1753.38
606.57	1745.58
606.92	1738.33
607.27	1731.18
607.62	1724.25
607.96	1716.91
608.31	1710.35
608.66	1702.69
609.01	1695.16
609.36	1687.54
609.70	1679.67
610.05	1671.63
610.40	1663.81
610.75	1655.29
611.10	1647.61
611.44	1639.24
611.79	1631.32
612.14	1622.69
612.49	1613.46
612.83	1605.08
613.18	1596.96
613.53	1588.74
613.88	1580.11
614.22	1571.87
614.57	1563.18
614.92	1555.09
615.27	1547.58
615.61	1539.36
615.96	1531.31
616.31	1523.65
616.65	1516.32
617.00	1508.75
617.35	1501.17
617.70	1492.90
618.04	1484.45
618.39	1476.35
618.74	1468.66
619.08	1460.30
619.43	1452.79
619.78	1445.96
620.12	1438.79
620.47	1431.14
620.82	1423.10
621.16	1415.78
621.51	1408.06
621.85	1400.55
622.20	1392.00
622.55	1383.65
622.89	1375.81
623.24	1368.21
623.59	1360.90
623.93	1353.38
624.28	1346.15
624.62	1338.53
624.97	1331.36
625.32	1324.71
625.66	1317.64
626.01	1310.52
626.35	1303.13
626.70	1295.39
627.04	1287.64
627.39	1279.89
627.73	1272.64
628.08	1265.74
628.43	1258.31
628.77	1251.00
629.12	1243.42
629.46	1236.39
629.81	1229.00
630.15	1221.76
630.50	1214.31
630.84	1206.02
631.19	1198.15
631.53	1190.69
631.88	1183.07
632.22	1175.49
632.57	1168.14
632.91	1160.59
633.26	1153.17
633.60	1145.89
633.95	1138.79
634.29	1131.82
634.64	1125.15
634.98	1117.75
635.32	1110.48
635.67	1104.05
636.01	1097.45
636.36	1090.60
636.70	1084.00
637.05	1077.45
637.39	1070.96
637.73	1064.41
638.08	1058.55
638.42	1052.43
638.77	1045.83
639.11	1039.27
639.45	1032.84
639.80	1026.18
640.14	1019.75
640.49	1013.09
640.83	1006.71
641.17	1000.39
641.52	993.99
641.86	987.55
642.20	981.61
642.55	975.43
642.89	968.79
643.23	962.17
643.58	956.38
643.92	950.26
644.26	944.07
644.61	938.07
644.95	932.03
645.29	925.47
645.64	918.78
645.98	912.52
646.32	906.68
646.66	900.65
647.01	894.82
647.35	889.14
647.69	883.36
648.04	877.82
648.38	872.02
648.72	865.95
649.06	859.82
649.41	854.00
649.75	847.95
650.09	842.06
650.43	836.30
650.78	830.17
651.12	824.15
651.46	818.38
651.80	812.55
652.14	807.18
652.49	801.73
652.83	796.59
653.17	790.91
653.51	785.25
653.85	779.81
654.20	774.15
654.54	768.19
654.88	762.48
655.22	756.62
655.56	751.02
655.90	745.68
656.25	740.48
656.59	735.10
656.93	730.09
657.27	724.96
657.61	719.54
657.95	714.48
658.29	709.41
658.64	704.25
658.98	699.02
659.32	693.55
659.66	688.36
660.00	683.04
660.34	678.07
660.68	673.12
661.02	668.19
661.36	663.50
661.70	658.99
662.05	654.68
662.39	650.33
662.73	645.86
663.07	641.45
663.41	636.96
663.75	632.52
664.09	627.94
664.43	623.54
664.77	619.42
665.11	615.12
665.45	611.00
665.79	606.97
666.13	602.86
666.47	598.80
666.81	594.63
667.15	590.51
667.49	586.58
667.83	582.83
668.17	578.83
668.51	574.77
668.85	570.67
669.19	566.82
669.53	563.00
669.87	559.06
670.21	555.38
670.55	551.79
670.89	548.35
671.23	544.88
671.57	541.34
671.91	537.73
672.25	534.26
672.58	530.71
672.92	527.21
673.26	524.01
673.60	520.91
673.94	517.78
674.28	514.92
674.62	511.96
674.96	508.83
675.30	505.91
675.64	502.98
675.97	500.28
676.31	497.40
676.65	494.45
676.99	491.78
677.33	488.90
677.67	486.07
678.01	483.00
678.34	480.00
678.68	477.13
679.02	474.37
679.36	471.65
679.70	468.93
680.04	466.22
680.37	463.33
680.71	460.54
681.05	457.97
681.39	455.22
681.73	452.58
682.06	450.08
682.40	447.54
682.74	444.98
683.08	442.41
683.42	439.86
683.75	437.38
684.09	434.82
684.43	432.37
684.77	429.89
685.10	427.55
685.44	425.24
685.78	422.99
686.12	420.71
686.45	418.41
686.79	416.13
687.13	413.92
687.46	411.74
687.80	409.54
688.14	407.32
688.48	405.23
688.81	402.94
689.15	400.75
689.49	398.60
689.82	396.53
690.16	394.46
690.50	392.49
690.83	390.58
691.17	388.61
691.51	386.68
691.84	384.85
692.18	382.91
692.52	380.94
692.85	379.01
693.19	377.14
693.52	375.31
693.86	373.47
694.20	371.70
694.53	369.94
694.87	368.12
695.21	366.31
695.54	364.55
695.88	362.91
696.21	361.21
696.55	359.57
696.88	357.90
697.22	356.21
697.56	354.60
697.89	352.91
698.23	351.29
698.56	349.68
698.90	348.07
699.23	346.44
699.57	344.89
699.90	343.38
700.24	341.88
700.58	340.33
700.91	338.85
701.25	337.38
701.58	336.01
701.92	334.63
702.25	333.24
702.59	331.86
702.92	330.49
703.26	329.16
703.59	327.87
703.93	326.71
704.26	325.48
704.60	324.13
704.93	322.82
705.26	321.61
705.60	320.44
705.93	319.29
706.27	318.23
706.60	317.16
706.94	316.06
707.27	314.91
707.61	313.85
707.94	312.82
708.27	311.72
708.61	310.65
708.94	309.64
709.28	308.66
709.61	307.76
709.94	306.83
710.28	305.86
710.61	304.85
710.95	303.75
711.28	302.86
711.61	301.99
711.95	301.13
712.28	300.15
712.61	299.15
712.95	298.22
713.28	297.36
713.61	296.49
713.95	295.60
714.28	294.77
714.61	293.95
714.95	293.09
715.28	292.25
715.61	291.36
715.95	290.49
716.28	289.69
716.61	288.79
716.95	287.95
717.28	287.18
717.61	286.42
717.94	285.65
718.28	284.81
718.61	284.07
718.94	283.34
719.27	282.69
719.61	282.08
719.94	281.42
720.27	280.72
720.60	280.03
720.94	279.41
721.27	278.80
721.60	278.19
721.93	277.55
722.27	277.03
722.60	276.46
722.93	275.87
723.26	275.29
723.59	274.71
723.93	274.17
724.26	273.60
724.59	273.03
724.92	272.53
725.25	272.05
725.59	271.49
725.92	271.01
726.25	270.51
726.58	270.01
726.91	269.51
727.24	269.02
727.57	268.57
727.91	268.03
728.24	267.63
728.57	267.12
728.90	266.71
729.23	266.18
729.56	265.79
729.89	265.33
730.22	264.86
730.55	264.44
730.89	263.98
731.22	263.58
731.55	263.16
731.88	262.72
732.21	262.30
732.54	261.88
732.87	261.44
733.20	261.04
733.53	260.65
733.86	260.29
734.19	259.87
734.52	259.49
734.85	259.17
735.18	258.68
735.51	258.30
735.84	257.95
736.17	257.61
736.50	257.16
736.83	256.91
737.16	256.56
737.49	256.21
737.82	255.87
738.15	255.49
738.48	255.14
738.81	254.78
739.14	254.44
739.47	254.12
739.80	253.82
740.13	253.52
740.46	253.19
740.79	252.85
741.12	252.57
741.45	252.23
741.78	251.89
742.11	251.63
742.44	251.33
742.77	251.02
743.10	250.72
743.43	250.43
743.75	250.09
744.08	249.93
744.41	249.63
744.74	249.37
745.07	249.09
745.40	248.87
745.73	248.65
746.06	248.38
746.39	248.09
746.71	247.82
747.04	247.54
747.37	247.25
747.70	247.01
748.03	246.73
748.36	246.53
748.68	246.32
749.01	246.07
749.34	245.85
749.67	245.61
750.00	245.40
750.33	245.24
750.65	245.01
750.98	244.67
751.31	244.44
751.64	244.25
751.97	244.11
752.29	243.87
752.62	243.62
752.95	243.42
753.28	243.23
753.60	243.03
753.93	242.83
754.26	242.67
754.59	242.47
754.91	242.27
755.24	242.04
755.57	241.82
755.90	241.64
756.22	241.41
756.55	241.20
756.88	240.97
757.20	240.75
757.53	240.58
757.86	240.44
758.19	240.28
758.51	240.09
758.84	239.87
759.17	239.73
759.49	239.58
759.82	239.44
760.15	239.30
760.47	239.13
760.80	238.97
761.13	238.83
761.45	238.66
761.78	238.53
762.11	238.41
762.43	238.29
762.76	238.17
763.08	238.06
763.41	237.95
763.74	237.84
764.06	237.73
764.39	237.58
764.71	237.44
765.04	237.32
765.37	237.24
765.69	237.11
766.02	236.97
766.34	236.87
766.67	236.74
767.00	236.64
767.32	236.59
767.65	236.54
767.97	236.43
768.30	236.32
768.62	236.21
768.95	236.08
769.27	235.97
769.60	235.88
769.92	235.76
770.25	235.65
770.57	235.55
770.90	235.43
771.22	235.33
771.55	235.25
771.87	235.17
772.20	235.06
772.52	235.04
772.85	235.08
773.17	234.99
773.50	234.89
773.82	234.79
774.15	234.65
774.47	234.54
774.80	234.45
775.12	234.40
775.45	234.31
775.77	234.27
776.09	234.19
776.42	234.11
776.74	234.06
777.07	233.99
777.39	233.93
777.72	233.88
778.04	233.84
778.36	233.76
778.69	233.69
779.01	233.64
779.33	233.52
779.66	233.32
779.98	233.26
780.31	233.19
780.63	233.15
780.95	233.11
781.28	233.02
781.60	232.94
781.92	232.86
782.25	232.80
782.57	232.73
782.89	232.66
783.22	232.59
783.54	232.49
783.86	232.46
784.19	232.39
784.51	232.33
784.83	232.26
785.16	232.20
785.48	232.14
785.80	232.07
786.12	231.99
786.45	231.94
786.77	231.86
787.09	231.82
787.42	231.74
787.74	231.67
788.06	231.64
788.38	231.58
788.71	231.54
789.03	231.50
789.35	231.45
789.67	231.40
789.99	231.34
790.32	231.29
790.64	231.21
790.96	231.23
791.28	231.15
791.61	231.06
791.93	231.01
792.25	230.89
792.57	230.90
792.89	230.84
793.21	230.81
793.54	230.78
793.86	230.70
794.18	230.64
794.50	230.61
794.82	230.54
795.14	230.48
795.47	230.45
795.79	230.38
796.11	230.31
796.43	230.26
796.75	230.24
797.07	230.24
797.39	230.19
797.71	230.12
798.04	230.08
798.36	230.10
798.68	230.07
799.00	230.09
799.32	230.00
799.64	229.97
799.96	229.90
800.28	229.87
800.60	229.83
800.92	229.83
801.24	229.78
801.56	229.76
801.89	229.74
802.21	229.70
802.53	229.69
802.85	229.70
803.17	229.73
803.49	229.66
803.81	229.58
804.13	229.58
804.45	229.55
804.77	229.56
805.09	229.51
805.41	229.47
805.73	229.41
806.05	229.38
806.37	229.37
806.69	229.34
807.01	229.30
807.33	229.29
807.65	229.23
807.97	229.26
808.28	229.24
808.60	229.24
808.92	229.22
809.24	229.24
809.56	229.20
809.88	229.15
810.20	229.15
810.52	229.18
810.84	229.12
811.16	229.08
811.48	229.03
811.80	229.04
812.12	229.01
812.43	229.03
812.75	229.04
813.07	229.04
813.39	229.07
813.71	229.10
814.03	229.08
814.35	229.07
814.67	229.02
814.98	228.99
815.30	228.97
815.62	228.95
815.94	228.89
816.26	228.91
816.58	228.90
816.89	228.90
817.21	228.90
817.53	228.91
817.85	228.89
818.17	228.90
818.48	228.84
818.80	228.85
819.12	228.81
819.44	228.76
819.76	228.71
820.07	228.69
820.39	228.67
820.71	228.65
821.03	228.62
821.34	228.59
821.66	228.61
821.98	228.59
822.30	228.54
822.61	228.57
822.93	228.51
823.25	228.50
823.57	228.44
823.88	228.40
824.20	228.37
824.52	228.38
824.83	228.35
825.15	228.36
825.47	228.32
825.79	228.32
826.10	228.32
826.42	228.29
826.74	228.30
827.05	228.27
827.37	228.27
827.69	228.25
828.00	228.24
828.32	228.20
828.64	228.15
828.95	228.22
829.27	228.19
829.58	228.16
829.90	228.15
830.22	228.17
830.53	228.13
830.85	228.11
831.17	228.05
831.48	228.03
831.80	227.99
832.11	227.98
832.43	227.96
832.75	227.93
833.06	228.00
833.38	227.93
833.69	227.91
834.01	227.93
834.32	227.95
834.64	227.94
834.96	227.94
835.27	227.96
835.59	227.90
835.90	227.88
836.22	227.86
836.53	227.83
836.85	227.79
837.16	227.90
837.48	227.87
837.79	227.90
838.11	227.89
838.42	227.90
838.74	227.88
839.05	227.88
839.37	227.88
839.68	227.80
840.00	227.81
840.31	227.81
840.63	227.76
840.94	227.73
841.26	227.70
841.57	227.68
841.88	227.66
842.20	227.67
842.51	227.68
842.83	227.70
843.14	227.76
843.46	227.76
843.77	227.68
844.08	227.66
844.40	227.64
844.71	227.63
845.03	227.62
845.34	227.61
845.65	227.58
845.97	227.57
846.28	227.57
846.60	227.60
846.91	227.57
847.22	227.57
847.54	227.57
847.85	227.58
848.16	227.57
848.48	227.55
848.79	227.59
849.10	227.53
849.42	227.53
849.73	227.45
850.04	227.46
850.36	227.41
850.67	227.44
850.98	227.43
851.30	227.42
851.61	227.43
851.92	227.44
852.23	227.47
852.55	227.44
852.86	227.46
853.17	227.41
853.49	227.43
853.80	227.45
854.11	227.47
854.42	227.47
854.74	227.46
855.05	227.46
855.36	227.41
855.67	227.41
855.99	227.42
856.30	227.54
856.61	227.52
856.92	227.52
857.23	227.52
857.55	227.51
857.86	227.54
858.17	227.55
858.48	227.53
858.79	227.54
859.11	227.54
859.42	227.50
859.73	227.49
860.04	227.48
860.35	227.41
860.66	227.35
860.98	227.36
861.29	227.36
861.60	227.34
861.91	227.37
862.22	227.38
862.53	227.34
862.84	227.24
863.16	227.26
863.47	227.28
863.78	227.26
864.09	227.28
864.40	227.26
864.71	227.24
865.02	227.24
865.33	227.21
865.64	227.20
865.95	227.24
866.27	227.33
866.58	227.32
866.89	227.34
867.20	227.35
867.51	227.32
867.82	227.34
868.13	227.37
868.44	227.30
868.75	227.31
869.06	227.29
869.37	227.27
869.68	227.25
869.99	227.26
870.30	227.29
870.61	227.28
870.92	227.28
871.23	227.27
871.54	227.30
871.85	227.30
872.16	227.35
872.47	227.32
872.78	227.24
873.09	227.25
873.40	227.24
873.71	227.26
874.02	227.31
874.33	227.26
874.64	227.24
874.95	227.31
875.26	227.27
875.56	227.28
875.87	227.28
876.18	227.26
876.49	227.33
876.80	227.30
877.11	227.29
877.42	227.32
877.73	227.30
878.04	227.29
878.35	227.30
878.66	227.26
878.96	227.27
879.27	227.25
879.58	227.26
879.89	227.25
880.20	227.27
880.51	227.24
880.82	227.27
881.12	227.25
881.43	227.21
881.74	227.22
882.05	227.22
882.36	227.21
882.67	227.22
882.97	227.10
883.28	227.11
883.59	227.08
883.90	227.06
884.21	227.07
884.51	227.04
884.82	227.01
885.13	226.98
885.44	226.98
885.74	227.00
886.05	226.98
886.36	226.98
886.67	226.92
886.98	226.97
887.28	226.96
887.59	226.95
887.90	226.94
888.20	226.91
888.51	226.89
888.82	226.88
889.13	226.88
889.43	226.97
889.74	226.91
890.05	226.90
890.35	226.88
890.66	226.86
890.97	226.84
891.28	226.84
891.58	226.85
891.89	226.85
892.20	226.82
892.50	226.84
892.81	226.85
893.12	226.87
893.42	226.83
893.73	226.80
894.04	226.79
894.34	226.81
894.65	226.82
894.95	226.84
895.26	226.83
895.57	226.88
895.87	226.80
896.18	226.86
896.48	226.88
896.79	226.89
897.10	226.89
897.40	226.93
897.71	226.92
898.01	226.92
898.32	226.91
898.63	226.95
898.93	226.93
899.24	226.93
899.54	226.91
899.85	226.89
900.15	226.93
900.46	226.95
900.76	226.97
901.07	226.98
901.38	226.95
901.68	226.98
901.99	226.91
902.29	226.92
902.60	226.91
902.90	226.91
903.21	226.91
903.51	226.94
903.82	226.93
904.12	226.93
904.43	226.92
904.73	226.93
905.03	226.93
905.34	227.00
905.64	227.00
905.95	227.02
906.25	227.03
906.56	226.99
906.86	226.99
907.17	226.98
907.47	226.98
907.77	227.00
908.08	226.99
908.38	226.97
908.69	226.94
908.99	226.99
909.30	227.01
909.60	227.00
909.90	226.96
910.21	226.92
910.51	226.94
910.81	226.93
911.12	226.95
911.42	226.93
911.73	226.85
912.03	226.84
912.33	226.87
912.64	226.88
912.94	226.89
913.24	226.88
913.55	226.87
913.85	226.88
914.15	226.90
914.46	226.89
914.76	226.95
915.06	226.99
915.37	226.94
915.67	226.95
915.97	226.98
916.27	227.03
916.58	227.07
916.88	227.03
917.18	227.07
917.49	227.13
917.79	227.12
918.09	227.14
918.39	227.16
918.70	227.14
919.00	227.14
919.30	227.20
919.60	227.22
919.91	227.20
920.21	227.20
920.51	227.17
920.81	227.19
921.12	227.17
921.42	227.17
921.72	227.17
922.02	227.16
922.32	227.15
922.63	227.12
922.93	227.16
923.23	227.19
923.53	227.16
923.83	227.11
924.13	227.15
924.44	227.16
924.74	227.16
925.04	227.17
925.34	227.16
925.64	227.09
925.94	227.04
926.24	227.07
926.55	227.04
926.85	227.07
927.15	227.05
927.45	227.06
927.75	227.01
928.05	227.02
928.35	226.98
928.65	226.98
928.95	226.96
929.26	226.89
929.56	226.90
929.86	226.90
930.16	226.87
930.46	226.82
930.76	226.81
931.06	226.78
931.36	226.74
931.66	226.76
931.96	226.80
932.26	226.82
932.56	226.80
932.86	226.81
933.16	226.81
933.46	226.78
933.76	226.75
934.06	226.81
934.36	226.82
934.66	226.85
934.96	226.84
935.26	226.85
935.56	226.89
935.86	226.88
936.16	226.86
936.46	226.85
936.76	226.87
937.06	226.87
937.36	226.86
937.66	226.90
937.96	226.86
938.26	226.83
938.56	226.80
938.86	226.81
939.16	226.81
939.46	226.81
939.76	226.84
940.06	226.83
940.35	226.82
940.65	226.77
940.95	226.75
941.25	226.72
941.55	226.72
941.85	226.71
942.15	226.74
942.45	226.78
942.75	226.76
943.04	226.75
943.34	226.75
943.64	226.72
943.94	226.69
944.24	226.73
944.54	226.73
944.84	226.78
945.13	226.76
945.43	226.73
945.73	226.73
946.03	226.71
946.33	226.69
946.62	226.65
946.92	226.66
947.22	226.70
947.52	226.74
947.82	226.74
948.11	226.71
948.41	226.68
948.71	226.65
949.01	226.65
949.31	226.64
949.60	226.64
949.90	226.69
950.20	226.68
950.50	226.67
950.79	226.69
951.09	226.67
951.39	226.70
951.69	226.72
951.98	226.70
952.28	226.71
952.58	226.72
952.87	226.76
953.17	226.78
953.47	226.76
953.76	226.73
954.06	226.71
954.36	226.74
954.66	226.72
954.95	226.70
955.25	226.74
955.55	226.77
955.84	226.74
956.14	226.74
956.44	226.76
956.73	226.72
957.03	226.69
957.32	226.71
957.62	226.67
957.92	226.69
958.21	226.70
958.51	226.81
958.81	226.81
959.10	226.79
959.40	226.81
959.69	226.79
959.99	226.83
960.29	226.85
960.58	226.80
960.88	226.86
961.17	226.84
961.47	226.83
961.76	226.84
962.06	226.89
962.36	226.88
962.65	226.84
962.95	226.84
963.24	226.85
963.54	226.86
963.83	226.87
964.13	226.84
964.42	226.85
964.72	226.77
965.01	226.79
965.31	226.80
965.60	226.77
965.90	226.79
966.19	226.77
966.49	226.77
966.78	226.79
967.08	226.75
967.37	226.78
967.67	226.78
967.96	226.76
968.26	226.72
968.55	226.75
968.85	226.77
969.14	226.76
969.43	226.76
969.73	226.74
970.02	226.74
970.32	226.73
970.61	226.70
970.91	226.68
971.20	226.61
971.49	226.62
971.79	226.63
972.08	226.57
972.38	226.57
972.67	226.59
972.96	226.59
973.26	226.56
973.55	226.58
973.85	226.56
974.14	226.56
974.43	226.55
974.73	226.54
975.02	226.49
975.31	226.46
975.61	226.46
975.90	226.42
976.19	226.39
976.49	226.38
976.78	226.37
977.07	226.36
977.37	226.38
977.66	226.39
977.95	226.37
978.24	226.41
978.54	226.44
978.83	226.41
979.12	226.41
979.42	226.42
979.71	226.41
980.00	226.41
980.29	226.42
980.59	226.42
980.88	226.43
981.17	226.47
981.46	226.51
981.76	226.51
982.05	226.56
982.34	226.57
982.63	226.61
982.93	226.63
983.22	226.64
983.51	226.68
983.80	226.69
984.09	226.70
984.39	226.66
984.68	226.63
984.97	226.64
985.26	226.62
985.55	226.64
985.85	226.62
986.14	226.66
986.43	226.68
986.72	226.69
987.01	226.66
987.30	226.66
987.59	226.66
987.89	226.70
988.18	226.69
988.47	226.72
988.76	226.72
989.05	226.71
989.34	226.72
989.63	226.75
989.92	226.73
990.22	226.70
990.51	226.69
990.80	226.72
991.09	226.75
991.38	226.77
991.67	226.74
991.96	226.74
992.25	226.72
992.54	226.71
992.83	226.70
993.12	226.72
993.41	226.74
993.70	226.79
993.99	226.77
994.28	226.79
994.58	226.79
994.87	226.78
995.16	226.79
995.45	226.76
995.74	226.71
996.03	226.73
996.32	226.78
996.61	226.81
996.90	226.79
997.19	226.76
997.48	226.78
997.77	226.80
998.06	226.81
998.34	226.83
998.63	226.81
998.92	226.83
999.21	226.85
999.50	226.84
999.79	226.82
1000.08	226.83
1000.37	226.84
1000.66	226.84
1000.95	226.85
1001.24	226.86
1001.53	226.91
1001.82	226.92
1002.11	226.90
1002.40	226.89
1002.68	226.91
1002.97	226.97
1003.26	226.98
1003.55	226.96
1003.84	226.95
1004.13	227.00
1004.42	226.98
1004.71	226.97
1004.99	226.96
1005.28	226.95
1005.57	226.95
1005.86	226.93
1006.15	226.92
1006.44	226.88
1006.72	226.89
1007.01	226.91
1007.30	226.90
1007.59	226.88
1007.88	226.90
1008.17	226.92
1008.45	226.91
1008.74	226.85
1009.03	226.81
1009.32	226.80
1009.60	226.81
1009.89	226.81
1010.18	226.77
1010.47	226.77
1010.76	226.79
1011.04	226.77
1011.33	226.84
1011.62	226.85
1011.91	226.84
1012.19	226.84
1012.48	226.86
1012.77	226.83
1013.05	226.85
1013.34	226.87
1013.63	226.85
1013.92	226.82
1014.20	226.78
1014.49	226.75
1014.78	226.76
1015.06	226.73
1015.35	226.75
1015.64	226.73
1015.92	226.75
1016.21	226.74
1016.50	226.74
1016.78	226.76
1017.07	226.76
1017.36	226.67
1017.64	226.64
1017.93	226.63
1018.22	226.63
1018.50	226.61
1018.79	226.61
1019.08	226.54
1019.36	226.52
1019.65	226.52
1019.93	226.54
1020.22	226.57
1020.51	226.64
1020.79	226.63
1021.08	226.85
1021.36	226.31
1021.65	226.81
1021.94	226.06
1022.22	226.71
1022.51	226.56
1022.79	227.05
1023.08	226.64
1023.36	227.56
1023.65	226.13
>>>>>End Processed Spectral Data<<<<<
