SpectraSuite Data File
++++++++++++++++++++++++++++++++++++
Date: Fri Feb 01 15:32:03 EST 2013
User: group
Dark Spectrum Present: No
Reference Spectrum Present: No
Number of Sampled Component Spectra: 1
Spectrometers: USB2E7196
Integration Time (usec): 35000 (USB2E7196)
Spectra Averaged: 100 (USB2E7196)
Boxcar Smoothing: 10 (USB2E7196)
Correct for Electrical Dark: No (USB2E7196)
Strobe/Lamp Enabled: No (USB2E7196)
Correct for Detector Non-linearity: No (USB2E7196)
Correct for Stray Light: No (USB2E7196)
Number of Pixels in Processed Spectrum: 2048
>>>>>Begin Processed Spectral Data<<<<<
339.09	0.00
339.48	215.43
339.86	216.10
340.24	217.40
340.63	219.44
341.01	221.88
341.39	221.51
341.78	223.14
342.16	224.16
342.54	224.92
342.93	213.16
343.31	223.93
343.69	224.43
344.07	224.90
344.46	225.37
344.84	225.72
345.22	225.95
345.60	226.23
345.99	226.41
346.37	226.55
346.75	226.62
347.13	226.69
347.52	226.71
347.90	226.81
348.28	226.82
348.66	226.90
349.05	226.90
349.43	226.97
349.81	227.03
350.19	227.05
350.57	227.08
350.96	227.17
351.34	227.25
351.72	227.35
352.10	227.43
352.48	227.49
352.87	227.53
353.25	227.61
353.63	227.68
354.01	227.78
354.39	227.88
354.77	228.02
355.15	228.16
355.54	228.24
355.92	228.25
356.30	228.35
356.68	228.48
357.06	228.57
357.44	228.60
357.82	228.66
358.20	228.72
358.58	228.82
358.97	228.89
359.35	228.99
359.73	229.08
360.11	229.16
360.49	229.21
360.87	229.31
361.25	229.39
361.63	229.43
362.01	229.44
362.39	229.44
362.77	229.46
363.15	229.46
363.53	229.53
363.91	229.57
364.29	229.62
364.67	229.54
365.05	229.54
365.43	229.56
365.81	229.60
366.19	229.69
366.57	229.70
366.95	229.68
367.33	229.63
367.71	229.61
368.09	229.59
368.47	229.56
368.85	229.50
369.23	229.50
369.61	229.46
369.99	229.48
370.37	229.47
370.75	229.46
371.13	229.39
371.51	229.30
371.89	229.26
372.27	229.18
372.65	229.12
373.03	229.06
373.41	229.02
373.78	228.93
374.16	228.82
374.54	228.74
374.92	228.65
375.30	228.59
375.68	228.50
376.06	228.45
376.44	228.39
376.82	228.37
377.19	228.27
377.57	228.18
377.95	228.04
378.33	227.93
378.71	227.82
379.09	227.74
379.47	227.67
379.84	227.58
380.22	227.49
380.60	227.43
380.98	227.43
381.36	227.33
381.73	227.25
382.11	227.20
382.49	227.13
382.87	227.03
383.25	227.01
383.62	227.06
384.00	226.98
384.38	226.92
384.76	226.84
385.13	226.82
385.51	226.77
385.89	226.74
386.27	226.72
386.64	226.69
387.02	226.63
387.40	226.62
387.78	226.60
388.15	226.57
388.53	226.53
388.91	226.47
389.29	226.43
389.66	226.43
390.04	226.38
390.42	226.36
390.79	226.38
391.17	226.34
391.55	226.22
391.92	226.21
392.30	226.22
392.68	226.23
393.05	226.21
393.43	226.25
393.81	226.25
394.18	226.24
394.56	226.24
394.94	226.30
395.31	226.30
395.69	226.33
396.06	226.36
396.44	226.41
396.82	226.44
397.19	226.53
397.57	226.55
397.95	226.65
398.32	226.69
398.70	226.76
399.07	226.82
399.45	226.87
399.82	226.93
400.20	226.98
400.58	227.04
400.95	227.08
401.33	227.17
401.70	227.33
402.08	227.46
402.45	227.57
402.83	227.71
403.20	227.80
403.58	227.91
403.95	228.06
404.33	228.20
404.71	228.32
405.08	228.48
405.46	228.63
405.83	228.72
406.21	228.88
406.58	229.06
406.96	229.26
407.33	229.48
407.70	229.72
408.08	229.98
408.45	230.21
408.83	230.45
409.20	230.66
409.58	230.82
409.95	231.09
410.33	231.34
410.70	231.59
411.08	231.89
411.45	232.23
411.82	232.55
412.20	232.89
412.57	233.30
412.95	233.62
413.32	234.04
413.69	234.48
414.07	234.94
414.44	235.43
414.82	235.87
415.19	236.41
415.56	236.94
415.94	237.52
416.31	238.17
416.68	238.79
417.06	239.53
417.43	240.23
417.81	240.99
418.18	241.81
418.55	242.65
418.93	243.53
419.30	244.44
419.67	245.39
420.04	246.39
420.42	247.40
420.79	248.58
421.16	249.77
421.54	250.94
421.91	252.16
422.28	253.39
422.66	254.75
423.03	256.06
423.40	257.39
423.77	258.80
424.15	260.18
424.52	261.68
424.89	263.29
425.26	264.85
425.64	266.30
426.01	267.86
426.38	269.52
426.75	271.19
427.13	272.90
427.50	274.69
427.87	276.55
428.24	278.39
428.61	280.13
428.99	282.07
429.36	284.18
429.73	286.25
430.10	288.27
430.47	290.32
430.85	292.43
431.22	294.67
431.59	297.02
431.96	299.31
432.33	301.80
432.70	304.17
433.08	306.97
433.45	309.63
433.82	312.23
434.19	315.16
434.56	317.97
434.93	320.63
435.30	323.24
435.68	326.12
436.05	328.96
436.42	331.70
436.79	334.22
437.16	336.91
437.53	339.75
437.90	342.59
438.27	345.38
438.64	348.21
439.01	350.81
439.38	353.07
439.75	355.21
440.13	357.71
440.50	360.02
440.87	361.90
441.24	363.84
441.61	365.96
441.98	367.43
442.35	369.21
442.72	371.07
443.09	372.89
443.46	373.90
443.83	374.50
444.20	375.05
444.57	375.87
444.94	376.18
445.31	376.48
445.68	376.80
446.05	376.85
446.42	376.46
446.79	376.02
447.16	375.57
447.53	375.24
447.90	374.03
448.27	372.90
448.64	371.29
449.01	370.17
449.37	368.26
449.74	366.34
450.11	364.09
450.48	361.58
450.85	359.05
451.22	356.90
451.59	354.87
451.96	352.95
452.33	350.31
452.70	347.90
453.07	345.09
453.43	342.17
453.80	339.35
454.17	336.67
454.54	334.15
454.91	331.41
455.28	328.74
455.65	326.23
456.02	323.74
456.38	321.55
456.75	318.86
457.12	316.58
457.49	314.32
457.86	312.15
458.23	310.34
458.59	308.30
458.96	306.20
459.33	304.32
459.70	302.45
460.07	300.94
460.43	299.29
460.80	297.65
461.17	296.24
461.54	294.78
461.91	293.37
462.27	291.91
462.64	290.67
463.01	289.32
463.38	288.10
463.74	286.78
464.11	285.64
464.48	284.60
464.85	283.50
465.21	282.67
465.58	281.75
465.95	280.60
466.32	279.70
466.68	278.78
467.05	277.89
467.42	276.99
467.78	276.06
468.15	275.15
468.52	274.51
468.88	273.66
469.25	272.86
469.62	272.24
469.98	271.56
470.35	270.95
470.72	270.34
471.08	269.63
471.45	269.07
471.82	268.51
472.18	267.90
472.55	267.43
472.92	266.90
473.28	266.46
473.65	266.01
474.02	265.53
474.38	265.16
474.75	264.84
475.11	264.49
475.48	264.26
475.85	264.05
476.21	263.81
476.58	263.62
476.94	263.48
477.31	263.31
477.67	263.13
478.04	262.99
478.41	262.92
478.77	263.01
479.14	262.92
479.50	262.91
479.87	263.01
480.23	263.11
480.60	263.18
480.96	263.26
481.33	263.48
481.69	263.66
482.06	263.86
482.42	264.07
482.79	264.34
483.15	264.65
483.52	265.00
483.88	265.32
484.25	265.73
484.61	266.13
484.98	266.56
485.34	267.15
485.71	267.76
486.07	268.40
486.44	268.92
486.80	269.66
487.17	270.40
487.53	271.21
487.90	272.00
488.26	272.94
488.62	273.91
488.99	274.89
489.35	275.96
489.72	277.06
490.08	278.27
490.44	279.52
490.81	280.81
491.17	282.17
491.54	283.66
491.90	285.17
492.26	286.80
492.63	288.60
492.99	290.38
493.36	292.28
493.72	294.31
494.08	296.48
494.45	298.74
494.81	301.14
495.17	303.54
495.54	306.15
495.90	308.90
496.26	311.69
496.63	314.67
496.99	317.78
497.35	321.03
497.72	324.44
498.08	327.95
498.44	331.64
498.80	335.57
499.17	339.59
499.53	343.81
499.89	348.16
500.26	352.56
500.62	357.23
500.98	362.17
501.34	367.23
501.71	372.54
502.07	377.94
502.43	383.52
502.79	389.37
503.16	395.45
503.52	401.68
503.88	408.08
504.24	414.72
504.60	421.63
504.97	428.79
505.33	436.15
505.69	443.86
506.05	451.64
506.41	459.58
506.78	467.77
507.14	476.19
507.50	484.98
507.86	494.03
508.22	503.14
508.59	512.36
508.95	521.95
509.31	531.72
509.67	541.89
510.03	552.18
510.39	562.74
510.75	573.62
511.12	584.55
511.48	595.85
511.84	607.30
512.20	618.81
512.56	630.78
512.92	642.98
513.28	655.24
513.64	667.80
514.00	680.46
514.37	693.37
514.73	706.44
515.09	719.48
515.45	732.75
515.81	746.38
516.17	760.39
516.53	774.57
516.89	788.72
517.25	802.87
517.61	817.38
517.97	831.82
518.33	846.18
518.69	860.99
519.05	876.01
519.41	891.21
519.77	906.76
520.13	922.27
520.49	937.63
520.85	953.16
521.21	968.94
521.57	985.28
521.93	1001.10
522.29	1017.52
522.65	1033.74
523.01	1050.13
523.37	1066.29
523.73	1082.48
524.09	1098.44
524.45	1114.83
524.81	1131.53
525.17	1148.30
525.53	1165.29
525.89	1182.13
526.25	1198.93
526.61	1215.38
526.97	1232.28
527.33	1248.83
527.68	1265.50
528.04	1282.04
528.40	1298.63
528.76	1315.68
529.12	1332.15
529.48	1349.07
529.84	1365.14
530.20	1381.87
530.56	1398.93
530.91	1416.43
531.27	1433.20
531.63	1449.86
531.99	1466.49
532.35	1482.48
532.71	1498.38
533.07	1514.68
533.42	1530.67
533.78	1546.80
534.14	1563.13
534.50	1578.46
534.86	1594.34
535.21	1609.53
535.57	1625.57
535.93	1641.12
536.29	1655.84
536.65	1671.17
537.00	1686.03
537.36	1701.37
537.72	1716.02
538.08	1730.44
538.44	1744.29
538.79	1758.26
539.15	1772.04
539.51	1785.84
539.87	1800.21
540.22	1814.04
540.58	1827.90
540.94	1841.36
541.29	1854.36
541.65	1867.17
542.01	1880.46
542.37	1892.79
542.72	1905.28
543.08	1917.01
543.44	1929.50
543.79	1940.90
544.15	1951.82
544.51	1963.52
544.87	1974.64
545.22	1985.48
545.58	1995.65
545.94	2005.34
546.29	2015.24
546.65	2025.04
547.01	2034.41
547.36	2043.21
547.72	2051.68
548.07	2059.63
548.43	2067.73
548.79	2075.79
549.14	2083.28
549.50	2090.63
549.86	2098.58
550.21	2105.85
550.57	2113.07
550.92	2119.66
551.28	2126.67
551.64	2133.79
551.99	2140.25
552.35	2146.39
552.70	2152.60
553.06	2158.56
553.41	2164.95
553.77	2170.96
554.13	2177.15
554.48	2183.25
554.84	2188.60
555.19	2193.97
555.55	2198.92
555.90	2203.36
556.26	2208.17
556.61	2212.93
556.97	2217.09
557.32	2221.09
557.68	2225.43
558.03	2229.69
558.39	2233.38
558.74	2238.17
559.10	2242.02
559.45	2245.58
559.81	2249.71
560.16	2253.57
560.52	2256.98
560.87	2260.49
561.23	2263.17
561.58	2266.02
561.94	2268.56
562.29	2271.07
562.64	2273.79
563.00	2276.48
563.35	2280.18
563.71	2283.33
564.06	2286.45
564.42	2289.24
564.77	2291.62
565.12	2293.69
565.48	2295.44
565.83	2297.24
566.19	2298.42
566.54	2299.36
566.89	2300.60
567.25	2301.18
567.60	2302.46
567.96	2303.98
568.31	2304.67
568.66	2305.76
569.02	2306.37
569.37	2306.69
569.72	2307.47
570.08	2307.47
570.43	2307.34
570.78	2306.50
571.14	2304.88
571.49	2303.63
571.84	2303.34
572.20	2302.18
572.55	2301.16
572.90	2299.78
573.26	2298.42
573.61	2296.63
573.96	2294.62
574.31	2291.48
574.67	2288.42
575.02	2284.60
575.37	2281.16
575.72	2277.29
576.08	2273.95
576.43	2270.56
576.78	2266.73
577.13	2263.50
577.49	2260.53
577.84	2257.18
578.19	2253.42
578.54	2249.68
578.90	2245.27
579.25	2239.74
579.60	2234.81
579.95	2229.65
580.30	2224.51
580.66	2219.32
581.01	2214.42
581.36	2209.50
581.71	2205.29
582.06	2200.79
582.42	2196.26
582.77	2191.04
583.12	2186.48
583.47	2181.61
583.82	2176.49
584.17	2171.17
584.53	2165.46
584.88	2159.67
585.23	2153.77
585.58	2148.35
585.93	2142.86
586.28	2138.08
586.63	2132.95
586.98	2127.80
587.34	2123.04
587.69	2118.14
588.04	2112.77
588.39	2106.92
588.74	2100.42
589.09	2094.25
589.44	2087.46
589.79	2081.42
590.14	2075.57
590.49	2069.03
590.84	2062.52
591.19	2056.34
591.54	2049.81
591.89	2042.54
592.25	2035.66
592.60	2028.36
592.95	2020.72
593.30	2013.37
593.65	2005.65
594.00	1998.71
594.35	1991.39
594.70	1983.28
595.05	1975.98
595.40	1968.58
595.75	1961.08
596.10	1954.83
596.45	1947.95
596.80	1941.70
597.15	1934.97
597.50	1927.81
597.85	1921.24
598.19	1914.55
598.54	1907.51
598.89	1900.94
599.24	1894.99
599.59	1888.21
599.94	1881.95
600.29	1875.66
600.64	1869.09
600.99	1861.62
601.34	1854.58
601.69	1847.55
602.04	1840.60
602.39	1833.16
602.74	1826.38
603.08	1819.54
603.43	1812.77
603.78	1805.41
604.13	1798.13
604.48	1790.90
604.83	1784.09
605.18	1776.93
605.53	1768.96
605.87	1760.83
606.22	1753.47
606.57	1745.45
606.92	1738.14
607.27	1730.94
607.62	1723.89
607.96	1716.55
608.31	1709.87
608.66	1702.17
609.01	1694.62
609.36	1687.05
609.70	1679.03
610.05	1670.82
610.40	1663.10
610.75	1654.70
611.10	1647.03
611.44	1638.74
611.79	1630.71
612.14	1622.03
612.49	1613.11
612.83	1604.68
613.18	1596.58
613.53	1588.53
613.88	1579.92
614.22	1571.70
614.57	1563.13
614.92	1555.09
615.27	1547.47
615.61	1539.20
615.96	1531.27
616.31	1523.62
616.65	1516.20
617.00	1508.68
617.35	1501.18
617.70	1492.94
618.04	1484.40
618.39	1476.12
618.74	1468.42
619.08	1460.19
619.43	1452.67
619.78	1445.64
620.12	1438.50
620.47	1430.95
620.82	1422.79
621.16	1415.38
621.51	1407.70
621.85	1400.04
622.20	1391.52
622.55	1383.20
622.89	1375.40
623.24	1367.74
623.59	1360.36
623.93	1352.80
624.28	1345.56
624.62	1337.91
624.97	1330.65
625.32	1324.02
625.66	1317.14
626.01	1309.96
626.35	1302.38
626.70	1294.57
627.04	1286.82
627.39	1279.04
627.73	1271.62
628.08	1264.62
628.43	1257.46
628.77	1250.11
629.12	1242.56
629.46	1235.36
629.81	1228.00
630.15	1220.65
630.50	1213.25
630.84	1205.04
631.19	1197.24
631.53	1189.76
631.88	1182.24
632.22	1174.65
632.57	1167.35
632.91	1159.86
633.26	1152.44
633.60	1145.05
633.95	1138.08
634.29	1131.04
634.64	1124.40
634.98	1117.06
635.32	1109.91
635.67	1103.21
636.01	1096.57
636.36	1089.78
636.70	1083.29
637.05	1076.72
637.39	1070.32
637.73	1063.79
638.08	1057.97
638.42	1051.91
638.77	1045.39
639.11	1038.76
639.45	1032.36
639.80	1025.56
640.14	1019.07
640.49	1012.59
640.83	1006.38
641.17	1000.06
641.52	993.71
641.86	987.37
642.20	981.56
642.55	975.34
642.89	968.87
643.23	962.34
643.58	956.51
643.92	950.26
644.26	944.13
644.61	938.07
644.95	932.10
645.29	925.44
645.64	918.79
645.98	912.38
646.32	906.52
646.66	900.54
647.01	894.81
647.35	889.05
647.69	883.18
648.04	877.59
648.38	871.82
648.72	865.84
649.06	859.67
649.41	853.74
649.75	847.68
650.09	841.72
650.43	835.90
650.78	829.75
651.12	823.82
651.46	818.07
651.80	812.30
652.14	806.78
652.49	801.42
652.83	796.23
653.17	790.63
653.51	784.90
653.85	779.48
654.20	773.82
654.54	767.78
654.88	762.06
655.22	756.17
655.56	750.39
655.90	744.93
656.25	739.71
656.59	734.43
656.93	729.36
657.27	724.20
657.61	718.74
657.95	713.70
658.29	708.66
658.64	703.42
658.98	698.13
659.32	692.71
659.66	687.48
660.00	682.10
660.34	677.13
660.68	672.28
661.02	667.25
661.36	662.53
661.70	658.10
662.05	653.70
662.39	649.40
662.73	645.00
663.07	640.63
663.41	636.15
663.75	631.65
664.09	627.08
664.43	622.73
664.77	618.59
665.11	614.30
665.45	610.10
665.79	606.02
666.13	601.91
666.47	597.85
666.81	593.70
667.15	589.63
667.49	585.75
667.83	581.96
668.17	578.01
668.51	573.99
668.85	569.96
669.19	566.17
669.53	562.31
669.87	558.43
670.21	554.76
670.55	551.14
670.89	547.69
671.23	544.29
671.57	540.80
671.91	537.30
672.25	533.82
672.58	530.37
672.92	527.02
673.26	523.87
673.60	520.71
673.94	517.58
674.28	514.69
674.62	511.77
674.96	508.62
675.30	505.74
675.64	502.82
675.97	500.12
676.31	497.27
676.65	494.41
676.99	491.68
677.33	488.75
677.67	485.94
678.01	482.93
678.34	479.99
678.68	477.15
679.02	474.32
679.36	471.56
679.70	468.86
680.04	466.10
680.37	463.19
680.71	460.40
681.05	457.87
681.39	455.16
681.73	452.51
682.06	450.02
682.40	447.48
682.74	445.01
683.08	442.46
683.42	439.82
683.75	437.29
684.09	434.76
684.43	432.35
684.77	429.87
685.10	427.55
685.44	425.22
685.78	422.86
686.12	420.68
686.45	418.40
686.79	416.09
687.13	413.89
687.46	411.76
687.80	409.69
688.14	407.43
688.48	405.37
688.81	403.13
689.15	400.97
689.49	398.83
689.82	396.71
690.16	394.60
690.50	392.65
690.83	390.71
691.17	388.75
691.51	386.82
691.84	384.96
692.18	382.97
692.52	380.99
692.85	379.07
693.19	377.14
693.52	375.35
693.86	373.50
694.20	371.73
694.53	369.90
694.87	368.01
695.21	366.16
695.54	364.32
695.88	362.64
696.21	360.92
696.55	359.22
696.88	357.56
697.22	355.96
697.56	354.32
697.89	352.63
698.23	351.03
698.56	349.41
698.90	347.81
699.23	346.20
699.57	344.68
699.90	343.16
700.24	341.62
700.58	340.05
700.91	338.57
701.25	337.12
701.58	335.72
701.92	334.38
702.25	333.12
702.59	331.75
702.92	330.44
703.26	329.12
703.59	327.83
703.93	326.57
704.26	325.26
704.60	323.96
704.93	322.73
705.26	321.46
705.60	320.33
705.93	319.20
706.27	318.15
706.60	317.10
706.94	316.04
707.27	314.92
707.61	313.89
707.94	312.87
708.27	311.78
708.61	310.71
708.94	309.67
709.28	308.64
709.61	307.69
709.94	306.70
710.28	305.72
710.61	304.74
710.95	303.75
711.28	302.87
711.61	301.95
711.95	301.04
712.28	300.09
712.61	299.04
712.95	298.12
713.28	297.25
713.61	296.34
713.95	295.44
714.28	294.55
714.61	293.68
714.95	292.89
715.28	292.03
715.61	291.18
715.95	290.34
716.28	289.49
716.61	288.62
716.95	287.82
717.28	287.05
717.61	286.32
717.94	285.55
718.28	284.77
718.61	284.05
718.94	283.38
719.27	282.77
719.61	282.17
719.94	281.52
720.27	280.80
720.60	280.13
720.94	279.53
721.27	278.97
721.60	278.39
721.93	277.75
722.27	277.18
722.60	276.66
722.93	276.11
723.26	275.58
723.59	275.09
723.93	274.51
724.26	273.94
724.59	273.38
724.92	272.86
725.25	272.36
725.59	271.82
725.92	271.31
726.25	270.78
726.58	270.29
726.91	269.75
727.24	269.30
727.57	268.81
727.91	268.28
728.24	267.82
728.57	267.32
728.90	266.87
729.23	266.41
729.56	265.95
729.89	265.47
730.22	264.97
730.55	264.49
730.89	264.06
731.22	263.64
731.55	263.22
731.88	262.74
732.21	262.26
732.54	261.83
732.87	261.39
733.20	260.99
733.53	260.57
733.86	260.21
734.19	259.81
734.52	259.46
734.85	259.14
735.18	258.68
735.51	258.34
735.84	257.96
736.17	257.59
736.50	257.21
736.83	256.98
737.16	256.62
737.49	256.28
737.82	255.92
738.15	255.56
738.48	255.21
738.81	254.91
739.14	254.59
739.47	254.29
739.80	253.94
740.13	253.61
740.46	253.30
740.79	252.97
741.12	252.63
741.45	252.27
741.78	251.92
742.11	251.65
742.44	251.32
742.77	251.01
743.10	250.71
743.43	250.38
743.75	250.01
744.08	249.88
744.41	249.58
744.74	249.30
745.07	249.03
745.40	248.79
745.73	248.57
746.06	248.30
746.39	248.03
746.71	247.79
747.04	247.52
747.37	247.26
747.70	246.99
748.03	246.77
748.36	246.59
748.68	246.38
749.01	246.16
749.34	245.96
749.67	245.77
750.00	245.58
750.33	245.42
750.65	245.19
750.98	244.85
751.31	244.66
751.64	244.48
751.97	244.34
752.29	244.10
752.62	243.87
752.95	243.69
753.28	243.50
753.60	243.29
753.93	243.17
754.26	243.02
754.59	242.84
754.91	242.64
755.24	242.42
755.57	242.25
755.90	242.06
756.22	241.85
756.55	241.63
756.88	241.42
757.20	241.23
757.53	241.04
757.86	240.93
758.19	240.81
758.51	240.64
758.84	240.40
759.17	240.25
759.49	240.10
759.82	239.97
760.15	239.85
760.47	239.73
760.80	239.54
761.13	239.40
761.45	239.24
761.78	239.13
762.11	238.99
762.43	238.82
762.76	238.69
763.08	238.58
763.41	238.48
763.74	238.34
764.06	238.18
764.39	238.05
764.71	237.89
765.04	237.70
765.37	237.57
765.69	237.48
766.02	237.34
766.34	237.18
766.67	237.01
767.00	236.89
767.32	236.81
767.65	236.74
767.97	236.59
768.30	236.53
768.62	236.41
768.95	236.31
769.27	236.19
769.60	236.07
769.92	235.95
770.25	235.82
770.57	235.72
770.90	235.64
771.22	235.53
771.55	235.42
771.87	235.33
772.20	235.22
772.52	235.16
772.85	235.19
773.17	235.12
773.50	235.02
773.82	234.87
774.15	234.71
774.47	234.58
774.80	234.50
775.12	234.34
775.45	234.22
775.77	234.13
776.09	234.03
776.42	233.95
776.74	233.89
777.07	233.81
777.39	233.71
777.72	233.59
778.04	233.53
778.36	233.47
778.69	233.39
779.01	233.32
779.33	233.18
779.66	233.00
779.98	232.91
780.31	232.84
780.63	232.82
780.95	232.77
781.28	232.64
781.60	232.51
781.92	232.46
782.25	232.37
782.57	232.31
782.89	232.25
783.22	232.15
783.54	232.08
783.86	232.00
784.19	231.94
784.51	231.92
784.83	231.84
785.16	231.76
785.48	231.71
785.80	231.65
786.12	231.60
786.45	231.54
786.77	231.47
787.09	231.42
787.42	231.33
787.74	231.28
788.06	231.28
788.38	231.26
788.71	231.21
789.03	231.21
789.35	231.18
789.67	231.09
789.99	231.06
790.32	231.02
790.64	231.00
790.96	231.04
791.28	230.97
791.61	230.90
791.93	230.86
792.25	230.82
792.57	230.84
792.89	230.79
793.21	230.73
793.54	230.71
793.86	230.64
794.18	230.60
794.50	230.56
794.82	230.52
795.14	230.50
795.47	230.47
795.79	230.39
796.11	230.33
796.43	230.36
796.75	230.32
797.07	230.25
797.39	230.21
797.71	230.10
798.04	230.06
798.36	230.05
798.68	230.03
799.00	230.01
799.32	229.93
799.64	229.93
799.96	229.90
800.28	229.87
800.60	229.89
800.92	229.91
801.24	229.88
801.56	229.89
801.89	229.84
802.21	229.84
802.53	229.82
802.85	229.82
803.17	229.83
803.49	229.81
803.81	229.83
804.13	229.80
804.45	229.76
804.77	229.78
805.09	229.77
805.41	229.74
805.73	229.67
806.05	229.65
806.37	229.63
806.69	229.63
807.01	229.62
807.33	229.59
807.65	229.54
807.97	229.55
808.28	229.48
808.60	229.47
808.92	229.44
809.24	229.48
809.56	229.45
809.88	229.37
810.20	229.36
810.52	229.35
810.84	229.32
811.16	229.29
811.48	229.27
811.80	229.27
812.12	229.23
812.43	229.28
812.75	229.23
813.07	229.18
813.39	229.16
813.71	229.11
814.03	229.06
814.35	229.03
814.67	228.97
814.98	228.97
815.30	228.94
815.62	228.90
815.94	228.84
816.26	228.86
816.58	228.83
816.89	228.81
817.21	228.76
817.53	228.73
817.85	228.70
818.17	228.71
818.48	228.63
818.80	228.66
819.12	228.63
819.44	228.61
819.76	228.60
820.07	228.59
820.39	228.58
820.71	228.57
821.03	228.56
821.34	228.51
821.66	228.49
821.98	228.51
822.30	228.49
822.61	228.51
822.93	228.46
823.25	228.43
823.57	228.41
823.88	228.42
824.20	228.43
824.52	228.46
824.83	228.40
825.15	228.40
825.47	228.35
825.79	228.34
826.10	228.33
826.42	228.29
826.74	228.25
827.05	228.23
827.37	228.20
827.69	228.19
828.00	228.17
828.32	228.15
828.64	228.12
828.95	228.14
829.27	228.10
829.58	228.06
829.90	228.04
830.22	228.02
830.53	227.96
830.85	227.93
831.17	227.92
831.48	227.91
831.80	227.88
832.11	227.89
832.43	227.83
832.75	227.82
833.06	227.86
833.38	227.87
833.69	227.87
834.01	227.88
834.32	227.89
834.64	227.91
834.96	227.91
835.27	227.89
835.59	227.86
835.90	227.84
836.22	227.84
836.53	227.84
836.85	227.83
837.16	227.96
837.48	227.99
837.79	228.00
838.11	228.03
838.42	228.02
838.74	228.04
839.05	228.04
839.37	228.02
839.68	228.01
840.00	227.99
840.31	228.01
840.63	228.01
840.94	227.98
841.26	227.98
841.57	228.00
841.88	228.03
842.20	228.01
842.51	228.02
842.83	228.04
843.14	228.15
843.46	228.20
843.77	228.15
844.08	228.11
844.40	228.05
844.71	228.00
845.03	228.03
845.34	227.99
845.65	228.01
845.97	228.01
846.28	228.01
846.60	228.01
846.91	227.99
847.22	227.96
847.54	227.99
847.85	227.96
848.16	227.92
848.48	227.88
848.79	227.93
849.10	227.93
849.42	227.88
849.73	227.78
850.04	227.73
850.36	227.69
850.67	227.68
850.98	227.67
851.30	227.67
851.61	227.65
851.92	227.62
852.23	227.66
852.55	227.66
852.86	227.65
853.17	227.65
853.49	227.64
853.80	227.66
854.11	227.64
854.42	227.66
854.74	227.65
855.05	227.64
855.36	227.58
855.67	227.58
855.99	227.57
856.30	227.67
856.61	227.65
856.92	227.64
857.23	227.64
857.55	227.63
857.86	227.63
858.17	227.64
858.48	227.63
858.79	227.59
859.11	227.56
859.42	227.53
859.73	227.49
860.04	227.48
860.35	227.46
860.66	227.43
860.98	227.41
861.29	227.41
861.60	227.41
861.91	227.40
862.22	227.38
862.53	227.42
862.84	227.30
863.16	227.32
863.47	227.30
863.78	227.29
864.09	227.30
864.40	227.31
864.71	227.27
865.02	227.29
865.33	227.27
865.64	227.24
865.95	227.24
866.27	227.30
866.58	227.31
866.89	227.30
867.20	227.28
867.51	227.24
867.82	227.21
868.13	227.27
868.44	227.28
868.75	227.29
869.06	227.27
869.37	227.31
869.68	227.29
869.99	227.32
870.30	227.32
870.61	227.32
870.92	227.32
871.23	227.33
871.54	227.34
871.85	227.37
872.16	227.39
872.47	227.44
872.78	227.42
873.09	227.43
873.40	227.46
873.71	227.47
874.02	227.52
874.33	227.52
874.64	227.49
874.95	227.52
875.26	227.47
875.56	227.47
875.87	227.44
876.18	227.47
876.49	227.55
876.80	227.54
877.11	227.52
877.42	227.53
877.73	227.55
878.04	227.57
878.35	227.57
878.66	227.55
878.96	227.52
879.27	227.48
879.58	227.48
879.89	227.48
880.20	227.52
880.51	227.49
880.82	227.51
881.12	227.50
881.43	227.47
881.74	227.50
882.05	227.50
882.36	227.50
882.67	227.46
882.97	227.36
883.28	227.36
883.59	227.35
883.90	227.36
884.21	227.35
884.51	227.32
884.82	227.32
885.13	227.34
885.44	227.36
885.74	227.37
886.05	227.35
886.36	227.33
886.67	227.29
886.98	227.36
887.28	227.34
887.59	227.35
887.90	227.35
888.20	227.34
888.51	227.38
888.82	227.38
889.13	227.39
889.43	227.47
889.74	227.45
890.05	227.44
890.35	227.43
890.66	227.41
890.97	227.38
891.28	227.33
891.58	227.33
891.89	227.28
892.20	227.29
892.50	227.28
892.81	227.26
893.12	227.21
893.42	227.11
893.73	227.10
894.04	227.07
894.34	227.08
894.65	227.03
894.95	226.96
895.26	226.96
895.57	226.97
895.87	226.87
896.18	226.89
896.48	226.89
896.79	226.86
897.10	226.87
897.40	226.89
897.71	226.91
898.01	226.89
898.32	226.89
898.63	226.89
898.93	226.85
899.24	226.86
899.54	226.87
899.85	226.88
900.15	226.89
900.46	226.87
900.76	226.86
901.07	226.84
901.38	226.90
901.68	226.88
901.99	226.86
902.29	226.82
902.60	226.80
902.90	226.79
903.21	226.76
903.51	226.72
903.82	226.72
904.12	226.71
904.43	226.71
904.73	226.73
905.03	226.70
905.34	226.82
905.64	226.82
905.95	226.83
906.25	226.81
906.56	226.81
906.86	226.81
907.17	226.81
907.47	226.83
907.77	226.79
908.08	226.81
908.38	226.77
908.69	226.80
908.99	226.83
909.30	226.88
909.60	226.91
909.90	226.93
910.21	226.91
910.51	226.90
910.81	226.91
911.12	226.90
911.42	226.92
911.73	226.82
912.03	226.82
912.33	226.86
912.64	226.89
912.94	226.90
913.24	226.90
913.55	226.89
913.85	226.90
914.15	226.92
914.46	226.89
914.76	226.92
915.06	226.94
915.37	226.94
915.67	226.92
915.97	226.93
916.27	226.91
916.58	226.94
916.88	226.90
917.18	226.88
917.49	226.97
917.79	226.96
918.09	226.99
918.39	227.02
918.70	227.01
919.00	227.01
919.30	227.05
919.60	227.06
919.91	227.05
920.21	227.08
920.51	227.07
920.81	227.05
921.12	227.06
921.42	227.06
921.72	227.06
922.02	227.06
922.32	227.04
922.63	227.05
922.93	227.08
923.23	227.12
923.53	227.14
923.83	227.05
924.13	227.08
924.44	227.07
924.74	227.07
925.04	227.12
925.34	227.11
925.64	227.04
925.94	227.05
926.24	227.08
926.55	227.04
926.85	227.05
927.15	227.09
927.45	227.07
927.75	227.05
928.05	227.05
928.35	227.04
928.65	227.07
928.95	227.10
929.26	227.08
929.56	227.09
929.86	227.08
930.16	227.08
930.46	227.04
930.76	227.05
931.06	226.99
931.36	226.93
931.66	226.94
931.96	226.94
932.26	226.94
932.56	226.89
932.86	226.91
933.16	226.93
933.46	226.86
933.76	226.83
934.06	226.85
934.36	226.86
934.66	226.84
934.96	226.82
935.26	226.79
935.56	226.79
935.86	226.75
936.16	226.73
936.46	226.69
936.76	226.70
937.06	226.65
937.36	226.68
937.66	226.67
937.96	226.64
938.26	226.64
938.56	226.63
938.86	226.65
939.16	226.65
939.46	226.62
939.76	226.64
940.06	226.62
940.35	226.59
940.65	226.55
940.95	226.57
941.25	226.52
941.55	226.54
941.85	226.53
942.15	226.52
942.45	226.55
942.75	226.59
943.04	226.61
943.34	226.67
943.64	226.66
943.94	226.67
944.24	226.72
944.54	226.72
944.84	226.74
945.13	226.72
945.43	226.73
945.73	226.72
946.03	226.72
946.33	226.79
946.62	226.82
946.92	226.85
947.22	226.89
947.52	226.91
947.82	226.91
948.11	226.91
948.41	226.95
948.71	226.95
949.01	226.94
949.31	226.93
949.60	226.93
949.90	226.95
950.20	226.98
950.50	226.98
950.79	226.99
951.09	227.01
951.39	227.02
951.69	227.00
951.98	227.04
952.28	227.08
952.58	227.05
952.87	227.05
953.17	227.03
953.47	227.00
953.76	227.01
954.06	227.01
954.36	227.02
954.66	227.02
954.95	227.04
955.25	227.06
955.55	227.05
955.84	227.03
956.14	227.04
956.44	227.01
956.73	226.99
957.03	227.01
957.32	226.98
957.62	226.98
957.92	227.04
958.21	227.01
958.51	227.12
958.81	227.13
959.10	227.14
959.40	227.18
959.69	227.21
959.99	227.20
960.29	227.19
960.58	227.17
960.88	227.20
961.17	227.18
961.47	227.19
961.76	227.18
962.06	227.19
962.36	227.18
962.65	227.16
962.95	227.17
963.24	227.15
963.54	227.15
963.83	227.14
964.13	227.08
964.42	227.07
964.72	227.01
965.01	226.99
965.31	226.96
965.60	226.94
965.90	226.96
966.19	226.96
966.49	226.96
966.78	226.98
967.08	226.96
967.37	226.95
967.67	226.92
967.96	226.95
968.26	226.91
968.55	226.89
968.85	226.91
969.14	226.90
969.43	226.88
969.73	226.88
970.02	226.89
970.32	226.90
970.61	226.91
970.91	226.88
971.20	226.86
971.49	226.86
971.79	226.86
972.08	226.81
972.38	226.80
972.67	226.79
972.96	226.80
973.26	226.77
973.55	226.77
973.85	226.76
974.14	226.72
974.43	226.78
974.73	226.76
975.02	226.72
975.31	226.70
975.61	226.71
975.90	226.69
976.19	226.66
976.49	226.68
976.78	226.70
977.07	226.67
977.37	226.68
977.66	226.69
977.95	226.69
978.24	226.69
978.54	226.73
978.83	226.72
979.12	226.71
979.42	226.71
979.71	226.72
980.00	226.75
980.29	226.77
980.59	226.76
980.88	226.79
981.17	226.80
981.46	226.81
981.76	226.82
982.05	226.86
982.34	226.89
982.63	226.90
982.93	226.87
983.22	226.90
983.51	226.90
983.80	226.92
984.09	226.96
984.39	226.98
984.68	226.94
984.97	226.98
985.26	226.95
985.55	226.99
985.85	226.97
986.14	226.97
986.43	226.97
986.72	226.97
987.01	226.93
987.30	226.97
987.59	226.96
987.89	226.98
988.18	226.96
988.47	226.95
988.76	226.92
989.05	226.92
989.34	226.89
989.63	226.89
989.92	226.88
990.22	226.84
990.51	226.84
990.80	226.85
991.09	226.81
991.38	226.87
991.67	226.85
991.96	226.83
992.25	226.85
992.54	226.86
992.83	226.86
993.12	226.88
993.41	226.85
993.70	226.90
993.99	226.92
994.28	226.93
994.58	226.96
994.87	226.95
995.16	226.95
995.45	226.96
995.74	226.96
996.03	226.97
996.32	227.01
996.61	227.02
996.90	227.02
997.19	227.03
997.48	227.01
997.77	227.00
998.06	226.99
998.34	226.96
998.63	226.92
998.92	226.90
999.21	226.93
999.50	226.94
999.79	226.91
1000.08	226.89
1000.37	226.90
1000.66	226.87
1000.95	226.90
1001.24	226.91
1001.53	226.93
1001.82	226.88
1002.11	226.83
1002.40	226.81
1002.68	226.82
1002.97	226.91
1003.26	226.91
1003.55	226.89
1003.84	226.89
1004.13	226.93
1004.42	226.93
1004.71	226.94
1004.99	226.95
1005.28	226.93
1005.57	226.97
1005.86	226.92
1006.15	226.91
1006.44	226.85
1006.72	226.86
1007.01	226.85
1007.30	226.83
1007.59	226.82
1007.88	226.85
1008.17	226.86
1008.45	226.84
1008.74	226.78
1009.03	226.72
1009.32	226.73
1009.60	226.73
1009.89	226.70
1010.18	226.68
1010.47	226.67
1010.76	226.66
1011.04	226.67
1011.33	226.67
1011.62	226.64
1011.91	226.67
1012.19	226.68
1012.48	226.70
1012.77	226.69
1013.05	226.73
1013.34	226.73
1013.63	226.72
1013.92	226.75
1014.20	226.75
1014.49	226.76
1014.78	226.81
1015.06	226.76
1015.35	226.77
1015.64	226.77
1015.92	226.82
1016.21	226.84
1016.50	226.83
1016.78	226.84
1017.07	226.86
1017.36	226.84
1017.64	226.85
1017.93	226.83
1018.22	226.84
1018.50	226.84
1018.79	226.85
1019.08	226.81
1019.36	226.84
1019.65	226.82
1019.93	226.84
1020.22	226.87
1020.51	226.93
1020.79	226.91
1021.08	226.93
1021.36	226.45
1021.65	226.81
1021.94	226.72
1022.22	227.26
1022.51	226.45
1022.79	227.57
1023.08	227.17
1023.36	228.29
1023.65	226.76
>>>>>End Processed Spectral Data<<<<<
