SpectraSuite Data File
++++++++++++++++++++++++++++++++++++
Date: Fri Feb 01 17:59:16 EST 2013
User: group
Dark Spectrum Present: No
Reference Spectrum Present: No
Number of Sampled Component Spectra: 1
Spectrometers: USB2E7196
Integration Time (usec): 35000 (USB2E7196)
Spectra Averaged: 100 (USB2E7196)
Boxcar Smoothing: 10 (USB2E7196)
Correct for Electrical Dark: No (USB2E7196)
Strobe/Lamp Enabled: No (USB2E7196)
Correct for Detector Non-linearity: No (USB2E7196)
Correct for Stray Light: No (USB2E7196)
Number of Pixels in Processed Spectrum: 2048
>>>>>Begin Processed Spectral Data<<<<<
339.09	0.00
339.48	213.04
339.86	214.62
340.24	215.53
340.63	217.23
341.01	220.39
341.39	219.17
341.78	221.37
342.16	222.39
342.54	222.82
342.93	211.32
343.31	221.99
343.69	222.52
344.07	222.98
344.46	223.39
344.84	223.76
345.22	223.99
345.60	224.29
345.99	224.45
346.37	224.57
346.75	224.66
347.13	224.74
347.52	224.81
347.90	224.88
348.28	224.91
348.66	224.94
349.05	224.89
349.43	224.96
349.81	225.01
350.19	225.05
350.57	225.09
350.96	225.22
351.34	225.32
351.72	225.40
352.10	225.50
352.48	225.61
352.87	225.71
353.25	225.75
353.63	225.82
354.01	225.89
354.39	225.97
354.77	226.03
355.15	226.11
355.54	226.18
355.92	226.24
356.30	226.31
356.68	226.46
357.06	226.55
357.44	226.60
357.82	226.66
358.20	226.78
358.58	226.82
358.97	226.85
359.35	226.95
359.73	226.99
360.11	227.02
360.49	227.04
360.87	227.03
361.25	227.10
361.63	227.13
362.01	227.18
362.39	227.21
362.77	227.26
363.15	227.32
363.53	227.35
363.91	227.35
364.29	227.36
364.67	227.28
365.05	227.30
365.43	227.35
365.81	227.39
366.19	227.39
366.57	227.45
366.95	227.47
367.33	227.42
367.71	227.46
368.09	227.48
368.47	227.49
368.85	227.52
369.23	227.52
369.61	227.49
369.99	227.51
370.37	227.51
370.75	227.52
371.13	227.46
371.51	227.39
371.89	227.35
372.27	227.35
372.65	227.32
373.03	227.28
373.41	227.22
373.78	227.15
374.16	227.07
374.54	226.96
374.92	226.89
375.30	226.83
375.68	226.75
376.06	226.70
376.44	226.64
376.82	226.54
377.19	226.47
377.57	226.41
377.95	226.32
378.33	226.26
378.71	226.20
379.09	226.14
379.47	226.08
379.84	226.00
380.22	225.91
380.60	225.84
380.98	225.78
381.36	225.71
381.73	225.65
382.11	225.61
382.49	225.56
382.87	225.49
383.25	225.46
383.62	225.51
384.00	225.47
384.38	225.42
384.76	225.42
385.13	225.41
385.51	225.35
385.89	225.31
386.27	225.25
386.64	225.20
387.02	225.17
387.40	225.14
387.78	225.12
388.15	225.10
388.53	225.07
388.91	225.04
389.29	224.99
389.66	224.96
390.04	224.92
390.42	224.93
390.79	224.91
391.17	224.86
391.55	224.74
391.92	224.71
392.30	224.69
392.68	224.68
393.05	224.70
393.43	224.71
393.81	224.69
394.18	224.70
394.56	224.70
394.94	224.71
395.31	224.73
395.69	224.78
396.06	224.83
396.44	224.88
396.82	224.90
397.19	225.01
397.57	225.04
397.95	225.10
398.32	225.13
398.70	225.16
399.07	225.27
399.45	225.32
399.82	225.39
400.20	225.43
400.58	225.49
400.95	225.48
401.33	225.57
401.70	225.72
402.08	225.80
402.45	225.92
402.83	226.04
403.20	226.14
403.58	226.24
403.95	226.35
404.33	226.48
404.71	226.63
405.08	226.79
405.46	226.95
405.83	227.10
406.21	227.26
406.58	227.47
406.96	227.63
407.33	227.83
407.70	228.05
408.08	228.37
408.45	228.62
408.83	228.95
409.20	229.21
409.58	229.45
409.95	229.79
410.33	230.12
410.70	230.41
411.08	230.78
411.45	231.15
411.82	231.52
412.20	231.96
412.57	232.45
412.95	232.87
413.32	233.40
413.69	233.96
414.07	234.50
414.44	235.12
414.82	235.75
415.19	236.46
415.56	237.22
415.94	237.95
416.31	238.79
416.68	239.63
417.06	240.57
417.43	241.49
417.81	242.51
418.18	243.51
418.55	244.67
418.93	245.87
419.30	247.10
419.67	248.37
420.04	249.64
420.42	250.98
420.79	252.53
421.16	254.08
421.54	255.66
421.91	257.29
422.28	258.96
422.66	260.75
423.03	262.49
423.40	264.27
423.77	266.21
424.15	268.13
424.52	270.11
424.89	272.29
425.26	274.34
425.64	276.29
426.01	278.49
426.38	280.70
426.75	282.93
427.13	285.26
427.50	287.71
427.87	290.29
428.24	292.81
428.61	295.20
428.99	297.79
429.36	300.60
429.73	303.39
430.10	306.12
430.47	308.91
430.85	311.81
431.22	314.82
431.59	317.96
431.96	321.00
432.33	324.33
432.70	327.56
433.08	331.39
433.45	334.98
433.82	338.46
434.19	342.36
434.56	346.12
434.93	349.68
435.30	353.19
435.68	357.10
436.05	360.93
436.42	364.68
436.79	368.09
437.16	371.76
437.53	375.66
437.90	379.46
438.27	383.17
438.64	386.91
439.01	390.43
439.38	393.45
439.75	396.38
440.13	399.78
440.50	402.90
440.87	405.39
441.24	407.97
441.61	410.86
441.98	412.86
442.35	415.34
442.72	417.84
443.09	420.34
443.46	421.68
443.83	422.46
444.20	423.20
444.57	424.38
444.94	424.74
445.31	425.14
445.68	425.66
446.05	425.78
446.42	425.32
446.79	424.75
447.16	424.22
447.53	423.82
447.90	422.26
448.27	420.73
448.64	418.58
449.01	417.06
449.37	414.43
449.74	411.94
450.11	408.92
450.48	405.63
450.85	402.22
451.22	399.32
451.59	396.61
451.96	393.98
452.33	390.46
452.70	387.30
453.07	383.48
453.43	379.56
453.80	375.77
454.17	372.19
454.54	368.79
454.91	365.11
455.28	361.46
455.65	358.12
456.02	354.77
456.38	351.85
456.75	348.22
457.12	345.20
457.49	342.13
457.86	339.18
458.23	336.63
458.59	333.86
458.96	330.98
459.33	328.46
459.70	325.91
460.07	323.84
460.43	321.55
460.80	319.37
461.17	317.35
461.54	315.36
461.91	313.39
462.27	311.41
462.64	309.71
463.01	307.85
463.38	306.04
463.74	304.22
464.11	302.60
464.48	301.25
464.85	299.73
465.21	298.53
465.58	297.25
465.95	295.77
466.32	294.50
466.68	293.29
467.05	292.05
467.42	290.84
467.78	289.56
468.15	288.32
468.52	287.39
468.88	286.26
469.25	285.19
469.62	284.35
469.98	283.42
470.35	282.56
470.72	281.77
471.08	280.86
471.45	280.07
471.82	279.37
472.18	278.51
472.55	277.88
472.92	277.16
473.28	276.56
473.65	275.92
474.02	275.34
474.38	274.79
474.75	274.33
475.11	273.81
475.48	273.43
475.85	273.10
476.21	272.79
476.58	272.48
476.94	272.25
477.31	271.95
477.67	271.68
478.04	271.43
478.41	271.27
478.77	271.25
479.14	271.14
479.50	271.08
479.87	271.11
480.23	271.15
480.60	271.22
480.96	271.17
481.33	271.34
481.69	271.45
482.06	271.63
482.42	271.78
482.79	272.02
483.15	272.27
483.52	272.62
483.88	272.90
484.25	273.26
484.61	273.65
484.98	274.09
485.34	274.64
485.71	275.24
486.07	275.86
486.44	276.43
486.80	277.15
487.17	277.88
487.53	278.73
487.90	279.58
488.26	280.49
488.62	281.60
488.99	282.57
489.35	283.70
489.72	284.87
490.08	286.14
490.44	287.40
490.81	288.82
491.17	290.22
491.54	291.78
491.90	293.39
492.26	295.07
492.63	296.91
492.99	298.78
493.36	300.77
493.72	302.89
494.08	305.09
494.45	307.45
494.81	309.92
495.17	312.47
495.54	315.21
495.90	318.06
496.26	320.99
496.63	324.16
496.99	327.47
497.35	330.91
497.72	334.45
498.08	338.19
498.44	342.07
498.80	346.19
499.17	350.50
499.53	354.92
499.89	359.55
500.26	364.31
500.62	369.23
500.98	374.47
501.34	379.87
501.71	385.49
502.07	391.21
502.43	397.19
502.79	403.35
503.16	409.76
503.52	416.36
503.88	423.13
504.24	430.15
504.60	437.43
504.97	445.00
505.33	452.78
505.69	460.99
506.05	469.23
506.41	477.58
506.78	486.21
507.14	495.25
507.50	504.55
507.86	514.14
508.22	523.95
508.59	533.81
508.95	544.01
509.31	554.51
509.67	565.37
510.03	576.32
510.39	587.59
510.75	599.11
511.12	610.81
511.48	622.83
511.84	635.04
512.20	647.36
512.56	660.20
512.92	673.39
513.28	686.61
513.64	700.09
514.00	713.91
514.37	727.94
514.73	741.94
515.09	755.91
515.45	770.20
515.81	784.91
516.17	799.94
516.53	815.19
516.89	830.56
517.25	845.91
517.61	861.52
517.97	877.24
518.33	892.94
518.69	909.04
519.05	925.34
519.41	941.86
519.77	958.76
520.13	975.48
520.49	992.15
520.85	1008.98
521.21	1026.04
521.57	1043.65
521.93	1060.81
522.29	1078.70
522.65	1096.58
523.01	1114.31
523.37	1131.83
523.73	1149.51
524.09	1167.22
524.45	1185.13
524.81	1203.28
525.17	1221.73
525.53	1240.31
525.89	1258.82
526.25	1277.37
526.61	1295.49
526.97	1313.99
527.33	1332.33
527.68	1350.75
528.04	1369.09
528.40	1387.54
528.76	1406.45
529.12	1424.89
529.48	1443.67
529.84	1461.57
530.20	1480.18
530.56	1499.10
530.91	1518.50
531.27	1537.36
531.63	1555.85
531.99	1574.40
532.35	1592.31
532.71	1610.38
533.07	1628.69
533.42	1646.79
533.78	1664.84
534.14	1683.21
534.50	1700.57
534.86	1718.38
535.21	1735.68
535.57	1753.64
535.93	1771.11
536.29	1788.14
536.65	1805.42
537.00	1822.25
537.36	1839.67
537.72	1856.12
538.08	1872.83
538.44	1888.79
538.79	1904.86
539.15	1920.43
539.51	1936.42
539.87	1953.08
540.22	1968.84
540.58	1984.90
540.94	2000.28
541.29	2015.31
541.65	2030.25
542.01	2045.78
542.37	2060.46
542.72	2075.06
543.08	2089.17
543.44	2103.83
543.79	2117.11
544.15	2130.05
544.51	2143.80
544.87	2157.08
545.22	2170.24
545.58	2182.55
545.94	2194.43
546.29	2206.36
546.65	2218.61
547.01	2230.03
547.36	2240.89
547.72	2251.54
548.07	2261.52
548.43	2271.66
548.79	2281.80
549.14	2291.36
549.50	2300.61
549.86	2310.21
550.21	2319.62
550.57	2328.72
550.92	2337.24
551.28	2346.35
551.64	2355.59
551.99	2364.22
552.35	2372.31
552.70	2380.28
553.06	2388.17
553.41	2396.43
553.77	2404.27
554.13	2412.22
554.48	2420.26
554.84	2427.74
555.19	2434.74
555.55	2441.54
555.90	2447.86
556.26	2454.56
556.61	2461.00
556.97	2467.24
557.32	2473.02
557.68	2478.82
558.03	2484.78
558.39	2490.15
558.74	2496.49
559.10	2501.86
559.45	2506.89
559.81	2512.72
560.16	2518.05
560.52	2522.83
560.87	2527.71
561.23	2531.87
561.58	2535.99
561.94	2539.71
562.29	2543.12
562.64	2547.21
563.00	2551.03
563.35	2555.99
563.71	2560.40
564.06	2564.87
564.42	2568.86
564.77	2572.74
565.12	2576.21
565.48	2579.26
565.83	2582.36
566.19	2584.73
566.54	2586.59
566.89	2588.90
567.25	2590.50
567.60	2593.04
567.96	2595.79
568.31	2597.61
568.66	2599.64
569.02	2601.25
569.37	2602.53
569.72	2604.65
570.08	2605.62
570.43	2606.50
570.78	2606.53
571.14	2605.72
571.49	2604.80
571.84	2605.14
572.20	2604.60
572.55	2603.96
572.90	2602.80
573.26	2601.83
573.61	2600.45
573.96	2599.33
574.31	2596.59
574.67	2593.71
575.02	2590.07
575.37	2586.77
575.72	2583.12
576.08	2579.88
576.43	2576.49
576.78	2572.91
577.13	2569.40
577.49	2566.18
577.84	2562.90
578.19	2559.15
578.54	2555.52
578.90	2551.51
579.25	2545.56
579.60	2540.25
579.95	2535.15
580.30	2529.80
580.66	2524.35
581.01	2519.13
581.36	2513.80
581.71	2509.52
582.06	2504.87
582.42	2500.25
582.77	2494.64
583.12	2489.72
583.47	2484.79
583.82	2479.64
584.17	2473.97
584.53	2468.12
584.88	2462.14
585.23	2455.81
585.58	2449.84
585.93	2443.70
586.28	2438.40
586.63	2433.07
586.98	2427.57
587.34	2422.47
587.69	2417.17
588.04	2411.52
588.39	2405.30
588.74	2398.03
589.09	2391.19
589.44	2383.75
589.79	2376.86
590.14	2370.60
590.49	2363.18
590.84	2356.06
591.19	2349.36
591.54	2342.13
591.89	2334.03
592.25	2326.42
592.60	2318.37
592.95	2309.85
593.30	2301.59
593.65	2293.03
594.00	2284.96
594.35	2276.78
594.70	2267.42
595.05	2259.27
595.40	2250.82
595.75	2242.31
596.10	2235.32
596.45	2227.62
596.80	2220.59
597.15	2213.12
597.50	2205.25
597.85	2197.86
598.19	2190.20
598.54	2182.07
598.89	2174.45
599.24	2167.64
599.59	2160.14
599.94	2152.88
600.29	2145.70
600.64	2138.09
600.99	2129.47
601.34	2121.59
601.69	2113.41
602.04	2105.64
602.39	2097.33
602.74	2089.48
603.08	2081.63
603.43	2073.86
603.78	2065.32
604.13	2057.01
604.48	2048.73
604.83	2040.61
605.18	2032.88
605.53	2023.54
605.87	2014.26
606.22	2005.77
606.57	1996.37
606.92	1987.61
607.27	1979.27
607.62	1971.09
607.96	1962.47
608.31	1954.93
608.66	1946.11
609.01	1937.39
609.36	1928.67
609.70	1919.32
610.05	1910.04
610.40	1901.05
610.75	1891.36
611.10	1882.40
611.44	1872.33
611.79	1862.79
612.14	1852.63
612.49	1841.59
612.83	1831.76
613.18	1822.10
613.53	1812.59
613.88	1802.78
614.22	1793.08
614.57	1782.84
614.92	1773.44
615.27	1764.91
615.61	1755.13
615.96	1745.68
616.31	1736.56
616.65	1727.75
617.00	1718.70
617.35	1709.65
617.70	1699.85
618.04	1689.81
618.39	1680.15
618.74	1671.34
619.08	1661.68
619.43	1652.65
619.78	1644.54
620.12	1636.17
620.47	1627.51
620.82	1617.84
621.16	1608.89
621.51	1599.99
621.85	1591.03
622.20	1581.10
622.55	1571.11
622.89	1561.79
623.24	1552.79
623.59	1544.01
623.93	1535.16
624.28	1526.74
624.62	1517.74
624.97	1509.33
625.32	1501.36
625.66	1493.05
626.01	1484.57
626.35	1475.75
626.70	1466.68
627.04	1457.63
627.39	1448.36
627.73	1439.50
628.08	1431.42
628.43	1422.99
628.77	1414.32
629.12	1405.44
629.46	1396.88
629.81	1387.99
630.15	1379.47
630.50	1370.76
630.84	1361.32
631.19	1351.96
631.53	1343.11
631.88	1334.17
632.22	1325.31
632.57	1316.62
632.91	1307.80
633.26	1299.12
633.60	1290.45
633.95	1282.00
634.29	1273.72
634.64	1265.96
634.98	1257.31
635.32	1248.88
635.67	1241.05
636.01	1233.26
636.36	1225.39
636.70	1217.68
637.05	1210.10
637.39	1202.42
637.73	1194.85
638.08	1187.96
638.42	1180.96
638.77	1173.50
639.11	1166.01
639.45	1158.49
639.80	1150.73
640.14	1143.33
640.49	1135.76
640.83	1128.51
641.17	1121.39
641.52	1114.01
641.86	1106.40
642.20	1099.68
642.55	1092.30
642.89	1084.79
643.23	1076.99
643.58	1070.34
643.92	1063.24
644.26	1056.27
644.61	1049.27
644.95	1042.26
645.29	1034.65
645.64	1026.86
645.98	1019.38
646.32	1012.47
646.66	1005.41
647.01	998.75
647.35	992.10
647.69	985.24
648.04	978.75
648.38	972.02
648.72	965.21
649.06	958.28
649.41	951.39
649.75	944.55
650.09	937.60
650.43	931.02
650.78	923.94
651.12	917.02
651.46	910.28
651.80	903.70
652.14	897.40
652.49	891.18
652.83	885.18
653.17	878.67
653.51	872.10
653.85	865.92
654.20	859.42
654.54	852.43
654.88	845.77
655.22	838.92
655.56	832.27
655.90	825.82
656.25	819.77
656.59	813.50
656.93	807.66
657.27	801.76
657.61	795.52
657.95	789.47
658.29	783.56
658.64	777.53
658.98	771.37
659.32	765.14
659.66	759.15
660.00	753.01
660.34	747.27
660.68	741.59
661.02	735.72
661.36	730.21
661.70	724.95
662.05	719.97
662.39	715.02
662.73	709.85
663.07	704.78
663.41	699.60
663.75	694.51
664.09	689.16
664.43	684.04
664.77	679.29
665.11	674.41
665.45	669.69
665.79	665.01
666.13	660.22
666.47	655.40
666.81	650.50
667.15	645.77
667.49	641.19
667.83	636.74
668.17	632.23
668.51	627.61
668.85	623.00
669.19	618.51
669.53	614.09
669.87	609.75
670.21	605.43
670.55	601.27
670.89	597.28
671.23	593.36
671.57	589.29
671.91	585.17
672.25	581.11
672.58	577.02
672.92	573.01
673.26	569.38
673.60	565.71
673.94	562.17
674.28	558.73
674.62	555.33
674.96	551.74
675.30	548.41
675.64	544.97
675.97	541.82
676.31	538.48
676.65	535.03
676.99	531.89
677.33	528.62
677.67	525.33
678.01	521.83
678.34	518.40
678.68	515.10
679.02	511.90
679.36	508.69
679.70	505.56
680.04	502.44
680.37	499.20
680.71	495.98
681.05	492.92
681.39	489.87
681.73	486.84
682.06	483.90
682.40	480.96
682.74	478.07
683.08	475.07
683.42	472.10
683.75	469.25
684.09	466.23
684.43	463.37
684.77	460.56
685.10	457.83
685.44	455.16
685.78	452.53
686.12	449.88
686.45	447.26
686.79	444.59
687.13	442.04
687.46	439.46
687.80	436.95
688.14	434.39
688.48	432.01
688.81	429.39
689.15	426.90
689.49	424.36
689.82	421.94
690.16	419.50
690.50	417.30
690.83	415.05
691.17	412.75
691.51	410.55
691.84	408.40
692.18	406.18
692.52	403.85
692.85	401.58
693.19	399.41
693.52	397.27
693.86	395.20
694.20	393.03
694.53	390.97
694.87	388.85
695.21	386.77
695.54	384.59
695.88	382.57
696.21	380.63
696.55	378.69
696.88	376.73
697.22	374.76
697.56	372.79
697.89	370.91
698.23	369.04
698.56	367.19
698.90	365.33
699.23	363.42
699.57	361.64
699.90	359.82
700.24	358.04
700.58	356.23
700.91	354.49
701.25	352.89
701.58	351.27
701.92	349.69
702.25	348.11
702.59	346.58
702.92	345.06
703.26	343.49
703.59	342.04
703.93	340.66
704.26	339.31
704.60	337.81
704.93	336.32
705.26	334.87
705.60	333.45
705.93	332.06
706.27	330.82
706.60	329.60
706.94	328.40
707.27	327.07
707.61	325.88
707.94	324.69
708.27	323.40
708.61	322.11
708.94	320.93
709.28	319.81
709.61	318.67
709.94	317.59
710.28	316.42
710.61	315.28
710.95	314.03
711.28	312.92
711.61	311.85
711.95	310.77
712.28	309.69
712.61	308.60
712.95	307.57
713.28	306.55
713.61	305.52
713.95	304.46
714.28	303.49
714.61	302.45
714.95	301.46
715.28	300.48
715.61	299.49
715.95	298.50
716.28	297.49
716.61	296.49
716.95	295.49
717.28	294.64
717.61	293.71
717.94	292.86
718.28	291.90
718.61	291.04
718.94	290.21
719.27	289.46
719.61	288.73
719.94	287.99
720.27	287.18
720.60	286.40
720.94	285.70
721.27	284.98
721.60	284.27
721.93	283.57
722.27	282.91
722.60	282.28
722.93	281.63
723.26	280.96
723.59	280.34
723.93	279.72
724.26	279.05
724.59	278.39
724.92	277.76
725.25	277.19
725.59	276.61
725.92	276.05
726.25	275.46
726.58	274.89
726.91	274.30
727.24	273.68
727.57	273.14
727.91	272.53
728.24	271.99
728.57	271.47
728.90	270.93
729.23	270.38
729.56	269.88
729.89	269.32
730.22	268.79
730.55	268.26
730.89	267.76
731.22	267.26
731.55	266.78
731.88	266.32
732.21	265.83
732.54	265.30
732.87	264.80
733.20	264.33
733.53	263.86
733.86	263.42
734.19	263.00
734.52	262.55
734.85	262.21
735.18	261.72
735.51	261.27
735.84	260.83
736.17	260.41
736.50	259.93
736.83	259.64
737.16	259.26
737.49	258.87
737.82	258.45
738.15	258.05
738.48	257.72
738.81	257.32
739.14	256.96
739.47	256.60
739.80	256.23
740.13	255.88
740.46	255.50
740.79	255.11
741.12	254.78
741.45	254.40
741.78	253.97
742.11	253.66
742.44	253.32
742.77	252.99
743.10	252.66
743.43	252.32
743.75	251.90
744.08	251.71
744.41	251.39
744.74	251.08
745.07	250.77
745.40	250.44
745.73	250.17
746.06	249.83
746.39	249.53
746.71	249.20
747.04	248.87
747.37	248.53
747.70	248.28
748.03	248.00
748.36	247.75
748.68	247.51
749.01	247.24
749.34	246.99
749.67	246.72
750.00	246.47
750.33	246.32
750.65	246.05
750.98	245.66
751.31	245.42
751.64	245.19
751.97	244.98
752.29	244.73
752.62	244.44
752.95	244.20
753.28	243.97
753.60	243.75
753.93	243.58
754.26	243.38
754.59	243.11
754.91	242.83
755.24	242.60
755.57	242.35
755.90	242.11
756.22	241.85
756.55	241.63
756.88	241.40
757.20	241.10
757.53	240.91
757.86	240.68
758.19	240.52
758.51	240.31
758.84	240.08
759.17	239.88
759.49	239.71
759.82	239.58
760.15	239.41
760.47	239.21
760.80	239.00
761.13	238.84
761.45	238.67
761.78	238.51
762.11	238.31
762.43	238.12
762.76	237.96
763.08	237.83
763.41	237.67
763.74	237.50
764.06	237.35
764.39	237.15
764.71	237.03
765.04	236.82
765.37	236.66
765.69	236.52
766.02	236.39
766.34	236.21
766.67	236.04
767.00	235.92
767.32	235.86
767.65	235.77
767.97	235.64
768.30	235.48
768.62	235.33
768.95	235.21
769.27	235.07
769.60	234.96
769.92	234.80
770.25	234.65
770.57	234.53
770.90	234.40
771.22	234.28
771.55	234.13
771.87	234.01
772.20	233.90
772.52	233.87
772.85	233.86
773.17	233.76
773.50	233.64
773.82	233.53
774.15	233.39
774.47	233.25
774.80	233.13
775.12	233.04
775.45	232.96
775.77	232.90
776.09	232.83
776.42	232.75
776.74	232.69
777.07	232.61
777.39	232.51
777.72	232.45
778.04	232.41
778.36	232.33
778.69	232.28
779.01	232.19
779.33	232.01
779.66	231.80
779.98	231.72
780.31	231.62
780.63	231.57
780.95	231.51
781.28	231.41
781.60	231.35
781.92	231.30
782.25	231.25
782.57	231.18
782.89	231.11
783.22	231.01
783.54	230.92
783.86	230.86
784.19	230.78
784.51	230.73
784.83	230.67
785.16	230.61
785.48	230.57
785.80	230.51
786.12	230.46
786.45	230.46
786.77	230.39
787.09	230.33
787.42	230.25
787.74	230.18
788.06	230.15
788.38	230.09
788.71	230.02
789.03	229.98
789.35	229.93
789.67	229.89
789.99	229.84
790.32	229.80
790.64	229.75
790.96	229.81
791.28	229.77
791.61	229.69
791.93	229.70
792.25	229.62
792.57	229.65
792.89	229.62
793.21	229.58
793.54	229.55
793.86	229.50
794.18	229.44
794.50	229.38
794.82	229.32
795.14	229.28
795.47	229.27
795.79	229.21
796.11	229.16
796.43	229.12
796.75	229.09
797.07	229.06
797.39	229.03
797.71	228.89
798.04	228.82
798.36	228.83
798.68	228.76
799.00	228.75
799.32	228.66
799.64	228.63
799.96	228.59
800.28	228.56
800.60	228.52
800.92	228.50
801.24	228.45
801.56	228.43
801.89	228.35
802.21	228.29
802.53	228.26
802.85	228.22
803.17	228.19
803.49	228.13
803.81	228.05
804.13	227.98
804.45	227.96
804.77	227.94
805.09	227.88
805.41	227.82
805.73	227.76
806.05	227.69
806.37	227.65
806.69	227.59
807.01	227.57
807.33	227.56
807.65	227.49
807.97	227.49
808.28	227.46
808.60	227.44
808.92	227.41
809.24	227.41
809.56	227.39
809.88	227.34
810.20	227.33
810.52	227.33
810.84	227.33
811.16	227.29
811.48	227.28
811.80	227.30
812.12	227.29
812.43	227.26
812.75	227.22
813.07	227.17
813.39	227.16
813.71	227.12
814.03	227.08
814.35	227.08
814.67	227.02
814.98	226.96
815.30	226.97
815.62	226.92
815.94	226.87
816.26	226.88
816.58	226.85
816.89	226.81
817.21	226.79
817.53	226.77
817.85	226.73
818.17	226.66
818.48	226.54
818.80	226.53
819.12	226.50
819.44	226.50
819.76	226.47
820.07	226.43
820.39	226.38
820.71	226.36
821.03	226.31
821.34	226.33
821.66	226.30
821.98	226.30
822.30	226.25
822.61	226.28
822.93	226.24
823.25	226.22
823.57	226.22
823.88	226.22
824.20	226.20
824.52	226.20
824.83	226.16
825.15	226.17
825.47	226.13
825.79	226.11
826.10	226.09
826.42	226.06
826.74	226.04
827.05	226.03
827.37	226.04
827.69	226.01
828.00	225.96
828.32	226.01
828.64	225.98
828.95	226.03
829.27	225.99
829.58	225.96
829.90	225.96
830.22	225.97
830.53	225.95
830.85	225.94
831.17	225.93
831.48	225.96
831.80	225.97
832.11	225.99
832.43	225.97
832.75	225.98
833.06	226.03
833.38	225.98
833.69	225.97
834.01	225.95
834.32	225.98
834.64	225.99
834.96	225.96
835.27	225.94
835.59	225.90
835.90	225.87
836.22	225.87
836.53	225.87
836.85	225.82
837.16	225.91
837.48	225.87
837.79	225.87
838.11	225.85
838.42	225.83
838.74	225.85
839.05	225.85
839.37	225.82
839.68	225.77
840.00	225.78
840.31	225.81
840.63	225.81
840.94	225.77
841.26	225.77
841.57	225.74
841.88	225.73
842.20	225.73
842.51	225.72
842.83	225.69
843.14	225.78
843.46	225.79
843.77	225.71
844.08	225.69
844.40	225.69
844.71	225.70
845.03	225.68
845.34	225.65
845.65	225.65
845.97	225.67
846.28	225.69
846.60	225.68
846.91	225.68
847.22	225.67
847.54	225.67
847.85	225.64
848.16	225.62
848.48	225.62
848.79	225.66
849.10	225.65
849.42	225.66
849.73	225.53
850.04	225.49
850.36	225.44
850.67	225.47
850.98	225.46
851.30	225.42
851.61	225.44
851.92	225.45
852.23	225.47
852.55	225.45
852.86	225.42
853.17	225.42
853.49	225.40
853.80	225.39
854.11	225.41
854.42	225.45
854.74	225.44
855.05	225.43
855.36	225.35
855.67	225.36
855.99	225.34
856.30	225.46
856.61	225.48
856.92	225.47
857.23	225.46
857.55	225.45
857.86	225.45
858.17	225.42
858.48	225.37
858.79	225.37
859.11	225.37
859.42	225.33
859.73	225.32
860.04	225.30
860.35	225.30
860.66	225.24
860.98	225.21
861.29	225.29
861.60	225.29
861.91	225.33
862.22	225.31
862.53	225.30
862.84	225.18
863.16	225.21
863.47	225.23
863.78	225.21
864.09	225.23
864.40	225.23
864.71	225.23
865.02	225.25
865.33	225.19
865.64	225.17
865.95	225.18
866.27	225.23
866.58	225.22
866.89	225.21
867.20	225.21
867.51	225.20
867.82	225.15
868.13	225.19
868.44	225.17
868.75	225.17
869.06	225.19
869.37	225.17
869.68	225.12
869.99	225.13
870.30	225.15
870.61	225.14
870.92	225.12
871.23	225.11
871.54	225.14
871.85	225.17
872.16	225.17
872.47	225.16
872.78	225.11
873.09	225.14
873.40	225.13
873.71	225.18
874.02	225.16
874.33	225.12
874.64	225.08
874.95	225.09
875.26	225.05
875.56	225.04
875.87	225.06
876.18	225.07
876.49	225.16
876.80	225.14
877.11	225.16
877.42	225.16
877.73	225.16
878.04	225.11
878.35	225.11
878.66	225.14
878.96	225.15
879.27	225.14
879.58	225.14
879.89	225.16
880.20	225.14
880.51	225.15
880.82	225.17
881.12	225.18
881.43	225.14
881.74	225.15
882.05	225.11
882.36	225.12
882.67	225.12
882.97	225.01
883.28	224.98
883.59	224.91
883.90	224.96
884.21	224.96
884.51	224.97
884.82	224.93
885.13	224.93
885.44	224.91
885.74	224.90
886.05	224.90
886.36	224.89
886.67	224.89
886.98	224.94
887.28	224.95
887.59	224.92
887.90	224.91
888.20	224.87
888.51	224.91
888.82	224.88
889.13	224.91
889.43	224.98
889.74	225.00
890.05	225.07
890.35	225.05
890.66	225.02
890.97	225.03
891.28	225.03
891.58	225.05
891.89	225.08
892.20	225.08
892.50	225.06
892.81	225.07
893.12	225.06
893.42	225.03
893.73	225.03
894.04	225.06
894.34	225.10
894.65	225.15
894.95	225.13
895.26	225.15
895.57	225.18
895.87	225.09
896.18	225.12
896.48	225.07
896.79	225.05
897.10	225.09
897.40	225.10
897.71	225.13
898.01	225.11
898.32	225.10
898.63	225.12
898.93	225.14
899.24	225.12
899.54	225.12
899.85	225.10
900.15	225.11
900.46	225.10
900.76	225.10
901.07	225.08
901.38	225.09
901.68	225.07
901.99	225.01
902.29	224.99
902.60	224.96
902.90	224.95
903.21	224.96
903.51	224.93
903.82	224.92
904.12	224.94
904.43	224.93
904.73	224.94
905.03	224.89
905.34	224.99
905.64	224.99
905.95	224.97
906.25	224.95
906.56	224.94
906.86	224.95
907.17	224.93
907.47	224.90
907.77	224.90
908.08	224.91
908.38	224.92
908.69	224.96
908.99	224.98
909.30	225.01
909.60	225.00
909.90	225.04
910.21	225.02
910.51	224.95
910.81	224.97
911.12	225.00
911.42	225.02
911.73	224.91
912.03	224.94
912.33	224.95
912.64	224.99
912.94	224.94
913.24	224.94
913.55	224.95
913.85	224.97
914.15	225.00
914.46	225.01
914.76	225.00
915.06	225.00
915.37	224.99
915.67	224.99
915.97	225.00
916.27	224.97
916.58	224.98
916.88	225.01
917.18	224.97
917.49	225.01
917.79	224.98
918.09	224.96
918.39	224.96
918.70	224.96
919.00	224.96
919.30	225.03
919.60	225.00
919.91	225.00
920.21	224.99
920.51	224.97
920.81	224.95
921.12	224.95
921.42	224.95
921.72	224.97
922.02	224.97
922.32	224.96
922.63	225.00
922.93	225.04
923.23	225.02
923.53	225.04
923.83	224.99
924.13	225.04
924.44	225.05
924.74	225.06
925.04	225.07
925.34	225.06
925.64	224.99
925.94	225.00
926.24	225.02
926.55	225.02
926.85	225.03
927.15	225.03
927.45	225.03
927.75	225.02
928.05	224.98
928.35	224.97
928.65	225.00
928.95	224.96
929.26	224.92
929.56	224.96
929.86	224.95
930.16	224.94
930.46	224.94
930.76	224.96
931.06	224.94
931.36	224.91
931.66	224.91
931.96	224.92
932.26	224.92
932.56	224.89
932.86	224.91
933.16	224.88
933.46	224.88
933.76	224.84
934.06	224.87
934.36	224.90
934.66	224.91
934.96	224.85
935.26	224.85
935.56	224.87
935.86	224.85
936.16	224.83
936.46	224.82
936.76	224.79
937.06	224.77
937.36	224.75
937.66	224.75
937.96	224.75
938.26	224.73
938.56	224.74
938.86	224.76
939.16	224.76
939.46	224.80
939.76	224.80
940.06	224.80
940.35	224.76
940.65	224.71
940.95	224.72
941.25	224.72
941.55	224.70
941.85	224.66
942.15	224.64
942.45	224.66
942.75	224.66
943.04	224.67
943.34	224.69
943.64	224.69
943.94	224.69
944.24	224.67
944.54	224.68
944.84	224.69
945.13	224.65
945.43	224.65
945.73	224.64
946.03	224.64
946.33	224.63
946.62	224.63
946.92	224.61
947.22	224.60
947.52	224.62
947.82	224.65
948.11	224.68
948.41	224.65
948.71	224.59
949.01	224.59
949.31	224.57
949.60	224.56
949.90	224.57
950.20	224.57
950.50	224.58
950.79	224.58
951.09	224.56
951.39	224.58
951.69	224.54
951.98	224.55
952.28	224.59
952.58	224.59
952.87	224.61
953.17	224.64
953.47	224.64
953.76	224.62
954.06	224.60
954.36	224.60
954.66	224.62
954.95	224.69
955.25	224.72
955.55	224.74
955.84	224.73
956.14	224.77
956.44	224.77
956.73	224.75
957.03	224.73
957.32	224.73
957.62	224.71
957.92	224.77
958.21	224.78
958.51	224.85
958.81	224.89
959.10	224.89
959.40	224.92
959.69	224.95
959.99	224.96
960.29	224.99
960.58	224.97
960.88	225.03
961.17	225.02
961.47	225.00
961.76	224.96
962.06	224.97
962.36	224.91
962.65	224.94
962.95	224.94
963.24	224.95
963.54	224.94
963.83	224.98
964.13	224.95
964.42	224.93
964.72	224.87
965.01	224.86
965.31	224.85
965.60	224.80
965.90	224.84
966.19	224.82
966.49	224.86
966.78	224.85
967.08	224.80
967.37	224.80
967.67	224.81
967.96	224.83
968.26	224.84
968.55	224.85
968.85	224.86
969.14	224.90
969.43	224.91
969.73	224.93
970.02	224.89
970.32	224.89
970.61	224.85
970.91	224.80
971.20	224.76
971.49	224.74
971.79	224.75
972.08	224.70
972.38	224.71
972.67	224.68
972.96	224.69
973.26	224.69
973.55	224.72
973.85	224.69
974.14	224.70
974.43	224.68
974.73	224.70
975.02	224.66
975.31	224.62
975.61	224.65
975.90	224.63
976.19	224.64
976.49	224.66
976.78	224.68
977.07	224.67
977.37	224.71
977.66	224.71
977.95	224.71
978.24	224.70
978.54	224.74
978.83	224.69
979.12	224.69
979.42	224.70
979.71	224.66
980.00	224.68
980.29	224.69
980.59	224.67
980.88	224.67
981.17	224.66
981.46	224.65
981.76	224.63
982.05	224.65
982.34	224.63
982.63	224.62
982.93	224.61
983.22	224.65
983.51	224.61
983.80	224.65
984.09	224.64
984.39	224.64
984.68	224.61
984.97	224.63
985.26	224.59
985.55	224.57
985.85	224.55
986.14	224.55
986.43	224.53
986.72	224.52
987.01	224.48
987.30	224.50
987.59	224.49
987.89	224.49
988.18	224.45
988.47	224.44
988.76	224.42
989.05	224.40
989.34	224.41
989.63	224.43
989.92	224.40
990.22	224.40
990.51	224.43
990.80	224.40
991.09	224.41
991.38	224.46
991.67	224.45
991.96	224.46
992.25	224.48
992.54	224.45
992.83	224.47
993.12	224.48
993.41	224.47
993.70	224.54
993.99	224.54
994.28	224.56
994.58	224.58
994.87	224.56
995.16	224.57
995.45	224.52
995.74	224.48
996.03	224.52
996.32	224.51
996.61	224.50
996.90	224.51
997.19	224.48
997.48	224.46
997.77	224.48
998.06	224.47
998.34	224.47
998.63	224.47
998.92	224.47
999.21	224.48
999.50	224.47
999.79	224.42
1000.08	224.41
1000.37	224.39
1000.66	224.43
1000.95	224.44
1001.24	224.47
1001.53	224.49
1001.82	224.50
1002.11	224.47
1002.40	224.51
1002.68	224.54
1002.97	224.63
1003.26	224.60
1003.55	224.59
1003.84	224.59
1004.13	224.63
1004.42	224.59
1004.71	224.62
1004.99	224.60
1005.28	224.64
1005.57	224.64
1005.86	224.61
1006.15	224.62
1006.44	224.65
1006.72	224.60
1007.01	224.61
1007.30	224.62
1007.59	224.64
1007.88	224.64
1008.17	224.65
1008.45	224.64
1008.74	224.56
1009.03	224.49
1009.32	224.51
1009.60	224.50
1009.89	224.49
1010.18	224.46
1010.47	224.46
1010.76	224.43
1011.04	224.42
1011.33	224.40
1011.62	224.41
1011.91	224.43
1012.19	224.42
1012.48	224.42
1012.77	224.43
1013.05	224.48
1013.34	224.43
1013.63	224.44
1013.92	224.48
1014.20	224.46
1014.49	224.45
1014.78	224.50
1015.06	224.47
1015.35	224.48
1015.64	224.54
1015.92	224.55
1016.21	224.55
1016.50	224.55
1016.78	224.58
1017.07	224.60
1017.36	224.58
1017.64	224.59
1017.93	224.59
1018.22	224.58
1018.50	224.58
1018.79	224.58
1019.08	224.52
1019.36	224.53
1019.65	224.49
1019.93	224.48
1020.22	224.49
1020.51	224.55
1020.79	224.51
1021.08	223.90
1021.36	224.53
1021.65	224.51
1021.94	224.34
1022.22	224.36
1022.51	223.84
1022.79	224.74
1023.08	224.68
1023.36	225.84
1023.65	224.16
>>>>>End Processed Spectral Data<<<<<
