SpectraSuite Data File
++++++++++++++++++++++++++++++++++++
Date: Fri Feb 01 17:54:04 EST 2013
User: group
Dark Spectrum Present: No
Reference Spectrum Present: No
Number of Sampled Component Spectra: 1
Spectrometers: USB2E7196
Integration Time (usec): 35000 (USB2E7196)
Spectra Averaged: 100 (USB2E7196)
Boxcar Smoothing: 10 (USB2E7196)
Correct for Electrical Dark: No (USB2E7196)
Strobe/Lamp Enabled: No (USB2E7196)
Correct for Detector Non-linearity: No (USB2E7196)
Correct for Stray Light: No (USB2E7196)
Number of Pixels in Processed Spectrum: 2048
>>>>>Begin Processed Spectral Data<<<<<
339.09	0.00
339.48	212.41
339.86	214.57
340.24	215.22
340.63	216.66
341.01	219.82
341.39	219.65
341.78	221.23
342.16	222.24
342.54	222.55
342.93	211.07
343.31	221.75
343.69	222.30
344.07	222.77
344.46	223.23
344.84	223.61
345.22	223.86
345.60	224.13
345.99	224.33
346.37	224.47
346.75	224.61
347.13	224.70
347.52	224.75
347.90	224.83
348.28	224.89
348.66	224.96
349.05	224.99
349.43	225.07
349.81	225.13
350.19	225.19
350.57	225.26
350.96	225.36
351.34	225.43
351.72	225.50
352.10	225.57
352.48	225.63
352.87	225.70
353.25	225.76
353.63	225.80
354.01	225.85
354.39	225.91
354.77	225.94
355.15	226.04
355.54	226.10
355.92	226.13
356.30	226.19
356.68	226.31
357.06	226.34
357.44	226.36
357.82	226.45
358.20	226.55
358.58	226.60
358.97	226.65
359.35	226.72
359.73	226.84
360.11	226.86
360.49	226.89
360.87	226.92
361.25	226.99
361.63	227.05
362.01	227.12
362.39	227.15
362.77	227.19
363.15	227.17
363.53	227.19
363.91	227.24
364.29	227.27
364.67	227.16
365.05	227.18
365.43	227.24
365.81	227.26
366.19	227.31
366.57	227.35
366.95	227.37
367.33	227.33
367.71	227.31
368.09	227.33
368.47	227.32
368.85	227.32
369.23	227.31
369.61	227.23
369.99	227.22
370.37	227.19
370.75	227.24
371.13	227.19
371.51	227.17
371.89	227.11
372.27	227.07
372.65	227.05
373.03	226.99
373.41	226.92
373.78	226.84
374.16	226.68
374.54	226.59
374.92	226.53
375.30	226.51
375.68	226.41
376.06	226.37
376.44	226.30
376.82	226.25
377.19	226.23
377.57	226.19
377.95	226.10
378.33	226.02
378.71	225.89
379.09	225.88
379.47	225.84
379.84	225.78
380.22	225.72
380.60	225.63
380.98	225.60
381.36	225.54
381.73	225.49
382.11	225.49
382.49	225.41
382.87	225.33
383.25	225.26
383.62	225.35
384.00	225.28
384.38	225.27
384.76	225.27
385.13	225.20
385.51	225.17
385.89	225.13
386.27	225.10
386.64	225.09
387.02	225.04
387.40	224.98
387.78	224.97
388.15	224.93
388.53	224.91
388.91	224.87
389.29	224.82
389.66	224.79
390.04	224.77
390.42	224.78
390.79	224.81
391.17	224.83
391.55	224.70
391.92	224.68
392.30	224.66
392.68	224.63
393.05	224.63
393.43	224.62
393.81	224.61
394.18	224.60
394.56	224.61
394.94	224.63
395.31	224.64
395.69	224.70
396.06	224.76
396.44	224.83
396.82	224.86
397.19	224.95
397.57	224.98
397.95	225.00
398.32	225.03
398.70	225.08
399.07	225.14
399.45	225.21
399.82	225.30
400.20	225.36
400.58	225.41
400.95	225.44
401.33	225.56
401.70	225.69
402.08	225.82
402.45	225.89
402.83	225.98
403.20	226.10
403.58	226.19
403.95	226.29
404.33	226.41
404.71	226.55
405.08	226.75
405.46	226.91
405.83	227.13
406.21	227.30
406.58	227.47
406.96	227.64
407.33	227.82
407.70	227.98
408.08	228.30
408.45	228.59
408.83	228.89
409.20	229.12
409.58	229.37
409.95	229.67
410.33	230.01
410.70	230.35
411.08	230.71
411.45	231.09
411.82	231.51
412.20	231.97
412.57	232.46
412.95	232.87
413.32	233.39
413.69	233.91
414.07	234.49
414.44	235.10
414.82	235.76
415.19	236.47
415.56	237.23
415.94	237.94
416.31	238.77
416.68	239.56
417.06	240.52
417.43	241.41
417.81	242.44
418.18	243.45
418.55	244.53
418.93	245.73
419.30	246.94
419.67	248.14
420.04	249.41
420.42	250.73
420.79	252.23
421.16	253.74
421.54	255.32
421.91	256.93
422.28	258.56
422.66	260.28
423.03	262.00
423.40	263.78
423.77	265.63
424.15	267.49
424.52	269.50
424.89	271.62
425.26	273.68
425.64	275.58
426.01	277.76
426.38	279.96
426.75	282.13
427.13	284.42
427.50	286.85
427.87	289.29
428.24	291.78
428.61	294.14
428.99	296.72
429.36	299.47
429.73	302.23
430.10	304.95
430.47	307.75
430.85	310.62
431.22	313.61
431.59	316.81
431.96	319.81
432.33	323.10
432.70	326.28
433.08	330.02
433.45	333.49
433.82	336.93
434.19	340.80
434.56	344.55
434.93	348.02
435.30	351.48
435.68	355.35
436.05	359.14
436.42	362.87
436.79	366.22
437.16	369.81
437.53	373.56
437.90	377.31
438.27	380.88
438.64	384.58
439.01	387.99
439.38	390.96
439.75	393.84
440.13	397.15
440.50	400.27
440.87	402.75
441.24	405.40
441.61	408.29
441.98	410.23
442.35	412.64
442.72	415.14
443.09	417.51
443.46	418.84
443.83	419.63
444.20	420.31
444.57	421.45
444.94	421.87
445.31	422.34
445.68	422.77
446.05	422.91
446.42	422.46
446.79	421.95
447.16	421.39
447.53	421.05
447.90	419.46
448.27	417.92
448.64	415.79
449.01	414.32
449.37	411.69
449.74	409.20
450.11	406.20
450.48	402.96
450.85	399.64
451.22	396.85
451.59	394.18
451.96	391.64
452.33	388.17
452.70	385.01
453.07	381.25
453.43	377.39
453.80	373.73
454.17	370.18
454.54	366.76
454.91	363.12
455.28	359.53
455.65	356.34
456.02	353.05
456.38	350.23
456.75	346.65
457.12	343.64
457.49	340.65
457.86	337.77
458.23	335.23
458.59	332.49
458.96	329.64
459.33	327.15
459.70	324.61
460.07	322.59
460.43	320.27
460.80	318.09
461.17	316.18
461.54	314.17
461.91	312.21
462.27	310.24
462.64	308.53
463.01	306.69
463.38	304.86
463.74	303.05
464.11	301.46
464.48	300.08
464.85	298.59
465.21	297.40
465.58	296.15
465.95	294.70
466.32	293.47
466.68	292.28
467.05	290.99
467.42	289.75
467.78	288.50
468.15	287.34
468.52	286.42
468.88	285.25
469.25	284.16
469.62	283.32
469.98	282.42
470.35	281.57
470.72	280.77
471.08	279.90
471.45	279.14
471.82	278.37
472.18	277.52
472.55	276.91
472.92	276.26
473.28	275.60
473.65	274.99
474.02	274.39
474.38	273.87
474.75	273.48
475.11	273.01
475.48	272.63
475.85	272.28
476.21	271.93
476.58	271.62
476.94	271.42
477.31	271.15
477.67	270.93
478.04	270.74
478.41	270.60
478.77	270.59
479.14	270.46
479.50	270.44
479.87	270.47
480.23	270.48
480.60	270.46
480.96	270.53
481.33	270.70
481.69	270.89
482.06	271.03
482.42	271.17
482.79	271.40
483.15	271.67
483.52	272.05
483.88	272.38
484.25	272.78
484.61	273.17
484.98	273.60
485.34	274.15
485.71	274.75
486.07	275.34
486.44	275.87
486.80	276.60
487.17	277.32
487.53	278.14
487.90	279.04
488.26	280.00
488.62	281.04
488.99	282.04
489.35	283.11
489.72	284.26
490.08	285.53
490.44	286.83
490.81	288.25
491.17	289.63
491.54	291.21
491.90	292.82
492.26	294.53
492.63	296.35
492.99	298.21
493.36	300.17
493.72	302.33
494.08	304.54
494.45	306.89
494.81	309.39
495.17	311.97
495.54	314.63
495.90	317.46
496.26	320.36
496.63	323.43
496.99	326.72
497.35	330.20
497.72	333.81
498.08	337.48
498.44	341.33
498.80	345.48
499.17	349.70
499.53	354.10
499.89	358.67
500.26	363.43
500.62	368.35
500.98	373.52
501.34	378.88
501.71	384.54
502.07	390.30
502.43	396.23
502.79	402.40
503.16	408.81
503.52	415.47
503.88	422.22
504.24	429.22
504.60	436.50
504.97	444.06
505.33	451.74
505.69	459.96
506.05	468.23
506.41	476.57
506.78	485.22
507.14	494.12
507.50	503.37
507.86	512.93
508.22	522.70
508.59	532.54
508.95	542.67
509.31	553.05
509.67	563.76
510.03	574.66
510.39	585.88
510.75	597.38
511.12	608.96
511.48	621.02
511.84	633.32
512.20	645.50
512.56	658.20
512.92	671.19
513.28	684.37
513.64	697.68
514.00	711.29
514.37	725.12
514.73	739.20
515.09	753.17
515.45	767.43
515.81	781.93
516.17	796.96
516.53	812.19
516.89	827.45
517.25	842.77
517.61	858.35
517.97	873.92
518.33	889.48
518.69	905.46
519.05	921.66
519.41	938.04
519.77	954.92
520.13	971.63
520.49	988.33
520.85	1004.97
521.21	1021.95
521.57	1039.51
521.93	1056.66
522.29	1074.42
522.65	1092.20
523.01	1109.84
523.37	1127.45
523.73	1145.05
524.09	1162.70
524.45	1180.47
524.81	1198.58
525.17	1216.80
525.53	1235.25
525.89	1253.88
526.25	1272.39
526.61	1290.47
526.97	1309.01
527.33	1327.24
527.68	1345.45
528.04	1363.64
528.40	1381.86
528.76	1400.74
529.12	1419.08
529.48	1437.85
529.84	1455.61
530.20	1473.99
530.56	1492.82
530.91	1512.05
531.27	1530.75
531.63	1549.10
531.99	1567.55
532.35	1585.49
532.71	1603.35
533.07	1621.54
533.42	1639.20
533.78	1657.25
534.14	1675.36
534.50	1692.45
534.86	1710.20
535.21	1727.46
535.57	1745.39
535.93	1762.99
536.29	1779.62
536.65	1796.69
537.00	1813.34
537.36	1830.75
537.72	1847.23
538.08	1863.77
538.44	1879.57
538.79	1895.38
539.15	1910.90
539.51	1926.68
539.87	1943.16
540.22	1959.01
540.58	1975.03
540.94	1990.46
541.29	2005.15
541.65	2019.93
542.01	2035.31
542.37	2049.75
542.72	2064.33
543.08	2078.21
543.44	2092.78
543.79	2106.39
544.15	2119.48
544.51	2133.34
544.87	2146.19
545.22	2159.18
545.58	2171.49
545.94	2183.44
546.29	2195.51
546.65	2207.55
547.01	2219.04
547.36	2229.61
547.72	2240.13
548.07	2249.90
548.43	2260.00
548.79	2269.83
549.14	2279.46
549.50	2288.61
549.86	2298.08
550.21	2307.24
550.57	2316.49
550.92	2325.10
551.28	2333.91
551.64	2342.77
551.99	2350.92
552.35	2359.10
552.70	2367.02
553.06	2374.79
553.41	2382.92
553.77	2390.62
554.13	2398.43
554.48	2406.26
554.84	2413.75
555.19	2420.45
555.55	2427.32
555.90	2433.53
556.26	2440.45
556.61	2446.68
556.97	2452.73
557.32	2458.59
557.68	2464.33
558.03	2469.99
558.39	2474.81
558.74	2480.97
559.10	2486.43
559.45	2491.64
559.81	2497.37
560.16	2502.78
560.52	2507.33
560.87	2511.99
561.23	2515.99
561.58	2519.85
561.94	2523.63
562.29	2527.08
562.64	2531.44
563.00	2535.12
563.35	2539.82
563.71	2544.17
564.06	2548.62
564.42	2552.91
564.77	2556.76
565.12	2560.25
565.48	2563.40
565.83	2566.73
566.19	2569.16
566.54	2570.95
566.89	2573.22
567.25	2574.84
567.60	2576.81
567.96	2579.77
568.31	2581.39
568.66	2583.51
569.02	2585.35
569.37	2586.41
569.72	2588.16
570.08	2589.07
570.43	2589.76
570.78	2590.12
571.14	2589.35
571.49	2588.47
571.84	2588.33
572.20	2587.63
572.55	2587.04
572.90	2585.78
573.26	2584.82
573.61	2583.43
573.96	2582.45
574.31	2579.66
574.67	2576.87
575.02	2573.53
575.37	2570.02
575.72	2566.73
576.08	2563.27
576.43	2559.90
576.78	2556.63
577.13	2553.43
577.49	2550.04
577.84	2546.75
578.19	2542.76
578.54	2538.96
578.90	2534.88
579.25	2529.36
579.60	2524.35
579.95	2519.18
580.30	2514.05
580.66	2508.54
581.01	2503.22
581.36	2497.78
581.71	2493.66
582.06	2489.04
582.42	2484.54
582.77	2479.08
583.12	2474.15
583.47	2469.47
583.82	2464.27
584.17	2458.63
584.53	2452.71
584.88	2446.81
585.23	2440.72
585.58	2434.76
585.93	2428.86
586.28	2423.43
586.63	2418.02
586.98	2412.38
587.34	2407.15
587.69	2401.74
588.04	2396.22
588.39	2390.24
588.74	2383.08
589.09	2375.99
589.44	2368.59
589.79	2361.65
590.14	2355.26
590.49	2347.84
590.84	2340.52
591.19	2333.86
591.54	2326.52
591.89	2318.58
592.25	2311.00
592.60	2302.94
592.95	2294.65
593.30	2286.21
593.65	2277.73
594.00	2269.60
594.35	2261.39
594.70	2252.26
595.05	2244.26
595.40	2235.73
595.75	2227.14
596.10	2220.32
596.45	2212.88
596.80	2205.80
597.15	2198.43
597.50	2190.72
597.85	2183.35
598.19	2175.84
598.54	2168.08
598.89	2160.51
599.24	2153.63
599.59	2146.40
599.94	2139.06
600.29	2131.74
600.64	2124.32
600.99	2115.88
601.34	2108.20
601.69	2100.22
602.04	2092.64
602.39	2084.11
602.74	2076.40
603.08	2068.76
603.43	2060.81
603.78	2052.29
604.13	2044.02
604.48	2035.74
604.83	2027.74
605.18	2019.93
605.53	2010.75
605.87	2001.30
606.22	1992.88
606.57	1983.60
606.92	1974.70
607.27	1966.60
607.62	1958.72
607.96	1950.47
608.31	1942.95
608.66	1934.16
609.01	1925.46
609.36	1916.63
609.70	1907.52
610.05	1898.24
610.40	1889.29
610.75	1879.71
611.10	1870.82
611.44	1860.91
611.79	1851.48
612.14	1841.37
612.49	1830.64
612.83	1820.87
613.18	1811.33
613.53	1801.82
613.88	1791.99
614.22	1782.28
614.57	1772.14
614.92	1762.75
615.27	1753.91
615.61	1744.23
615.96	1734.75
616.31	1725.67
616.65	1716.87
617.00	1708.02
617.35	1699.02
617.70	1689.47
618.04	1679.65
618.39	1669.88
618.74	1661.19
619.08	1651.48
619.43	1642.55
619.78	1634.38
620.12	1626.10
620.47	1617.32
620.82	1607.73
621.16	1598.86
621.51	1590.07
621.85	1581.00
622.20	1570.99
622.55	1561.18
622.89	1551.91
623.24	1542.86
623.59	1534.21
623.93	1525.53
624.28	1516.84
624.62	1507.92
624.97	1499.41
625.32	1491.21
625.66	1483.05
626.01	1474.64
626.35	1466.14
626.70	1457.14
627.04	1448.20
627.39	1439.07
627.73	1430.31
628.08	1422.26
628.43	1414.01
628.77	1405.66
629.12	1397.07
629.46	1388.72
629.81	1379.86
630.15	1371.30
630.50	1362.84
630.84	1353.39
631.19	1344.00
631.53	1335.39
631.88	1326.65
632.22	1317.80
632.57	1309.40
632.91	1300.58
633.26	1291.95
633.60	1283.25
633.95	1274.78
634.29	1266.49
634.64	1258.59
634.98	1250.18
635.32	1241.92
635.67	1234.16
636.01	1226.26
636.36	1218.31
636.70	1210.62
637.05	1203.16
637.39	1195.83
637.73	1188.24
638.08	1181.38
638.42	1174.41
638.77	1166.80
639.11	1159.24
639.45	1151.78
639.80	1144.06
640.14	1136.71
640.49	1129.09
640.83	1121.79
641.17	1114.78
641.52	1107.54
641.86	1100.11
642.20	1093.35
642.55	1085.96
642.89	1078.42
643.23	1070.77
643.58	1064.09
643.92	1057.11
644.26	1050.20
644.61	1043.01
644.95	1036.07
645.29	1028.46
645.64	1020.84
645.98	1013.58
646.32	1006.65
646.66	999.66
647.01	992.89
647.35	986.38
647.69	979.65
648.04	973.24
648.38	966.56
648.72	959.71
649.06	952.85
649.41	945.88
649.75	939.14
650.09	932.34
650.43	925.80
650.78	918.74
651.12	911.80
651.46	905.15
651.80	898.77
652.14	892.50
652.49	886.37
652.83	880.38
653.17	873.92
653.51	867.56
653.85	861.26
654.20	854.90
654.54	847.95
654.88	841.31
655.22	834.57
655.56	827.92
655.90	821.53
656.25	815.44
656.59	809.46
656.93	803.54
657.27	797.63
657.61	791.27
657.95	785.40
658.29	779.59
658.64	773.39
658.98	767.16
659.32	760.96
659.66	755.06
660.00	748.97
660.34	743.32
660.68	737.55
661.02	731.85
661.36	726.43
661.70	721.30
662.05	716.35
662.39	711.39
662.73	706.29
663.07	701.23
663.41	696.15
663.75	690.92
664.09	685.68
664.43	680.56
664.77	675.94
665.11	671.10
665.45	666.30
665.79	661.78
666.13	657.17
666.47	652.44
666.81	647.72
667.15	643.01
667.49	638.49
667.83	634.06
668.17	629.56
668.51	624.90
668.85	620.21
669.19	615.73
669.53	611.35
669.87	606.93
670.21	602.78
670.55	598.53
670.89	594.62
671.23	590.72
671.57	586.67
671.91	582.63
672.25	578.56
672.58	574.59
672.92	570.59
673.26	566.89
673.60	563.27
673.94	559.69
674.28	556.26
674.62	552.89
674.96	549.43
675.30	546.14
675.64	542.84
675.97	539.70
676.31	536.41
676.65	533.11
676.99	530.03
677.33	526.70
677.67	523.49
678.01	520.08
678.34	516.70
678.68	513.49
679.02	510.26
679.36	507.09
679.70	503.92
680.04	500.79
680.37	497.57
680.71	494.31
681.05	491.23
681.39	488.15
681.73	485.09
682.06	482.16
682.40	479.26
682.74	476.34
683.08	473.41
683.42	470.41
683.75	467.47
684.09	464.50
684.43	461.68
684.77	458.88
685.10	456.17
685.44	453.47
685.78	450.83
686.12	448.19
686.45	445.55
686.79	442.91
687.13	440.35
687.46	437.82
687.80	435.30
688.14	432.74
688.48	430.37
688.81	427.84
689.15	425.34
689.49	422.83
689.82	420.39
690.16	417.96
690.50	415.71
690.83	413.53
691.17	411.21
691.51	409.02
691.84	406.91
692.18	404.70
692.52	402.46
692.85	400.15
693.19	398.08
693.52	395.96
693.86	393.86
694.20	391.84
694.53	389.79
694.87	387.73
695.21	385.69
695.54	383.55
695.88	381.45
696.21	379.52
696.55	377.60
696.88	375.67
697.22	373.74
697.56	371.85
697.89	369.95
698.23	368.18
698.56	366.28
698.90	364.46
699.23	362.55
699.57	360.77
699.90	358.99
700.24	357.15
700.58	355.41
700.91	353.71
701.25	352.04
701.58	350.43
701.92	348.89
702.25	347.29
702.59	345.79
702.92	344.34
703.26	342.76
703.59	341.33
703.93	339.94
704.26	338.57
704.60	337.09
704.93	335.61
705.26	334.16
705.60	332.81
705.93	331.43
706.27	330.23
706.60	328.97
706.94	327.75
707.27	326.46
707.61	325.19
707.94	324.00
708.27	322.73
708.61	321.50
708.94	320.31
709.28	319.16
709.61	318.00
709.94	316.90
710.28	315.76
710.61	314.56
710.95	313.35
711.28	312.24
711.61	311.15
711.95	310.10
712.28	309.02
712.61	307.93
712.95	306.83
713.28	305.77
713.61	304.79
713.95	303.79
714.28	302.83
714.61	301.87
714.95	300.87
715.28	299.92
715.61	298.87
715.95	297.87
716.28	296.93
716.61	295.95
716.95	295.00
717.28	294.10
717.61	293.20
717.94	292.35
718.28	291.41
718.61	290.57
718.94	289.74
719.27	288.98
719.61	288.24
719.94	287.50
720.27	286.71
720.60	285.93
720.94	285.20
721.27	284.50
721.60	283.81
721.93	283.13
722.27	282.49
722.60	281.88
722.93	281.22
723.26	280.60
723.59	279.98
723.93	279.32
724.26	278.67
724.59	278.03
724.92	277.40
725.25	276.87
725.59	276.30
725.92	275.72
726.25	275.08
726.58	274.50
726.91	273.94
727.24	273.37
727.57	272.78
727.91	272.19
728.24	271.65
728.57	271.07
728.90	270.55
729.23	269.99
729.56	269.51
729.89	268.98
730.22	268.39
730.55	267.82
730.89	267.29
731.22	266.78
731.55	266.32
731.88	265.83
732.21	265.32
732.54	264.81
732.87	264.31
733.20	263.84
733.53	263.40
733.86	262.91
734.19	262.50
734.52	262.08
734.85	261.70
735.18	261.23
735.51	260.84
735.84	260.35
736.17	259.93
736.50	259.45
736.83	259.18
737.16	258.80
737.49	258.45
737.82	258.08
738.15	257.71
738.48	257.27
738.81	256.87
739.14	256.47
739.47	256.11
739.80	255.76
740.13	255.42
740.46	255.03
740.79	254.65
741.12	254.26
741.45	253.89
741.78	253.49
742.11	253.19
742.44	252.79
742.77	252.48
743.10	252.14
743.43	251.80
743.75	251.38
744.08	251.18
744.41	250.84
744.74	250.51
745.07	250.21
745.40	249.96
745.73	249.71
746.06	249.40
746.39	249.10
746.71	248.76
747.04	248.45
747.37	248.12
747.70	247.88
748.03	247.59
748.36	247.34
748.68	247.07
749.01	246.75
749.34	246.51
749.67	246.28
750.00	246.01
750.33	245.80
750.65	245.52
750.98	245.13
751.31	244.90
751.64	244.65
751.97	244.46
752.29	244.24
752.62	243.93
752.95	243.72
753.28	243.47
753.60	243.27
753.93	243.06
754.26	242.86
754.59	242.60
754.91	242.37
755.24	242.11
755.57	241.90
755.90	241.68
756.22	241.44
756.55	241.19
756.88	240.94
757.20	240.70
757.53	240.51
757.86	240.29
758.19	240.09
758.51	239.88
758.84	239.61
759.17	239.38
759.49	239.24
759.82	239.06
760.15	238.89
760.47	238.68
760.80	238.50
761.13	238.34
761.45	238.18
761.78	238.00
762.11	237.87
762.43	237.69
762.76	237.54
763.08	237.40
763.41	237.27
763.74	237.16
764.06	237.00
764.39	236.80
764.71	236.65
765.04	236.46
765.37	236.35
765.69	236.21
766.02	236.04
766.34	235.90
766.67	235.73
767.00	235.61
767.32	235.55
767.65	235.45
767.97	235.32
768.30	235.19
768.62	235.06
768.95	234.92
769.27	234.80
769.60	234.70
769.92	234.58
770.25	234.44
770.57	234.30
770.90	234.17
771.22	234.07
771.55	233.98
771.87	233.91
772.20	233.78
772.52	233.75
772.85	233.77
773.17	233.65
773.50	233.53
773.82	233.43
774.15	233.26
774.47	233.13
774.80	233.03
775.12	232.92
775.45	232.84
775.77	232.76
776.09	232.66
776.42	232.57
776.74	232.51
777.07	232.41
777.39	232.31
777.72	232.23
778.04	232.17
778.36	232.08
778.69	232.00
779.01	231.91
779.33	231.77
779.66	231.61
779.98	231.53
780.31	231.49
780.63	231.43
780.95	231.35
781.28	231.29
781.60	231.20
781.92	231.10
782.25	231.01
782.57	230.91
782.89	230.85
783.22	230.77
783.54	230.67
783.86	230.65
784.19	230.59
784.51	230.52
784.83	230.47
785.16	230.42
785.48	230.36
785.80	230.33
786.12	230.27
786.45	230.18
786.77	230.14
787.09	230.09
787.42	230.02
787.74	230.01
788.06	229.94
788.38	229.88
788.71	229.83
789.03	229.83
789.35	229.79
789.67	229.73
789.99	229.70
790.32	229.63
790.64	229.55
790.96	229.58
791.28	229.52
791.61	229.48
791.93	229.45
792.25	229.41
792.57	229.43
792.89	229.37
793.21	229.31
793.54	229.28
793.86	229.19
794.18	229.16
794.50	229.09
794.82	229.07
795.14	229.06
795.47	229.06
795.79	228.99
796.11	228.96
796.43	228.91
796.75	228.86
797.07	228.82
797.39	228.80
797.71	228.70
798.04	228.69
798.36	228.63
798.68	228.55
799.00	228.51
799.32	228.43
799.64	228.42
799.96	228.39
800.28	228.35
800.60	228.32
800.92	228.28
801.24	228.24
801.56	228.21
801.89	228.13
802.21	228.08
802.53	228.03
802.85	227.99
803.17	228.00
803.49	227.95
803.81	227.90
804.13	227.87
804.45	227.84
804.77	227.81
805.09	227.78
805.41	227.75
805.73	227.68
806.05	227.62
806.37	227.57
806.69	227.56
807.01	227.52
807.33	227.51
807.65	227.46
807.97	227.50
808.28	227.45
808.60	227.44
808.92	227.42
809.24	227.47
809.56	227.45
809.88	227.40
810.20	227.38
810.52	227.37
810.84	227.32
811.16	227.27
811.48	227.25
811.80	227.27
812.12	227.21
812.43	227.22
812.75	227.20
813.07	227.19
813.39	227.20
813.71	227.15
814.03	227.11
814.35	227.09
814.67	227.03
814.98	226.98
815.30	226.97
815.62	226.92
815.94	226.84
816.26	226.85
816.58	226.82
816.89	226.83
817.21	226.81
817.53	226.84
817.85	226.83
818.17	226.84
818.48	226.77
818.80	226.82
819.12	226.76
819.44	226.75
819.76	226.70
820.07	226.66
820.39	226.63
820.71	226.64
821.03	226.61
821.34	226.57
821.66	226.58
821.98	226.56
822.30	226.57
822.61	226.60
822.93	226.56
823.25	226.50
823.57	226.45
823.88	226.46
824.20	226.45
824.52	226.48
824.83	226.46
825.15	226.44
825.47	226.42
825.79	226.45
826.10	226.41
826.42	226.43
826.74	226.40
827.05	226.41
827.37	226.35
827.69	226.36
828.00	226.33
828.32	226.34
828.64	226.31
828.95	226.32
829.27	226.31
829.58	226.29
829.90	226.33
830.22	226.32
830.53	226.27
830.85	226.21
831.17	226.15
831.48	226.08
831.80	226.10
832.11	226.05
832.43	226.02
832.75	226.02
833.06	226.03
833.38	226.03
833.69	226.04
834.01	226.03
834.32	225.99
834.64	225.99
834.96	225.94
835.27	225.92
835.59	225.92
835.90	225.85
836.22	225.83
836.53	225.80
836.85	225.79
837.16	225.88
837.48	225.87
837.79	225.89
838.11	225.88
838.42	225.86
838.74	225.85
839.05	225.83
839.37	225.83
839.68	225.76
840.00	225.73
840.31	225.72
840.63	225.70
840.94	225.71
841.26	225.67
841.57	225.67
841.88	225.68
842.20	225.60
842.51	225.61
842.83	225.61
843.14	225.67
843.46	225.67
843.77	225.61
844.08	225.61
844.40	225.57
844.71	225.59
845.03	225.54
845.34	225.56
845.65	225.55
845.97	225.54
846.28	225.54
846.60	225.56
846.91	225.52
847.22	225.53
847.54	225.55
847.85	225.59
848.16	225.57
848.48	225.54
848.79	225.60
849.10	225.60
849.42	225.60
849.73	225.54
850.04	225.50
850.36	225.46
850.67	225.49
850.98	225.49
851.30	225.47
851.61	225.49
851.92	225.48
852.23	225.51
852.55	225.52
852.86	225.51
853.17	225.49
853.49	225.49
853.80	225.52
854.11	225.50
854.42	225.49
854.74	225.45
855.05	225.43
855.36	225.38
855.67	225.35
855.99	225.33
856.30	225.42
856.61	225.40
856.92	225.41
857.23	225.38
857.55	225.36
857.86	225.36
858.17	225.37
858.48	225.34
858.79	225.33
859.11	225.31
859.42	225.31
859.73	225.30
860.04	225.29
860.35	225.25
860.66	225.23
860.98	225.19
861.29	225.20
861.60	225.21
861.91	225.25
862.22	225.23
862.53	225.15
862.84	225.05
863.16	225.10
863.47	225.06
863.78	225.03
864.09	225.04
864.40	225.03
864.71	225.01
865.02	225.00
865.33	224.97
865.64	224.94
865.95	224.94
866.27	225.02
866.58	224.99
866.89	224.98
867.20	224.96
867.51	224.94
867.82	224.99
868.13	224.97
868.44	224.93
868.75	224.96
869.06	225.00
869.37	225.00
869.68	224.98
869.99	224.99
870.30	225.04
870.61	225.04
870.92	224.99
871.23	225.00
871.54	225.02
871.85	225.06
872.16	225.08
872.47	225.04
872.78	224.97
873.09	225.04
873.40	225.04
873.71	225.07
874.02	225.08
874.33	225.02
874.64	225.02
874.95	225.02
875.26	224.97
875.56	224.98
875.87	224.94
876.18	224.91
876.49	225.05
876.80	225.01
877.11	224.99
877.42	225.03
877.73	225.02
878.04	224.98
878.35	225.00
878.66	225.01
878.96	225.04
879.27	225.03
879.58	224.98
879.89	224.97
880.20	224.98
880.51	224.99
880.82	225.00
881.12	225.03
881.43	225.02
881.74	225.03
882.05	225.00
882.36	225.02
882.67	225.05
882.97	224.88
883.28	224.82
883.59	224.82
883.90	224.80
884.21	224.83
884.51	224.86
884.82	224.83
885.13	224.81
885.44	224.80
885.74	224.81
886.05	224.82
886.36	224.84
886.67	224.82
886.98	224.89
887.28	224.90
887.59	224.89
887.90	224.90
888.20	224.91
888.51	224.95
888.82	224.95
889.13	224.97
889.43	225.07
889.74	225.11
890.05	225.15
890.35	225.14
890.66	225.13
890.97	225.12
891.28	225.09
891.58	225.14
891.89	225.14
892.20	225.12
892.50	225.11
892.81	225.11
893.12	225.11
893.42	225.07
893.73	225.07
894.04	225.10
894.34	225.12
894.65	225.13
894.95	225.12
895.26	225.13
895.57	225.15
895.87	225.07
896.18	225.10
896.48	225.13
896.79	225.18
897.10	225.15
897.40	225.13
897.71	225.15
898.01	225.14
898.32	225.14
898.63	225.14
898.93	225.14
899.24	225.14
899.54	225.13
899.85	225.13
900.15	225.12
900.46	225.10
900.76	225.10
901.07	225.11
901.38	225.11
901.68	225.13
901.99	225.08
902.29	225.07
902.60	225.08
902.90	225.02
903.21	224.99
903.51	225.02
903.82	225.06
904.12	225.06
904.43	225.03
904.73	225.00
905.03	224.98
905.34	225.04
905.64	225.02
905.95	225.01
906.25	225.00
906.56	225.00
906.86	225.02
907.17	224.98
907.47	224.97
907.77	224.96
908.08	224.92
908.38	224.91
908.69	224.92
908.99	224.90
909.30	224.90
909.60	224.88
909.90	224.84
910.21	224.80
910.51	224.78
910.81	224.78
911.12	224.80
911.42	224.82
911.73	224.72
912.03	224.69
912.33	224.71
912.64	224.68
912.94	224.68
913.24	224.60
913.55	224.60
913.85	224.59
914.15	224.62
914.46	224.61
914.76	224.61
915.06	224.59
915.37	224.59
915.67	224.56
915.97	224.55
916.27	224.53
916.58	224.52
916.88	224.49
917.18	224.51
917.49	224.58
917.79	224.54
918.09	224.56
918.39	224.60
918.70	224.60
919.00	224.60
919.30	224.61
919.60	224.61
919.91	224.58
920.21	224.57
920.51	224.53
920.81	224.52
921.12	224.56
921.42	224.55
921.72	224.53
922.02	224.55
922.32	224.60
922.63	224.62
922.93	224.66
923.23	224.69
923.53	224.70
923.83	224.64
924.13	224.67
924.44	224.67
924.74	224.72
925.04	224.74
925.34	224.73
925.64	224.71
925.94	224.70
926.24	224.80
926.55	224.81
926.85	224.79
927.15	224.81
927.45	224.81
927.75	224.80
928.05	224.81
928.35	224.83
928.65	224.84
928.95	224.84
929.26	224.82
929.56	224.85
929.86	224.82
930.16	224.81
930.46	224.86
930.76	224.89
931.06	224.84
931.36	224.83
931.66	224.89
931.96	224.90
932.26	224.95
932.56	224.89
932.86	224.89
933.16	224.93
933.46	224.94
933.76	224.87
934.06	224.92
934.36	224.99
934.66	224.99
934.96	224.97
935.26	224.99
935.56	225.01
935.86	224.99
936.16	224.97
936.46	225.01
936.76	224.99
937.06	224.98
937.36	224.97
937.66	224.96
937.96	224.96
938.26	224.95
938.56	224.96
938.86	224.99
939.16	225.02
939.46	225.07
939.76	225.06
940.06	225.09
940.35	225.07
940.65	225.03
940.95	225.03
941.25	225.03
941.55	225.01
941.85	225.00
942.15	225.01
942.45	225.05
942.75	225.01
943.04	224.97
943.34	224.97
943.64	224.96
943.94	224.93
944.24	224.93
944.54	224.93
944.84	224.92
945.13	224.90
945.43	224.90
945.73	224.88
946.03	224.86
946.33	224.85
946.62	224.82
946.92	224.79
947.22	224.78
947.52	224.78
947.82	224.79
948.11	224.77
948.41	224.75
948.71	224.71
949.01	224.73
949.31	224.72
949.60	224.70
949.90	224.72
950.20	224.72
950.50	224.69
950.79	224.67
951.09	224.67
951.39	224.65
951.69	224.60
951.98	224.59
952.28	224.62
952.58	224.61
952.87	224.63
953.17	224.65
953.47	224.63
953.76	224.63
954.06	224.61
954.36	224.60
954.66	224.57
954.95	224.59
955.25	224.56
955.55	224.56
955.84	224.54
956.14	224.54
956.44	224.54
956.73	224.50
957.03	224.51
957.32	224.52
957.62	224.50
957.92	224.52
958.21	224.53
958.51	224.60
958.81	224.61
959.10	224.63
959.40	224.66
959.69	224.64
959.99	224.66
960.29	224.66
960.58	224.62
960.88	224.70
961.17	224.72
961.47	224.75
961.76	224.76
962.06	224.77
962.36	224.76
962.65	224.80
962.95	224.83
963.24	224.81
963.54	224.81
963.83	224.82
964.13	224.80
964.42	224.80
964.72	224.74
965.01	224.73
965.31	224.73
965.60	224.69
965.90	224.77
966.19	224.75
966.49	224.77
966.78	224.81
967.08	224.79
967.37	224.81
967.67	224.79
967.96	224.82
968.26	224.85
968.55	224.89
968.85	224.88
969.14	224.89
969.43	224.89
969.73	224.88
970.02	224.88
970.32	224.91
970.61	224.86
970.91	224.85
971.20	224.84
971.49	224.84
971.79	224.87
972.08	224.81
972.38	224.80
972.67	224.80
972.96	224.81
973.26	224.80
973.55	224.81
973.85	224.81
974.14	224.80
974.43	224.79
974.73	224.77
975.02	224.75
975.31	224.75
975.61	224.77
975.90	224.80
976.19	224.82
976.49	224.79
976.78	224.83
977.07	224.82
977.37	224.83
977.66	224.81
977.95	224.78
978.24	224.77
978.54	224.82
978.83	224.81
979.12	224.78
979.42	224.78
979.71	224.77
980.00	224.75
980.29	224.76
980.59	224.75
980.88	224.78
981.17	224.79
981.46	224.80
981.76	224.80
982.05	224.81
982.34	224.82
982.63	224.85
982.93	224.85
983.22	224.88
983.51	224.92
983.80	224.92
984.09	224.92
984.39	224.93
984.68	224.87
984.97	224.88
985.26	224.88
985.55	224.87
985.85	224.82
986.14	224.84
986.43	224.83
986.72	224.81
987.01	224.77
987.30	224.74
987.59	224.73
987.89	224.72
988.18	224.68
988.47	224.61
988.76	224.61
989.05	224.58
989.34	224.55
989.63	224.54
989.92	224.54
990.22	224.55
990.51	224.54
990.80	224.56
991.09	224.53
991.38	224.54
991.67	224.56
991.96	224.58
992.25	224.59
992.54	224.56
992.83	224.54
993.12	224.54
993.41	224.55
993.70	224.59
993.99	224.62
994.28	224.62
994.58	224.66
994.87	224.63
995.16	224.63
995.45	224.62
995.74	224.58
996.03	224.58
996.32	224.57
996.61	224.56
996.90	224.55
997.19	224.59
997.48	224.62
997.77	224.62
998.06	224.63
998.34	224.63
998.63	224.63
998.92	224.64
999.21	224.65
999.50	224.70
999.79	224.66
1000.08	224.62
1000.37	224.62
1000.66	224.59
1000.95	224.60
1001.24	224.58
1001.53	224.60
1001.82	224.60
1002.11	224.58
1002.40	224.61
1002.68	224.65
1002.97	224.71
1003.26	224.68
1003.55	224.65
1003.84	224.65
1004.13	224.65
1004.42	224.65
1004.71	224.66
1004.99	224.64
1005.28	224.66
1005.57	224.60
1005.86	224.60
1006.15	224.60
1006.44	224.55
1006.72	224.57
1007.01	224.52
1007.30	224.56
1007.59	224.53
1007.88	224.54
1008.17	224.58
1008.45	224.54
1008.74	224.50
1009.03	224.45
1009.32	224.47
1009.60	224.46
1009.89	224.43
1010.18	224.39
1010.47	224.39
1010.76	224.40
1011.04	224.43
1011.33	224.45
1011.62	224.42
1011.91	224.41
1012.19	224.43
1012.48	224.46
1012.77	224.46
1013.05	224.54
1013.34	224.56
1013.63	224.56
1013.92	224.56
1014.20	224.51
1014.49	224.51
1014.78	224.53
1015.06	224.51
1015.35	224.47
1015.64	224.50
1015.92	224.53
1016.21	224.56
1016.50	224.58
1016.78	224.55
1017.07	224.52
1017.36	224.50
1017.64	224.53
1017.93	224.59
1018.22	224.59
1018.50	224.63
1018.79	224.64
1019.08	224.58
1019.36	224.56
1019.65	224.52
1019.93	224.56
1020.22	224.60
1020.51	224.64
1020.79	224.61
1021.08	224.62
1021.36	225.10
1021.65	224.55
1021.94	224.26
1022.22	224.29
1022.51	223.79
1022.79	225.07
1023.08	224.64
1023.36	225.18
1023.65	224.29
>>>>>End Processed Spectral Data<<<<<
