SpectraSuite Data File
++++++++++++++++++++++++++++++++++++
Date: Fri Feb 01 14:49:15 EST 2013
User: group
Dark Spectrum Present: No
Reference Spectrum Present: No
Number of Sampled Component Spectra: 1
Spectrometers: USB2E7196
Integration Time (usec): 35000 (USB2E7196)
Spectra Averaged: 100 (USB2E7196)
Boxcar Smoothing: 10 (USB2E7196)
Correct for Electrical Dark: No (USB2E7196)
Strobe/Lamp Enabled: No (USB2E7196)
Correct for Detector Non-linearity: No (USB2E7196)
Correct for Stray Light: No (USB2E7196)
Number of Pixels in Processed Spectrum: 2048
>>>>>Begin Processed Spectral Data<<<<<
339.09	0.00
339.48	215.76
339.86	217.54
340.24	219.18
340.63	220.18
341.01	222.66
341.39	222.56
341.78	224.25
342.16	224.99
342.54	225.80
342.93	214.07
343.31	224.90
343.69	225.42
344.07	225.89
344.46	226.28
344.84	226.65
345.22	226.90
345.60	227.14
345.99	227.30
346.37	227.45
346.75	227.54
347.13	227.61
347.52	227.68
347.90	227.77
348.28	227.79
348.66	227.83
349.05	227.81
349.43	227.87
349.81	227.91
350.19	227.92
350.57	227.95
350.96	228.02
351.34	228.10
351.72	228.20
352.10	228.25
352.48	228.32
352.87	228.38
353.25	228.42
353.63	228.48
354.01	228.55
354.39	228.60
354.77	228.69
355.15	228.78
355.54	228.80
355.92	228.80
356.30	228.89
356.68	229.03
357.06	229.10
357.44	229.15
357.82	229.22
358.20	229.29
358.58	229.35
358.97	229.41
359.35	229.45
359.73	229.51
360.11	229.55
360.49	229.60
360.87	229.63
361.25	229.69
361.63	229.79
362.01	229.85
362.39	229.88
362.77	229.91
363.15	229.96
363.53	229.99
363.91	230.02
364.29	230.02
364.67	229.94
365.05	229.91
365.43	229.92
365.81	229.94
366.19	229.96
366.57	229.98
366.95	229.95
367.33	229.92
367.71	229.89
368.09	229.89
368.47	229.84
368.85	229.76
369.23	229.73
369.61	229.62
369.99	229.58
370.37	229.56
370.75	229.55
371.13	229.45
371.51	229.38
371.89	229.36
372.27	229.35
372.65	229.28
373.03	229.24
373.41	229.16
373.78	229.07
374.16	228.96
374.54	228.86
374.92	228.75
375.30	228.70
375.68	228.64
376.06	228.57
376.44	228.51
376.82	228.49
377.19	228.43
377.57	228.34
377.95	228.26
378.33	228.13
378.71	228.02
379.09	227.94
379.47	227.89
379.84	227.82
380.22	227.71
380.60	227.63
380.98	227.57
381.36	227.51
381.73	227.42
382.11	227.37
382.49	227.28
382.87	227.24
383.25	227.16
383.62	227.17
384.00	227.09
384.38	227.02
384.76	226.96
385.13	226.96
385.51	226.95
385.89	226.87
386.27	226.85
386.64	226.77
387.02	226.76
387.40	226.71
387.78	226.68
388.15	226.65
388.53	226.62
388.91	226.59
389.29	226.54
389.66	226.56
390.04	226.51
390.42	226.52
390.79	226.54
391.17	226.51
391.55	226.42
391.92	226.43
392.30	226.47
392.68	226.43
393.05	226.42
393.43	226.45
393.81	226.49
394.18	226.49
394.56	226.53
394.94	226.58
395.31	226.60
395.69	226.64
396.06	226.71
396.44	226.76
396.82	226.83
397.19	226.94
397.57	227.00
397.95	227.10
398.32	227.18
398.70	227.26
399.07	227.38
399.45	227.47
399.82	227.59
400.20	227.68
400.58	227.81
400.95	227.86
401.33	227.96
401.70	228.11
402.08	228.26
402.45	228.38
402.83	228.51
403.20	228.65
403.58	228.75
403.95	228.90
404.33	229.05
404.71	229.19
405.08	229.42
405.46	229.59
405.83	229.74
406.21	229.88
406.58	230.05
406.96	230.22
407.33	230.38
407.70	230.57
408.08	230.85
408.45	231.09
408.83	231.34
409.20	231.55
409.58	231.77
409.95	232.03
410.33	232.33
410.70	232.57
411.08	232.88
411.45	233.17
411.82	233.46
412.20	233.83
412.57	234.26
412.95	234.53
413.32	234.92
413.69	235.31
414.07	235.74
414.44	236.17
414.82	236.65
415.19	237.19
415.56	237.73
415.94	238.27
416.31	238.87
416.68	239.48
417.06	240.19
417.43	240.84
417.81	241.62
418.18	242.35
418.55	243.20
418.93	244.05
419.30	244.93
419.67	245.88
420.04	246.81
420.42	247.76
420.79	248.90
421.16	250.03
421.54	251.24
421.91	252.43
422.28	253.70
422.66	255.03
423.03	256.33
423.40	257.63
423.77	258.98
424.15	260.39
424.52	261.85
424.89	263.41
425.26	264.94
425.64	266.34
426.01	267.93
426.38	269.54
426.75	271.21
427.13	272.94
427.50	274.70
427.87	276.55
428.24	278.38
428.61	280.12
428.99	282.05
429.36	284.11
429.73	286.20
430.10	288.20
430.47	290.24
430.85	292.33
431.22	294.58
431.59	296.99
431.96	299.24
432.33	301.73
432.70	304.12
433.08	306.91
433.45	309.58
433.82	312.16
434.19	315.05
434.56	317.87
434.93	320.54
435.30	323.18
435.68	326.07
436.05	328.94
436.42	331.73
436.79	334.24
437.16	336.93
437.53	339.78
437.90	342.58
438.27	345.33
438.64	348.17
439.01	350.75
439.38	352.97
439.75	355.12
440.13	357.62
440.50	359.99
440.87	361.88
441.24	363.83
441.61	365.97
441.98	367.49
442.35	369.26
442.72	371.10
443.09	372.91
443.46	373.93
443.83	374.56
444.20	375.04
444.57	375.90
444.94	376.21
445.31	376.51
445.68	376.89
446.05	377.01
446.42	376.69
446.79	376.32
447.16	375.91
447.53	375.61
447.90	374.50
448.27	373.34
448.64	371.74
449.01	370.62
449.37	368.67
449.74	366.75
450.11	364.56
450.48	362.09
450.85	359.60
451.22	357.45
451.59	355.41
451.96	353.50
452.33	350.92
452.70	348.60
453.07	345.80
453.43	342.95
453.80	340.17
454.17	337.45
454.54	334.89
454.91	332.17
455.28	329.49
455.65	327.03
456.02	324.55
456.38	322.42
456.75	319.76
457.12	317.55
457.49	315.35
457.86	313.17
458.23	311.35
458.59	309.29
458.96	307.20
459.33	305.34
459.70	303.50
460.07	302.02
460.43	300.31
460.80	298.68
461.17	297.19
461.54	295.70
461.91	294.26
462.27	292.80
462.64	291.54
463.01	290.16
463.38	288.84
463.74	287.49
464.11	286.35
464.48	285.32
464.85	284.19
465.21	283.30
465.58	282.32
465.95	281.14
466.32	280.21
466.68	279.30
467.05	278.38
467.42	277.47
467.78	276.47
468.15	275.57
468.52	274.87
468.88	273.99
469.25	273.19
469.62	272.57
469.98	271.87
470.35	271.21
470.72	270.62
471.08	269.92
471.45	269.34
471.82	268.72
472.18	268.05
472.55	267.62
472.92	267.09
473.28	266.64
473.65	266.17
474.02	265.73
474.38	265.36
474.75	264.98
475.11	264.61
475.48	264.36
475.85	264.09
476.21	263.81
476.58	263.60
476.94	263.41
477.31	263.18
477.67	263.01
478.04	262.89
478.41	262.83
478.77	262.83
479.14	262.73
479.50	262.77
479.87	262.84
480.23	262.88
480.60	262.92
480.96	263.03
481.33	263.23
481.69	263.44
482.06	263.60
482.42	263.83
482.79	264.07
483.15	264.35
483.52	264.73
483.88	265.11
484.25	265.51
484.61	265.93
484.98	266.39
485.34	266.95
485.71	267.52
486.07	268.09
486.44	268.64
486.80	269.39
487.17	270.09
487.53	270.88
487.90	271.75
488.26	272.65
488.62	273.59
488.99	274.55
489.35	275.56
489.72	276.69
490.08	277.85
490.44	279.09
490.81	280.45
491.17	281.78
491.54	283.28
491.90	284.82
492.26	286.47
492.63	288.23
492.99	289.98
493.36	291.85
493.72	293.90
494.08	296.03
494.45	298.27
494.81	300.61
495.17	303.06
495.54	305.59
495.90	308.28
496.26	311.07
496.63	314.02
496.99	317.10
497.35	320.34
497.72	323.75
498.08	327.24
498.44	330.85
498.80	334.76
499.17	338.71
499.53	342.80
499.89	347.13
500.26	351.56
500.62	356.17
500.98	361.17
501.34	366.17
501.71	371.49
502.07	376.90
502.43	382.43
502.79	388.25
503.16	394.28
503.52	400.51
503.88	406.84
504.24	413.46
504.60	420.32
504.97	427.38
505.33	434.63
505.69	442.27
506.05	450.03
506.41	457.84
506.78	466.01
507.14	474.46
507.50	483.15
507.86	492.08
508.22	501.32
508.59	510.41
508.95	519.96
509.31	529.69
509.67	539.72
510.03	550.00
510.39	560.48
510.75	571.25
511.12	582.16
511.48	593.42
511.84	604.72
512.20	616.15
512.56	627.99
512.92	640.11
513.28	652.43
513.64	664.79
514.00	677.51
514.37	690.38
514.73	703.33
515.09	716.34
515.45	729.67
515.81	743.15
516.17	757.16
516.53	771.26
516.89	785.41
517.25	799.56
517.61	813.98
517.97	828.31
518.33	842.69
518.69	857.41
519.05	872.42
519.41	887.65
519.77	903.23
520.13	918.74
520.49	934.15
520.85	949.55
521.21	965.32
521.57	981.59
521.93	997.48
522.29	1013.96
522.65	1030.24
523.01	1046.44
523.37	1062.52
523.73	1078.63
524.09	1094.80
524.45	1111.14
524.81	1127.95
525.17	1144.83
525.53	1161.82
525.89	1178.74
526.25	1195.57
526.61	1211.95
526.97	1228.79
527.33	1245.39
527.68	1262.01
528.04	1278.57
528.40	1295.26
528.76	1312.45
529.12	1329.05
529.48	1345.83
529.84	1361.80
530.20	1378.57
530.56	1395.64
530.91	1413.03
531.27	1429.91
531.63	1446.39
531.99	1463.03
532.35	1478.85
532.71	1494.80
533.07	1511.24
533.42	1527.24
533.78	1543.44
534.14	1559.77
534.50	1575.03
534.86	1590.78
535.21	1606.05
535.57	1621.97
535.93	1637.50
536.29	1652.26
536.65	1667.40
537.00	1682.35
537.36	1697.70
537.72	1712.29
538.08	1726.81
538.44	1740.68
538.79	1754.64
539.15	1768.45
539.51	1782.27
539.87	1796.76
540.22	1810.58
540.58	1824.24
540.94	1837.53
541.29	1850.47
541.65	1863.20
542.01	1876.60
542.37	1889.05
542.72	1901.48
543.08	1913.47
543.44	1925.93
543.79	1937.19
544.15	1948.12
544.51	1959.55
544.87	1970.77
545.22	1981.51
545.58	1991.84
545.94	2001.70
546.29	2011.65
546.65	2021.43
547.01	2030.62
547.36	2039.36
547.72	2047.75
548.07	2055.73
548.43	2064.05
548.79	2071.93
549.14	2079.59
549.50	2086.95
549.86	2094.65
550.21	2101.96
550.57	2109.04
550.92	2115.49
551.28	2122.69
551.64	2129.75
551.99	2136.24
552.35	2142.15
552.70	2148.12
553.06	2153.94
553.41	2160.12
553.77	2165.91
554.13	2171.85
554.48	2177.87
554.84	2183.06
555.19	2188.31
555.55	2193.18
555.90	2197.41
556.26	2202.20
556.61	2206.65
556.97	2210.64
557.32	2214.71
557.68	2218.70
558.03	2222.68
558.39	2226.24
558.74	2230.56
559.10	2234.17
559.45	2237.76
559.81	2241.90
560.16	2245.49
560.52	2248.44
560.87	2251.74
561.23	2254.20
561.58	2256.91
561.94	2259.29
562.29	2261.60
562.64	2264.17
563.00	2266.70
563.35	2270.14
563.71	2273.06
564.06	2276.02
564.42	2278.75
564.77	2280.96
565.12	2283.04
565.48	2284.76
565.83	2286.45
566.19	2287.47
566.54	2288.39
566.89	2289.32
567.25	2289.81
567.60	2291.13
567.96	2292.73
568.31	2293.28
568.66	2294.03
569.02	2294.43
569.37	2294.51
569.72	2295.03
570.08	2294.66
570.43	2294.29
570.78	2293.14
571.14	2291.30
571.49	2289.76
571.84	2289.13
572.20	2287.68
572.55	2286.36
572.90	2284.56
573.26	2282.95
573.61	2281.06
573.96	2279.02
574.31	2275.79
574.67	2272.39
575.02	2268.51
575.37	2264.65
575.72	2260.58
576.08	2257.11
576.43	2253.64
576.78	2249.78
577.13	2246.39
577.49	2243.16
577.84	2239.47
578.19	2235.75
578.54	2232.02
578.90	2227.57
579.25	2221.89
579.60	2216.75
579.95	2211.52
580.30	2206.32
580.66	2200.75
581.01	2195.57
581.36	2190.20
581.71	2185.84
582.06	2181.26
582.42	2176.54
582.77	2171.13
583.12	2166.42
583.47	2161.56
583.82	2156.33
584.17	2150.80
584.53	2145.13
584.88	2139.45
585.23	2133.52
585.58	2127.80
585.93	2122.00
586.28	2116.99
586.63	2111.77
586.98	2106.66
587.34	2101.83
587.69	2096.82
588.04	2091.57
588.39	2085.68
588.74	2079.12
589.09	2072.79
589.44	2065.86
589.79	2059.63
590.14	2053.91
590.49	2047.15
590.84	2040.47
591.19	2034.28
591.54	2027.74
591.89	2020.32
592.25	2013.31
592.60	2006.03
592.95	1998.34
593.30	1991.04
593.65	1983.29
594.00	1976.17
594.35	1968.69
594.70	1960.42
595.05	1953.07
595.40	1945.72
595.75	1938.22
596.10	1931.96
596.45	1924.90
596.80	1918.54
597.15	1911.80
597.50	1904.70
597.85	1898.26
598.19	1891.72
598.54	1884.68
598.89	1878.01
599.24	1871.93
599.59	1865.22
599.94	1859.01
600.29	1852.65
600.64	1845.91
600.99	1838.47
601.34	1831.51
601.69	1824.48
602.04	1817.65
602.39	1810.26
602.74	1803.34
603.08	1796.65
603.43	1789.89
603.78	1782.77
604.13	1775.60
604.48	1768.37
604.83	1761.57
605.18	1754.62
605.53	1746.52
605.87	1738.39
606.22	1731.19
606.57	1723.38
606.92	1716.02
607.27	1708.75
607.62	1701.92
607.96	1694.80
608.31	1688.37
608.66	1680.78
609.01	1673.33
609.36	1665.90
609.70	1658.04
610.05	1650.13
610.40	1642.70
610.75	1634.58
611.10	1626.99
611.44	1618.80
611.79	1610.93
612.14	1602.22
612.49	1593.24
612.83	1585.12
613.18	1577.25
613.53	1569.22
613.88	1560.71
614.22	1552.66
614.57	1544.32
614.92	1536.41
615.27	1528.99
615.61	1520.79
615.96	1512.95
616.31	1505.42
616.65	1498.11
617.00	1490.62
617.35	1482.96
617.70	1474.48
618.04	1465.94
618.39	1457.82
618.74	1450.31
619.08	1442.09
619.43	1434.84
619.78	1427.91
620.12	1420.82
620.47	1413.33
620.82	1405.37
621.16	1398.11
621.51	1390.47
621.85	1382.96
622.20	1374.65
622.55	1366.38
622.89	1358.66
623.24	1351.25
623.59	1344.05
623.93	1336.71
624.28	1329.61
624.62	1322.23
624.97	1315.17
625.32	1308.54
625.66	1301.51
626.01	1294.47
626.35	1287.28
626.70	1279.51
627.04	1271.95
627.39	1264.32
627.73	1257.01
628.08	1250.15
628.43	1242.94
628.77	1235.76
629.12	1228.30
629.46	1221.14
629.81	1213.92
630.15	1206.79
630.50	1199.40
630.84	1191.31
631.19	1183.48
631.53	1176.11
631.88	1168.78
632.22	1161.40
632.57	1154.27
632.91	1147.04
633.26	1139.66
633.60	1132.19
633.95	1125.26
634.29	1118.37
634.64	1111.79
634.98	1104.63
635.32	1097.66
635.67	1091.25
636.01	1084.83
636.36	1078.19
636.70	1071.74
637.05	1065.26
637.39	1059.06
637.73	1052.72
638.08	1047.04
638.42	1041.10
638.77	1034.79
639.11	1028.34
639.45	1021.99
639.80	1015.45
640.14	1009.13
640.49	1002.73
640.83	996.67
641.17	990.52
641.52	984.32
641.86	978.06
642.20	972.26
642.55	965.97
642.89	959.65
643.23	953.19
643.58	947.52
643.92	941.44
644.26	935.44
644.61	929.40
644.95	923.34
645.29	916.80
645.64	910.15
645.98	903.88
646.32	898.05
646.66	892.11
647.01	886.39
647.35	880.71
647.69	874.95
648.04	869.51
648.38	863.85
648.72	857.90
649.06	851.83
649.41	845.99
649.75	840.06
650.09	834.13
650.43	828.27
650.78	822.14
651.12	816.28
651.46	810.58
651.80	804.89
652.14	799.67
652.49	794.34
652.83	789.22
653.17	783.65
653.51	778.02
653.85	772.56
654.20	766.95
654.54	761.07
654.88	755.41
655.22	749.55
655.56	743.91
655.90	738.44
656.25	733.21
656.59	727.88
656.93	722.94
657.27	717.79
657.61	712.48
657.95	707.46
658.29	702.43
658.64	697.24
658.98	692.00
659.32	686.51
659.66	681.36
660.00	676.16
660.34	671.21
660.68	666.38
661.02	661.53
661.36	656.90
661.70	652.45
662.05	648.13
662.39	643.86
662.73	639.40
663.07	635.12
663.41	630.75
663.75	626.32
664.09	621.80
664.43	617.60
664.77	613.54
665.11	609.37
665.45	605.32
665.79	601.41
666.13	597.35
666.47	593.32
666.81	589.20
667.15	585.12
667.49	581.27
667.83	577.45
668.17	573.58
668.51	569.62
668.85	565.69
669.19	561.92
669.53	558.17
669.87	554.39
670.21	550.81
670.55	547.27
670.89	543.98
671.23	540.59
671.57	537.11
671.91	533.69
672.25	530.30
672.58	526.85
672.92	523.48
673.26	520.35
673.60	517.29
673.94	514.29
674.28	511.44
674.62	508.59
674.96	505.57
675.30	502.70
675.64	499.85
675.97	497.21
676.31	494.44
676.65	491.58
676.99	488.95
677.33	486.06
677.67	483.31
678.01	480.35
678.34	477.43
678.68	474.53
679.02	471.74
679.36	468.96
679.70	466.35
680.04	463.58
680.37	460.76
680.71	458.02
681.05	455.45
681.39	452.74
681.73	450.14
682.06	447.62
682.40	445.12
682.74	442.58
683.08	440.01
683.42	437.40
683.75	434.94
684.09	432.44
684.43	430.10
684.77	427.67
685.10	425.31
685.44	423.09
685.78	420.88
686.12	418.64
686.45	416.44
686.79	414.09
687.13	411.97
687.46	409.88
687.80	407.82
688.14	405.60
688.48	403.63
688.81	401.46
689.15	399.36
689.49	397.25
689.82	395.21
690.16	393.16
690.50	391.25
690.83	389.35
691.17	387.35
691.51	385.42
691.84	383.58
692.18	381.66
692.52	379.62
692.85	377.71
693.19	375.89
693.52	374.06
693.86	372.27
694.20	370.51
694.53	368.72
694.87	366.84
695.21	365.08
695.54	363.32
695.88	361.56
696.21	359.88
696.55	358.24
696.88	356.55
697.22	354.90
697.56	353.31
697.89	351.64
698.23	350.08
698.56	348.53
698.90	346.93
699.23	345.32
699.57	343.83
699.90	342.32
700.24	340.79
700.58	339.22
700.91	337.77
701.25	336.33
701.58	334.99
701.92	333.67
702.25	332.32
702.59	330.89
702.92	329.59
703.26	328.25
703.59	326.95
703.93	325.82
704.26	324.60
704.60	323.29
704.93	322.08
705.26	320.87
705.60	319.68
705.93	318.55
706.27	317.54
706.60	316.56
706.94	315.49
707.27	314.40
707.61	313.40
707.94	312.39
708.27	311.31
708.61	310.23
708.94	309.24
709.28	308.30
709.61	307.41
709.94	306.53
710.28	305.59
710.61	304.68
710.95	303.58
711.28	302.67
711.61	301.75
711.95	300.85
712.28	299.93
712.61	298.98
712.95	298.09
713.28	297.21
713.61	296.29
713.95	295.43
714.28	294.60
714.61	293.77
714.95	292.96
715.28	292.15
715.61	291.27
715.95	290.43
716.28	289.59
716.61	288.79
716.95	287.97
717.28	287.25
717.61	286.49
717.94	285.82
718.28	285.04
718.61	284.35
718.94	283.70
719.27	283.04
719.61	282.45
719.94	281.79
720.27	281.10
720.60	280.44
720.94	279.85
721.27	279.29
721.60	278.74
721.93	278.13
722.27	277.61
722.60	277.08
722.93	276.50
723.26	275.98
723.59	275.41
723.93	274.87
724.26	274.29
724.59	273.74
724.92	273.23
725.25	272.79
725.59	272.32
725.92	271.79
726.25	271.27
726.58	270.79
726.91	270.31
727.24	269.84
727.57	269.39
727.91	268.89
728.24	268.38
728.57	267.90
728.90	267.47
729.23	266.97
729.56	266.56
729.89	266.12
730.22	265.62
730.55	265.19
730.89	264.71
731.22	264.28
731.55	263.84
731.88	263.38
732.21	262.94
732.54	262.50
732.87	262.07
733.20	261.66
733.53	261.26
733.86	260.86
734.19	260.49
734.52	260.13
734.85	259.77
735.18	259.36
735.51	258.97
735.84	258.56
736.17	258.20
736.50	257.79
736.83	257.51
737.16	257.20
737.49	256.85
737.82	256.52
738.15	256.18
738.48	255.85
738.81	255.51
739.14	255.16
739.47	254.80
739.80	254.45
740.13	254.17
740.46	253.80
740.79	253.48
741.12	253.13
741.45	252.78
741.78	252.43
742.11	252.15
742.44	251.82
742.77	251.57
743.10	251.23
743.43	250.95
743.75	250.59
744.08	250.42
744.41	250.13
744.74	249.83
745.07	249.55
745.40	249.30
745.73	249.06
746.06	248.79
746.39	248.56
746.71	248.27
747.04	247.96
747.37	247.70
747.70	247.44
748.03	247.19
748.36	247.00
748.68	246.75
749.01	246.49
749.34	246.30
749.67	246.04
750.00	245.81
750.33	245.63
750.65	245.41
750.98	245.08
751.31	244.86
751.64	244.65
751.97	244.50
752.29	244.31
752.62	244.09
752.95	243.88
753.28	243.67
753.60	243.53
753.93	243.37
754.26	243.22
754.59	243.03
754.91	242.85
755.24	242.63
755.57	242.51
755.90	242.33
756.22	242.16
756.55	241.98
756.88	241.84
757.20	241.62
757.53	241.46
757.86	241.30
758.19	241.17
758.51	241.04
758.84	240.87
759.17	240.70
759.49	240.56
759.82	240.47
760.15	240.34
760.47	240.18
760.80	240.03
761.13	239.89
761.45	239.78
761.78	239.69
762.11	239.56
762.43	239.42
762.76	239.30
763.08	239.18
763.41	239.05
763.74	238.90
764.06	238.77
764.39	238.61
764.71	238.52
765.04	238.35
765.37	238.24
765.69	238.08
766.02	237.93
766.34	237.79
766.67	237.62
767.00	237.53
767.32	237.46
767.65	237.41
767.97	237.29
768.30	237.15
768.62	237.01
768.95	236.89
769.27	236.75
769.60	236.65
769.92	236.55
770.25	236.44
770.57	236.32
770.90	236.25
771.22	236.14
771.55	236.03
771.87	235.97
772.20	235.85
772.52	235.83
772.85	235.88
773.17	235.78
773.50	235.66
773.82	235.54
774.15	235.44
774.47	235.27
774.80	235.16
775.12	235.04
775.45	234.95
775.77	234.87
776.09	234.81
776.42	234.72
776.74	234.65
777.07	234.55
777.39	234.50
777.72	234.40
778.04	234.35
778.36	234.23
778.69	234.13
779.01	234.06
779.33	233.89
779.66	233.70
779.98	233.64
780.31	233.59
780.63	233.54
780.95	233.45
781.28	233.35
781.60	233.27
781.92	233.19
782.25	233.12
782.57	233.05
782.89	232.97
783.22	232.86
783.54	232.75
783.86	232.67
784.19	232.56
784.51	232.49
784.83	232.39
785.16	232.35
785.48	232.30
785.80	232.23
786.12	232.19
786.45	232.11
786.77	232.05
787.09	232.00
787.42	231.91
787.74	231.87
788.06	231.86
788.38	231.82
788.71	231.78
789.03	231.74
789.35	231.71
789.67	231.65
789.99	231.62
790.32	231.61
790.64	231.58
790.96	231.64
791.28	231.58
791.61	231.58
791.93	231.55
792.25	231.48
792.57	231.54
792.89	231.49
793.21	231.47
793.54	231.42
793.86	231.36
794.18	231.34
794.50	231.30
794.82	231.26
795.14	231.27
795.47	231.28
795.79	231.25
796.11	231.21
796.43	231.19
796.75	231.17
797.07	231.15
797.39	231.16
797.71	231.07
798.04	231.07
798.36	231.02
798.68	231.01
799.00	231.04
799.32	230.96
799.64	230.99
799.96	230.95
800.28	230.96
800.60	230.93
800.92	230.92
801.24	230.87
801.56	230.88
801.89	230.84
802.21	230.80
802.53	230.79
802.85	230.79
803.17	230.82
803.49	230.80
803.81	230.77
804.13	230.70
804.45	230.69
804.77	230.65
805.09	230.65
805.41	230.61
805.73	230.59
806.05	230.55
806.37	230.48
806.69	230.52
807.01	230.49
807.33	230.51
807.65	230.46
807.97	230.50
808.28	230.44
808.60	230.40
808.92	230.39
809.24	230.41
809.56	230.38
809.88	230.32
810.20	230.28
810.52	230.28
810.84	230.28
811.16	230.24
811.48	230.23
811.80	230.20
812.12	230.20
812.43	230.15
812.75	230.11
813.07	230.09
813.39	230.06
813.71	230.03
814.03	229.98
814.35	229.95
814.67	229.87
814.98	229.84
815.30	229.80
815.62	229.75
815.94	229.65
816.26	229.66
816.58	229.62
816.89	229.62
817.21	229.57
817.53	229.53
817.85	229.49
818.17	229.46
818.48	229.41
818.80	229.38
819.12	229.33
819.44	229.32
819.76	229.28
820.07	229.25
820.39	229.20
820.71	229.20
821.03	229.17
821.34	229.14
821.66	229.10
821.98	229.08
822.30	229.03
822.61	229.06
822.93	228.99
823.25	228.93
823.57	228.89
823.88	228.89
824.20	228.83
824.52	228.86
824.83	228.82
825.15	228.81
825.47	228.76
825.79	228.80
826.10	228.76
826.42	228.70
826.74	228.68
827.05	228.67
827.37	228.65
827.69	228.63
828.00	228.62
828.32	228.64
828.64	228.64
828.95	228.70
829.27	228.66
829.58	228.68
829.90	228.72
830.22	228.71
830.53	228.66
830.85	228.67
831.17	228.58
831.48	228.57
831.80	228.57
832.11	228.57
832.43	228.53
832.75	228.51
833.06	228.55
833.38	228.51
833.69	228.49
834.01	228.49
834.32	228.47
834.64	228.43
834.96	228.41
835.27	228.41
835.59	228.35
835.90	228.30
836.22	228.27
836.53	228.27
836.85	228.25
837.16	228.36
837.48	228.34
837.79	228.40
838.11	228.41
838.42	228.40
838.74	228.45
839.05	228.43
839.37	228.45
839.68	228.46
840.00	228.48
840.31	228.50
840.63	228.53
840.94	228.56
841.26	228.57
841.57	228.58
841.88	228.58
842.20	228.59
842.51	228.62
842.83	228.62
843.14	228.69
843.46	228.73
843.77	228.72
844.08	228.75
844.40	228.72
844.71	228.73
845.03	228.71
845.34	228.69
845.65	228.70
845.97	228.68
846.28	228.69
846.60	228.69
846.91	228.68
847.22	228.66
847.54	228.64
847.85	228.63
848.16	228.65
848.48	228.62
848.79	228.66
849.10	228.66
849.42	228.66
849.73	228.56
850.04	228.56
850.36	228.48
850.67	228.51
850.98	228.52
851.30	228.52
851.61	228.52
851.92	228.50
852.23	228.51
852.55	228.53
852.86	228.49
853.17	228.48
853.49	228.51
853.80	228.53
854.11	228.55
854.42	228.58
854.74	228.54
855.05	228.54
855.36	228.44
855.67	228.44
855.99	228.45
856.30	228.54
856.61	228.48
856.92	228.48
857.23	228.42
857.55	228.42
857.86	228.38
858.17	228.39
858.48	228.36
858.79	228.31
859.11	228.27
859.42	228.25
859.73	228.22
860.04	228.19
860.35	228.13
860.66	228.09
860.98	228.05
861.29	228.05
861.60	228.04
861.91	228.07
862.22	228.04
862.53	227.98
862.84	227.86
863.16	227.91
863.47	227.91
863.78	227.90
864.09	227.85
864.40	227.87
864.71	227.85
865.02	227.89
865.33	227.89
865.64	227.87
865.95	227.87
866.27	227.94
866.58	227.90
866.89	227.91
867.20	227.90
867.51	227.87
867.82	227.86
868.13	227.88
868.44	227.87
868.75	227.89
869.06	227.89
869.37	227.89
869.68	227.84
869.99	227.85
870.30	227.86
870.61	227.90
870.92	227.89
871.23	227.90
871.54	227.89
871.85	227.92
872.16	227.94
872.47	227.96
872.78	227.88
873.09	227.90
873.40	227.89
873.71	227.89
874.02	227.95
874.33	227.94
874.64	227.91
874.95	227.91
875.26	227.91
875.56	227.94
875.87	227.95
876.18	227.98
876.49	228.08
876.80	228.08
877.11	228.07
877.42	228.05
877.73	228.07
878.04	228.10
878.35	228.08
878.66	228.11
878.96	228.10
879.27	228.13
879.58	228.13
879.89	228.13
880.20	228.19
880.51	228.17
880.82	228.19
881.12	228.22
881.43	228.24
881.74	228.20
882.05	228.21
882.36	228.19
882.67	228.19
882.97	228.09
883.28	228.13
883.59	228.11
883.90	228.16
884.21	228.17
884.51	228.14
884.82	228.14
885.13	228.13
885.44	228.16
885.74	228.17
886.05	228.20
886.36	228.19
886.67	228.14
886.98	228.19
887.28	228.19
887.59	228.16
887.90	228.13
888.20	228.16
888.51	228.16
888.82	228.15
889.13	228.12
889.43	228.19
889.74	228.14
890.05	228.12
890.35	228.08
890.66	228.04
890.97	228.03
891.28	228.03
891.58	228.01
891.89	227.98
892.20	227.96
892.50	227.95
892.81	227.93
893.12	227.94
893.42	227.88
893.73	227.88
894.04	227.89
894.34	227.92
894.65	227.90
894.95	227.88
895.26	227.86
895.57	227.91
895.87	227.81
896.18	227.80
896.48	227.82
896.79	227.80
897.10	227.82
897.40	227.79
897.71	227.78
898.01	227.76
898.32	227.76
898.63	227.75
898.93	227.71
899.24	227.72
899.54	227.71
899.85	227.71
900.15	227.69
900.46	227.66
900.76	227.65
901.07	227.64
901.38	227.59
901.68	227.62
901.99	227.56
902.29	227.56
902.60	227.58
902.90	227.54
903.21	227.54
903.51	227.50
903.82	227.54
904.12	227.53
904.43	227.53
904.73	227.52
905.03	227.53
905.34	227.62
905.64	227.61
905.95	227.59
906.25	227.59
906.56	227.61
906.86	227.65
907.17	227.63
907.47	227.67
907.77	227.72
908.08	227.72
908.38	227.73
908.69	227.74
908.99	227.76
909.30	227.79
909.60	227.82
909.90	227.85
910.21	227.82
910.51	227.83
910.81	227.85
911.12	227.86
911.42	227.85
911.73	227.74
912.03	227.78
912.33	227.82
912.64	227.81
912.94	227.82
913.24	227.80
913.55	227.82
913.85	227.83
914.15	227.88
914.46	227.90
914.76	227.88
915.06	227.89
915.37	227.87
915.67	227.88
915.97	227.88
916.27	227.90
916.58	227.95
916.88	227.95
917.18	227.94
917.49	228.05
917.79	228.05
918.09	228.12
918.39	228.15
918.70	228.19
919.00	228.20
919.30	228.23
919.60	228.26
919.91	228.24
920.21	228.21
920.51	228.18
920.81	228.19
921.12	228.24
921.42	228.26
921.72	228.26
922.02	228.26
922.32	228.27
922.63	228.26
922.93	228.28
923.23	228.30
923.53	228.31
923.83	228.21
924.13	228.21
924.44	228.18
924.74	228.18
925.04	228.17
925.34	228.15
925.64	228.11
925.94	228.08
926.24	228.13
926.55	228.11
926.85	228.12
927.15	228.11
927.45	228.10
927.75	228.06
928.05	228.06
928.35	228.04
928.65	228.07
928.95	228.04
929.26	227.98
929.56	227.96
929.86	227.95
930.16	227.95
930.46	227.97
930.76	227.94
931.06	227.88
931.36	227.83
931.66	227.84
931.96	227.82
932.26	227.80
932.56	227.75
932.86	227.75
933.16	227.72
933.46	227.67
933.76	227.64
934.06	227.65
934.36	227.65
934.66	227.60
934.96	227.55
935.26	227.54
935.56	227.57
935.86	227.53
936.16	227.47
936.46	227.44
936.76	227.40
937.06	227.39
937.36	227.39
937.66	227.37
937.96	227.37
938.26	227.35
938.56	227.35
938.86	227.34
939.16	227.34
939.46	227.33
939.76	227.34
940.06	227.30
940.35	227.25
940.65	227.22
940.95	227.26
941.25	227.24
941.55	227.22
941.85	227.21
942.15	227.21
942.45	227.25
942.75	227.27
943.04	227.25
943.34	227.29
943.64	227.27
943.94	227.27
944.24	227.28
944.54	227.34
944.84	227.32
945.13	227.31
945.43	227.30
945.73	227.33
946.03	227.32
946.33	227.37
946.62	227.42
946.92	227.43
947.22	227.41
947.52	227.47
947.82	227.48
948.11	227.46
948.41	227.47
948.71	227.46
949.01	227.46
949.31	227.45
949.60	227.43
949.90	227.45
950.20	227.48
950.50	227.45
950.79	227.43
951.09	227.47
951.39	227.48
951.69	227.48
951.98	227.51
952.28	227.51
952.58	227.50
952.87	227.45
953.17	227.46
953.47	227.46
953.76	227.43
954.06	227.45
954.36	227.47
954.66	227.48
954.95	227.52
955.25	227.54
955.55	227.57
955.84	227.58
956.14	227.59
956.44	227.59
956.73	227.60
957.03	227.60
957.32	227.65
957.62	227.68
957.92	227.72
958.21	227.70
958.51	227.82
958.81	227.82
959.10	227.87
959.40	227.90
959.69	227.94
959.99	227.96
960.29	227.96
960.58	227.96
960.88	228.00
961.17	228.02
961.47	228.03
961.76	228.01
962.06	228.07
962.36	228.06
962.65	228.06
962.95	228.08
963.24	228.05
963.54	228.02
963.83	227.99
964.13	227.98
964.42	227.94
964.72	227.89
965.01	227.90
965.31	227.90
965.60	227.88
965.90	227.92
966.19	227.86
966.49	227.86
966.78	227.83
967.08	227.82
967.37	227.79
967.67	227.76
967.96	227.76
968.26	227.72
968.55	227.70
968.85	227.69
969.14	227.68
969.43	227.71
969.73	227.69
970.02	227.68
970.32	227.67
970.61	227.67
970.91	227.62
971.20	227.60
971.49	227.58
971.79	227.60
972.08	227.53
972.38	227.57
972.67	227.58
972.96	227.59
973.26	227.57
973.55	227.60
973.85	227.60
974.14	227.62
974.43	227.60
974.73	227.63
975.02	227.62
975.31	227.59
975.61	227.58
975.90	227.59
976.19	227.56
976.49	227.55
976.78	227.56
977.07	227.54
977.37	227.55
977.66	227.57
977.95	227.52
978.24	227.53
978.54	227.55
978.83	227.53
979.12	227.55
979.42	227.57
979.71	227.56
980.00	227.57
980.29	227.57
980.59	227.56
980.88	227.58
981.17	227.57
981.46	227.59
981.76	227.58
982.05	227.59
982.34	227.63
982.63	227.64
982.93	227.65
983.22	227.75
983.51	227.77
983.80	227.78
984.09	227.80
984.39	227.81
984.68	227.80
984.97	227.79
985.26	227.79
985.55	227.79
985.85	227.76
986.14	227.81
986.43	227.80
986.72	227.83
987.01	227.82
987.30	227.83
987.59	227.83
987.89	227.84
988.18	227.84
988.47	227.80
988.76	227.79
989.05	227.81
989.34	227.75
989.63	227.77
989.92	227.78
990.22	227.80
990.51	227.80
990.80	227.79
991.09	227.82
991.38	227.83
991.67	227.82
991.96	227.84
992.25	227.80
992.54	227.79
992.83	227.78
993.12	227.78
993.41	227.78
993.70	227.85
993.99	227.86
994.28	227.86
994.58	227.91
994.87	227.92
995.16	227.90
995.45	227.93
995.74	227.89
996.03	227.89
996.32	227.88
996.61	227.94
996.90	227.98
997.19	227.97
997.48	227.94
997.77	227.93
998.06	227.91
998.34	227.92
998.63	227.94
998.92	227.95
999.21	227.97
999.50	227.98
999.79	227.95
1000.08	227.96
1000.37	227.96
1000.66	227.96
1000.95	227.98
1001.24	227.98
1001.53	228.02
1001.82	227.99
1002.11	227.98
1002.40	228.01
1002.68	227.98
1002.97	228.03
1003.26	228.01
1003.55	228.02
1003.84	228.04
1004.13	228.06
1004.42	228.03
1004.71	227.99
1004.99	227.96
1005.28	227.94
1005.57	227.93
1005.86	227.85
1006.15	227.83
1006.44	227.83
1006.72	227.79
1007.01	227.78
1007.30	227.74
1007.59	227.66
1007.88	227.63
1008.17	227.60
1008.45	227.56
1008.74	227.51
1009.03	227.43
1009.32	227.42
1009.60	227.39
1009.89	227.35
1010.18	227.30
1010.47	227.29
1010.76	227.29
1011.04	227.27
1011.33	227.27
1011.62	227.27
1011.91	227.29
1012.19	227.30
1012.48	227.27
1012.77	227.29
1013.05	227.31
1013.34	227.31
1013.63	227.32
1013.92	227.35
1014.20	227.36
1014.49	227.34
1014.78	227.37
1015.06	227.36
1015.35	227.37
1015.64	227.40
1015.92	227.42
1016.21	227.44
1016.50	227.45
1016.78	227.45
1017.07	227.48
1017.36	227.45
1017.64	227.43
1017.93	227.46
1018.22	227.42
1018.50	227.43
1018.79	227.41
1019.08	227.40
1019.36	227.45
1019.65	227.45
1019.93	227.48
1020.22	227.49
1020.51	227.56
1020.79	227.55
1021.08	226.69
1021.36	227.40
1021.65	227.63
1021.94	227.77
1022.22	228.15
1022.51	227.30
1022.79	228.03
1023.08	227.63
1023.36	228.83
1023.65	227.24
>>>>>End Processed Spectral Data<<<<<
