SpectraSuite Data File
++++++++++++++++++++++++++++++++++++
Date: Fri Feb 01 15:33:12 EST 2013
User: group
Dark Spectrum Present: No
Reference Spectrum Present: No
Number of Sampled Component Spectra: 1
Spectrometers: USB2E7196
Integration Time (usec): 35000 (USB2E7196)
Spectra Averaged: 100 (USB2E7196)
Boxcar Smoothing: 10 (USB2E7196)
Correct for Electrical Dark: No (USB2E7196)
Strobe/Lamp Enabled: No (USB2E7196)
Correct for Detector Non-linearity: No (USB2E7196)
Correct for Stray Light: No (USB2E7196)
Number of Pixels in Processed Spectrum: 2048
>>>>>Begin Processed Spectral Data<<<<<
339.09	0.00
339.48	214.95
339.86	216.31
340.24	217.78
340.63	218.78
341.01	221.88
341.39	221.61
341.78	223.03
342.16	224.62
342.54	224.87
342.93	213.16
343.31	223.94
343.69	224.44
344.07	224.90
344.46	225.30
344.84	225.69
345.22	225.94
345.60	226.20
345.99	226.37
346.37	226.49
346.75	226.61
347.13	226.70
347.52	226.79
347.90	226.88
348.28	226.90
348.66	226.95
349.05	226.92
349.43	226.99
349.81	227.03
350.19	227.12
350.57	227.19
350.96	227.27
351.34	227.36
351.72	227.47
352.10	227.57
352.48	227.70
352.87	227.77
353.25	227.82
353.63	227.91
354.01	228.02
354.39	228.10
354.77	228.17
355.15	228.24
355.54	228.30
355.92	228.34
356.30	228.42
356.68	228.55
357.06	228.65
357.44	228.70
357.82	228.78
358.20	228.88
358.58	228.94
358.97	228.98
359.35	229.07
359.73	229.17
360.11	229.23
360.49	229.26
360.87	229.29
361.25	229.39
361.63	229.44
362.01	229.46
362.39	229.48
362.77	229.54
363.15	229.56
363.53	229.58
363.91	229.58
364.29	229.58
364.67	229.53
365.05	229.54
365.43	229.57
365.81	229.55
366.19	229.58
366.57	229.61
366.95	229.62
367.33	229.56
367.71	229.56
368.09	229.53
368.47	229.51
368.85	229.49
369.23	229.44
369.61	229.39
369.99	229.40
370.37	229.39
370.75	229.38
371.13	229.32
371.51	229.31
371.89	229.31
372.27	229.29
372.65	229.24
373.03	229.18
373.41	229.09
373.78	229.08
374.16	228.96
374.54	228.90
374.92	228.79
375.30	228.76
375.68	228.67
376.06	228.64
376.44	228.57
376.82	228.55
377.19	228.46
377.57	228.37
377.95	228.26
378.33	228.21
378.71	228.08
379.09	228.02
379.47	227.95
379.84	227.86
380.22	227.78
380.60	227.70
380.98	227.64
381.36	227.55
381.73	227.42
382.11	227.38
382.49	227.31
382.87	227.26
383.25	227.18
383.62	227.24
384.00	227.13
384.38	227.06
384.76	227.01
385.13	227.01
385.51	226.96
385.89	226.92
386.27	226.84
386.64	226.83
387.02	226.79
387.40	226.68
387.78	226.65
388.15	226.59
388.53	226.52
388.91	226.48
389.29	226.48
389.66	226.49
390.04	226.46
390.42	226.46
390.79	226.44
391.17	226.40
391.55	226.28
391.92	226.27
392.30	226.27
392.68	226.24
393.05	226.23
393.43	226.23
393.81	226.25
394.18	226.23
394.56	226.23
394.94	226.25
395.31	226.31
395.69	226.38
396.06	226.43
396.44	226.48
396.82	226.51
397.19	226.57
397.57	226.61
397.95	226.67
398.32	226.67
398.70	226.73
399.07	226.83
399.45	226.89
399.82	226.97
400.20	227.06
400.58	227.14
400.95	227.21
401.33	227.32
401.70	227.45
402.08	227.54
402.45	227.61
402.83	227.75
403.20	227.88
403.58	227.95
403.95	228.08
404.33	228.21
404.71	228.36
405.08	228.58
405.46	228.71
405.83	228.84
406.21	229.03
406.58	229.21
406.96	229.36
407.33	229.54
407.70	229.72
408.08	229.97
408.45	230.20
408.83	230.43
409.20	230.65
409.58	230.86
409.95	231.16
410.33	231.44
410.70	231.70
411.08	231.98
411.45	232.29
411.82	232.61
412.20	232.98
412.57	233.40
412.95	233.67
413.32	234.09
413.69	234.53
414.07	234.94
414.44	235.40
414.82	235.88
415.19	236.45
415.56	237.01
415.94	237.55
416.31	238.19
416.68	238.84
417.06	239.53
417.43	240.19
417.81	240.92
418.18	241.70
418.55	242.53
418.93	243.40
419.30	244.32
419.67	245.26
420.04	246.22
420.42	247.20
420.79	248.40
421.16	249.54
421.54	250.70
421.91	251.95
422.28	253.20
422.66	254.55
423.03	255.83
423.40	257.15
423.77	258.61
424.15	260.03
424.52	261.51
424.89	263.13
425.26	264.68
425.64	266.17
426.01	267.76
426.38	269.40
426.75	271.09
427.13	272.79
427.50	274.56
427.87	276.43
428.24	278.24
428.61	279.99
428.99	281.92
429.36	284.02
429.73	286.08
430.10	288.12
430.47	290.18
430.85	292.31
431.22	294.55
431.59	296.93
431.96	299.15
432.33	301.63
432.70	304.05
433.08	306.84
433.45	309.46
433.82	312.09
434.19	314.99
434.56	317.81
434.93	320.49
435.30	323.12
435.68	326.02
436.05	328.91
436.42	331.67
436.79	334.17
437.16	336.87
437.53	339.70
437.90	342.50
438.27	345.25
438.64	348.03
439.01	350.62
439.38	352.82
439.75	355.02
440.13	357.51
440.50	359.84
440.87	361.73
441.24	363.68
441.61	365.85
441.98	367.35
442.35	369.12
442.72	371.00
443.09	372.80
443.46	373.71
443.83	374.30
444.20	374.79
444.57	375.63
444.94	375.95
445.31	376.28
445.68	376.61
446.05	376.70
446.42	376.35
446.79	375.95
447.16	375.53
447.53	375.18
447.90	374.00
448.27	372.81
448.64	371.20
449.01	370.05
449.37	368.02
449.74	366.12
450.11	363.87
450.48	361.40
450.85	358.90
451.22	356.84
451.59	354.80
451.96	352.87
452.33	350.29
452.70	347.86
453.07	345.02
453.43	342.13
453.80	339.35
454.17	336.67
454.54	334.10
454.91	331.34
455.28	328.68
455.65	326.22
456.02	323.77
456.38	321.62
456.75	318.96
457.12	316.75
457.49	314.52
457.86	312.36
458.23	310.47
458.59	308.42
458.96	306.32
459.33	304.50
459.70	302.67
460.07	301.16
460.43	299.50
460.80	297.87
461.17	296.41
461.54	294.94
461.91	293.52
462.27	292.08
462.64	290.85
463.01	289.49
463.38	288.20
463.74	286.82
464.11	285.72
464.48	284.68
464.85	283.55
465.21	282.66
465.58	281.74
465.95	280.68
466.32	279.78
466.68	278.89
467.05	277.97
467.42	277.08
467.78	276.16
468.15	275.28
468.52	274.63
468.88	273.80
469.25	272.98
469.62	272.36
469.98	271.71
470.35	271.10
470.72	270.51
471.08	269.82
471.45	269.26
471.82	268.64
472.18	268.05
472.55	267.60
472.92	267.11
473.28	266.62
473.65	266.16
474.02	265.69
474.38	265.30
474.75	264.97
475.11	264.61
475.48	264.33
475.85	264.11
476.21	263.84
476.58	263.65
476.94	263.53
477.31	263.37
477.67	263.20
478.04	263.10
478.41	263.00
478.77	263.06
479.14	262.99
479.50	263.01
479.87	263.07
480.23	263.14
480.60	263.20
480.96	263.31
481.33	263.50
481.69	263.69
482.06	263.92
482.42	264.14
482.79	264.40
483.15	264.74
483.52	265.12
483.88	265.50
484.25	265.86
484.61	266.29
484.98	266.71
485.34	267.26
485.71	267.85
486.07	268.47
486.44	269.03
486.80	269.75
487.17	270.49
487.53	271.28
487.90	272.15
488.26	273.07
488.62	274.03
488.99	274.99
489.35	276.03
489.72	277.14
490.08	278.32
490.44	279.57
490.81	280.87
491.17	282.18
491.54	283.63
491.90	285.18
492.26	286.81
492.63	288.55
492.99	290.34
493.36	292.21
493.72	294.26
494.08	296.38
494.45	298.62
494.81	301.02
495.17	303.46
495.54	306.03
495.90	308.76
496.26	311.57
496.63	314.56
496.99	317.64
497.35	320.85
497.72	324.25
498.08	327.73
498.44	331.39
498.80	335.33
499.17	339.38
499.53	343.57
499.89	347.94
500.26	352.45
500.62	357.13
500.98	362.13
501.34	367.20
501.71	372.54
502.07	378.02
502.43	383.64
502.79	389.47
503.16	395.58
503.52	401.88
503.88	408.32
504.24	414.99
504.60	421.92
504.97	429.06
505.33	436.43
505.69	444.19
506.05	451.96
506.41	459.85
506.78	468.05
507.14	476.49
507.50	485.20
507.86	494.21
508.22	503.39
508.59	512.58
508.95	522.22
509.31	532.02
509.67	542.13
510.03	552.44
510.39	562.99
510.75	573.79
511.12	584.72
511.48	596.02
511.84	607.43
512.20	618.97
512.56	630.97
512.92	643.13
513.28	655.45
513.64	668.02
514.00	680.76
514.37	693.68
514.73	706.82
515.09	719.88
515.45	733.22
515.81	746.92
516.17	760.94
516.53	775.01
516.89	789.23
517.25	803.41
517.61	817.78
517.97	832.27
518.33	846.62
518.69	861.36
519.05	876.34
519.41	891.58
519.77	907.12
520.13	922.61
520.49	938.03
520.85	953.55
521.21	969.27
521.57	985.49
521.93	1001.29
522.29	1017.65
522.65	1033.96
523.01	1050.13
523.37	1066.09
523.73	1082.26
524.09	1098.33
524.45	1114.69
524.81	1131.48
525.17	1148.36
525.53	1165.34
525.89	1182.29
526.25	1199.12
526.61	1215.49
526.97	1232.29
527.33	1248.82
527.68	1265.46
528.04	1281.93
528.40	1298.50
528.76	1315.50
529.12	1332.22
529.48	1349.16
529.84	1365.29
530.20	1381.97
530.56	1399.26
530.91	1416.78
531.27	1433.40
531.63	1450.02
531.99	1466.63
532.35	1482.51
532.71	1498.40
533.07	1514.70
533.42	1530.62
533.78	1546.79
534.14	1563.17
534.50	1578.48
534.86	1594.44
535.21	1609.56
535.57	1625.65
535.93	1641.10
536.29	1655.95
536.65	1670.99
537.00	1685.76
537.36	1701.05
537.72	1715.61
538.08	1729.87
538.44	1743.64
538.79	1757.76
539.15	1771.52
539.51	1785.18
539.87	1799.64
540.22	1813.40
540.58	1827.21
540.94	1840.57
541.29	1853.34
541.65	1866.05
542.01	1879.46
542.37	1891.77
542.72	1904.29
543.08	1915.97
543.44	1928.55
543.79	1939.94
544.15	1951.00
544.51	1962.56
544.87	1973.61
545.22	1984.42
545.58	1994.67
545.94	2004.47
546.29	2014.44
546.65	2024.22
547.01	2033.51
547.36	2042.21
547.72	2050.79
548.07	2058.65
548.43	2066.88
548.79	2075.09
549.14	2082.84
549.50	2090.15
549.86	2097.93
550.21	2105.13
550.57	2112.37
550.92	2118.89
551.28	2125.90
551.64	2132.82
551.99	2139.48
552.35	2145.77
552.70	2151.99
553.06	2157.97
553.41	2164.38
553.77	2170.30
554.13	2176.34
554.48	2182.48
554.84	2187.72
555.19	2192.92
555.55	2198.12
555.90	2202.65
556.26	2207.59
556.61	2212.19
556.97	2216.25
557.32	2220.49
557.68	2224.67
558.03	2229.00
558.39	2232.68
558.74	2237.40
559.10	2241.33
559.45	2244.99
559.81	2249.21
560.16	2252.91
560.52	2256.15
560.87	2259.52
561.23	2262.19
561.58	2265.23
561.94	2267.79
562.29	2270.31
562.64	2273.02
563.00	2275.58
563.35	2279.16
563.71	2282.09
564.06	2285.25
564.42	2288.16
564.77	2290.49
565.12	2292.85
565.48	2294.75
565.83	2296.60
566.19	2297.78
566.54	2298.79
566.89	2299.84
567.25	2300.32
567.60	2301.68
567.96	2303.44
568.31	2304.18
568.66	2305.22
569.02	2305.74
569.37	2306.11
569.72	2307.02
570.08	2307.19
570.43	2307.21
570.78	2306.64
571.14	2305.20
571.49	2303.84
571.84	2303.57
572.20	2302.47
572.55	2301.36
572.90	2299.72
573.26	2298.33
573.61	2296.51
573.96	2294.57
574.31	2291.51
574.67	2288.47
575.02	2284.91
575.37	2281.39
575.72	2277.58
576.08	2274.32
576.43	2271.04
576.78	2267.30
577.13	2263.99
577.49	2260.77
577.84	2257.17
578.19	2253.26
578.54	2249.54
578.90	2245.24
579.25	2239.71
579.60	2234.49
579.95	2229.45
580.30	2224.43
580.66	2219.27
581.01	2214.38
581.36	2209.42
581.71	2205.21
582.06	2200.76
582.42	2196.18
582.77	2190.87
583.12	2186.31
583.47	2181.39
583.82	2176.14
584.17	2170.85
584.53	2165.38
584.88	2159.70
585.23	2153.84
585.58	2148.23
585.93	2142.76
586.28	2138.02
586.63	2132.74
586.98	2127.79
587.34	2123.02
587.69	2118.09
588.04	2112.77
588.39	2106.99
588.74	2100.49
589.09	2094.30
589.44	2087.29
589.79	2081.18
590.14	2075.59
590.49	2068.86
590.84	2062.56
591.19	2056.58
591.54	2050.08
591.89	2042.60
592.25	2035.68
592.60	2028.42
592.95	2020.91
593.30	2013.36
593.65	2005.60
594.00	1998.56
594.35	1991.21
594.70	1983.02
595.05	1975.62
595.40	1968.16
595.75	1960.66
596.10	1954.40
596.45	1947.57
596.80	1941.41
597.15	1934.70
597.50	1927.48
597.85	1921.07
598.19	1914.16
598.54	1907.01
598.89	1900.38
599.24	1894.33
599.59	1887.63
599.94	1881.48
600.29	1875.06
600.64	1868.61
600.99	1861.12
601.34	1854.25
601.69	1847.21
602.04	1840.36
602.39	1833.04
602.74	1826.26
603.08	1819.52
603.43	1812.79
603.78	1805.51
604.13	1798.36
604.48	1791.04
604.83	1784.17
605.18	1777.17
605.53	1769.28
605.87	1761.20
606.22	1753.84
606.57	1746.06
606.92	1738.81
607.27	1731.46
607.62	1724.46
607.96	1717.04
608.31	1710.43
608.66	1702.81
609.01	1695.23
609.36	1687.63
609.70	1679.52
610.05	1671.48
610.40	1663.67
610.75	1655.29
611.10	1647.51
611.44	1639.05
611.79	1631.08
612.14	1622.38
612.49	1613.24
612.83	1604.89
613.18	1596.85
613.53	1588.78
613.88	1580.12
614.22	1571.81
614.57	1563.27
614.92	1555.24
615.27	1547.71
615.61	1539.39
615.96	1531.29
616.31	1523.69
616.65	1516.30
617.00	1508.81
617.35	1501.14
617.70	1492.81
618.04	1484.31
618.39	1476.17
618.74	1468.55
619.08	1460.27
619.43	1452.73
619.78	1445.77
620.12	1438.49
620.47	1431.00
620.82	1422.82
621.16	1415.48
621.51	1407.81
621.85	1400.26
622.20	1391.71
622.55	1383.37
622.89	1375.45
623.24	1367.78
623.59	1360.39
623.93	1352.87
624.28	1345.60
624.62	1337.94
624.97	1330.81
625.32	1324.14
625.66	1317.02
626.01	1309.75
626.35	1302.25
626.70	1294.47
627.04	1286.79
627.39	1279.07
627.73	1271.67
628.08	1264.69
628.43	1257.34
628.77	1249.88
629.12	1242.24
629.46	1235.14
629.81	1227.72
630.15	1220.57
630.50	1213.29
630.84	1205.14
631.19	1197.18
631.53	1189.64
631.88	1182.10
632.22	1174.49
632.57	1167.08
632.91	1159.72
633.26	1152.31
633.60	1144.92
633.95	1137.78
634.29	1130.75
634.64	1124.12
634.98	1116.66
635.32	1109.59
635.67	1103.03
636.01	1096.52
636.36	1089.73
636.70	1083.21
637.05	1076.64
637.39	1070.22
637.73	1063.66
638.08	1057.76
638.42	1051.78
638.77	1045.36
639.11	1038.78
639.45	1032.41
639.80	1025.75
640.14	1019.23
640.49	1012.75
640.83	1006.49
641.17	1000.30
641.52	993.85
641.86	987.30
642.20	981.50
642.55	975.21
642.89	968.64
643.23	962.07
643.58	956.29
643.92	950.00
644.26	943.90
644.61	937.80
644.95	931.82
645.29	925.21
645.64	918.57
645.98	912.20
646.32	906.37
646.66	900.35
647.01	894.60
647.35	888.91
647.69	883.16
648.04	877.58
648.38	871.73
648.72	865.76
649.06	859.71
649.41	853.83
649.75	847.74
650.09	841.81
650.43	836.04
650.78	829.83
651.12	823.92
651.46	818.20
651.80	812.46
652.14	806.98
652.49	801.55
652.83	796.30
653.17	790.66
653.51	784.91
653.85	779.50
654.20	773.84
654.54	767.80
654.88	761.94
655.22	756.05
655.56	750.41
655.90	744.94
656.25	739.74
656.59	734.31
656.93	729.27
657.27	724.14
657.61	718.68
657.95	713.61
658.29	708.55
658.64	703.31
658.98	698.03
659.32	692.59
659.66	687.41
660.00	682.14
660.34	677.26
660.68	672.37
661.02	667.31
661.36	662.62
661.70	658.15
662.05	653.86
662.39	649.57
662.73	645.11
663.07	640.76
663.41	636.30
663.75	631.89
664.09	627.33
664.43	623.01
664.77	618.94
665.11	614.77
665.45	610.66
665.79	606.61
666.13	602.50
666.47	598.41
666.81	594.25
667.15	590.13
667.49	586.10
667.83	582.30
668.17	578.36
668.51	574.25
668.85	570.22
669.19	566.40
669.53	562.52
669.87	558.61
670.21	554.96
670.55	551.37
670.89	547.88
671.23	544.46
671.57	540.94
671.91	537.39
672.25	533.88
672.58	530.36
672.92	526.97
673.26	523.77
673.60	520.70
673.94	517.60
674.28	514.70
674.62	511.88
674.96	508.82
675.30	505.95
675.64	503.08
675.97	500.30
676.31	497.34
676.65	494.37
676.99	491.73
677.33	488.81
677.67	485.99
678.01	482.98
678.34	479.98
678.68	477.06
679.02	474.24
679.36	471.44
679.70	468.72
680.04	465.94
680.37	463.03
680.71	460.18
681.05	457.60
681.39	454.90
681.73	452.22
682.06	449.68
682.40	447.10
682.74	444.53
683.08	442.00
683.42	439.46
683.75	437.04
684.09	434.48
684.43	432.06
684.77	429.64
685.10	427.30
685.44	425.04
685.78	422.72
686.12	420.50
686.45	418.24
686.79	415.94
687.13	413.77
687.46	411.62
687.80	409.51
688.14	407.29
688.48	405.21
688.81	402.95
689.15	400.78
689.49	398.64
689.82	396.59
690.16	394.55
690.50	392.58
690.83	390.61
691.17	388.64
691.51	386.71
691.84	384.83
692.18	382.88
692.52	380.87
692.85	378.99
693.19	377.07
693.52	375.22
693.86	373.42
694.20	371.65
694.53	369.90
694.87	368.06
695.21	366.23
695.54	364.42
695.88	362.71
696.21	361.05
696.55	359.38
696.88	357.69
697.22	356.08
697.56	354.48
697.89	352.83
698.23	351.22
698.56	349.62
698.90	347.99
699.23	346.36
699.57	344.84
699.90	343.30
700.24	341.79
700.58	340.29
700.91	338.74
701.25	337.28
701.58	335.90
701.92	334.54
702.25	333.20
702.59	331.85
702.92	330.52
703.26	329.20
703.59	327.89
703.93	326.71
704.26	325.43
704.60	324.11
704.93	322.86
705.26	321.62
705.60	320.44
705.93	319.29
706.27	318.27
706.60	317.19
706.94	316.10
707.27	314.97
707.61	313.91
707.94	312.94
708.27	311.86
708.61	310.75
708.94	309.75
709.28	308.78
709.61	307.81
709.94	306.86
710.28	305.85
710.61	304.88
710.95	303.81
711.28	302.87
711.61	301.97
711.95	301.08
712.28	300.16
712.61	299.19
712.95	298.26
713.28	297.38
713.61	296.50
713.95	295.62
714.28	294.78
714.61	293.93
714.95	293.10
715.28	292.26
715.61	291.40
715.95	290.53
716.28	289.66
716.61	288.82
716.95	288.01
717.28	287.29
717.61	286.50
717.94	285.77
718.28	284.99
718.61	284.26
718.94	283.55
719.27	282.85
719.61	282.19
719.94	281.54
720.27	280.80
720.60	280.13
720.94	279.51
721.27	278.89
721.60	278.30
721.93	277.65
722.27	277.10
722.60	276.56
722.93	276.00
723.26	275.48
723.59	274.92
723.93	274.36
724.26	273.78
724.59	273.23
724.92	272.69
725.25	272.19
725.59	271.65
725.92	271.13
726.25	270.58
726.58	270.10
726.91	269.61
727.24	269.16
727.57	268.70
727.91	268.17
728.24	267.70
728.57	267.23
728.90	266.76
729.23	266.25
729.56	265.81
729.89	265.34
730.22	264.85
730.55	264.36
730.89	263.93
731.22	263.44
731.55	263.02
731.88	262.59
732.21	262.12
732.54	261.71
732.87	261.28
733.20	260.90
733.53	260.53
733.86	260.14
734.19	259.76
734.52	259.37
734.85	259.09
735.18	258.71
735.51	258.34
735.84	257.98
736.17	257.63
736.50	257.22
736.83	256.96
737.16	256.62
737.49	256.32
737.82	256.00
738.15	255.70
738.48	255.34
738.81	255.04
739.14	254.72
739.47	254.40
739.80	254.07
740.13	253.78
740.46	253.43
740.79	253.07
741.12	252.72
741.45	252.42
741.78	252.05
742.11	251.74
742.44	251.40
742.77	251.12
743.10	250.82
743.43	250.52
743.75	250.19
744.08	250.06
744.41	249.76
744.74	249.49
745.07	249.23
745.40	249.01
745.73	248.77
746.06	248.48
746.39	248.18
746.71	247.93
747.04	247.63
747.37	247.35
747.70	247.17
748.03	246.95
748.36	246.72
748.68	246.46
749.01	246.22
749.34	245.99
749.67	245.74
750.00	245.52
750.33	245.37
750.65	245.16
750.98	244.81
751.31	244.60
751.64	244.36
751.97	244.22
752.29	244.00
752.62	243.74
752.95	243.55
753.28	243.36
753.60	243.16
753.93	242.99
754.26	242.82
754.59	242.57
754.91	242.37
755.24	242.16
755.57	242.01
755.90	241.81
756.22	241.66
756.55	241.49
756.88	241.29
757.20	241.04
757.53	240.80
757.86	240.63
758.19	240.47
758.51	240.32
758.84	240.07
759.17	239.87
759.49	239.69
759.82	239.58
760.15	239.42
760.47	239.27
760.80	239.13
761.13	238.99
761.45	238.85
761.78	238.70
762.11	238.58
762.43	238.40
762.76	238.26
763.08	238.14
763.41	238.03
763.74	237.91
764.06	237.76
764.39	237.64
764.71	237.48
765.04	237.34
765.37	237.16
765.69	237.06
766.02	236.95
766.34	236.86
766.67	236.70
767.00	236.60
767.32	236.55
767.65	236.48
767.97	236.36
768.30	236.25
768.62	236.13
768.95	236.00
769.27	235.88
769.60	235.75
769.92	235.61
770.25	235.47
770.57	235.32
770.90	235.25
771.22	235.15
771.55	235.08
771.87	234.98
772.20	234.91
772.52	234.88
772.85	234.88
773.17	234.79
773.50	234.69
773.82	234.61
774.15	234.45
774.47	234.31
774.80	234.16
775.12	234.08
775.45	233.99
775.77	233.91
776.09	233.88
776.42	233.81
776.74	233.76
777.07	233.70
777.39	233.65
777.72	233.56
778.04	233.51
778.36	233.43
778.69	233.38
779.01	233.33
779.33	233.18
779.66	232.98
779.98	232.91
780.31	232.85
780.63	232.83
780.95	232.80
781.28	232.73
781.60	232.70
781.92	232.61
782.25	232.58
782.57	232.52
782.89	232.43
783.22	232.41
783.54	232.34
783.86	232.28
784.19	232.24
784.51	232.21
784.83	232.16
785.16	232.09
785.48	232.03
785.80	231.99
786.12	231.93
786.45	231.91
786.77	231.85
787.09	231.81
787.42	231.74
787.74	231.69
788.06	231.66
788.38	231.62
788.71	231.59
789.03	231.55
789.35	231.52
789.67	231.48
789.99	231.41
790.32	231.38
790.64	231.33
790.96	231.34
791.28	231.29
791.61	231.23
791.93	231.20
792.25	231.20
792.57	231.20
792.89	231.15
793.21	231.15
793.54	231.09
793.86	231.07
794.18	231.01
794.50	230.94
794.82	230.91
795.14	230.88
795.47	230.89
795.79	230.89
796.11	230.84
796.43	230.80
796.75	230.79
797.07	230.80
797.39	230.79
797.71	230.72
798.04	230.68
798.36	230.65
798.68	230.61
799.00	230.55
799.32	230.51
799.64	230.49
799.96	230.46
800.28	230.48
800.60	230.41
800.92	230.37
801.24	230.32
801.56	230.29
801.89	230.23
802.21	230.20
802.53	230.13
802.85	230.13
803.17	230.15
803.49	230.08
803.81	230.02
804.13	229.98
804.45	229.95
804.77	229.94
805.09	229.92
805.41	229.90
805.73	229.87
806.05	229.80
806.37	229.79
806.69	229.75
807.01	229.72
807.33	229.71
807.65	229.65
807.97	229.75
808.28	229.71
808.60	229.69
808.92	229.64
809.24	229.66
809.56	229.60
809.88	229.56
810.20	229.55
810.52	229.54
810.84	229.48
811.16	229.44
811.48	229.42
811.80	229.42
812.12	229.42
812.43	229.39
812.75	229.36
813.07	229.34
813.39	229.30
813.71	229.25
814.03	229.19
814.35	229.20
814.67	229.10
814.98	229.07
815.30	229.04
815.62	229.00
815.94	228.93
816.26	228.97
816.58	228.89
816.89	228.89
817.21	228.82
817.53	228.83
817.85	228.80
818.17	228.73
818.48	228.70
818.80	228.65
819.12	228.61
819.44	228.57
819.76	228.51
820.07	228.49
820.39	228.48
820.71	228.50
821.03	228.45
821.34	228.39
821.66	228.40
821.98	228.42
822.30	228.41
822.61	228.46
822.93	228.39
823.25	228.38
823.57	228.34
823.88	228.36
824.20	228.32
824.52	228.33
824.83	228.33
825.15	228.27
825.47	228.29
825.79	228.31
826.10	228.31
826.42	228.30
826.74	228.30
827.05	228.28
827.37	228.27
827.69	228.28
828.00	228.32
828.32	228.31
828.64	228.27
828.95	228.31
829.27	228.26
829.58	228.24
829.90	228.24
830.22	228.23
830.53	228.20
830.85	228.17
831.17	228.15
831.48	228.13
831.80	228.17
832.11	228.13
832.43	228.11
832.75	228.11
833.06	228.17
833.38	228.12
833.69	228.13
834.01	228.11
834.32	228.10
834.64	228.08
834.96	228.09
835.27	228.08
835.59	228.08
835.90	228.07
836.22	228.05
836.53	228.03
836.85	228.02
837.16	228.12
837.48	228.13
837.79	228.13
838.11	228.14
838.42	228.09
838.74	228.10
839.05	228.09
839.37	228.05
839.68	227.97
840.00	227.98
840.31	227.96
840.63	227.97
840.94	227.95
841.26	227.93
841.57	227.90
841.88	227.89
842.20	227.86
842.51	227.82
842.83	227.82
843.14	227.94
843.46	227.92
843.77	227.86
844.08	227.86
844.40	227.84
844.71	227.83
845.03	227.86
845.34	227.87
845.65	227.87
845.97	227.89
846.28	227.93
846.60	227.94
846.91	227.93
847.22	227.94
847.54	227.94
847.85	227.91
848.16	227.92
848.48	227.90
848.79	227.93
849.10	227.98
849.42	227.99
849.73	227.85
850.04	227.87
850.36	227.81
850.67	227.84
850.98	227.84
851.30	227.85
851.61	227.81
851.92	227.77
852.23	227.80
852.55	227.79
852.86	227.76
853.17	227.72
853.49	227.76
853.80	227.78
854.11	227.79
854.42	227.85
854.74	227.78
855.05	227.80
855.36	227.72
855.67	227.69
855.99	227.66
856.30	227.83
856.61	227.82
856.92	227.84
857.23	227.84
857.55	227.83
857.86	227.80
858.17	227.84
858.48	227.81
858.79	227.77
859.11	227.74
859.42	227.72
859.73	227.72
860.04	227.68
860.35	227.65
860.66	227.62
860.98	227.61
861.29	227.63
861.60	227.62
861.91	227.65
862.22	227.65
862.53	227.66
862.84	227.49
863.16	227.52
863.47	227.49
863.78	227.45
864.09	227.42
864.40	227.44
864.71	227.41
865.02	227.43
865.33	227.42
865.64	227.42
865.95	227.42
866.27	227.47
866.58	227.47
866.89	227.42
867.20	227.42
867.51	227.38
867.82	227.39
868.13	227.38
868.44	227.37
868.75	227.32
869.06	227.27
869.37	227.31
869.68	227.27
869.99	227.28
870.30	227.29
870.61	227.33
870.92	227.29
871.23	227.28
871.54	227.31
871.85	227.33
872.16	227.36
872.47	227.36
872.78	227.33
873.09	227.35
873.40	227.37
873.71	227.40
874.02	227.41
874.33	227.40
874.64	227.43
874.95	227.46
875.26	227.44
875.56	227.47
875.87	227.47
876.18	227.45
876.49	227.55
876.80	227.55
877.11	227.52
877.42	227.55
877.73	227.56
878.04	227.53
878.35	227.54
878.66	227.52
878.96	227.52
879.27	227.48
879.58	227.48
879.89	227.47
880.20	227.50
880.51	227.46
880.82	227.47
881.12	227.46
881.43	227.45
881.74	227.46
882.05	227.45
882.36	227.42
882.67	227.43
882.97	227.32
883.28	227.29
883.59	227.28
883.90	227.25
884.21	227.26
884.51	227.25
884.82	227.22
885.13	227.24
885.44	227.24
885.74	227.22
886.05	227.20
886.36	227.22
886.67	227.13
886.98	227.19
887.28	227.19
887.59	227.15
887.90	227.13
888.20	227.13
888.51	227.16
888.82	227.14
889.13	227.15
889.43	227.21
889.74	227.22
890.05	227.23
890.35	227.26
890.66	227.23
890.97	227.25
891.28	227.23
891.58	227.21
891.89	227.18
892.20	227.20
892.50	227.20
892.81	227.18
893.12	227.20
893.42	227.15
893.73	227.14
894.04	227.13
894.34	227.13
894.65	227.14
894.95	227.16
895.26	227.19
895.57	227.23
895.87	227.14
896.18	227.14
896.48	227.18
896.79	227.19
897.10	227.20
897.40	227.21
897.71	227.23
898.01	227.24
898.32	227.29
898.63	227.28
898.93	227.25
899.24	227.26
899.54	227.22
899.85	227.21
900.15	227.20
900.46	227.21
900.76	227.19
901.07	227.18
901.38	227.16
901.68	227.18
901.99	227.11
902.29	227.09
902.60	227.06
902.90	227.04
903.21	227.04
903.51	227.01
903.82	227.01
904.12	226.98
904.43	226.97
904.73	226.96
905.03	226.94
905.34	227.06
905.64	227.02
905.95	227.04
906.25	227.02
906.56	227.01
906.86	226.99
907.17	227.02
907.47	227.01
907.77	226.99
908.08	226.97
908.38	226.95
908.69	226.97
908.99	227.03
909.30	227.01
909.60	226.98
909.90	227.02
910.21	226.98
910.51	226.98
910.81	227.01
911.12	227.00
911.42	227.04
911.73	226.94
912.03	226.97
912.33	227.01
912.64	227.03
912.94	227.07
913.24	227.06
913.55	227.03
913.85	227.04
914.15	227.05
914.46	227.05
914.76	227.09
915.06	227.10
915.37	227.05
915.67	227.04
915.97	227.08
916.27	227.06
916.58	227.07
916.88	227.07
917.18	227.06
917.49	227.11
917.79	227.11
918.09	227.10
918.39	227.11
918.70	227.10
919.00	227.12
919.30	227.15
919.60	227.15
919.91	227.13
920.21	227.13
920.51	227.13
920.81	227.13
921.12	227.13
921.42	227.11
921.72	227.14
922.02	227.15
922.32	227.17
922.63	227.15
922.93	227.18
923.23	227.19
923.53	227.17
923.83	227.13
924.13	227.12
924.44	227.14
924.74	227.14
925.04	227.19
925.34	227.15
925.64	227.10
925.94	227.11
926.24	227.14
926.55	227.12
926.85	227.16
927.15	227.12
927.45	227.10
927.75	227.10
928.05	227.10
928.35	227.08
928.65	227.05
928.95	227.06
929.26	227.04
929.56	227.05
929.86	227.04
930.16	227.03
930.46	227.00
930.76	226.97
931.06	226.94
931.36	226.90
931.66	226.95
931.96	226.96
932.26	226.98
932.56	226.99
932.86	227.01
933.16	226.99
933.46	227.03
933.76	227.02
934.06	227.06
934.36	227.06
934.66	227.08
934.96	227.07
935.26	227.06
935.56	227.07
935.86	227.04
936.16	227.03
936.46	227.02
936.76	227.04
937.06	227.04
937.36	227.08
937.66	227.09
937.96	227.07
938.26	227.04
938.56	227.03
938.86	227.02
939.16	227.03
939.46	227.02
939.76	227.02
940.06	227.01
940.35	226.99
940.65	226.97
940.95	226.98
941.25	226.96
941.55	226.99
941.85	226.96
942.15	226.99
942.45	227.04
942.75	227.06
943.04	227.07
943.34	227.08
943.64	227.04
943.94	227.01
944.24	227.00
944.54	227.00
944.84	227.04
945.13	227.00
945.43	227.00
945.73	226.99
946.03	226.99
946.33	227.01
946.62	227.00
946.92	227.01
947.22	227.01
947.52	227.03
947.82	227.02
948.11	227.05
948.41	227.02
948.71	227.03
949.01	227.01
949.31	227.00
949.60	227.00
949.90	227.02
950.20	227.05
950.50	227.05
950.79	227.08
951.09	227.08
951.39	227.09
951.69	227.07
951.98	227.10
952.28	227.09
952.58	227.11
952.87	227.13
953.17	227.14
953.47	227.14
953.76	227.15
954.06	227.11
954.36	227.09
954.66	227.10
954.95	227.13
955.25	227.15
955.55	227.15
955.84	227.14
956.14	227.14
956.44	227.13
956.73	227.11
957.03	227.08
957.32	227.07
957.62	227.08
957.92	227.11
958.21	227.09
958.51	227.24
958.81	227.22
959.10	227.22
959.40	227.22
959.69	227.21
959.99	227.21
960.29	227.22
960.58	227.20
960.88	227.23
961.17	227.14
961.47	227.15
961.76	227.11
962.06	227.11
962.36	227.08
962.65	227.09
962.95	227.09
963.24	227.10
963.54	227.08
963.83	227.07
964.13	227.03
964.42	226.99
964.72	226.84
965.01	226.81
965.31	226.78
965.60	226.75
965.90	226.81
966.19	226.79
966.49	226.82
966.78	226.80
967.08	226.80
967.37	226.83
967.67	226.81
967.96	226.81
968.26	226.81
968.55	226.85
968.85	226.82
969.14	226.81
969.43	226.79
969.73	226.82
970.02	226.82
970.32	226.83
970.61	226.85
970.91	226.83
971.20	226.83
971.49	226.84
971.79	226.86
972.08	226.81
972.38	226.79
972.67	226.73
972.96	226.75
973.26	226.72
973.55	226.75
973.85	226.74
974.14	226.75
974.43	226.74
974.73	226.73
975.02	226.74
975.31	226.77
975.61	226.78
975.90	226.74
976.19	226.73
976.49	226.76
976.78	226.76
977.07	226.78
977.37	226.81
977.66	226.81
977.95	226.80
978.24	226.78
978.54	226.82
978.83	226.84
979.12	226.83
979.42	226.84
979.71	226.81
980.00	226.80
980.29	226.80
980.59	226.80
980.88	226.80
981.17	226.81
981.46	226.81
981.76	226.79
982.05	226.85
982.34	226.87
982.63	226.83
982.93	226.84
983.22	226.86
983.51	226.86
983.80	226.86
984.09	226.87
984.39	226.85
984.68	226.85
984.97	226.88
985.26	226.88
985.55	226.87
985.85	226.89
986.14	226.93
986.43	226.97
986.72	226.95
987.01	226.93
987.30	226.91
987.59	226.89
987.89	226.94
988.18	226.89
988.47	226.90
988.76	226.94
989.05	226.92
989.34	226.92
989.63	226.93
989.92	226.93
990.22	226.92
990.51	226.94
990.80	226.95
991.09	226.93
991.38	226.95
991.67	226.94
991.96	226.90
992.25	226.90
992.54	226.89
992.83	226.91
993.12	226.93
993.41	226.95
993.70	226.98
993.99	226.95
994.28	226.98
994.58	226.98
994.87	226.94
995.16	226.95
995.45	226.95
995.74	226.91
996.03	226.94
996.32	226.99
996.61	227.01
996.90	227.01
997.19	226.98
997.48	226.99
997.77	226.98
998.06	227.01
998.34	226.98
998.63	226.97
998.92	226.99
999.21	227.02
999.50	227.02
999.79	226.99
1000.08	226.99
1000.37	226.98
1000.66	226.93
1000.95	226.97
1001.24	227.00
1001.53	227.02
1001.82	227.02
1002.11	227.00
1002.40	226.99
1002.68	226.99
1002.97	227.04
1003.26	227.02
1003.55	227.02
1003.84	227.02
1004.13	227.06
1004.42	227.07
1004.71	227.05
1004.99	227.01
1005.28	226.98
1005.57	226.97
1005.86	226.99
1006.15	226.99
1006.44	226.95
1006.72	227.02
1007.01	227.00
1007.30	226.96
1007.59	226.93
1007.88	226.91
1008.17	226.90
1008.45	226.86
1008.74	226.81
1009.03	226.78
1009.32	226.80
1009.60	226.80
1009.89	226.79
1010.18	226.77
1010.47	226.75
1010.76	226.75
1011.04	226.77
1011.33	226.80
1011.62	226.79
1011.91	226.78
1012.19	226.78
1012.48	226.80
1012.77	226.77
1013.05	226.80
1013.34	226.80
1013.63	226.80
1013.92	226.80
1014.20	226.82
1014.49	226.84
1014.78	226.87
1015.06	226.80
1015.35	226.83
1015.64	226.81
1015.92	226.86
1016.21	226.83
1016.50	226.83
1016.78	226.88
1017.07	226.86
1017.36	226.86
1017.64	226.84
1017.93	226.87
1018.22	226.86
1018.50	226.85
1018.79	226.86
1019.08	226.80
1019.36	226.82
1019.65	226.84
1019.93	226.89
1020.22	226.87
1020.51	226.91
1020.79	226.90
1021.08	226.56
1021.36	226.14
1021.65	227.08
1021.94	226.82
1022.22	226.99
1022.51	226.98
1022.79	227.32
1023.08	226.76
1023.36	227.96
1023.65	226.66
>>>>>End Processed Spectral Data<<<<<
