SpectraSuite Data File
++++++++++++++++++++++++++++++++++++
Date: Fri Feb 01 18:05:00 EST 2013
User: group
Dark Spectrum Present: No
Reference Spectrum Present: No
Number of Sampled Component Spectra: 1
Spectrometers: USB2E7196
Integration Time (usec): 35000 (USB2E7196)
Spectra Averaged: 100 (USB2E7196)
Boxcar Smoothing: 10 (USB2E7196)
Correct for Electrical Dark: No (USB2E7196)
Strobe/Lamp Enabled: No (USB2E7196)
Correct for Detector Non-linearity: No (USB2E7196)
Correct for Stray Light: No (USB2E7196)
Number of Pixels in Processed Spectrum: 2048
>>>>>Begin Processed Spectral Data<<<<<
339.09	0.00
339.48	212.50
339.86	214.36
340.24	215.83
340.63	216.88
341.01	220.09
341.39	220.36
341.78	221.68
342.16	222.41
342.54	222.93
342.93	211.40
343.31	222.10
343.69	222.67
344.07	223.15
344.46	223.60
344.84	224.00
345.22	224.26
345.60	224.50
345.99	224.70
346.37	224.87
346.75	224.97
347.13	225.04
347.52	225.11
347.90	225.16
348.28	225.22
348.66	225.29
349.05	225.26
349.43	225.29
349.81	225.37
350.19	225.44
350.57	225.51
350.96	225.59
351.34	225.68
351.72	225.78
352.10	225.85
352.48	225.93
352.87	225.97
353.25	226.04
353.63	226.10
354.01	226.16
354.39	226.21
354.77	226.30
355.15	226.42
355.54	226.47
355.92	226.53
356.30	226.60
356.68	226.73
357.06	226.83
357.44	226.92
357.82	226.96
358.20	227.03
358.58	227.11
358.97	227.21
359.35	227.28
359.73	227.35
360.11	227.41
360.49	227.46
360.87	227.54
361.25	227.58
361.63	227.68
362.01	227.72
362.39	227.76
362.77	227.79
363.15	227.80
363.53	227.82
363.91	227.84
364.29	227.86
364.67	227.78
365.05	227.78
365.43	227.78
365.81	227.80
366.19	227.81
366.57	227.82
366.95	227.78
367.33	227.76
367.71	227.76
368.09	227.77
368.47	227.72
368.85	227.70
369.23	227.68
369.61	227.59
369.99	227.58
370.37	227.58
370.75	227.61
371.13	227.52
371.51	227.51
371.89	227.45
372.27	227.40
372.65	227.35
373.03	227.34
373.41	227.28
373.78	227.21
374.16	227.13
374.54	227.02
374.92	226.95
375.30	226.92
375.68	226.83
376.06	226.78
376.44	226.74
376.82	226.67
377.19	226.63
377.57	226.55
377.95	226.46
378.33	226.35
378.71	226.23
379.09	226.21
379.47	226.15
379.84	226.10
380.22	226.05
380.60	225.97
380.98	225.87
381.36	225.84
381.73	225.76
382.11	225.71
382.49	225.69
382.87	225.62
383.25	225.52
383.62	225.57
384.00	225.49
384.38	225.40
384.76	225.36
385.13	225.35
385.51	225.32
385.89	225.29
386.27	225.27
386.64	225.23
387.02	225.18
387.40	225.13
387.78	225.09
388.15	225.06
388.53	225.02
388.91	225.00
389.29	224.97
389.66	224.98
390.04	224.94
390.42	224.92
390.79	224.93
391.17	224.90
391.55	224.80
391.92	224.78
392.30	224.82
392.68	224.80
393.05	224.80
393.43	224.78
393.81	224.79
394.18	224.77
394.56	224.77
394.94	224.82
395.31	224.79
395.69	224.86
396.06	224.90
396.44	224.93
396.82	224.97
397.19	225.04
397.57	225.05
397.95	225.10
398.32	225.11
398.70	225.17
399.07	225.26
399.45	225.30
399.82	225.35
400.20	225.41
400.58	225.48
400.95	225.49
401.33	225.59
401.70	225.72
402.08	225.78
402.45	225.85
402.83	225.97
403.20	226.13
403.58	226.19
403.95	226.31
404.33	226.47
404.71	226.58
405.08	226.78
405.46	226.96
405.83	227.11
406.21	227.28
406.58	227.46
406.96	227.63
407.33	227.81
407.70	228.05
408.08	228.34
408.45	228.63
408.83	228.91
409.20	229.18
409.58	229.42
409.95	229.77
410.33	230.14
410.70	230.44
411.08	230.81
411.45	231.21
411.82	231.61
412.20	232.02
412.57	232.53
412.95	232.91
413.32	233.45
413.69	234.00
414.07	234.59
414.44	235.17
414.82	235.81
415.19	236.55
415.56	237.27
415.94	238.02
416.31	238.84
416.68	239.66
417.06	240.62
417.43	241.51
417.81	242.54
418.18	243.56
418.55	244.70
418.93	245.86
419.30	247.08
419.67	248.35
420.04	249.66
420.42	251.00
420.79	252.59
421.16	254.14
421.54	255.70
421.91	257.34
422.28	259.08
422.66	260.90
423.03	262.68
423.40	264.52
423.77	266.46
424.15	268.38
424.52	270.41
424.89	272.63
425.26	274.75
425.64	276.67
426.01	278.85
426.38	281.14
426.75	283.42
427.13	285.82
427.50	288.28
427.87	290.84
428.24	293.41
428.61	295.82
428.99	298.46
429.36	301.37
429.73	304.20
430.10	306.96
430.47	309.75
430.85	312.63
431.22	315.65
431.59	318.84
431.96	321.93
432.33	325.31
432.70	328.52
433.08	332.35
433.45	336.01
433.82	339.55
434.19	343.46
434.56	347.27
434.93	350.85
435.30	354.39
435.68	358.31
436.05	362.15
436.42	365.95
436.79	369.35
437.16	373.02
437.53	376.85
437.90	380.67
438.27	384.37
438.64	388.23
439.01	391.76
439.38	394.81
439.75	397.77
440.13	401.18
440.50	404.38
440.87	406.93
441.24	409.65
441.61	412.64
441.98	414.65
442.35	417.13
442.72	419.71
443.09	422.20
443.46	423.60
443.83	424.39
444.20	425.04
444.57	426.20
444.94	426.62
445.31	427.12
445.68	427.55
446.05	427.74
446.42	427.23
446.79	426.68
447.16	426.13
447.53	425.70
447.90	424.11
448.27	422.51
448.64	420.31
449.01	418.71
449.37	415.98
449.74	413.38
450.11	410.30
450.48	406.90
450.85	403.44
451.22	400.50
451.59	397.80
451.96	395.22
452.33	391.70
452.70	388.46
453.07	384.60
453.43	380.76
453.80	376.98
454.17	373.34
454.54	369.88
454.91	366.14
455.28	362.48
455.65	359.09
456.02	355.74
456.38	352.82
456.75	349.15
457.12	346.13
457.49	343.09
457.86	340.16
458.23	337.61
458.59	334.81
458.96	331.92
459.33	329.35
459.70	326.80
460.07	324.74
460.43	322.40
460.80	320.17
461.17	318.11
461.54	316.04
461.91	314.04
462.27	312.02
462.64	310.31
463.01	308.46
463.38	306.66
463.74	304.76
464.11	303.16
464.48	301.77
464.85	300.20
465.21	299.06
465.58	297.74
465.95	296.21
466.32	294.97
466.68	293.75
467.05	292.50
467.42	291.23
467.78	289.90
468.15	288.69
468.52	287.75
468.88	286.59
469.25	285.53
469.62	284.65
469.98	283.76
470.35	282.89
470.72	282.06
471.08	281.19
471.45	280.49
471.82	279.75
472.18	278.92
472.55	278.30
472.92	277.56
473.28	276.93
473.65	276.33
474.02	275.75
474.38	275.23
474.75	274.76
475.11	274.27
475.48	273.91
475.85	273.56
476.21	273.22
476.58	272.96
476.94	272.73
477.31	272.46
477.67	272.18
478.04	271.96
478.41	271.81
478.77	271.73
479.14	271.57
479.50	271.47
479.87	271.47
480.23	271.50
480.60	271.51
480.96	271.52
481.33	271.68
481.69	271.81
482.06	271.97
482.42	272.10
482.79	272.31
483.15	272.63
483.52	273.00
483.88	273.31
484.25	273.68
484.61	274.08
484.98	274.53
485.34	275.08
485.71	275.66
486.07	276.26
486.44	276.86
486.80	277.57
487.17	278.37
487.53	279.21
487.90	280.10
488.26	281.08
488.62	282.12
488.99	283.11
489.35	284.17
489.72	285.32
490.08	286.60
490.44	287.89
490.81	289.30
491.17	290.71
491.54	292.29
491.90	293.89
492.26	295.64
492.63	297.45
492.99	299.33
493.36	301.34
493.72	303.53
494.08	305.73
494.45	308.08
494.81	310.59
495.17	313.14
495.54	315.87
495.90	318.71
496.26	321.69
496.63	324.84
496.99	328.18
497.35	331.61
497.72	335.23
498.08	338.97
498.44	342.81
498.80	346.97
499.17	351.25
499.53	355.66
499.89	360.31
500.26	365.10
500.62	370.08
500.98	375.34
501.34	380.72
501.71	386.37
502.07	392.18
502.43	398.10
502.79	404.28
503.16	410.68
503.52	417.31
503.88	424.08
504.24	431.12
504.60	438.40
504.97	446.02
505.33	453.81
505.69	462.03
506.05	470.37
506.41	478.73
506.78	487.44
507.14	496.50
507.50	505.82
507.86	515.47
508.22	525.30
508.59	535.19
508.95	545.44
509.31	555.91
509.67	566.76
510.03	577.75
510.39	589.05
510.75	600.70
511.12	612.48
511.48	624.61
511.84	636.96
512.20	649.36
512.56	662.20
512.92	675.28
513.28	688.58
513.64	701.98
514.00	715.70
514.37	729.64
514.73	743.75
515.09	757.73
515.45	772.02
515.81	786.67
516.17	801.79
516.53	817.09
516.89	832.48
517.25	847.73
517.61	863.37
517.97	879.11
518.33	894.72
518.69	910.78
519.05	927.03
519.41	943.55
519.77	960.52
520.13	977.38
520.49	994.19
520.85	1010.88
521.21	1028.07
521.57	1045.85
521.93	1063.17
522.29	1081.04
522.65	1098.92
523.01	1116.75
523.37	1134.37
523.73	1152.16
524.09	1169.92
524.45	1187.91
524.81	1206.30
525.17	1224.79
525.53	1243.43
525.89	1262.11
526.25	1280.58
526.61	1298.75
526.97	1317.31
527.33	1335.55
527.68	1354.01
528.04	1372.36
528.40	1390.87
528.76	1409.83
529.12	1428.32
529.48	1447.05
529.84	1464.99
530.20	1483.57
530.56	1502.51
530.91	1522.04
531.27	1540.74
531.63	1559.15
531.99	1577.81
532.35	1595.87
532.71	1613.88
533.07	1632.30
533.42	1650.17
533.78	1668.42
534.14	1687.00
534.50	1704.44
534.86	1722.50
535.21	1739.84
535.57	1758.03
535.93	1775.85
536.29	1792.77
536.65	1810.08
537.00	1826.96
537.36	1844.60
537.72	1861.35
538.08	1878.13
538.44	1894.15
538.79	1910.37
539.15	1926.23
539.51	1942.07
539.87	1958.75
540.22	1974.65
540.58	1990.65
540.94	2006.25
541.29	2021.47
541.65	2036.36
542.01	2051.91
542.37	2066.51
542.72	2081.31
543.08	2095.46
543.44	2110.09
543.79	2123.78
544.15	2137.02
544.51	2151.03
544.87	2164.13
545.22	2177.19
545.58	2189.75
545.94	2201.77
546.29	2213.88
546.65	2226.07
547.01	2237.59
547.36	2248.40
547.72	2259.14
548.07	2269.04
548.43	2279.45
548.79	2289.45
549.14	2299.00
549.50	2308.17
549.86	2317.92
550.21	2327.15
550.57	2336.20
550.92	2344.83
551.28	2353.75
551.64	2362.68
551.99	2371.23
552.35	2379.32
552.70	2387.53
553.06	2395.33
553.41	2403.40
553.77	2411.43
554.13	2419.29
554.48	2427.46
554.84	2434.91
555.19	2441.88
555.55	2449.03
555.90	2455.22
556.26	2462.05
556.61	2468.58
556.97	2474.94
557.32	2480.87
557.68	2486.65
558.03	2492.63
558.39	2497.86
558.74	2504.18
559.10	2509.65
559.45	2514.86
559.81	2520.86
560.16	2526.18
560.52	2530.94
560.87	2535.94
561.23	2539.77
561.58	2544.12
561.94	2548.00
562.29	2551.50
562.64	2555.70
563.00	2559.50
563.35	2564.43
563.71	2568.88
564.06	2573.39
564.42	2577.56
564.77	2581.27
565.12	2585.12
565.48	2588.33
565.83	2591.50
566.19	2593.94
566.54	2595.97
566.89	2598.22
567.25	2599.96
567.60	2602.36
567.96	2605.25
568.31	2607.15
568.66	2609.56
569.02	2611.18
569.37	2612.35
569.72	2614.38
570.08	2615.35
570.43	2616.17
570.78	2616.32
571.14	2615.47
571.49	2614.77
571.84	2615.11
572.20	2614.61
572.55	2613.84
572.90	2612.63
573.26	2611.88
573.61	2610.63
573.96	2609.41
574.31	2606.80
574.67	2604.12
575.02	2600.70
575.37	2597.36
575.72	2593.58
576.08	2590.13
576.43	2586.90
576.78	2583.40
577.13	2580.23
577.49	2577.19
577.84	2573.88
578.19	2570.09
578.54	2566.42
578.90	2562.16
579.25	2556.14
579.60	2550.92
579.95	2545.79
580.30	2540.66
580.66	2535.08
581.01	2529.70
581.36	2524.57
581.71	2520.05
582.06	2515.25
582.42	2510.49
582.77	2504.93
583.12	2500.16
583.47	2495.36
583.82	2489.99
584.17	2484.45
584.53	2478.45
584.88	2472.33
585.23	2465.92
585.58	2459.96
585.93	2453.95
586.28	2448.65
586.63	2443.29
586.98	2437.84
587.34	2432.57
587.69	2427.02
588.04	2421.28
588.39	2415.15
588.74	2407.88
589.09	2401.01
589.44	2393.44
589.79	2386.58
590.14	2380.29
590.49	2372.92
590.84	2365.43
591.19	2358.81
591.54	2351.35
591.89	2343.18
592.25	2335.64
592.60	2327.47
592.95	2319.08
593.30	2310.70
593.65	2301.98
594.00	2293.86
594.35	2285.43
594.70	2276.23
595.05	2268.25
595.40	2259.92
595.75	2251.31
596.10	2244.14
596.45	2236.51
596.80	2229.46
597.15	2221.98
597.50	2213.84
597.85	2206.28
598.19	2198.78
598.54	2190.61
598.89	2182.99
599.24	2176.14
599.59	2168.42
599.94	2161.24
600.29	2153.73
600.64	2146.14
600.99	2137.88
601.34	2130.09
601.69	2122.17
602.04	2114.36
602.39	2105.82
602.74	2097.81
603.08	2089.86
603.43	2082.13
603.78	2073.62
604.13	2065.15
604.48	2056.75
604.83	2048.77
605.18	2040.92
605.53	2031.65
605.87	2022.16
606.22	2013.71
606.57	2004.30
606.92	1995.59
607.27	1987.27
607.62	1979.32
607.96	1970.90
608.31	1963.02
608.66	1953.96
609.01	1945.03
609.36	1936.09
609.70	1926.65
610.05	1917.35
610.40	1908.51
610.75	1898.72
611.10	1889.73
611.44	1879.77
611.79	1870.10
612.14	1859.94
612.49	1848.90
612.83	1839.03
613.18	1829.49
613.53	1819.88
613.88	1809.83
614.22	1800.14
614.57	1789.93
614.92	1780.44
615.27	1771.55
615.61	1761.68
615.96	1752.23
616.31	1743.23
616.65	1734.48
617.00	1725.41
617.35	1716.11
617.70	1706.34
618.04	1696.32
618.39	1686.50
618.74	1677.58
619.08	1667.87
619.43	1658.78
619.78	1650.65
620.12	1642.19
620.47	1633.32
620.82	1623.67
621.16	1614.81
621.51	1605.77
621.85	1596.77
622.20	1586.70
622.55	1576.79
622.89	1567.51
623.24	1558.42
623.59	1549.59
623.93	1540.65
624.28	1532.12
624.62	1523.36
624.97	1514.75
625.32	1506.62
625.66	1498.38
626.01	1489.94
626.35	1481.25
626.70	1472.12
627.04	1463.04
627.39	1453.76
627.73	1444.95
628.08	1436.81
628.43	1428.43
628.77	1419.83
629.12	1410.94
629.46	1402.41
629.81	1393.45
630.15	1384.94
630.50	1376.26
630.84	1366.61
631.19	1357.27
631.53	1348.36
631.88	1339.31
632.22	1330.33
632.57	1321.71
632.91	1312.71
633.26	1303.96
633.60	1295.25
633.95	1286.81
634.29	1278.45
634.64	1270.53
634.98	1261.86
635.32	1253.40
635.67	1245.51
636.01	1237.54
636.36	1229.52
636.70	1221.81
637.05	1214.21
637.39	1206.64
637.73	1198.99
638.08	1192.02
638.42	1184.94
638.77	1177.36
639.11	1169.73
639.45	1162.22
639.80	1154.49
640.14	1147.06
640.49	1139.30
640.83	1131.80
641.17	1124.59
641.52	1117.15
641.86	1109.60
642.20	1102.77
642.55	1095.39
642.89	1087.74
643.23	1080.11
643.58	1073.34
643.92	1066.09
644.26	1058.98
644.61	1051.83
644.95	1044.86
645.29	1037.25
645.64	1029.42
645.98	1022.04
646.32	1015.13
646.66	1008.12
647.01	1001.36
647.35	994.68
647.69	987.83
648.04	981.43
648.38	974.63
648.72	967.70
649.06	960.69
649.41	953.86
649.75	946.97
650.09	940.07
650.43	933.41
650.78	926.27
651.12	919.36
651.46	912.81
651.80	906.19
652.14	899.90
652.49	893.64
652.83	887.67
653.17	881.21
653.51	874.67
653.85	868.33
654.20	861.77
654.54	854.79
654.88	848.23
655.22	841.34
655.56	834.74
655.90	828.48
656.25	822.42
656.59	816.20
656.93	810.25
657.27	804.38
657.61	798.04
657.95	792.22
658.29	786.40
658.64	780.21
658.98	773.98
659.32	767.58
659.66	761.63
660.00	755.41
660.34	749.62
660.68	743.87
661.02	738.09
661.36	732.62
661.70	727.45
662.05	722.38
662.39	717.45
662.73	712.30
663.07	707.19
663.41	702.03
663.75	696.83
664.09	691.59
664.43	686.42
664.77	681.67
665.11	676.64
665.45	671.83
665.79	667.18
666.13	662.44
666.47	657.74
666.81	652.92
667.15	648.30
667.49	643.81
667.83	639.39
668.17	634.84
668.51	630.11
668.85	625.37
669.19	620.86
669.53	616.40
669.87	611.90
670.21	607.57
670.55	603.31
670.89	599.31
671.23	595.29
671.57	591.16
671.91	587.04
672.25	582.98
672.58	578.83
672.92	574.87
673.26	571.13
673.60	567.47
673.94	563.87
674.28	560.36
674.62	556.84
674.96	553.25
675.30	549.81
675.64	546.44
675.97	543.21
676.31	539.94
676.65	536.53
676.99	533.39
677.33	530.07
677.67	526.82
678.01	523.31
678.34	519.92
678.68	516.58
679.02	513.36
679.36	510.16
679.70	507.03
680.04	503.79
680.37	500.51
680.71	497.28
681.05	494.20
681.39	491.09
681.73	488.05
682.06	485.08
682.40	482.19
682.74	479.23
683.08	476.27
683.42	473.25
683.75	470.36
684.09	467.33
684.43	464.52
684.77	461.66
685.10	458.90
685.44	456.20
685.78	453.57
686.12	450.93
686.45	448.27
686.79	445.58
687.13	443.00
687.46	440.50
687.80	437.93
688.14	435.32
688.48	432.85
688.81	430.23
689.15	427.75
689.49	425.20
689.82	422.81
690.16	420.39
690.50	418.10
690.83	415.80
691.17	413.54
691.51	411.31
691.84	409.15
692.18	406.92
692.52	404.60
692.85	402.36
693.19	400.18
693.52	398.07
693.86	395.99
694.20	393.96
694.53	391.83
694.87	389.67
695.21	387.58
695.54	385.51
695.88	383.54
696.21	381.51
696.55	379.59
696.88	377.56
697.22	375.60
697.56	373.71
697.89	371.81
698.23	369.98
698.56	368.08
698.90	366.25
699.23	364.34
699.57	362.52
699.90	360.75
700.24	358.98
700.58	357.23
700.91	355.53
701.25	353.82
701.58	352.22
701.92	350.71
702.25	349.18
702.59	347.60
702.92	346.08
703.26	344.62
703.59	343.11
703.93	341.78
704.26	340.42
704.60	338.92
704.93	337.43
705.26	335.97
705.60	334.59
705.93	333.22
706.27	332.02
706.60	330.76
706.94	329.46
707.27	328.10
707.61	326.79
707.94	325.55
708.27	324.27
708.61	323.01
708.94	321.81
709.28	320.63
709.61	319.50
709.94	318.39
710.28	317.19
710.61	316.07
710.95	314.79
711.28	313.64
711.61	312.53
711.95	311.45
712.28	310.34
712.61	309.17
712.95	308.09
713.28	307.02
713.61	306.02
713.95	304.99
714.28	303.99
714.61	302.99
714.95	301.98
715.28	300.99
715.61	299.97
715.95	298.95
716.28	297.93
716.61	296.93
716.95	295.93
717.28	295.04
717.61	294.11
717.94	293.28
718.28	292.36
718.61	291.51
718.94	290.69
719.27	289.88
719.61	289.17
719.94	288.38
720.27	287.58
720.60	286.78
720.94	286.05
721.27	285.40
721.60	284.73
721.93	284.05
722.27	283.39
722.60	282.77
722.93	282.09
723.26	281.47
723.59	280.86
723.93	280.24
724.26	279.59
724.59	278.96
724.92	278.37
725.25	277.81
725.59	277.22
725.92	276.63
726.25	276.05
726.58	275.44
726.91	274.88
727.24	274.35
727.57	273.78
727.91	273.18
728.24	272.61
728.57	272.03
728.90	271.49
729.23	270.93
729.56	270.42
729.89	269.91
730.22	269.34
730.55	268.74
730.89	268.21
731.22	267.67
731.55	267.17
731.88	266.65
732.21	266.17
732.54	265.65
732.87	265.20
733.20	264.74
733.53	264.28
733.86	263.83
734.19	263.36
734.52	262.92
734.85	262.55
735.18	262.07
735.51	261.66
735.84	261.21
736.17	260.83
736.50	260.36
736.83	260.05
737.16	259.65
737.49	259.28
737.82	258.88
738.15	258.53
738.48	258.12
738.81	257.72
739.14	257.34
739.47	256.97
739.80	256.56
740.13	256.23
740.46	255.88
740.79	255.49
741.12	255.12
741.45	254.78
741.78	254.35
742.11	254.02
742.44	253.60
742.77	253.28
743.10	252.91
743.43	252.57
743.75	252.14
744.08	251.95
744.41	251.65
744.74	251.33
745.07	250.97
745.40	250.68
745.73	250.40
746.06	250.05
746.39	249.75
746.71	249.45
747.04	249.12
747.37	248.80
747.70	248.52
748.03	248.24
748.36	247.98
748.68	247.74
749.01	247.46
749.34	247.24
749.67	246.95
750.00	246.67
750.33	246.50
750.65	246.23
750.98	245.86
751.31	245.59
751.64	245.37
751.97	245.18
752.29	244.94
752.62	244.67
752.95	244.46
753.28	244.20
753.60	243.92
753.93	243.70
754.26	243.45
754.59	243.18
754.91	242.93
755.24	242.67
755.57	242.43
755.90	242.17
756.22	241.94
756.55	241.75
756.88	241.53
757.20	241.24
757.53	241.04
757.86	240.84
758.19	240.67
758.51	240.43
758.84	240.19
759.17	239.96
759.49	239.77
759.82	239.57
760.15	239.41
760.47	239.25
760.80	239.07
761.13	238.91
761.45	238.75
761.78	238.56
762.11	238.41
762.43	238.24
762.76	238.10
763.08	237.92
763.41	237.71
763.74	237.55
764.06	237.39
764.39	237.21
764.71	237.03
765.04	236.86
765.37	236.70
765.69	236.58
766.02	236.44
766.34	236.28
766.67	236.12
767.00	236.00
767.32	235.93
767.65	235.85
767.97	235.70
768.30	235.57
768.62	235.46
768.95	235.31
769.27	235.17
769.60	235.05
769.92	234.95
770.25	234.83
770.57	234.69
770.90	234.56
771.22	234.45
771.55	234.35
771.87	234.23
772.20	234.13
772.52	234.09
772.85	234.09
773.17	233.95
773.50	233.83
773.82	233.72
774.15	233.59
774.47	233.46
774.80	233.36
775.12	233.26
775.45	233.17
775.77	233.09
776.09	233.00
776.42	232.94
776.74	232.84
777.07	232.75
777.39	232.67
777.72	232.60
778.04	232.55
778.36	232.42
778.69	232.31
779.01	232.23
779.33	232.06
779.66	231.89
779.98	231.79
780.31	231.74
780.63	231.69
780.95	231.62
781.28	231.50
781.60	231.45
781.92	231.37
782.25	231.30
782.57	231.23
782.89	231.14
783.22	231.05
783.54	230.98
783.86	230.95
784.19	230.87
784.51	230.82
784.83	230.77
785.16	230.73
785.48	230.66
785.80	230.61
786.12	230.56
786.45	230.49
786.77	230.49
787.09	230.40
787.42	230.33
787.74	230.27
788.06	230.24
788.38	230.18
788.71	230.14
789.03	230.09
789.35	230.09
789.67	230.09
789.99	230.06
790.32	230.04
790.64	230.02
790.96	230.08
791.28	230.01
791.61	229.96
791.93	229.93
792.25	229.93
792.57	229.97
792.89	229.93
793.21	229.88
793.54	229.84
793.86	229.81
794.18	229.78
794.50	229.72
794.82	229.68
795.14	229.65
795.47	229.60
795.79	229.57
796.11	229.49
796.43	229.42
796.75	229.37
797.07	229.30
797.39	229.26
797.71	229.14
798.04	229.13
798.36	229.09
798.68	229.06
799.00	229.04
799.32	228.93
799.64	228.90
799.96	228.88
800.28	228.88
800.60	228.86
800.92	228.81
801.24	228.78
801.56	228.72
801.89	228.69
802.21	228.64
802.53	228.60
802.85	228.59
803.17	228.58
803.49	228.50
803.81	228.48
804.13	228.44
804.45	228.37
804.77	228.30
805.09	228.27
805.41	228.20
805.73	228.13
806.05	228.08
806.37	228.03
806.69	227.99
807.01	227.90
807.33	227.86
807.65	227.81
807.97	227.81
808.28	227.76
808.60	227.72
808.92	227.67
809.24	227.67
809.56	227.60
809.88	227.53
810.20	227.54
810.52	227.48
810.84	227.41
811.16	227.35
811.48	227.34
811.80	227.37
812.12	227.35
812.43	227.33
812.75	227.30
813.07	227.26
813.39	227.23
813.71	227.21
814.03	227.16
814.35	227.10
814.67	227.05
814.98	227.04
815.30	227.03
815.62	227.01
815.94	226.94
816.26	226.94
816.58	226.89
816.89	226.86
817.21	226.83
817.53	226.82
817.85	226.82
818.17	226.78
818.48	226.66
818.80	226.65
819.12	226.61
819.44	226.56
819.76	226.56
820.07	226.53
820.39	226.50
820.71	226.51
821.03	226.51
821.34	226.47
821.66	226.45
821.98	226.42
822.30	226.36
822.61	226.43
822.93	226.39
823.25	226.38
823.57	226.39
823.88	226.39
824.20	226.36
824.52	226.36
824.83	226.36
825.15	226.36
825.47	226.32
825.79	226.34
826.10	226.34
826.42	226.29
826.74	226.28
827.05	226.28
827.37	226.25
827.69	226.25
828.00	226.24
828.32	226.26
828.64	226.22
828.95	226.25
829.27	226.19
829.58	226.17
829.90	226.15
830.22	226.12
830.53	226.11
830.85	226.11
831.17	226.09
831.48	226.09
831.80	226.07
832.11	226.07
832.43	226.05
832.75	226.05
833.06	226.09
833.38	226.06
833.69	226.05
834.01	226.03
834.32	225.99
834.64	225.96
834.96	225.92
835.27	225.94
835.59	225.96
835.90	225.95
836.22	225.94
836.53	225.97
836.85	225.94
837.16	226.05
837.48	226.07
837.79	226.09
838.11	226.06
838.42	226.08
838.74	226.09
839.05	226.07
839.37	226.06
839.68	226.04
840.00	226.03
840.31	226.05
840.63	226.05
840.94	226.05
841.26	226.06
841.57	226.07
841.88	226.07
842.20	226.02
842.51	226.00
842.83	226.02
843.14	226.06
843.46	226.09
843.77	226.00
844.08	225.98
844.40	225.93
844.71	225.93
845.03	225.92
845.34	225.92
845.65	225.90
845.97	225.89
846.28	225.89
846.60	225.90
846.91	225.87
847.22	225.90
847.54	225.92
847.85	225.93
848.16	225.93
848.48	225.90
848.79	225.92
849.10	225.92
849.42	225.93
849.73	225.83
850.04	225.79
850.36	225.76
850.67	225.76
850.98	225.77
851.30	225.77
851.61	225.76
851.92	225.75
852.23	225.79
852.55	225.78
852.86	225.76
853.17	225.77
853.49	225.78
853.80	225.78
854.11	225.79
854.42	225.82
854.74	225.78
855.05	225.77
855.36	225.75
855.67	225.73
855.99	225.69
856.30	225.81
856.61	225.83
856.92	225.81
857.23	225.82
857.55	225.80
857.86	225.76
858.17	225.76
858.48	225.72
858.79	225.70
859.11	225.72
859.42	225.72
859.73	225.67
860.04	225.66
860.35	225.63
860.66	225.58
860.98	225.56
861.29	225.57
861.60	225.57
861.91	225.56
862.22	225.54
862.53	225.56
862.84	225.46
863.16	225.49
863.47	225.51
863.78	225.50
864.09	225.45
864.40	225.49
864.71	225.49
865.02	225.48
865.33	225.46
865.64	225.42
865.95	225.38
866.27	225.48
866.58	225.48
866.89	225.46
867.20	225.44
867.51	225.39
867.82	225.38
868.13	225.42
868.44	225.41
868.75	225.44
869.06	225.43
869.37	225.42
869.68	225.38
869.99	225.37
870.30	225.39
870.61	225.47
870.92	225.46
871.23	225.43
871.54	225.44
871.85	225.50
872.16	225.51
872.47	225.53
872.78	225.44
873.09	225.43
873.40	225.45
873.71	225.45
874.02	225.48
874.33	225.48
874.64	225.45
874.95	225.46
875.26	225.41
875.56	225.39
875.87	225.40
876.18	225.40
876.49	225.50
876.80	225.44
877.11	225.39
877.42	225.39
877.73	225.42
878.04	225.40
878.35	225.38
878.66	225.38
878.96	225.37
879.27	225.37
879.58	225.37
879.89	225.34
880.20	225.38
880.51	225.38
880.82	225.35
881.12	225.33
881.43	225.32
881.74	225.34
882.05	225.34
882.36	225.30
882.67	225.28
882.97	225.18
883.28	225.19
883.59	225.20
883.90	225.21
884.21	225.19
884.51	225.20
884.82	225.21
885.13	225.19
885.44	225.19
885.74	225.19
886.05	225.21
886.36	225.19
886.67	225.16
886.98	225.20
887.28	225.20
887.59	225.20
887.90	225.19
888.20	225.19
888.51	225.22
888.82	225.21
889.13	225.22
889.43	225.29
889.74	225.27
890.05	225.23
890.35	225.23
890.66	225.24
890.97	225.23
891.28	225.20
891.58	225.22
891.89	225.22
892.20	225.22
892.50	225.16
892.81	225.18
893.12	225.18
893.42	225.14
893.73	225.16
894.04	225.18
894.34	225.21
894.65	225.20
894.95	225.17
895.26	225.19
895.57	225.23
895.87	225.13
896.18	225.14
896.48	225.15
896.79	225.14
897.10	225.12
897.40	225.14
897.71	225.14
898.01	225.13
898.32	225.16
898.63	225.15
898.93	225.18
899.24	225.16
899.54	225.17
899.85	225.18
900.15	225.18
900.46	225.17
900.76	225.16
901.07	225.18
901.38	225.17
901.68	225.16
901.99	225.08
902.29	225.13
902.60	225.12
902.90	225.10
903.21	225.09
903.51	225.08
903.82	225.08
904.12	225.08
904.43	225.10
904.73	225.09
905.03	225.09
905.34	225.19
905.64	225.19
905.95	225.19
906.25	225.19
906.56	225.20
906.86	225.20
907.17	225.21
907.47	225.22
907.77	225.23
908.08	225.22
908.38	225.26
908.69	225.26
908.99	225.33
909.30	225.38
909.60	225.41
909.90	225.41
910.21	225.37
910.51	225.37
910.81	225.38
911.12	225.37
911.42	225.36
911.73	225.27
912.03	225.30
912.33	225.30
912.64	225.29
912.94	225.26
913.24	225.24
913.55	225.23
913.85	225.21
914.15	225.25
914.46	225.25
914.76	225.26
915.06	225.26
915.37	225.22
915.67	225.17
915.97	225.14
916.27	225.13
916.58	225.17
916.88	225.17
917.18	225.15
917.49	225.20
917.79	225.22
918.09	225.21
918.39	225.21
918.70	225.21
919.00	225.22
919.30	225.27
919.60	225.27
919.91	225.28
920.21	225.29
920.51	225.27
920.81	225.27
921.12	225.25
921.42	225.24
921.72	225.25
922.02	225.28
922.32	225.29
922.63	225.32
922.93	225.33
923.23	225.34
923.53	225.32
923.83	225.26
924.13	225.26
924.44	225.27
924.74	225.26
925.04	225.29
925.34	225.27
925.64	225.22
925.94	225.19
926.24	225.24
926.55	225.26
926.85	225.21
927.15	225.21
927.45	225.19
927.75	225.22
928.05	225.21
928.35	225.19
928.65	225.22
928.95	225.20
929.26	225.16
929.56	225.17
929.86	225.17
930.16	225.16
930.46	225.14
930.76	225.13
931.06	225.12
931.36	225.08
931.66	225.13
931.96	225.13
932.26	225.14
932.56	225.07
932.86	225.03
933.16	225.06
933.46	225.05
933.76	225.05
934.06	225.05
934.36	225.08
934.66	225.08
934.96	225.07
935.26	225.05
935.56	225.08
935.86	225.02
936.16	225.01
936.46	224.96
936.76	224.97
937.06	224.96
937.36	224.96
937.66	224.96
937.96	224.91
938.26	224.92
938.56	224.93
938.86	224.93
939.16	224.99
939.46	224.99
939.76	224.98
940.06	224.97
940.35	224.92
940.65	224.84
940.95	224.84
941.25	224.82
941.55	224.82
941.85	224.82
942.15	224.88
942.45	224.93
942.75	224.98
943.04	224.99
943.34	225.01
943.64	224.99
943.94	224.94
944.24	224.95
944.54	224.93
944.84	224.95
945.13	224.93
945.43	224.89
945.73	224.87
946.03	224.89
946.33	224.88
946.62	224.88
946.92	224.91
947.22	224.91
947.52	224.90
947.82	224.93
948.11	224.89
948.41	224.87
948.71	224.83
949.01	224.80
949.31	224.79
949.60	224.76
949.90	224.76
950.20	224.79
950.50	224.79
950.79	224.78
951.09	224.78
951.39	224.75
951.69	224.74
951.98	224.79
952.28	224.76
952.58	224.76
952.87	224.78
953.17	224.79
953.47	224.76
953.76	224.76
954.06	224.72
954.36	224.73
954.66	224.72
954.95	224.75
955.25	224.79
955.55	224.78
955.84	224.78
956.14	224.77
956.44	224.78
956.73	224.76
957.03	224.77
957.32	224.75
957.62	224.75
957.92	224.76
958.21	224.70
958.51	224.84
958.81	224.85
959.10	224.80
959.40	224.82
959.69	224.83
959.99	224.84
960.29	224.85
960.58	224.86
960.88	224.88
961.17	224.86
961.47	224.87
961.76	224.86
962.06	224.86
962.36	224.86
962.65	224.89
962.95	224.92
963.24	224.93
963.54	224.99
963.83	225.03
964.13	225.03
964.42	225.06
964.72	224.97
965.01	224.98
965.31	225.03
965.60	225.00
965.90	225.08
966.19	225.05
966.49	225.04
966.78	225.05
967.08	225.01
967.37	225.00
967.67	224.97
967.96	224.99
968.26	225.02
968.55	225.07
968.85	225.06
969.14	225.01
969.43	224.99
969.73	224.94
970.02	224.94
970.32	224.95
970.61	224.93
970.91	224.91
971.20	224.91
971.49	224.88
971.79	224.91
972.08	224.83
972.38	224.83
972.67	224.81
972.96	224.79
973.26	224.79
973.55	224.84
973.85	224.81
974.14	224.83
974.43	224.82
974.73	224.74
975.02	224.71
975.31	224.76
975.61	224.76
975.90	224.75
976.19	224.72
976.49	224.71
976.78	224.68
977.07	224.69
977.37	224.67
977.66	224.67
977.95	224.64
978.24	224.67
978.54	224.71
978.83	224.73
979.12	224.70
979.42	224.73
979.71	224.70
980.00	224.68
980.29	224.66
980.59	224.62
980.88	224.69
981.17	224.68
981.46	224.66
981.76	224.64
982.05	224.67
982.34	224.71
982.63	224.71
982.93	224.72
983.22	224.74
983.51	224.73
983.80	224.77
984.09	224.80
984.39	224.79
984.68	224.78
984.97	224.80
985.26	224.79
985.55	224.79
985.85	224.78
986.14	224.82
986.43	224.83
986.72	224.85
987.01	224.77
987.30	224.80
987.59	224.78
987.89	224.78
988.18	224.75
988.47	224.72
988.76	224.71
989.05	224.68
989.34	224.67
989.63	224.69
989.92	224.64
990.22	224.61
990.51	224.58
990.80	224.57
991.09	224.56
991.38	224.57
991.67	224.55
991.96	224.54
992.25	224.55
992.54	224.51
992.83	224.52
993.12	224.55
993.41	224.56
993.70	224.60
993.99	224.64
994.28	224.67
994.58	224.69
994.87	224.69
995.16	224.69
995.45	224.68
995.74	224.65
996.03	224.69
996.32	224.72
996.61	224.76
996.90	224.76
997.19	224.73
997.48	224.75
997.77	224.72
998.06	224.73
998.34	224.71
998.63	224.71
998.92	224.71
999.21	224.75
999.50	224.74
999.79	224.68
1000.08	224.66
1000.37	224.65
1000.66	224.63
1000.95	224.64
1001.24	224.68
1001.53	224.67
1001.82	224.66
1002.11	224.61
1002.40	224.60
1002.68	224.59
1002.97	224.66
1003.26	224.67
1003.55	224.63
1003.84	224.68
1004.13	224.70
1004.42	224.73
1004.71	224.74
1004.99	224.73
1005.28	224.75
1005.57	224.76
1005.86	224.79
1006.15	224.77
1006.44	224.77
1006.72	224.78
1007.01	224.79
1007.30	224.76
1007.59	224.79
1007.88	224.82
1008.17	224.87
1008.45	224.89
1008.74	224.88
1009.03	224.84
1009.32	224.86
1009.60	224.89
1009.89	224.88
1010.18	224.85
1010.47	224.83
1010.76	224.79
1011.04	224.82
1011.33	224.86
1011.62	224.87
1011.91	224.89
1012.19	224.92
1012.48	224.93
1012.77	224.91
1013.05	224.97
1013.34	225.00
1013.63	224.97
1013.92	224.95
1014.20	224.95
1014.49	224.92
1014.78	224.91
1015.06	224.86
1015.35	224.84
1015.64	224.84
1015.92	224.83
1016.21	224.85
1016.50	224.86
1016.78	224.87
1017.07	224.87
1017.36	224.79
1017.64	224.77
1017.93	224.79
1018.22	224.77
1018.50	224.77
1018.79	224.78
1019.08	224.72
1019.36	224.71
1019.65	224.74
1019.93	224.77
1020.22	224.75
1020.51	224.82
1020.79	224.82
1021.08	224.91
1021.36	224.95
1021.65	224.88
1021.94	224.54
1022.22	224.91
1022.51	225.16
1022.79	225.26
1023.08	224.70
1023.36	225.90
1023.65	224.60
>>>>>End Processed Spectral Data<<<<<
