SpectraSuite Data File
++++++++++++++++++++++++++++++++++++
Date: Fri Feb 01 16:05:36 EST 2013
User: group
Dark Spectrum Present: No
Reference Spectrum Present: No
Number of Sampled Component Spectra: 1
Spectrometers: USB2E7196
Integration Time (usec): 35000 (USB2E7196)
Spectra Averaged: 100 (USB2E7196)
Boxcar Smoothing: 10 (USB2E7196)
Correct for Electrical Dark: No (USB2E7196)
Strobe/Lamp Enabled: No (USB2E7196)
Correct for Detector Non-linearity: No (USB2E7196)
Correct for Stray Light: No (USB2E7196)
Number of Pixels in Processed Spectrum: 2048
>>>>>Begin Processed Spectral Data<<<<<
339.09	0.00
339.48	214.41
339.86	216.05
340.24	217.86
340.63	218.22
341.01	222.13
341.39	221.91
341.78	223.49
342.16	224.13
342.54	224.59
342.93	213.07
343.31	223.85
343.69	224.40
344.07	224.83
344.46	225.25
344.84	225.67
345.22	225.87
345.60	226.15
345.99	226.32
346.37	226.46
346.75	226.55
347.13	226.61
347.52	226.67
347.90	226.76
348.28	226.77
348.66	226.82
349.05	226.79
349.43	226.82
349.81	226.84
350.19	226.90
350.57	226.93
350.96	226.99
351.34	227.05
351.72	227.15
352.10	227.28
352.48	227.34
352.87	227.36
353.25	227.44
353.63	227.43
354.01	227.48
354.39	227.53
354.77	227.59
355.15	227.66
355.54	227.70
355.92	227.71
356.30	227.80
356.68	227.94
357.06	228.00
357.44	228.06
357.82	228.12
358.20	228.21
358.58	228.27
358.97	228.35
359.35	228.44
359.73	228.52
360.11	228.54
360.49	228.60
360.87	228.67
361.25	228.71
361.63	228.81
362.01	228.84
362.39	228.89
362.77	228.94
363.15	228.98
363.53	229.02
363.91	229.07
364.29	229.07
364.67	228.97
365.05	228.98
365.43	229.03
365.81	229.03
366.19	229.04
366.57	229.04
366.95	229.03
367.33	228.98
367.71	228.95
368.09	228.95
368.47	228.93
368.85	228.92
369.23	228.94
369.61	228.90
369.99	228.91
370.37	228.87
370.75	228.85
371.13	228.81
371.51	228.76
371.89	228.74
372.27	228.69
372.65	228.65
373.03	228.66
373.41	228.56
373.78	228.51
374.16	228.43
374.54	228.38
374.92	228.31
375.30	228.27
375.68	228.20
376.06	228.14
376.44	228.07
376.82	227.99
377.19	227.88
377.57	227.81
377.95	227.72
378.33	227.68
378.71	227.59
379.09	227.54
379.47	227.47
379.84	227.40
380.22	227.33
380.60	227.28
380.98	227.17
381.36	227.14
381.73	227.08
382.11	227.06
382.49	227.01
382.87	226.94
383.25	226.89
383.62	226.94
384.00	226.87
384.38	226.80
384.76	226.79
385.13	226.75
385.51	226.68
385.89	226.63
386.27	226.55
386.64	226.52
387.02	226.45
387.40	226.40
387.78	226.36
388.15	226.33
388.53	226.27
388.91	226.22
389.29	226.16
389.66	226.18
390.04	226.13
390.42	226.13
390.79	226.13
391.17	226.10
391.55	225.96
391.92	225.96
392.30	226.00
392.68	225.98
393.05	226.00
393.43	226.01
393.81	226.02
394.18	226.05
394.56	226.06
394.94	226.10
395.31	226.12
395.69	226.16
396.06	226.23
396.44	226.29
396.82	226.34
397.19	226.45
397.57	226.46
397.95	226.49
398.32	226.49
398.70	226.56
399.07	226.64
399.45	226.70
399.82	226.76
400.20	226.80
400.58	226.86
400.95	226.87
401.33	226.99
401.70	227.13
402.08	227.20
402.45	227.29
402.83	227.39
403.20	227.52
403.58	227.62
403.95	227.72
404.33	227.84
404.71	227.98
405.08	228.12
405.46	228.24
405.83	228.41
406.21	228.56
406.58	228.71
406.96	228.87
407.33	229.06
407.70	229.24
408.08	229.49
408.45	229.73
408.83	230.01
409.20	230.19
409.58	230.36
409.95	230.62
410.33	230.90
410.70	231.17
411.08	231.46
411.45	231.75
411.82	232.06
412.20	232.44
412.57	232.86
412.95	233.13
413.32	233.55
413.69	233.95
414.07	234.36
414.44	234.83
414.82	235.30
415.19	235.85
415.56	236.42
415.94	236.99
416.31	237.63
416.68	238.21
417.06	238.94
417.43	239.65
417.81	240.42
418.18	241.19
418.55	242.02
418.93	242.87
419.30	243.76
419.67	244.72
420.04	245.65
420.42	246.60
420.79	247.80
421.16	248.94
421.54	250.13
421.91	251.37
422.28	252.61
422.66	253.93
423.03	255.23
423.40	256.54
423.77	257.93
424.15	259.35
424.52	260.84
424.89	262.45
425.26	263.96
425.64	265.39
426.01	266.99
426.38	268.66
426.75	270.34
427.13	272.05
427.50	273.85
427.87	275.69
428.24	277.58
428.61	279.32
428.99	281.24
429.36	283.37
429.73	285.46
430.10	287.47
430.47	289.55
430.85	291.66
431.22	293.92
431.59	296.30
431.96	298.55
432.33	301.03
432.70	303.40
433.08	306.25
433.45	308.93
433.82	311.53
434.19	314.44
434.56	317.24
434.93	319.92
435.30	322.55
435.68	325.48
436.05	328.27
436.42	331.07
436.79	333.63
437.16	336.32
437.53	339.15
437.90	341.99
438.27	344.67
438.64	347.49
439.01	350.05
439.38	352.28
439.75	354.46
440.13	356.97
440.50	359.31
440.87	361.13
441.24	363.07
441.61	365.21
441.98	366.69
442.35	368.55
442.72	370.43
443.09	372.21
443.46	373.19
443.83	373.79
444.20	374.29
444.57	375.10
444.94	375.38
445.31	375.70
445.68	376.08
446.05	376.23
446.42	375.87
446.79	375.47
447.16	375.04
447.53	374.69
447.90	373.53
448.27	372.40
448.64	370.84
449.01	369.64
449.37	367.68
449.74	365.77
450.11	363.51
450.48	361.01
450.85	358.48
451.22	356.35
451.59	354.30
451.96	352.36
452.33	349.78
452.70	347.42
453.07	344.60
453.43	341.65
453.80	338.87
454.17	336.17
454.54	333.67
454.91	330.96
455.28	328.31
455.65	325.84
456.02	323.39
456.38	321.23
456.75	318.56
457.12	316.34
457.49	314.09
457.86	311.92
458.23	310.04
458.59	308.04
458.96	305.96
459.33	304.13
459.70	302.29
460.07	300.77
460.43	299.05
460.80	297.43
461.17	296.01
461.54	294.52
461.91	293.11
462.27	291.59
462.64	290.31
463.01	288.93
463.38	287.61
463.74	286.23
464.11	285.04
464.48	284.04
464.85	282.97
465.21	282.11
465.58	281.18
465.95	280.08
466.32	279.15
466.68	278.23
467.05	277.31
467.42	276.39
467.78	275.49
468.15	274.59
468.52	273.94
468.88	273.08
469.25	272.31
469.62	271.70
469.98	271.04
470.35	270.43
470.72	269.83
471.08	269.16
471.45	268.59
471.82	268.09
472.18	267.50
472.55	266.99
472.92	266.48
473.28	266.01
473.65	265.58
474.02	265.12
474.38	264.77
474.75	264.49
475.11	264.17
475.48	263.89
475.85	263.69
476.21	263.42
476.58	263.26
476.94	263.10
477.31	262.93
477.67	262.78
478.04	262.67
478.41	262.62
478.77	262.69
479.14	262.63
479.50	262.60
479.87	262.66
480.23	262.75
480.60	262.82
480.96	262.96
481.33	263.16
481.69	263.37
482.06	263.57
482.42	263.79
482.79	264.03
483.15	264.36
483.52	264.74
483.88	265.11
484.25	265.50
484.61	265.94
484.98	266.39
485.34	266.99
485.71	267.55
486.07	268.21
486.44	268.77
486.80	269.52
487.17	270.31
487.53	271.17
487.90	272.02
488.26	272.95
488.62	273.91
488.99	274.89
489.35	275.96
489.72	277.08
490.08	278.29
490.44	279.55
490.81	280.87
491.17	282.23
491.54	283.73
491.90	285.27
492.26	286.94
492.63	288.68
492.99	290.48
493.36	292.42
493.72	294.47
494.08	296.58
494.45	298.85
494.81	301.20
495.17	303.61
495.54	306.21
495.90	308.95
496.26	311.75
496.63	314.70
496.99	317.85
497.35	321.11
497.72	324.51
498.08	328.05
498.44	331.75
498.80	335.66
499.17	339.70
499.53	343.89
499.89	348.29
500.26	352.80
500.62	357.44
500.98	362.41
501.34	367.42
501.71	372.77
502.07	378.20
502.43	383.80
502.79	389.64
503.16	395.71
503.52	401.97
503.88	408.38
504.24	415.08
504.60	421.98
504.97	429.18
505.33	436.53
505.69	444.24
506.05	452.04
506.41	459.92
506.78	468.15
507.14	476.58
507.50	485.21
507.86	494.27
508.22	503.51
508.59	512.76
508.95	522.37
509.31	532.15
509.67	542.27
510.03	552.66
510.39	563.25
510.75	574.04
511.12	584.92
511.48	596.24
511.84	607.74
512.20	619.21
512.56	631.10
512.92	643.28
513.28	655.63
513.64	668.04
514.00	680.80
514.37	693.73
514.73	706.80
515.09	719.87
515.45	733.18
515.81	746.76
516.17	760.70
516.53	774.80
516.89	789.08
517.25	803.16
517.61	817.49
517.97	831.93
518.33	846.38
518.69	861.20
519.05	876.11
519.41	891.21
519.77	906.69
520.13	922.15
520.49	937.45
520.85	952.77
521.21	968.59
521.57	984.77
521.93	1000.47
522.29	1016.88
522.65	1033.06
523.01	1049.20
523.37	1065.15
523.73	1081.19
524.09	1097.25
524.45	1113.52
524.81	1130.24
525.17	1146.99
525.53	1163.83
525.89	1180.62
526.25	1197.43
526.61	1213.83
526.97	1230.60
527.33	1247.11
527.68	1263.70
528.04	1280.21
528.40	1296.89
528.76	1313.81
529.12	1330.44
529.48	1347.31
529.84	1363.25
530.20	1379.90
530.56	1396.83
530.91	1414.32
531.27	1431.07
531.63	1447.56
531.99	1464.01
532.35	1479.85
532.71	1495.79
533.07	1512.06
533.42	1528.01
533.78	1544.07
534.14	1560.36
534.50	1575.57
534.86	1591.35
535.21	1606.50
535.57	1622.25
535.93	1637.46
536.29	1652.20
536.65	1667.19
537.00	1681.82
537.36	1696.99
537.72	1711.45
538.08	1725.94
538.44	1739.59
538.79	1753.42
539.15	1767.03
539.51	1780.85
539.87	1795.14
540.22	1808.72
540.58	1822.37
540.94	1835.44
541.29	1848.16
541.65	1860.71
542.01	1874.00
542.37	1886.32
542.72	1898.74
543.08	1910.54
543.44	1923.05
543.79	1934.23
544.15	1945.17
544.51	1956.75
544.87	1967.73
545.22	1978.51
545.58	1988.66
545.94	1998.43
546.29	2008.43
546.65	2018.29
547.01	2027.35
547.36	2036.02
547.72	2044.52
548.07	2052.38
548.43	2060.75
548.79	2068.78
549.14	2076.26
549.50	2083.46
549.86	2091.11
550.21	2098.33
550.57	2105.60
550.92	2112.28
551.28	2119.43
551.64	2126.48
551.99	2133.03
552.35	2139.07
552.70	2145.27
553.06	2151.24
553.41	2157.61
553.77	2163.49
554.13	2169.39
554.48	2175.47
554.84	2181.04
555.19	2186.33
555.55	2191.58
555.90	2195.93
556.26	2200.85
556.61	2205.52
556.97	2209.93
557.32	2214.01
557.68	2218.17
558.03	2222.34
558.39	2225.90
558.74	2230.43
559.10	2234.31
559.45	2237.96
559.81	2242.35
560.16	2246.12
560.52	2249.31
560.87	2252.70
561.23	2255.46
561.58	2258.49
561.94	2261.03
562.29	2263.27
562.64	2265.95
563.00	2268.55
563.35	2272.22
563.71	2275.37
564.06	2278.83
564.42	2281.48
564.77	2283.98
565.12	2286.35
565.48	2288.29
565.83	2290.39
566.19	2291.76
566.54	2292.69
566.89	2293.83
567.25	2294.47
567.60	2295.84
567.96	2297.49
568.31	2298.23
568.66	2299.33
569.02	2300.01
569.37	2300.33
569.72	2301.37
570.08	2301.54
570.43	2301.52
570.78	2300.80
571.14	2299.29
571.49	2297.76
571.84	2297.57
572.20	2296.52
572.55	2295.35
572.90	2293.79
573.26	2292.30
573.61	2290.43
573.96	2288.63
574.31	2285.75
574.67	2282.81
575.02	2279.15
575.37	2275.85
575.72	2272.12
576.08	2268.73
576.43	2265.44
576.78	2261.94
577.13	2258.57
577.49	2255.41
577.84	2251.91
578.19	2248.22
578.54	2244.63
578.90	2240.57
579.25	2235.14
579.60	2230.26
579.95	2225.34
580.30	2220.25
580.66	2214.86
581.01	2210.04
581.36	2205.20
581.71	2201.03
582.06	2196.59
582.42	2192.08
582.77	2186.90
583.12	2182.43
583.47	2177.79
583.82	2172.80
584.17	2167.55
584.53	2162.20
584.88	2156.66
585.23	2150.90
585.58	2145.40
585.93	2139.83
586.28	2134.96
586.63	2129.88
586.98	2124.82
587.34	2120.02
587.69	2115.33
588.04	2110.25
588.39	2104.69
588.74	2098.20
589.09	2092.06
589.44	2085.31
589.79	2079.37
590.14	2073.75
590.49	2067.19
590.84	2060.83
591.19	2054.62
591.54	2048.20
591.89	2040.82
592.25	2034.06
592.60	2026.82
592.95	2019.34
593.30	2012.05
593.65	2004.45
594.00	1997.30
594.35	1989.99
594.70	1982.00
595.05	1974.80
595.40	1967.51
595.75	1960.03
596.10	1953.88
596.45	1947.03
596.80	1940.89
597.15	1934.29
597.50	1927.24
597.85	1920.77
598.19	1914.13
598.54	1907.08
598.89	1900.39
599.24	1894.54
599.59	1887.80
599.94	1881.56
600.29	1875.20
600.64	1868.49
600.99	1861.13
601.34	1854.35
601.69	1847.38
602.04	1840.53
602.39	1833.20
602.74	1826.39
603.08	1819.68
603.43	1812.96
603.78	1805.74
604.13	1798.46
604.48	1791.21
604.83	1784.31
605.18	1777.41
605.53	1769.43
605.87	1761.45
606.22	1754.17
606.57	1746.20
606.92	1738.84
607.27	1731.77
607.62	1724.84
607.96	1717.87
608.31	1711.37
608.66	1703.75
609.01	1696.28
609.36	1688.73
609.70	1680.72
610.05	1672.73
610.40	1664.92
610.75	1656.54
611.10	1648.92
611.44	1640.51
611.79	1632.47
612.14	1623.77
612.49	1614.52
612.83	1606.13
613.18	1598.14
613.53	1590.09
613.88	1581.52
614.22	1573.24
614.57	1564.67
614.92	1556.67
615.27	1549.05
615.61	1540.64
615.96	1532.58
616.31	1524.90
616.65	1517.47
617.00	1509.81
617.35	1502.12
617.70	1493.83
618.04	1485.27
618.39	1476.96
618.74	1469.35
619.08	1461.02
619.43	1453.49
619.78	1446.52
620.12	1439.36
620.47	1431.76
620.82	1423.59
621.16	1416.15
621.51	1408.57
621.85	1400.90
622.20	1392.37
622.55	1383.91
622.89	1376.11
623.24	1368.58
623.59	1361.07
623.93	1353.51
624.28	1346.27
624.62	1338.84
624.97	1331.69
625.32	1325.00
625.66	1317.98
626.01	1310.80
626.35	1303.46
626.70	1295.63
627.04	1287.94
627.39	1280.08
627.73	1272.67
628.08	1265.75
628.43	1258.52
628.77	1251.22
629.12	1243.65
629.46	1236.53
629.81	1229.12
630.15	1221.79
630.50	1214.36
630.84	1206.28
631.19	1198.33
631.53	1190.79
631.88	1183.09
632.22	1175.43
632.57	1168.11
632.91	1160.56
633.26	1153.15
633.60	1145.66
633.95	1138.57
634.29	1131.57
634.64	1124.82
634.98	1117.45
635.32	1110.24
635.67	1103.57
636.01	1096.93
636.36	1090.18
636.70	1083.56
637.05	1076.96
637.39	1070.49
637.73	1063.95
638.08	1058.00
638.42	1052.09
638.77	1045.75
639.11	1039.25
639.45	1032.85
639.80	1026.15
640.14	1019.77
640.49	1013.34
640.83	1007.06
641.17	1000.83
641.52	994.50
641.86	988.14
642.20	982.28
642.55	975.96
642.89	969.56
643.23	962.92
643.58	957.16
643.92	951.03
644.26	945.04
644.61	939.05
644.95	933.02
645.29	926.44
645.64	919.65
645.98	913.25
646.32	907.41
646.66	901.40
647.01	895.65
647.35	889.85
647.69	883.95
648.04	878.35
648.38	872.46
648.72	866.42
649.06	860.26
649.41	854.34
649.75	848.47
650.09	842.50
650.43	836.74
650.78	830.50
651.12	824.54
651.46	818.78
651.80	812.95
652.14	807.50
652.49	802.23
652.83	797.05
653.17	791.39
653.51	785.60
653.85	780.16
654.20	774.45
654.54	768.49
654.88	762.71
655.22	756.86
655.56	751.22
655.90	745.74
656.25	740.57
656.59	735.29
656.93	730.09
657.27	724.91
657.61	719.53
657.95	714.47
658.29	709.40
658.64	704.12
658.98	698.90
659.32	693.47
659.66	688.27
660.00	683.03
660.34	678.07
660.68	673.21
661.02	668.21
661.36	663.54
661.70	659.08
662.05	654.77
662.39	650.46
662.73	646.00
663.07	641.62
663.41	637.16
663.75	632.65
664.09	628.18
664.43	623.78
664.77	619.67
665.11	615.39
665.45	611.24
665.79	607.20
666.13	603.07
666.47	598.96
666.81	594.69
667.15	590.54
667.49	586.64
667.83	582.79
668.17	578.82
668.51	574.75
668.85	570.70
669.19	566.79
669.53	563.01
669.87	559.16
670.21	555.51
670.55	551.87
670.89	548.47
671.23	545.04
671.57	541.53
671.91	537.96
672.25	534.45
672.58	530.93
672.92	527.45
673.26	524.26
673.60	521.22
673.94	518.20
674.28	515.36
674.62	512.39
674.96	509.28
675.30	506.41
675.64	503.46
675.97	500.74
676.31	497.92
676.65	494.98
676.99	492.29
677.33	489.39
677.67	486.58
678.01	483.51
678.34	480.50
678.68	477.60
679.02	474.78
679.36	472.04
679.70	469.26
680.04	466.47
680.37	463.54
680.71	460.68
681.05	458.03
681.39	455.20
681.73	452.52
682.06	449.96
682.40	447.40
682.74	444.88
683.08	442.27
683.42	439.63
683.75	437.09
684.09	434.54
684.43	432.09
684.77	429.66
685.10	427.31
685.44	425.04
685.78	422.77
686.12	420.51
686.45	418.18
686.79	415.92
687.13	413.75
687.46	411.60
687.80	409.45
688.14	407.22
688.48	405.19
688.81	402.94
689.15	400.80
689.49	398.64
689.82	396.51
690.16	394.45
690.50	392.51
690.83	390.64
691.17	388.62
691.51	386.71
691.84	384.83
692.18	382.90
692.52	380.87
692.85	378.93
693.19	377.08
693.52	375.27
693.86	373.45
694.20	371.72
694.53	369.93
694.87	368.06
695.21	366.29
695.54	364.48
695.88	362.77
696.21	361.04
696.55	359.34
696.88	357.66
697.22	355.96
697.56	354.27
697.89	352.57
698.23	350.95
698.56	349.36
698.90	347.78
699.23	346.16
699.57	344.60
699.90	343.04
700.24	341.46
700.58	339.90
700.91	338.40
701.25	336.93
701.58	335.58
701.92	334.22
702.25	332.82
702.59	331.43
702.92	330.12
703.26	328.84
703.59	327.58
703.93	326.39
704.26	325.16
704.60	323.93
704.93	322.62
705.26	321.39
705.60	320.19
705.93	319.00
706.27	317.95
706.60	316.94
706.94	315.91
707.27	314.80
707.61	313.73
707.94	312.70
708.27	311.59
708.61	310.49
708.94	309.48
709.28	308.53
709.61	307.58
709.94	306.65
710.28	305.57
710.61	304.59
710.95	303.51
711.28	302.63
711.61	301.65
711.95	300.77
712.28	299.81
712.61	298.86
712.95	297.92
713.28	297.07
713.61	296.12
713.95	295.19
714.28	294.33
714.61	293.52
714.95	292.68
715.28	291.83
715.61	290.96
715.95	290.12
716.28	289.22
716.61	288.41
716.95	287.58
717.28	286.90
717.61	286.11
717.94	285.38
718.28	284.52
718.61	283.85
718.94	283.17
719.27	282.51
719.61	281.85
719.94	281.21
720.27	280.44
720.60	279.79
720.94	279.15
721.27	278.58
721.60	278.01
721.93	277.42
722.27	276.88
722.60	276.33
722.93	275.77
723.26	275.22
723.59	274.66
723.93	274.08
724.26	273.51
724.59	272.96
724.92	272.44
725.25	271.99
725.59	271.47
725.92	270.96
726.25	270.45
726.58	269.96
726.91	269.47
727.24	269.02
727.57	268.55
727.91	268.07
728.24	267.60
728.57	267.10
728.90	266.67
729.23	266.16
729.56	265.72
729.89	265.25
730.22	264.78
730.55	264.36
730.89	263.94
731.22	263.48
731.55	263.05
731.88	262.63
732.21	262.18
732.54	261.75
732.87	261.31
733.20	260.89
733.53	260.48
733.86	260.13
734.19	259.70
734.52	259.34
734.85	259.04
735.18	258.60
735.51	258.24
735.84	257.84
736.17	257.51
736.50	257.10
736.83	256.84
737.16	256.49
737.49	256.11
737.82	255.77
738.15	255.46
738.48	255.13
738.81	254.78
739.14	254.51
739.47	254.18
739.80	253.86
740.13	253.57
740.46	253.24
740.79	252.91
741.12	252.67
741.45	252.35
741.78	252.00
742.11	251.75
742.44	251.40
742.77	251.11
743.10	250.81
743.43	250.49
743.75	250.14
744.08	250.00
744.41	249.71
744.74	249.39
745.07	249.09
745.40	248.86
745.73	248.62
746.06	248.30
746.39	248.02
746.71	247.75
747.04	247.44
747.37	247.19
747.70	246.92
748.03	246.61
748.36	246.39
748.68	246.13
749.01	245.89
749.34	245.70
749.67	245.44
750.00	245.19
750.33	245.05
750.65	244.81
750.98	244.47
751.31	244.24
751.64	244.03
751.97	243.88
752.29	243.62
752.62	243.38
752.95	243.14
753.28	242.93
753.60	242.74
753.93	242.61
754.26	242.39
754.59	242.17
754.91	241.98
755.24	241.76
755.57	241.59
755.90	241.40
756.22	241.20
756.55	241.05
756.88	240.87
757.20	240.65
757.53	240.48
757.86	240.29
758.19	240.12
758.51	239.97
758.84	239.77
759.17	239.63
759.49	239.47
759.82	239.39
760.15	239.24
760.47	239.12
760.80	238.95
761.13	238.84
761.45	238.68
761.78	238.53
762.11	238.39
762.43	238.23
762.76	238.07
763.08	237.92
763.41	237.81
763.74	237.71
764.06	237.55
764.39	237.39
764.71	237.28
765.04	237.18
765.37	237.03
765.69	236.91
766.02	236.78
766.34	236.65
766.67	236.50
767.00	236.38
767.32	236.27
767.65	236.20
767.97	236.07
768.30	235.98
768.62	235.87
768.95	235.74
769.27	235.64
769.60	235.54
769.92	235.45
770.25	235.33
770.57	235.17
770.90	235.04
771.22	234.96
771.55	234.87
771.87	234.77
772.20	234.70
772.52	234.65
772.85	234.68
773.17	234.62
773.50	234.51
773.82	234.44
774.15	234.33
774.47	234.16
774.80	234.06
775.12	233.97
775.45	233.89
775.77	233.81
776.09	233.74
776.42	233.68
776.74	233.63
777.07	233.55
777.39	233.50
777.72	233.42
778.04	233.35
778.36	233.26
778.69	233.20
779.01	233.14
779.33	233.00
779.66	232.83
779.98	232.71
780.31	232.65
780.63	232.60
780.95	232.58
781.28	232.55
781.60	232.50
781.92	232.43
782.25	232.37
782.57	232.32
782.89	232.25
783.22	232.16
783.54	232.08
783.86	232.01
784.19	231.97
784.51	231.97
784.83	231.92
785.16	231.87
785.48	231.82
785.80	231.76
786.12	231.73
786.45	231.68
786.77	231.67
787.09	231.62
787.42	231.56
787.74	231.47
788.06	231.43
788.38	231.39
788.71	231.36
789.03	231.34
789.35	231.31
789.67	231.26
789.99	231.27
790.32	231.19
790.64	231.15
790.96	231.18
791.28	231.09
791.61	231.04
791.93	231.01
792.25	230.96
792.57	230.99
792.89	230.93
793.21	230.89
793.54	230.82
793.86	230.75
794.18	230.70
794.50	230.67
794.82	230.61
795.14	230.58
795.47	230.55
795.79	230.50
796.11	230.44
796.43	230.40
796.75	230.36
797.07	230.35
797.39	230.33
797.71	230.21
798.04	230.21
798.36	230.19
798.68	230.14
799.00	230.10
799.32	230.02
799.64	229.99
799.96	229.96
800.28	229.96
800.60	229.95
800.92	229.91
801.24	229.88
801.56	229.86
801.89	229.81
802.21	229.80
802.53	229.72
802.85	229.72
803.17	229.75
803.49	229.69
803.81	229.63
804.13	229.61
804.45	229.60
804.77	229.56
805.09	229.57
805.41	229.53
805.73	229.50
806.05	229.45
806.37	229.42
806.69	229.37
807.01	229.32
807.33	229.31
807.65	229.22
807.97	229.24
808.28	229.20
808.60	229.17
808.92	229.12
809.24	229.17
809.56	229.14
809.88	229.09
810.20	229.05
810.52	229.05
810.84	229.01
811.16	228.94
811.48	228.88
811.80	228.88
812.12	228.86
812.43	228.89
812.75	228.87
813.07	228.86
813.39	228.86
813.71	228.83
814.03	228.82
814.35	228.83
814.67	228.75
814.98	228.74
815.30	228.74
815.62	228.70
815.94	228.62
816.26	228.60
816.58	228.56
816.89	228.58
817.21	228.52
817.53	228.52
817.85	228.52
818.17	228.53
818.48	228.45
818.80	228.43
819.12	228.38
819.44	228.35
819.76	228.29
820.07	228.26
820.39	228.24
820.71	228.22
821.03	228.20
821.34	228.18
821.66	228.13
821.98	228.12
822.30	228.08
822.61	228.15
822.93	228.10
823.25	228.06
823.57	228.01
823.88	228.03
824.20	228.00
824.52	227.99
824.83	227.96
825.15	227.93
825.47	227.93
825.79	227.92
826.10	227.90
826.42	227.89
826.74	227.88
827.05	227.87
827.37	227.85
827.69	227.86
828.00	227.84
828.32	227.86
828.64	227.82
828.95	227.92
829.27	227.88
829.58	227.88
829.90	227.87
830.22	227.87
830.53	227.83
830.85	227.82
831.17	227.79
831.48	227.78
831.80	227.80
832.11	227.78
832.43	227.76
832.75	227.76
833.06	227.82
833.38	227.80
833.69	227.79
834.01	227.81
834.32	227.79
834.64	227.80
834.96	227.80
835.27	227.80
835.59	227.75
835.90	227.74
836.22	227.73
836.53	227.72
836.85	227.70
837.16	227.78
837.48	227.76
837.79	227.79
838.11	227.79
838.42	227.77
838.74	227.79
839.05	227.79
839.37	227.80
839.68	227.74
840.00	227.74
840.31	227.75
840.63	227.75
840.94	227.74
841.26	227.74
841.57	227.73
841.88	227.71
842.20	227.70
842.51	227.65
842.83	227.65
843.14	227.75
843.46	227.74
843.77	227.67
844.08	227.67
844.40	227.67
844.71	227.66
845.03	227.64
845.34	227.63
845.65	227.63
845.97	227.60
846.28	227.58
846.60	227.55
846.91	227.53
847.22	227.49
847.54	227.49
847.85	227.48
848.16	227.45
848.48	227.46
848.79	227.52
849.10	227.55
849.42	227.54
849.73	227.42
850.04	227.45
850.36	227.42
850.67	227.40
850.98	227.37
851.30	227.37
851.61	227.39
851.92	227.37
852.23	227.40
852.55	227.41
852.86	227.43
853.17	227.47
853.49	227.46
853.80	227.47
854.11	227.48
854.42	227.48
854.74	227.48
855.05	227.44
855.36	227.35
855.67	227.34
855.99	227.32
856.30	227.46
856.61	227.45
856.92	227.47
857.23	227.49
857.55	227.47
857.86	227.48
858.17	227.48
858.48	227.47
858.79	227.44
859.11	227.42
859.42	227.41
859.73	227.35
860.04	227.36
860.35	227.33
860.66	227.30
860.98	227.29
861.29	227.34
861.60	227.31
861.91	227.33
862.22	227.29
862.53	227.26
862.84	227.12
863.16	227.09
863.47	227.04
863.78	227.02
864.09	227.05
864.40	227.07
864.71	227.06
865.02	227.07
865.33	227.06
865.64	227.06
865.95	227.06
866.27	227.13
866.58	227.10
866.89	227.10
867.20	227.12
867.51	227.11
867.82	227.09
868.13	227.16
868.44	227.15
868.75	227.22
869.06	227.25
869.37	227.26
869.68	227.26
869.99	227.33
870.30	227.32
870.61	227.33
870.92	227.26
871.23	227.24
871.54	227.24
871.85	227.24
872.16	227.28
872.47	227.27
872.78	227.24
873.09	227.29
873.40	227.29
873.71	227.28
874.02	227.29
874.33	227.23
874.64	227.18
874.95	227.18
875.26	227.14
875.56	227.16
875.87	227.18
876.18	227.18
876.49	227.21
876.80	227.19
877.11	227.19
877.42	227.21
877.73	227.21
878.04	227.22
878.35	227.25
878.66	227.23
878.96	227.22
879.27	227.20
879.58	227.17
879.89	227.15
880.20	227.17
880.51	227.15
880.82	227.20
881.12	227.21
881.43	227.18
881.74	227.22
882.05	227.20
882.36	227.21
882.67	227.20
882.97	227.15
883.28	227.15
883.59	227.08
883.90	227.12
884.21	227.14
884.51	227.11
884.82	227.09
885.13	227.08
885.44	227.09
885.74	227.12
886.05	227.10
886.36	227.12
886.67	227.12
886.98	227.18
887.28	227.17
887.59	227.16
887.90	227.18
888.20	227.16
888.51	227.17
888.82	227.15
889.13	227.14
889.43	227.21
889.74	227.23
890.05	227.24
890.35	227.19
890.66	227.17
890.97	227.13
891.28	227.12
891.58	227.09
891.89	227.08
892.20	227.04
892.50	227.03
892.81	227.01
893.12	226.99
893.42	226.92
893.73	226.88
894.04	226.86
894.34	226.84
894.65	226.80
894.95	226.76
895.26	226.72
895.57	226.78
895.87	226.66
896.18	226.67
896.48	226.66
896.79	226.65
897.10	226.66
897.40	226.67
897.71	226.65
898.01	226.64
898.32	226.63
898.63	226.63
898.93	226.66
899.24	226.64
899.54	226.62
899.85	226.63
900.15	226.66
900.46	226.69
900.76	226.66
901.07	226.66
901.38	226.64
901.68	226.64
901.99	226.55
902.29	226.57
902.60	226.51
902.90	226.53
903.21	226.53
903.51	226.53
903.82	226.54
904.12	226.57
904.43	226.60
904.73	226.60
905.03	226.61
905.34	226.69
905.64	226.68
905.95	226.69
906.25	226.67
906.56	226.65
906.86	226.64
907.17	226.66
907.47	226.70
907.77	226.72
908.08	226.69
908.38	226.71
908.69	226.69
908.99	226.77
909.30	226.76
909.60	226.76
909.90	226.77
910.21	226.77
910.51	226.73
910.81	226.71
911.12	226.72
911.42	226.72
911.73	226.60
912.03	226.63
912.33	226.63
912.64	226.66
912.94	226.66
913.24	226.63
913.55	226.63
913.85	226.62
914.15	226.62
914.46	226.65
914.76	226.64
915.06	226.66
915.37	226.62
915.67	226.60
915.97	226.62
916.27	226.57
916.58	226.60
916.88	226.61
917.18	226.62
917.49	226.66
917.79	226.65
918.09	226.71
918.39	226.74
918.70	226.75
919.00	226.75
919.30	226.80
919.60	226.79
919.91	226.78
920.21	226.77
920.51	226.78
920.81	226.78
921.12	226.81
921.42	226.80
921.72	226.81
922.02	226.81
922.32	226.81
922.63	226.81
922.93	226.80
923.23	226.81
923.53	226.80
923.83	226.73
924.13	226.73
924.44	226.68
924.74	226.68
925.04	226.68
925.34	226.68
925.64	226.64
925.94	226.65
926.24	226.70
926.55	226.70
926.85	226.70
927.15	226.69
927.45	226.67
927.75	226.64
928.05	226.66
928.35	226.67
928.65	226.71
928.95	226.73
929.26	226.70
929.56	226.72
929.86	226.71
930.16	226.73
930.46	226.70
930.76	226.73
931.06	226.66
931.36	226.64
931.66	226.65
931.96	226.67
932.26	226.70
932.56	226.65
932.86	226.61
933.16	226.65
933.46	226.65
933.76	226.64
934.06	226.68
934.36	226.72
934.66	226.69
934.96	226.65
935.26	226.63
935.56	226.65
935.86	226.62
936.16	226.66
936.46	226.63
936.76	226.61
937.06	226.58
937.36	226.62
937.66	226.65
937.96	226.63
938.26	226.56
938.56	226.55
938.86	226.55
939.16	226.60
939.46	226.58
939.76	226.59
940.06	226.60
940.35	226.56
940.65	226.50
940.95	226.55
941.25	226.52
941.55	226.55
941.85	226.53
942.15	226.54
942.45	226.57
942.75	226.57
943.04	226.62
943.34	226.67
943.64	226.65
943.94	226.62
944.24	226.65
944.54	226.68
944.84	226.67
945.13	226.69
945.43	226.69
945.73	226.70
946.03	226.66
946.33	226.66
946.62	226.69
946.92	226.70
947.22	226.69
947.52	226.70
947.82	226.70
948.11	226.70
948.41	226.70
948.71	226.65
949.01	226.66
949.31	226.64
949.60	226.64
949.90	226.65
950.20	226.62
950.50	226.63
950.79	226.63
951.09	226.64
951.39	226.64
951.69	226.64
951.98	226.66
952.28	226.70
952.58	226.70
952.87	226.66
953.17	226.65
953.47	226.66
953.76	226.68
954.06	226.66
954.36	226.64
954.66	226.65
954.95	226.70
955.25	226.74
955.55	226.74
955.84	226.72
956.14	226.73
956.44	226.77
956.73	226.73
957.03	226.73
957.32	226.74
957.62	226.73
957.92	226.74
958.21	226.71
958.51	226.82
958.81	226.84
959.10	226.87
959.40	226.90
959.69	226.88
959.99	226.91
960.29	226.95
960.58	226.96
960.88	226.95
961.17	226.94
961.47	226.93
961.76	226.93
962.06	226.94
962.36	226.93
962.65	226.91
962.95	226.92
963.24	226.92
963.54	226.91
963.83	226.89
964.13	226.87
964.42	226.83
964.72	226.74
965.01	226.74
965.31	226.73
965.60	226.70
965.90	226.80
966.19	226.77
966.49	226.74
966.78	226.75
967.08	226.75
967.37	226.72
967.67	226.67
967.96	226.70
968.26	226.67
968.55	226.67
968.85	226.67
969.14	226.68
969.43	226.69
969.73	226.69
970.02	226.67
970.32	226.65
970.61	226.67
970.91	226.63
971.20	226.61
971.49	226.62
971.79	226.64
972.08	226.54
972.38	226.55
972.67	226.55
972.96	226.55
973.26	226.53
973.55	226.57
973.85	226.58
974.14	226.54
974.43	226.55
974.73	226.56
975.02	226.55
975.31	226.52
975.61	226.52
975.90	226.50
976.19	226.50
976.49	226.53
976.78	226.54
977.07	226.54
977.37	226.55
977.66	226.55
977.95	226.56
978.24	226.56
978.54	226.55
978.83	226.56
979.12	226.55
979.42	226.57
979.71	226.55
980.00	226.53
980.29	226.53
980.59	226.53
980.88	226.54
981.17	226.55
981.46	226.57
981.76	226.59
982.05	226.60
982.34	226.64
982.63	226.62
982.93	226.61
983.22	226.64
983.51	226.64
983.80	226.68
984.09	226.65
984.39	226.66
984.68	226.65
984.97	226.65
985.26	226.64
985.55	226.67
985.85	226.66
986.14	226.68
986.43	226.71
986.72	226.71
987.01	226.71
987.30	226.71
987.59	226.70
987.89	226.67
988.18	226.66
988.47	226.61
988.76	226.58
989.05	226.57
989.34	226.56
989.63	226.59
989.92	226.56
990.22	226.58
990.51	226.58
990.80	226.56
991.09	226.55
991.38	226.56
991.67	226.53
991.96	226.47
992.25	226.47
992.54	226.45
992.83	226.42
993.12	226.41
993.41	226.43
993.70	226.47
993.99	226.48
994.28	226.47
994.58	226.53
994.87	226.51
995.16	226.53
995.45	226.52
995.74	226.49
996.03	226.48
996.32	226.47
996.61	226.48
996.90	226.47
997.19	226.47
997.48	226.45
997.77	226.45
998.06	226.48
998.34	226.50
998.63	226.49
998.92	226.52
999.21	226.55
999.50	226.53
999.79	226.48
1000.08	226.49
1000.37	226.53
1000.66	226.49
1000.95	226.53
1001.24	226.54
1001.53	226.52
1001.82	226.49
1002.11	226.49
1002.40	226.48
1002.68	226.46
1002.97	226.57
1003.26	226.54
1003.55	226.53
1003.84	226.56
1004.13	226.60
1004.42	226.58
1004.71	226.58
1004.99	226.59
1005.28	226.56
1005.57	226.59
1005.86	226.56
1006.15	226.55
1006.44	226.54
1006.72	226.54
1007.01	226.54
1007.30	226.53
1007.59	226.54
1007.88	226.58
1008.17	226.57
1008.45	226.59
1008.74	226.59
1009.03	226.51
1009.32	226.55
1009.60	226.57
1009.89	226.57
1010.18	226.53
1010.47	226.53
1010.76	226.53
1011.04	226.53
1011.33	226.60
1011.62	226.55
1011.91	226.61
1012.19	226.62
1012.48	226.64
1012.77	226.64
1013.05	226.68
1013.34	226.70
1013.63	226.68
1013.92	226.67
1014.20	226.66
1014.49	226.63
1014.78	226.63
1015.06	226.64
1015.35	226.64
1015.64	226.64
1015.92	226.66
1016.21	226.70
1016.50	226.70
1016.78	226.74
1017.07	226.72
1017.36	226.67
1017.64	226.68
1017.93	226.68
1018.22	226.68
1018.50	226.64
1018.79	226.66
1019.08	226.63
1019.36	226.59
1019.65	226.62
1019.93	226.65
1020.22	226.70
1020.51	226.75
1020.79	226.75
1021.08	226.53
1021.36	226.10
1021.65	226.93
1021.94	226.53
1022.22	226.30
1022.51	226.69
1022.79	227.20
1023.08	226.89
1023.36	227.76
1023.65	226.44
>>>>>End Processed Spectral Data<<<<<
