SpectraSuite Data File
++++++++++++++++++++++++++++++++++++
Date: Fri Feb 01 15:49:11 EST 2013
User: group
Dark Spectrum Present: No
Reference Spectrum Present: No
Number of Sampled Component Spectra: 1
Spectrometers: USB2E7196
Integration Time (usec): 35000 (USB2E7196)
Spectra Averaged: 100 (USB2E7196)
Boxcar Smoothing: 10 (USB2E7196)
Correct for Electrical Dark: No (USB2E7196)
Strobe/Lamp Enabled: No (USB2E7196)
Correct for Detector Non-linearity: No (USB2E7196)
Correct for Stray Light: No (USB2E7196)
Number of Pixels in Processed Spectrum: 2048
>>>>>Begin Processed Spectral Data<<<<<
339.09	0.00
339.48	213.99
339.86	216.32
340.24	217.52
340.63	219.28
341.01	221.90
341.39	222.06
341.78	222.56
342.16	224.21
342.54	224.59
342.93	213.15
343.31	223.92
343.69	224.50
344.07	224.95
344.46	225.37
344.84	225.73
345.22	225.93
345.60	226.16
345.99	226.35
346.37	226.45
346.75	226.55
347.13	226.64
347.52	226.70
347.90	226.78
348.28	226.81
348.66	226.85
349.05	226.88
349.43	226.95
349.81	226.98
350.19	227.04
350.57	227.09
350.96	227.15
351.34	227.25
351.72	227.35
352.10	227.47
352.48	227.56
352.87	227.65
353.25	227.76
353.63	227.85
354.01	227.94
354.39	228.04
354.77	228.13
355.15	228.25
355.54	228.29
355.92	228.36
356.30	228.42
356.68	228.52
357.06	228.57
357.44	228.60
357.82	228.68
358.20	228.72
358.58	228.77
358.97	228.85
359.35	228.89
359.73	228.99
360.11	229.03
360.49	229.08
360.87	229.12
361.25	229.18
361.63	229.23
362.01	229.25
362.39	229.31
362.77	229.35
363.15	229.34
363.53	229.40
363.91	229.37
364.29	229.40
364.67	229.32
365.05	229.29
365.43	229.33
365.81	229.35
366.19	229.41
366.57	229.48
366.95	229.50
367.33	229.47
367.71	229.43
368.09	229.44
368.47	229.40
368.85	229.36
369.23	229.35
369.61	229.29
369.99	229.31
370.37	229.27
370.75	229.28
371.13	229.23
371.51	229.15
371.89	229.16
372.27	229.08
372.65	229.03
373.03	229.01
373.41	228.94
373.78	228.86
374.16	228.77
374.54	228.64
374.92	228.50
375.30	228.48
375.68	228.40
376.06	228.31
376.44	228.23
376.82	228.16
377.19	228.08
377.57	228.01
377.95	227.91
378.33	227.81
378.71	227.69
379.09	227.64
379.47	227.59
379.84	227.48
380.22	227.44
380.60	227.35
380.98	227.27
381.36	227.17
381.73	227.09
382.11	227.03
382.49	226.96
382.87	226.89
383.25	226.80
383.62	226.83
384.00	226.74
384.38	226.70
384.76	226.69
385.13	226.65
385.51	226.59
385.89	226.52
386.27	226.48
386.64	226.46
387.02	226.41
387.40	226.31
387.78	226.26
388.15	226.20
388.53	226.18
388.91	226.15
389.29	226.12
389.66	226.09
390.04	226.05
390.42	226.06
390.79	226.02
391.17	226.02
391.55	225.90
391.92	225.91
392.30	225.91
392.68	225.86
393.05	225.84
393.43	225.87
393.81	225.87
394.18	225.87
394.56	225.89
394.94	225.90
395.31	225.96
395.69	226.03
396.06	226.09
396.44	226.14
396.82	226.19
397.19	226.30
397.57	226.36
397.95	226.41
398.32	226.44
398.70	226.55
399.07	226.61
399.45	226.65
399.82	226.73
400.20	226.79
400.58	226.90
400.95	226.95
401.33	227.08
401.70	227.25
402.08	227.37
402.45	227.48
402.83	227.65
403.20	227.78
403.58	227.87
403.95	228.02
404.33	228.17
404.71	228.28
405.08	228.46
405.46	228.62
405.83	228.77
406.21	228.93
406.58	229.11
406.96	229.30
407.33	229.53
407.70	229.74
408.08	230.02
408.45	230.24
408.83	230.50
409.20	230.71
409.58	230.85
409.95	231.11
410.33	231.35
410.70	231.57
411.08	231.87
411.45	232.15
411.82	232.46
412.20	232.79
412.57	233.25
412.95	233.52
413.32	233.93
413.69	234.36
414.07	234.78
414.44	235.22
414.82	235.66
415.19	236.24
415.56	236.76
415.94	237.32
416.31	237.92
416.68	238.55
417.06	239.26
417.43	239.99
417.81	240.72
418.18	241.50
418.55	242.34
418.93	243.20
419.30	244.11
419.67	245.06
420.04	246.00
420.42	246.97
420.79	248.19
421.16	249.30
421.54	250.51
421.91	251.74
422.28	253.02
422.66	254.37
423.03	255.65
423.40	256.98
423.77	258.39
424.15	259.85
424.52	261.32
424.89	262.91
425.26	264.45
425.64	265.93
426.01	267.48
426.38	269.12
426.75	270.78
427.13	272.51
427.50	274.30
427.87	276.19
428.24	278.05
428.61	279.78
428.99	281.72
429.36	283.80
429.73	285.84
430.10	287.85
430.47	289.94
430.85	292.02
431.22	294.26
431.59	296.65
431.96	298.87
432.33	301.38
432.70	303.78
433.08	306.62
433.45	309.25
433.82	311.92
434.19	314.77
434.56	317.54
434.93	320.19
435.30	322.78
435.68	325.64
436.05	328.47
436.42	331.29
436.79	333.81
437.16	336.52
437.53	339.37
437.90	342.20
438.27	344.89
438.64	347.73
439.01	350.26
439.38	352.48
439.75	354.66
440.13	357.09
440.50	359.37
440.87	361.19
441.24	363.09
441.61	365.19
441.98	366.73
442.35	368.59
442.72	370.38
443.09	372.27
443.46	373.28
443.83	373.88
444.20	374.35
444.57	375.16
444.94	375.40
445.31	375.73
445.68	376.05
446.05	376.14
446.42	375.73
446.79	375.37
447.16	374.89
447.53	374.58
447.90	373.45
448.27	372.34
448.64	370.75
449.01	369.66
449.37	367.72
449.74	365.83
450.11	363.61
450.48	361.19
450.85	358.60
451.22	356.51
451.59	354.49
451.96	352.52
452.33	349.95
452.70	347.58
453.07	344.74
453.43	341.84
453.80	339.07
454.17	336.47
454.54	333.94
454.91	331.25
455.28	328.58
455.65	326.06
456.02	323.63
456.38	321.46
456.75	318.78
457.12	316.54
457.49	314.31
457.86	312.08
458.23	310.24
458.59	308.20
458.96	306.08
459.33	304.20
459.70	302.38
460.07	300.89
460.43	299.24
460.80	297.63
461.17	296.22
461.54	294.74
461.91	293.28
462.27	291.82
462.64	290.60
463.01	289.23
463.38	287.98
463.74	286.58
464.11	285.43
464.48	284.45
464.85	283.35
465.21	282.48
465.58	281.57
465.95	280.47
466.32	279.60
466.68	278.69
467.05	277.76
467.42	276.90
467.78	275.96
468.15	275.06
468.52	274.42
468.88	273.54
469.25	272.77
469.62	272.15
469.98	271.48
470.35	270.81
470.72	270.26
471.08	269.60
471.45	269.07
471.82	268.54
472.18	267.94
472.55	267.50
472.92	266.99
473.28	266.55
473.65	266.12
474.02	265.66
474.38	265.28
474.75	264.97
475.11	264.61
475.48	264.33
475.85	264.10
476.21	263.87
476.58	263.71
476.94	263.55
477.31	263.38
477.67	263.22
478.04	263.12
478.41	263.05
478.77	263.04
479.14	263.00
479.50	262.99
479.87	263.05
480.23	263.13
480.60	263.19
480.96	263.28
481.33	263.48
481.69	263.69
482.06	263.89
482.42	264.10
482.79	264.37
483.15	264.70
483.52	265.08
483.88	265.42
484.25	265.78
484.61	266.23
484.98	266.67
485.34	267.25
485.71	267.81
486.07	268.37
486.44	268.97
486.80	269.65
487.17	270.42
487.53	271.19
487.90	272.00
488.26	272.97
488.62	273.96
488.99	274.90
489.35	275.93
489.72	277.07
490.08	278.27
490.44	279.50
490.81	280.85
491.17	282.20
491.54	283.71
491.90	285.23
492.26	286.87
492.63	288.62
492.99	290.41
493.36	292.28
493.72	294.35
494.08	296.44
494.45	298.74
494.81	301.09
495.17	303.54
495.54	306.10
495.90	308.78
496.26	311.62
496.63	314.61
496.99	317.72
497.35	320.98
497.72	324.43
498.08	327.93
498.44	331.60
498.80	335.55
499.17	339.58
499.53	343.82
499.89	348.18
500.26	352.68
500.62	357.32
500.98	362.31
501.34	367.37
501.71	372.71
502.07	378.09
502.43	383.77
502.79	389.63
503.16	395.70
503.52	402.01
503.88	408.43
504.24	415.08
504.60	421.99
504.97	429.08
505.33	436.33
505.69	444.06
506.05	451.81
506.41	459.68
506.78	467.81
507.14	476.21
507.50	484.94
507.86	494.00
508.22	503.21
508.59	512.45
508.95	522.14
509.31	532.02
509.67	542.17
510.03	552.39
510.39	562.87
510.75	573.75
511.12	584.64
511.48	595.89
511.84	607.33
512.20	618.87
512.56	630.88
512.92	643.17
513.28	655.50
513.64	668.02
514.00	680.68
514.37	693.65
514.73	706.72
515.09	719.82
515.45	733.09
515.81	746.64
516.17	760.64
516.53	774.71
516.89	788.83
517.25	803.06
517.61	817.43
517.97	832.01
518.33	846.34
518.69	861.11
519.05	876.09
519.41	891.31
519.77	906.77
520.13	922.12
520.49	937.50
520.85	952.97
521.21	968.68
521.57	984.91
521.93	1000.64
522.29	1017.04
522.65	1033.30
523.01	1049.61
523.37	1065.67
523.73	1081.84
524.09	1097.93
524.45	1114.26
524.81	1130.85
525.17	1147.67
525.53	1164.44
525.89	1181.30
526.25	1198.16
526.61	1214.60
526.97	1231.20
527.33	1247.67
527.68	1264.35
528.04	1280.88
528.40	1297.41
528.76	1314.35
529.12	1331.03
529.48	1347.89
529.84	1363.87
530.20	1380.44
530.56	1397.54
530.91	1414.89
531.27	1431.63
531.63	1447.95
531.99	1464.58
532.35	1480.54
532.71	1496.52
533.07	1512.78
533.42	1528.80
533.78	1544.86
534.14	1561.11
534.50	1576.58
534.86	1592.40
535.21	1607.56
535.57	1623.35
535.93	1638.88
536.29	1653.68
536.65	1668.71
537.00	1683.40
537.36	1698.72
537.72	1713.18
538.08	1727.44
538.44	1741.21
538.79	1755.00
539.15	1768.78
539.51	1782.51
539.87	1796.75
540.22	1810.38
540.58	1824.15
540.94	1837.37
541.29	1850.20
541.65	1862.71
542.01	1876.02
542.37	1888.45
542.72	1900.76
543.08	1912.56
543.44	1924.86
543.79	1936.13
544.15	1947.15
544.51	1958.89
544.87	1969.76
545.22	1980.47
545.58	1990.77
545.94	2000.60
546.29	2010.54
546.65	2020.26
547.01	2029.36
547.36	2038.03
547.72	2046.49
548.07	2054.25
548.43	2062.42
548.79	2070.56
549.14	2078.05
549.50	2085.29
549.86	2093.03
550.21	2100.43
550.57	2107.67
550.92	2114.25
551.28	2121.30
551.64	2128.41
551.99	2134.84
552.35	2140.96
552.70	2147.12
553.06	2152.93
553.41	2159.33
553.77	2165.35
554.13	2171.51
554.48	2177.66
554.84	2183.12
555.19	2188.45
555.55	2193.83
555.90	2198.34
556.26	2203.07
556.61	2208.02
556.97	2212.20
557.32	2216.18
557.68	2220.25
558.03	2224.50
558.39	2228.36
558.74	2233.01
559.10	2236.76
559.45	2240.54
559.81	2244.98
560.16	2248.82
560.52	2252.10
560.87	2255.49
561.23	2258.12
561.58	2261.17
561.94	2263.79
562.29	2266.22
562.64	2268.81
563.00	2271.22
563.35	2274.80
563.71	2277.93
564.06	2281.15
564.42	2284.01
564.77	2286.54
565.12	2288.88
565.48	2290.69
565.83	2292.49
566.19	2293.65
566.54	2294.52
566.89	2295.47
567.25	2295.90
567.60	2297.31
567.96	2298.94
568.31	2299.64
568.66	2300.83
569.02	2301.31
569.37	2301.56
569.72	2302.48
570.08	2302.63
570.43	2302.77
570.78	2302.15
571.14	2300.60
571.49	2299.18
571.84	2298.94
572.20	2297.86
572.55	2296.77
572.90	2295.32
573.26	2293.84
573.61	2292.30
573.96	2290.55
574.31	2287.54
574.67	2284.67
575.02	2281.05
575.37	2277.78
575.72	2274.14
576.08	2270.76
576.43	2267.44
576.78	2263.72
577.13	2260.62
577.49	2257.45
577.84	2253.83
578.19	2249.98
578.54	2246.28
578.90	2242.07
579.25	2236.34
579.60	2231.18
579.95	2225.99
580.30	2220.90
580.66	2215.85
581.01	2210.88
581.36	2206.00
581.71	2201.82
582.06	2197.22
582.42	2192.63
582.77	2187.34
583.12	2182.67
583.47	2177.85
583.82	2172.80
584.17	2167.65
584.53	2162.01
584.88	2156.51
585.23	2150.79
585.58	2145.39
585.93	2140.05
586.28	2135.25
586.63	2130.30
586.98	2125.39
587.34	2120.83
587.69	2115.86
588.04	2110.46
588.39	2104.72
588.74	2098.10
589.09	2091.99
589.44	2085.23
589.79	2079.37
590.14	2073.73
590.49	2067.18
590.84	2060.92
591.19	2054.88
591.54	2048.35
591.89	2040.97
592.25	2034.22
592.60	2026.92
592.95	2019.37
593.30	2012.00
593.65	2004.44
594.00	1997.46
594.35	1990.21
594.70	1982.22
595.05	1974.97
595.40	1967.65
595.75	1960.16
596.10	1954.01
596.45	1947.22
596.80	1941.12
597.15	1934.41
597.50	1927.32
597.85	1920.89
598.19	1914.08
598.54	1906.92
598.89	1900.23
599.24	1894.30
599.59	1887.51
599.94	1881.43
600.29	1875.02
600.64	1868.37
600.99	1860.85
601.34	1853.92
601.69	1846.96
602.04	1840.02
602.39	1832.75
602.74	1825.99
603.08	1819.24
603.43	1812.50
603.78	1805.20
604.13	1798.03
604.48	1790.61
604.83	1783.72
605.18	1776.67
605.53	1768.74
605.87	1760.82
606.22	1753.60
606.57	1745.70
606.92	1738.45
607.27	1731.19
607.62	1724.37
607.96	1717.07
608.31	1710.39
608.66	1702.79
609.01	1695.26
609.36	1687.71
609.70	1679.70
610.05	1671.68
610.40	1663.99
610.75	1655.71
611.10	1648.02
611.44	1639.59
611.79	1631.70
612.14	1623.07
612.49	1614.05
612.83	1605.63
613.18	1597.45
613.53	1589.37
613.88	1580.73
614.22	1572.36
614.57	1563.82
614.92	1555.74
615.27	1548.13
615.61	1539.84
615.96	1531.82
616.31	1524.17
616.65	1516.83
617.00	1509.33
617.35	1501.64
617.70	1493.30
618.04	1484.83
618.39	1476.71
618.74	1469.15
619.08	1460.83
619.43	1453.10
619.78	1446.10
620.12	1438.90
620.47	1431.33
620.82	1423.22
621.16	1415.91
621.51	1408.31
621.85	1400.62
622.20	1392.02
622.55	1383.71
622.89	1375.91
623.24	1368.32
623.59	1360.91
623.93	1353.24
624.28	1345.92
624.62	1338.29
624.97	1331.09
625.32	1324.31
625.66	1317.28
626.01	1310.00
626.35	1302.49
626.70	1294.85
627.04	1287.09
627.39	1279.44
627.73	1272.05
628.08	1265.17
628.43	1257.81
628.77	1250.43
629.12	1242.88
629.46	1235.80
629.81	1228.44
630.15	1221.22
630.50	1213.84
630.84	1205.59
631.19	1197.78
631.53	1190.35
631.88	1182.95
632.22	1175.35
632.57	1167.98
632.91	1160.49
633.26	1153.08
633.60	1145.71
633.95	1138.57
634.29	1131.57
634.64	1124.80
634.98	1117.51
635.32	1110.24
635.67	1103.72
636.01	1097.09
636.36	1090.26
636.70	1083.78
637.05	1077.16
637.39	1070.68
637.73	1064.12
638.08	1058.26
638.42	1052.30
638.77	1045.74
639.11	1039.05
639.45	1032.70
639.80	1026.05
640.14	1019.57
640.49	1013.05
640.83	1006.78
641.17	1000.53
641.52	994.17
641.86	987.76
642.20	981.92
642.55	975.63
642.89	969.13
643.23	962.57
643.58	956.84
643.92	950.50
644.26	944.46
644.61	938.35
644.95	932.32
645.29	925.73
645.64	918.91
645.98	912.57
646.32	906.78
646.66	900.72
647.01	895.00
647.35	889.26
647.69	883.44
648.04	877.96
648.38	872.16
648.72	866.16
649.06	860.12
649.41	854.21
649.75	848.23
650.09	842.28
650.43	836.47
650.78	830.33
651.12	824.40
651.46	818.61
651.80	812.88
652.14	807.50
652.49	802.13
652.83	797.04
653.17	791.40
653.51	785.68
653.85	780.28
654.20	774.64
654.54	768.64
654.88	762.87
655.22	756.94
655.56	751.30
655.90	745.82
656.25	740.59
656.59	735.17
656.93	730.12
657.27	724.97
657.61	719.54
657.95	714.46
658.29	709.44
658.64	704.24
658.98	698.91
659.32	693.39
659.66	688.14
660.00	682.76
660.34	677.72
660.68	672.74
661.02	667.70
661.36	662.94
661.70	658.39
662.05	654.16
662.39	649.82
662.73	645.33
663.07	641.02
663.41	636.50
663.75	632.14
664.09	627.54
664.43	623.03
664.77	618.93
665.11	614.69
665.45	610.48
665.79	606.41
666.13	602.26
666.47	598.27
666.81	594.13
667.15	590.01
667.49	586.18
667.83	582.41
668.17	578.51
668.51	574.43
668.85	570.48
669.19	566.53
669.53	562.71
669.87	558.82
670.21	555.07
670.55	551.45
670.89	547.95
671.23	544.51
671.57	541.11
671.91	537.59
672.25	534.02
672.58	530.50
672.92	527.09
673.26	523.93
673.60	520.72
673.94	517.60
674.28	514.68
674.62	511.76
674.96	508.66
675.30	505.70
675.64	502.76
675.97	499.98
676.31	497.11
676.65	494.19
676.99	491.48
677.33	488.61
677.67	485.75
678.01	482.69
678.34	479.73
678.68	476.84
679.02	473.97
679.36	471.26
679.70	468.58
680.04	465.82
680.37	463.01
680.71	460.24
681.05	457.63
681.39	454.97
681.73	452.31
682.06	449.74
682.40	447.18
682.74	444.66
683.08	442.11
683.42	439.50
683.75	437.02
684.09	434.48
684.43	432.03
684.77	429.63
685.10	427.27
685.44	424.96
685.78	422.71
686.12	420.50
686.45	418.22
686.79	415.94
687.13	413.78
687.46	411.62
687.80	409.51
688.14	407.34
688.48	405.25
688.81	403.02
689.15	400.88
689.49	398.84
689.82	396.79
690.16	394.69
690.50	392.80
690.83	390.86
691.17	388.89
691.51	387.00
691.84	385.12
692.18	383.25
692.52	381.31
692.85	379.39
693.19	377.50
693.52	375.63
693.86	373.82
694.20	372.04
694.53	370.23
694.87	368.37
695.21	366.54
695.54	364.72
695.88	363.04
696.21	361.33
696.55	359.58
696.88	357.88
697.22	356.23
697.56	354.59
697.89	352.96
698.23	351.32
698.56	349.72
698.90	348.16
699.23	346.46
699.57	344.94
699.90	343.39
700.24	341.87
700.58	340.36
700.91	338.86
701.25	337.37
701.58	336.00
701.92	334.60
702.25	333.21
702.59	331.86
702.92	330.48
703.26	329.22
703.59	327.98
703.93	326.79
704.26	325.57
704.60	324.24
704.93	322.93
705.26	321.70
705.60	320.53
705.93	319.37
706.27	318.35
706.60	317.23
706.94	316.12
707.27	314.94
707.61	313.89
707.94	312.87
708.27	311.79
708.61	310.71
708.94	309.70
709.28	308.77
709.61	307.80
709.94	306.88
710.28	305.81
710.61	304.83
710.95	303.72
711.28	302.77
711.61	301.81
711.95	300.88
712.28	299.93
712.61	298.97
712.95	298.03
713.28	297.15
713.61	296.30
713.95	295.41
714.28	294.61
714.61	293.74
714.95	292.91
715.28	292.08
715.61	291.23
715.95	290.37
716.28	289.47
716.61	288.64
716.95	287.82
717.28	287.11
717.61	286.32
717.94	285.63
718.28	284.83
718.61	284.10
718.94	283.43
719.27	282.78
719.61	282.11
719.94	281.47
720.27	280.75
720.60	280.04
720.94	279.40
721.27	278.77
721.60	278.20
721.93	277.60
722.27	277.01
722.60	276.47
722.93	275.90
723.26	275.40
723.59	274.80
723.93	274.24
724.26	273.63
724.59	273.06
724.92	272.53
725.25	272.05
725.59	271.56
725.92	271.04
726.25	270.54
726.58	270.04
726.91	269.53
727.24	269.07
727.57	268.64
727.91	268.18
728.24	267.72
728.57	267.24
728.90	266.75
729.23	266.27
729.56	265.81
729.89	265.37
730.22	264.88
730.55	264.48
730.89	264.02
731.22	263.60
731.55	263.18
731.88	262.74
732.21	262.29
732.54	261.89
732.87	261.45
733.20	261.03
733.53	260.62
733.86	260.24
734.19	259.82
734.52	259.43
734.85	259.11
735.18	258.67
735.51	258.30
735.84	257.94
736.17	257.62
736.50	257.24
736.83	256.99
737.16	256.69
737.49	256.34
737.82	256.02
738.15	255.69
738.48	255.37
738.81	255.04
739.14	254.71
739.47	254.36
739.80	254.08
740.13	253.79
740.46	253.50
740.79	253.15
741.12	252.86
741.45	252.54
741.78	252.19
742.11	251.94
742.44	251.62
742.77	251.33
743.10	251.03
743.43	250.75
743.75	250.38
744.08	250.21
744.41	249.93
744.74	249.69
745.07	249.39
745.40	249.11
745.73	248.87
746.06	248.60
746.39	248.36
746.71	248.07
747.04	247.78
747.37	247.54
747.70	247.31
748.03	247.05
748.36	246.79
748.68	246.54
749.01	246.27
749.34	246.03
749.67	245.77
750.00	245.53
750.33	245.35
750.65	245.12
750.98	244.77
751.31	244.54
751.64	244.28
751.97	244.16
752.29	243.96
752.62	243.74
752.95	243.54
753.28	243.30
753.60	243.08
753.93	242.90
754.26	242.67
754.59	242.44
754.91	242.25
755.24	242.03
755.57	241.84
755.90	241.66
756.22	241.46
756.55	241.25
756.88	241.04
757.20	240.80
757.53	240.62
757.86	240.47
758.19	240.26
758.51	240.11
758.84	239.85
759.17	239.67
759.49	239.53
759.82	239.40
760.15	239.27
760.47	239.14
760.80	238.96
761.13	238.84
761.45	238.72
761.78	238.59
762.11	238.44
762.43	238.32
762.76	238.19
763.08	238.07
763.41	237.95
763.74	237.84
764.06	237.69
764.39	237.56
764.71	237.43
765.04	237.32
765.37	237.20
765.69	237.12
766.02	237.01
766.34	236.85
766.67	236.71
767.00	236.58
767.32	236.52
767.65	236.52
767.97	236.37
768.30	236.22
768.62	236.07
768.95	235.97
769.27	235.84
769.60	235.71
769.92	235.60
770.25	235.49
770.57	235.39
770.90	235.30
771.22	235.17
771.55	235.07
771.87	235.00
772.20	234.89
772.52	234.88
772.85	234.90
773.17	234.80
773.50	234.69
773.82	234.62
774.15	234.51
774.47	234.34
774.80	234.25
775.12	234.19
775.45	234.14
775.77	234.11
776.09	234.03
776.42	233.96
776.74	233.94
777.07	233.88
777.39	233.78
777.72	233.70
778.04	233.65
778.36	233.57
778.69	233.48
779.01	233.41
779.33	233.22
779.66	233.05
779.98	232.99
780.31	232.95
780.63	232.92
780.95	232.88
781.28	232.82
781.60	232.77
781.92	232.69
782.25	232.61
782.57	232.53
782.89	232.47
783.22	232.42
783.54	232.31
783.86	232.27
784.19	232.23
784.51	232.18
784.83	232.11
785.16	232.08
785.48	232.02
785.80	232.00
786.12	231.95
786.45	231.88
786.77	231.81
787.09	231.72
787.42	231.63
787.74	231.57
788.06	231.50
788.38	231.44
788.71	231.40
789.03	231.39
789.35	231.37
789.67	231.31
789.99	231.27
790.32	231.23
790.64	231.19
790.96	231.21
791.28	231.13
791.61	231.09
791.93	231.04
792.25	231.00
792.57	231.01
792.89	230.96
793.21	230.96
793.54	230.90
793.86	230.87
794.18	230.84
794.50	230.78
794.82	230.77
795.14	230.73
795.47	230.69
795.79	230.63
796.11	230.56
796.43	230.53
796.75	230.48
797.07	230.45
797.39	230.37
797.71	230.25
798.04	230.22
798.36	230.17
798.68	230.14
799.00	230.14
799.32	230.06
799.64	230.04
799.96	229.97
800.28	229.98
800.60	229.98
800.92	229.96
801.24	229.90
801.56	229.85
801.89	229.81
802.21	229.79
802.53	229.75
802.85	229.73
803.17	229.75
803.49	229.71
803.81	229.68
804.13	229.68
804.45	229.67
804.77	229.68
805.09	229.68
805.41	229.62
805.73	229.57
806.05	229.55
806.37	229.54
806.69	229.52
807.01	229.47
807.33	229.45
807.65	229.38
807.97	229.41
808.28	229.38
808.60	229.35
808.92	229.32
809.24	229.37
809.56	229.34
809.88	229.28
810.20	229.27
810.52	229.26
810.84	229.21
811.16	229.18
811.48	229.15
811.80	229.16
812.12	229.15
812.43	229.15
812.75	229.12
813.07	229.06
813.39	229.04
813.71	229.01
814.03	229.00
814.35	229.00
814.67	228.96
814.98	228.95
815.30	228.94
815.62	228.89
815.94	228.84
816.26	228.85
816.58	228.82
816.89	228.82
817.21	228.80
817.53	228.81
817.85	228.79
818.17	228.77
818.48	228.71
818.80	228.70
819.12	228.65
819.44	228.63
819.76	228.62
820.07	228.61
820.39	228.59
820.71	228.53
821.03	228.52
821.34	228.50
821.66	228.49
821.98	228.48
822.30	228.46
822.61	228.42
822.93	228.37
823.25	228.34
823.57	228.32
823.88	228.34
824.20	228.30
824.52	228.31
824.83	228.30
825.15	228.29
825.47	228.26
825.79	228.24
826.10	228.21
826.42	228.17
826.74	228.15
827.05	228.16
827.37	228.18
827.69	228.17
828.00	228.18
828.32	228.17
828.64	228.16
828.95	228.24
829.27	228.23
829.58	228.22
829.90	228.23
830.22	228.23
830.53	228.16
830.85	228.16
831.17	228.10
831.48	228.09
831.80	228.06
832.11	228.04
832.43	228.05
832.75	228.04
833.06	228.10
833.38	228.09
833.69	228.04
834.01	227.97
834.32	227.92
834.64	227.91
834.96	227.89
835.27	227.88
835.59	227.82
835.90	227.78
836.22	227.74
836.53	227.71
836.85	227.68
837.16	227.76
837.48	227.77
837.79	227.80
838.11	227.78
838.42	227.80
838.74	227.79
839.05	227.77
839.37	227.74
839.68	227.67
840.00	227.64
840.31	227.67
840.63	227.69
840.94	227.69
841.26	227.65
841.57	227.65
841.88	227.64
842.20	227.63
842.51	227.62
842.83	227.62
843.14	227.70
843.46	227.69
843.77	227.62
844.08	227.60
844.40	227.57
844.71	227.58
845.03	227.54
845.34	227.53
845.65	227.53
845.97	227.53
846.28	227.54
846.60	227.53
846.91	227.46
847.22	227.45
847.54	227.43
847.85	227.45
848.16	227.41
848.48	227.38
848.79	227.43
849.10	227.48
849.42	227.49
849.73	227.38
850.04	227.39
850.36	227.36
850.67	227.35
850.98	227.35
851.30	227.35
851.61	227.37
851.92	227.39
852.23	227.43
852.55	227.47
852.86	227.45
853.17	227.47
853.49	227.52
853.80	227.55
854.11	227.61
854.42	227.60
854.74	227.60
855.05	227.62
855.36	227.55
855.67	227.51
855.99	227.52
856.30	227.64
856.61	227.64
856.92	227.65
857.23	227.68
857.55	227.69
857.86	227.66
858.17	227.68
858.48	227.65
858.79	227.61
859.11	227.60
859.42	227.66
859.73	227.65
860.04	227.66
860.35	227.63
860.66	227.58
860.98	227.60
861.29	227.60
861.60	227.58
861.91	227.61
862.22	227.63
862.53	227.59
862.84	227.48
863.16	227.50
863.47	227.46
863.78	227.46
864.09	227.46
864.40	227.47
864.71	227.46
865.02	227.50
865.33	227.50
865.64	227.49
865.95	227.45
866.27	227.52
866.58	227.50
866.89	227.52
867.20	227.54
867.51	227.52
867.82	227.49
868.13	227.55
868.44	227.52
868.75	227.54
869.06	227.56
869.37	227.57
869.68	227.54
869.99	227.59
870.30	227.56
870.61	227.56
870.92	227.56
871.23	227.54
871.54	227.51
871.85	227.52
872.16	227.51
872.47	227.47
872.78	227.35
873.09	227.36
873.40	227.35
873.71	227.34
874.02	227.33
874.33	227.35
874.64	227.30
874.95	227.34
875.26	227.30
875.56	227.31
875.87	227.32
876.18	227.30
876.49	227.37
876.80	227.39
877.11	227.35
877.42	227.34
877.73	227.37
878.04	227.35
878.35	227.35
878.66	227.37
878.96	227.39
879.27	227.43
879.58	227.42
879.89	227.42
880.20	227.44
880.51	227.46
880.82	227.47
881.12	227.50
881.43	227.44
881.74	227.47
882.05	227.43
882.36	227.42
882.67	227.42
882.97	227.31
883.28	227.28
883.59	227.26
883.90	227.26
884.21	227.28
884.51	227.29
884.82	227.25
885.13	227.26
885.44	227.26
885.74	227.24
886.05	227.23
886.36	227.21
886.67	227.15
886.98	227.16
887.28	227.18
887.59	227.13
887.90	227.15
888.20	227.11
888.51	227.17
888.82	227.15
889.13	227.15
889.43	227.22
889.74	227.21
890.05	227.21
890.35	227.22
890.66	227.15
890.97	227.16
891.28	227.18
891.58	227.17
891.89	227.16
892.20	227.17
892.50	227.18
892.81	227.19
893.12	227.23
893.42	227.20
893.73	227.22
894.04	227.21
894.34	227.23
894.65	227.27
894.95	227.22
895.26	227.22
895.57	227.27
895.87	227.18
896.18	227.21
896.48	227.23
896.79	227.24
897.10	227.28
897.40	227.28
897.71	227.28
898.01	227.25
898.32	227.27
898.63	227.26
898.93	227.26
899.24	227.28
899.54	227.27
899.85	227.25
900.15	227.23
900.46	227.26
900.76	227.27
901.07	227.24
901.38	227.27
901.68	227.31
901.99	227.27
902.29	227.26
902.60	227.25
902.90	227.26
903.21	227.25
903.51	227.24
903.82	227.27
904.12	227.27
904.43	227.29
904.73	227.30
905.03	227.31
905.34	227.40
905.64	227.36
905.95	227.34
906.25	227.37
906.56	227.38
906.86	227.38
907.17	227.36
907.47	227.36
907.77	227.34
908.08	227.28
908.38	227.28
908.69	227.30
908.99	227.34
909.30	227.32
909.60	227.30
909.90	227.28
910.21	227.25
910.51	227.21
910.81	227.22
911.12	227.23
911.42	227.23
911.73	227.11
912.03	227.14
912.33	227.16
912.64	227.13
912.94	227.08
913.24	227.06
913.55	227.08
913.85	227.07
914.15	227.05
914.46	227.09
914.76	227.08
915.06	227.07
915.37	227.03
915.67	227.05
915.97	227.04
916.27	227.02
916.58	227.00
916.88	227.01
917.18	226.99
917.49	227.02
917.79	227.01
918.09	227.05
918.39	227.03
918.70	227.01
919.00	227.01
919.30	227.07
919.60	227.02
919.91	226.98
920.21	226.97
920.51	226.96
920.81	226.94
921.12	226.95
921.42	226.92
921.72	226.90
922.02	226.90
922.32	226.93
922.63	226.90
922.93	226.93
923.23	226.92
923.53	226.89
923.83	226.82
924.13	226.81
924.44	226.77
924.74	226.81
925.04	226.83
925.34	226.82
925.64	226.77
925.94	226.77
926.24	226.81
926.55	226.82
926.85	226.83
927.15	226.84
927.45	226.88
927.75	226.91
928.05	226.93
928.35	226.92
928.65	226.91
928.95	226.94
929.26	226.92
929.56	226.93
929.86	226.94
930.16	226.93
930.46	226.97
930.76	226.98
931.06	226.95
931.36	226.89
931.66	226.93
931.96	226.96
932.26	227.01
932.56	226.96
932.86	226.95
933.16	226.95
933.46	226.94
933.76	226.89
934.06	226.92
934.36	226.95
934.66	226.95
934.96	226.95
935.26	226.95
935.56	226.94
935.86	226.95
936.16	226.96
936.46	226.98
936.76	226.94
937.06	226.93
937.36	226.94
937.66	226.96
937.96	226.97
938.26	226.93
938.56	226.91
938.86	226.90
939.16	226.94
939.46	226.95
939.76	226.98
940.06	226.96
940.35	226.95
940.65	226.90
940.95	226.91
941.25	226.92
941.55	226.93
941.85	226.96
942.15	226.99
942.45	227.02
942.75	227.01
943.04	227.02
943.34	227.05
943.64	227.02
943.94	227.03
944.24	227.01
944.54	227.05
944.84	227.04
945.13	227.04
945.43	227.03
945.73	227.03
946.03	227.00
946.33	226.99
946.62	226.98
946.92	226.98
947.22	226.97
947.52	226.97
947.82	226.98
948.11	226.95
948.41	226.92
948.71	226.88
949.01	226.89
949.31	226.85
949.60	226.84
949.90	226.85
950.20	226.83
950.50	226.82
950.79	226.77
951.09	226.79
951.39	226.79
951.69	226.78
951.98	226.82
952.28	226.81
952.58	226.79
952.87	226.78
953.17	226.79
953.47	226.79
953.76	226.76
954.06	226.73
954.36	226.75
954.66	226.74
954.95	226.72
955.25	226.74
955.55	226.78
955.84	226.74
956.14	226.75
956.44	226.77
956.73	226.77
957.03	226.79
957.32	226.77
957.62	226.79
957.92	226.78
958.21	226.72
958.51	226.84
958.81	226.86
959.10	226.86
959.40	226.88
959.69	226.86
959.99	226.89
960.29	226.89
960.58	226.86
960.88	226.89
961.17	226.91
961.47	226.90
961.76	226.89
962.06	226.90
962.36	226.89
962.65	226.88
962.95	226.88
963.24	226.85
963.54	226.82
963.83	226.82
964.13	226.81
964.42	226.79
964.72	226.71
965.01	226.72
965.31	226.72
965.60	226.68
965.90	226.74
966.19	226.72
966.49	226.71
966.78	226.72
967.08	226.72
967.37	226.73
967.67	226.72
967.96	226.73
968.26	226.73
968.55	226.75
968.85	226.75
969.14	226.77
969.43	226.80
969.73	226.84
970.02	226.82
970.32	226.80
970.61	226.82
970.91	226.79
971.20	226.80
971.49	226.78
971.79	226.81
972.08	226.74
972.38	226.75
972.67	226.76
972.96	226.79
973.26	226.76
973.55	226.81
973.85	226.80
974.14	226.79
974.43	226.84
974.73	226.81
975.02	226.81
975.31	226.81
975.61	226.81
975.90	226.82
976.19	226.82
976.49	226.86
976.78	226.88
977.07	226.86
977.37	226.88
977.66	226.93
977.95	226.88
978.24	226.91
978.54	226.93
978.83	226.92
979.12	226.91
979.42	226.91
979.71	226.89
980.00	226.90
980.29	226.89
980.59	226.87
980.88	226.89
981.17	226.89
981.46	226.88
981.76	226.90
982.05	226.91
982.34	226.92
982.63	226.93
982.93	226.92
983.22	226.95
983.51	226.94
983.80	226.94
984.09	226.96
984.39	226.94
984.68	226.92
984.97	226.93
985.26	226.93
985.55	226.94
985.85	226.91
986.14	226.94
986.43	226.99
986.72	226.95
987.01	226.91
987.30	226.91
987.59	226.89
987.89	226.88
988.18	226.86
988.47	226.85
988.76	226.84
989.05	226.82
989.34	226.80
989.63	226.81
989.92	226.80
990.22	226.80
990.51	226.80
990.80	226.80
991.09	226.81
991.38	226.81
991.67	226.79
991.96	226.79
992.25	226.78
992.54	226.73
992.83	226.74
993.12	226.77
993.41	226.76
993.70	226.82
993.99	226.85
994.28	226.83
994.58	226.83
994.87	226.82
995.16	226.81
995.45	226.80
995.74	226.74
996.03	226.74
996.32	226.73
996.61	226.72
996.90	226.70
997.19	226.66
997.48	226.66
997.77	226.63
998.06	226.62
998.34	226.58
998.63	226.56
998.92	226.60
999.21	226.59
999.50	226.61
999.79	226.54
1000.08	226.47
1000.37	226.45
1000.66	226.47
1000.95	226.46
1001.24	226.47
1001.53	226.49
1001.82	226.55
1002.11	226.52
1002.40	226.52
1002.68	226.54
1002.97	226.62
1003.26	226.61
1003.55	226.60
1003.84	226.66
1004.13	226.67
1004.42	226.67
1004.71	226.67
1004.99	226.63
1005.28	226.65
1005.57	226.65
1005.86	226.65
1006.15	226.70
1006.44	226.71
1006.72	226.72
1007.01	226.72
1007.30	226.73
1007.59	226.72
1007.88	226.71
1008.17	226.71
1008.45	226.72
1008.74	226.69
1009.03	226.66
1009.32	226.69
1009.60	226.69
1009.89	226.66
1010.18	226.64
1010.47	226.67
1010.76	226.70
1011.04	226.72
1011.33	226.80
1011.62	226.81
1011.91	226.85
1012.19	226.89
1012.48	226.90
1012.77	226.90
1013.05	226.97
1013.34	226.96
1013.63	226.99
1013.92	226.98
1014.20	226.99
1014.49	227.00
1014.78	227.03
1015.06	226.99
1015.35	226.98
1015.64	227.02
1015.92	227.05
1016.21	227.07
1016.50	227.06
1016.78	227.08
1017.07	227.06
1017.36	226.94
1017.64	226.96
1017.93	226.94
1018.22	226.88
1018.50	226.87
1018.79	226.82
1019.08	226.77
1019.36	226.82
1019.65	226.75
1019.93	226.78
1020.22	226.81
1020.51	226.84
1020.79	226.82
1021.08	226.10
1021.36	226.59
1021.65	226.31
1021.94	226.86
1022.22	227.55
1022.51	225.94
1022.79	227.36
1023.08	227.27
1023.36	227.46
1023.65	226.70
>>>>>End Processed Spectral Data<<<<<
