SpectraSuite Data File
++++++++++++++++++++++++++++++++++++
Date: Fri Feb 01 15:56:01 EST 2013
User: group
Dark Spectrum Present: No
Reference Spectrum Present: No
Number of Sampled Component Spectra: 1
Spectrometers: USB2E7196
Integration Time (usec): 35000 (USB2E7196)
Spectra Averaged: 100 (USB2E7196)
Boxcar Smoothing: 10 (USB2E7196)
Correct for Electrical Dark: No (USB2E7196)
Strobe/Lamp Enabled: No (USB2E7196)
Correct for Detector Non-linearity: No (USB2E7196)
Correct for Stray Light: No (USB2E7196)
Number of Pixels in Processed Spectrum: 2048
>>>>>Begin Processed Spectral Data<<<<<
339.09	0.00
339.48	214.75
339.86	216.11
340.24	218.18
340.63	218.17
341.01	222.31
341.39	222.06
341.78	222.88
342.16	224.34
342.54	224.49
342.93	213.07
343.31	223.82
343.69	224.37
344.07	224.83
344.46	225.24
344.84	225.65
345.22	225.84
345.60	226.06
345.99	226.25
346.37	226.38
346.75	226.50
347.13	226.55
347.52	226.61
347.90	226.67
348.28	226.74
348.66	226.78
349.05	226.78
349.43	226.80
349.81	226.82
350.19	226.90
350.57	226.97
350.96	227.07
351.34	227.18
351.72	227.26
352.10	227.35
352.48	227.40
352.87	227.47
353.25	227.54
353.63	227.63
354.01	227.69
354.39	227.75
354.77	227.80
355.15	227.90
355.54	227.93
355.92	227.95
356.30	228.03
356.68	228.16
357.06	228.24
357.44	228.30
357.82	228.39
358.20	228.43
358.58	228.50
358.97	228.57
359.35	228.64
359.73	228.71
360.11	228.78
360.49	228.83
360.87	228.87
361.25	228.91
361.63	229.00
362.01	229.03
362.39	229.04
362.77	229.10
363.15	229.13
363.53	229.17
363.91	229.21
364.29	229.20
364.67	229.12
365.05	229.15
365.43	229.16
365.81	229.19
366.19	229.22
366.57	229.23
366.95	229.23
367.33	229.18
367.71	229.16
368.09	229.18
368.47	229.16
368.85	229.11
369.23	229.14
369.61	229.06
369.99	229.09
370.37	229.10
370.75	229.10
371.13	229.07
371.51	229.02
371.89	228.98
372.27	228.93
372.65	228.87
373.03	228.81
373.41	228.75
373.78	228.66
374.16	228.56
374.54	228.48
374.92	228.36
375.30	228.31
375.68	228.24
376.06	228.18
376.44	228.11
376.82	228.07
377.19	227.99
377.57	227.91
377.95	227.79
378.33	227.76
378.71	227.64
379.09	227.58
379.47	227.52
379.84	227.43
380.22	227.41
380.60	227.34
380.98	227.32
381.36	227.21
381.73	227.13
382.11	227.11
382.49	227.05
382.87	226.99
383.25	226.95
383.62	227.00
384.00	226.90
384.38	226.84
384.76	226.82
385.13	226.81
385.51	226.78
385.89	226.74
386.27	226.66
386.64	226.59
387.02	226.55
387.40	226.54
387.78	226.52
388.15	226.47
388.53	226.41
388.91	226.34
389.29	226.35
389.66	226.35
390.04	226.31
390.42	226.27
390.79	226.27
391.17	226.27
391.55	226.15
391.92	226.15
392.30	226.16
392.68	226.16
393.05	226.11
393.43	226.09
393.81	226.09
394.18	226.09
394.56	226.12
394.94	226.15
395.31	226.12
395.69	226.17
396.06	226.18
396.44	226.24
396.82	226.26
397.19	226.34
397.57	226.38
397.95	226.44
398.32	226.49
398.70	226.57
399.07	226.58
399.45	226.62
399.82	226.67
400.20	226.72
400.58	226.77
400.95	226.79
401.33	226.90
401.70	227.04
402.08	227.17
402.45	227.23
402.83	227.33
403.20	227.42
403.58	227.50
403.95	227.67
404.33	227.79
404.71	227.93
405.08	228.11
405.46	228.24
405.83	228.39
406.21	228.55
406.58	228.71
406.96	228.89
407.33	229.09
407.70	229.27
408.08	229.55
408.45	229.78
408.83	230.05
409.20	230.28
409.58	230.44
409.95	230.67
410.33	230.98
410.70	231.21
411.08	231.53
411.45	231.83
411.82	232.14
412.20	232.46
412.57	232.87
412.95	233.16
413.32	233.59
413.69	234.02
414.07	234.45
414.44	234.91
414.82	235.42
415.19	235.95
415.56	236.51
415.94	237.04
416.31	237.65
416.68	238.26
417.06	238.95
417.43	239.66
417.81	240.42
418.18	241.17
418.55	242.04
418.93	242.91
419.30	243.81
419.67	244.70
420.04	245.67
420.42	246.69
420.79	247.86
421.16	249.01
421.54	250.17
421.91	251.37
422.28	252.61
422.66	253.92
423.03	255.20
423.40	256.55
423.77	257.96
424.15	259.37
424.52	260.89
424.89	262.49
425.26	264.06
425.64	265.52
426.01	267.11
426.38	268.77
426.75	270.45
427.13	272.17
427.50	273.99
427.87	275.90
428.24	277.74
428.61	279.46
428.99	281.39
429.36	283.50
429.73	285.55
430.10	287.62
430.47	289.69
430.85	291.84
431.22	294.08
431.59	296.43
431.96	298.73
432.33	301.21
432.70	303.59
433.08	306.38
433.45	309.01
433.82	311.61
434.19	314.49
434.56	317.24
434.93	319.88
435.30	322.47
435.68	325.29
436.05	328.11
436.42	330.91
436.79	333.40
437.16	336.07
437.53	338.96
437.90	341.73
438.27	344.46
438.64	347.23
439.01	349.80
439.38	352.06
439.75	354.22
440.13	356.68
440.50	358.98
440.87	360.81
441.24	362.72
441.61	364.90
441.98	366.38
442.35	368.23
442.72	370.11
443.09	371.92
443.46	372.93
443.83	373.56
444.20	374.09
444.57	374.96
444.94	375.21
445.31	375.49
445.68	375.84
446.05	375.91
446.42	375.56
446.79	375.17
447.16	374.71
447.53	374.37
447.90	373.18
448.27	372.06
448.64	370.48
449.01	369.36
449.37	367.36
449.74	365.44
450.11	363.19
450.48	360.70
450.85	358.21
451.22	356.07
451.59	353.99
451.96	352.02
452.33	349.41
452.70	347.12
453.07	344.27
453.43	341.35
453.80	338.54
454.17	335.85
454.54	333.26
454.91	330.55
455.28	327.83
455.65	325.37
456.02	322.90
456.38	320.75
456.75	318.09
457.12	315.85
457.49	313.68
457.86	311.54
458.23	309.70
458.59	307.64
458.96	305.58
459.33	303.72
459.70	301.88
460.07	300.39
460.43	298.64
460.80	297.06
461.17	295.65
461.54	294.24
461.91	292.80
462.27	291.35
462.64	290.09
463.01	288.78
463.38	287.50
463.74	286.13
464.11	284.99
464.48	283.99
464.85	282.87
465.21	282.01
465.58	281.08
465.95	280.01
466.32	279.13
466.68	278.23
467.05	277.37
467.42	276.49
467.78	275.57
468.15	274.72
468.52	274.06
468.88	273.26
469.25	272.47
469.62	271.91
469.98	271.26
470.35	270.68
470.72	270.08
471.08	269.44
471.45	268.95
471.82	268.45
472.18	267.86
472.55	267.44
472.92	266.89
473.28	266.42
473.65	265.94
474.02	265.52
474.38	265.15
474.75	264.83
475.11	264.47
475.48	264.19
475.85	263.98
476.21	263.72
476.58	263.51
476.94	263.39
477.31	263.20
477.67	263.05
478.04	262.96
478.41	262.94
478.77	262.97
479.14	262.90
479.50	262.88
479.87	262.96
480.23	263.05
480.60	263.11
480.96	263.23
481.33	263.44
481.69	263.64
482.06	263.81
482.42	263.98
482.79	264.25
483.15	264.59
483.52	264.96
483.88	265.33
484.25	265.70
484.61	266.13
484.98	266.59
485.34	267.16
485.71	267.70
486.07	268.33
486.44	268.89
486.80	269.59
487.17	270.31
487.53	271.12
487.90	271.98
488.26	272.93
488.62	273.90
488.99	274.88
489.35	275.89
489.72	277.05
490.08	278.24
490.44	279.49
490.81	280.79
491.17	282.12
491.54	283.60
491.90	285.13
492.26	286.71
492.63	288.47
492.99	290.28
493.36	292.18
493.72	294.16
494.08	296.24
494.45	298.50
494.81	300.85
495.17	303.26
495.54	305.85
495.90	308.50
496.26	311.26
496.63	314.23
496.99	317.36
497.35	320.60
497.72	324.01
498.08	327.55
498.44	331.24
498.80	335.18
499.17	339.24
499.53	343.47
499.89	347.92
500.26	352.38
500.62	357.02
500.98	361.97
501.34	367.03
501.71	372.38
502.07	377.83
502.43	383.48
502.79	389.32
503.16	395.35
503.52	401.68
503.88	408.10
504.24	414.76
504.60	421.64
504.97	428.78
505.33	436.12
505.69	443.79
506.05	451.52
506.41	459.43
506.78	467.58
507.14	475.98
507.50	484.69
507.86	493.73
508.22	502.95
508.59	512.14
508.95	521.76
509.31	531.62
509.67	541.69
510.03	551.98
510.39	562.50
510.75	573.31
511.12	584.24
511.48	595.57
511.84	607.01
512.20	618.52
512.56	630.44
512.92	642.61
513.28	654.97
513.64	667.50
514.00	680.15
514.37	693.07
514.73	706.15
515.09	719.13
515.45	732.36
515.81	745.91
516.17	759.93
516.53	774.09
516.89	788.24
517.25	802.38
517.61	816.72
517.97	831.19
518.33	845.58
518.69	860.29
519.05	875.19
519.41	890.36
519.77	905.91
520.13	921.38
520.49	936.71
520.85	952.12
521.21	967.93
521.57	984.16
521.93	999.92
522.29	1016.24
522.65	1032.43
523.01	1048.74
523.37	1064.85
523.73	1081.07
524.09	1097.12
524.45	1113.41
524.81	1130.05
525.17	1146.93
525.53	1163.93
525.89	1180.87
526.25	1197.63
526.61	1214.07
526.97	1230.79
527.33	1247.26
527.68	1263.76
528.04	1280.30
528.40	1296.90
528.76	1313.79
529.12	1330.38
529.48	1347.22
529.84	1363.28
530.20	1380.08
530.56	1397.07
530.91	1414.42
531.27	1431.02
531.63	1447.45
531.99	1464.03
532.35	1479.96
532.71	1495.81
533.07	1511.92
533.42	1527.72
533.78	1543.77
534.14	1559.99
534.50	1575.30
534.86	1591.15
535.21	1606.36
535.57	1622.15
535.93	1637.58
536.29	1652.39
536.65	1667.39
537.00	1682.23
537.36	1697.52
537.72	1711.85
538.08	1726.30
538.44	1739.84
538.79	1753.59
539.15	1767.22
539.51	1780.93
539.87	1795.20
540.22	1808.91
540.58	1822.63
540.94	1836.09
541.29	1848.98
541.65	1861.57
542.01	1874.77
542.37	1887.01
542.72	1899.41
543.08	1911.36
543.44	1923.86
543.79	1935.02
544.15	1946.01
544.51	1957.50
544.87	1968.44
545.22	1979.24
545.58	1989.35
545.94	1999.32
546.29	2009.31
546.65	2019.12
547.01	2028.32
547.36	2037.01
547.72	2045.48
548.07	2053.37
548.43	2061.51
548.79	2069.61
549.14	2077.18
549.50	2084.44
549.86	2092.17
550.21	2099.35
550.57	2106.42
550.92	2112.76
551.28	2119.71
551.64	2126.68
551.99	2133.04
552.35	2139.22
552.70	2145.31
553.06	2151.29
553.41	2157.55
553.77	2163.63
554.13	2169.70
554.48	2175.74
554.84	2181.34
555.19	2186.65
555.55	2191.64
555.90	2195.90
556.26	2200.67
556.61	2205.47
556.97	2209.74
557.32	2213.82
557.68	2218.08
558.03	2222.32
558.39	2226.04
558.74	2230.78
559.10	2234.74
559.45	2238.62
559.81	2242.78
560.16	2246.70
560.52	2249.93
560.87	2253.28
561.23	2255.95
561.58	2259.04
561.94	2261.67
562.29	2263.89
562.64	2266.48
563.00	2269.17
563.35	2272.78
563.71	2275.82
564.06	2279.03
564.42	2281.92
564.77	2284.52
565.12	2286.83
565.48	2288.70
565.83	2290.62
566.19	2292.05
566.54	2293.10
566.89	2294.17
567.25	2294.86
567.60	2296.18
567.96	2297.85
568.31	2298.81
568.66	2299.91
569.02	2300.43
569.37	2300.65
569.72	2301.58
570.08	2301.77
570.43	2301.72
570.78	2301.05
571.14	2299.62
571.49	2298.24
571.84	2298.03
572.20	2296.92
572.55	2295.78
572.90	2294.29
573.26	2292.80
573.61	2290.91
573.96	2288.97
574.31	2285.97
574.67	2282.86
575.02	2279.23
575.37	2275.82
575.72	2272.06
576.08	2268.83
576.43	2265.48
576.78	2261.80
577.13	2258.61
577.49	2255.52
577.84	2252.02
578.19	2248.27
578.54	2244.59
578.90	2240.36
579.25	2234.69
579.60	2229.55
579.95	2224.56
580.30	2219.49
580.66	2214.53
581.01	2209.67
581.36	2204.75
581.71	2200.68
582.06	2196.28
582.42	2191.81
582.77	2186.57
583.12	2182.02
583.47	2177.17
583.82	2172.06
584.17	2166.88
584.53	2161.44
584.88	2155.80
585.23	2150.02
585.58	2144.64
585.93	2139.30
586.28	2134.42
586.63	2129.44
586.98	2124.45
587.34	2119.86
587.69	2115.06
588.04	2109.78
588.39	2104.21
588.74	2097.87
589.09	2091.61
589.44	2084.77
589.79	2078.83
590.14	2073.23
590.49	2066.54
590.84	2060.26
591.19	2054.28
591.54	2047.83
591.89	2040.38
592.25	2033.62
592.60	2026.58
592.95	2019.12
593.30	2011.56
593.65	2004.16
594.00	1997.17
594.35	1989.87
594.70	1981.81
595.05	1974.58
595.40	1967.24
595.75	1959.77
596.10	1953.34
596.45	1946.51
596.80	1940.52
597.15	1933.86
597.50	1926.74
597.85	1920.42
598.19	1913.65
598.54	1906.51
598.89	1899.85
599.24	1893.96
599.59	1887.22
599.94	1881.00
600.29	1874.57
600.64	1868.21
600.99	1860.67
601.34	1853.82
601.69	1847.03
602.04	1840.07
602.39	1832.67
602.74	1825.87
603.08	1819.10
603.43	1812.52
603.78	1805.30
604.13	1797.90
604.48	1790.47
604.83	1783.57
605.18	1776.43
605.53	1768.49
605.87	1760.57
606.22	1753.44
606.57	1745.61
606.92	1738.32
607.27	1731.06
607.62	1724.20
607.96	1716.89
608.31	1710.38
608.66	1702.69
609.01	1695.08
609.36	1687.61
609.70	1679.57
610.05	1671.52
610.40	1663.73
610.75	1655.35
611.10	1647.76
611.44	1639.49
611.79	1631.55
612.14	1622.99
612.49	1613.95
612.83	1605.58
613.18	1597.44
613.53	1589.26
613.88	1580.67
614.22	1572.27
614.57	1563.83
614.92	1555.73
615.27	1548.22
615.61	1539.84
615.96	1531.88
616.31	1524.18
616.65	1516.71
617.00	1509.27
617.35	1501.53
617.70	1493.19
618.04	1484.71
618.39	1476.40
618.74	1468.69
619.08	1460.41
619.43	1452.84
619.78	1445.86
620.12	1438.56
620.47	1431.00
620.82	1422.83
621.16	1415.35
621.51	1407.84
621.85	1400.03
622.20	1391.51
622.55	1383.02
622.89	1375.22
623.24	1367.55
623.59	1360.21
623.93	1352.72
624.28	1345.41
624.62	1337.99
624.97	1330.82
625.32	1324.01
625.66	1316.97
626.01	1309.80
626.35	1302.29
626.70	1294.49
627.04	1286.80
627.39	1279.01
627.73	1271.65
628.08	1264.76
628.43	1257.49
628.77	1250.10
629.12	1242.56
629.46	1235.40
629.81	1228.00
630.15	1220.68
630.50	1213.24
630.84	1204.94
631.19	1196.94
631.53	1189.46
631.88	1181.89
632.22	1174.25
632.57	1167.00
632.91	1159.50
633.26	1152.15
633.60	1144.83
633.95	1137.76
634.29	1130.77
634.64	1124.20
634.98	1116.81
635.32	1109.63
635.67	1103.06
636.01	1096.46
636.36	1089.66
636.70	1083.19
637.05	1076.64
637.39	1070.13
637.73	1063.64
638.08	1057.82
638.42	1051.86
638.77	1045.39
639.11	1038.76
639.45	1032.40
639.80	1025.75
640.14	1019.27
640.49	1012.70
640.83	1006.44
641.17	1000.13
641.52	993.72
641.86	987.28
642.20	981.35
642.55	975.05
642.89	968.47
643.23	961.89
643.58	956.19
643.92	949.98
644.26	943.90
644.61	937.96
644.95	931.90
645.29	925.29
645.64	918.57
645.98	912.30
646.32	906.47
646.66	900.47
647.01	894.66
647.35	889.02
647.69	883.19
648.04	877.61
648.38	871.81
648.72	865.83
649.06	859.69
649.41	853.87
649.75	847.91
650.09	842.06
650.43	836.24
650.78	830.04
651.12	824.09
651.46	818.30
651.80	812.53
652.14	807.15
652.49	801.79
652.83	796.69
653.17	790.90
653.51	785.19
653.85	779.76
654.20	774.10
654.54	768.01
654.88	762.32
655.22	756.43
655.56	750.83
655.90	745.45
656.25	740.27
656.59	734.87
656.93	729.78
657.27	724.67
657.61	719.34
657.95	714.26
658.29	709.17
658.64	704.00
658.98	698.72
659.32	693.29
659.66	688.07
660.00	682.65
660.34	677.72
660.68	672.79
661.02	667.78
661.36	663.08
661.70	658.64
662.05	654.20
662.39	649.88
662.73	645.43
663.07	641.01
663.41	636.48
663.75	632.03
664.09	627.48
664.43	623.04
664.77	618.86
665.11	614.60
665.45	610.48
665.79	606.39
666.13	602.25
666.47	598.18
666.81	594.03
667.15	589.95
667.49	586.07
667.83	582.27
668.17	578.35
668.51	574.21
668.85	570.18
669.19	566.43
669.53	562.60
669.87	558.70
670.21	554.95
670.55	551.41
670.89	548.04
671.23	544.61
671.57	541.10
671.91	537.56
672.25	534.08
672.58	530.54
672.92	527.10
673.26	523.91
673.60	520.73
673.94	517.64
674.28	514.79
674.62	511.84
674.96	508.76
675.30	505.79
675.64	502.93
675.97	500.17
676.31	497.27
676.65	494.32
676.99	491.62
677.33	488.78
677.67	485.97
678.01	482.88
678.34	479.90
678.68	477.03
679.02	474.22
679.36	471.45
679.70	468.76
680.04	466.05
680.37	463.22
680.71	460.42
681.05	457.81
681.39	455.07
681.73	452.42
682.06	449.87
682.40	447.35
682.74	444.81
683.08	442.26
683.42	439.69
683.75	437.18
684.09	434.62
684.43	432.19
684.77	429.69
685.10	427.35
685.44	425.07
685.78	422.78
686.12	420.58
686.45	418.25
686.79	415.93
687.13	413.71
687.46	411.55
687.80	409.41
688.14	407.14
688.48	405.05
688.81	402.81
689.15	400.62
689.49	398.52
689.82	396.44
690.16	394.36
690.50	392.40
690.83	390.50
691.17	388.50
691.51	386.56
691.84	384.73
692.18	382.83
692.52	380.82
692.85	378.90
693.19	376.98
693.52	375.19
693.86	373.42
694.20	371.63
694.53	369.77
694.87	367.94
695.21	366.21
695.54	364.39
695.88	362.68
696.21	360.99
696.55	359.28
696.88	357.58
697.22	355.94
697.56	354.33
697.89	352.66
698.23	351.05
698.56	349.45
698.90	347.82
699.23	346.15
699.57	344.60
699.90	343.07
700.24	341.55
700.58	340.06
700.91	338.50
701.25	337.04
701.58	335.71
701.92	334.35
702.25	332.98
702.59	331.64
702.92	330.32
703.26	328.98
703.59	327.69
703.93	326.54
704.26	325.30
704.60	324.02
704.93	322.70
705.26	321.46
705.60	320.27
705.93	319.12
706.27	318.07
706.60	317.03
706.94	315.94
707.27	314.82
707.61	313.70
707.94	312.73
708.27	311.69
708.61	310.60
708.94	309.59
709.28	308.58
709.61	307.62
709.94	306.66
710.28	305.69
710.61	304.72
710.95	303.60
711.28	302.68
711.61	301.74
711.95	300.84
712.28	299.93
712.61	298.93
712.95	298.00
713.28	297.19
713.61	296.31
713.95	295.42
714.28	294.58
714.61	293.72
714.95	292.85
715.28	292.00
715.61	291.09
715.95	290.23
716.28	289.38
716.61	288.55
716.95	287.73
717.28	286.97
717.61	286.24
717.94	285.51
718.28	284.76
718.61	284.00
718.94	283.30
719.27	282.63
719.61	281.99
719.94	281.34
720.27	280.56
720.60	279.88
720.94	279.27
721.27	278.66
721.60	278.06
721.93	277.47
722.27	276.89
722.60	276.34
722.93	275.75
723.26	275.20
723.59	274.61
723.93	274.06
724.26	273.48
724.59	272.90
724.92	272.41
725.25	271.87
725.59	271.39
725.92	270.91
726.25	270.44
726.58	269.96
726.91	269.48
727.24	269.03
727.57	268.57
727.91	268.05
728.24	267.59
728.57	267.10
728.90	266.63
729.23	266.14
729.56	265.76
729.89	265.34
730.22	264.84
730.55	264.42
730.89	263.96
731.22	263.57
731.55	263.13
731.88	262.67
732.21	262.24
732.54	261.80
732.87	261.36
733.20	260.92
733.53	260.54
733.86	260.12
734.19	259.72
734.52	259.33
734.85	259.01
735.18	258.60
735.51	258.23
735.84	257.88
736.17	257.56
736.50	257.12
736.83	256.87
737.16	256.60
737.49	256.23
737.82	255.89
738.15	255.54
738.48	255.22
738.81	254.88
739.14	254.54
739.47	254.23
739.80	253.92
740.13	253.61
740.46	253.28
740.79	252.96
741.12	252.64
741.45	252.31
741.78	251.99
742.11	251.72
742.44	251.43
742.77	251.14
743.10	250.80
743.43	250.50
743.75	250.11
744.08	249.93
744.41	249.68
744.74	249.40
745.07	249.12
745.40	248.85
745.73	248.64
746.06	248.34
746.39	248.06
746.71	247.79
747.04	247.53
747.37	247.27
747.70	246.99
748.03	246.73
748.36	246.52
748.68	246.23
749.01	245.97
749.34	245.71
749.67	245.50
750.00	245.26
750.33	245.12
750.65	244.90
750.98	244.58
751.31	244.36
751.64	244.10
751.97	243.90
752.29	243.68
752.62	243.38
752.95	243.22
753.28	242.99
753.60	242.81
753.93	242.59
754.26	242.40
754.59	242.19
754.91	241.99
755.24	241.77
755.57	241.59
755.90	241.39
756.22	241.20
756.55	240.99
756.88	240.83
757.20	240.59
757.53	240.40
757.86	240.21
758.19	240.05
758.51	239.90
758.84	239.72
759.17	239.54
759.49	239.40
759.82	239.25
760.15	239.10
760.47	238.90
760.80	238.77
761.13	238.62
761.45	238.49
761.78	238.33
762.11	238.19
762.43	238.06
762.76	237.92
763.08	237.75
763.41	237.60
763.74	237.47
764.06	237.35
764.39	237.18
764.71	237.05
765.04	236.88
765.37	236.73
765.69	236.57
766.02	236.44
766.34	236.29
766.67	236.15
767.00	236.05
767.32	235.98
767.65	235.95
767.97	235.85
768.30	235.76
768.62	235.64
768.95	235.54
769.27	235.39
769.60	235.28
769.92	235.17
770.25	235.06
770.57	234.93
770.90	234.82
771.22	234.76
771.55	234.65
771.87	234.54
772.20	234.47
772.52	234.52
772.85	234.54
773.17	234.50
773.50	234.42
773.82	234.33
774.15	234.17
774.47	234.02
774.80	233.87
775.12	233.77
775.45	233.72
775.77	233.61
776.09	233.54
776.42	233.48
776.74	233.49
777.07	233.40
777.39	233.36
777.72	233.28
778.04	233.21
778.36	233.16
778.69	233.11
779.01	233.08
779.33	232.89
779.66	232.70
779.98	232.64
780.31	232.58
780.63	232.55
780.95	232.54
781.28	232.44
781.60	232.43
781.92	232.35
782.25	232.31
782.57	232.27
782.89	232.26
783.22	232.21
783.54	232.13
783.86	232.09
784.19	232.01
784.51	231.95
784.83	231.87
785.16	231.79
785.48	231.74
785.80	231.68
786.12	231.65
786.45	231.63
786.77	231.57
787.09	231.49
787.42	231.38
787.74	231.33
788.06	231.32
788.38	231.29
788.71	231.28
789.03	231.22
789.35	231.22
789.67	231.19
789.99	231.14
790.32	231.06
790.64	231.03
790.96	231.06
791.28	231.00
791.61	230.96
791.93	230.93
792.25	230.89
792.57	230.90
792.89	230.85
793.21	230.82
793.54	230.78
793.86	230.76
794.18	230.74
794.50	230.70
794.82	230.63
795.14	230.57
795.47	230.54
795.79	230.51
796.11	230.42
796.43	230.34
796.75	230.31
797.07	230.29
797.39	230.27
797.71	230.16
798.04	230.16
798.36	230.13
798.68	230.10
799.00	230.06
799.32	229.99
799.64	229.98
799.96	229.91
800.28	229.89
800.60	229.84
800.92	229.81
801.24	229.76
801.56	229.76
801.89	229.70
802.21	229.67
802.53	229.63
802.85	229.65
803.17	229.64
803.49	229.57
803.81	229.51
804.13	229.45
804.45	229.42
804.77	229.37
805.09	229.37
805.41	229.34
805.73	229.29
806.05	229.24
806.37	229.18
806.69	229.17
807.01	229.13
807.33	229.09
807.65	229.00
807.97	229.04
808.28	228.97
808.60	228.96
808.92	228.92
809.24	228.92
809.56	228.85
809.88	228.78
810.20	228.78
810.52	228.80
810.84	228.73
811.16	228.69
811.48	228.64
811.80	228.64
812.12	228.61
812.43	228.63
812.75	228.61
813.07	228.59
813.39	228.56
813.71	228.51
814.03	228.47
814.35	228.46
814.67	228.41
814.98	228.41
815.30	228.38
815.62	228.33
815.94	228.26
816.26	228.25
816.58	228.25
816.89	228.24
817.21	228.18
817.53	228.20
817.85	228.20
818.17	228.18
818.48	228.13
818.80	228.11
819.12	228.07
819.44	228.05
819.76	228.04
820.07	228.05
820.39	228.07
820.71	228.11
821.03	228.15
821.34	228.12
821.66	228.13
821.98	228.15
822.30	228.13
822.61	228.18
822.93	228.18
823.25	228.16
823.57	228.16
823.88	228.18
824.20	228.19
824.52	228.16
824.83	228.16
825.15	228.14
825.47	228.11
825.79	228.14
826.10	228.13
826.42	228.14
826.74	228.13
827.05	228.11
827.37	228.11
827.69	228.09
828.00	228.12
828.32	228.09
828.64	228.10
828.95	228.19
829.27	228.16
829.58	228.14
829.90	228.19
830.22	228.18
830.53	228.14
830.85	228.13
831.17	228.10
831.48	228.08
831.80	228.10
832.11	228.14
832.43	228.09
832.75	228.09
833.06	228.15
833.38	228.12
833.69	228.15
834.01	228.12
834.32	228.11
834.64	228.06
834.96	228.08
835.27	228.02
835.59	227.96
835.90	227.91
836.22	227.89
836.53	227.85
836.85	227.86
837.16	227.97
837.48	227.94
837.79	228.02
838.11	228.04
838.42	228.05
838.74	228.01
839.05	228.01
839.37	227.98
839.68	227.87
840.00	227.86
840.31	227.82
840.63	227.81
840.94	227.77
841.26	227.75
841.57	227.73
841.88	227.74
842.20	227.73
842.51	227.73
842.83	227.74
843.14	227.83
843.46	227.81
843.77	227.72
844.08	227.71
844.40	227.66
844.71	227.64
845.03	227.61
845.34	227.60
845.65	227.59
845.97	227.59
846.28	227.59
846.60	227.60
846.91	227.59
847.22	227.56
847.54	227.60
847.85	227.59
848.16	227.53
848.48	227.50
848.79	227.51
849.10	227.51
849.42	227.50
849.73	227.37
850.04	227.36
850.36	227.29
850.67	227.31
850.98	227.30
851.30	227.27
851.61	227.28
851.92	227.27
852.23	227.28
852.55	227.31
852.86	227.31
853.17	227.30
853.49	227.32
853.80	227.38
854.11	227.38
854.42	227.41
854.74	227.44
855.05	227.47
855.36	227.42
855.67	227.42
855.99	227.40
856.30	227.53
856.61	227.53
856.92	227.58
857.23	227.58
857.55	227.55
857.86	227.56
858.17	227.52
858.48	227.55
858.79	227.55
859.11	227.51
859.42	227.55
859.73	227.55
860.04	227.55
860.35	227.51
860.66	227.47
860.98	227.44
861.29	227.43
861.60	227.43
861.91	227.49
862.22	227.44
862.53	227.46
862.84	227.32
863.16	227.32
863.47	227.27
863.78	227.27
864.09	227.28
864.40	227.30
864.71	227.33
865.02	227.31
865.33	227.29
865.64	227.30
865.95	227.27
866.27	227.35
866.58	227.31
866.89	227.30
867.20	227.30
867.51	227.32
867.82	227.34
868.13	227.33
868.44	227.29
868.75	227.35
869.06	227.38
869.37	227.40
869.68	227.39
869.99	227.42
870.30	227.42
870.61	227.45
870.92	227.40
871.23	227.36
871.54	227.41
871.85	227.42
872.16	227.42
872.47	227.41
872.78	227.32
873.09	227.36
873.40	227.38
873.71	227.38
874.02	227.38
874.33	227.38
874.64	227.37
874.95	227.39
875.26	227.35
875.56	227.33
875.87	227.31
876.18	227.30
876.49	227.38
876.80	227.38
877.11	227.34
877.42	227.37
877.73	227.40
878.04	227.35
878.35	227.34
878.66	227.35
878.96	227.33
879.27	227.32
879.58	227.30
879.89	227.26
880.20	227.27
880.51	227.26
880.82	227.24
881.12	227.23
881.43	227.20
881.74	227.17
882.05	227.15
882.36	227.19
882.67	227.21
882.97	227.10
883.28	227.11
883.59	227.08
883.90	227.11
884.21	227.07
884.51	227.05
884.82	227.02
885.13	226.99
885.44	227.03
885.74	227.03
886.05	227.02
886.36	227.04
886.67	227.00
886.98	227.02
887.28	227.03
887.59	227.03
887.90	227.04
888.20	227.04
888.51	227.06
888.82	227.02
889.13	227.00
889.43	227.09
889.74	227.05
890.05	227.08
890.35	227.01
890.66	227.04
890.97	227.04
891.28	227.03
891.58	227.02
891.89	226.98
892.20	226.93
892.50	226.94
892.81	226.89
893.12	226.91
893.42	226.89
893.73	226.86
894.04	226.85
894.34	226.87
894.65	226.88
894.95	226.87
895.26	226.88
895.57	226.92
895.87	226.84
896.18	226.87
896.48	226.87
896.79	226.88
897.10	226.89
897.40	226.89
897.71	226.94
898.01	226.95
898.32	226.98
898.63	227.03
898.93	227.02
899.24	227.04
899.54	227.01
899.85	227.01
900.15	227.02
900.46	227.00
900.76	226.96
901.07	226.98
901.38	226.96
901.68	226.93
901.99	226.90
902.29	226.90
902.60	226.87
902.90	226.85
903.21	226.85
903.51	226.85
903.82	226.88
904.12	226.84
904.43	226.83
904.73	226.82
905.03	226.82
905.34	226.91
905.64	226.90
905.95	226.90
906.25	226.88
906.56	226.88
906.86	226.92
907.17	226.93
907.47	226.92
907.77	226.90
908.08	226.88
908.38	226.89
908.69	226.91
908.99	226.93
909.30	226.95
909.60	226.98
909.90	226.97
910.21	226.92
910.51	226.91
910.81	226.92
911.12	226.93
911.42	226.93
911.73	226.83
912.03	226.85
912.33	226.85
912.64	226.87
912.94	226.84
913.24	226.84
913.55	226.85
913.85	226.84
914.15	226.87
914.46	226.90
914.76	226.88
915.06	226.84
915.37	226.81
915.67	226.80
915.97	226.77
916.27	226.74
916.58	226.75
916.88	226.74
917.18	226.72
917.49	226.76
917.79	226.75
918.09	226.77
918.39	226.78
918.70	226.83
919.00	226.84
919.30	226.90
919.60	226.86
919.91	226.86
920.21	226.84
920.51	226.83
920.81	226.83
921.12	226.84
921.42	226.86
921.72	226.86
922.02	226.85
922.32	226.89
922.63	226.88
922.93	226.95
923.23	226.96
923.53	226.98
923.83	226.89
924.13	226.91
924.44	226.87
924.74	226.89
925.04	226.87
925.34	226.84
925.64	226.81
925.94	226.83
926.24	226.87
926.55	226.88
926.85	226.90
927.15	226.89
927.45	226.85
927.75	226.88
928.05	226.90
928.35	226.91
928.65	226.91
928.95	226.95
929.26	226.91
929.56	226.92
929.86	226.91
930.16	226.93
930.46	226.93
930.76	226.98
931.06	226.95
931.36	226.94
931.66	226.93
931.96	226.93
932.26	226.92
932.56	226.88
932.86	226.90
933.16	226.87
933.46	226.87
933.76	226.90
934.06	226.90
934.36	226.93
934.66	226.95
934.96	226.91
935.26	226.92
935.56	226.92
935.86	226.92
936.16	226.91
936.46	226.90
936.76	226.91
937.06	226.89
937.36	226.88
937.66	226.86
937.96	226.88
938.26	226.86
938.56	226.87
938.86	226.86
939.16	226.87
939.46	226.88
939.76	226.86
940.06	226.87
940.35	226.84
940.65	226.76
940.95	226.74
941.25	226.74
941.55	226.73
941.85	226.73
942.15	226.76
942.45	226.77
942.75	226.77
943.04	226.75
943.34	226.76
943.64	226.77
943.94	226.80
944.24	226.81
944.54	226.84
944.84	226.82
945.13	226.81
945.43	226.79
945.73	226.80
946.03	226.80
946.33	226.78
946.62	226.77
946.92	226.78
947.22	226.79
947.52	226.80
947.82	226.82
948.11	226.79
948.41	226.74
948.71	226.72
949.01	226.71
949.31	226.70
949.60	226.68
949.90	226.67
950.20	226.64
950.50	226.64
950.79	226.58
951.09	226.57
951.39	226.55
951.69	226.54
951.98	226.55
952.28	226.54
952.58	226.50
952.87	226.47
953.17	226.50
953.47	226.49
953.76	226.47
954.06	226.42
954.36	226.41
954.66	226.43
954.95	226.47
955.25	226.46
955.55	226.43
955.84	226.40
956.14	226.40
956.44	226.40
956.73	226.35
957.03	226.36
957.32	226.38
957.62	226.34
957.92	226.40
958.21	226.36
958.51	226.45
958.81	226.47
959.10	226.48
959.40	226.50
959.69	226.52
959.99	226.53
960.29	226.54
960.58	226.54
960.88	226.57
961.17	226.56
961.47	226.55
961.76	226.57
962.06	226.59
962.36	226.58
962.65	226.61
962.95	226.66
963.24	226.67
963.54	226.66
963.83	226.69
964.13	226.63
964.42	226.63
964.72	226.60
965.01	226.62
965.31	226.62
965.60	226.56
965.90	226.60
966.19	226.59
966.49	226.60
966.78	226.58
967.08	226.56
967.37	226.55
967.67	226.55
967.96	226.57
968.26	226.57
968.55	226.58
968.85	226.58
969.14	226.53
969.43	226.54
969.73	226.54
970.02	226.56
970.32	226.59
970.61	226.58
970.91	226.53
971.20	226.53
971.49	226.53
971.79	226.56
972.08	226.50
972.38	226.51
972.67	226.49
972.96	226.53
973.26	226.52
973.55	226.60
973.85	226.57
974.14	226.57
974.43	226.57
974.73	226.54
975.02	226.49
975.31	226.51
975.61	226.50
975.90	226.51
976.19	226.52
976.49	226.54
976.78	226.55
977.07	226.55
977.37	226.55
977.66	226.56
977.95	226.59
978.24	226.59
978.54	226.61
978.83	226.62
979.12	226.62
979.42	226.63
979.71	226.59
980.00	226.61
980.29	226.65
980.59	226.65
980.88	226.69
981.17	226.73
981.46	226.71
981.76	226.71
982.05	226.75
982.34	226.72
982.63	226.70
982.93	226.67
983.22	226.74
983.51	226.75
983.80	226.75
984.09	226.72
984.39	226.75
984.68	226.73
984.97	226.73
985.26	226.72
985.55	226.71
985.85	226.68
986.14	226.67
986.43	226.70
986.72	226.70
987.01	226.67
987.30	226.65
987.59	226.66
987.89	226.65
988.18	226.59
988.47	226.58
988.76	226.58
989.05	226.60
989.34	226.56
989.63	226.57
989.92	226.58
990.22	226.56
990.51	226.54
990.80	226.54
991.09	226.54
991.38	226.54
991.67	226.52
991.96	226.54
992.25	226.56
992.54	226.53
992.83	226.52
993.12	226.52
993.41	226.52
993.70	226.54
993.99	226.59
994.28	226.61
994.58	226.63
994.87	226.62
995.16	226.61
995.45	226.60
995.74	226.57
996.03	226.56
996.32	226.59
996.61	226.58
996.90	226.58
997.19	226.55
997.48	226.54
997.77	226.51
998.06	226.50
998.34	226.47
998.63	226.47
998.92	226.49
999.21	226.53
999.50	226.52
999.79	226.50
1000.08	226.47
1000.37	226.48
1000.66	226.50
1000.95	226.53
1001.24	226.55
1001.53	226.57
1001.82	226.59
1002.11	226.59
1002.40	226.60
1002.68	226.66
1002.97	226.74
1003.26	226.78
1003.55	226.79
1003.84	226.82
1004.13	226.88
1004.42	226.90
1004.71	226.90
1004.99	226.87
1005.28	226.88
1005.57	226.91
1005.86	226.91
1006.15	226.93
1006.44	226.92
1006.72	226.91
1007.01	226.89
1007.30	226.93
1007.59	226.94
1007.88	226.95
1008.17	226.96
1008.45	226.95
1008.74	226.90
1009.03	226.85
1009.32	226.89
1009.60	226.89
1009.89	226.90
1010.18	226.88
1010.47	226.85
1010.76	226.82
1011.04	226.83
1011.33	226.82
1011.62	226.82
1011.91	226.82
1012.19	226.80
1012.48	226.75
1012.77	226.76
1013.05	226.82
1013.34	226.80
1013.63	226.78
1013.92	226.77
1014.20	226.78
1014.49	226.78
1014.78	226.81
1015.06	226.77
1015.35	226.73
1015.64	226.75
1015.92	226.73
1016.21	226.73
1016.50	226.74
1016.78	226.74
1017.07	226.73
1017.36	226.72
1017.64	226.71
1017.93	226.72
1018.22	226.72
1018.50	226.75
1018.79	226.70
1019.08	226.65
1019.36	226.64
1019.65	226.64
1019.93	226.67
1020.22	226.66
1020.51	226.67
1020.79	226.61
1021.08	226.34
1021.36	226.46
1021.65	226.19
1021.94	226.91
1022.22	226.38
1022.51	226.71
1022.79	227.64
1023.08	226.63
1023.36	227.18
1023.65	225.96
>>>>>End Processed Spectral Data<<<<<
