SpectraSuite Data File
++++++++++++++++++++++++++++++++++++
Date: Fri Feb 01 15:11:38 EST 2013
User: group
Dark Spectrum Present: No
Reference Spectrum Present: No
Number of Sampled Component Spectra: 1
Spectrometers: USB2E7196
Integration Time (usec): 35000 (USB2E7196)
Spectra Averaged: 100 (USB2E7196)
Boxcar Smoothing: 10 (USB2E7196)
Correct for Electrical Dark: No (USB2E7196)
Strobe/Lamp Enabled: No (USB2E7196)
Correct for Detector Non-linearity: No (USB2E7196)
Correct for Stray Light: No (USB2E7196)
Number of Pixels in Processed Spectrum: 2048
>>>>>Begin Processed Spectral Data<<<<<
339.09	0.00
339.48	215.03
339.86	217.12
340.24	218.22
340.63	219.47
341.01	222.04
341.39	221.98
341.78	224.26
342.16	224.20
342.54	224.69
342.93	213.41
343.31	224.21
343.69	224.76
344.07	225.22
344.46	225.64
344.84	226.02
345.22	226.27
345.60	226.53
345.99	226.67
346.37	226.83
346.75	226.96
347.13	227.08
347.52	227.12
347.90	227.22
348.28	227.24
348.66	227.30
349.05	227.30
349.43	227.35
349.81	227.42
350.19	227.47
350.57	227.55
350.96	227.63
351.34	227.66
351.72	227.73
352.10	227.80
352.48	227.86
352.87	227.90
353.25	227.96
353.63	228.01
354.01	228.07
354.39	228.14
354.77	228.19
355.15	228.26
355.54	228.31
355.92	228.33
356.30	228.43
356.68	228.56
357.06	228.61
357.44	228.63
357.82	228.69
358.20	228.75
358.58	228.78
358.97	228.84
359.35	228.95
359.73	229.01
360.11	229.08
360.49	229.15
360.87	229.19
361.25	229.25
361.63	229.31
362.01	229.38
362.39	229.39
362.77	229.41
363.15	229.42
363.53	229.43
363.91	229.43
364.29	229.44
364.67	229.36
365.05	229.39
365.43	229.42
365.81	229.43
366.19	229.47
366.57	229.50
366.95	229.48
367.33	229.43
367.71	229.43
368.09	229.44
368.47	229.36
368.85	229.35
369.23	229.33
369.61	229.25
369.99	229.23
370.37	229.21
370.75	229.26
371.13	229.20
371.51	229.17
371.89	229.16
372.27	229.11
372.65	229.07
373.03	229.02
373.41	228.95
373.78	228.88
374.16	228.76
374.54	228.69
374.92	228.64
375.30	228.56
375.68	228.49
376.06	228.39
376.44	228.36
376.82	228.26
377.19	228.21
377.57	228.17
377.95	228.06
378.33	228.01
378.71	227.87
379.09	227.81
379.47	227.73
379.84	227.63
380.22	227.54
380.60	227.47
380.98	227.39
381.36	227.31
381.73	227.24
382.11	227.21
382.49	227.14
382.87	227.02
383.25	226.98
383.62	227.00
384.00	226.92
384.38	226.85
384.76	226.83
385.13	226.76
385.51	226.70
385.89	226.60
386.27	226.53
386.64	226.49
387.02	226.42
387.40	226.36
387.78	226.30
388.15	226.26
388.53	226.21
388.91	226.17
389.29	226.14
389.66	226.11
390.04	226.06
390.42	226.06
390.79	226.06
391.17	226.03
391.55	225.91
391.92	225.93
392.30	225.92
392.68	225.89
393.05	225.90
393.43	225.90
393.81	225.95
394.18	225.95
394.56	226.00
394.94	226.06
395.31	226.11
395.69	226.19
396.06	226.26
396.44	226.29
396.82	226.34
397.19	226.44
397.57	226.49
397.95	226.56
398.32	226.59
398.70	226.67
399.07	226.75
399.45	226.84
399.82	226.89
400.20	226.98
400.58	227.08
400.95	227.19
401.33	227.30
401.70	227.45
402.08	227.59
402.45	227.70
402.83	227.82
403.20	227.94
403.58	228.05
403.95	228.20
404.33	228.37
404.71	228.51
405.08	228.68
405.46	228.85
405.83	229.01
406.21	229.16
406.58	229.36
406.96	229.52
407.33	229.71
407.70	229.95
408.08	230.24
408.45	230.46
408.83	230.65
409.20	230.90
409.58	231.08
409.95	231.32
410.33	231.61
410.70	231.88
411.08	232.18
411.45	232.50
411.82	232.79
412.20	233.14
412.57	233.57
412.95	233.91
413.32	234.30
413.69	234.73
414.07	235.18
414.44	235.63
414.82	236.14
415.19	236.70
415.56	237.25
415.94	237.78
416.31	238.44
416.68	239.10
417.06	239.82
417.43	240.55
417.81	241.30
418.18	242.07
418.55	242.92
418.93	243.80
419.30	244.70
419.67	245.68
420.04	246.65
420.42	247.62
420.79	248.79
421.16	249.98
421.54	251.19
421.91	252.44
422.28	253.69
422.66	255.03
423.03	256.34
423.40	257.64
423.77	259.04
424.15	260.43
424.52	261.91
424.89	263.49
425.26	265.02
425.64	266.48
426.01	268.09
426.38	269.70
426.75	271.41
427.13	273.12
427.50	274.91
427.87	276.79
428.24	278.65
428.61	280.35
428.99	282.25
429.36	284.36
429.73	286.39
430.10	288.43
430.47	290.47
430.85	292.56
431.22	294.81
431.59	297.20
431.96	299.45
432.33	301.91
432.70	304.32
433.08	307.16
433.45	309.83
433.82	312.39
434.19	315.30
434.56	318.10
434.93	320.76
435.30	323.37
435.68	326.27
436.05	329.10
436.42	331.90
436.79	334.40
437.16	337.08
437.53	339.94
437.90	342.75
438.27	345.55
438.64	348.39
439.01	351.00
439.38	353.27
439.75	355.48
440.13	358.03
440.50	360.36
440.87	362.18
441.24	364.13
441.61	366.29
441.98	367.74
442.35	369.55
442.72	371.44
443.09	373.23
443.46	374.18
443.83	374.82
444.20	375.37
444.57	376.20
444.94	376.47
445.31	376.81
445.68	377.17
446.05	377.19
446.42	376.80
446.79	376.39
447.16	375.91
447.53	375.57
447.90	374.33
448.27	373.14
448.64	371.54
449.01	370.37
449.37	368.43
449.74	366.55
450.11	364.25
450.48	361.75
450.85	359.21
451.22	357.08
451.59	354.99
451.96	353.03
452.33	350.49
452.70	348.13
453.07	345.29
453.43	342.41
453.80	339.65
454.17	337.00
454.54	334.44
454.91	331.70
455.28	328.99
455.65	326.52
456.02	324.10
456.38	321.97
456.75	319.33
457.12	317.07
457.49	314.85
457.86	312.74
458.23	310.88
458.59	308.87
458.96	306.78
459.33	304.95
459.70	303.08
460.07	301.55
460.43	299.84
460.80	298.20
461.17	296.74
461.54	295.26
461.91	293.81
462.27	292.36
462.64	291.13
463.01	289.79
463.38	288.49
463.74	287.10
464.11	285.91
464.48	284.83
464.85	283.69
465.21	282.83
465.58	281.89
465.95	280.78
466.32	279.82
466.68	278.91
467.05	277.97
467.42	277.04
467.78	276.09
468.15	275.22
468.52	274.54
468.88	273.66
469.25	272.88
469.62	272.25
469.98	271.56
470.35	270.95
470.72	270.35
471.08	269.67
471.45	269.11
471.82	268.56
472.18	267.96
472.55	267.51
472.92	266.98
473.28	266.49
473.65	266.01
474.02	265.57
474.38	265.20
474.75	264.88
475.11	264.55
475.48	264.26
475.85	263.98
476.21	263.74
476.58	263.54
476.94	263.35
477.31	263.19
477.67	263.00
478.04	262.82
478.41	262.77
478.77	262.81
479.14	262.75
479.50	262.78
479.87	262.86
480.23	262.92
480.60	262.96
480.96	263.02
481.33	263.23
481.69	263.44
482.06	263.64
482.42	263.83
482.79	264.07
483.15	264.41
483.52	264.81
483.88	265.11
484.25	265.49
484.61	265.91
484.98	266.32
485.34	266.89
485.71	267.48
486.07	268.04
486.44	268.56
486.80	269.23
487.17	269.93
487.53	270.72
487.90	271.56
488.26	272.48
488.62	273.46
488.99	274.43
489.35	275.47
489.72	276.60
490.08	277.80
490.44	279.04
490.81	280.35
491.17	281.68
491.54	283.20
491.90	284.75
492.26	286.39
492.63	288.12
492.99	289.87
493.36	291.78
493.72	293.82
494.08	295.93
494.45	298.18
494.81	300.54
495.17	303.01
495.54	305.58
495.90	308.26
496.26	311.04
496.63	313.98
496.99	317.07
497.35	320.33
497.72	323.73
498.08	327.20
498.44	330.88
498.80	334.79
499.17	338.84
499.53	342.98
499.89	347.37
500.26	351.86
500.62	356.54
500.98	361.46
501.34	366.51
501.71	371.82
502.07	377.27
502.43	382.91
502.79	388.70
503.16	394.75
503.52	401.01
503.88	407.47
504.24	414.10
504.60	421.01
504.97	428.11
505.33	435.48
505.69	443.22
506.05	450.97
506.41	458.84
506.78	467.00
507.14	475.43
507.50	484.16
507.86	493.20
508.22	502.39
508.59	511.59
508.95	521.20
509.31	531.00
509.67	541.08
510.03	551.31
510.39	561.88
510.75	572.77
511.12	583.73
511.48	595.03
511.84	606.46
512.20	617.95
512.56	629.93
512.92	642.11
513.28	654.37
513.64	666.91
514.00	679.60
514.37	692.45
514.73	705.52
515.09	718.53
515.45	731.86
515.81	745.45
516.17	759.52
516.53	773.67
516.89	787.94
517.25	802.18
517.61	816.67
517.97	831.15
518.33	845.58
518.69	860.35
519.05	875.33
519.41	890.51
519.77	906.15
520.13	921.67
520.49	937.00
520.85	952.53
521.21	968.25
521.57	984.68
521.93	1000.54
522.29	1017.11
522.65	1033.37
523.01	1049.60
523.37	1065.77
523.73	1082.00
524.09	1098.14
524.45	1114.48
524.81	1131.09
525.17	1147.96
525.53	1164.95
525.89	1181.83
526.25	1198.75
526.61	1215.12
526.97	1231.99
527.33	1248.41
527.68	1265.03
528.04	1281.58
528.40	1298.36
528.76	1315.45
529.12	1332.04
529.48	1349.02
529.84	1365.03
530.20	1381.79
530.56	1398.91
530.91	1416.23
531.27	1432.93
531.63	1449.47
531.99	1466.06
532.35	1482.15
532.71	1498.08
533.07	1514.41
533.42	1530.34
533.78	1546.52
534.14	1562.97
534.50	1578.38
534.86	1594.37
535.21	1609.62
535.57	1625.73
535.93	1641.15
536.29	1656.07
536.65	1671.28
537.00	1686.10
537.36	1701.50
537.72	1716.01
538.08	1730.50
538.44	1744.52
538.79	1758.65
539.15	1772.47
539.51	1786.31
539.87	1800.77
540.22	1814.53
540.58	1828.33
540.94	1842.00
541.29	1854.92
541.65	1867.78
542.01	1881.08
542.37	1893.44
542.72	1905.90
543.08	1917.67
543.44	1930.27
543.79	1941.65
544.15	1952.64
544.51	1964.36
544.87	1975.28
545.22	1986.16
545.58	1996.32
545.94	2006.01
546.29	2015.84
546.65	2025.66
547.01	2035.00
547.36	2043.86
547.72	2052.41
548.07	2060.32
548.43	2068.37
548.79	2076.43
549.14	2083.86
549.50	2091.13
549.86	2098.95
550.21	2106.24
550.57	2113.48
550.92	2120.09
551.28	2127.08
551.64	2134.10
551.99	2140.56
552.35	2146.83
552.70	2153.11
553.06	2159.01
553.41	2165.44
553.77	2171.46
554.13	2177.68
554.48	2183.84
554.84	2189.14
555.19	2194.48
555.55	2199.51
555.90	2203.87
556.26	2208.65
556.61	2213.49
556.97	2217.72
557.32	2221.82
557.68	2226.14
558.03	2230.40
558.39	2234.10
558.74	2238.80
559.10	2242.63
559.45	2246.24
559.81	2250.63
560.16	2254.22
560.52	2257.65
560.87	2261.10
561.23	2263.72
561.58	2266.48
561.94	2268.87
562.29	2271.34
562.64	2273.94
563.00	2276.54
563.35	2280.04
563.71	2283.29
564.06	2286.41
564.42	2289.33
564.77	2291.61
565.12	2293.63
565.48	2295.32
565.83	2297.11
566.19	2298.18
566.54	2298.89
566.89	2299.96
567.25	2300.36
567.60	2301.76
567.96	2303.27
568.31	2303.93
568.66	2304.96
569.02	2305.36
569.37	2305.59
569.72	2306.16
570.08	2306.14
570.43	2306.26
570.78	2305.61
571.14	2303.95
571.49	2302.54
571.84	2301.96
572.20	2300.76
572.55	2299.60
572.90	2298.02
573.26	2296.37
573.61	2294.75
573.96	2292.95
574.31	2289.95
574.67	2286.74
575.02	2283.01
575.37	2279.45
575.72	2275.58
576.08	2272.19
576.43	2268.92
576.78	2265.19
577.13	2262.04
577.49	2258.96
577.84	2255.25
578.19	2251.47
578.54	2247.58
578.90	2243.01
579.25	2237.45
579.60	2232.42
579.95	2227.48
580.30	2222.46
580.66	2217.28
581.01	2212.13
581.36	2207.11
581.71	2202.64
582.06	2198.14
582.42	2193.49
582.77	2188.24
583.12	2183.55
583.47	2178.59
583.82	2173.33
584.17	2167.97
584.53	2162.37
584.88	2156.51
585.23	2150.59
585.58	2144.96
585.93	2139.56
586.28	2134.87
586.63	2129.76
586.98	2124.62
587.34	2119.69
587.69	2114.71
588.04	2109.20
588.39	2103.47
588.74	2097.06
589.09	2090.85
589.44	2083.89
589.79	2077.82
590.14	2072.08
590.49	2065.53
590.84	2059.11
591.19	2053.16
591.54	2046.60
591.89	2039.06
592.25	2032.27
592.60	2024.97
592.95	2017.38
593.30	2009.92
593.65	2002.29
594.00	1995.27
594.35	1987.99
594.70	1980.00
595.05	1972.60
595.40	1965.42
595.75	1957.81
596.10	1951.36
596.45	1944.53
596.80	1938.32
597.15	1931.65
597.50	1924.43
597.85	1917.84
598.19	1911.08
598.54	1903.84
598.89	1897.26
599.24	1891.39
599.59	1884.64
599.94	1878.42
600.29	1871.94
600.64	1865.30
600.99	1857.76
601.34	1850.69
601.69	1843.74
602.04	1836.66
602.39	1829.33
602.74	1822.35
603.08	1815.62
603.43	1808.95
603.78	1801.68
604.13	1794.48
604.48	1787.11
604.83	1780.37
605.18	1773.34
605.53	1765.29
605.87	1757.27
606.22	1750.04
606.57	1742.05
606.92	1734.72
607.27	1727.45
607.62	1720.47
607.96	1713.15
608.31	1706.45
608.66	1698.84
609.01	1691.25
609.36	1683.71
609.70	1675.68
610.05	1667.55
610.40	1659.70
610.75	1651.30
611.10	1643.62
611.44	1635.32
611.79	1627.48
612.14	1618.77
612.49	1609.67
612.83	1601.35
613.18	1593.23
613.53	1585.01
613.88	1576.45
614.22	1568.21
614.57	1559.64
614.92	1551.58
615.27	1543.95
615.61	1535.59
615.96	1527.68
616.31	1520.01
616.65	1512.69
617.00	1505.05
617.35	1497.54
617.70	1489.18
618.04	1480.64
618.39	1472.39
618.74	1464.68
619.08	1456.35
619.43	1448.79
619.78	1441.83
620.12	1434.72
620.47	1427.28
620.82	1419.14
621.16	1411.83
621.51	1404.13
621.85	1396.54
622.20	1388.13
622.55	1379.86
622.89	1372.12
623.24	1364.53
623.59	1357.21
623.93	1349.63
624.28	1342.50
624.62	1334.96
624.97	1327.96
625.32	1321.33
625.66	1314.38
626.01	1307.22
626.35	1299.73
626.70	1291.96
627.04	1284.26
627.39	1276.53
627.73	1269.02
628.08	1262.15
628.43	1254.73
628.77	1247.36
629.12	1239.73
629.46	1232.52
629.81	1225.20
630.15	1217.97
630.50	1210.56
630.84	1202.30
631.19	1194.42
631.53	1186.90
631.88	1179.35
632.22	1171.67
632.57	1164.38
632.91	1156.92
633.26	1149.52
633.60	1142.24
633.95	1135.17
634.29	1128.18
634.64	1121.47
634.98	1114.15
635.32	1106.98
635.67	1100.48
636.01	1093.94
636.36	1087.24
636.70	1080.81
637.05	1074.21
637.39	1067.87
637.73	1061.34
638.08	1055.56
638.42	1049.62
638.77	1043.23
639.11	1036.62
639.45	1030.34
639.80	1023.65
640.14	1017.20
640.49	1010.72
640.83	1004.40
641.17	998.15
641.52	991.76
641.86	985.36
642.20	979.59
642.55	973.41
642.89	966.86
643.23	960.35
643.58	954.58
643.92	948.35
644.26	942.18
644.61	936.13
644.95	930.00
645.29	923.39
645.64	916.71
645.98	910.41
646.32	904.62
646.66	898.57
647.01	892.84
647.35	887.14
647.69	881.36
648.04	875.86
648.38	870.14
648.72	864.11
649.06	858.03
649.41	852.22
649.75	846.12
650.09	840.23
650.43	834.39
650.78	828.18
651.12	822.20
651.46	816.53
651.80	810.71
652.14	805.38
652.49	800.03
652.83	794.84
653.17	789.12
653.51	783.40
653.85	778.02
654.20	772.33
654.54	766.38
654.88	760.67
655.22	754.73
655.56	749.01
655.90	743.61
656.25	738.37
656.59	732.96
656.93	727.91
657.27	722.78
657.61	717.44
657.95	712.45
658.29	707.42
658.64	702.21
658.98	696.88
659.32	691.45
659.66	686.19
660.00	680.85
660.34	675.94
660.68	671.11
661.02	666.09
661.36	661.48
661.70	657.03
662.05	652.64
662.39	648.39
662.73	643.96
663.07	639.70
663.41	635.32
663.75	630.82
664.09	626.30
664.43	621.88
664.77	617.76
665.11	613.50
665.45	609.42
665.79	605.37
666.13	601.33
666.47	597.27
666.81	593.17
667.15	589.08
667.49	585.21
667.83	581.42
668.17	577.51
668.51	573.34
668.85	569.27
669.19	565.46
669.53	561.60
669.87	557.69
670.21	553.94
670.55	550.30
670.89	546.87
671.23	543.47
671.57	540.03
671.91	536.50
672.25	533.06
672.58	529.58
672.92	526.26
673.26	523.16
673.60	520.06
673.94	516.96
674.28	514.10
674.62	511.17
674.96	508.00
675.30	505.10
675.64	502.20
675.97	499.53
676.31	496.67
676.65	493.76
676.99	491.14
677.33	488.28
677.67	485.45
678.01	482.42
678.34	479.46
678.68	476.60
679.02	473.76
679.36	470.97
679.70	468.26
680.04	465.43
680.37	462.53
680.71	459.78
681.05	457.18
681.39	454.48
681.73	451.83
682.06	449.31
682.40	446.72
682.74	444.19
683.08	441.56
683.42	438.97
683.75	436.49
684.09	433.96
684.43	431.53
684.77	429.10
685.10	426.79
685.44	424.45
685.78	422.19
686.12	420.01
686.45	417.71
686.79	415.40
687.13	413.23
687.46	411.07
687.80	408.90
688.14	406.68
688.48	404.61
688.81	402.35
689.15	400.21
689.49	398.13
689.82	396.13
690.16	394.07
690.50	392.10
690.83	390.12
691.17	388.09
691.51	386.22
691.84	384.32
692.18	382.39
692.52	380.43
692.85	378.48
693.19	376.51
693.52	374.75
693.86	372.95
694.20	371.19
694.53	369.41
694.87	367.60
695.21	365.87
695.54	364.07
695.88	362.36
696.21	360.64
696.55	358.94
696.88	357.22
697.22	355.60
697.56	353.98
697.89	352.31
698.23	350.77
698.56	349.13
698.90	347.57
699.23	345.88
699.57	344.36
699.90	342.83
700.24	341.31
700.58	339.78
700.91	338.26
701.25	336.79
701.58	335.44
701.92	334.03
702.25	332.65
702.59	331.30
702.92	329.97
703.26	328.72
703.59	327.43
703.93	326.26
704.26	325.02
704.60	323.72
704.93	322.49
705.26	321.24
705.60	320.08
705.93	318.93
706.27	317.96
706.60	316.89
706.94	315.84
707.27	314.74
707.61	313.65
707.94	312.69
708.27	311.58
708.61	310.49
708.94	309.52
709.28	308.55
709.61	307.58
709.94	306.67
710.28	305.65
710.61	304.69
710.95	303.61
711.28	302.67
711.61	301.75
711.95	300.85
712.28	299.87
712.61	298.95
712.95	298.02
713.28	297.17
713.61	296.28
713.95	295.39
714.28	294.57
714.61	293.73
714.95	292.87
715.28	292.05
715.61	291.15
715.95	290.30
716.28	289.44
716.61	288.61
716.95	287.81
717.28	287.09
717.61	286.35
717.94	285.62
718.28	284.88
718.61	284.19
718.94	283.48
719.27	282.87
719.61	282.17
719.94	281.54
720.27	280.81
720.60	280.18
720.94	279.57
721.27	279.01
721.60	278.46
721.93	277.87
722.27	277.32
722.60	276.77
722.93	276.20
723.26	275.68
723.59	275.12
723.93	274.57
724.26	274.03
724.59	273.48
724.92	272.97
725.25	272.48
725.59	271.94
725.92	271.45
726.25	270.93
726.58	270.48
726.91	269.97
727.24	269.46
727.57	268.96
727.91	268.44
728.24	267.94
728.57	267.42
728.90	266.98
729.23	266.50
729.56	266.12
729.89	265.67
730.22	265.17
730.55	264.69
730.89	264.21
731.22	263.74
731.55	263.30
731.88	262.89
732.21	262.40
732.54	261.96
732.87	261.53
733.20	261.13
733.53	260.76
733.86	260.39
734.19	259.98
734.52	259.60
734.85	259.32
735.18	258.91
735.51	258.55
735.84	258.17
736.17	257.82
736.50	257.40
736.83	257.12
737.16	256.80
737.49	256.48
737.82	256.14
738.15	255.79
738.48	255.46
738.81	255.11
739.14	254.80
739.47	254.50
739.80	254.21
740.13	253.91
740.46	253.55
740.79	253.18
741.12	252.90
741.45	252.58
741.78	252.21
742.11	251.92
742.44	251.61
742.77	251.34
743.10	251.05
743.43	250.74
743.75	250.37
744.08	250.22
744.41	249.94
744.74	249.70
745.07	249.45
745.40	249.19
745.73	248.94
746.06	248.67
746.39	248.40
746.71	248.09
747.04	247.82
747.37	247.57
747.70	247.34
748.03	247.11
748.36	246.91
748.68	246.70
749.01	246.44
749.34	246.20
749.67	245.94
750.00	245.72
750.33	245.56
750.65	245.37
750.98	245.04
751.31	244.84
751.64	244.64
751.97	244.47
752.29	244.25
752.62	244.02
752.95	243.81
753.28	243.62
753.60	243.45
753.93	243.27
754.26	243.08
754.59	242.88
754.91	242.68
755.24	242.45
755.57	242.23
755.90	242.07
756.22	241.87
756.55	241.72
756.88	241.53
757.20	241.33
757.53	241.13
757.86	240.97
758.19	240.81
758.51	240.65
758.84	240.45
759.17	240.31
759.49	240.18
759.82	240.11
760.15	239.96
760.47	239.82
760.80	239.61
761.13	239.50
761.45	239.35
761.78	239.18
762.11	239.05
762.43	238.92
762.76	238.77
763.08	238.68
763.41	238.55
763.74	238.39
764.06	238.21
764.39	238.06
764.71	237.90
765.04	237.77
765.37	237.61
765.69	237.49
766.02	237.34
766.34	237.16
766.67	236.97
767.00	236.86
767.32	236.76
767.65	236.74
767.97	236.61
768.30	236.52
768.62	236.42
768.95	236.31
769.27	236.20
769.60	236.10
769.92	235.96
770.25	235.82
770.57	235.72
770.90	235.62
771.22	235.52
771.55	235.42
771.87	235.30
772.20	235.21
772.52	235.20
772.85	235.21
773.17	235.11
773.50	235.01
773.82	234.87
774.15	234.73
774.47	234.56
774.80	234.43
775.12	234.31
775.45	234.22
775.77	234.11
776.09	234.02
776.42	233.91
776.74	233.87
777.07	233.78
777.39	233.71
777.72	233.62
778.04	233.58
778.36	233.48
778.69	233.41
779.01	233.32
779.33	233.14
779.66	232.93
779.98	232.86
780.31	232.79
780.63	232.75
780.95	232.69
781.28	232.63
781.60	232.59
781.92	232.53
782.25	232.48
782.57	232.44
782.89	232.36
783.22	232.31
783.54	232.22
783.86	232.17
784.19	232.09
784.51	232.07
784.83	231.99
785.16	231.96
785.48	231.92
785.80	231.88
786.12	231.82
786.45	231.80
786.77	231.78
787.09	231.73
787.42	231.67
787.74	231.63
788.06	231.60
788.38	231.55
788.71	231.52
789.03	231.46
789.35	231.45
789.67	231.42
789.99	231.39
790.32	231.34
790.64	231.32
790.96	231.34
791.28	231.30
791.61	231.28
791.93	231.28
792.25	231.22
792.57	231.24
792.89	231.21
793.21	231.18
793.54	231.12
793.86	231.08
794.18	231.07
794.50	231.04
794.82	231.03
795.14	230.99
795.47	230.95
795.79	230.92
796.11	230.83
796.43	230.79
796.75	230.78
797.07	230.76
797.39	230.74
797.71	230.67
798.04	230.62
798.36	230.58
798.68	230.57
799.00	230.59
799.32	230.53
799.64	230.53
799.96	230.51
800.28	230.49
800.60	230.49
800.92	230.43
801.24	230.42
801.56	230.37
801.89	230.34
802.21	230.34
802.53	230.29
802.85	230.31
803.17	230.35
803.49	230.28
803.81	230.23
804.13	230.19
804.45	230.13
804.77	230.15
805.09	230.11
805.41	230.03
805.73	229.97
806.05	229.90
806.37	229.85
806.69	229.82
807.01	229.80
807.33	229.78
807.65	229.73
807.97	229.74
808.28	229.70
808.60	229.67
808.92	229.63
809.24	229.65
809.56	229.61
809.88	229.53
810.20	229.51
810.52	229.54
810.84	229.49
811.16	229.47
811.48	229.42
811.80	229.46
812.12	229.41
812.43	229.39
812.75	229.37
813.07	229.34
813.39	229.32
813.71	229.27
814.03	229.20
814.35	229.20
814.67	229.14
814.98	229.11
815.30	229.08
815.62	229.03
815.94	228.95
816.26	228.95
816.58	228.88
816.89	228.89
817.21	228.81
817.53	228.80
817.85	228.78
818.17	228.74
818.48	228.68
818.80	228.69
819.12	228.65
819.44	228.63
819.76	228.59
820.07	228.54
820.39	228.53
820.71	228.54
821.03	228.50
821.34	228.48
821.66	228.49
821.98	228.46
822.30	228.46
822.61	228.53
822.93	228.47
823.25	228.46
823.57	228.40
823.88	228.42
824.20	228.41
824.52	228.40
824.83	228.36
825.15	228.32
825.47	228.29
825.79	228.28
826.10	228.26
826.42	228.28
826.74	228.31
827.05	228.30
827.37	228.31
827.69	228.31
828.00	228.29
828.32	228.26
828.64	228.27
828.95	228.30
829.27	228.25
829.58	228.23
829.90	228.28
830.22	228.31
830.53	228.28
830.85	228.26
831.17	228.24
831.48	228.28
831.80	228.26
832.11	228.25
832.43	228.25
832.75	228.25
833.06	228.31
833.38	228.26
833.69	228.24
834.01	228.24
834.32	228.24
834.64	228.22
834.96	228.21
835.27	228.21
835.59	228.18
835.90	228.17
836.22	228.19
836.53	228.17
836.85	228.15
837.16	228.24
837.48	228.23
837.79	228.27
838.11	228.26
838.42	228.25
838.74	228.30
839.05	228.31
839.37	228.29
839.68	228.20
840.00	228.23
840.31	228.23
840.63	228.22
840.94	228.21
841.26	228.18
841.57	228.20
841.88	228.19
842.20	228.17
842.51	228.16
842.83	228.14
843.14	228.19
843.46	228.18
843.77	228.11
844.08	228.10
844.40	228.06
844.71	228.06
845.03	228.06
845.34	228.05
845.65	228.03
845.97	228.04
846.28	228.03
846.60	228.02
846.91	228.02
847.22	228.01
847.54	228.03
847.85	228.07
848.16	228.03
848.48	228.01
848.79	228.02
849.10	228.03
849.42	228.03
849.73	227.98
850.04	227.95
850.36	227.92
850.67	227.93
850.98	227.91
851.30	227.88
851.61	227.88
851.92	227.84
852.23	227.86
852.55	227.84
852.86	227.85
853.17	227.85
853.49	227.82
853.80	227.84
854.11	227.79
854.42	227.81
854.74	227.82
855.05	227.83
855.36	227.78
855.67	227.73
855.99	227.71
856.30	227.76
856.61	227.74
856.92	227.72
857.23	227.71
857.55	227.70
857.86	227.70
858.17	227.73
858.48	227.71
858.79	227.69
859.11	227.67
859.42	227.65
859.73	227.62
860.04	227.62
860.35	227.58
860.66	227.54
860.98	227.52
861.29	227.50
861.60	227.45
861.91	227.48
862.22	227.46
862.53	227.46
862.84	227.35
863.16	227.37
863.47	227.33
863.78	227.34
864.09	227.34
864.40	227.34
864.71	227.31
865.02	227.30
865.33	227.28
865.64	227.28
865.95	227.28
866.27	227.30
866.58	227.31
866.89	227.31
867.20	227.32
867.51	227.28
867.82	227.27
868.13	227.33
868.44	227.30
868.75	227.33
869.06	227.32
869.37	227.33
869.68	227.33
869.99	227.42
870.30	227.44
870.61	227.44
870.92	227.41
871.23	227.42
871.54	227.44
871.85	227.46
872.16	227.44
872.47	227.43
872.78	227.40
873.09	227.42
873.40	227.42
873.71	227.46
874.02	227.50
874.33	227.50
874.64	227.47
874.95	227.49
875.26	227.48
875.56	227.47
875.87	227.52
876.18	227.50
876.49	227.57
876.80	227.54
877.11	227.56
877.42	227.62
877.73	227.61
878.04	227.61
878.35	227.62
878.66	227.65
878.96	227.65
879.27	227.67
879.58	227.68
879.89	227.68
880.20	227.67
880.51	227.68
880.82	227.65
881.12	227.63
881.43	227.65
881.74	227.65
882.05	227.66
882.36	227.62
882.67	227.65
882.97	227.51
883.28	227.49
883.59	227.46
883.90	227.44
884.21	227.45
884.51	227.42
884.82	227.38
885.13	227.39
885.44	227.35
885.74	227.32
886.05	227.28
886.36	227.28
886.67	227.28
886.98	227.29
887.28	227.32
887.59	227.32
887.90	227.27
888.20	227.25
888.51	227.26
888.82	227.24
889.13	227.23
889.43	227.33
889.74	227.31
890.05	227.31
890.35	227.29
890.66	227.28
890.97	227.30
891.28	227.29
891.58	227.28
891.89	227.27
892.20	227.26
892.50	227.24
892.81	227.22
893.12	227.21
893.42	227.16
893.73	227.15
894.04	227.16
894.34	227.20
894.65	227.20
894.95	227.19
895.26	227.19
895.57	227.18
895.87	227.08
896.18	227.13
896.48	227.16
896.79	227.18
897.10	227.15
897.40	227.14
897.71	227.15
898.01	227.13
898.32	227.18
898.63	227.18
898.93	227.19
899.24	227.21
899.54	227.18
899.85	227.20
900.15	227.21
900.46	227.20
900.76	227.19
901.07	227.18
901.38	227.16
901.68	227.18
901.99	227.15
902.29	227.18
902.60	227.14
902.90	227.11
903.21	227.07
903.51	227.12
903.82	227.17
904.12	227.16
904.43	227.18
904.73	227.18
905.03	227.18
905.34	227.27
905.64	227.25
905.95	227.28
906.25	227.27
906.56	227.26
906.86	227.27
907.17	227.24
907.47	227.27
907.77	227.27
908.08	227.23
908.38	227.29
908.69	227.28
908.99	227.29
909.30	227.31
909.60	227.32
909.90	227.30
910.21	227.25
910.51	227.26
910.81	227.28
911.12	227.29
911.42	227.30
911.73	227.21
912.03	227.22
912.33	227.25
912.64	227.24
912.94	227.24
913.24	227.24
913.55	227.23
913.85	227.22
914.15	227.26
914.46	227.28
914.76	227.29
915.06	227.28
915.37	227.27
915.67	227.28
915.97	227.28
916.27	227.26
916.58	227.30
916.88	227.28
917.18	227.28
917.49	227.35
917.79	227.32
918.09	227.37
918.39	227.42
918.70	227.43
919.00	227.43
919.30	227.48
919.60	227.49
919.91	227.48
920.21	227.47
920.51	227.45
920.81	227.47
921.12	227.44
921.42	227.47
921.72	227.47
922.02	227.47
922.32	227.49
922.63	227.50
922.93	227.52
923.23	227.52
923.53	227.49
923.83	227.40
924.13	227.41
924.44	227.39
924.74	227.39
925.04	227.39
925.34	227.39
925.64	227.34
925.94	227.33
926.24	227.40
926.55	227.41
926.85	227.42
927.15	227.40
927.45	227.41
927.75	227.38
928.05	227.38
928.35	227.36
928.65	227.34
928.95	227.34
929.26	227.26
929.56	227.27
929.86	227.27
930.16	227.28
930.46	227.31
930.76	227.30
931.06	227.22
931.36	227.17
931.66	227.18
931.96	227.18
932.26	227.22
932.56	227.16
932.86	227.17
933.16	227.17
933.46	227.13
933.76	227.12
934.06	227.16
934.36	227.18
934.66	227.19
934.96	227.17
935.26	227.18
935.56	227.20
935.86	227.20
936.16	227.19
936.46	227.17
936.76	227.14
937.06	227.11
937.36	227.13
937.66	227.15
937.96	227.13
938.26	227.09
938.56	227.06
938.86	227.05
939.16	227.08
939.46	227.10
939.76	227.09
940.06	227.06
940.35	227.01
940.65	226.95
940.95	226.93
941.25	226.94
941.55	226.93
941.85	226.93
942.15	226.94
942.45	226.97
942.75	226.97
943.04	226.97
943.34	226.97
943.64	226.95
943.94	226.93
944.24	226.92
944.54	226.93
944.84	226.90
945.13	226.91
945.43	226.89
945.73	226.87
946.03	226.90
946.33	226.93
946.62	226.94
946.92	226.94
947.22	226.95
947.52	226.96
947.82	226.99
948.11	227.02
948.41	227.03
948.71	226.98
949.01	227.00
949.31	226.98
949.60	226.97
949.90	227.02
950.20	227.01
950.50	227.05
950.79	227.05
951.09	227.09
951.39	227.09
951.69	227.08
951.98	227.10
952.28	227.11
952.58	227.09
952.87	227.08
953.17	227.11
953.47	227.10
953.76	227.08
954.06	227.05
954.36	226.99
954.66	226.98
954.95	227.03
955.25	227.03
955.55	227.05
955.84	227.04
956.14	227.07
956.44	227.08
956.73	227.07
957.03	227.09
957.32	227.08
957.62	227.06
957.92	227.08
958.21	227.05
958.51	227.14
958.81	227.19
959.10	227.21
959.40	227.23
959.69	227.22
959.99	227.24
960.29	227.23
960.58	227.26
960.88	227.27
961.17	227.24
961.47	227.25
961.76	227.22
962.06	227.24
962.36	227.19
962.65	227.19
962.95	227.18
963.24	227.15
963.54	227.12
963.83	227.12
964.13	227.09
964.42	227.06
964.72	226.99
965.01	226.94
965.31	226.91
965.60	226.89
965.90	226.97
966.19	226.93
966.49	226.95
966.78	226.91
967.08	226.93
967.37	226.92
967.67	226.89
967.96	226.90
968.26	226.95
968.55	226.93
968.85	226.94
969.14	226.94
969.43	226.97
969.73	226.96
970.02	226.98
970.32	226.94
970.61	226.97
970.91	226.93
971.20	226.93
971.49	226.91
971.79	226.91
972.08	226.83
972.38	226.84
972.67	226.82
972.96	226.82
973.26	226.80
973.55	226.83
973.85	226.81
974.14	226.83
974.43	226.81
974.73	226.79
975.02	226.79
975.31	226.81
975.61	226.79
975.90	226.78
976.19	226.77
976.49	226.79
976.78	226.78
977.07	226.78
977.37	226.79
977.66	226.84
977.95	226.81
978.24	226.81
978.54	226.86
978.83	226.88
979.12	226.88
979.42	226.86
979.71	226.84
980.00	226.88
980.29	226.88
980.59	226.84
980.88	226.89
981.17	226.87
981.46	226.86
981.76	226.85
982.05	226.89
982.34	226.91
982.63	226.94
982.93	226.98
983.22	227.03
983.51	227.04
983.80	227.05
984.09	227.09
984.39	227.08
984.68	227.08
984.97	227.04
985.26	227.04
985.55	227.05
985.85	227.05
986.14	227.08
986.43	227.04
986.72	227.04
987.01	227.00
987.30	227.01
987.59	227.00
987.89	227.02
988.18	226.99
988.47	226.97
988.76	226.98
989.05	226.95
989.34	226.90
989.63	226.96
989.92	226.93
990.22	226.93
990.51	226.96
990.80	226.94
991.09	226.98
991.38	226.99
991.67	227.02
991.96	227.01
992.25	227.00
992.54	227.02
992.83	227.04
993.12	227.05
993.41	227.07
993.70	227.11
993.99	227.14
994.28	227.18
994.58	227.20
994.87	227.22
995.16	227.22
995.45	227.26
995.74	227.19
996.03	227.22
996.32	227.22
996.61	227.22
996.90	227.24
997.19	227.22
997.48	227.22
997.77	227.21
998.06	227.25
998.34	227.25
998.63	227.24
998.92	227.24
999.21	227.25
999.50	227.22
999.79	227.19
1000.08	227.16
1000.37	227.15
1000.66	227.11
1000.95	227.09
1001.24	227.08
1001.53	227.05
1001.82	227.05
1002.11	227.03
1002.40	227.05
1002.68	227.06
1002.97	227.14
1003.26	227.11
1003.55	227.11
1003.84	227.09
1004.13	227.09
1004.42	227.07
1004.71	227.10
1004.99	227.10
1005.28	227.09
1005.57	227.08
1005.86	227.06
1006.15	227.05
1006.44	227.01
1006.72	227.01
1007.01	227.03
1007.30	227.05
1007.59	227.07
1007.88	227.07
1008.17	227.07
1008.45	227.04
1008.74	227.01
1009.03	226.95
1009.32	226.95
1009.60	226.96
1009.89	226.96
1010.18	226.89
1010.47	226.90
1010.76	226.87
1011.04	226.86
1011.33	226.85
1011.62	226.88
1011.91	226.89
1012.19	226.90
1012.48	226.91
1012.77	226.92
1013.05	226.93
1013.34	226.90
1013.63	226.89
1013.92	226.90
1014.20	226.88
1014.49	226.90
1014.78	226.90
1015.06	226.90
1015.35	226.93
1015.64	226.91
1015.92	226.96
1016.21	226.98
1016.50	227.00
1016.78	227.01
1017.07	227.02
1017.36	227.01
1017.64	226.99
1017.93	227.00
1018.22	227.01
1018.50	227.02
1018.79	227.01
1019.08	226.99
1019.36	227.05
1019.65	227.06
1019.93	227.10
1020.22	227.13
1020.51	227.14
1020.79	227.12
1021.08	227.10
1021.36	226.71
1021.65	226.98
1021.94	227.13
1022.22	227.73
1022.51	227.19
1022.79	227.83
1023.08	227.36
1023.36	227.81
1023.65	226.66
>>>>>End Processed Spectral Data<<<<<
