SpectraSuite Data File
++++++++++++++++++++++++++++++++++++
Date: Fri Feb 01 17:52:24 EST 2013
User: group
Dark Spectrum Present: No
Reference Spectrum Present: No
Number of Sampled Component Spectra: 1
Spectrometers: USB2E7196
Integration Time (usec): 35000 (USB2E7196)
Spectra Averaged: 100 (USB2E7196)
Boxcar Smoothing: 10 (USB2E7196)
Correct for Electrical Dark: No (USB2E7196)
Strobe/Lamp Enabled: No (USB2E7196)
Correct for Detector Non-linearity: No (USB2E7196)
Correct for Stray Light: No (USB2E7196)
Number of Pixels in Processed Spectrum: 2048
>>>>>Begin Processed Spectral Data<<<<<
339.09	0.00
339.48	212.50
339.86	214.00
340.24	215.80
340.63	217.29
341.01	219.81
341.39	220.05
341.78	220.95
342.16	222.68
342.54	223.12
342.93	211.41
343.31	222.08
343.69	222.67
344.07	223.17
344.46	223.59
344.84	223.97
345.22	224.22
345.60	224.46
345.99	224.65
346.37	224.77
346.75	224.85
347.13	224.91
347.52	224.98
347.90	225.05
348.28	225.09
348.66	225.12
349.05	225.11
349.43	225.12
349.81	225.15
350.19	225.20
350.57	225.26
350.96	225.29
351.34	225.37
351.72	225.46
352.10	225.51
352.48	225.57
352.87	225.61
353.25	225.64
353.63	225.71
354.01	225.75
354.39	225.84
354.77	225.90
355.15	225.98
355.54	226.05
355.92	226.08
356.30	226.14
356.68	226.25
357.06	226.27
357.44	226.31
357.82	226.35
358.20	226.39
358.58	226.45
358.97	226.50
359.35	226.55
359.73	226.58
360.11	226.62
360.49	226.71
360.87	226.77
361.25	226.83
361.63	226.89
362.01	226.94
362.39	226.93
362.77	226.99
363.15	226.98
363.53	226.97
363.91	227.00
364.29	227.05
364.67	226.99
365.05	227.03
365.43	227.06
365.81	227.09
366.19	227.16
366.57	227.22
366.95	227.22
367.33	227.25
367.71	227.23
368.09	227.26
368.47	227.22
368.85	227.21
369.23	227.23
369.61	227.14
369.99	227.16
370.37	227.14
370.75	227.14
371.13	227.13
371.51	227.09
371.89	227.07
372.27	226.98
372.65	226.93
373.03	226.89
373.41	226.86
373.78	226.84
374.16	226.71
374.54	226.62
374.92	226.57
375.30	226.51
375.68	226.46
376.06	226.40
376.44	226.30
376.82	226.25
377.19	226.17
377.57	226.16
377.95	226.09
378.33	226.05
378.71	225.96
379.09	225.89
379.47	225.85
379.84	225.78
380.22	225.75
380.60	225.69
380.98	225.65
381.36	225.58
381.73	225.47
382.11	225.48
382.49	225.45
382.87	225.38
383.25	225.34
383.62	225.38
384.00	225.32
384.38	225.32
384.76	225.28
385.13	225.30
385.51	225.25
385.89	225.21
386.27	225.19
386.64	225.18
387.02	225.14
387.40	225.11
387.78	225.08
388.15	225.04
388.53	225.03
388.91	224.98
389.29	224.95
389.66	224.96
390.04	224.88
390.42	224.85
390.79	224.86
391.17	224.81
391.55	224.69
391.92	224.70
392.30	224.69
392.68	224.69
393.05	224.66
393.43	224.65
393.81	224.64
394.18	224.60
394.56	224.59
394.94	224.61
395.31	224.60
395.69	224.63
396.06	224.65
396.44	224.67
396.82	224.68
397.19	224.77
397.57	224.78
397.95	224.85
398.32	224.87
398.70	224.88
399.07	224.96
399.45	225.03
399.82	225.11
400.20	225.15
400.58	225.19
400.95	225.23
401.33	225.34
401.70	225.50
402.08	225.59
402.45	225.69
402.83	225.83
403.20	225.96
403.58	226.05
403.95	226.19
404.33	226.34
404.71	226.49
405.08	226.64
405.46	226.79
405.83	226.92
406.21	227.10
406.58	227.31
406.96	227.49
407.33	227.69
407.70	227.90
408.08	228.22
408.45	228.48
408.83	228.75
409.20	229.01
409.58	229.21
409.95	229.56
410.33	229.93
410.70	230.27
411.08	230.61
411.45	231.00
411.82	231.42
412.20	231.85
412.57	232.37
412.95	232.78
413.32	233.34
413.69	233.90
414.07	234.44
414.44	235.03
414.82	235.67
415.19	236.38
415.56	237.10
415.94	237.85
416.31	238.71
416.68	239.52
417.06	240.42
417.43	241.33
417.81	242.29
418.18	243.30
418.55	244.37
418.93	245.53
419.30	246.71
419.67	247.93
420.04	249.20
420.42	250.52
420.79	252.08
421.16	253.56
421.54	255.08
421.91	256.75
422.28	258.47
422.66	260.20
423.03	261.91
423.40	263.65
423.77	265.50
424.15	267.38
424.52	269.35
424.89	271.49
425.26	273.58
425.64	275.52
426.01	277.64
426.38	279.85
426.75	282.09
427.13	284.39
427.50	286.79
427.87	289.29
428.24	291.75
428.61	294.06
428.99	296.64
429.36	299.48
429.73	302.19
430.10	304.82
430.47	307.57
430.85	310.39
431.22	313.38
431.59	316.50
431.96	319.43
432.33	322.73
432.70	325.88
433.08	329.58
433.45	333.06
433.82	336.48
434.19	340.31
434.56	344.00
434.93	347.49
435.30	350.93
435.68	354.75
436.05	358.52
436.42	362.24
436.79	365.59
437.16	369.18
437.53	372.91
437.90	376.62
438.27	380.23
438.64	383.93
439.01	387.37
439.38	390.37
439.75	393.18
440.13	396.44
440.50	399.53
440.87	401.96
441.24	404.56
441.61	407.41
441.98	409.35
442.35	411.71
442.72	414.18
443.09	416.60
443.46	417.87
443.83	418.66
444.20	419.30
444.57	420.40
444.94	420.77
445.31	421.24
445.68	421.72
446.05	421.89
446.42	421.40
446.79	420.81
447.16	420.22
447.53	419.90
447.90	418.44
448.27	416.91
448.64	414.78
449.01	413.26
449.37	410.63
449.74	408.14
450.11	405.15
450.48	401.86
450.85	398.51
451.22	395.73
451.59	393.07
451.96	390.55
452.33	387.10
452.70	383.96
453.07	380.27
453.43	376.42
453.80	372.74
454.17	369.20
454.54	365.88
454.91	362.29
455.28	358.73
455.65	355.44
456.02	352.12
456.38	349.35
456.75	345.85
457.12	342.89
457.49	339.96
457.86	337.14
458.23	334.71
458.59	332.01
458.96	329.23
459.33	326.71
459.70	324.20
460.07	322.19
460.43	319.93
460.80	317.70
461.17	315.78
461.54	313.72
461.91	311.82
462.27	309.84
462.64	308.17
463.01	306.34
463.38	304.58
463.74	302.82
464.11	301.25
464.48	299.86
464.85	298.40
465.21	297.21
465.58	295.98
465.95	294.52
466.32	293.30
466.68	292.09
467.05	290.93
467.42	289.74
467.78	288.52
468.15	287.31
468.52	286.43
468.88	285.28
469.25	284.28
469.62	283.42
469.98	282.54
470.35	281.67
470.72	280.86
471.08	279.99
471.45	279.28
471.82	278.56
472.18	277.74
472.55	277.13
472.92	276.44
473.28	275.77
473.65	275.10
474.02	274.51
474.38	274.01
474.75	273.49
475.11	273.03
475.48	272.63
475.85	272.29
476.21	271.96
476.58	271.67
476.94	271.43
477.31	271.20
477.67	270.93
478.04	270.73
478.41	270.62
478.77	270.56
479.14	270.39
479.50	270.32
479.87	270.32
480.23	270.33
480.60	270.30
480.96	270.31
481.33	270.51
481.69	270.67
482.06	270.78
482.42	270.96
482.79	271.15
483.15	271.44
483.52	271.80
483.88	272.08
484.25	272.43
484.61	272.82
484.98	273.21
485.34	273.78
485.71	274.36
486.07	274.96
486.44	275.54
486.80	276.23
487.17	276.93
487.53	277.80
487.90	278.65
488.26	279.62
488.62	280.68
488.99	281.65
489.35	282.72
489.72	283.89
490.08	285.11
490.44	286.37
490.81	287.75
491.17	289.15
491.54	290.71
491.90	292.34
492.26	294.08
492.63	295.88
492.99	297.71
493.36	299.64
493.72	301.76
494.08	303.96
494.45	306.33
494.81	308.79
495.17	311.33
495.54	314.00
495.90	316.82
496.26	319.71
496.63	322.82
496.99	326.05
497.35	329.50
497.72	333.08
498.08	336.78
498.44	340.66
498.80	344.78
499.17	349.03
499.53	353.37
499.89	357.95
500.26	362.71
500.62	367.60
500.98	372.89
501.34	378.24
501.71	383.90
502.07	389.69
502.43	395.64
502.79	401.76
503.16	408.16
503.52	414.80
503.88	421.54
504.24	428.49
504.60	435.77
504.97	443.25
505.33	450.99
505.69	459.16
506.05	467.34
506.41	475.67
506.78	484.34
507.14	493.29
507.50	502.54
507.86	512.15
508.22	521.90
508.59	531.67
508.95	541.82
509.31	552.19
509.67	562.83
510.03	573.76
510.39	584.93
510.75	596.46
511.12	608.13
511.48	620.20
511.84	632.42
512.20	644.72
512.56	657.48
512.92	670.47
513.28	683.73
513.64	697.05
514.00	710.69
514.37	724.48
514.73	738.46
515.09	752.42
515.45	766.62
515.81	781.21
516.17	796.22
516.53	811.32
516.89	826.58
517.25	841.82
517.61	857.31
517.97	872.97
518.33	888.49
518.69	904.42
519.05	920.61
519.41	937.01
519.77	953.77
520.13	970.50
520.49	987.18
520.85	1003.74
521.21	1020.74
521.57	1038.28
521.93	1055.38
522.29	1073.11
522.65	1090.82
523.01	1108.40
523.37	1125.88
523.73	1143.43
524.09	1161.08
524.45	1178.83
524.81	1197.02
525.17	1215.30
525.53	1233.71
525.89	1252.26
526.25	1270.74
526.61	1288.82
526.97	1307.14
527.33	1325.37
527.68	1343.59
528.04	1361.69
528.40	1379.88
528.76	1398.70
529.12	1417.01
529.48	1435.68
529.84	1453.49
530.20	1471.84
530.56	1490.60
530.91	1509.86
531.27	1528.49
531.63	1546.78
531.99	1565.17
532.35	1583.07
532.71	1600.91
533.07	1619.04
533.42	1636.74
533.78	1654.73
534.14	1672.69
534.50	1690.02
534.86	1707.60
535.21	1724.69
535.57	1742.56
535.93	1760.08
536.29	1776.81
536.65	1793.79
537.00	1810.44
537.36	1827.79
537.72	1844.15
538.08	1860.72
538.44	1876.46
538.79	1892.24
539.15	1907.69
539.51	1923.38
539.87	1939.77
540.22	1955.42
540.58	1971.15
540.94	1986.46
541.29	2001.11
541.65	2015.94
542.01	2031.23
542.37	2045.79
542.72	2060.24
543.08	2074.17
543.44	2088.58
543.79	2101.94
544.15	2115.03
544.51	2128.83
544.87	2141.69
545.22	2154.62
545.58	2166.86
545.94	2178.61
546.29	2190.58
546.65	2202.70
547.01	2214.17
547.36	2224.69
547.72	2235.20
548.07	2245.07
548.43	2255.17
548.79	2265.01
549.14	2274.52
549.50	2283.53
549.86	2292.92
550.21	2302.08
550.57	2311.18
550.92	2319.68
551.28	2328.47
551.64	2337.29
551.99	2345.43
552.35	2353.35
552.70	2361.31
553.06	2369.14
553.41	2377.32
553.77	2384.99
554.13	2392.63
554.48	2400.31
554.84	2407.78
555.19	2414.51
555.55	2421.36
555.90	2427.41
556.26	2434.21
556.61	2440.43
556.97	2446.54
557.32	2452.34
557.68	2458.08
558.03	2463.63
558.39	2468.71
558.74	2474.89
559.10	2480.36
559.45	2485.49
559.81	2491.29
560.16	2496.52
560.52	2500.95
560.87	2505.60
561.23	2509.44
561.58	2513.50
561.94	2517.35
562.29	2520.66
562.64	2524.97
563.00	2528.61
563.35	2533.36
563.71	2537.66
564.06	2542.07
564.42	2546.10
564.77	2549.92
565.12	2553.46
565.48	2556.67
565.83	2559.76
566.19	2562.19
566.54	2563.79
566.89	2566.00
567.25	2567.64
567.60	2569.86
567.96	2572.57
568.31	2574.41
568.66	2576.63
569.02	2578.22
569.37	2579.43
569.72	2581.23
570.08	2582.12
570.43	2582.99
570.78	2583.34
571.14	2582.47
571.49	2581.60
571.84	2581.92
572.20	2581.34
572.55	2580.55
572.90	2579.32
573.26	2578.41
573.61	2576.89
573.96	2575.77
574.31	2573.05
574.67	2570.41
575.02	2566.94
575.37	2563.69
575.72	2560.12
576.08	2556.80
576.43	2553.40
576.78	2549.91
577.13	2546.71
577.49	2543.44
577.84	2540.08
578.19	2536.22
578.54	2532.60
578.90	2528.54
579.25	2522.63
579.60	2517.36
579.95	2512.39
580.30	2507.12
580.66	2501.63
581.01	2496.46
581.36	2491.25
581.71	2487.09
582.06	2482.41
582.42	2477.74
582.77	2472.28
583.12	2467.35
583.47	2462.61
583.82	2457.56
584.17	2451.96
584.53	2446.03
584.88	2440.07
585.23	2433.92
585.58	2427.83
585.93	2421.73
586.28	2416.27
586.63	2410.92
586.98	2405.36
587.34	2400.10
587.69	2394.70
588.04	2389.15
588.39	2382.96
588.74	2375.70
589.09	2368.78
589.44	2361.27
589.79	2354.33
590.14	2347.92
590.49	2340.64
590.84	2333.41
591.19	2326.77
591.54	2319.35
591.89	2311.32
592.25	2303.90
592.60	2295.78
592.95	2287.47
593.30	2279.33
593.65	2270.94
594.00	2262.89
594.35	2254.78
594.70	2245.63
595.05	2237.80
595.40	2229.51
595.75	2221.15
596.10	2214.41
596.45	2206.82
596.80	2199.83
597.15	2192.68
597.50	2185.02
597.85	2177.57
598.19	2169.91
598.54	2161.97
598.89	2154.56
599.24	2147.72
599.59	2140.26
599.94	2132.95
600.29	2125.68
600.64	2118.07
600.99	2109.64
601.34	2101.87
601.69	2093.71
602.04	2086.09
602.39	2077.65
602.74	2069.70
603.08	2062.03
603.43	2054.06
603.78	2045.63
604.13	2037.43
604.48	2029.14
604.83	2021.17
605.18	2013.56
605.53	2004.47
605.87	1995.21
606.22	1986.73
606.57	1977.75
606.92	1968.95
607.27	1960.80
607.62	1952.83
607.96	1944.65
608.31	1937.14
608.66	1928.39
609.01	1919.90
609.36	1911.19
609.70	1901.94
610.05	1892.68
610.40	1883.73
610.75	1874.33
611.10	1865.61
611.44	1855.76
611.79	1846.33
612.14	1836.18
612.49	1825.33
612.83	1815.63
613.18	1806.01
613.53	1796.63
613.88	1786.73
614.22	1777.13
614.57	1767.08
614.92	1757.82
615.27	1749.08
615.61	1739.41
615.96	1730.03
616.31	1721.10
616.65	1712.45
617.00	1703.62
617.35	1694.74
617.70	1685.19
618.04	1675.30
618.39	1665.60
618.74	1656.73
619.08	1647.16
619.43	1638.37
619.78	1630.21
620.12	1621.97
620.47	1613.34
620.82	1603.84
621.16	1594.98
621.51	1586.09
621.85	1577.26
622.20	1567.31
622.55	1557.38
622.89	1548.23
623.24	1539.29
623.59	1530.47
623.93	1521.73
624.28	1513.27
624.62	1504.42
624.97	1495.84
625.32	1487.74
625.66	1479.55
626.01	1471.25
626.35	1462.72
626.70	1453.53
627.04	1444.66
627.39	1435.58
627.73	1426.90
628.08	1418.96
628.43	1410.67
628.77	1402.24
629.12	1393.43
629.46	1385.20
629.81	1376.51
630.15	1368.05
630.50	1359.56
630.84	1350.26
631.19	1340.97
631.53	1332.08
631.88	1323.40
632.22	1314.69
632.57	1306.15
632.91	1297.35
633.26	1288.74
633.60	1280.01
633.95	1271.76
634.29	1263.41
634.64	1255.49
634.98	1247.00
635.32	1238.62
635.67	1230.83
636.01	1223.10
636.36	1215.39
636.70	1207.61
637.05	1200.07
637.39	1192.52
637.73	1184.99
638.08	1178.07
638.42	1171.18
638.77	1163.77
639.11	1156.23
639.45	1148.72
639.80	1141.10
640.14	1133.75
640.49	1126.21
640.83	1119.02
641.17	1112.05
641.52	1104.89
641.86	1097.43
642.20	1090.69
642.55	1083.26
642.89	1075.90
643.23	1068.22
643.58	1061.47
643.92	1054.44
644.26	1047.50
644.61	1040.53
644.95	1033.62
645.29	1026.13
645.64	1018.32
645.98	1011.05
646.32	1004.15
646.66	997.29
647.01	990.68
647.35	984.10
647.69	977.29
648.04	970.78
648.38	964.02
648.72	957.22
649.06	950.35
649.41	943.58
649.75	936.82
650.09	929.97
650.43	923.42
650.78	916.29
651.12	909.49
651.46	902.94
651.80	896.50
652.14	890.29
652.49	884.15
652.83	878.18
653.17	871.82
653.51	865.38
653.85	859.15
654.20	852.72
654.54	845.79
654.88	839.15
655.22	832.37
655.56	825.79
655.90	819.43
656.25	813.46
656.59	807.33
656.93	801.55
657.27	795.66
657.61	789.47
657.95	783.70
658.29	777.89
658.64	771.81
658.98	765.58
659.32	759.32
659.66	753.30
660.00	747.28
660.34	741.58
660.68	735.94
661.02	730.24
661.36	724.82
661.70	719.81
662.05	714.95
662.39	710.22
662.73	705.13
663.07	700.06
663.41	694.98
663.75	689.82
664.09	684.60
664.43	679.64
664.77	674.87
665.11	670.02
665.45	665.18
665.79	660.55
666.13	655.88
666.47	651.20
666.81	646.50
667.15	641.78
667.49	637.25
667.83	632.80
668.17	628.38
668.51	623.73
668.85	619.03
669.19	614.58
669.53	610.12
669.87	605.76
670.21	601.56
670.55	597.36
670.89	593.48
671.23	589.59
671.57	585.50
671.91	581.50
672.25	577.44
672.58	573.49
672.92	569.58
673.26	565.98
673.60	562.38
673.94	558.83
674.28	555.51
674.62	552.14
674.96	548.68
675.30	545.27
675.64	541.98
675.97	538.79
676.31	535.53
676.65	532.18
676.99	529.08
677.33	525.85
677.67	522.65
678.01	519.21
678.34	515.78
678.68	512.48
679.02	509.33
679.36	506.18
679.70	503.06
680.04	499.96
680.37	496.73
680.71	493.55
681.05	490.53
681.39	487.44
681.73	484.42
682.06	481.55
682.40	478.70
682.74	475.73
683.08	472.82
683.42	469.83
683.75	466.95
684.09	463.95
684.43	461.10
684.77	458.29
685.10	455.55
685.44	452.90
685.78	450.29
686.12	447.67
686.45	445.05
686.79	442.43
687.13	439.94
687.46	437.41
687.80	434.90
688.14	432.33
688.48	429.96
688.81	427.40
689.15	424.87
689.49	422.37
689.82	419.99
690.16	417.62
690.50	415.40
690.83	413.23
691.17	410.94
691.51	408.74
691.84	406.61
692.18	404.42
692.52	402.27
692.85	399.99
693.19	397.81
693.52	395.65
693.86	393.56
694.20	391.44
694.53	389.37
694.87	387.22
695.21	385.19
695.54	383.08
695.88	381.10
696.21	379.12
696.55	377.20
696.88	375.23
697.22	373.29
697.56	371.38
697.89	369.45
698.23	367.69
698.56	365.88
698.90	364.06
699.23	362.18
699.57	360.33
699.90	358.57
700.24	356.82
700.58	355.17
700.91	353.47
701.25	351.82
701.58	350.25
701.92	348.70
702.25	347.12
702.59	345.53
702.92	344.00
703.26	342.53
703.59	341.05
703.93	339.69
704.26	338.25
704.60	336.79
704.93	335.31
705.26	333.84
705.60	332.44
705.93	331.06
706.27	329.90
706.60	328.65
706.94	327.41
707.27	326.09
707.61	324.82
707.94	323.63
708.27	322.33
708.61	321.06
708.94	319.89
709.28	318.71
709.61	317.66
709.94	316.58
710.28	315.42
710.61	314.27
710.95	313.06
711.28	312.01
711.61	310.90
711.95	309.88
712.28	308.76
712.61	307.66
712.95	306.58
713.28	305.52
713.61	304.48
713.95	303.49
714.28	302.55
714.61	301.56
714.95	300.57
715.28	299.63
715.61	298.65
715.95	297.65
716.28	296.69
716.61	295.69
716.95	294.74
717.28	293.81
717.61	292.93
717.94	292.09
718.28	291.19
718.61	290.37
718.94	289.54
719.27	288.80
719.61	287.99
719.94	287.27
720.27	286.42
720.60	285.67
720.94	284.91
721.27	284.22
721.60	283.56
721.93	282.90
722.27	282.24
722.60	281.61
722.93	280.99
723.26	280.37
723.59	279.76
723.93	279.11
724.26	278.53
724.59	277.89
724.92	277.22
725.25	276.65
725.59	276.07
725.92	275.51
726.25	274.91
726.58	274.40
726.91	273.83
727.24	273.28
727.57	272.74
727.91	272.18
728.24	271.57
728.57	270.98
728.90	270.40
729.23	269.86
729.56	269.34
729.89	268.81
730.22	268.24
730.55	267.72
730.89	267.22
731.22	266.68
731.55	266.20
731.88	265.76
732.21	265.25
732.54	264.75
732.87	264.24
733.20	263.76
733.53	263.30
733.86	262.85
734.19	262.43
734.52	262.00
734.85	261.62
735.18	261.18
735.51	260.77
735.84	260.33
736.17	259.92
736.50	259.44
736.83	259.12
737.16	258.74
737.49	258.32
737.82	257.90
738.15	257.53
738.48	257.12
738.81	256.76
739.14	256.38
739.47	255.98
739.80	255.59
740.13	255.26
740.46	254.90
740.79	254.54
741.12	254.18
741.45	253.81
741.78	253.41
742.11	253.10
742.44	252.72
742.77	252.43
743.10	252.08
743.43	251.74
743.75	251.32
744.08	251.15
744.41	250.88
744.74	250.57
745.07	250.23
745.40	249.96
745.73	249.69
746.06	249.40
746.39	249.13
746.71	248.86
747.04	248.53
747.37	248.21
747.70	247.90
748.03	247.64
748.36	247.38
748.68	247.11
749.01	246.83
749.34	246.54
749.67	246.25
750.00	245.99
750.33	245.82
750.65	245.59
750.98	245.21
751.31	244.92
751.64	244.71
751.97	244.51
752.29	244.25
752.62	243.96
752.95	243.74
753.28	243.51
753.60	243.28
753.93	243.10
754.26	242.88
754.59	242.63
754.91	242.36
755.24	242.14
755.57	241.97
755.90	241.76
756.22	241.60
756.55	241.40
756.88	241.22
757.20	240.97
757.53	240.78
757.86	240.58
758.19	240.41
758.51	240.22
758.84	240.00
759.17	239.82
759.49	239.65
759.82	239.50
760.15	239.33
760.47	239.17
760.80	238.98
761.13	238.84
761.45	238.68
761.78	238.54
762.11	238.36
762.43	238.19
762.76	238.02
763.08	237.87
763.41	237.75
763.74	237.57
764.06	237.43
764.39	237.26
764.71	237.11
765.04	236.96
765.37	236.84
765.69	236.73
766.02	236.59
766.34	236.46
766.67	236.29
767.00	236.18
767.32	236.09
767.65	236.02
767.97	235.92
768.30	235.82
768.62	235.70
768.95	235.57
769.27	235.41
769.60	235.30
769.92	235.18
770.25	235.02
770.57	234.89
770.90	234.75
771.22	234.64
771.55	234.54
771.87	234.43
772.20	234.26
772.52	234.20
772.85	234.18
773.17	234.06
773.50	233.96
773.82	233.79
774.15	233.65
774.47	233.46
774.80	233.31
775.12	233.19
775.45	233.08
775.77	232.99
776.09	232.89
776.42	232.78
776.74	232.71
777.07	232.60
777.39	232.47
777.72	232.41
778.04	232.29
778.36	232.17
778.69	232.06
779.01	232.01
779.33	231.85
779.66	231.65
779.98	231.55
780.31	231.45
780.63	231.42
780.95	231.35
781.28	231.30
781.60	231.20
781.92	231.11
782.25	231.01
782.57	230.92
782.89	230.85
783.22	230.78
783.54	230.70
783.86	230.65
784.19	230.62
784.51	230.58
784.83	230.51
785.16	230.48
785.48	230.42
785.80	230.35
786.12	230.29
786.45	230.26
786.77	230.25
787.09	230.18
787.42	230.09
787.74	230.03
788.06	229.96
788.38	229.89
788.71	229.86
789.03	229.83
789.35	229.79
789.67	229.75
789.99	229.73
790.32	229.64
790.64	229.61
790.96	229.65
791.28	229.52
791.61	229.51
791.93	229.47
792.25	229.44
792.57	229.46
792.89	229.39
793.21	229.31
793.54	229.25
793.86	229.20
794.18	229.15
794.50	229.11
794.82	229.08
795.14	229.09
795.47	229.05
795.79	229.01
796.11	228.96
796.43	228.90
796.75	228.84
797.07	228.84
797.39	228.79
797.71	228.67
798.04	228.69
798.36	228.63
798.68	228.57
799.00	228.57
799.32	228.48
799.64	228.49
799.96	228.49
800.28	228.46
800.60	228.45
800.92	228.44
801.24	228.40
801.56	228.37
801.89	228.33
802.21	228.31
802.53	228.25
802.85	228.27
803.17	228.29
803.49	228.25
803.81	228.17
804.13	228.14
804.45	228.11
804.77	228.08
805.09	228.09
805.41	228.06
805.73	227.99
806.05	227.93
806.37	227.91
806.69	227.88
807.01	227.84
807.33	227.81
807.65	227.73
807.97	227.75
808.28	227.76
808.60	227.74
808.92	227.70
809.24	227.78
809.56	227.70
809.88	227.64
810.20	227.58
810.52	227.63
810.84	227.57
811.16	227.53
811.48	227.50
811.80	227.48
812.12	227.45
812.43	227.45
812.75	227.43
813.07	227.37
813.39	227.35
813.71	227.31
814.03	227.26
814.35	227.24
814.67	227.18
814.98	227.11
815.30	227.06
815.62	227.02
815.94	226.89
816.26	226.93
816.58	226.89
816.89	226.89
817.21	226.82
817.53	226.83
817.85	226.79
818.17	226.73
818.48	226.68
818.80	226.67
819.12	226.60
819.44	226.58
819.76	226.56
820.07	226.53
820.39	226.56
820.71	226.57
821.03	226.55
821.34	226.52
821.66	226.49
821.98	226.49
822.30	226.49
822.61	226.52
822.93	226.44
823.25	226.42
823.57	226.37
823.88	226.40
824.20	226.36
824.52	226.40
824.83	226.42
825.15	226.36
825.47	226.32
825.79	226.31
826.10	226.26
826.42	226.20
826.74	226.17
827.05	226.10
827.37	226.06
827.69	226.07
828.00	226.04
828.32	226.02
828.64	225.97
828.95	225.97
829.27	225.93
829.58	225.94
829.90	225.95
830.22	225.98
830.53	225.90
830.85	225.89
831.17	225.81
831.48	225.76
831.80	225.81
832.11	225.83
832.43	225.84
832.75	225.84
833.06	225.92
833.38	225.88
833.69	225.86
834.01	225.85
834.32	225.82
834.64	225.85
834.96	225.85
835.27	225.86
835.59	225.85
835.90	225.80
836.22	225.77
836.53	225.74
836.85	225.70
837.16	225.84
837.48	225.82
837.79	225.86
838.11	225.90
838.42	225.86
838.74	225.85
839.05	225.83
839.37	225.83
839.68	225.78
840.00	225.75
840.31	225.80
840.63	225.79
840.94	225.76
841.26	225.73
841.57	225.73
841.88	225.75
842.20	225.73
842.51	225.75
842.83	225.74
843.14	225.82
843.46	225.79
843.77	225.70
844.08	225.71
844.40	225.69
844.71	225.66
845.03	225.66
845.34	225.64
845.65	225.61
845.97	225.58
846.28	225.59
846.60	225.62
846.91	225.59
847.22	225.57
847.54	225.55
847.85	225.55
848.16	225.53
848.48	225.47
848.79	225.49
849.10	225.48
849.42	225.49
849.73	225.40
850.04	225.41
850.36	225.34
850.67	225.34
850.98	225.32
851.30	225.32
851.61	225.29
851.92	225.28
852.23	225.29
852.55	225.30
852.86	225.25
853.17	225.25
853.49	225.26
853.80	225.29
854.11	225.32
854.42	225.31
854.74	225.31
855.05	225.28
855.36	225.19
855.67	225.17
855.99	225.16
856.30	225.27
856.61	225.26
856.92	225.29
857.23	225.25
857.55	225.23
857.86	225.22
858.17	225.24
858.48	225.23
858.79	225.23
859.11	225.22
859.42	225.24
859.73	225.23
860.04	225.18
860.35	225.16
860.66	225.15
860.98	225.17
861.29	225.20
861.60	225.24
861.91	225.28
862.22	225.29
862.53	225.27
862.84	225.13
863.16	225.18
863.47	225.17
863.78	225.16
864.09	225.14
864.40	225.15
864.71	225.14
865.02	225.15
865.33	225.14
865.64	225.13
865.95	225.14
866.27	225.19
866.58	225.22
866.89	225.23
867.20	225.21
867.51	225.13
867.82	225.10
868.13	225.12
868.44	225.12
868.75	225.12
869.06	225.14
869.37	225.16
869.68	225.12
869.99	225.12
870.30	225.15
870.61	225.19
870.92	225.17
871.23	225.16
871.54	225.18
871.85	225.20
872.16	225.21
872.47	225.19
872.78	225.13
873.09	225.12
873.40	225.13
873.71	225.14
874.02	225.18
874.33	225.16
874.64	225.16
874.95	225.15
875.26	225.16
875.56	225.16
875.87	225.16
876.18	225.16
876.49	225.29
876.80	225.29
877.11	225.26
877.42	225.28
877.73	225.29
878.04	225.27
878.35	225.27
878.66	225.28
878.96	225.29
879.27	225.30
879.58	225.29
879.89	225.25
880.20	225.28
880.51	225.26
880.82	225.27
881.12	225.26
881.43	225.22
881.74	225.21
882.05	225.16
882.36	225.16
882.67	225.16
882.97	225.06
883.28	225.05
883.59	225.03
883.90	225.04
884.21	225.07
884.51	225.09
884.82	225.05
885.13	225.03
885.44	225.02
885.74	224.98
886.05	225.00
886.36	224.99
886.67	224.95
886.98	225.03
887.28	225.04
887.59	225.04
887.90	225.05
888.20	225.03
888.51	225.10
888.82	225.08
889.13	225.11
889.43	225.16
889.74	225.14
890.05	225.12
890.35	225.09
890.66	225.03
890.97	224.99
891.28	225.00
891.58	224.99
891.89	224.98
892.20	224.98
892.50	224.94
892.81	224.94
893.12	224.90
893.42	224.85
893.73	224.83
894.04	224.82
894.34	224.86
894.65	224.85
894.95	224.81
895.26	224.85
895.57	224.85
895.87	224.76
896.18	224.79
896.48	224.82
896.79	224.82
897.10	224.83
897.40	224.83
897.71	224.86
898.01	224.85
898.32	224.85
898.63	224.86
898.93	224.85
899.24	224.86
899.54	224.87
899.85	224.89
900.15	224.90
900.46	224.88
900.76	224.87
901.07	224.85
901.38	224.84
901.68	224.83
901.99	224.80
902.29	224.80
902.60	224.79
902.90	224.78
903.21	224.79
903.51	224.79
903.82	224.83
904.12	224.83
904.43	224.86
904.73	224.87
905.03	224.87
905.34	224.98
905.64	224.97
905.95	224.97
906.25	224.93
906.56	224.93
906.86	224.97
907.17	224.93
907.47	224.97
907.77	224.95
908.08	224.93
908.38	224.93
908.69	224.94
908.99	224.97
909.30	224.99
909.60	224.99
909.90	225.01
910.21	224.98
910.51	224.91
910.81	224.86
911.12	224.86
911.42	224.88
911.73	224.80
912.03	224.81
912.33	224.82
912.64	224.84
912.94	224.84
913.24	224.81
913.55	224.80
913.85	224.81
914.15	224.86
914.46	224.90
914.76	224.88
915.06	224.89
915.37	224.86
915.67	224.84
915.97	224.83
916.27	224.81
916.58	224.80
916.88	224.83
917.18	224.84
917.49	224.91
917.79	224.88
918.09	224.90
918.39	224.95
918.70	224.97
919.00	224.94
919.30	224.97
919.60	224.99
919.91	224.98
920.21	224.97
920.51	224.94
920.81	224.95
921.12	224.95
921.42	224.95
921.72	224.93
922.02	224.93
922.32	224.94
922.63	224.94
922.93	224.98
923.23	224.97
923.53	224.99
923.83	224.91
924.13	224.93
924.44	224.92
924.74	224.93
925.04	224.92
925.34	224.92
925.64	224.87
925.94	224.86
926.24	224.91
926.55	224.92
926.85	224.94
927.15	224.91
927.45	224.90
927.75	224.89
928.05	224.87
928.35	224.87
928.65	224.88
928.95	224.88
929.26	224.86
929.56	224.88
929.86	224.88
930.16	224.91
930.46	224.91
930.76	224.90
931.06	224.83
931.36	224.81
931.66	224.82
931.96	224.83
932.26	224.84
932.56	224.83
932.86	224.80
933.16	224.78
933.46	224.76
933.76	224.76
934.06	224.78
934.36	224.84
934.66	224.85
934.96	224.84
935.26	224.84
935.56	224.85
935.86	224.82
936.16	224.79
936.46	224.76
936.76	224.76
937.06	224.72
937.36	224.76
937.66	224.79
937.96	224.79
938.26	224.77
938.56	224.76
938.86	224.75
939.16	224.78
939.46	224.80
939.76	224.82
940.06	224.82
940.35	224.81
940.65	224.77
940.95	224.76
941.25	224.74
941.55	224.75
941.85	224.74
942.15	224.77
942.45	224.83
942.75	224.87
943.04	224.89
943.34	224.93
943.64	224.91
943.94	224.90
944.24	224.88
944.54	224.90
944.84	224.90
945.13	224.88
945.43	224.85
945.73	224.84
946.03	224.79
946.33	224.81
946.62	224.77
946.92	224.75
947.22	224.77
947.52	224.79
947.82	224.80
948.11	224.78
948.41	224.75
948.71	224.71
949.01	224.68
949.31	224.63
949.60	224.60
949.90	224.60
950.20	224.56
950.50	224.57
950.79	224.55
951.09	224.54
951.39	224.53
951.69	224.53
951.98	224.53
952.28	224.58
952.58	224.54
952.87	224.55
953.17	224.59
953.47	224.54
953.76	224.51
954.06	224.46
954.36	224.44
954.66	224.45
954.95	224.47
955.25	224.48
955.55	224.48
955.84	224.48
956.14	224.51
956.44	224.52
956.73	224.47
957.03	224.49
957.32	224.51
957.62	224.54
957.92	224.54
958.21	224.53
958.51	224.60
958.81	224.61
959.10	224.63
959.40	224.62
959.69	224.66
959.99	224.67
960.29	224.68
960.58	224.68
960.88	224.70
961.17	224.66
961.47	224.63
961.76	224.61
962.06	224.60
962.36	224.57
962.65	224.57
962.95	224.60
963.24	224.57
963.54	224.54
963.83	224.51
964.13	224.51
964.42	224.46
964.72	224.38
965.01	224.38
965.31	224.35
965.60	224.33
965.90	224.37
966.19	224.34
966.49	224.35
966.78	224.37
967.08	224.35
967.37	224.33
967.67	224.32
967.96	224.38
968.26	224.41
968.55	224.42
968.85	224.45
969.14	224.45
969.43	224.45
969.73	224.47
970.02	224.49
970.32	224.49
970.61	224.50
970.91	224.48
971.20	224.46
971.49	224.44
971.79	224.45
972.08	224.37
972.38	224.38
972.67	224.39
972.96	224.38
973.26	224.38
973.55	224.43
973.85	224.45
974.14	224.41
974.43	224.42
974.73	224.44
975.02	224.45
975.31	224.46
975.61	224.47
975.90	224.47
976.19	224.47
976.49	224.50
976.78	224.51
977.07	224.53
977.37	224.56
977.66	224.59
977.95	224.58
978.24	224.61
978.54	224.67
978.83	224.66
979.12	224.70
979.42	224.71
979.71	224.69
980.00	224.70
980.29	224.70
980.59	224.67
980.88	224.68
981.17	224.66
981.46	224.64
981.76	224.65
982.05	224.65
982.34	224.67
982.63	224.64
982.93	224.63
983.22	224.64
983.51	224.67
983.80	224.72
984.09	224.75
984.39	224.75
984.68	224.74
984.97	224.76
985.26	224.70
985.55	224.71
985.85	224.71
986.14	224.71
986.43	224.75
986.72	224.77
987.01	224.71
987.30	224.71
987.59	224.76
987.89	224.78
988.18	224.75
988.47	224.73
988.76	224.78
989.05	224.79
989.34	224.78
989.63	224.78
989.92	224.76
990.22	224.71
990.51	224.71
990.80	224.71
991.09	224.70
991.38	224.73
991.67	224.73
991.96	224.70
992.25	224.71
992.54	224.66
992.83	224.63
993.12	224.65
993.41	224.66
993.70	224.69
993.99	224.65
994.28	224.66
994.58	224.68
994.87	224.62
995.16	224.64
995.45	224.63
995.74	224.58
996.03	224.59
996.32	224.61
996.61	224.64
996.90	224.59
997.19	224.59
997.48	224.58
997.77	224.57
998.06	224.56
998.34	224.55
998.63	224.57
998.92	224.57
999.21	224.60
999.50	224.60
999.79	224.54
1000.08	224.54
1000.37	224.60
1000.66	224.57
1000.95	224.57
1001.24	224.55
1001.53	224.58
1001.82	224.56
1002.11	224.51
1002.40	224.52
1002.68	224.51
1002.97	224.61
1003.26	224.61
1003.55	224.58
1003.84	224.57
1004.13	224.60
1004.42	224.59
1004.71	224.60
1004.99	224.58
1005.28	224.60
1005.57	224.58
1005.86	224.56
1006.15	224.56
1006.44	224.49
1006.72	224.49
1007.01	224.50
1007.30	224.52
1007.59	224.51
1007.88	224.54
1008.17	224.58
1008.45	224.58
1008.74	224.52
1009.03	224.46
1009.32	224.46
1009.60	224.49
1009.89	224.49
1010.18	224.48
1010.47	224.44
1010.76	224.43
1011.04	224.47
1011.33	224.45
1011.62	224.48
1011.91	224.49
1012.19	224.51
1012.48	224.52
1012.77	224.51
1013.05	224.58
1013.34	224.58
1013.63	224.57
1013.92	224.57
1014.20	224.55
1014.49	224.57
1014.78	224.59
1015.06	224.60
1015.35	224.58
1015.64	224.61
1015.92	224.63
1016.21	224.64
1016.50	224.70
1016.78	224.71
1017.07	224.71
1017.36	224.73
1017.64	224.71
1017.93	224.77
1018.22	224.78
1018.50	224.79
1018.79	224.79
1019.08	224.72
1019.36	224.74
1019.65	224.76
1019.93	224.79
1020.22	224.80
1020.51	224.83
1020.79	224.86
1021.08	224.80
1021.36	224.47
1021.65	224.26
1021.94	224.60
1022.22	225.04
1022.51	224.78
1022.79	225.38
1023.08	224.54
1023.36	226.04
1023.65	224.73
>>>>>End Processed Spectral Data<<<<<
