SpectraSuite Data File
++++++++++++++++++++++++++++++++++++
Date: Fri Feb 01 16:10:05 EST 2013
User: group
Dark Spectrum Present: No
Reference Spectrum Present: No
Number of Sampled Component Spectra: 1
Spectrometers: USB2E7196
Integration Time (usec): 35000 (USB2E7196)
Spectra Averaged: 100 (USB2E7196)
Boxcar Smoothing: 10 (USB2E7196)
Correct for Electrical Dark: No (USB2E7196)
Strobe/Lamp Enabled: No (USB2E7196)
Correct for Detector Non-linearity: No (USB2E7196)
Correct for Stray Light: No (USB2E7196)
Number of Pixels in Processed Spectrum: 2048
>>>>>Begin Processed Spectral Data<<<<<
339.09	0.00
339.48	214.20
339.86	215.78
340.24	216.87
340.63	218.59
341.01	221.18
341.39	221.65
341.78	222.43
342.16	223.76
342.54	223.98
342.93	212.61
343.31	223.35
343.69	223.90
344.07	224.34
344.46	224.79
344.84	225.16
345.22	225.44
345.60	225.65
345.99	225.85
346.37	225.96
346.75	226.05
347.13	226.14
347.52	226.21
347.90	226.32
348.28	226.33
348.66	226.39
349.05	226.37
349.43	226.40
349.81	226.44
350.19	226.48
350.57	226.57
350.96	226.67
351.34	226.76
351.72	226.86
352.10	226.98
352.48	227.08
352.87	227.18
353.25	227.24
353.63	227.31
354.01	227.41
354.39	227.50
354.77	227.61
355.15	227.70
355.54	227.75
355.92	227.78
356.30	227.85
356.68	227.98
357.06	228.09
357.44	228.18
357.82	228.28
358.20	228.36
358.58	228.43
358.97	228.49
359.35	228.58
359.73	228.64
360.11	228.67
360.49	228.69
360.87	228.69
361.25	228.74
361.63	228.81
362.01	228.83
362.39	228.88
362.77	228.91
363.15	228.95
363.53	228.96
363.91	229.00
364.29	229.00
364.67	228.93
365.05	228.90
365.43	228.89
365.81	228.88
366.19	228.92
366.57	228.93
366.95	228.92
367.33	228.89
367.71	228.87
368.09	228.86
368.47	228.86
368.85	228.84
369.23	228.86
369.61	228.79
369.99	228.78
370.37	228.75
370.75	228.79
371.13	228.72
371.51	228.67
371.89	228.59
372.27	228.56
372.65	228.51
373.03	228.44
373.41	228.39
373.78	228.31
374.16	228.20
374.54	228.10
374.92	228.02
375.30	227.94
375.68	227.87
376.06	227.82
376.44	227.75
376.82	227.68
377.19	227.56
377.57	227.51
377.95	227.38
378.33	227.31
378.71	227.18
379.09	227.11
379.47	227.11
379.84	227.06
380.22	226.95
380.60	226.85
380.98	226.79
381.36	226.68
381.73	226.62
382.11	226.54
382.49	226.49
382.87	226.43
383.25	226.36
383.62	226.41
384.00	226.34
384.38	226.26
384.76	226.22
385.13	226.24
385.51	226.17
385.89	226.13
386.27	226.06
386.64	226.01
387.02	225.97
387.40	225.88
387.78	225.85
388.15	225.84
388.53	225.82
388.91	225.81
389.29	225.81
389.66	225.82
390.04	225.78
390.42	225.80
390.79	225.81
391.17	225.81
391.55	225.70
391.92	225.72
392.30	225.74
392.68	225.73
393.05	225.69
393.43	225.71
393.81	225.74
394.18	225.76
394.56	225.77
394.94	225.83
395.31	225.86
395.69	225.91
396.06	225.97
396.44	226.01
396.82	226.02
397.19	226.09
397.57	226.10
397.95	226.18
398.32	226.21
398.70	226.24
399.07	226.33
399.45	226.39
399.82	226.47
400.20	226.48
400.58	226.56
400.95	226.63
401.33	226.74
401.70	226.87
402.08	226.99
402.45	227.11
402.83	227.19
403.20	227.30
403.58	227.41
403.95	227.53
404.33	227.68
404.71	227.81
405.08	228.04
405.46	228.22
405.83	228.39
406.21	228.54
406.58	228.74
406.96	228.91
407.33	229.05
407.70	229.23
408.08	229.55
408.45	229.79
408.83	230.02
409.20	230.24
409.58	230.44
409.95	230.70
410.33	230.95
410.70	231.22
411.08	231.51
411.45	231.80
411.82	232.11
412.20	232.48
412.57	232.91
412.95	233.16
413.32	233.56
413.69	233.97
414.07	234.40
414.44	234.86
414.82	235.32
415.19	235.87
415.56	236.42
415.94	236.95
416.31	237.57
416.68	238.20
417.06	238.91
417.43	239.59
417.81	240.32
418.18	241.09
418.55	241.93
418.93	242.84
419.30	243.73
419.67	244.67
420.04	245.58
420.42	246.56
420.79	247.72
421.16	248.86
421.54	250.04
421.91	251.24
422.28	252.51
422.66	253.80
423.03	255.11
423.40	256.43
423.77	257.81
424.15	259.26
424.52	260.72
424.89	262.32
425.26	263.85
425.64	265.29
426.01	266.87
426.38	268.48
426.75	270.11
427.13	271.83
427.50	273.58
427.87	275.46
428.24	277.28
428.61	279.06
428.99	280.97
429.36	283.06
429.73	285.13
430.10	287.10
430.47	289.18
430.85	291.26
431.22	293.46
431.59	295.83
431.96	298.06
432.33	300.55
432.70	302.90
433.08	305.71
433.45	308.31
433.82	310.91
434.19	313.82
434.56	316.59
434.93	319.21
435.30	321.84
435.68	324.73
436.05	327.61
436.42	330.34
436.79	332.86
437.16	335.53
437.53	338.36
437.90	341.12
438.27	343.81
438.64	346.68
439.01	349.28
439.38	351.53
439.75	353.66
440.13	356.09
440.50	358.45
440.87	360.31
441.24	362.26
441.61	364.41
441.98	365.90
442.35	367.72
442.72	369.62
443.09	371.46
443.46	372.48
443.83	372.99
444.20	373.54
444.57	374.37
444.94	374.64
445.31	374.98
445.68	375.37
446.05	375.49
446.42	375.12
446.79	374.75
447.16	374.30
447.53	374.01
447.90	372.85
448.27	371.69
448.64	370.11
449.01	369.01
449.37	367.06
449.74	365.14
450.11	362.88
450.48	360.42
450.85	357.86
451.22	355.76
451.59	353.78
451.96	351.84
452.33	349.27
452.70	346.91
453.07	344.09
453.43	341.19
453.80	338.43
454.17	335.74
454.54	333.16
454.91	330.45
455.28	327.75
455.65	325.32
456.02	322.87
456.38	320.75
456.75	318.08
457.12	315.85
457.49	313.66
457.86	311.51
458.23	309.61
458.59	307.60
458.96	305.48
459.33	303.62
459.70	301.77
460.07	300.26
460.43	298.55
460.80	296.92
461.17	295.50
461.54	294.00
461.91	292.59
462.27	291.17
462.64	289.91
463.01	288.60
463.38	287.33
463.74	285.96
464.11	284.81
464.48	283.84
464.85	282.74
465.21	281.88
465.58	280.97
465.95	279.90
466.32	278.96
466.68	278.05
467.05	277.14
467.42	276.23
467.78	275.30
468.15	274.43
468.52	273.79
468.88	272.93
469.25	272.18
469.62	271.55
469.98	270.89
470.35	270.27
470.72	269.64
471.08	268.94
471.45	268.42
471.82	267.85
472.18	267.22
472.55	266.76
472.92	266.25
473.28	265.79
473.65	265.36
474.02	264.94
474.38	264.58
474.75	264.26
475.11	263.93
475.48	263.63
475.85	263.43
476.21	263.20
476.58	263.01
476.94	262.88
477.31	262.70
477.67	262.53
478.04	262.41
478.41	262.33
478.77	262.39
479.14	262.29
479.50	262.30
479.87	262.36
480.23	262.44
480.60	262.47
480.96	262.56
481.33	262.76
481.69	262.96
482.06	263.15
482.42	263.39
482.79	263.64
483.15	263.99
483.52	264.34
483.88	264.67
484.25	265.08
484.61	265.49
484.98	265.95
485.34	266.47
485.71	267.07
486.07	267.72
486.44	268.30
486.80	268.97
487.17	269.72
487.53	270.55
487.90	271.46
488.26	272.42
488.62	273.39
488.99	274.37
489.35	275.41
489.72	276.56
490.08	277.77
490.44	279.02
490.81	280.37
491.17	281.75
491.54	283.26
491.90	284.80
492.26	286.48
492.63	288.22
492.99	290.02
493.36	291.95
493.72	294.02
494.08	296.14
494.45	298.43
494.81	300.82
495.17	303.26
495.54	305.76
495.90	308.50
496.26	311.33
496.63	314.35
496.99	317.50
497.35	320.74
497.72	324.14
498.08	327.71
498.44	331.42
498.80	335.38
499.17	339.47
499.53	343.67
499.89	348.05
500.26	352.53
500.62	357.25
500.98	362.27
501.34	367.38
501.71	372.72
502.07	378.18
502.43	383.80
502.79	389.60
503.16	395.73
503.52	401.96
503.88	408.39
504.24	415.00
504.60	421.94
504.97	429.12
505.33	436.51
505.69	444.25
506.05	452.03
506.41	459.90
506.78	468.04
507.14	476.47
507.50	485.18
507.86	494.22
508.22	503.41
508.59	512.60
508.95	522.12
509.31	531.94
509.67	542.02
510.03	552.33
510.39	562.88
510.75	573.63
511.12	584.52
511.48	595.82
511.84	607.23
512.20	618.67
512.56	630.61
512.92	642.77
513.28	655.09
513.64	667.53
514.00	680.24
514.37	693.19
514.73	706.16
515.09	719.19
515.45	732.45
515.81	746.01
516.17	759.92
516.53	774.01
516.89	788.23
517.25	802.46
517.61	816.88
517.97	831.35
518.33	845.80
518.69	860.64
519.05	875.50
519.41	890.65
519.77	906.18
520.13	921.66
520.49	936.96
520.85	952.35
521.21	968.03
521.57	984.23
521.93	999.90
522.29	1016.33
522.65	1032.62
523.01	1048.84
523.37	1064.83
523.73	1081.01
524.09	1097.17
524.45	1113.41
524.81	1130.01
525.17	1146.72
525.53	1163.60
525.89	1180.34
526.25	1197.14
526.61	1213.53
526.97	1230.29
527.33	1246.72
527.68	1263.14
528.04	1279.62
528.40	1296.08
528.76	1313.14
529.12	1329.63
529.48	1346.49
529.84	1362.47
530.20	1378.94
530.56	1395.82
530.91	1413.22
531.27	1429.95
531.63	1446.29
531.99	1462.81
532.35	1478.62
532.71	1494.47
533.07	1510.61
533.42	1526.60
533.78	1542.58
534.14	1558.84
534.50	1573.90
534.86	1589.88
535.21	1605.04
535.57	1620.89
535.93	1636.33
536.29	1651.06
536.65	1666.05
537.00	1680.66
537.36	1695.94
537.72	1710.55
538.08	1724.92
538.44	1738.59
538.79	1752.40
539.15	1765.96
539.51	1779.66
539.87	1794.02
540.22	1807.57
540.58	1821.26
540.94	1834.40
541.29	1847.20
541.65	1859.81
542.01	1873.07
542.37	1885.20
542.72	1897.61
543.08	1909.33
543.44	1921.73
543.79	1932.90
544.15	1943.74
544.51	1955.41
544.87	1966.20
545.22	1976.82
545.58	1987.07
545.94	1996.86
546.29	2006.61
546.65	2016.45
547.01	2025.62
547.36	2034.25
547.72	2042.80
548.07	2050.66
548.43	2058.84
548.79	2066.77
549.14	2074.25
549.50	2081.68
549.86	2089.33
550.21	2096.67
550.57	2103.82
550.92	2110.33
551.28	2117.49
551.64	2124.71
551.99	2131.15
552.35	2137.35
552.70	2143.61
553.06	2149.55
553.41	2155.85
553.77	2161.89
554.13	2167.86
554.48	2173.92
554.84	2179.48
555.19	2184.70
555.55	2189.85
555.90	2194.41
556.26	2199.27
556.61	2203.98
556.97	2208.21
557.32	2212.34
557.68	2216.33
558.03	2220.64
558.39	2224.22
558.74	2228.68
559.10	2232.49
559.45	2236.17
559.81	2240.48
560.16	2244.20
560.52	2247.40
560.87	2250.79
561.23	2253.40
561.58	2256.33
561.94	2258.86
562.29	2261.07
562.64	2263.86
563.00	2266.37
563.35	2269.91
563.71	2273.05
564.06	2276.30
564.42	2279.23
564.77	2281.68
565.12	2284.05
565.48	2286.03
565.83	2287.99
566.19	2289.40
566.54	2290.26
566.89	2291.59
567.25	2292.24
567.60	2293.51
567.96	2295.26
568.31	2296.20
568.66	2297.47
569.02	2298.15
569.37	2298.54
569.72	2299.57
570.08	2299.65
570.43	2299.71
570.78	2299.05
571.14	2297.52
571.49	2296.27
571.84	2296.01
572.20	2295.06
572.55	2294.06
572.90	2292.33
573.26	2290.96
573.61	2289.10
573.96	2287.46
574.31	2284.32
574.67	2281.28
575.02	2277.76
575.37	2274.33
575.72	2270.52
576.08	2267.07
576.43	2263.74
576.78	2260.16
577.13	2257.03
577.49	2254.02
577.84	2250.58
578.19	2246.79
578.54	2243.38
578.90	2239.25
579.25	2233.60
579.60	2228.52
579.95	2223.50
580.30	2218.63
580.66	2213.51
581.01	2208.69
581.36	2203.78
581.71	2199.70
582.06	2195.36
582.42	2191.04
582.77	2185.89
583.12	2181.47
583.47	2176.95
583.82	2172.17
584.17	2166.96
584.53	2161.45
584.88	2155.85
585.23	2150.19
585.58	2144.84
585.93	2139.22
586.28	2134.47
586.63	2129.53
586.98	2124.60
587.34	2119.95
587.69	2115.05
588.04	2109.90
588.39	2104.22
588.74	2097.85
589.09	2091.71
589.44	2085.00
589.79	2078.84
590.14	2073.34
590.49	2066.60
590.84	2060.07
591.19	2053.94
591.54	2047.42
591.89	2040.14
592.25	2033.48
592.60	2026.37
592.95	2018.76
593.30	2011.50
593.65	2003.90
594.00	1996.85
594.35	1989.66
594.70	1981.57
595.05	1974.44
595.40	1967.21
595.75	1959.77
596.10	1953.59
596.45	1946.92
596.80	1940.80
597.15	1934.27
597.50	1927.21
597.85	1920.79
598.19	1914.28
598.54	1907.20
598.89	1900.58
599.24	1894.61
599.59	1887.90
599.94	1881.65
600.29	1875.36
600.64	1868.73
600.99	1861.28
601.34	1854.35
601.69	1847.33
602.04	1840.59
602.39	1833.27
602.74	1826.37
603.08	1819.68
603.43	1812.99
603.78	1805.64
604.13	1798.42
604.48	1791.15
604.83	1784.26
605.18	1777.40
605.53	1769.37
605.87	1761.32
606.22	1754.15
606.57	1746.26
606.92	1738.81
607.27	1731.69
607.62	1724.83
607.96	1717.72
608.31	1711.20
608.66	1703.80
609.01	1696.28
609.36	1688.78
609.70	1680.83
610.05	1672.85
610.40	1665.22
610.75	1656.89
611.10	1649.27
611.44	1640.78
611.79	1632.69
612.14	1624.05
612.49	1614.80
612.83	1606.47
613.18	1598.37
613.53	1590.24
613.88	1581.73
614.22	1573.55
614.57	1564.88
614.92	1556.90
615.27	1549.30
615.61	1540.81
615.96	1532.72
616.31	1525.06
616.65	1517.56
617.00	1509.94
617.35	1502.12
617.70	1493.77
618.04	1485.23
618.39	1477.06
618.74	1469.47
619.08	1461.28
619.43	1453.63
619.78	1446.80
620.12	1439.64
620.47	1432.24
620.82	1424.13
621.16	1416.56
621.51	1408.94
621.85	1401.30
622.20	1392.81
622.55	1384.42
622.89	1376.63
623.24	1369.00
623.59	1361.60
623.93	1354.06
624.28	1346.88
624.62	1339.53
624.97	1332.31
625.32	1325.47
625.66	1318.42
626.01	1311.25
626.35	1303.79
626.70	1296.01
627.04	1288.36
627.39	1280.50
627.73	1273.03
628.08	1266.10
628.43	1258.96
628.77	1251.58
629.12	1244.04
629.46	1236.83
629.81	1229.37
630.15	1222.19
630.50	1214.67
630.84	1206.49
631.19	1198.55
631.53	1190.91
631.88	1183.28
632.22	1175.71
632.57	1168.42
632.91	1160.79
633.26	1153.41
633.60	1145.98
633.95	1138.90
634.29	1131.75
634.64	1125.04
634.98	1117.61
635.32	1110.42
635.67	1103.71
636.01	1097.09
636.36	1090.24
636.70	1083.61
637.05	1077.06
637.39	1070.54
637.73	1064.08
638.08	1058.20
638.42	1052.23
638.77	1045.86
639.11	1039.28
639.45	1032.81
639.80	1026.26
640.14	1019.94
640.49	1013.37
640.83	1007.04
641.17	1000.80
641.52	994.47
641.86	988.03
642.20	982.20
642.55	975.83
642.89	969.46
643.23	962.78
643.58	957.15
643.92	951.03
644.26	945.02
644.61	938.92
644.95	932.93
645.29	926.30
645.64	919.50
645.98	913.15
646.32	907.27
646.66	901.33
647.01	895.36
647.35	889.52
647.69	883.58
648.04	877.99
648.38	872.16
648.72	866.17
649.06	860.14
649.41	854.26
649.75	848.37
650.09	842.37
650.43	836.68
650.78	830.42
651.12	824.50
651.46	818.69
651.80	813.02
652.14	807.66
652.49	802.36
652.83	797.22
653.17	791.55
653.51	785.90
653.85	780.37
654.20	774.82
654.54	768.81
654.88	763.14
655.22	757.30
655.56	751.62
655.90	746.12
656.25	740.84
656.59	735.41
656.93	730.36
657.27	725.19
657.61	719.70
657.95	714.69
658.29	709.56
658.64	704.31
658.98	698.94
659.32	693.45
659.66	688.23
660.00	682.98
660.34	678.01
660.68	673.06
661.02	668.12
661.36	663.37
661.70	658.90
662.05	654.55
662.39	650.24
662.73	645.75
663.07	641.45
663.41	637.05
663.75	632.61
664.09	627.95
664.43	623.54
664.77	619.50
665.11	615.19
665.45	611.05
665.79	607.00
666.13	602.85
666.47	598.69
666.81	594.53
667.15	590.35
667.49	586.43
667.83	582.61
668.17	578.64
668.51	574.61
668.85	570.61
669.19	566.74
669.53	562.95
669.87	559.09
670.21	555.31
670.55	551.68
670.89	548.25
671.23	544.88
671.57	541.40
671.91	537.78
672.25	534.26
672.58	530.74
672.92	527.29
673.26	524.16
673.60	521.08
673.94	517.93
674.28	514.99
674.62	512.02
674.96	508.91
675.30	506.01
675.64	503.09
675.97	500.28
676.31	497.38
676.65	494.46
676.99	491.77
677.33	488.93
677.67	486.05
678.01	482.99
678.34	480.00
678.68	477.06
679.02	474.27
679.36	471.52
679.70	468.74
680.04	465.97
680.37	463.08
680.71	460.24
681.05	457.61
681.39	454.88
681.73	452.25
682.06	449.73
682.40	447.17
682.74	444.57
683.08	441.99
683.42	439.42
683.75	436.90
684.09	434.31
684.43	431.85
684.77	429.39
685.10	427.05
685.44	424.67
685.78	422.36
686.12	420.05
686.45	417.75
686.79	415.49
687.13	413.31
687.46	411.11
687.80	408.97
688.14	406.76
688.48	404.75
688.81	402.46
689.15	400.29
689.49	398.11
689.82	396.06
690.16	394.00
690.50	392.05
690.83	390.09
691.17	388.08
691.51	386.20
691.84	384.38
692.18	382.45
692.52	380.52
692.85	378.64
693.19	376.79
693.52	374.93
693.86	373.15
694.20	371.36
694.53	369.59
694.87	367.71
695.21	365.89
695.54	364.05
695.88	362.38
696.21	360.62
696.55	358.97
696.88	357.26
697.22	355.59
697.56	353.98
697.89	352.30
698.23	350.71
698.56	349.07
698.90	347.47
699.23	345.82
699.57	344.27
699.90	342.73
700.24	341.18
700.58	339.69
700.91	338.15
701.25	336.71
701.58	335.35
701.92	333.99
702.25	332.64
702.59	331.29
702.92	329.93
703.26	328.65
703.59	327.35
703.93	326.14
704.26	324.90
704.60	323.58
704.93	322.30
705.26	321.05
705.60	319.93
705.93	318.75
706.27	317.75
706.60	316.68
706.94	315.59
707.27	314.47
707.61	313.41
707.94	312.41
708.27	311.34
708.61	310.28
708.94	309.28
709.28	308.32
709.61	307.36
709.94	306.44
710.28	305.40
710.61	304.45
710.95	303.41
711.28	302.51
711.61	301.60
711.95	300.74
712.28	299.83
712.61	298.79
712.95	297.86
713.28	296.95
713.61	296.04
713.95	295.18
714.28	294.36
714.61	293.47
714.95	292.63
715.28	291.79
715.61	290.88
715.95	290.03
716.28	289.14
716.61	288.26
716.95	287.40
717.28	286.66
717.61	285.87
717.94	285.12
718.28	284.32
718.61	283.56
718.94	282.84
719.27	282.20
719.61	281.55
719.94	280.88
720.27	280.22
720.60	279.53
720.94	278.86
721.27	278.23
721.60	277.65
721.93	277.02
722.27	276.45
722.60	275.93
722.93	275.35
723.26	274.83
723.59	274.29
723.93	273.77
724.26	273.24
724.59	272.68
724.92	272.18
725.25	271.65
725.59	271.13
725.92	270.62
726.25	270.06
726.58	269.62
726.91	269.08
727.24	268.60
727.57	268.18
727.91	267.69
728.24	267.24
728.57	266.76
728.90	266.32
729.23	265.82
729.56	265.40
729.89	264.94
730.22	264.45
730.55	264.01
730.89	263.57
731.22	263.10
731.55	262.66
731.88	262.22
732.21	261.79
732.54	261.36
732.87	260.94
733.20	260.54
733.53	260.11
733.86	259.77
734.19	259.36
734.52	258.98
734.85	258.66
735.18	258.26
735.51	257.89
735.84	257.52
736.17	257.15
736.50	256.75
736.83	256.52
737.16	256.23
737.49	255.88
737.82	255.56
738.15	255.25
738.48	254.93
738.81	254.60
739.14	254.31
739.47	253.98
739.80	253.67
740.13	253.39
740.46	253.07
740.79	252.74
741.12	252.43
741.45	252.12
741.78	251.80
742.11	251.51
742.44	251.17
742.77	250.87
743.10	250.61
743.43	250.28
743.75	249.89
744.08	249.73
744.41	249.45
744.74	249.14
745.07	248.84
745.40	248.57
745.73	248.33
746.06	248.04
746.39	247.81
746.71	247.56
747.04	247.26
747.37	247.01
747.70	246.76
748.03	246.49
748.36	246.26
748.68	246.02
749.01	245.77
749.34	245.55
749.67	245.32
750.00	245.06
750.33	244.87
750.65	244.65
750.98	244.27
751.31	244.03
751.64	243.82
751.97	243.65
752.29	243.46
752.62	243.22
752.95	242.97
753.28	242.73
753.60	242.49
753.93	242.34
754.26	242.15
754.59	241.92
754.91	241.73
755.24	241.51
755.57	241.27
755.90	241.08
756.22	240.90
756.55	240.69
756.88	240.53
757.20	240.32
757.53	240.13
757.86	239.98
758.19	239.88
758.51	239.70
758.84	239.49
759.17	239.28
759.49	239.16
759.82	239.06
760.15	238.91
760.47	238.76
760.80	238.57
761.13	238.44
761.45	238.29
761.78	238.15
762.11	238.00
762.43	237.87
762.76	237.70
763.08	237.57
763.41	237.44
763.74	237.32
764.06	237.16
764.39	236.98
764.71	236.83
765.04	236.66
765.37	236.51
765.69	236.40
766.02	236.27
766.34	236.11
766.67	235.97
767.00	235.88
767.32	235.82
767.65	235.75
767.97	235.64
768.30	235.56
768.62	235.46
768.95	235.35
769.27	235.22
769.60	235.15
769.92	235.02
770.25	234.91
770.57	234.80
770.90	234.75
771.22	234.69
771.55	234.60
771.87	234.50
772.20	234.41
772.52	234.40
772.85	234.48
773.17	234.38
773.50	234.26
773.82	234.19
774.15	234.06
774.47	233.93
774.80	233.80
775.12	233.69
775.45	233.60
775.77	233.52
776.09	233.48
776.42	233.42
776.74	233.40
777.07	233.32
777.39	233.23
777.72	233.15
778.04	233.09
778.36	233.01
778.69	232.98
779.01	232.96
779.33	232.78
779.66	232.57
779.98	232.52
780.31	232.50
780.63	232.46
780.95	232.40
781.28	232.36
781.60	232.32
781.92	232.26
782.25	232.22
782.57	232.17
782.89	232.11
783.22	232.03
783.54	231.94
783.86	231.88
784.19	231.81
784.51	231.77
784.83	231.68
785.16	231.63
785.48	231.55
785.80	231.46
786.12	231.44
786.45	231.40
786.77	231.37
787.09	231.32
787.42	231.24
787.74	231.18
788.06	231.13
788.38	231.05
788.71	230.98
789.03	230.92
789.35	230.87
789.67	230.80
789.99	230.78
790.32	230.72
790.64	230.68
790.96	230.73
791.28	230.68
791.61	230.61
791.93	230.58
792.25	230.53
792.57	230.56
792.89	230.50
793.21	230.41
793.54	230.34
793.86	230.27
794.18	230.21
794.50	230.17
794.82	230.12
795.14	230.10
795.47	230.09
795.79	230.06
796.11	229.99
796.43	229.99
796.75	229.96
797.07	229.95
797.39	229.93
797.71	229.84
798.04	229.82
798.36	229.86
798.68	229.80
799.00	229.79
799.32	229.75
799.64	229.71
799.96	229.75
800.28	229.71
800.60	229.71
800.92	229.69
801.24	229.66
801.56	229.64
801.89	229.62
802.21	229.62
802.53	229.59
802.85	229.61
803.17	229.59
803.49	229.51
803.81	229.47
804.13	229.44
804.45	229.41
804.77	229.39
805.09	229.34
805.41	229.33
805.73	229.27
806.05	229.20
806.37	229.19
806.69	229.14
807.01	229.13
807.33	229.10
807.65	229.05
807.97	229.09
808.28	229.06
808.60	228.99
808.92	228.93
809.24	228.94
809.56	228.90
809.88	228.82
810.20	228.81
810.52	228.82
810.84	228.76
811.16	228.74
811.48	228.71
811.80	228.71
812.12	228.69
812.43	228.67
812.75	228.66
813.07	228.61
813.39	228.60
813.71	228.56
814.03	228.51
814.35	228.45
814.67	228.38
814.98	228.36
815.30	228.36
815.62	228.34
815.94	228.26
816.26	228.26
816.58	228.26
816.89	228.28
817.21	228.20
817.53	228.19
817.85	228.16
818.17	228.15
818.48	228.10
818.80	228.10
819.12	228.09
819.44	228.06
819.76	228.06
820.07	228.02
820.39	228.01
820.71	228.02
821.03	228.04
821.34	228.01
821.66	227.97
821.98	227.96
822.30	227.94
822.61	228.02
822.93	227.96
823.25	227.91
823.57	227.88
823.88	227.90
824.20	227.88
824.52	227.88
824.83	227.87
825.15	227.82
825.47	227.79
825.79	227.79
826.10	227.78
826.42	227.78
826.74	227.80
827.05	227.76
827.37	227.76
827.69	227.73
828.00	227.73
828.32	227.73
828.64	227.70
828.95	227.74
829.27	227.67
829.58	227.66
829.90	227.67
830.22	227.66
830.53	227.59
830.85	227.59
831.17	227.54
831.48	227.52
831.80	227.52
832.11	227.53
832.43	227.51
832.75	227.47
833.06	227.48
833.38	227.44
833.69	227.43
834.01	227.42
834.32	227.44
834.64	227.44
834.96	227.47
835.27	227.46
835.59	227.38
835.90	227.37
836.22	227.34
836.53	227.32
836.85	227.32
837.16	227.45
837.48	227.44
837.79	227.46
838.11	227.45
838.42	227.46
838.74	227.43
839.05	227.40
839.37	227.38
839.68	227.32
840.00	227.32
840.31	227.31
840.63	227.34
840.94	227.32
841.26	227.28
841.57	227.22
841.88	227.27
842.20	227.28
842.51	227.27
842.83	227.28
843.14	227.39
843.46	227.35
843.77	227.29
844.08	227.28
844.40	227.24
844.71	227.19
845.03	227.16
845.34	227.13
845.65	227.14
845.97	227.17
846.28	227.17
846.60	227.14
846.91	227.13
847.22	227.10
847.54	227.10
847.85	227.11
848.16	227.14
848.48	227.09
848.79	227.13
849.10	227.14
849.42	227.15
849.73	227.05
850.04	227.06
850.36	227.01
850.67	227.00
850.98	227.03
851.30	227.05
851.61	227.06
851.92	227.08
852.23	227.12
852.55	227.08
852.86	227.08
853.17	227.12
853.49	227.15
853.80	227.14
854.11	227.14
854.42	227.17
854.74	227.13
855.05	227.14
855.36	227.09
855.67	227.08
855.99	227.07
856.30	227.17
856.61	227.16
856.92	227.15
857.23	227.17
857.55	227.13
857.86	227.12
858.17	227.16
858.48	227.15
858.79	227.13
859.11	227.15
859.42	227.11
859.73	227.09
860.04	227.06
860.35	227.02
860.66	227.00
860.98	226.97
861.29	227.00
861.60	226.96
861.91	226.96
862.22	226.96
862.53	226.93
862.84	226.79
863.16	226.83
863.47	226.82
863.78	226.79
864.09	226.80
864.40	226.79
864.71	226.76
865.02	226.74
865.33	226.71
865.64	226.72
865.95	226.75
866.27	226.82
866.58	226.83
866.89	226.85
867.20	226.86
867.51	226.83
867.82	226.80
868.13	226.82
868.44	226.81
868.75	226.80
869.06	226.82
869.37	226.85
869.68	226.79
869.99	226.79
870.30	226.80
870.61	226.82
870.92	226.82
871.23	226.81
871.54	226.82
871.85	226.83
872.16	226.82
872.47	226.81
872.78	226.74
873.09	226.73
873.40	226.71
873.71	226.71
874.02	226.72
874.33	226.73
874.64	226.71
874.95	226.68
875.26	226.66
875.56	226.66
875.87	226.64
876.18	226.65
876.49	226.73
876.80	226.73
877.11	226.66
877.42	226.67
877.73	226.68
878.04	226.64
878.35	226.65
878.66	226.65
878.96	226.66
879.27	226.67
879.58	226.64
879.89	226.63
880.20	226.65
880.51	226.63
880.82	226.62
881.12	226.67
881.43	226.69
881.74	226.69
882.05	226.68
882.36	226.70
882.67	226.68
882.97	226.60
883.28	226.53
883.59	226.56
883.90	226.53
884.21	226.52
884.51	226.54
884.82	226.54
885.13	226.50
885.44	226.50
885.74	226.51
886.05	226.54
886.36	226.56
886.67	226.54
886.98	226.64
887.28	226.66
887.59	226.62
887.90	226.57
888.20	226.58
888.51	226.60
888.82	226.60
889.13	226.63
889.43	226.74
889.74	226.79
890.05	226.79
890.35	226.82
890.66	226.82
890.97	226.81
891.28	226.79
891.58	226.81
891.89	226.80
892.20	226.79
892.50	226.79
892.81	226.78
893.12	226.78
893.42	226.71
893.73	226.71
894.04	226.71
894.34	226.75
894.65	226.75
894.95	226.77
895.26	226.77
895.57	226.83
895.87	226.71
896.18	226.71
896.48	226.72
896.79	226.72
897.10	226.72
897.40	226.74
897.71	226.76
898.01	226.75
898.32	226.76
898.63	226.76
898.93	226.72
899.24	226.72
899.54	226.69
899.85	226.65
900.15	226.62
900.46	226.64
900.76	226.66
901.07	226.64
901.38	226.61
901.68	226.61
901.99	226.55
902.29	226.55
902.60	226.54
902.90	226.55
903.21	226.53
903.51	226.53
903.82	226.55
904.12	226.53
904.43	226.49
904.73	226.48
905.03	226.50
905.34	226.61
905.64	226.58
905.95	226.56
906.25	226.60
906.56	226.60
906.86	226.57
907.17	226.52
907.47	226.56
907.77	226.53
908.08	226.49
908.38	226.48
908.69	226.49
908.99	226.51
909.30	226.51
909.60	226.49
909.90	226.49
910.21	226.43
910.51	226.43
910.81	226.47
911.12	226.48
911.42	226.47
911.73	226.36
912.03	226.35
912.33	226.41
912.64	226.41
912.94	226.41
913.24	226.40
913.55	226.38
913.85	226.34
914.15	226.35
914.46	226.41
914.76	226.40
915.06	226.40
915.37	226.39
915.67	226.37
915.97	226.36
916.27	226.35
916.58	226.36
916.88	226.36
917.18	226.37
917.49	226.42
917.79	226.39
918.09	226.41
918.39	226.47
918.70	226.45
919.00	226.44
919.30	226.50
919.60	226.51
919.91	226.51
920.21	226.53
920.51	226.54
920.81	226.48
921.12	226.50
921.42	226.50
921.72	226.50
922.02	226.50
922.32	226.55
922.63	226.57
922.93	226.64
923.23	226.63
923.53	226.63
923.83	226.57
924.13	226.61
924.44	226.60
924.74	226.60
925.04	226.61
925.34	226.61
925.64	226.59
925.94	226.62
926.24	226.68
926.55	226.66
926.85	226.66
927.15	226.68
927.45	226.69
927.75	226.66
928.05	226.68
928.35	226.68
928.65	226.70
928.95	226.67
929.26	226.61
929.56	226.63
929.86	226.64
930.16	226.62
930.46	226.62
930.76	226.66
931.06	226.64
931.36	226.61
931.66	226.63
931.96	226.64
932.26	226.62
932.56	226.59
932.86	226.62
933.16	226.62
933.46	226.59
933.76	226.53
934.06	226.55
934.36	226.57
934.66	226.56
934.96	226.54
935.26	226.54
935.56	226.55
935.86	226.51
936.16	226.49
936.46	226.50
936.76	226.46
937.06	226.42
937.36	226.39
937.66	226.39
937.96	226.36
938.26	226.33
938.56	226.32
938.86	226.34
939.16	226.31
939.46	226.32
939.76	226.34
940.06	226.35
940.35	226.34
940.65	226.31
940.95	226.31
941.25	226.30
941.55	226.29
941.85	226.29
942.15	226.34
942.45	226.36
942.75	226.34
943.04	226.35
943.34	226.38
943.64	226.40
943.94	226.39
944.24	226.37
944.54	226.36
944.84	226.36
945.13	226.33
945.43	226.34
945.73	226.35
946.03	226.33
946.33	226.33
946.62	226.31
946.92	226.29
947.22	226.31
947.52	226.29
947.82	226.30
948.11	226.29
948.41	226.27
948.71	226.24
949.01	226.23
949.31	226.23
949.60	226.22
949.90	226.23
950.20	226.20
950.50	226.21
950.79	226.21
951.09	226.19
951.39	226.21
951.69	226.17
951.98	226.13
952.28	226.14
952.58	226.14
952.87	226.17
953.17	226.19
953.47	226.19
953.76	226.21
954.06	226.18
954.36	226.18
954.66	226.17
954.95	226.19
955.25	226.21
955.55	226.23
955.84	226.18
956.14	226.16
956.44	226.17
956.73	226.21
957.03	226.20
957.32	226.23
957.62	226.21
957.92	226.26
958.21	226.29
958.51	226.42
958.81	226.43
959.10	226.44
959.40	226.48
959.69	226.47
959.99	226.47
960.29	226.50
960.58	226.51
960.88	226.54
961.17	226.57
961.47	226.56
961.76	226.58
962.06	226.62
962.36	226.63
962.65	226.65
962.95	226.63
963.24	226.63
963.54	226.63
963.83	226.67
964.13	226.65
964.42	226.64
964.72	226.57
965.01	226.57
965.31	226.54
965.60	226.48
965.90	226.54
966.19	226.55
966.49	226.57
966.78	226.54
967.08	226.53
967.37	226.51
967.67	226.53
967.96	226.52
968.26	226.52
968.55	226.51
968.85	226.49
969.14	226.51
969.43	226.50
969.73	226.50
970.02	226.46
970.32	226.47
970.61	226.44
970.91	226.41
971.20	226.39
971.49	226.38
971.79	226.42
972.08	226.36
972.38	226.36
972.67	226.30
972.96	226.30
973.26	226.29
973.55	226.31
973.85	226.29
974.14	226.29
974.43	226.31
974.73	226.32
975.02	226.29
975.31	226.28
975.61	226.27
975.90	226.28
976.19	226.28
976.49	226.30
976.78	226.31
977.07	226.30
977.37	226.34
977.66	226.39
977.95	226.37
978.24	226.37
978.54	226.38
978.83	226.38
979.12	226.40
979.42	226.40
979.71	226.39
980.00	226.38
980.29	226.37
980.59	226.32
980.88	226.32
981.17	226.35
981.46	226.37
981.76	226.37
982.05	226.38
982.34	226.40
982.63	226.37
982.93	226.37
983.22	226.38
983.51	226.37
983.80	226.32
984.09	226.33
984.39	226.33
984.68	226.30
984.97	226.34
985.26	226.33
985.55	226.32
985.85	226.28
986.14	226.31
986.43	226.34
986.72	226.35
987.01	226.34
987.30	226.35
987.59	226.32
987.89	226.34
988.18	226.30
988.47	226.29
988.76	226.30
989.05	226.31
989.34	226.31
989.63	226.35
989.92	226.38
990.22	226.36
990.51	226.37
990.80	226.38
991.09	226.40
991.38	226.42
991.67	226.42
991.96	226.43
992.25	226.44
992.54	226.38
992.83	226.41
993.12	226.41
993.41	226.42
993.70	226.47
993.99	226.49
994.28	226.53
994.58	226.55
994.87	226.52
995.16	226.52
995.45	226.56
995.74	226.50
996.03	226.48
996.32	226.47
996.61	226.50
996.90	226.49
997.19	226.45
997.48	226.45
997.77	226.43
998.06	226.43
998.34	226.40
998.63	226.42
998.92	226.39
999.21	226.37
999.50	226.38
999.79	226.33
1000.08	226.30
1000.37	226.30
1000.66	226.28
1000.95	226.30
1001.24	226.26
1001.53	226.23
1001.82	226.21
1002.11	226.20
1002.40	226.22
1002.68	226.19
1002.97	226.23
1003.26	226.23
1003.55	226.20
1003.84	226.21
1004.13	226.27
1004.42	226.26
1004.71	226.25
1004.99	226.24
1005.28	226.28
1005.57	226.25
1005.86	226.26
1006.15	226.26
1006.44	226.24
1006.72	226.23
1007.01	226.22
1007.30	226.26
1007.59	226.26
1007.88	226.29
1008.17	226.27
1008.45	226.26
1008.74	226.23
1009.03	226.20
1009.32	226.18
1009.60	226.16
1009.89	226.16
1010.18	226.13
1010.47	226.12
1010.76	226.15
1011.04	226.16
1011.33	226.19
1011.62	226.19
1011.91	226.17
1012.19	226.17
1012.48	226.18
1012.77	226.16
1013.05	226.21
1013.34	226.17
1013.63	226.16
1013.92	226.18
1014.20	226.19
1014.49	226.17
1014.78	226.18
1015.06	226.14
1015.35	226.15
1015.64	226.17
1015.92	226.18
1016.21	226.16
1016.50	226.16
1016.78	226.13
1017.07	226.15
1017.36	226.11
1017.64	226.11
1017.93	226.11
1018.22	226.10
1018.50	226.09
1018.79	226.12
1019.08	226.08
1019.36	226.10
1019.65	226.08
1019.93	226.08
1020.22	226.09
1020.51	226.15
1020.79	226.16
1021.08	225.85
1021.36	226.21
1021.65	226.34
1021.94	226.24
1022.22	226.22
1022.51	225.51
1022.79	226.43
1023.08	226.34
1023.36	226.98
1023.65	226.10
>>>>>End Processed Spectral Data<<<<<
