SpectraSuite Data File
++++++++++++++++++++++++++++++++++++
Date: Fri Feb 01 16:15:59 EST 2013
User: group
Dark Spectrum Present: No
Reference Spectrum Present: No
Number of Sampled Component Spectra: 1
Spectrometers: USB2E7196
Integration Time (usec): 35000 (USB2E7196)
Spectra Averaged: 100 (USB2E7196)
Boxcar Smoothing: 10 (USB2E7196)
Correct for Electrical Dark: No (USB2E7196)
Strobe/Lamp Enabled: No (USB2E7196)
Correct for Detector Non-linearity: No (USB2E7196)
Correct for Stray Light: No (USB2E7196)
Number of Pixels in Processed Spectrum: 2048
>>>>>Begin Processed Spectral Data<<<<<
339.09	0.00
339.48	214.19
339.86	215.52
340.24	217.39
340.63	218.56
341.01	221.16
341.39	221.01
341.78	222.49
342.16	223.23
342.54	224.33
342.93	212.60
343.31	223.36
343.69	223.91
344.07	224.35
344.46	224.78
344.84	225.17
345.22	225.40
345.60	225.66
345.99	225.88
346.37	226.02
346.75	226.14
347.13	226.24
347.52	226.27
347.90	226.32
348.28	226.36
348.66	226.39
349.05	226.36
349.43	226.44
349.81	226.48
350.19	226.54
350.57	226.61
350.96	226.70
351.34	226.76
351.72	226.81
352.10	226.95
352.48	226.97
352.87	227.04
353.25	227.09
353.63	227.12
354.01	227.17
354.39	227.27
354.77	227.31
355.15	227.38
355.54	227.46
355.92	227.50
356.30	227.57
356.68	227.71
357.06	227.78
357.44	227.81
357.82	227.83
358.20	227.91
358.58	227.94
358.97	227.99
359.35	228.02
359.73	228.12
360.11	228.14
360.49	228.25
360.87	228.28
361.25	228.34
361.63	228.42
362.01	228.41
362.39	228.41
362.77	228.44
363.15	228.47
363.53	228.51
363.91	228.53
364.29	228.52
364.67	228.40
365.05	228.44
365.43	228.48
365.81	228.49
366.19	228.50
366.57	228.53
366.95	228.54
367.33	228.56
367.71	228.54
368.09	228.54
368.47	228.49
368.85	228.45
369.23	228.45
369.61	228.39
369.99	228.44
370.37	228.42
370.75	228.44
371.13	228.35
371.51	228.29
371.89	228.25
372.27	228.24
372.65	228.24
373.03	228.18
373.41	228.07
373.78	228.02
374.16	227.92
374.54	227.84
374.92	227.77
375.30	227.69
375.68	227.60
376.06	227.55
376.44	227.47
376.82	227.42
377.19	227.31
377.57	227.22
377.95	227.12
378.33	227.06
378.71	226.94
379.09	226.87
379.47	226.85
379.84	226.79
380.22	226.70
380.60	226.58
380.98	226.51
381.36	226.48
381.73	226.41
382.11	226.38
382.49	226.35
382.87	226.27
383.25	226.21
383.62	226.30
384.00	226.24
384.38	226.20
384.76	226.19
385.13	226.21
385.51	226.21
385.89	226.14
386.27	226.10
386.64	226.09
387.02	226.09
387.40	226.00
387.78	225.96
388.15	225.91
388.53	225.88
388.91	225.87
389.29	225.85
389.66	225.87
390.04	225.82
390.42	225.81
390.79	225.83
391.17	225.83
391.55	225.71
391.92	225.68
392.30	225.68
392.68	225.61
393.05	225.61
393.43	225.63
393.81	225.65
394.18	225.66
394.56	225.67
394.94	225.67
395.31	225.69
395.69	225.74
396.06	225.82
396.44	225.89
396.82	225.88
397.19	225.98
397.57	225.98
397.95	226.03
398.32	226.02
398.70	226.05
399.07	226.12
399.45	226.18
399.82	226.23
400.20	226.31
400.58	226.41
400.95	226.44
401.33	226.51
401.70	226.66
402.08	226.72
402.45	226.79
402.83	226.94
403.20	227.02
403.58	227.11
403.95	227.19
404.33	227.32
404.71	227.45
405.08	227.60
405.46	227.74
405.83	227.86
406.21	228.01
406.58	228.18
406.96	228.33
407.33	228.51
407.70	228.72
408.08	229.00
408.45	229.21
408.83	229.43
409.20	229.62
409.58	229.79
409.95	230.06
410.33	230.31
410.70	230.55
411.08	230.84
411.45	231.15
411.82	231.48
412.20	231.80
412.57	232.24
412.95	232.53
413.32	232.93
413.69	233.36
414.07	233.82
414.44	234.28
414.82	234.76
415.19	235.25
415.56	235.78
415.94	236.28
416.31	236.88
416.68	237.50
417.06	238.23
417.43	238.89
417.81	239.65
418.18	240.43
418.55	241.25
418.93	242.10
419.30	242.99
419.67	243.91
420.04	244.85
420.42	245.81
420.79	246.98
421.16	248.12
421.54	249.30
421.91	250.51
422.28	251.75
422.66	253.07
423.03	254.38
423.40	255.72
423.77	257.13
424.15	258.58
424.52	260.05
424.89	261.66
425.26	263.24
425.64	264.68
426.01	266.29
426.38	267.93
426.75	269.63
427.13	271.37
427.50	273.19
427.87	275.10
428.24	276.96
428.61	278.70
428.99	280.64
429.36	282.75
429.73	284.80
430.10	286.84
430.47	288.90
430.85	291.03
431.22	293.25
431.59	295.63
431.96	297.85
432.33	300.31
432.70	302.67
433.08	305.45
433.45	308.09
433.82	310.69
434.19	313.58
434.56	316.39
434.93	319.03
435.30	321.66
435.68	324.52
436.05	327.35
436.42	330.14
436.79	332.67
437.16	335.31
437.53	338.09
437.90	340.90
438.27	343.68
438.64	346.53
439.01	349.13
439.38	351.37
439.75	353.56
440.13	356.10
440.50	358.46
440.87	360.31
441.24	362.26
441.61	364.38
441.98	365.88
442.35	367.67
442.72	369.53
443.09	371.27
443.46	372.25
443.83	372.87
444.20	373.38
444.57	374.21
444.94	374.52
445.31	374.91
445.68	375.23
446.05	375.29
446.42	374.87
446.79	374.47
447.16	373.97
447.53	373.61
447.90	372.43
448.27	371.25
448.64	369.69
449.01	368.54
449.37	366.64
449.74	364.76
450.11	362.55
450.48	360.08
450.85	357.60
451.22	355.51
451.59	353.46
451.96	351.50
452.33	348.90
452.70	346.55
453.07	343.70
453.43	340.82
453.80	338.05
454.17	335.39
454.54	332.86
454.91	330.19
455.28	327.53
455.65	325.04
456.02	322.59
456.38	320.45
456.75	317.79
457.12	315.51
457.49	313.30
457.86	311.13
458.23	309.28
458.59	307.24
458.96	305.13
459.33	303.25
459.70	301.41
460.07	299.95
460.43	298.25
460.80	296.65
461.17	295.22
461.54	293.72
461.91	292.28
462.27	290.80
462.64	289.58
463.01	288.24
463.38	286.98
463.74	285.63
464.11	284.51
464.48	283.52
464.85	282.43
465.21	281.53
465.58	280.58
465.95	279.49
466.32	278.57
466.68	277.67
467.05	276.82
467.42	275.91
467.78	274.96
468.15	274.05
468.52	273.41
468.88	272.59
469.25	271.79
469.62	271.20
469.98	270.54
470.35	269.90
470.72	269.29
471.08	268.64
471.45	268.07
471.82	267.49
472.18	266.88
472.55	266.42
472.92	265.92
473.28	265.50
473.65	265.06
474.02	264.65
474.38	264.28
474.75	263.93
475.11	263.60
475.48	263.34
475.85	263.17
476.21	262.97
476.58	262.78
476.94	262.65
477.31	262.48
477.67	262.34
478.04	262.21
478.41	262.16
478.77	262.22
479.14	262.17
479.50	262.20
479.87	262.31
480.23	262.40
480.60	262.48
480.96	262.54
481.33	262.77
481.69	262.98
482.06	263.20
482.42	263.41
482.79	263.68
483.15	264.02
483.52	264.37
483.88	264.71
484.25	265.09
484.61	265.55
484.98	266.03
485.34	266.63
485.71	267.23
486.07	267.87
486.44	268.42
486.80	269.17
487.17	269.88
487.53	270.70
487.90	271.59
488.26	272.52
488.62	273.51
488.99	274.46
489.35	275.49
489.72	276.55
490.08	277.74
490.44	278.98
490.81	280.27
491.17	281.66
491.54	283.12
491.90	284.65
492.26	286.29
492.63	287.98
492.99	289.73
493.36	291.63
493.72	293.66
494.08	295.77
494.45	297.99
494.81	300.34
495.17	302.76
495.54	305.31
495.90	308.01
496.26	310.85
496.63	313.82
496.99	316.93
497.35	320.25
497.72	323.71
498.08	327.23
498.44	330.94
498.80	334.84
499.17	338.92
499.53	343.10
499.89	347.49
500.26	352.06
500.62	356.76
500.98	361.74
501.34	366.81
501.71	372.18
502.07	377.64
502.43	383.29
502.79	389.10
503.16	395.18
503.52	401.45
503.88	407.89
504.24	414.51
504.60	421.48
504.97	428.59
505.33	435.92
505.69	443.62
506.05	451.42
506.41	459.27
506.78	467.43
507.14	475.90
507.50	484.60
507.86	493.61
508.22	502.85
508.59	512.08
508.95	521.70
509.31	531.48
509.67	541.57
510.03	551.92
510.39	562.52
510.75	573.28
511.12	584.24
511.48	595.47
511.84	606.94
512.20	618.37
512.56	630.29
512.92	642.48
513.28	654.82
513.64	667.24
514.00	679.95
514.37	692.90
514.73	705.94
515.09	719.01
515.45	732.32
515.81	745.83
516.17	759.86
516.53	773.98
516.89	788.21
517.25	802.34
517.61	816.69
517.97	831.13
518.33	845.53
518.69	860.28
519.05	875.27
519.41	890.43
519.77	906.05
520.13	921.53
520.49	936.82
520.85	952.33
521.21	968.01
521.57	984.27
521.93	999.89
522.29	1016.23
522.65	1032.42
523.01	1048.57
523.37	1064.45
523.73	1080.52
524.09	1096.50
524.45	1112.67
524.81	1129.34
525.17	1146.10
525.53	1162.93
525.89	1179.73
526.25	1196.49
526.61	1212.84
526.97	1229.55
527.33	1245.83
527.68	1262.40
528.04	1278.91
528.40	1295.33
528.76	1312.35
529.12	1328.78
529.48	1345.67
529.84	1361.50
530.20	1378.11
530.56	1395.08
530.91	1412.47
531.27	1429.19
531.63	1445.70
531.99	1462.24
532.35	1478.10
532.71	1493.93
533.07	1510.11
533.42	1525.99
533.78	1542.05
534.14	1558.27
534.50	1573.56
534.86	1589.44
535.21	1604.53
535.57	1620.31
535.93	1635.77
536.29	1650.64
536.65	1665.64
537.00	1680.27
537.36	1695.55
537.72	1709.95
538.08	1724.30
538.44	1738.07
538.79	1751.96
539.15	1765.42
539.51	1779.13
539.87	1793.40
540.22	1806.94
540.58	1820.66
540.94	1833.84
541.29	1846.57
541.65	1859.19
542.01	1872.29
542.37	1884.53
542.72	1896.93
543.08	1908.77
543.44	1921.04
543.79	1931.99
544.15	1942.94
544.51	1954.62
544.87	1965.67
545.22	1976.47
545.58	1986.65
545.94	1996.33
546.29	2005.94
546.65	2015.74
547.01	2024.96
547.36	2033.55
547.72	2042.10
548.07	2050.01
548.43	2058.16
548.79	2066.18
549.14	2073.65
549.50	2081.01
549.86	2088.78
550.21	2096.01
550.57	2103.09
550.92	2109.58
551.28	2116.72
551.64	2123.82
551.99	2130.32
552.35	2136.43
552.70	2142.55
553.06	2148.50
553.41	2154.76
553.77	2160.92
554.13	2167.07
554.48	2173.18
554.84	2178.68
555.19	2183.96
555.55	2189.02
555.90	2193.52
556.26	2198.38
556.61	2203.06
556.97	2207.37
557.32	2211.35
557.68	2215.47
558.03	2219.87
558.39	2223.55
558.74	2228.30
559.10	2232.12
559.45	2235.62
559.81	2239.94
560.16	2243.73
560.52	2246.97
560.87	2250.45
561.23	2253.05
561.58	2256.05
561.94	2258.58
562.29	2261.10
562.64	2263.73
563.00	2266.26
563.35	2269.80
563.71	2272.84
564.06	2276.11
564.42	2278.90
564.77	2281.41
565.12	2283.73
565.48	2285.64
565.83	2287.68
566.19	2288.97
566.54	2289.89
566.89	2291.01
567.25	2291.71
567.60	2293.03
567.96	2294.78
568.31	2295.75
568.66	2297.03
569.02	2297.59
569.37	2297.91
569.72	2298.79
570.08	2299.03
570.43	2299.22
570.78	2298.85
571.14	2297.43
571.49	2296.16
571.84	2295.89
572.20	2294.87
572.55	2293.85
572.90	2292.20
573.26	2290.88
573.61	2289.23
573.96	2287.70
574.31	2284.89
574.67	2281.85
575.02	2278.27
575.37	2274.98
575.72	2271.19
576.08	2267.66
576.43	2264.32
576.78	2260.65
577.13	2257.42
577.49	2254.34
577.84	2250.87
578.19	2247.08
578.54	2243.58
578.90	2239.43
579.25	2233.92
579.60	2229.11
579.95	2224.20
580.30	2219.30
580.66	2214.17
581.01	2209.23
581.36	2204.43
581.71	2200.33
582.06	2195.84
582.42	2191.42
582.77	2186.14
583.12	2181.62
583.47	2177.06
583.82	2172.13
584.17	2166.94
584.53	2161.39
584.88	2155.72
585.23	2149.99
585.58	2144.50
585.93	2138.93
586.28	2134.24
586.63	2129.21
586.98	2124.10
587.34	2119.32
587.69	2114.44
588.04	2109.26
588.39	2103.57
588.74	2096.89
589.09	2090.72
589.44	2084.01
589.79	2078.14
590.14	2072.59
590.49	2066.17
590.84	2059.84
591.19	2053.78
591.54	2047.48
591.89	2040.23
592.25	2033.56
592.60	2026.40
592.95	2018.82
593.30	2011.65
593.65	2003.94
594.00	1996.92
594.35	1989.67
594.70	1981.67
595.05	1974.50
595.40	1967.18
595.75	1959.67
596.10	1953.56
596.45	1946.92
596.80	1940.75
597.15	1934.10
597.50	1927.07
597.85	1920.56
598.19	1913.84
598.54	1906.76
598.89	1900.14
599.24	1894.29
599.59	1887.56
599.94	1881.43
600.29	1875.16
600.64	1868.59
600.99	1861.22
601.34	1854.51
601.69	1847.55
602.04	1840.80
602.39	1833.40
602.74	1826.62
603.08	1819.85
603.43	1813.08
603.78	1805.84
604.13	1798.60
604.48	1791.38
604.83	1784.45
605.18	1777.55
605.53	1769.73
605.87	1761.82
606.22	1754.44
606.57	1746.56
606.92	1739.31
607.27	1732.01
607.62	1725.17
607.96	1717.77
608.31	1711.12
608.66	1703.53
609.01	1696.08
609.36	1688.46
609.70	1680.46
610.05	1672.40
610.40	1664.76
610.75	1656.45
611.10	1648.63
611.44	1640.22
611.79	1632.17
612.14	1623.47
612.49	1614.19
612.83	1605.77
613.18	1597.62
613.53	1589.62
613.88	1581.00
614.22	1572.72
614.57	1564.13
614.92	1555.96
615.27	1548.57
615.61	1540.29
615.96	1532.24
616.31	1524.65
616.65	1517.31
617.00	1509.72
617.35	1502.00
617.70	1493.68
618.04	1485.21
618.39	1476.93
618.74	1469.40
619.08	1461.17
619.43	1453.54
619.78	1446.69
620.12	1439.48
620.47	1432.00
620.82	1423.83
621.16	1416.47
621.51	1408.88
621.85	1401.32
622.20	1392.82
622.55	1384.36
622.89	1376.44
623.24	1368.69
623.59	1361.19
623.93	1353.64
624.28	1346.45
624.62	1338.84
624.97	1331.71
625.32	1324.99
625.66	1318.05
626.01	1310.87
626.35	1303.31
626.70	1295.62
627.04	1287.90
627.39	1280.11
627.73	1272.63
628.08	1265.68
628.43	1258.28
628.77	1250.86
629.12	1243.35
629.46	1236.29
629.81	1228.83
630.15	1221.67
630.50	1214.30
630.84	1206.08
631.19	1198.16
631.53	1190.61
631.88	1183.15
632.22	1175.55
632.57	1168.16
632.91	1160.68
633.26	1153.22
633.60	1145.88
633.95	1138.88
634.29	1131.73
634.64	1125.03
634.98	1117.73
635.32	1110.54
635.67	1104.06
636.01	1097.40
636.36	1090.61
636.70	1083.97
637.05	1077.46
637.39	1070.99
637.73	1064.51
638.08	1058.64
638.42	1052.69
638.77	1046.24
639.11	1039.77
639.45	1033.41
639.80	1026.71
640.14	1020.30
640.49	1013.76
640.83	1007.33
641.17	1000.95
641.52	994.64
641.86	988.10
642.20	982.25
642.55	976.04
642.89	969.48
643.23	962.95
643.58	957.10
643.92	950.90
644.26	944.79
644.61	938.66
644.95	932.61
645.29	926.05
645.64	919.25
645.98	912.87
646.32	906.88
646.66	900.85
647.01	895.10
647.35	889.26
647.69	883.47
648.04	878.02
648.38	872.27
648.72	866.28
649.06	860.26
649.41	854.27
649.75	848.17
650.09	842.24
650.43	836.45
650.78	830.20
651.12	824.29
651.46	818.55
651.80	812.87
652.14	807.44
652.49	802.00
652.83	796.77
653.17	791.21
653.51	785.49
653.85	779.96
654.20	774.30
654.54	768.35
654.88	762.60
655.22	756.69
655.56	751.00
655.90	745.55
656.25	740.36
656.59	735.06
656.93	730.04
657.27	724.85
657.61	719.37
657.95	714.37
658.29	709.27
658.64	704.06
658.98	698.70
659.32	693.25
659.66	688.06
660.00	682.80
660.34	677.75
660.68	672.85
661.02	667.86
661.36	663.20
661.70	658.71
662.05	654.31
662.39	649.99
662.73	645.49
663.07	641.13
663.41	636.63
663.75	632.16
664.09	627.58
664.43	623.23
664.77	619.15
665.11	614.88
665.45	610.77
665.79	606.69
666.13	602.59
666.47	598.50
666.81	594.32
667.15	590.20
667.49	586.34
667.83	582.51
668.17	578.56
668.51	574.40
668.85	570.36
669.19	566.53
669.53	562.67
669.87	558.82
670.21	555.13
670.55	551.53
670.89	548.08
671.23	544.65
671.57	541.14
671.91	537.58
672.25	534.07
672.58	530.47
672.92	527.05
673.26	523.84
673.60	520.67
673.94	517.56
674.28	514.68
674.62	511.74
674.96	508.61
675.30	505.71
675.64	502.75
675.97	500.00
676.31	497.11
676.65	494.16
676.99	491.40
677.33	488.51
677.67	485.68
678.01	482.65
678.34	479.65
678.68	476.73
679.02	473.92
679.36	471.13
679.70	468.47
680.04	465.73
680.37	462.85
680.71	460.04
681.05	457.44
681.39	454.68
681.73	451.96
682.06	449.44
682.40	446.87
682.74	444.39
683.08	441.85
683.42	439.24
683.75	436.77
684.09	434.24
684.43	431.76
684.77	429.31
685.10	426.92
685.44	424.64
685.78	422.39
686.12	420.12
686.45	417.87
686.79	415.48
687.13	413.25
687.46	411.11
687.80	408.98
688.14	406.74
688.48	404.67
688.81	402.46
689.15	400.27
689.49	398.15
689.82	396.05
690.16	393.92
690.50	392.00
690.83	390.05
691.17	388.10
691.51	386.25
691.84	384.37
692.18	382.44
692.52	380.38
692.85	378.40
693.19	376.50
693.52	374.63
693.86	372.84
694.20	371.09
694.53	369.30
694.87	367.43
695.21	365.63
695.54	363.82
695.88	362.07
696.21	360.38
696.55	358.69
696.88	356.99
697.22	355.33
697.56	353.68
697.89	352.00
698.23	350.38
698.56	348.73
698.90	347.14
699.23	345.52
699.57	344.04
699.90	342.52
700.24	341.02
700.58	339.50
700.91	338.01
701.25	336.56
701.58	335.14
701.92	333.76
702.25	332.40
702.59	331.01
702.92	329.70
703.26	328.38
703.59	327.07
703.93	325.85
704.26	324.60
704.60	323.30
704.93	322.04
705.26	320.80
705.60	319.60
705.93	318.44
706.27	317.38
706.60	316.31
706.94	315.22
707.27	314.10
707.61	313.04
707.94	312.03
708.27	310.91
708.61	309.86
708.94	308.87
709.28	307.89
709.61	306.91
709.94	305.92
710.28	304.89
710.61	303.94
710.95	302.91
711.28	302.01
711.61	301.07
711.95	300.13
712.28	299.17
712.61	298.18
712.95	297.24
713.28	296.36
713.61	295.44
713.95	294.56
714.28	293.71
714.61	292.83
714.95	291.97
715.28	291.12
715.61	290.27
715.95	289.43
716.28	288.54
716.61	287.73
716.95	286.96
717.28	286.23
717.61	285.45
717.94	284.74
718.28	283.92
718.61	283.19
718.94	282.47
719.27	281.83
719.61	281.18
719.94	280.57
720.27	279.83
720.60	279.17
720.94	278.54
721.27	277.93
721.60	277.35
721.93	276.74
722.27	276.18
722.60	275.62
722.93	275.03
723.26	274.51
723.59	273.94
723.93	273.37
724.26	272.81
724.59	272.23
724.92	271.71
725.25	271.25
725.59	270.75
725.92	270.28
726.25	269.75
726.58	269.26
726.91	268.73
727.24	268.27
727.57	267.81
727.91	267.30
728.24	266.81
728.57	266.32
728.90	265.89
729.23	265.39
729.56	264.99
729.89	264.51
730.22	264.03
730.55	263.57
730.89	263.16
731.22	262.70
731.55	262.29
731.88	261.85
732.21	261.41
732.54	261.00
732.87	260.60
733.20	260.21
733.53	259.81
733.86	259.46
734.19	259.08
734.52	258.71
734.85	258.45
735.18	258.03
735.51	257.65
735.84	257.29
736.17	256.96
736.50	256.54
736.83	256.33
737.16	256.01
737.49	255.71
737.82	255.34
738.15	255.00
738.48	254.69
738.81	254.33
739.14	254.00
739.47	253.68
739.80	253.35
740.13	253.04
740.46	252.70
740.79	252.36
741.12	252.05
741.45	251.75
741.78	251.36
742.11	251.09
742.44	250.79
742.77	250.48
743.10	250.19
743.43	249.88
743.75	249.48
744.08	249.33
744.41	249.03
744.74	248.78
745.07	248.48
745.40	248.22
745.73	248.02
746.06	247.73
746.39	247.46
746.71	247.17
747.04	246.92
747.37	246.68
747.70	246.45
748.03	246.20
748.36	245.97
748.68	245.71
749.01	245.47
749.34	245.24
749.67	245.01
750.00	244.77
750.33	244.60
750.65	244.40
750.98	244.04
751.31	243.83
751.64	243.58
751.97	243.45
752.29	243.24
752.62	242.98
752.95	242.81
753.28	242.57
753.60	242.41
753.93	242.22
754.26	242.02
754.59	241.80
754.91	241.63
755.24	241.41
755.57	241.26
755.90	241.08
756.22	240.87
756.55	240.66
756.88	240.47
757.20	240.22
757.53	240.00
757.86	239.88
758.19	239.70
758.51	239.56
758.84	239.34
759.17	239.14
759.49	239.00
759.82	238.84
760.15	238.70
760.47	238.51
760.80	238.29
761.13	238.19
761.45	238.03
761.78	237.85
762.11	237.73
762.43	237.57
762.76	237.42
763.08	237.32
763.41	237.19
763.74	237.08
764.06	236.98
764.39	236.85
764.71	236.67
765.04	236.58
765.37	236.43
765.69	236.29
766.02	236.19
766.34	236.03
766.67	235.91
767.00	235.81
767.32	235.76
767.65	235.76
767.97	235.64
768.30	235.52
768.62	235.43
768.95	235.29
769.27	235.17
769.60	235.08
769.92	234.95
770.25	234.84
770.57	234.71
770.90	234.58
771.22	234.48
771.55	234.41
771.87	234.25
772.20	234.16
772.52	234.16
772.85	234.16
773.17	234.10
773.50	234.01
773.82	233.92
774.15	233.81
774.47	233.66
774.80	233.54
775.12	233.48
775.45	233.38
775.77	233.33
776.09	233.27
776.42	233.17
776.74	233.14
777.07	233.06
777.39	232.99
777.72	232.95
778.04	232.90
778.36	232.83
778.69	232.83
779.01	232.77
779.33	232.63
779.66	232.48
779.98	232.39
780.31	232.33
780.63	232.29
780.95	232.24
781.28	232.19
781.60	232.12
781.92	232.06
782.25	232.01
782.57	231.95
782.89	231.87
783.22	231.81
783.54	231.73
783.86	231.70
784.19	231.65
784.51	231.62
784.83	231.56
785.16	231.51
785.48	231.46
785.80	231.42
786.12	231.37
786.45	231.31
786.77	231.26
787.09	231.21
787.42	231.12
787.74	231.04
788.06	230.97
788.38	230.92
788.71	230.83
789.03	230.80
789.35	230.77
789.67	230.68
789.99	230.66
790.32	230.62
790.64	230.57
790.96	230.59
791.28	230.50
791.61	230.47
791.93	230.41
792.25	230.35
792.57	230.36
792.89	230.28
793.21	230.23
793.54	230.17
793.86	230.12
794.18	230.10
794.50	230.06
794.82	230.00
795.14	229.98
795.47	229.99
795.79	229.95
796.11	229.86
796.43	229.82
796.75	229.76
797.07	229.71
797.39	229.64
797.71	229.54
798.04	229.50
798.36	229.43
798.68	229.40
799.00	229.37
799.32	229.30
799.64	229.32
799.96	229.24
800.28	229.27
800.60	229.24
800.92	229.20
801.24	229.15
801.56	229.15
801.89	229.12
802.21	229.05
802.53	229.01
802.85	229.00
803.17	229.02
803.49	229.00
803.81	228.98
804.13	228.99
804.45	228.94
804.77	228.96
805.09	228.93
805.41	228.91
805.73	228.85
806.05	228.81
806.37	228.76
806.69	228.79
807.01	228.72
807.33	228.72
807.65	228.66
807.97	228.69
808.28	228.66
808.60	228.65
808.92	228.63
809.24	228.67
809.56	228.65
809.88	228.65
810.20	228.61
810.52	228.59
810.84	228.55
811.16	228.54
811.48	228.48
811.80	228.54
812.12	228.48
812.43	228.48
812.75	228.45
813.07	228.42
813.39	228.40
813.71	228.40
814.03	228.34
814.35	228.36
814.67	228.31
814.98	228.28
815.30	228.25
815.62	228.23
815.94	228.14
816.26	228.17
816.58	228.06
816.89	228.09
817.21	228.07
817.53	228.08
817.85	228.07
818.17	228.07
818.48	227.96
818.80	228.02
819.12	227.97
819.44	227.92
819.76	227.92
820.07	227.88
820.39	227.82
820.71	227.84
821.03	227.78
821.34	227.73
821.66	227.77
821.98	227.77
822.30	227.76
822.61	227.83
822.93	227.77
823.25	227.77
823.57	227.73
823.88	227.75
824.20	227.70
824.52	227.71
824.83	227.68
825.15	227.70
825.47	227.68
825.79	227.70
826.10	227.70
826.42	227.71
826.74	227.70
827.05	227.71
827.37	227.68
827.69	227.69
828.00	227.70
828.32	227.67
828.64	227.67
828.95	227.74
829.27	227.68
829.58	227.66
829.90	227.70
830.22	227.70
830.53	227.63
830.85	227.65
831.17	227.60
831.48	227.61
831.80	227.60
832.11	227.56
832.43	227.52
832.75	227.51
833.06	227.52
833.38	227.48
833.69	227.48
834.01	227.46
834.32	227.43
834.64	227.42
834.96	227.36
835.27	227.33
835.59	227.22
835.90	227.16
836.22	227.15
836.53	227.10
836.85	227.07
837.16	227.16
837.48	227.09
837.79	227.09
838.11	227.07
838.42	227.03
838.74	227.05
839.05	227.03
839.37	227.00
839.68	226.94
840.00	226.92
840.31	226.92
840.63	226.93
840.94	226.88
841.26	226.87
841.57	226.90
841.88	226.86
842.20	226.85
842.51	226.85
842.83	226.82
843.14	226.92
843.46	226.93
843.77	226.85
844.08	226.87
844.40	226.86
844.71	226.84
845.03	226.85
845.34	226.82
845.65	226.82
845.97	226.82
846.28	226.82
846.60	226.82
846.91	226.82
847.22	226.80
847.54	226.87
847.85	226.87
848.16	226.86
848.48	226.83
848.79	226.90
849.10	226.91
849.42	226.90
849.73	226.78
850.04	226.76
850.36	226.72
850.67	226.73
850.98	226.73
851.30	226.75
851.61	226.77
851.92	226.75
852.23	226.75
852.55	226.75
852.86	226.75
853.17	226.78
853.49	226.76
853.80	226.78
854.11	226.75
854.42	226.75
854.74	226.72
855.05	226.77
855.36	226.69
855.67	226.71
855.99	226.79
856.30	226.94
856.61	226.94
856.92	226.97
857.23	226.96
857.55	226.96
857.86	226.92
858.17	226.91
858.48	226.89
858.79	226.88
859.11	226.89
859.42	226.91
859.73	226.86
860.04	226.87
860.35	226.82
860.66	226.79
860.98	226.77
861.29	226.78
861.60	226.75
861.91	226.78
862.22	226.76
862.53	226.70
862.84	226.55
863.16	226.57
863.47	226.54
863.78	226.52
864.09	226.52
864.40	226.52
864.71	226.51
865.02	226.53
865.33	226.51
865.64	226.50
865.95	226.47
866.27	226.53
866.58	226.47
866.89	226.50
867.20	226.49
867.51	226.45
867.82	226.44
868.13	226.45
868.44	226.42
868.75	226.41
869.06	226.40
869.37	226.40
869.68	226.36
869.99	226.38
870.30	226.38
870.61	226.40
870.92	226.38
871.23	226.37
871.54	226.38
871.85	226.41
872.16	226.39
872.47	226.37
872.78	226.34
873.09	226.39
873.40	226.37
873.71	226.38
874.02	226.39
874.33	226.36
874.64	226.32
874.95	226.31
875.26	226.26
875.56	226.27
875.87	226.23
876.18	226.22
876.49	226.29
876.80	226.27
877.11	226.22
877.42	226.22
877.73	226.21
878.04	226.17
878.35	226.13
878.66	226.12
878.96	226.11
879.27	226.07
879.58	226.04
879.89	226.03
880.20	226.04
880.51	226.05
880.82	226.07
881.12	226.08
881.43	226.07
881.74	226.09
882.05	226.07
882.36	226.08
882.67	226.10
882.97	226.03
883.28	226.02
883.59	226.03
883.90	226.02
884.21	226.03
884.51	226.05
884.82	226.06
885.13	226.08
885.44	226.08
885.74	226.08
886.05	226.09
886.36	226.10
886.67	226.09
886.98	226.15
887.28	226.16
887.59	226.19
887.90	226.19
888.20	226.18
888.51	226.22
888.82	226.22
889.13	226.25
889.43	226.30
889.74	226.31
890.05	226.31
890.35	226.32
890.66	226.30
890.97	226.26
891.28	226.25
891.58	226.27
891.89	226.26
892.20	226.29
892.50	226.30
892.81	226.29
893.12	226.29
893.42	226.26
893.73	226.24
894.04	226.24
894.34	226.26
894.65	226.26
894.95	226.24
895.26	226.24
895.57	226.24
895.87	226.15
896.18	226.18
896.48	226.19
896.79	226.19
897.10	226.23
897.40	226.25
897.71	226.27
898.01	226.25
898.32	226.27
898.63	226.25
898.93	226.25
899.24	226.28
899.54	226.26
899.85	226.25
900.15	226.24
900.46	226.22
900.76	226.23
901.07	226.24
901.38	226.23
901.68	226.25
901.99	226.22
902.29	226.25
902.60	226.23
902.90	226.24
903.21	226.24
903.51	226.18
903.82	226.21
904.12	226.19
904.43	226.21
904.73	226.20
905.03	226.20
905.34	226.29
905.64	226.26
905.95	226.24
906.25	226.26
906.56	226.28
906.86	226.33
907.17	226.34
907.47	226.32
907.77	226.34
908.08	226.31
908.38	226.34
908.69	226.31
908.99	226.35
909.30	226.33
909.60	226.33
909.90	226.37
910.21	226.33
910.51	226.32
910.81	226.30
911.12	226.34
911.42	226.35
911.73	226.25
912.03	226.26
912.33	226.25
912.64	226.26
912.94	226.23
913.24	226.16
913.55	226.11
913.85	226.12
914.15	226.11
914.46	226.10
914.76	226.09
915.06	226.08
915.37	226.00
915.67	225.97
915.97	225.97
916.27	225.93
916.58	225.94
916.88	225.95
917.18	225.93
917.49	225.97
917.79	225.96
918.09	225.94
918.39	225.94
918.70	225.97
919.00	225.93
919.30	225.96
919.60	225.98
919.91	225.99
920.21	225.98
920.51	225.96
920.81	225.96
921.12	225.96
921.42	225.97
921.72	226.03
922.02	226.03
922.32	226.03
922.63	226.04
922.93	226.08
923.23	226.06
923.53	226.04
923.83	225.97
924.13	225.98
924.44	226.02
924.74	226.07
925.04	226.09
925.34	226.09
925.64	226.08
925.94	226.07
926.24	226.12
926.55	226.13
926.85	226.11
927.15	226.09
927.45	226.10
927.75	226.10
928.05	226.11
928.35	226.11
928.65	226.13
928.95	226.11
929.26	226.08
929.56	226.11
929.86	226.13
930.16	226.12
930.46	226.11
930.76	226.10
931.06	226.03
931.36	226.00
931.66	226.04
931.96	226.01
932.26	225.99
932.56	225.97
932.86	225.98
933.16	226.02
933.46	226.05
933.76	226.03
934.06	226.01
934.36	226.04
934.66	226.08
934.96	226.06
935.26	226.09
935.56	226.12
935.86	226.11
936.16	226.09
936.46	226.09
936.76	226.10
937.06	226.09
937.36	226.12
937.66	226.13
937.96	226.11
938.26	226.10
938.56	226.11
938.86	226.10
939.16	226.14
939.46	226.12
939.76	226.12
940.06	226.11
940.35	226.12
940.65	226.02
940.95	226.01
941.25	225.99
941.55	225.97
941.85	225.95
942.15	225.97
942.45	226.01
942.75	226.03
943.04	226.03
943.34	226.05
943.64	226.03
943.94	226.00
944.24	226.02
944.54	226.04
944.84	226.03
945.13	226.01
945.43	225.96
945.73	225.99
946.03	225.97
946.33	225.99
946.62	225.97
946.92	226.00
947.22	226.00
947.52	226.01
947.82	226.02
948.11	226.01
948.41	225.97
948.71	225.92
949.01	225.91
949.31	225.89
949.60	225.90
949.90	225.91
950.20	225.92
950.50	225.85
950.79	225.83
951.09	225.84
951.39	225.84
951.69	225.83
951.98	225.81
952.28	225.80
952.58	225.79
952.87	225.80
953.17	225.81
953.47	225.80
953.76	225.80
954.06	225.80
954.36	225.80
954.66	225.80
954.95	225.87
955.25	225.86
955.55	225.86
955.84	225.81
956.14	225.81
956.44	225.84
956.73	225.85
957.03	225.85
957.32	225.85
957.62	225.84
957.92	225.86
958.21	225.88
958.51	226.00
958.81	226.01
959.10	226.02
959.40	226.03
959.69	226.05
959.99	226.08
960.29	226.09
960.58	226.11
960.88	226.14
961.17	226.12
961.47	226.16
961.76	226.18
962.06	226.19
962.36	226.19
962.65	226.18
962.95	226.23
963.24	226.26
963.54	226.25
963.83	226.28
964.13	226.28
964.42	226.25
964.72	226.19
965.01	226.19
965.31	226.19
965.60	226.20
965.90	226.27
966.19	226.26
966.49	226.29
966.78	226.27
967.08	226.28
967.37	226.26
967.67	226.26
967.96	226.23
968.26	226.24
968.55	226.26
968.85	226.25
969.14	226.23
969.43	226.22
969.73	226.22
970.02	226.21
970.32	226.22
970.61	226.22
970.91	226.18
971.20	226.16
971.49	226.15
971.79	226.17
972.08	226.06
972.38	226.02
972.67	225.98
972.96	225.97
973.26	225.93
973.55	225.96
973.85	225.96
974.14	225.97
974.43	225.98
974.73	225.96
975.02	225.97
975.31	225.97
975.61	225.96
975.90	225.95
976.19	225.94
976.49	225.92
976.78	225.92
977.07	225.93
977.37	225.95
977.66	225.95
977.95	225.92
978.24	225.95
978.54	226.00
978.83	226.02
979.12	226.02
979.42	226.06
979.71	226.05
980.00	226.02
980.29	226.03
980.59	226.02
980.88	226.01
981.17	225.99
981.46	226.00
981.76	226.04
982.05	226.10
982.34	226.12
982.63	226.12
982.93	226.14
983.22	226.17
983.51	226.16
983.80	226.17
984.09	226.18
984.39	226.16
984.68	226.13
984.97	226.11
985.26	226.10
985.55	226.08
985.85	226.03
986.14	226.06
986.43	226.07
986.72	226.05
987.01	226.04
987.30	226.07
987.59	226.03
987.89	226.02
988.18	225.99
988.47	225.97
988.76	225.94
989.05	225.89
989.34	225.85
989.63	225.84
989.92	225.82
990.22	225.81
990.51	225.81
990.80	225.81
991.09	225.84
991.38	225.86
991.67	225.86
991.96	225.85
992.25	225.87
992.54	225.80
992.83	225.82
993.12	225.82
993.41	225.78
993.70	225.83
993.99	225.80
994.28	225.77
994.58	225.79
994.87	225.79
995.16	225.79
995.45	225.81
995.74	225.80
996.03	225.81
996.32	225.82
996.61	225.85
996.90	225.86
997.19	225.83
997.48	225.81
997.77	225.81
998.06	225.82
998.34	225.77
998.63	225.80
998.92	225.78
999.21	225.80
999.50	225.83
999.79	225.80
1000.08	225.82
1000.37	225.80
1000.66	225.79
1000.95	225.80
1001.24	225.80
1001.53	225.80
1001.82	225.82
1002.11	225.83
1002.40	225.83
1002.68	225.87
1002.97	225.90
1003.26	225.93
1003.55	225.93
1003.84	225.92
1004.13	225.95
1004.42	225.98
1004.71	225.99
1004.99	226.03
1005.28	226.02
1005.57	226.04
1005.86	226.05
1006.15	226.05
1006.44	226.08
1006.72	226.09
1007.01	226.09
1007.30	226.13
1007.59	226.15
1007.88	226.14
1008.17	226.14
1008.45	226.12
1008.74	226.06
1009.03	226.04
1009.32	226.01
1009.60	226.03
1009.89	226.03
1010.18	226.00
1010.47	226.00
1010.76	226.02
1011.04	226.00
1011.33	226.02
1011.62	226.00
1011.91	226.02
1012.19	226.03
1012.48	226.06
1012.77	226.08
1013.05	226.14
1013.34	226.14
1013.63	226.14
1013.92	226.18
1014.20	226.16
1014.49	226.17
1014.78	226.21
1015.06	226.16
1015.35	226.17
1015.64	226.18
1015.92	226.19
1016.21	226.20
1016.50	226.22
1016.78	226.22
1017.07	226.23
1017.36	226.21
1017.64	226.21
1017.93	226.19
1018.22	226.18
1018.50	226.15
1018.79	226.12
1019.08	226.07
1019.36	226.07
1019.65	226.04
1019.93	226.01
1020.22	226.03
1020.51	226.08
1020.79	226.03
1021.08	225.90
1021.36	226.02
1021.65	225.62
1021.94	225.84
1022.22	226.32
1022.51	225.60
1022.79	226.20
1023.08	226.18
1023.36	227.13
1023.65	225.37
>>>>>End Processed Spectral Data<<<<<
