SpectraSuite Data File
++++++++++++++++++++++++++++++++++++
Date: Fri Feb 01 15:26:05 EST 2013
User: group
Dark Spectrum Present: No
Reference Spectrum Present: No
Number of Sampled Component Spectra: 1
Spectrometers: USB2E7196
Integration Time (usec): 35000 (USB2E7196)
Spectra Averaged: 100 (USB2E7196)
Boxcar Smoothing: 10 (USB2E7196)
Correct for Electrical Dark: No (USB2E7196)
Strobe/Lamp Enabled: No (USB2E7196)
Correct for Detector Non-linearity: No (USB2E7196)
Correct for Stray Light: No (USB2E7196)
Number of Pixels in Processed Spectrum: 2048
>>>>>Begin Processed Spectral Data<<<<<
339.09	0.00
339.48	215.06
339.86	216.33
340.24	217.11
340.63	219.21
341.01	222.00
341.39	221.94
341.78	223.01
342.16	224.72
342.54	225.07
342.93	213.31
343.31	224.09
343.69	224.62
344.07	225.08
344.46	225.54
344.84	225.93
345.22	226.16
345.60	226.43
345.99	226.63
346.37	226.71
346.75	226.81
347.13	226.88
347.52	226.95
347.90	226.98
348.28	226.99
348.66	227.02
349.05	227.01
349.43	227.09
349.81	227.09
350.19	227.16
350.57	227.21
350.96	227.32
351.34	227.39
351.72	227.48
352.10	227.59
352.48	227.68
352.87	227.74
353.25	227.81
353.63	227.85
354.01	227.92
354.39	228.05
354.77	228.14
355.15	228.25
355.54	228.29
355.92	228.35
356.30	228.45
356.68	228.61
357.06	228.68
357.44	228.72
357.82	228.80
358.20	228.86
358.58	228.96
358.97	228.97
359.35	229.07
359.73	229.14
360.11	229.20
360.49	229.24
360.87	229.29
361.25	229.34
361.63	229.42
362.01	229.48
362.39	229.48
362.77	229.50
363.15	229.52
363.53	229.54
363.91	229.56
364.29	229.55
364.67	229.47
365.05	229.50
365.43	229.55
365.81	229.58
366.19	229.59
366.57	229.59
366.95	229.60
367.33	229.56
367.71	229.54
368.09	229.55
368.47	229.51
368.85	229.47
369.23	229.46
369.61	229.40
369.99	229.38
370.37	229.37
370.75	229.39
371.13	229.31
371.51	229.28
371.89	229.25
372.27	229.22
372.65	229.14
373.03	229.08
373.41	228.98
373.78	228.92
374.16	228.81
374.54	228.71
374.92	228.62
375.30	228.54
375.68	228.46
376.06	228.37
376.44	228.31
376.82	228.22
377.19	228.17
377.57	228.10
377.95	227.98
378.33	227.89
378.71	227.76
379.09	227.71
379.47	227.66
379.84	227.52
380.22	227.45
380.60	227.37
380.98	227.29
381.36	227.23
381.73	227.16
382.11	227.11
382.49	227.05
382.87	227.01
383.25	226.94
383.62	226.99
384.00	226.89
384.38	226.82
384.76	226.80
385.13	226.76
385.51	226.72
385.89	226.71
386.27	226.68
386.64	226.65
387.02	226.58
387.40	226.52
387.78	226.53
388.15	226.46
388.53	226.43
388.91	226.40
389.29	226.39
389.66	226.35
390.04	226.32
390.42	226.33
390.79	226.31
391.17	226.31
391.55	226.19
391.92	226.19
392.30	226.23
392.68	226.20
393.05	226.20
393.43	226.22
393.81	226.21
394.18	226.18
394.56	226.21
394.94	226.27
395.31	226.32
395.69	226.36
396.06	226.44
396.44	226.46
396.82	226.53
397.19	226.64
397.57	226.67
397.95	226.73
398.32	226.76
398.70	226.83
399.07	226.91
399.45	226.97
399.82	227.05
400.20	227.12
400.58	227.20
400.95	227.24
401.33	227.33
401.70	227.48
402.08	227.57
402.45	227.66
402.83	227.79
403.20	227.88
403.58	227.98
403.95	228.10
404.33	228.28
404.71	228.36
405.08	228.51
405.46	228.67
405.83	228.83
406.21	228.98
406.58	229.14
406.96	229.29
407.33	229.49
407.70	229.71
408.08	229.97
408.45	230.21
408.83	230.46
409.20	230.68
409.58	230.85
409.95	231.17
410.33	231.44
410.70	231.69
411.08	231.99
411.45	232.29
411.82	232.60
412.20	232.92
412.57	233.35
412.95	233.61
413.32	234.03
413.69	234.42
414.07	234.87
414.44	235.34
414.82	235.86
415.19	236.42
415.56	236.94
415.94	237.48
416.31	238.12
416.68	238.72
417.06	239.42
417.43	240.15
417.81	240.89
418.18	241.69
418.55	242.53
418.93	243.36
419.30	244.28
419.67	245.20
420.04	246.18
420.42	247.16
420.79	248.36
421.16	249.50
421.54	250.70
421.91	251.92
422.28	253.17
422.66	254.51
423.03	255.79
423.40	257.15
423.77	258.55
424.15	259.93
424.52	261.42
424.89	263.04
425.26	264.57
425.64	266.00
426.01	267.60
426.38	269.24
426.75	270.97
427.13	272.65
427.50	274.51
427.87	276.43
428.24	278.30
428.61	280.02
428.99	281.98
429.36	284.08
429.73	286.13
430.10	288.15
430.47	290.19
430.85	292.30
431.22	294.52
431.59	296.90
431.96	299.16
432.33	301.67
432.70	304.04
433.08	306.83
433.45	309.52
433.82	312.13
434.19	315.06
434.56	317.88
434.93	320.60
435.30	323.21
435.68	326.04
436.05	328.88
436.42	331.68
436.79	334.18
437.16	336.90
437.53	339.72
437.90	342.57
438.27	345.31
438.64	348.17
439.01	350.80
439.38	353.03
439.75	355.23
440.13	357.74
440.50	360.06
440.87	361.98
441.24	363.90
441.61	366.03
441.98	367.49
442.35	369.23
442.72	371.09
443.09	372.86
443.46	373.87
443.83	374.44
444.20	374.96
444.57	375.80
444.94	376.10
445.31	376.49
445.68	376.80
446.05	376.89
446.42	376.49
446.79	376.07
447.16	375.64
447.53	375.28
447.90	374.08
448.27	372.92
448.64	371.30
449.01	370.11
449.37	368.16
449.74	366.26
450.11	364.00
450.48	361.48
450.85	358.94
451.22	356.79
451.59	354.75
451.96	352.79
452.33	350.20
452.70	347.83
453.07	344.98
453.43	342.09
453.80	339.30
454.17	336.64
454.54	334.03
454.91	331.32
455.28	328.66
455.65	326.17
456.02	323.70
456.38	321.55
456.75	318.92
457.12	316.67
457.49	314.50
457.86	312.37
458.23	310.51
458.59	308.48
458.96	306.44
459.33	304.60
459.70	302.77
460.07	301.28
460.43	299.55
460.80	297.92
461.17	296.45
461.54	294.98
461.91	293.54
462.27	292.14
462.64	290.86
463.01	289.50
463.38	288.22
463.74	286.86
464.11	285.66
464.48	284.62
464.85	283.51
465.21	282.56
465.58	281.63
465.95	280.56
466.32	279.62
466.68	278.67
467.05	277.76
467.42	276.83
467.78	275.87
468.15	275.00
468.52	274.34
468.88	273.53
469.25	272.74
469.62	272.11
469.98	271.44
470.35	270.85
470.72	270.24
471.08	269.57
471.45	269.05
471.82	268.53
472.18	267.96
472.55	267.53
472.92	267.05
473.28	266.57
473.65	266.13
474.02	265.73
474.38	265.37
474.75	265.07
475.11	264.76
475.48	264.49
475.85	264.24
476.21	263.97
476.58	263.78
476.94	263.63
477.31	263.46
477.67	263.30
478.04	263.17
478.41	263.07
478.77	263.12
479.14	263.03
479.50	263.02
479.87	263.07
480.23	263.13
480.60	263.15
480.96	263.25
481.33	263.46
481.69	263.61
482.06	263.82
482.42	263.99
482.79	264.24
483.15	264.56
483.52	264.95
483.88	265.33
484.25	265.69
484.61	266.10
484.98	266.54
485.34	267.04
485.71	267.62
486.07	268.25
486.44	268.81
486.80	269.55
487.17	270.29
487.53	271.10
487.90	271.92
488.26	272.85
488.62	273.85
488.99	274.81
489.35	275.84
489.72	276.95
490.08	278.19
490.44	279.49
490.81	280.80
491.17	282.16
491.54	283.65
491.90	285.18
492.26	286.89
492.63	288.64
492.99	290.42
493.36	292.31
493.72	294.38
494.08	296.50
494.45	298.71
494.81	301.07
495.17	303.52
495.54	306.12
495.90	308.78
496.26	311.60
496.63	314.50
496.99	317.63
497.35	320.89
497.72	324.26
498.08	327.68
498.44	331.35
498.80	335.27
499.17	339.30
499.53	343.45
499.89	347.75
500.26	352.30
500.62	356.99
500.98	361.94
501.34	366.97
501.71	372.29
502.07	377.70
502.43	383.31
502.79	389.06
503.16	395.14
503.52	401.44
503.88	407.85
504.24	414.57
504.60	421.47
504.97	428.61
505.33	435.95
505.69	443.67
506.05	451.52
506.41	459.37
506.78	467.51
507.14	475.99
507.50	484.72
507.86	493.71
508.22	502.89
508.59	512.14
508.95	521.78
509.31	531.61
509.67	541.75
510.03	552.06
510.39	562.67
510.75	573.50
511.12	584.44
511.48	595.72
511.84	607.18
512.20	618.73
512.56	630.74
512.92	642.91
513.28	655.28
513.64	667.69
514.00	680.35
514.37	693.28
514.73	706.39
515.09	719.49
515.45	732.83
515.81	746.50
516.17	760.53
516.53	774.67
516.89	788.81
517.25	803.04
517.61	817.47
517.97	831.95
518.33	846.41
518.69	861.33
519.05	876.39
519.41	891.50
519.77	907.05
520.13	922.45
520.49	937.96
520.85	953.44
521.21	969.25
521.57	985.64
521.93	1001.53
522.29	1017.87
522.65	1034.09
523.01	1050.29
523.37	1066.46
523.73	1082.66
524.09	1098.76
524.45	1115.20
524.81	1131.86
525.17	1148.71
525.53	1165.70
525.89	1182.61
526.25	1199.25
526.61	1215.79
526.97	1232.65
527.33	1249.18
527.68	1265.89
528.04	1282.46
528.40	1299.14
528.76	1316.18
529.12	1332.70
529.48	1349.65
529.84	1365.78
530.20	1382.42
530.56	1399.50
530.91	1416.84
531.27	1433.53
531.63	1449.96
531.99	1466.49
532.35	1482.58
532.71	1498.50
533.07	1514.73
533.42	1530.65
533.78	1546.87
534.14	1563.10
534.50	1578.51
534.86	1594.53
535.21	1609.69
535.57	1625.47
535.93	1641.03
536.29	1655.93
536.65	1671.23
537.00	1686.00
537.36	1701.39
537.72	1716.13
538.08	1730.47
538.44	1744.33
538.79	1758.35
539.15	1772.27
539.51	1786.18
539.87	1800.59
540.22	1814.44
540.58	1828.32
540.94	1841.67
541.29	1854.81
541.65	1867.54
542.01	1880.88
542.37	1893.08
542.72	1905.53
543.08	1917.56
543.44	1929.90
543.79	1941.24
544.15	1952.15
544.51	1963.79
544.87	1974.78
545.22	1985.58
545.58	1995.98
545.94	2005.80
546.29	2015.71
546.65	2025.35
547.01	2034.59
547.36	2043.41
547.72	2051.94
548.07	2059.81
548.43	2068.17
548.79	2076.12
549.14	2083.64
549.50	2091.03
549.86	2098.85
550.21	2106.28
550.57	2113.53
550.92	2120.13
551.28	2127.39
551.64	2134.50
551.99	2141.01
552.35	2147.12
552.70	2153.17
553.06	2159.14
553.41	2165.43
553.77	2171.43
554.13	2177.73
554.48	2183.73
554.84	2189.04
555.19	2194.35
555.55	2199.52
555.90	2203.95
556.26	2208.87
556.61	2213.57
556.97	2217.74
557.32	2221.82
557.68	2225.89
558.03	2230.13
558.39	2233.99
558.74	2238.30
559.10	2242.21
559.45	2245.83
559.81	2250.25
560.16	2254.22
560.52	2257.55
560.87	2261.09
561.23	2263.84
561.58	2266.84
561.94	2269.46
562.29	2271.95
562.64	2274.64
563.00	2277.24
563.35	2280.71
563.71	2283.73
564.06	2286.89
564.42	2289.68
564.77	2292.25
565.12	2294.52
565.48	2296.20
565.83	2297.92
566.19	2299.18
566.54	2300.16
566.89	2301.28
567.25	2301.77
567.60	2303.11
567.96	2304.76
568.31	2305.58
568.66	2306.47
569.02	2306.94
569.37	2307.16
569.72	2307.94
570.08	2307.97
570.43	2307.74
570.78	2307.08
571.14	2305.53
571.49	2304.14
571.84	2303.75
572.20	2302.49
572.55	2301.47
572.90	2299.91
573.26	2298.43
573.61	2296.77
573.96	2294.79
574.31	2291.79
574.67	2288.71
575.02	2284.93
575.37	2281.39
575.72	2277.41
576.08	2274.04
576.43	2270.63
576.78	2266.98
577.13	2263.72
577.49	2260.58
577.84	2257.19
578.19	2253.30
578.54	2249.52
578.90	2245.30
579.25	2239.83
579.60	2234.72
579.95	2229.38
580.30	2224.37
580.66	2219.10
581.01	2213.99
581.36	2209.07
581.71	2204.69
582.06	2200.14
582.42	2195.69
582.77	2190.28
583.12	2185.46
583.47	2180.61
583.82	2175.35
584.17	2169.94
584.53	2164.41
584.88	2158.63
585.23	2152.74
585.58	2147.22
585.93	2141.68
586.28	2136.86
586.63	2131.59
586.98	2126.59
587.34	2121.94
587.69	2116.91
588.04	2111.60
588.39	2105.91
588.74	2099.23
589.09	2093.15
589.44	2086.19
589.79	2080.05
590.14	2074.48
590.49	2067.99
590.84	2061.69
591.19	2055.77
591.54	2049.39
591.89	2041.80
592.25	2034.90
592.60	2027.62
592.95	2019.93
593.30	2012.48
593.65	2004.74
594.00	1997.67
594.35	1990.34
594.70	1982.37
595.05	1975.12
595.40	1967.73
595.75	1960.11
596.10	1953.84
596.45	1946.88
596.80	1940.61
597.15	1933.80
597.50	1926.55
597.85	1920.08
598.19	1913.32
598.54	1906.17
598.89	1899.36
599.24	1893.46
599.59	1886.76
599.94	1880.56
600.29	1874.28
600.64	1867.78
600.99	1860.29
601.34	1853.33
601.69	1846.18
602.04	1839.04
602.39	1831.57
602.74	1824.77
603.08	1818.10
603.43	1811.47
603.78	1804.17
604.13	1796.98
604.48	1789.75
604.83	1782.88
605.18	1775.83
605.53	1767.81
605.87	1759.65
606.22	1752.51
606.57	1744.50
606.92	1737.19
607.27	1729.98
607.62	1722.96
607.96	1715.47
608.31	1708.82
608.66	1701.21
609.01	1693.70
609.36	1686.15
609.70	1678.28
610.05	1670.08
610.40	1662.30
610.75	1653.81
611.10	1646.21
611.44	1637.96
611.79	1630.00
612.14	1621.27
612.49	1612.15
612.83	1603.75
613.18	1595.69
613.53	1587.55
613.88	1579.03
614.22	1570.78
614.57	1562.21
614.92	1554.20
615.27	1546.68
615.61	1538.43
615.96	1530.46
616.31	1522.86
616.65	1515.53
617.00	1507.88
617.35	1500.24
617.70	1491.98
618.04	1483.51
618.39	1475.24
618.74	1467.58
619.08	1459.23
619.43	1451.73
619.78	1444.79
620.12	1437.64
620.47	1430.02
620.82	1421.87
621.16	1414.49
621.51	1406.90
621.85	1399.23
622.20	1390.74
622.55	1382.41
622.89	1374.62
623.24	1367.00
623.59	1359.58
623.93	1352.08
624.28	1344.84
624.62	1337.42
624.97	1330.17
625.32	1323.46
625.66	1316.43
626.01	1309.25
626.35	1301.67
626.70	1293.98
627.04	1286.19
627.39	1278.38
627.73	1271.05
628.08	1264.09
628.43	1256.66
628.77	1249.14
629.12	1241.56
629.46	1234.26
629.81	1226.95
630.15	1219.59
630.50	1212.16
630.84	1204.00
631.19	1196.09
631.53	1188.61
631.88	1181.03
632.22	1173.44
632.57	1166.14
632.91	1158.60
633.26	1151.16
633.60	1143.92
633.95	1136.74
634.29	1129.86
634.64	1123.19
634.98	1115.80
635.32	1108.65
635.67	1102.14
636.01	1095.59
636.36	1088.85
636.70	1082.42
637.05	1075.66
637.39	1069.16
637.73	1062.68
638.08	1056.74
638.42	1050.81
638.77	1044.30
639.11	1037.62
639.45	1031.27
639.80	1024.58
640.14	1018.13
640.49	1011.57
640.83	1005.28
641.17	999.09
641.52	992.65
641.86	986.33
642.20	980.51
642.55	974.25
642.89	967.70
643.23	961.15
643.58	955.41
643.92	949.20
644.26	943.24
644.61	937.29
644.95	931.23
645.29	924.71
645.64	917.84
645.98	911.51
646.32	905.77
646.66	899.71
647.01	893.91
647.35	888.28
647.69	882.50
648.04	876.99
648.38	871.21
648.72	865.24
649.06	859.14
649.41	853.35
649.75	847.28
650.09	841.40
650.43	835.59
650.78	829.32
651.12	823.39
651.46	817.63
651.80	811.91
652.14	806.51
652.49	801.16
652.83	796.10
653.17	790.34
653.51	784.61
653.85	779.19
654.20	773.50
654.54	767.49
654.88	761.73
655.22	755.76
655.56	750.05
655.90	744.58
656.25	739.30
656.59	733.95
656.93	728.90
657.27	723.71
657.61	718.30
657.95	713.26
658.29	708.21
658.64	703.05
658.98	697.72
659.32	692.25
659.66	687.07
660.00	681.71
660.34	676.94
660.68	672.04
661.02	667.05
661.36	662.39
661.70	657.96
662.05	653.61
662.39	649.33
662.73	644.90
663.07	640.52
663.41	636.07
663.75	631.49
664.09	626.93
664.43	622.57
664.77	618.44
665.11	614.19
665.45	610.10
665.79	605.95
666.13	601.84
666.47	597.75
666.81	593.54
667.15	589.47
667.49	585.51
667.83	581.69
668.17	577.76
668.51	573.69
668.85	569.66
669.19	565.86
669.53	561.97
669.87	558.08
670.21	554.37
670.55	550.75
670.89	547.33
671.23	543.94
671.57	540.49
671.91	536.96
672.25	533.50
672.58	529.94
672.92	526.60
673.26	523.43
673.60	520.31
673.94	517.25
674.28	514.34
674.62	511.40
674.96	508.30
675.30	505.38
675.64	502.48
675.97	499.72
676.31	496.84
676.65	493.96
676.99	491.24
677.33	488.44
677.67	485.60
678.01	482.61
678.34	479.60
678.68	476.73
679.02	473.93
679.36	471.17
679.70	468.42
680.04	465.67
680.37	462.79
680.71	460.00
681.05	457.33
681.39	454.63
681.73	452.01
682.06	449.51
682.40	446.99
682.74	444.41
683.08	441.86
683.42	439.21
683.75	436.70
684.09	434.21
684.43	431.75
684.77	429.28
685.10	426.96
685.44	424.67
685.78	422.38
686.12	420.11
686.45	417.85
686.79	415.61
687.13	413.42
687.46	411.27
687.80	409.08
688.14	406.91
688.48	404.82
688.81	402.55
689.15	400.41
689.49	398.25
689.82	396.18
690.16	394.10
690.50	392.19
690.83	390.26
691.17	388.27
691.51	386.32
691.84	384.50
692.18	382.52
692.52	380.55
692.85	378.66
693.19	376.84
693.52	374.97
693.86	373.16
694.20	371.39
694.53	369.64
694.87	367.85
695.21	366.08
695.54	364.26
695.88	362.56
696.21	360.86
696.55	359.19
696.88	357.57
697.22	355.92
697.56	354.33
697.89	352.66
698.23	351.03
698.56	349.46
698.90	347.87
699.23	346.24
699.57	344.73
699.90	343.16
700.24	341.58
700.58	340.10
700.91	338.61
701.25	337.14
701.58	335.76
701.92	334.40
702.25	333.00
702.59	331.66
702.92	330.33
703.26	329.03
703.59	327.73
703.93	326.51
704.26	325.29
704.60	324.00
704.93	322.78
705.26	321.57
705.60	320.37
705.93	319.25
706.27	318.25
706.60	317.21
706.94	316.15
707.27	315.04
707.61	313.98
707.94	312.97
708.27	311.89
708.61	310.82
708.94	309.80
709.28	308.86
709.61	307.91
709.94	306.96
710.28	305.93
710.61	304.95
710.95	303.90
711.28	302.98
711.61	302.00
711.95	301.07
712.28	300.13
712.61	299.18
712.95	298.21
713.28	297.33
713.61	296.39
713.95	295.51
714.28	294.67
714.61	293.77
714.95	292.93
715.28	292.11
715.61	291.24
715.95	290.43
716.28	289.56
716.61	288.73
716.95	287.92
717.28	287.19
717.61	286.49
717.94	285.76
718.28	284.98
718.61	284.27
718.94	283.58
719.27	282.91
719.61	282.26
719.94	281.60
720.27	280.85
720.60	280.20
720.94	279.54
721.27	278.94
721.60	278.37
721.93	277.77
722.27	277.19
722.60	276.63
722.93	276.02
723.26	275.48
723.59	274.91
723.93	274.33
724.26	273.76
724.59	273.14
724.92	272.61
725.25	272.09
725.59	271.58
725.92	271.10
726.25	270.58
726.58	270.06
726.91	269.62
727.24	269.19
727.57	268.72
727.91	268.22
728.24	267.74
728.57	267.27
728.90	266.79
729.23	266.32
729.56	265.92
729.89	265.51
730.22	265.02
730.55	264.57
730.89	264.18
731.22	263.76
731.55	263.31
731.88	262.90
732.21	262.48
732.54	262.05
732.87	261.59
733.20	261.18
733.53	260.81
733.86	260.39
734.19	259.99
734.52	259.63
734.85	259.33
735.18	258.93
735.51	258.56
735.84	258.21
736.17	257.88
736.50	257.42
736.83	257.17
737.16	256.83
737.49	256.49
737.82	256.15
738.15	255.82
738.48	255.54
738.81	255.19
739.14	254.86
739.47	254.54
739.80	254.25
740.13	253.96
740.46	253.64
740.79	253.33
741.12	253.03
741.45	252.71
741.78	252.35
742.11	252.10
742.44	251.80
742.77	251.50
743.10	251.15
743.43	250.87
743.75	250.47
744.08	250.30
744.41	250.03
744.74	249.74
745.07	249.46
745.40	249.21
745.73	248.98
746.06	248.70
746.39	248.44
746.71	248.16
747.04	247.88
747.37	247.63
747.70	247.40
748.03	247.14
748.36	246.93
748.68	246.70
749.01	246.39
749.34	246.15
749.67	245.95
750.00	245.74
750.33	245.62
750.65	245.41
750.98	245.08
751.31	244.85
751.64	244.64
751.97	244.46
752.29	244.22
752.62	243.98
752.95	243.75
753.28	243.52
753.60	243.32
753.93	243.15
754.26	242.96
754.59	242.70
754.91	242.50
755.24	242.26
755.57	242.09
755.90	241.95
756.22	241.72
756.55	241.53
756.88	241.31
757.20	241.05
757.53	240.86
757.86	240.70
758.19	240.60
758.51	240.40
758.84	240.20
759.17	240.04
759.49	239.86
759.82	239.76
760.15	239.60
760.47	239.46
760.80	239.25
761.13	239.14
761.45	239.00
761.78	238.86
762.11	238.74
762.43	238.57
762.76	238.43
763.08	238.36
763.41	238.22
763.74	238.13
764.06	238.00
764.39	237.88
764.71	237.76
765.04	237.59
765.37	237.48
765.69	237.34
766.02	237.21
766.34	237.11
766.67	236.93
767.00	236.85
767.32	236.79
767.65	236.76
767.97	236.59
768.30	236.51
768.62	236.41
768.95	236.28
769.27	236.14
769.60	236.05
769.92	235.94
770.25	235.81
770.57	235.68
770.90	235.54
771.22	235.42
771.55	235.33
771.87	235.27
772.20	235.16
772.52	235.15
772.85	235.18
773.17	235.08
773.50	234.99
773.82	234.90
774.15	234.75
774.47	234.61
774.80	234.56
775.12	234.45
775.45	234.34
775.77	234.25
776.09	234.20
776.42	234.12
776.74	234.03
777.07	233.92
777.39	233.85
777.72	233.78
778.04	233.73
778.36	233.63
778.69	233.55
779.01	233.50
779.33	233.34
779.66	233.16
779.98	233.10
780.31	233.02
780.63	232.99
780.95	232.94
781.28	232.87
781.60	232.78
781.92	232.74
782.25	232.71
782.57	232.63
782.89	232.57
783.22	232.47
783.54	232.39
783.86	232.33
784.19	232.26
784.51	232.24
784.83	232.15
785.16	232.10
785.48	232.04
785.80	231.97
786.12	231.92
786.45	231.87
786.77	231.84
787.09	231.80
787.42	231.69
787.74	231.65
788.06	231.61
788.38	231.55
788.71	231.47
789.03	231.41
789.35	231.42
789.67	231.37
789.99	231.31
790.32	231.26
790.64	231.24
790.96	231.29
791.28	231.22
791.61	231.17
791.93	231.13
792.25	231.06
792.57	231.09
792.89	231.04
793.21	231.00
793.54	230.94
793.86	230.91
794.18	230.87
794.50	230.81
794.82	230.76
795.14	230.79
795.47	230.75
795.79	230.69
796.11	230.62
796.43	230.57
796.75	230.58
797.07	230.56
797.39	230.53
797.71	230.39
798.04	230.33
798.36	230.31
798.68	230.27
799.00	230.24
799.32	230.15
799.64	230.09
799.96	230.07
800.28	230.05
800.60	229.99
800.92	229.99
801.24	229.96
801.56	229.94
801.89	229.87
802.21	229.90
802.53	229.87
802.85	229.86
803.17	229.92
803.49	229.86
803.81	229.82
804.13	229.81
804.45	229.76
804.77	229.76
805.09	229.72
805.41	229.72
805.73	229.68
806.05	229.68
806.37	229.69
806.69	229.64
807.01	229.60
807.33	229.61
807.65	229.54
807.97	229.54
808.28	229.52
808.60	229.48
808.92	229.42
809.24	229.50
809.56	229.47
809.88	229.37
810.20	229.34
810.52	229.37
810.84	229.31
811.16	229.29
811.48	229.28
811.80	229.28
812.12	229.25
812.43	229.26
812.75	229.21
813.07	229.19
813.39	229.21
813.71	229.18
814.03	229.14
814.35	229.14
814.67	229.11
814.98	229.09
815.30	229.09
815.62	229.01
815.94	228.89
816.26	228.92
816.58	228.93
816.89	228.91
817.21	228.85
817.53	228.87
817.85	228.86
818.17	228.84
818.48	228.80
818.80	228.80
819.12	228.80
819.44	228.81
819.76	228.75
820.07	228.72
820.39	228.72
820.71	228.70
821.03	228.65
821.34	228.62
821.66	228.59
821.98	228.56
822.30	228.56
822.61	228.62
822.93	228.53
823.25	228.50
823.57	228.48
823.88	228.49
824.20	228.45
824.52	228.48
824.83	228.44
825.15	228.41
825.47	228.41
825.79	228.35
826.10	228.29
826.42	228.29
826.74	228.28
827.05	228.25
827.37	228.27
827.69	228.28
828.00	228.27
828.32	228.24
828.64	228.20
828.95	228.23
829.27	228.18
829.58	228.18
829.90	228.18
830.22	228.17
830.53	228.14
830.85	228.13
831.17	228.05
831.48	228.06
831.80	228.06
832.11	228.03
832.43	228.03
832.75	228.02
833.06	228.08
833.38	228.07
833.69	228.05
834.01	228.04
834.32	228.02
834.64	228.02
834.96	228.02
835.27	228.05
835.59	228.04
835.90	228.01
836.22	228.01
836.53	227.99
836.85	227.98
837.16	228.06
837.48	228.05
837.79	228.10
838.11	228.12
838.42	228.07
838.74	228.09
839.05	228.09
839.37	228.09
839.68	228.02
840.00	227.99
840.31	228.00
840.63	227.95
840.94	227.96
841.26	227.94
841.57	227.92
841.88	227.92
842.20	227.88
842.51	227.83
842.83	227.83
843.14	227.89
843.46	227.87
843.77	227.80
844.08	227.73
844.40	227.71
844.71	227.67
845.03	227.67
845.34	227.64
845.65	227.63
845.97	227.62
846.28	227.62
846.60	227.64
846.91	227.63
847.22	227.63
847.54	227.61
847.85	227.64
848.16	227.62
848.48	227.58
848.79	227.62
849.10	227.69
849.42	227.63
849.73	227.55
850.04	227.54
850.36	227.52
850.67	227.57
850.98	227.56
851.30	227.57
851.61	227.57
851.92	227.55
852.23	227.57
852.55	227.59
852.86	227.58
853.17	227.59
853.49	227.56
853.80	227.58
854.11	227.57
854.42	227.54
854.74	227.54
855.05	227.59
855.36	227.56
855.67	227.52
855.99	227.55
856.30	227.67
856.61	227.65
856.92	227.64
857.23	227.63
857.55	227.64
857.86	227.63
858.17	227.64
858.48	227.64
858.79	227.64
859.11	227.63
859.42	227.64
859.73	227.60
860.04	227.62
860.35	227.59
860.66	227.55
860.98	227.55
861.29	227.55
861.60	227.50
861.91	227.50
862.22	227.53
862.53	227.52
862.84	227.39
863.16	227.45
863.47	227.46
863.78	227.48
864.09	227.46
864.40	227.47
864.71	227.48
865.02	227.50
865.33	227.44
865.64	227.43
865.95	227.40
866.27	227.48
866.58	227.46
866.89	227.44
867.20	227.46
867.51	227.46
867.82	227.48
868.13	227.50
868.44	227.48
868.75	227.49
869.06	227.49
869.37	227.51
869.68	227.47
869.99	227.47
870.30	227.47
870.61	227.46
870.92	227.44
871.23	227.45
871.54	227.49
871.85	227.54
872.16	227.55
872.47	227.55
872.78	227.50
873.09	227.51
873.40	227.53
873.71	227.53
874.02	227.52
874.33	227.50
874.64	227.50
874.95	227.49
875.26	227.45
875.56	227.42
875.87	227.46
876.18	227.45
876.49	227.52
876.80	227.51
877.11	227.49
877.42	227.48
877.73	227.47
878.04	227.43
878.35	227.42
878.66	227.41
878.96	227.42
879.27	227.39
879.58	227.40
879.89	227.40
880.20	227.43
880.51	227.43
880.82	227.44
881.12	227.43
881.43	227.43
881.74	227.38
882.05	227.41
882.36	227.37
882.67	227.38
882.97	227.28
883.28	227.28
883.59	227.29
883.90	227.30
884.21	227.27
884.51	227.27
884.82	227.28
885.13	227.28
885.44	227.26
885.74	227.29
886.05	227.29
886.36	227.31
886.67	227.30
886.98	227.37
887.28	227.39
887.59	227.39
887.90	227.39
888.20	227.42
888.51	227.42
888.82	227.38
889.13	227.39
889.43	227.47
889.74	227.43
890.05	227.44
890.35	227.45
890.66	227.43
890.97	227.40
891.28	227.38
891.58	227.40
891.89	227.38
892.20	227.37
892.50	227.36
892.81	227.33
893.12	227.30
893.42	227.20
893.73	227.17
894.04	227.18
894.34	227.19
894.65	227.17
894.95	227.16
895.26	227.19
895.57	227.24
895.87	227.13
896.18	227.18
896.48	227.18
896.79	227.16
897.10	227.19
897.40	227.17
897.71	227.17
898.01	227.14
898.32	227.15
898.63	227.13
898.93	227.13
899.24	227.13
899.54	227.13
899.85	227.17
900.15	227.18
900.46	227.18
900.76	227.16
901.07	227.15
901.38	227.15
901.68	227.17
901.99	227.09
902.29	227.12
902.60	227.11
902.90	227.11
903.21	227.10
903.51	227.09
903.82	227.14
904.12	227.12
904.43	227.12
904.73	227.14
905.03	227.16
905.34	227.21
905.64	227.20
905.95	227.19
906.25	227.15
906.56	227.14
906.86	227.11
907.17	227.12
907.47	227.14
907.77	227.12
908.08	227.11
908.38	227.13
908.69	227.15
908.99	227.14
909.30	227.12
909.60	227.13
909.90	227.14
910.21	227.11
910.51	227.13
910.81	227.14
911.12	227.12
911.42	227.10
911.73	227.04
912.03	227.05
912.33	227.08
912.64	227.08
912.94	227.10
913.24	227.10
913.55	227.11
913.85	227.12
914.15	227.15
914.46	227.16
914.76	227.13
915.06	227.11
915.37	227.09
915.67	227.10
915.97	227.12
916.27	227.09
916.58	227.09
916.88	227.09
917.18	227.10
917.49	227.18
917.79	227.21
918.09	227.22
918.39	227.26
918.70	227.24
919.00	227.26
919.30	227.31
919.60	227.31
919.91	227.31
920.21	227.28
920.51	227.26
920.81	227.25
921.12	227.25
921.42	227.26
921.72	227.28
922.02	227.29
922.32	227.28
922.63	227.32
922.93	227.37
923.23	227.36
923.53	227.34
923.83	227.25
924.13	227.26
924.44	227.25
924.74	227.24
925.04	227.25
925.34	227.22
925.64	227.17
925.94	227.15
926.24	227.20
926.55	227.19
926.85	227.23
927.15	227.23
927.45	227.23
927.75	227.20
928.05	227.19
928.35	227.17
928.65	227.18
928.95	227.15
929.26	227.08
929.56	227.14
929.86	227.11
930.16	227.12
930.46	227.07
930.76	227.08
931.06	227.06
931.36	227.04
931.66	227.07
931.96	227.07
932.26	227.10
932.56	227.03
932.86	227.04
933.16	227.02
933.46	226.99
933.76	226.98
934.06	226.99
934.36	227.02
934.66	227.03
934.96	226.98
935.26	227.01
935.56	227.05
935.86	226.97
936.16	227.00
936.46	226.97
936.76	226.95
937.06	226.92
937.36	226.91
937.66	226.89
937.96	226.88
938.26	226.87
938.56	226.84
938.86	226.86
939.16	226.91
939.46	226.89
939.76	226.91
940.06	226.90
940.35	226.90
940.65	226.84
940.95	226.81
941.25	226.81
941.55	226.79
941.85	226.76
942.15	226.78
942.45	226.81
942.75	226.83
943.04	226.86
943.34	226.90
943.64	226.90
943.94	226.93
944.24	226.92
944.54	226.93
944.84	226.94
945.13	226.92
945.43	226.89
945.73	226.91
946.03	226.91
946.33	226.93
946.62	226.95
946.92	226.96
947.22	227.01
947.52	227.02
947.82	227.05
948.11	227.05
948.41	227.03
948.71	226.98
949.01	226.96
949.31	226.93
949.60	226.93
949.90	226.93
950.20	226.90
950.50	226.93
950.79	226.91
951.09	226.92
951.39	226.93
951.69	226.91
951.98	226.90
952.28	226.90
952.58	226.88
952.87	226.92
953.17	226.95
953.47	226.94
953.76	226.97
954.06	226.95
954.36	226.95
954.66	226.96
954.95	226.98
955.25	227.02
955.55	227.03
955.84	227.01
956.14	227.00
956.44	227.00
956.73	226.99
957.03	227.00
957.32	227.03
957.62	227.04
957.92	227.06
958.21	227.07
958.51	227.20
958.81	227.22
959.10	227.21
959.40	227.22
959.69	227.20
959.99	227.18
960.29	227.15
960.58	227.13
960.88	227.16
961.17	227.19
961.47	227.19
961.76	227.18
962.06	227.16
962.36	227.16
962.65	227.16
962.95	227.12
963.24	227.10
963.54	227.10
963.83	227.08
964.13	227.05
964.42	227.01
964.72	226.89
965.01	226.89
965.31	226.86
965.60	226.82
965.90	226.91
966.19	226.90
966.49	226.91
966.78	226.91
967.08	226.89
967.37	226.87
967.67	226.83
967.96	226.85
968.26	226.89
968.55	226.89
968.85	226.89
969.14	226.93
969.43	226.94
969.73	226.93
970.02	226.90
970.32	226.89
970.61	226.89
970.91	226.89
971.20	226.86
971.49	226.85
971.79	226.85
972.08	226.78
972.38	226.79
972.67	226.81
972.96	226.84
973.26	226.85
973.55	226.88
973.85	226.90
974.14	226.89
974.43	226.88
974.73	226.91
975.02	226.90
975.31	226.87
975.61	226.87
975.90	226.83
976.19	226.87
976.49	226.90
976.78	226.93
977.07	226.90
977.37	226.92
977.66	226.91
977.95	226.92
978.24	226.94
978.54	226.95
978.83	226.93
979.12	226.92
979.42	226.90
979.71	226.90
980.00	226.88
980.29	226.89
980.59	226.88
980.88	226.87
981.17	226.89
981.46	226.87
981.76	226.87
982.05	226.95
982.34	226.95
982.63	226.92
982.93	226.91
983.22	226.97
983.51	226.99
983.80	227.00
984.09	227.02
984.39	226.98
984.68	227.00
984.97	226.99
985.26	226.97
985.55	226.98
985.85	226.98
986.14	227.00
986.43	227.01
986.72	227.01
987.01	227.04
987.30	227.04
987.59	227.09
987.89	227.11
988.18	227.08
988.47	227.07
988.76	227.08
989.05	227.07
989.34	227.01
989.63	227.00
989.92	226.99
990.22	226.97
990.51	226.98
990.80	226.94
991.09	226.97
991.38	227.00
991.67	226.99
991.96	226.97
992.25	226.98
992.54	226.96
992.83	226.95
993.12	226.93
993.41	226.95
993.70	226.96
993.99	226.97
994.28	226.96
994.58	226.95
994.87	226.95
995.16	226.97
995.45	226.99
995.74	226.98
996.03	227.02
996.32	227.06
996.61	227.09
996.90	227.08
997.19	227.08
997.48	227.06
997.77	227.05
998.06	227.04
998.34	226.97
998.63	226.99
998.92	227.01
999.21	227.01
999.50	227.03
999.79	227.00
1000.08	226.98
1000.37	227.00
1000.66	227.01
1000.95	227.03
1001.24	227.03
1001.53	227.01
1001.82	227.05
1002.11	227.01
1002.40	226.98
1002.68	227.01
1002.97	227.07
1003.26	227.06
1003.55	227.04
1003.84	227.03
1004.13	227.11
1004.42	227.14
1004.71	227.14
1004.99	227.15
1005.28	227.18
1005.57	227.16
1005.86	227.13
1006.15	227.13
1006.44	227.09
1006.72	227.11
1007.01	227.09
1007.30	227.09
1007.59	227.13
1007.88	227.09
1008.17	227.10
1008.45	227.10
1008.74	227.04
1009.03	227.03
1009.32	227.03
1009.60	227.06
1009.89	227.06
1010.18	227.00
1010.47	227.02
1010.76	227.01
1011.04	226.97
1011.33	226.95
1011.62	226.96
1011.91	226.97
1012.19	226.97
1012.48	226.99
1012.77	227.01
1013.05	227.05
1013.34	227.05
1013.63	227.06
1013.92	227.07
1014.20	227.07
1014.49	227.07
1014.78	227.09
1015.06	227.05
1015.35	227.06
1015.64	227.08
1015.92	227.12
1016.21	227.12
1016.50	227.12
1016.78	227.14
1017.07	227.15
1017.36	227.14
1017.64	227.14
1017.93	227.20
1018.22	227.19
1018.50	227.19
1018.79	227.15
1019.08	227.09
1019.36	227.10
1019.65	227.07
1019.93	227.11
1020.22	227.13
1020.51	227.19
1020.79	227.18
1021.08	226.84
1021.36	227.00
1021.65	226.48
1021.94	226.96
1022.22	227.04
1022.51	227.06
1022.79	227.64
1023.08	227.50
1023.36	228.10
1023.65	227.08
>>>>>End Processed Spectral Data<<<<<
