SpectraSuite Data File
++++++++++++++++++++++++++++++++++++
Date: Fri Feb 01 15:48:09 EST 2013
User: group
Dark Spectrum Present: No
Reference Spectrum Present: No
Number of Sampled Component Spectra: 1
Spectrometers: USB2E7196
Integration Time (usec): 35000 (USB2E7196)
Spectra Averaged: 100 (USB2E7196)
Boxcar Smoothing: 10 (USB2E7196)
Correct for Electrical Dark: No (USB2E7196)
Strobe/Lamp Enabled: No (USB2E7196)
Correct for Detector Non-linearity: No (USB2E7196)
Correct for Stray Light: No (USB2E7196)
Number of Pixels in Processed Spectrum: 2048
>>>>>Begin Processed Spectral Data<<<<<
339.09	0.00
339.48	214.68
339.86	215.43
340.24	217.39
340.63	219.00
341.01	222.29
341.39	221.58
341.78	223.36
342.16	223.78
342.54	224.62
342.93	213.07
343.31	223.84
343.69	224.40
344.07	224.91
344.46	225.36
344.84	225.76
345.22	225.98
345.60	226.22
345.99	226.41
346.37	226.57
346.75	226.69
347.13	226.81
347.52	226.85
347.90	226.96
348.28	227.03
348.66	227.10
349.05	227.13
349.43	227.20
349.81	227.23
350.19	227.26
350.57	227.33
350.96	227.40
351.34	227.52
351.72	227.61
352.10	227.71
352.48	227.79
352.87	227.83
353.25	227.93
353.63	228.00
354.01	228.05
354.39	228.10
354.77	228.17
355.15	228.24
355.54	228.29
355.92	228.33
356.30	228.38
356.68	228.50
357.06	228.54
357.44	228.57
357.82	228.64
358.20	228.72
358.58	228.78
358.97	228.80
359.35	228.84
359.73	228.93
360.11	228.96
360.49	229.01
360.87	229.06
361.25	229.08
361.63	229.15
362.01	229.22
362.39	229.26
362.77	229.30
363.15	229.32
363.53	229.34
363.91	229.36
364.29	229.36
364.67	229.27
365.05	229.29
365.43	229.34
365.81	229.35
366.19	229.40
366.57	229.44
366.95	229.48
367.33	229.46
367.71	229.40
368.09	229.41
368.47	229.38
368.85	229.35
369.23	229.36
369.61	229.31
369.99	229.31
370.37	229.26
370.75	229.27
371.13	229.23
371.51	229.18
371.89	229.13
372.27	229.09
372.65	229.06
373.03	228.97
373.41	228.87
373.78	228.81
374.16	228.69
374.54	228.60
374.92	228.50
375.30	228.43
375.68	228.36
376.06	228.29
376.44	228.23
376.82	228.19
377.19	228.09
377.57	228.03
377.95	227.91
378.33	227.87
378.71	227.73
379.09	227.67
379.47	227.63
379.84	227.57
380.22	227.52
380.60	227.43
380.98	227.40
381.36	227.36
381.73	227.28
382.11	227.23
382.49	227.16
382.87	227.06
383.25	226.98
383.62	227.01
384.00	226.95
384.38	226.88
384.76	226.83
385.13	226.81
385.51	226.74
385.89	226.72
386.27	226.67
386.64	226.67
387.02	226.58
387.40	226.51
387.78	226.47
388.15	226.41
388.53	226.38
388.91	226.36
389.29	226.31
389.66	226.32
390.04	226.29
390.42	226.28
390.79	226.29
391.17	226.27
391.55	226.17
391.92	226.14
392.30	226.14
392.68	226.13
393.05	226.14
393.43	226.13
393.81	226.15
394.18	226.16
394.56	226.14
394.94	226.23
395.31	226.25
395.69	226.32
396.06	226.39
396.44	226.46
396.82	226.50
397.19	226.59
397.57	226.59
397.95	226.64
398.32	226.68
398.70	226.73
399.07	226.82
399.45	226.89
399.82	226.99
400.20	227.06
400.58	227.11
400.95	227.15
401.33	227.26
401.70	227.39
402.08	227.46
402.45	227.58
402.83	227.67
403.20	227.83
403.58	227.94
403.95	228.06
404.33	228.15
404.71	228.26
405.08	228.48
405.46	228.62
405.83	228.78
406.21	228.92
406.58	229.11
406.96	229.29
407.33	229.48
407.70	229.64
408.08	229.91
408.45	230.14
408.83	230.37
409.20	230.59
409.58	230.76
409.95	231.04
410.33	231.29
410.70	231.53
411.08	231.77
411.45	232.05
411.82	232.34
412.20	232.68
412.57	233.09
412.95	233.34
413.32	233.73
413.69	234.12
414.07	234.59
414.44	235.01
414.82	235.47
415.19	235.99
415.56	236.47
415.94	237.01
416.31	237.62
416.68	238.24
417.06	238.97
417.43	239.60
417.81	240.35
418.18	241.14
418.55	241.96
418.93	242.83
419.30	243.73
419.67	244.64
420.04	245.59
420.42	246.57
420.79	247.74
421.16	248.90
421.54	250.08
421.91	251.26
422.28	252.54
422.66	253.86
423.03	255.14
423.40	256.55
423.77	257.95
424.15	259.37
424.52	260.84
424.89	262.43
425.26	264.03
425.64	265.50
426.01	267.11
426.38	268.75
426.75	270.45
427.13	272.15
427.50	274.01
427.87	275.90
428.24	277.79
428.61	279.55
428.99	281.48
429.36	283.59
429.73	285.67
430.10	287.65
430.47	289.74
430.85	291.89
431.22	294.11
431.59	296.51
431.96	298.76
432.33	301.24
432.70	303.62
433.08	306.40
433.45	309.03
433.82	311.62
434.19	314.54
434.56	317.35
434.93	320.00
435.30	322.59
435.68	325.49
436.05	328.28
436.42	331.06
436.79	333.56
437.16	336.32
437.53	339.15
437.90	342.02
438.27	344.74
438.64	347.57
439.01	350.13
439.38	352.38
439.75	354.59
440.13	357.11
440.50	359.48
440.87	361.36
441.24	363.31
441.61	365.47
441.98	366.96
442.35	368.74
442.72	370.58
443.09	372.40
443.46	373.40
443.83	374.01
444.20	374.51
444.57	375.37
444.94	375.60
445.31	375.89
445.68	376.24
446.05	376.29
446.42	375.93
446.79	375.55
447.16	375.10
447.53	374.77
447.90	373.59
448.27	372.37
448.64	370.76
449.01	369.59
449.37	367.60
449.74	365.67
450.11	363.41
450.48	360.97
450.85	358.43
451.22	356.25
451.59	354.22
451.96	352.29
452.33	349.71
452.70	347.35
453.07	344.52
453.43	341.59
453.80	338.84
454.17	336.16
454.54	333.58
454.91	330.82
455.28	328.11
455.65	325.62
456.02	323.19
456.38	321.04
456.75	318.40
457.12	316.11
457.49	313.90
457.86	311.75
458.23	309.89
458.59	307.86
458.96	305.79
459.33	303.96
459.70	302.10
460.07	300.57
460.43	298.86
460.80	297.24
461.17	295.83
461.54	294.38
461.91	292.93
462.27	291.50
462.64	290.22
463.01	288.86
463.38	287.57
463.74	286.22
464.11	285.09
464.48	284.06
464.85	282.99
465.21	282.15
465.58	281.22
465.95	280.12
466.32	279.25
466.68	278.34
467.05	277.42
467.42	276.53
467.78	275.64
468.15	274.78
468.52	274.14
468.88	273.28
469.25	272.48
469.62	271.86
469.98	271.21
470.35	270.61
470.72	270.06
471.08	269.40
471.45	268.83
471.82	268.30
472.18	267.71
472.55	267.27
472.92	266.75
473.28	266.29
473.65	265.87
474.02	265.38
474.38	265.07
474.75	264.76
475.11	264.40
475.48	264.10
475.85	263.87
476.21	263.66
476.58	263.47
476.94	263.34
477.31	263.19
477.67	263.03
478.04	262.90
478.41	262.83
478.77	262.85
479.14	262.80
479.50	262.78
479.87	262.87
480.23	262.99
480.60	263.08
480.96	263.16
481.33	263.37
481.69	263.61
482.06	263.77
482.42	263.96
482.79	264.22
483.15	264.54
483.52	264.93
483.88	265.29
484.25	265.70
484.61	266.15
484.98	266.58
485.34	267.17
485.71	267.79
486.07	268.38
486.44	268.98
486.80	269.72
487.17	270.44
487.53	271.21
487.90	272.07
488.26	273.00
488.62	273.99
488.99	274.97
489.35	275.97
489.72	277.10
490.08	278.31
490.44	279.56
490.81	280.95
491.17	282.32
491.54	283.77
491.90	285.31
492.26	286.92
492.63	288.68
492.99	290.50
493.36	292.41
493.72	294.48
494.08	296.59
494.45	298.83
494.81	301.21
495.17	303.69
495.54	306.22
495.90	308.91
496.26	311.73
496.63	314.69
496.99	317.82
497.35	321.10
497.72	324.50
498.08	327.96
498.44	331.58
498.80	335.44
499.17	339.46
499.53	343.59
499.89	348.01
500.26	352.55
500.62	357.19
500.98	362.15
501.34	367.23
501.71	372.53
502.07	377.99
502.43	383.62
502.79	389.43
503.16	395.56
503.52	401.85
503.88	408.30
504.24	414.94
504.60	421.86
504.97	429.01
505.33	436.37
505.69	444.14
506.05	451.95
506.41	459.89
506.78	468.13
507.14	476.62
507.50	485.33
507.86	494.33
508.22	503.51
508.59	512.72
508.95	522.33
509.31	532.14
509.67	542.21
510.03	552.46
510.39	562.98
510.75	573.69
511.12	584.63
511.48	595.83
511.84	607.27
512.20	618.74
512.56	630.71
512.92	642.80
513.28	655.10
513.64	667.60
514.00	680.30
514.37	693.18
514.73	706.24
515.09	719.26
515.45	732.51
515.81	746.03
516.17	760.02
516.53	774.06
516.89	788.25
517.25	802.48
517.61	816.92
517.97	831.40
518.33	845.92
518.69	860.72
519.05	875.75
519.41	890.90
519.77	906.47
520.13	921.79
520.49	937.23
520.85	952.72
521.21	968.47
521.57	984.71
521.93	1000.47
522.29	1016.89
522.65	1033.14
523.01	1049.45
523.37	1065.60
523.73	1081.74
524.09	1097.94
524.45	1114.31
524.81	1130.94
525.17	1147.76
525.53	1164.66
525.89	1181.56
526.25	1198.28
526.61	1214.64
526.97	1231.44
527.33	1247.87
527.68	1264.59
528.04	1281.15
528.40	1297.71
528.76	1314.76
529.12	1331.30
529.48	1348.14
529.84	1364.15
530.20	1380.81
530.56	1397.77
530.91	1415.11
531.27	1431.85
531.63	1448.27
531.99	1464.69
532.35	1480.58
532.71	1496.45
533.07	1512.83
533.42	1528.58
533.78	1544.59
534.14	1561.01
534.50	1576.37
534.86	1592.21
535.21	1607.42
535.57	1623.31
535.93	1638.89
536.29	1653.59
536.65	1668.62
537.00	1683.46
537.36	1698.76
537.72	1713.24
538.08	1727.61
538.44	1741.35
538.79	1755.34
539.15	1768.97
539.51	1782.77
539.87	1797.07
540.22	1810.86
540.58	1824.47
540.94	1837.95
541.29	1851.00
541.65	1863.63
542.01	1876.81
542.37	1889.12
542.72	1901.45
543.08	1913.27
543.44	1925.53
543.79	1936.81
544.15	1947.81
544.51	1959.37
544.87	1970.29
545.22	1981.08
545.58	1991.24
545.94	2001.05
546.29	2010.91
546.65	2020.82
547.01	2030.09
547.36	2038.82
547.72	2047.31
548.07	2055.08
548.43	2063.26
548.79	2071.23
549.14	2078.72
549.50	2086.00
549.86	2093.68
550.21	2101.05
550.57	2108.16
550.92	2114.71
551.28	2121.82
551.64	2128.91
551.99	2135.47
552.35	2141.67
552.70	2147.96
553.06	2154.01
553.41	2160.27
553.77	2166.16
554.13	2172.14
554.48	2178.32
554.84	2183.79
555.19	2189.07
555.55	2194.41
555.90	2198.69
556.26	2203.55
556.61	2208.33
556.97	2212.63
557.32	2216.80
557.68	2220.91
558.03	2225.18
558.39	2228.90
558.74	2233.40
559.10	2237.21
559.45	2240.66
559.81	2244.90
560.16	2248.60
560.52	2251.88
560.87	2255.38
561.23	2258.16
561.58	2261.24
561.94	2263.69
562.29	2265.98
562.64	2268.48
563.00	2271.05
563.35	2274.62
563.71	2277.72
564.06	2280.94
564.42	2283.79
564.77	2286.22
565.12	2288.32
565.48	2290.23
565.83	2292.17
566.19	2293.54
566.54	2294.48
566.89	2295.80
567.25	2296.36
567.60	2297.68
567.96	2299.30
568.31	2300.18
568.66	2301.15
569.02	2301.65
569.37	2302.03
569.72	2303.05
570.08	2303.33
570.43	2303.30
570.78	2302.67
571.14	2301.16
571.49	2299.80
571.84	2299.40
572.20	2298.23
572.55	2297.38
572.90	2295.80
573.26	2294.42
573.61	2292.70
573.96	2290.83
574.31	2287.86
574.67	2284.91
575.02	2281.21
575.37	2277.91
575.72	2274.06
576.08	2270.72
576.43	2267.36
576.78	2263.65
577.13	2260.48
577.49	2257.38
577.84	2253.87
578.19	2250.24
578.54	2246.55
578.90	2242.24
579.25	2236.79
579.60	2231.86
579.95	2226.68
580.30	2221.67
580.66	2216.33
581.01	2211.38
581.36	2206.52
581.71	2202.25
582.06	2197.70
582.42	2193.22
582.77	2187.93
583.12	2183.29
583.47	2178.54
583.82	2173.55
584.17	2168.38
584.53	2162.86
584.88	2157.21
585.23	2151.46
585.58	2145.92
585.93	2140.55
586.28	2135.84
586.63	2130.68
586.98	2125.64
587.34	2121.10
587.69	2116.28
588.04	2111.16
588.39	2105.42
588.74	2098.99
589.09	2092.77
589.44	2086.00
589.79	2080.20
590.14	2074.59
590.49	2068.07
590.84	2061.80
591.19	2055.72
591.54	2049.20
591.89	2041.73
592.25	2034.83
592.60	2027.48
592.95	2019.87
593.30	2012.45
593.65	2004.88
594.00	1997.90
594.35	1990.63
594.70	1982.45
595.05	1975.08
595.40	1967.76
595.75	1960.28
596.10	1954.02
596.45	1947.28
596.80	1941.22
597.15	1934.43
597.50	1927.24
597.85	1920.79
598.19	1914.04
598.54	1906.82
598.89	1899.93
599.24	1894.14
599.59	1887.51
599.94	1881.39
600.29	1875.04
600.64	1868.42
600.99	1860.91
601.34	1854.09
601.69	1847.20
602.04	1840.31
602.39	1832.97
602.74	1826.14
603.08	1819.47
603.43	1812.77
603.78	1805.44
604.13	1798.14
604.48	1790.76
604.83	1783.92
605.18	1776.84
605.53	1768.78
605.87	1760.91
606.22	1753.91
606.57	1745.92
606.92	1738.54
607.27	1731.32
607.62	1724.36
607.96	1716.98
608.31	1710.28
608.66	1702.53
609.01	1694.97
609.36	1687.44
609.70	1679.38
610.05	1671.27
610.40	1663.50
610.75	1655.04
611.10	1647.48
611.44	1639.10
611.79	1631.16
612.14	1622.50
612.49	1613.42
612.83	1605.12
613.18	1596.96
613.53	1588.82
613.88	1580.10
614.22	1571.85
614.57	1563.31
614.92	1555.18
615.27	1547.65
615.61	1539.32
615.96	1531.30
616.31	1523.65
616.65	1516.24
617.00	1508.85
617.35	1501.26
617.70	1492.96
618.04	1484.61
618.39	1476.34
618.74	1468.65
619.08	1460.37
619.43	1452.87
619.78	1445.93
620.12	1438.72
620.47	1431.18
620.82	1422.93
621.16	1415.70
621.51	1408.22
621.85	1400.60
622.20	1392.11
622.55	1383.87
622.89	1376.15
623.24	1368.54
623.59	1361.11
623.93	1353.61
624.28	1346.24
624.62	1338.63
624.97	1331.51
625.32	1324.80
625.66	1317.79
626.01	1310.56
626.35	1303.06
626.70	1295.21
627.04	1287.49
627.39	1279.80
627.73	1272.39
628.08	1265.47
628.43	1258.10
628.77	1250.53
629.12	1242.99
629.46	1235.94
629.81	1228.50
630.15	1221.23
630.50	1213.95
630.84	1205.83
631.19	1197.92
631.53	1190.53
631.88	1183.03
632.22	1175.29
632.57	1167.92
632.91	1160.36
633.26	1153.02
633.60	1145.76
633.95	1138.68
634.29	1131.61
634.64	1124.95
634.98	1117.55
635.32	1110.43
635.67	1103.88
636.01	1097.23
636.36	1090.32
636.70	1083.75
637.05	1077.18
637.39	1070.66
637.73	1064.07
638.08	1058.22
638.42	1052.20
638.77	1045.66
639.11	1038.96
639.45	1032.57
639.80	1025.90
640.14	1019.41
640.49	1012.82
640.83	1006.42
641.17	1000.17
641.52	993.83
641.86	987.31
642.20	981.44
642.55	975.15
642.89	968.58
643.23	962.11
643.58	956.45
643.92	950.25
644.26	944.00
644.61	937.98
644.95	931.91
645.29	925.22
645.64	918.48
645.98	912.16
646.32	906.39
646.66	900.48
647.01	894.73
647.35	889.06
647.69	883.23
648.04	877.75
648.38	871.88
648.72	865.88
649.06	859.86
649.41	854.06
649.75	848.06
650.09	842.24
650.43	836.40
650.78	830.11
651.12	824.20
651.46	818.57
651.80	812.76
652.14	807.40
652.49	802.04
652.83	796.83
653.17	791.12
653.51	785.39
653.85	779.96
654.20	774.18
654.54	768.19
654.88	762.54
655.22	756.59
655.56	750.97
655.90	745.52
656.25	740.23
656.59	734.87
656.93	729.81
657.27	724.58
657.61	719.13
657.95	714.08
658.29	708.94
658.64	703.75
658.98	698.49
659.32	692.98
659.66	687.77
660.00	682.51
660.34	677.54
660.68	672.70
661.02	667.64
661.36	663.02
661.70	658.53
662.05	654.17
662.39	649.90
662.73	645.36
663.07	641.00
663.41	636.55
663.75	632.06
664.09	627.48
664.43	623.07
664.77	618.98
665.11	614.80
665.45	610.67
665.79	606.57
666.13	602.45
666.47	598.43
666.81	594.26
667.15	590.11
667.49	586.22
667.83	582.38
668.17	578.44
668.51	574.30
668.85	570.29
669.19	566.43
669.53	562.57
669.87	558.79
670.21	555.14
670.55	551.56
670.89	548.16
671.23	544.78
671.57	541.33
671.91	537.80
672.25	534.21
672.58	530.73
672.92	527.37
673.26	524.27
673.60	521.08
673.94	518.01
674.28	515.16
674.62	512.17
674.96	509.04
675.30	506.10
675.64	503.20
675.97	500.46
676.31	497.57
676.65	494.63
676.99	491.86
677.33	488.94
677.67	486.08
678.01	482.99
678.34	479.96
678.68	477.03
679.02	474.25
679.36	471.56
679.70	468.84
680.04	466.08
680.37	463.13
680.71	460.38
681.05	457.78
681.39	454.97
681.73	452.37
682.06	449.82
682.40	447.25
682.74	444.74
683.08	442.16
683.42	439.52
683.75	437.00
684.09	434.43
684.43	431.95
684.77	429.47
685.10	427.15
685.44	424.92
685.78	422.67
686.12	420.39
686.45	418.10
686.79	415.79
687.13	413.57
687.46	411.40
687.80	409.23
688.14	407.00
688.48	404.99
688.81	402.68
689.15	400.54
689.49	398.37
689.82	396.28
690.16	394.17
690.50	392.26
690.83	390.32
691.17	388.37
691.51	386.48
691.84	384.61
692.18	382.68
692.52	380.66
692.85	378.69
693.19	376.84
693.52	375.02
693.86	373.19
694.20	371.38
694.53	369.62
694.87	367.75
695.21	365.98
695.54	364.16
695.88	362.49
696.21	360.79
696.55	359.17
696.88	357.46
697.22	355.85
697.56	354.23
697.89	352.57
698.23	351.00
698.56	349.43
698.90	347.86
699.23	346.17
699.57	344.58
699.90	343.05
700.24	341.51
700.58	339.99
700.91	338.51
701.25	337.12
701.58	335.73
701.92	334.39
702.25	332.95
702.59	331.55
702.92	330.20
703.26	328.84
703.59	327.56
703.93	326.40
704.26	325.14
704.60	323.82
704.93	322.53
705.26	321.23
705.60	320.09
705.93	318.93
706.27	317.93
706.60	316.92
706.94	315.90
707.27	314.73
707.61	313.64
707.94	312.63
708.27	311.53
708.61	310.44
708.94	309.44
709.28	308.54
709.61	307.61
709.94	306.69
710.28	305.71
710.61	304.76
710.95	303.73
711.28	302.83
711.61	301.93
711.95	301.08
712.28	300.15
712.61	299.12
712.95	298.15
713.28	297.27
713.61	296.36
713.95	295.44
714.28	294.63
714.61	293.81
714.95	292.99
715.28	292.15
715.61	291.26
715.95	290.42
716.28	289.50
716.61	288.68
716.95	287.86
717.28	287.16
717.61	286.41
717.94	285.65
718.28	284.82
718.61	284.08
718.94	283.41
719.27	282.74
719.61	282.12
719.94	281.47
720.27	280.76
720.60	280.09
720.94	279.47
721.27	278.88
721.60	278.29
721.93	277.65
722.27	277.11
722.60	276.55
722.93	275.96
723.26	275.47
723.59	274.89
723.93	274.34
724.26	273.73
724.59	273.15
724.92	272.65
725.25	272.15
725.59	271.66
725.92	271.11
726.25	270.63
726.58	270.13
726.91	269.65
727.24	269.22
727.57	268.76
727.91	268.22
728.24	267.74
728.57	267.21
728.90	266.76
729.23	266.24
729.56	265.85
729.89	265.38
730.22	264.88
730.55	264.43
730.89	263.97
731.22	263.54
731.55	263.08
731.88	262.63
732.21	262.19
732.54	261.71
732.87	261.29
733.20	260.87
733.53	260.49
733.86	260.11
734.19	259.71
734.52	259.32
734.85	259.01
735.18	258.60
735.51	258.25
735.84	257.89
736.17	257.55
736.50	257.15
736.83	256.91
737.16	256.60
737.49	256.25
737.82	255.91
738.15	255.55
738.48	255.25
738.81	254.87
739.14	254.52
739.47	254.23
739.80	253.92
740.13	253.57
740.46	253.21
740.79	252.87
741.12	252.54
741.45	252.24
741.78	251.93
742.11	251.66
742.44	251.31
742.77	251.01
743.10	250.68
743.43	250.36
743.75	249.97
744.08	249.82
744.41	249.53
744.74	249.27
745.07	249.02
745.40	248.77
745.73	248.60
746.06	248.34
746.39	248.05
746.71	247.75
747.04	247.54
747.37	247.29
747.70	247.07
748.03	246.81
748.36	246.60
748.68	246.36
749.01	246.07
749.34	245.85
749.67	245.64
750.00	245.42
750.33	245.26
750.65	245.05
750.98	244.69
751.31	244.47
751.64	244.27
751.97	244.10
752.29	243.86
752.62	243.58
752.95	243.42
753.28	243.20
753.60	243.01
753.93	242.82
754.26	242.64
754.59	242.42
754.91	242.22
755.24	242.00
755.57	241.79
755.90	241.65
756.22	241.49
756.55	241.27
756.88	241.08
757.20	240.86
757.53	240.67
757.86	240.52
758.19	240.37
758.51	240.19
758.84	239.98
759.17	239.83
759.49	239.69
759.82	239.57
760.15	239.45
760.47	239.31
760.80	239.18
761.13	239.06
761.45	238.91
761.78	238.77
762.11	238.62
762.43	238.47
762.76	238.30
763.08	238.17
763.41	238.04
763.74	237.92
764.06	237.80
764.39	237.67
764.71	237.54
765.04	237.42
765.37	237.29
765.69	237.18
766.02	237.04
766.34	236.88
766.67	236.70
767.00	236.55
767.32	236.50
767.65	236.41
767.97	236.27
768.30	236.14
768.62	236.03
768.95	235.91
769.27	235.80
769.60	235.70
769.92	235.57
770.25	235.44
770.57	235.32
770.90	235.20
771.22	235.08
771.55	234.97
771.87	234.87
772.20	234.76
772.52	234.73
772.85	234.76
773.17	234.69
773.50	234.59
773.82	234.50
774.15	234.33
774.47	234.14
774.80	234.07
775.12	233.99
775.45	233.89
775.77	233.78
776.09	233.70
776.42	233.61
776.74	233.56
777.07	233.49
777.39	233.41
777.72	233.33
778.04	233.26
778.36	233.13
778.69	233.05
779.01	232.97
779.33	232.80
779.66	232.60
779.98	232.48
780.31	232.43
780.63	232.42
780.95	232.38
781.28	232.33
781.60	232.24
781.92	232.15
782.25	232.08
782.57	232.04
782.89	231.96
783.22	231.87
783.54	231.79
783.86	231.75
784.19	231.68
784.51	231.65
784.83	231.60
785.16	231.59
785.48	231.53
785.80	231.49
786.12	231.44
786.45	231.40
786.77	231.37
787.09	231.31
787.42	231.20
787.74	231.16
788.06	231.14
788.38	231.09
788.71	231.06
789.03	231.07
789.35	231.02
789.67	231.00
789.99	231.01
790.32	230.94
790.64	230.90
790.96	230.97
791.28	230.86
791.61	230.81
791.93	230.75
792.25	230.70
792.57	230.71
792.89	230.67
793.21	230.65
793.54	230.62
793.86	230.59
794.18	230.60
794.50	230.51
794.82	230.47
795.14	230.43
795.47	230.45
795.79	230.38
796.11	230.33
796.43	230.29
796.75	230.25
797.07	230.28
797.39	230.25
797.71	230.13
798.04	230.15
798.36	230.12
798.68	230.10
799.00	230.10
799.32	230.05
799.64	230.04
799.96	229.99
800.28	229.98
800.60	229.94
800.92	229.95
801.24	229.98
801.56	229.96
801.89	229.96
802.21	229.92
802.53	229.90
802.85	229.89
803.17	229.94
803.49	229.91
803.81	229.84
804.13	229.81
804.45	229.79
804.77	229.80
805.09	229.81
805.41	229.77
805.73	229.74
806.05	229.68
806.37	229.65
806.69	229.61
807.01	229.57
807.33	229.58
807.65	229.49
807.97	229.46
808.28	229.43
808.60	229.41
808.92	229.34
809.24	229.38
809.56	229.34
809.88	229.28
810.20	229.24
810.52	229.24
810.84	229.20
811.16	229.15
811.48	229.10
811.80	229.09
812.12	229.07
812.43	229.07
812.75	229.08
813.07	229.08
813.39	229.06
813.71	229.04
814.03	229.02
814.35	228.99
814.67	228.96
814.98	228.92
815.30	228.88
815.62	228.84
815.94	228.75
816.26	228.77
816.58	228.70
816.89	228.68
817.21	228.65
817.53	228.64
817.85	228.65
818.17	228.62
818.48	228.56
818.80	228.56
819.12	228.51
819.44	228.45
819.76	228.40
820.07	228.42
820.39	228.40
820.71	228.38
821.03	228.34
821.34	228.32
821.66	228.30
821.98	228.29
822.30	228.25
822.61	228.29
822.93	228.24
823.25	228.25
823.57	228.22
823.88	228.23
824.20	228.21
824.52	228.19
824.83	228.16
825.15	228.12
825.47	228.07
825.79	228.05
826.10	228.03
826.42	227.99
826.74	227.94
827.05	227.94
827.37	227.90
827.69	227.92
828.00	227.90
828.32	227.90
828.64	227.85
828.95	227.95
829.27	227.91
829.58	227.86
829.90	227.87
830.22	227.90
830.53	227.84
830.85	227.85
831.17	227.81
831.48	227.82
831.80	227.83
832.11	227.85
832.43	227.83
832.75	227.81
833.06	227.88
833.38	227.87
833.69	227.85
834.01	227.82
834.32	227.81
834.64	227.80
834.96	227.80
835.27	227.81
835.59	227.76
835.90	227.74
836.22	227.77
836.53	227.75
836.85	227.74
837.16	227.86
837.48	227.85
837.79	227.89
838.11	227.89
838.42	227.92
838.74	227.93
839.05	227.96
839.37	227.99
839.68	227.96
840.00	227.96
840.31	228.00
840.63	228.06
840.94	228.05
841.26	228.05
841.57	228.08
841.88	228.07
842.20	228.06
842.51	228.06
842.83	228.08
843.14	228.14
843.46	228.13
843.77	228.06
844.08	228.03
844.40	228.00
844.71	227.97
845.03	227.94
845.34	227.92
845.65	227.89
845.97	227.89
846.28	227.89
846.60	227.89
846.91	227.87
847.22	227.81
847.54	227.84
847.85	227.81
848.16	227.76
848.48	227.75
848.79	227.76
849.10	227.73
849.42	227.70
849.73	227.65
850.04	227.59
850.36	227.54
850.67	227.56
850.98	227.54
851.30	227.53
851.61	227.49
851.92	227.46
852.23	227.50
852.55	227.49
852.86	227.46
853.17	227.44
853.49	227.45
853.80	227.46
854.11	227.48
854.42	227.50
854.74	227.48
855.05	227.47
855.36	227.42
855.67	227.41
855.99	227.40
856.30	227.50
856.61	227.50
856.92	227.52
857.23	227.50
857.55	227.48
857.86	227.48
858.17	227.48
858.48	227.46
858.79	227.40
859.11	227.37
859.42	227.39
859.73	227.37
860.04	227.33
860.35	227.32
860.66	227.22
860.98	227.19
861.29	227.21
861.60	227.21
861.91	227.23
862.22	227.23
862.53	227.18
862.84	227.04
863.16	227.07
863.47	227.03
863.78	227.02
864.09	227.03
864.40	227.03
864.71	227.06
865.02	227.08
865.33	227.03
865.64	227.05
865.95	227.01
866.27	227.08
866.58	227.04
866.89	227.02
867.20	227.04
867.51	227.02
867.82	227.03
868.13	227.02
868.44	226.98
868.75	227.00
869.06	227.00
869.37	227.00
869.68	226.99
869.99	227.01
870.30	227.02
870.61	227.01
870.92	226.98
871.23	226.92
871.54	226.93
871.85	226.97
872.16	226.96
872.47	226.98
872.78	226.92
873.09	226.94
873.40	226.94
873.71	226.93
874.02	226.92
874.33	226.91
874.64	226.89
874.95	226.92
875.26	226.86
875.56	226.89
875.87	226.88
876.18	226.85
876.49	226.94
876.80	226.92
877.11	226.90
877.42	226.94
877.73	226.98
878.04	226.99
878.35	227.00
878.66	227.01
878.96	226.98
879.27	227.01
879.58	226.99
879.89	227.01
880.20	227.06
880.51	227.08
880.82	227.06
881.12	227.08
881.43	227.06
881.74	227.08
882.05	227.06
882.36	227.07
882.67	227.09
882.97	227.01
883.28	227.01
883.59	227.02
883.90	227.02
884.21	227.05
884.51	227.04
884.82	227.01
885.13	226.99
885.44	227.01
885.74	227.02
886.05	227.02
886.36	226.99
886.67	226.96
886.98	227.00
887.28	227.06
887.59	227.07
887.90	227.07
888.20	227.08
888.51	227.13
888.82	227.14
889.13	227.16
889.43	227.19
889.74	227.17
890.05	227.19
890.35	227.20
890.66	227.16
890.97	227.13
891.28	227.14
891.58	227.15
891.89	227.17
892.20	227.14
892.50	227.13
892.81	227.16
893.12	227.17
893.42	227.13
893.73	227.11
894.04	227.09
894.34	227.14
894.65	227.14
894.95	227.08
895.26	227.07
895.57	227.09
895.87	227.02
896.18	227.05
896.48	227.05
896.79	227.03
897.10	227.04
897.40	227.05
897.71	227.08
898.01	227.07
898.32	227.04
898.63	227.03
898.93	227.05
899.24	226.99
899.54	226.98
899.85	226.94
900.15	226.92
900.46	226.92
900.76	226.90
901.07	226.88
901.38	226.89
901.68	226.90
901.99	226.84
902.29	226.83
902.60	226.79
902.90	226.76
903.21	226.77
903.51	226.76
903.82	226.81
904.12	226.81
904.43	226.83
904.73	226.83
905.03	226.83
905.34	226.94
905.64	226.96
905.95	226.96
906.25	227.01
906.56	227.01
906.86	227.00
907.17	226.99
907.47	227.00
907.77	226.98
908.08	226.96
908.38	226.99
908.69	227.00
908.99	227.04
909.30	227.06
909.60	227.01
909.90	227.02
910.21	226.94
910.51	226.91
910.81	226.88
911.12	226.91
911.42	226.91
911.73	226.78
912.03	226.77
912.33	226.80
912.64	226.76
912.94	226.74
913.24	226.72
913.55	226.70
913.85	226.70
914.15	226.72
914.46	226.72
914.76	226.70
915.06	226.70
915.37	226.68
915.67	226.68
915.97	226.73
916.27	226.72
916.58	226.73
916.88	226.70
917.18	226.71
917.49	226.80
917.79	226.78
918.09	226.83
918.39	226.84
918.70	226.82
919.00	226.86
919.30	226.89
919.60	226.90
919.91	226.90
920.21	226.87
920.51	226.88
920.81	226.88
921.12	226.88
921.42	226.87
921.72	226.85
922.02	226.85
922.32	226.83
922.63	226.84
922.93	226.91
923.23	226.96
923.53	226.94
923.83	226.85
924.13	226.86
924.44	226.86
924.74	226.90
925.04	226.93
925.34	226.91
925.64	226.88
925.94	226.90
926.24	226.95
926.55	226.98
926.85	226.97
927.15	226.95
927.45	226.97
927.75	227.01
928.05	227.05
928.35	227.06
928.65	227.08
928.95	227.08
929.26	227.02
929.56	227.01
929.86	227.01
930.16	226.99
930.46	226.97
930.76	226.98
931.06	226.92
931.36	226.90
931.66	226.94
931.96	226.95
932.26	226.95
932.56	226.94
932.86	226.95
933.16	226.93
933.46	226.95
933.76	226.91
934.06	226.92
934.36	226.92
934.66	226.92
934.96	226.91
935.26	226.93
935.56	226.96
935.86	226.93
936.16	226.96
936.46	226.97
936.76	226.96
937.06	226.90
937.36	226.91
937.66	226.88
937.96	226.84
938.26	226.80
938.56	226.80
938.86	226.77
939.16	226.77
939.46	226.79
939.76	226.78
940.06	226.80
940.35	226.74
940.65	226.69
940.95	226.70
941.25	226.68
941.55	226.66
941.85	226.63
942.15	226.65
942.45	226.62
942.75	226.63
943.04	226.64
943.34	226.69
943.64	226.68
943.94	226.67
944.24	226.67
944.54	226.69
944.84	226.65
945.13	226.64
945.43	226.63
945.73	226.61
946.03	226.65
946.33	226.64
946.62	226.59
946.92	226.63
947.22	226.64
947.52	226.62
947.82	226.65
948.11	226.65
948.41	226.61
948.71	226.65
949.01	226.64
949.31	226.64
949.60	226.63
949.90	226.64
950.20	226.65
950.50	226.66
950.79	226.67
951.09	226.72
951.39	226.75
951.69	226.75
951.98	226.76
952.28	226.72
952.58	226.72
952.87	226.76
953.17	226.74
953.47	226.74
953.76	226.74
954.06	226.74
954.36	226.76
954.66	226.77
954.95	226.79
955.25	226.81
955.55	226.80
955.84	226.81
956.14	226.84
956.44	226.86
956.73	226.86
957.03	226.86
957.32	226.85
957.62	226.81
957.92	226.82
958.21	226.84
958.51	226.96
958.81	226.97
959.10	226.98
959.40	227.01
959.69	226.98
959.99	227.02
960.29	226.99
960.58	226.95
960.88	227.01
961.17	226.98
961.47	226.95
961.76	226.96
962.06	226.96
962.36	226.96
962.65	226.95
962.95	226.95
963.24	226.94
963.54	226.94
963.83	226.98
964.13	226.98
964.42	226.95
964.72	226.90
965.01	226.91
965.31	226.91
965.60	226.92
965.90	227.00
966.19	226.96
966.49	226.96
966.78	226.97
967.08	226.94
967.37	226.96
967.67	226.94
967.96	226.95
968.26	226.95
968.55	226.98
968.85	226.99
969.14	226.99
969.43	226.96
969.73	226.96
970.02	226.93
970.32	226.91
970.61	226.91
970.91	226.85
971.20	226.83
971.49	226.81
971.79	226.80
972.08	226.70
972.38	226.69
972.67	226.70
972.96	226.70
973.26	226.68
973.55	226.69
973.85	226.70
974.14	226.69
974.43	226.68
974.73	226.61
975.02	226.62
975.31	226.61
975.61	226.65
975.90	226.63
976.19	226.65
976.49	226.66
976.78	226.66
977.07	226.69
977.37	226.67
977.66	226.67
977.95	226.63
978.24	226.64
978.54	226.65
978.83	226.63
979.12	226.61
979.42	226.61
979.71	226.59
980.00	226.58
980.29	226.55
980.59	226.54
980.88	226.56
981.17	226.53
981.46	226.53
981.76	226.50
982.05	226.53
982.34	226.53
982.63	226.51
982.93	226.50
983.22	226.52
983.51	226.56
983.80	226.59
984.09	226.63
984.39	226.65
984.68	226.67
984.97	226.68
985.26	226.69
985.55	226.68
985.85	226.67
986.14	226.70
986.43	226.75
986.72	226.73
987.01	226.71
987.30	226.69
987.59	226.65
987.89	226.64
988.18	226.57
988.47	226.55
988.76	226.54
989.05	226.54
989.34	226.52
989.63	226.52
989.92	226.52
990.22	226.45
990.51	226.45
990.80	226.45
991.09	226.49
991.38	226.50
991.67	226.51
991.96	226.50
992.25	226.49
992.54	226.46
992.83	226.42
993.12	226.41
993.41	226.44
993.70	226.50
993.99	226.54
994.28	226.59
994.58	226.60
994.87	226.59
995.16	226.58
995.45	226.56
995.74	226.54
996.03	226.51
996.32	226.55
996.61	226.56
996.90	226.52
997.19	226.50
997.48	226.49
997.77	226.48
998.06	226.46
998.34	226.46
998.63	226.49
998.92	226.52
999.21	226.57
999.50	226.58
999.79	226.55
1000.08	226.58
1000.37	226.57
1000.66	226.57
1000.95	226.61
1001.24	226.63
1001.53	226.64
1001.82	226.65
1002.11	226.67
1002.40	226.70
1002.68	226.70
1002.97	226.79
1003.26	226.77
1003.55	226.77
1003.84	226.77
1004.13	226.83
1004.42	226.82
1004.71	226.81
1004.99	226.81
1005.28	226.82
1005.57	226.81
1005.86	226.82
1006.15	226.78
1006.44	226.78
1006.72	226.79
1007.01	226.79
1007.30	226.80
1007.59	226.82
1007.88	226.83
1008.17	226.80
1008.45	226.78
1008.74	226.76
1009.03	226.75
1009.32	226.76
1009.60	226.74
1009.89	226.75
1010.18	226.75
1010.47	226.76
1010.76	226.76
1011.04	226.80
1011.33	226.79
1011.62	226.81
1011.91	226.83
1012.19	226.84
1012.48	226.85
1012.77	226.85
1013.05	226.90
1013.34	226.87
1013.63	226.85
1013.92	226.83
1014.20	226.85
1014.49	226.85
1014.78	226.86
1015.06	226.77
1015.35	226.75
1015.64	226.79
1015.92	226.78
1016.21	226.76
1016.50	226.77
1016.78	226.78
1017.07	226.79
1017.36	226.77
1017.64	226.74
1017.93	226.73
1018.22	226.70
1018.50	226.68
1018.79	226.70
1019.08	226.64
1019.36	226.65
1019.65	226.66
1019.93	226.67
1020.22	226.68
1020.51	226.76
1020.79	226.72
1021.08	226.48
1021.36	226.54
1021.65	227.16
1021.94	226.45
1022.22	226.67
1022.51	226.83
1022.79	226.86
1023.08	226.74
1023.36	228.24
1023.65	226.12
>>>>>End Processed Spectral Data<<<<<
