SpectraSuite Data File
++++++++++++++++++++++++++++++++++++
Date: Fri Feb 01 18:08:12 EST 2013
User: group
Dark Spectrum Present: No
Reference Spectrum Present: No
Number of Sampled Component Spectra: 1
Spectrometers: USB2E7196
Integration Time (usec): 35000 (USB2E7196)
Spectra Averaged: 100 (USB2E7196)
Boxcar Smoothing: 10 (USB2E7196)
Correct for Electrical Dark: No (USB2E7196)
Strobe/Lamp Enabled: No (USB2E7196)
Correct for Detector Non-linearity: No (USB2E7196)
Correct for Stray Light: No (USB2E7196)
Number of Pixels in Processed Spectrum: 2048
>>>>>Begin Processed Spectral Data<<<<<
339.09	0.00
339.48	212.85
339.86	214.72
340.24	216.15
340.63	216.82
341.01	219.65
341.39	220.36
341.78	221.42
342.16	222.50
342.54	222.93
342.93	211.39
343.31	222.07
343.69	222.60
344.07	223.06
344.46	223.47
344.84	223.86
345.22	224.09
345.60	224.32
345.99	224.50
346.37	224.65
346.75	224.76
347.13	224.83
347.52	224.90
347.90	224.96
348.28	225.00
348.66	225.09
349.05	225.08
349.43	225.15
349.81	225.20
350.19	225.26
350.57	225.30
350.96	225.37
351.34	225.47
351.72	225.57
352.10	225.67
352.48	225.74
352.87	225.81
353.25	225.91
353.63	225.98
354.01	226.04
354.39	226.10
354.77	226.20
355.15	226.31
355.54	226.36
355.92	226.38
356.30	226.47
356.68	226.60
357.06	226.66
357.44	226.73
357.82	226.77
358.20	226.85
358.58	226.93
358.97	226.95
359.35	227.00
359.73	227.10
360.11	227.16
360.49	227.21
360.87	227.25
361.25	227.30
361.63	227.40
362.01	227.43
362.39	227.45
362.77	227.48
363.15	227.54
363.53	227.57
363.91	227.63
364.29	227.64
364.67	227.57
365.05	227.60
365.43	227.61
365.81	227.66
366.19	227.71
366.57	227.79
366.95	227.79
367.33	227.80
367.71	227.80
368.09	227.79
368.47	227.77
368.85	227.75
369.23	227.76
369.61	227.66
369.99	227.71
370.37	227.69
370.75	227.71
371.13	227.64
371.51	227.60
371.89	227.59
372.27	227.56
372.65	227.50
373.03	227.46
373.41	227.41
373.78	227.34
374.16	227.23
374.54	227.10
374.92	227.06
375.30	227.02
375.68	226.92
376.06	226.87
376.44	226.83
376.82	226.77
377.19	226.72
377.57	226.67
377.95	226.55
378.33	226.48
378.71	226.37
379.09	226.34
379.47	226.29
379.84	226.18
380.22	226.11
380.60	226.05
380.98	225.99
381.36	225.93
381.73	225.86
382.11	225.81
382.49	225.78
382.87	225.72
383.25	225.61
383.62	225.66
384.00	225.58
384.38	225.53
384.76	225.51
385.13	225.49
385.51	225.47
385.89	225.42
386.27	225.38
386.64	225.35
387.02	225.29
387.40	225.25
387.78	225.25
388.15	225.19
388.53	225.13
388.91	225.08
389.29	225.04
389.66	225.05
390.04	225.01
390.42	224.98
390.79	224.96
391.17	224.97
391.55	224.84
391.92	224.80
392.30	224.81
392.68	224.78
393.05	224.76
393.43	224.75
393.81	224.74
394.18	224.72
394.56	224.69
394.94	224.71
395.31	224.70
395.69	224.74
396.06	224.80
396.44	224.86
396.82	224.88
397.19	224.95
397.57	224.97
397.95	225.05
398.32	225.05
398.70	225.11
399.07	225.18
399.45	225.24
399.82	225.33
400.20	225.39
400.58	225.46
400.95	225.46
401.33	225.52
401.70	225.64
402.08	225.74
402.45	225.85
402.83	225.98
403.20	226.11
403.58	226.19
403.95	226.32
404.33	226.46
404.71	226.63
405.08	226.85
405.46	226.98
405.83	227.12
406.21	227.32
406.58	227.52
406.96	227.71
407.33	227.93
407.70	228.15
408.08	228.43
408.45	228.67
408.83	229.01
409.20	229.30
409.58	229.58
409.95	229.89
410.33	230.24
410.70	230.55
411.08	230.94
411.45	231.33
411.82	231.75
412.20	232.21
412.57	232.73
412.95	233.10
413.32	233.66
413.69	234.20
414.07	234.78
414.44	235.37
414.82	236.00
415.19	236.72
415.56	237.45
415.94	238.19
416.31	239.07
416.68	239.91
417.06	240.88
417.43	241.79
417.81	242.83
418.18	243.90
418.55	245.07
418.93	246.25
419.30	247.49
419.67	248.73
420.04	250.08
420.42	251.38
420.79	252.96
421.16	254.49
421.54	256.10
421.91	257.75
422.28	259.46
422.66	261.29
423.03	263.05
423.40	264.87
423.77	266.85
424.15	268.80
424.52	270.80
424.89	273.00
425.26	275.13
425.64	277.12
426.01	279.31
426.38	281.54
426.75	283.79
427.13	286.16
427.50	288.63
427.87	291.13
428.24	293.72
428.61	296.12
428.99	298.81
429.36	301.70
429.73	304.53
430.10	307.35
430.47	310.15
430.85	313.05
431.22	316.16
431.59	319.37
431.96	322.38
432.33	325.78
432.70	329.03
433.08	332.85
433.45	336.46
433.82	340.03
434.19	344.00
434.56	347.89
434.93	351.50
435.30	355.06
435.68	359.02
436.05	362.89
436.42	366.76
436.79	370.23
437.16	373.96
437.53	377.79
437.90	381.50
438.27	385.32
438.64	389.17
439.01	392.69
439.38	395.79
439.75	398.79
440.13	402.18
440.50	405.33
440.87	407.88
441.24	410.56
441.61	413.49
441.98	415.56
442.35	418.04
442.72	420.57
443.09	423.09
443.46	424.50
443.83	425.36
444.20	426.02
444.57	427.18
444.94	427.51
445.31	428.07
445.68	428.58
446.05	428.62
446.42	428.16
446.79	427.53
447.16	426.87
447.53	426.45
447.90	424.88
448.27	423.33
448.64	421.17
449.01	419.60
449.37	416.89
449.74	414.20
450.11	411.02
450.48	407.60
450.85	404.09
451.22	401.17
451.59	398.33
451.96	395.66
452.33	392.09
452.70	388.91
453.07	385.00
453.43	381.10
453.80	377.34
454.17	373.64
454.54	370.24
454.91	366.55
455.28	362.92
455.65	359.54
456.02	356.11
456.38	353.16
456.75	349.50
457.12	346.47
457.49	343.45
457.86	340.53
458.23	338.04
458.59	335.24
458.96	332.34
459.33	329.82
459.70	327.25
460.07	325.16
460.43	322.82
460.80	320.55
461.17	318.56
461.54	316.49
461.91	314.52
462.27	312.51
462.64	310.78
463.01	308.87
463.38	307.03
463.74	305.23
464.11	303.61
464.48	302.20
464.85	300.68
465.21	299.47
465.58	298.19
465.95	296.66
466.32	295.43
466.68	294.20
467.05	292.93
467.42	291.70
467.78	290.43
468.15	289.18
468.52	288.27
468.88	287.11
469.25	286.06
469.62	285.21
469.98	284.26
470.35	283.37
470.72	282.55
471.08	281.66
471.45	280.87
471.82	280.11
472.18	279.30
472.55	278.66
472.92	277.96
473.28	277.35
473.65	276.74
474.02	276.11
474.38	275.55
474.75	275.09
475.11	274.57
475.48	274.15
475.85	273.79
476.21	273.44
476.58	273.15
476.94	272.89
477.31	272.58
477.67	272.35
478.04	272.14
478.41	272.00
478.77	271.99
479.14	271.84
479.50	271.75
479.87	271.75
480.23	271.76
480.60	271.74
480.96	271.76
481.33	271.93
481.69	272.08
482.06	272.22
482.42	272.37
482.79	272.62
483.15	272.94
483.52	273.33
483.88	273.64
484.25	273.97
484.61	274.36
484.98	274.76
485.34	275.27
485.71	275.86
486.07	276.45
486.44	276.98
486.80	277.74
487.17	278.49
487.53	279.31
487.90	280.14
488.26	281.13
488.62	282.10
488.99	283.09
489.35	284.13
489.72	285.34
490.08	286.59
490.44	287.87
490.81	289.20
491.17	290.58
491.54	292.10
491.90	293.71
492.26	295.42
492.63	297.30
492.99	299.18
493.36	301.18
493.72	303.34
494.08	305.57
494.45	307.91
494.81	310.40
495.17	312.97
495.54	315.70
495.90	318.54
496.26	321.53
496.63	324.65
496.99	328.04
497.35	331.45
497.72	335.08
498.08	338.84
498.44	342.73
498.80	346.92
499.17	351.24
499.53	355.70
499.89	360.36
500.26	365.14
500.62	370.08
500.98	375.36
501.34	380.77
501.71	386.44
502.07	392.23
502.43	398.23
502.79	404.43
503.16	410.87
503.52	417.53
503.88	424.34
504.24	431.42
504.60	438.74
504.97	446.40
505.33	454.25
505.69	462.51
506.05	470.89
506.41	479.35
506.78	488.07
507.14	497.11
507.50	506.48
507.86	516.15
508.22	526.05
508.59	535.93
508.95	546.15
509.31	556.67
509.67	567.51
510.03	578.53
510.39	589.86
510.75	601.48
511.12	613.25
511.48	625.38
511.84	637.67
512.20	650.04
512.56	662.81
512.92	675.88
513.28	689.17
513.64	702.62
514.00	716.31
514.37	730.29
514.73	744.44
515.09	758.47
515.45	772.80
515.81	787.58
516.17	802.72
516.53	818.13
516.89	833.57
517.25	849.01
517.61	864.65
517.97	880.36
518.33	896.02
518.69	912.12
519.05	928.51
519.41	945.08
519.77	961.99
520.13	978.91
520.49	995.77
520.85	1012.59
521.21	1029.70
521.57	1047.42
521.93	1064.74
522.29	1082.58
522.65	1100.51
523.01	1118.40
523.37	1135.95
523.73	1153.76
524.09	1171.45
524.45	1189.39
524.81	1207.69
525.17	1226.31
525.53	1245.08
525.89	1263.75
526.25	1282.39
526.61	1300.58
526.97	1319.23
527.33	1337.63
527.68	1356.16
528.04	1374.53
528.40	1393.02
528.76	1412.14
529.12	1430.82
529.48	1449.79
529.84	1467.65
530.20	1486.25
530.56	1505.26
530.91	1524.91
531.27	1543.76
531.63	1562.24
531.99	1580.96
532.35	1599.04
532.71	1617.05
533.07	1635.32
533.42	1653.39
533.78	1671.63
534.14	1689.98
534.50	1707.42
534.86	1725.39
535.21	1742.75
535.57	1760.80
535.93	1778.48
536.29	1795.36
536.65	1812.49
537.00	1829.37
537.36	1847.20
537.72	1863.92
538.08	1880.71
538.44	1896.69
538.79	1912.83
539.15	1928.73
539.51	1944.77
539.87	1961.48
540.22	1977.50
540.58	1993.72
540.94	2009.35
541.29	2024.48
541.65	2039.52
542.01	2055.09
542.37	2069.92
542.72	2084.61
543.08	2098.82
543.44	2113.81
543.79	2127.51
544.15	2140.84
544.51	2154.88
544.87	2168.10
545.22	2181.19
545.58	2193.68
545.94	2205.71
546.29	2217.75
546.65	2229.97
547.01	2241.43
547.36	2252.19
547.72	2262.86
548.07	2272.80
548.43	2283.02
548.79	2293.12
549.14	2302.82
549.50	2312.26
549.86	2321.87
550.21	2331.38
550.57	2340.67
550.92	2349.04
551.28	2358.06
551.64	2367.22
551.99	2375.54
552.35	2383.63
552.70	2391.87
553.06	2399.76
553.41	2407.98
553.77	2416.02
554.13	2423.91
554.48	2432.08
554.84	2439.77
555.19	2446.77
555.55	2453.75
555.90	2460.03
556.26	2466.89
556.61	2473.38
556.97	2479.52
557.32	2485.37
557.68	2491.14
558.03	2497.14
558.39	2502.31
558.74	2508.70
559.10	2514.19
559.45	2519.50
559.81	2525.41
560.16	2530.82
560.52	2535.68
560.87	2540.62
561.23	2544.69
561.58	2549.15
561.94	2553.00
562.29	2556.48
562.64	2560.70
563.00	2564.48
563.35	2569.52
563.71	2573.86
564.06	2578.42
564.42	2582.66
564.77	2586.59
565.12	2590.13
565.48	2593.19
565.83	2596.59
566.19	2599.06
566.54	2600.90
566.89	2603.11
567.25	2604.84
567.60	2607.23
567.96	2609.99
568.31	2611.80
568.66	2613.91
569.02	2615.41
569.37	2616.60
569.72	2618.48
570.08	2619.47
570.43	2620.60
570.78	2620.97
571.14	2620.09
571.49	2619.28
571.84	2619.45
572.20	2618.93
572.55	2618.50
572.90	2617.23
573.26	2616.30
573.61	2614.89
573.96	2613.72
574.31	2611.17
574.67	2608.37
575.02	2604.82
575.37	2601.55
575.72	2597.99
576.08	2594.75
576.43	2591.55
576.78	2588.01
577.13	2585.01
577.49	2582.01
577.84	2578.52
578.19	2574.58
578.54	2571.09
578.90	2566.97
579.25	2561.03
579.60	2555.69
579.95	2550.44
580.30	2545.28
580.66	2539.90
581.01	2534.69
581.36	2529.42
581.71	2524.97
582.06	2520.38
582.42	2515.67
582.77	2509.99
583.12	2505.10
583.47	2500.20
583.82	2494.93
584.17	2489.29
584.53	2483.12
584.88	2476.95
585.23	2470.73
585.58	2464.55
585.93	2458.51
586.28	2453.21
586.63	2447.93
586.98	2442.52
587.34	2437.24
587.69	2431.88
588.04	2426.03
588.39	2419.93
588.74	2412.75
589.09	2405.86
589.44	2398.21
589.79	2391.33
590.14	2385.00
590.49	2377.50
590.84	2370.10
591.19	2363.28
591.54	2355.86
591.89	2347.75
592.25	2340.09
592.60	2331.73
592.95	2323.30
593.30	2314.86
593.65	2306.32
594.00	2298.14
594.35	2289.75
594.70	2280.50
595.05	2272.40
595.40	2264.03
595.75	2255.30
596.10	2248.19
596.45	2240.56
596.80	2233.42
597.15	2225.91
597.50	2217.79
597.85	2210.37
598.19	2202.87
598.54	2194.74
598.89	2187.09
599.24	2180.19
599.59	2172.57
599.94	2165.48
600.29	2158.13
600.64	2150.50
600.99	2141.84
601.34	2133.96
601.69	2125.90
602.04	2118.21
602.39	2109.71
602.74	2101.74
603.08	2093.89
603.43	2086.12
603.78	2077.47
604.13	2069.12
604.48	2060.71
604.83	2052.73
605.18	2044.67
605.53	2035.50
605.87	2026.02
606.22	2017.52
606.57	2008.06
606.92	1999.29
607.27	1990.81
607.62	1982.74
607.96	1974.29
608.31	1966.52
608.66	1957.49
609.01	1948.67
609.36	1939.55
609.70	1930.05
610.05	1920.55
610.40	1911.51
610.75	1901.64
611.10	1892.73
611.44	1882.68
611.79	1873.18
612.14	1862.88
612.49	1852.05
612.83	1841.97
613.18	1832.51
613.53	1822.94
613.88	1813.05
614.22	1803.21
614.57	1793.10
614.92	1783.63
615.27	1774.71
615.61	1764.86
615.96	1755.42
616.31	1746.25
616.65	1737.65
617.00	1728.69
617.35	1719.68
617.70	1709.89
618.04	1699.90
618.39	1690.00
618.74	1681.02
619.08	1671.26
619.43	1662.30
619.78	1653.98
620.12	1645.55
620.47	1636.55
620.82	1626.90
621.16	1617.99
621.51	1609.01
621.85	1599.87
622.20	1589.68
622.55	1579.73
622.89	1570.39
623.24	1561.20
623.59	1552.37
623.93	1543.30
624.28	1534.80
624.62	1525.81
624.97	1517.17
625.32	1509.05
625.66	1500.78
626.01	1492.35
626.35	1483.57
626.70	1474.38
627.04	1465.33
627.39	1456.08
627.73	1447.37
628.08	1439.24
628.43	1430.76
628.77	1422.12
629.12	1413.28
629.46	1404.89
629.81	1396.03
630.15	1387.40
630.50	1378.86
630.84	1369.24
631.19	1359.96
631.53	1350.96
631.88	1342.02
632.22	1333.17
632.57	1324.50
632.91	1315.61
633.26	1306.87
633.60	1298.05
633.95	1289.67
634.29	1281.28
634.64	1273.37
634.98	1264.62
635.32	1256.09
635.67	1248.14
636.01	1240.30
636.36	1232.33
636.70	1224.53
637.05	1216.76
637.39	1209.17
637.73	1201.39
638.08	1194.53
638.42	1187.38
638.77	1179.85
639.11	1172.18
639.45	1164.57
639.80	1156.90
640.14	1149.50
640.49	1141.82
640.83	1134.46
641.17	1127.10
641.52	1119.73
641.86	1112.09
642.20	1105.30
642.55	1097.83
642.89	1090.34
643.23	1082.45
643.58	1075.66
643.92	1068.47
644.26	1061.47
644.61	1054.39
644.95	1047.39
645.29	1039.69
645.64	1031.84
645.98	1024.49
646.32	1017.58
646.66	1010.50
647.01	1003.65
647.35	996.85
647.69	989.95
648.04	983.46
648.38	976.75
648.72	969.83
649.06	962.81
649.41	955.87
649.75	948.95
650.09	942.02
650.43	935.42
650.78	928.22
651.12	921.30
651.46	914.58
651.80	908.00
652.14	901.76
652.49	895.47
652.83	889.43
653.17	882.70
653.51	876.06
653.85	869.78
654.20	863.17
654.54	856.19
654.88	849.49
655.22	842.60
655.56	836.03
655.90	829.63
656.25	823.59
656.59	817.34
656.93	811.40
657.27	805.38
657.61	799.07
657.95	793.26
658.29	787.37
658.64	781.27
658.98	774.99
659.32	768.58
659.66	762.52
660.00	756.40
660.34	750.66
660.68	745.00
661.02	739.13
661.36	733.59
661.70	728.32
662.05	723.30
662.39	718.27
662.73	713.02
663.07	707.91
663.41	702.65
663.75	697.46
664.09	692.18
664.43	687.04
664.77	682.28
665.11	677.22
665.45	672.37
665.79	667.62
666.13	662.83
666.47	658.10
666.81	653.30
667.15	648.48
667.49	643.97
667.83	639.50
668.17	634.96
668.51	630.31
668.85	625.66
669.19	621.17
669.53	616.79
669.87	612.32
670.21	607.99
670.55	603.82
670.89	599.82
671.23	595.79
671.57	591.71
671.91	587.56
672.25	583.45
672.58	579.35
672.92	575.28
673.26	571.59
673.60	567.94
673.94	564.35
674.28	560.99
674.62	557.50
674.96	553.89
675.30	550.53
675.64	547.14
675.97	543.90
676.31	540.61
676.65	537.18
676.99	533.98
677.33	530.69
677.67	527.39
678.01	523.86
678.34	520.44
678.68	517.08
679.02	513.80
679.36	510.57
679.70	507.49
680.04	504.38
680.37	501.06
680.71	497.77
681.05	494.72
681.39	491.61
681.73	488.53
682.06	485.58
682.40	482.59
682.74	479.64
683.08	476.61
683.42	473.57
683.75	470.69
684.09	467.75
684.43	464.86
684.77	461.97
685.10	459.25
685.44	456.54
685.78	453.93
686.12	451.32
686.45	448.67
686.79	445.94
687.13	443.35
687.46	440.85
687.80	438.33
688.14	435.70
688.48	433.22
688.81	430.64
689.15	428.09
689.49	425.55
689.82	423.12
690.16	420.75
690.50	418.43
690.83	416.09
691.17	413.80
691.51	411.64
691.84	409.49
692.18	407.23
692.52	404.96
692.85	402.71
693.19	400.54
693.52	398.40
693.86	396.30
694.20	394.25
694.53	392.15
694.87	389.98
695.21	387.94
695.54	385.84
695.88	383.85
696.21	381.83
696.55	379.92
696.88	377.93
697.22	375.98
697.56	374.11
697.89	372.25
698.23	370.37
698.56	368.45
698.90	366.64
699.23	364.73
699.57	362.96
699.90	361.14
700.24	359.34
700.58	357.55
700.91	355.82
701.25	354.13
701.58	352.52
701.92	350.95
702.25	349.34
702.59	347.72
702.92	346.19
703.26	344.71
703.59	343.22
703.93	341.85
704.26	340.42
704.60	338.92
704.93	337.44
705.26	336.00
705.60	334.58
705.93	333.22
706.27	332.00
706.60	330.75
706.94	329.47
707.27	328.13
707.61	326.87
707.94	325.63
708.27	324.38
708.61	323.10
708.94	321.92
709.28	320.76
709.61	319.66
709.94	318.51
710.28	317.30
710.61	316.10
710.95	314.85
711.28	313.79
711.61	312.69
711.95	311.57
712.28	310.43
712.61	309.32
712.95	308.22
713.28	307.16
713.61	306.11
713.95	305.08
714.28	304.13
714.61	303.14
714.95	302.17
715.28	301.16
715.61	300.14
715.95	299.15
716.28	298.11
716.61	297.09
716.95	296.13
717.28	295.23
717.61	294.37
717.94	293.50
718.28	292.53
718.61	291.64
718.94	290.85
719.27	290.05
719.61	289.30
719.94	288.53
720.27	287.72
720.60	286.92
720.94	286.14
721.27	285.41
721.60	284.72
721.93	284.01
722.27	283.34
722.60	282.71
722.93	282.03
723.26	281.46
723.59	280.82
723.93	280.16
724.26	279.49
724.59	278.86
724.92	278.27
725.25	277.70
725.59	277.11
725.92	276.48
726.25	275.92
726.58	275.31
726.91	274.71
727.24	274.10
727.57	273.55
727.91	272.96
728.24	272.41
728.57	271.82
728.90	271.28
729.23	270.70
729.56	270.21
729.89	269.67
730.22	269.08
730.55	268.54
730.89	268.02
731.22	267.54
731.55	267.01
731.88	266.48
732.21	265.96
732.54	265.46
732.87	264.97
733.20	264.47
733.53	264.00
733.86	263.59
734.19	263.17
734.52	262.75
734.85	262.44
735.18	261.97
735.51	261.56
735.84	261.12
736.17	260.71
736.50	260.25
736.83	259.99
737.16	259.63
737.49	259.25
737.82	258.86
738.15	258.48
738.48	258.08
738.81	257.68
739.14	257.30
739.47	256.93
739.80	256.59
740.13	256.26
740.46	255.90
740.79	255.51
741.12	255.16
741.45	254.77
741.78	254.31
742.11	253.98
742.44	253.64
742.77	253.31
743.10	252.98
743.43	252.61
743.75	252.15
744.08	251.91
744.41	251.57
744.74	251.26
745.07	250.92
745.40	250.64
745.73	250.37
746.06	250.03
746.39	249.71
746.71	249.41
747.04	249.07
747.37	248.77
747.70	248.45
748.03	248.16
748.36	247.87
748.68	247.62
749.01	247.32
749.34	247.06
749.67	246.80
750.00	246.52
750.33	246.33
750.65	246.10
750.98	245.73
751.31	245.50
751.64	245.28
751.97	245.08
752.29	244.81
752.62	244.53
752.95	244.33
753.28	244.06
753.60	243.80
753.93	243.58
754.26	243.31
754.59	243.07
754.91	242.83
755.24	242.64
755.57	242.43
755.90	242.23
756.22	241.94
756.55	241.67
756.88	241.46
757.20	241.20
757.53	240.94
757.86	240.75
758.19	240.56
758.51	240.31
758.84	240.08
759.17	239.89
759.49	239.71
759.82	239.55
760.15	239.40
760.47	239.25
760.80	239.08
761.13	238.93
761.45	238.76
761.78	238.59
762.11	238.44
762.43	238.23
762.76	238.05
763.08	237.96
763.41	237.86
763.74	237.67
764.06	237.53
764.39	237.40
764.71	237.23
765.04	237.05
765.37	236.93
765.69	236.80
766.02	236.65
766.34	236.52
766.67	236.38
767.00	236.25
767.32	236.14
767.65	236.08
767.97	235.98
768.30	235.86
768.62	235.76
768.95	235.60
769.27	235.50
769.60	235.41
769.92	235.26
770.25	235.11
770.57	234.96
770.90	234.85
771.22	234.71
771.55	234.62
771.87	234.53
772.20	234.37
772.52	234.37
772.85	234.36
773.17	234.26
773.50	234.14
773.82	234.04
774.15	233.91
774.47	233.74
774.80	233.65
775.12	233.53
775.45	233.45
775.77	233.39
776.09	233.28
776.42	233.19
776.74	233.10
777.07	233.02
777.39	232.97
777.72	232.87
778.04	232.82
778.36	232.71
778.69	232.64
779.01	232.59
779.33	232.37
779.66	232.20
779.98	232.10
780.31	232.02
780.63	231.94
780.95	231.87
781.28	231.76
781.60	231.63
781.92	231.57
782.25	231.46
782.57	231.38
782.89	231.33
783.22	231.23
783.54	231.16
783.86	231.07
784.19	231.01
784.51	230.97
784.83	230.90
785.16	230.84
785.48	230.76
785.80	230.72
786.12	230.70
786.45	230.66
786.77	230.63
787.09	230.54
787.42	230.47
787.74	230.43
788.06	230.38
788.38	230.35
788.71	230.26
789.03	230.21
789.35	230.14
789.67	230.07
789.99	230.06
790.32	230.00
790.64	229.98
790.96	230.01
791.28	229.90
791.61	229.83
791.93	229.79
792.25	229.71
792.57	229.71
792.89	229.64
793.21	229.53
793.54	229.44
793.86	229.41
794.18	229.38
794.50	229.31
794.82	229.25
795.14	229.19
795.47	229.19
795.79	229.15
796.11	229.08
796.43	229.06
796.75	228.99
797.07	228.97
797.39	228.91
797.71	228.81
798.04	228.78
798.36	228.75
798.68	228.69
799.00	228.72
799.32	228.66
799.64	228.61
799.96	228.61
800.28	228.62
800.60	228.57
800.92	228.53
801.24	228.49
801.56	228.47
801.89	228.44
802.21	228.41
802.53	228.35
802.85	228.33
803.17	228.31
803.49	228.26
803.81	228.21
804.13	228.18
804.45	228.11
804.77	228.10
805.09	228.05
805.41	228.04
805.73	227.96
806.05	227.88
806.37	227.84
806.69	227.80
807.01	227.77
807.33	227.74
807.65	227.68
807.97	227.67
808.28	227.65
808.60	227.63
808.92	227.59
809.24	227.63
809.56	227.59
809.88	227.52
810.20	227.49
810.52	227.51
810.84	227.48
811.16	227.47
811.48	227.41
811.80	227.47
812.12	227.43
812.43	227.43
812.75	227.43
813.07	227.42
813.39	227.41
813.71	227.39
814.03	227.37
814.35	227.35
814.67	227.29
814.98	227.25
815.30	227.23
815.62	227.18
815.94	227.06
816.26	227.08
816.58	227.09
816.89	227.07
817.21	227.01
817.53	226.99
817.85	226.97
818.17	226.98
818.48	226.91
818.80	226.92
819.12	226.90
819.44	226.87
819.76	226.83
820.07	226.83
820.39	226.78
820.71	226.79
821.03	226.77
821.34	226.78
821.66	226.80
821.98	226.81
822.30	226.81
822.61	226.89
822.93	226.86
823.25	226.85
823.57	226.85
823.88	226.88
824.20	226.84
824.52	226.84
824.83	226.81
825.15	226.78
825.47	226.75
825.79	226.72
826.10	226.69
826.42	226.66
826.74	226.64
827.05	226.63
827.37	226.60
827.69	226.59
828.00	226.56
828.32	226.53
828.64	226.48
828.95	226.53
829.27	226.49
829.58	226.49
829.90	226.47
830.22	226.48
830.53	226.40
830.85	226.41
831.17	226.37
831.48	226.37
831.80	226.36
832.11	226.34
832.43	226.34
832.75	226.35
833.06	226.37
833.38	226.36
833.69	226.35
834.01	226.34
834.32	226.31
834.64	226.32
834.96	226.30
835.27	226.26
835.59	226.23
835.90	226.19
836.22	226.17
836.53	226.14
836.85	226.11
837.16	226.20
837.48	226.14
837.79	226.16
838.11	226.14
838.42	226.12
838.74	226.12
839.05	226.06
839.37	226.01
839.68	225.93
840.00	225.89
840.31	225.87
840.63	225.83
840.94	225.84
841.26	225.81
841.57	225.79
841.88	225.81
842.20	225.72
842.51	225.71
842.83	225.69
843.14	225.74
843.46	225.72
843.77	225.64
844.08	225.64
844.40	225.59
844.71	225.55
845.03	225.57
845.34	225.56
845.65	225.54
845.97	225.56
846.28	225.60
846.60	225.60
846.91	225.56
847.22	225.56
847.54	225.56
847.85	225.55
848.16	225.54
848.48	225.54
848.79	225.61
849.10	225.62
849.42	225.64
849.73	225.56
850.04	225.53
850.36	225.52
850.67	225.56
850.98	225.56
851.30	225.58
851.61	225.56
851.92	225.56
852.23	225.61
852.55	225.61
852.86	225.61
853.17	225.61
853.49	225.66
853.80	225.71
854.11	225.70
854.42	225.73
854.74	225.73
855.05	225.74
855.36	225.67
855.67	225.70
855.99	225.67
856.30	225.77
856.61	225.79
856.92	225.79
857.23	225.79
857.55	225.80
857.86	225.79
858.17	225.81
858.48	225.78
858.79	225.78
859.11	225.79
859.42	225.76
859.73	225.76
860.04	225.75
860.35	225.71
860.66	225.73
860.98	225.72
861.29	225.74
861.60	225.75
861.91	225.79
862.22	225.75
862.53	225.72
862.84	225.62
863.16	225.65
863.47	225.64
863.78	225.60
864.09	225.59
864.40	225.60
864.71	225.61
865.02	225.64
865.33	225.62
865.64	225.59
865.95	225.58
866.27	225.66
866.58	225.62
866.89	225.64
867.20	225.62
867.51	225.59
867.82	225.58
868.13	225.59
868.44	225.55
868.75	225.56
869.06	225.57
869.37	225.59
869.68	225.56
869.99	225.57
870.30	225.59
870.61	225.60
870.92	225.59
871.23	225.58
871.54	225.57
871.85	225.58
872.16	225.57
872.47	225.59
872.78	225.52
873.09	225.57
873.40	225.53
873.71	225.53
874.02	225.53
874.33	225.53
874.64	225.49
874.95	225.51
875.26	225.49
875.56	225.49
875.87	225.50
876.18	225.49
876.49	225.58
876.80	225.57
877.11	225.52
877.42	225.54
877.73	225.49
878.04	225.48
878.35	225.48
878.66	225.51
878.96	225.53
879.27	225.53
879.58	225.49
879.89	225.50
880.20	225.53
880.51	225.51
880.82	225.50
881.12	225.49
881.43	225.44
881.74	225.43
882.05	225.44
882.36	225.42
882.67	225.40
882.97	225.32
883.28	225.33
883.59	225.35
883.90	225.35
884.21	225.39
884.51	225.37
884.82	225.33
885.13	225.30
885.44	225.29
885.74	225.30
886.05	225.32
886.36	225.32
886.67	225.28
886.98	225.35
887.28	225.38
887.59	225.39
887.90	225.42
888.20	225.44
888.51	225.46
888.82	225.49
889.13	225.51
889.43	225.56
889.74	225.55
890.05	225.56
890.35	225.55
890.66	225.55
890.97	225.57
891.28	225.57
891.58	225.58
891.89	225.56
892.20	225.58
892.50	225.58
892.81	225.56
893.12	225.58
893.42	225.53
893.73	225.55
894.04	225.54
894.34	225.55
894.65	225.55
894.95	225.49
895.26	225.48
895.57	225.53
895.87	225.46
896.18	225.47
896.48	225.45
896.79	225.42
897.10	225.46
897.40	225.44
897.71	225.46
898.01	225.46
898.32	225.48
898.63	225.45
898.93	225.45
899.24	225.47
899.54	225.46
899.85	225.46
900.15	225.43
900.46	225.46
900.76	225.48
901.07	225.47
901.38	225.50
901.68	225.50
901.99	225.44
902.29	225.41
902.60	225.44
902.90	225.47
903.21	225.50
903.51	225.47
903.82	225.49
904.12	225.48
904.43	225.49
904.73	225.50
905.03	225.52
905.34	225.59
905.64	225.58
905.95	225.55
906.25	225.56
906.56	225.57
906.86	225.56
907.17	225.52
907.47	225.52
907.77	225.51
908.08	225.51
908.38	225.50
908.69	225.53
908.99	225.50
909.30	225.49
909.60	225.47
909.90	225.51
910.21	225.52
910.51	225.49
910.81	225.50
911.12	225.51
911.42	225.50
911.73	225.38
912.03	225.34
912.33	225.36
912.64	225.36
912.94	225.35
913.24	225.32
913.55	225.32
913.85	225.33
914.15	225.34
914.46	225.32
914.76	225.31
915.06	225.28
915.37	225.26
915.67	225.25
915.97	225.22
916.27	225.14
916.58	225.13
916.88	225.14
917.18	225.10
917.49	225.14
917.79	225.12
918.09	225.16
918.39	225.23
918.70	225.24
919.00	225.20
919.30	225.21
919.60	225.19
919.91	225.14
920.21	225.10
920.51	225.08
920.81	225.09
921.12	225.10
921.42	225.11
921.72	225.10
922.02	225.07
922.32	225.12
922.63	225.17
922.93	225.20
923.23	225.22
923.53	225.23
923.83	225.17
924.13	225.17
924.44	225.14
924.74	225.14
925.04	225.13
925.34	225.11
925.64	225.07
925.94	225.13
926.24	225.20
926.55	225.17
926.85	225.19
927.15	225.18
927.45	225.18
927.75	225.20
928.05	225.24
928.35	225.24
928.65	225.22
928.95	225.18
929.26	225.15
929.56	225.15
929.86	225.15
930.16	225.13
930.46	225.14
930.76	225.14
931.06	225.09
931.36	225.10
931.66	225.14
931.96	225.18
932.26	225.15
932.56	225.11
932.86	225.15
933.16	225.18
933.46	225.17
933.76	225.14
934.06	225.16
934.36	225.16
934.66	225.16
934.96	225.16
935.26	225.19
935.56	225.19
935.86	225.15
936.16	225.15
936.46	225.14
936.76	225.13
937.06	225.14
937.36	225.15
937.66	225.16
937.96	225.13
938.26	225.14
938.56	225.13
938.86	225.12
939.16	225.17
939.46	225.15
939.76	225.17
940.06	225.21
940.35	225.16
940.65	225.11
940.95	225.17
941.25	225.14
941.55	225.13
941.85	225.13
942.15	225.16
942.45	225.16
942.75	225.18
943.04	225.17
943.34	225.18
943.64	225.15
943.94	225.15
944.24	225.16
944.54	225.14
944.84	225.11
945.13	225.11
945.43	225.05
945.73	225.05
946.03	225.00
946.33	224.96
946.62	224.99
946.92	225.00
947.22	224.96
947.52	224.97
947.82	224.94
948.11	224.93
948.41	224.90
948.71	224.89
949.01	224.89
949.31	224.86
949.60	224.86
949.90	224.89
950.20	224.84
950.50	224.84
950.79	224.83
951.09	224.85
951.39	224.86
951.69	224.84
951.98	224.86
952.28	224.90
952.58	224.89
952.87	224.90
953.17	224.91
953.47	224.88
953.76	224.85
954.06	224.86
954.36	224.83
954.66	224.83
954.95	224.85
955.25	224.88
955.55	224.89
955.84	224.85
956.14	224.82
956.44	224.86
956.73	224.83
957.03	224.81
957.32	224.80
957.62	224.78
957.92	224.82
958.21	224.77
958.51	224.89
958.81	224.89
959.10	224.86
959.40	224.93
959.69	224.93
959.99	224.96
960.29	224.96
960.58	224.96
960.88	225.00
961.17	224.99
961.47	224.96
961.76	224.96
962.06	224.97
962.36	224.98
962.65	224.96
962.95	224.97
963.24	224.96
963.54	224.97
963.83	224.98
964.13	224.95
964.42	224.96
964.72	224.85
965.01	224.85
965.31	224.87
965.60	224.83
965.90	224.87
966.19	224.86
966.49	224.87
966.78	224.85
967.08	224.81
967.37	224.82
967.67	224.80
967.96	224.84
968.26	224.85
968.55	224.88
968.85	224.89
969.14	224.93
969.43	224.94
969.73	224.92
970.02	224.93
970.32	224.94
970.61	224.92
970.91	224.90
971.20	224.87
971.49	224.84
971.79	224.84
972.08	224.80
972.38	224.78
972.67	224.77
972.96	224.79
973.26	224.81
973.55	224.83
973.85	224.84
974.14	224.84
974.43	224.83
974.73	224.77
975.02	224.77
975.31	224.75
975.61	224.73
975.90	224.73
976.19	224.72
976.49	224.73
976.78	224.75
977.07	224.76
977.37	224.80
977.66	224.82
977.95	224.77
978.24	224.78
978.54	224.82
978.83	224.83
979.12	224.83
979.42	224.82
979.71	224.80
980.00	224.77
980.29	224.76
980.59	224.74
980.88	224.79
981.17	224.77
981.46	224.75
981.76	224.77
982.05	224.80
982.34	224.80
982.63	224.81
982.93	224.80
983.22	224.81
983.51	224.82
983.80	224.81
984.09	224.83
984.39	224.80
984.68	224.79
984.97	224.76
985.26	224.75
985.55	224.75
985.85	224.73
986.14	224.74
986.43	224.76
986.72	224.73
987.01	224.67
987.30	224.68
987.59	224.68
987.89	224.66
988.18	224.61
988.47	224.60
988.76	224.56
989.05	224.56
989.34	224.55
989.63	224.53
989.92	224.53
990.22	224.52
990.51	224.51
990.80	224.47
991.09	224.50
991.38	224.51
991.67	224.50
991.96	224.47
992.25	224.52
992.54	224.49
992.83	224.49
993.12	224.50
993.41	224.53
993.70	224.57
993.99	224.58
994.28	224.58
994.58	224.59
994.87	224.59
995.16	224.60
995.45	224.57
995.74	224.57
996.03	224.59
996.32	224.62
996.61	224.65
996.90	224.67
997.19	224.65
997.48	224.65
997.77	224.67
998.06	224.69
998.34	224.62
998.63	224.62
998.92	224.65
999.21	224.67
999.50	224.65
999.79	224.64
1000.08	224.66
1000.37	224.71
1000.66	224.71
1000.95	224.75
1001.24	224.76
1001.53	224.78
1001.82	224.77
1002.11	224.75
1002.40	224.77
1002.68	224.79
1002.97	224.84
1003.26	224.81
1003.55	224.79
1003.84	224.79
1004.13	224.86
1004.42	224.90
1004.71	224.90
1004.99	224.94
1005.28	225.00
1005.57	225.01
1005.86	225.00
1006.15	224.99
1006.44	224.97
1006.72	225.00
1007.01	224.98
1007.30	224.98
1007.59	224.99
1007.88	225.01
1008.17	225.05
1008.45	224.99
1008.74	224.97
1009.03	224.94
1009.32	224.99
1009.60	225.00
1009.89	224.97
1010.18	224.89
1010.47	224.89
1010.76	224.88
1011.04	224.82
1011.33	224.81
1011.62	224.81
1011.91	224.82
1012.19	224.81
1012.48	224.81
1012.77	224.78
1013.05	224.86
1013.34	224.86
1013.63	224.82
1013.92	224.79
1014.20	224.74
1014.49	224.79
1014.78	224.79
1015.06	224.75
1015.35	224.75
1015.64	224.79
1015.92	224.84
1016.21	224.87
1016.50	224.87
1016.78	224.91
1017.07	224.94
1017.36	224.92
1017.64	224.90
1017.93	224.88
1018.22	224.87
1018.50	224.86
1018.79	224.89
1019.08	224.81
1019.36	224.81
1019.65	224.85
1019.93	224.89
1020.22	224.92
1020.51	224.95
1020.79	224.94
1021.08	224.79
1021.36	224.41
1021.65	225.05
1021.94	224.80
1022.22	224.78
1022.51	224.95
1022.79	225.24
1023.08	224.89
1023.36	225.97
1023.65	224.59
>>>>>End Processed Spectral Data<<<<<
