SpectraSuite Data File
++++++++++++++++++++++++++++++++++++
Date: Fri Feb 01 16:31:57 EST 2013
User: group
Dark Spectrum Present: No
Reference Spectrum Present: No
Number of Sampled Component Spectra: 1
Spectrometers: USB2E7196
Integration Time (usec): 35000 (USB2E7196)
Spectra Averaged: 100 (USB2E7196)
Boxcar Smoothing: 10 (USB2E7196)
Correct for Electrical Dark: No (USB2E7196)
Strobe/Lamp Enabled: No (USB2E7196)
Correct for Detector Non-linearity: No (USB2E7196)
Correct for Stray Light: No (USB2E7196)
Number of Pixels in Processed Spectrum: 2048
>>>>>Begin Processed Spectral Data<<<<<
339.09	0.00
339.48	213.85
339.86	215.71
340.24	217.17
340.63	218.82
341.01	221.33
341.39	221.19
341.78	222.29
342.16	223.77
342.54	223.88
342.93	212.40
343.31	223.13
343.69	223.66
344.07	224.10
344.46	224.50
344.84	224.87
345.22	225.10
345.60	225.33
345.99	225.50
346.37	225.61
346.75	225.70
347.13	225.77
347.52	225.85
347.90	225.92
348.28	225.92
348.66	225.95
349.05	225.90
349.43	225.91
349.81	225.96
350.19	225.99
350.57	226.05
350.96	226.16
351.34	226.23
351.72	226.29
352.10	226.38
352.48	226.46
352.87	226.47
353.25	226.51
353.63	226.56
354.01	226.63
354.39	226.69
354.77	226.74
355.15	226.83
355.54	226.89
355.92	226.97
356.30	227.04
356.68	227.15
357.06	227.24
357.44	227.32
357.82	227.38
358.20	227.46
358.58	227.51
358.97	227.56
359.35	227.65
359.73	227.75
360.11	227.82
360.49	227.86
360.87	227.91
361.25	227.98
361.63	228.07
362.01	228.13
362.39	228.21
362.77	228.30
363.15	228.33
363.53	228.36
363.91	228.38
364.29	228.40
364.67	228.34
365.05	228.38
365.43	228.41
365.81	228.48
366.19	228.52
366.57	228.58
366.95	228.56
367.33	228.55
367.71	228.55
368.09	228.55
368.47	228.57
368.85	228.58
369.23	228.57
369.61	228.51
369.99	228.51
370.37	228.46
370.75	228.48
371.13	228.50
371.51	228.48
371.89	228.44
372.27	228.40
372.65	228.36
373.03	228.33
373.41	228.27
373.78	228.20
374.16	228.12
374.54	228.02
374.92	227.95
375.30	227.90
375.68	227.82
376.06	227.78
376.44	227.69
376.82	227.64
377.19	227.57
377.57	227.53
377.95	227.42
378.33	227.36
378.71	227.20
379.09	227.12
379.47	227.06
379.84	226.99
380.22	226.95
380.60	226.88
380.98	226.80
381.36	226.74
381.73	226.66
382.11	226.59
382.49	226.52
382.87	226.45
383.25	226.36
383.62	226.41
384.00	226.33
384.38	226.26
384.76	226.24
385.13	226.24
385.51	226.21
385.89	226.13
386.27	226.08
386.64	226.05
387.02	225.99
387.40	225.94
387.78	225.88
388.15	225.83
388.53	225.74
388.91	225.71
389.29	225.68
389.66	225.64
390.04	225.61
390.42	225.59
390.79	225.57
391.17	225.55
391.55	225.43
391.92	225.40
392.30	225.41
392.68	225.36
393.05	225.31
393.43	225.30
393.81	225.32
394.18	225.27
394.56	225.32
394.94	225.32
395.31	225.30
395.69	225.36
396.06	225.40
396.44	225.48
396.82	225.49
397.19	225.56
397.57	225.60
397.95	225.65
398.32	225.67
398.70	225.72
399.07	225.79
399.45	225.84
399.82	225.89
400.20	225.97
400.58	226.01
400.95	226.07
401.33	226.15
401.70	226.29
402.08	226.40
402.45	226.47
402.83	226.58
403.20	226.68
403.58	226.76
403.95	226.86
404.33	227.00
404.71	227.11
405.08	227.26
405.46	227.39
405.83	227.52
406.21	227.66
406.58	227.86
406.96	227.98
407.33	228.19
407.70	228.39
408.08	228.61
408.45	228.87
408.83	229.09
409.20	229.29
409.58	229.47
409.95	229.76
410.33	230.04
410.70	230.31
411.08	230.63
411.45	230.94
411.82	231.29
412.20	231.61
412.57	232.02
412.95	232.30
413.32	232.68
413.69	233.11
414.07	233.59
414.44	234.05
414.82	234.57
415.19	235.09
415.56	235.63
415.94	236.19
416.31	236.82
416.68	237.45
417.06	238.17
417.43	238.84
417.81	239.62
418.18	240.36
418.55	241.23
418.93	242.09
419.30	242.96
419.67	243.86
420.04	244.83
420.42	245.84
420.79	247.03
421.16	248.19
421.54	249.38
421.91	250.57
422.28	251.82
422.66	253.12
423.03	254.43
423.40	255.78
423.77	257.19
424.15	258.63
424.52	260.10
424.89	261.72
425.26	263.27
425.64	264.71
426.01	266.31
426.38	267.90
426.75	269.61
427.13	271.36
427.50	273.19
427.87	275.04
428.24	276.90
428.61	278.62
428.99	280.55
429.36	282.63
429.73	284.68
430.10	286.70
430.47	288.77
430.85	290.89
431.22	293.08
431.59	295.47
431.96	297.69
432.33	300.16
432.70	302.52
433.08	305.35
433.45	307.98
433.82	310.59
434.19	313.49
434.56	316.26
434.93	318.86
435.30	321.47
435.68	324.37
436.05	327.19
436.42	330.02
436.79	332.54
437.16	335.21
437.53	338.03
437.90	340.83
438.27	343.53
438.64	346.34
439.01	348.95
439.38	351.15
439.75	353.31
440.13	355.79
440.50	358.10
440.87	359.85
441.24	361.77
441.61	363.87
441.98	365.34
442.35	367.09
442.72	368.94
443.09	370.70
443.46	371.62
443.83	372.19
444.20	372.68
444.57	373.51
444.94	373.81
445.31	374.16
445.68	374.50
446.05	374.58
446.42	374.17
446.79	373.76
447.16	373.30
447.53	372.97
447.90	371.82
448.27	370.65
448.64	369.11
449.01	367.97
449.37	366.02
449.74	364.10
450.11	361.90
450.48	359.44
450.85	356.89
451.22	354.81
451.59	352.78
451.96	350.83
452.33	348.22
452.70	345.83
453.07	343.02
453.43	340.10
453.80	337.36
454.17	334.72
454.54	332.16
454.91	329.44
455.28	326.76
455.65	324.29
456.02	321.84
456.38	319.72
456.75	317.07
457.12	314.84
457.49	312.66
457.86	310.48
458.23	308.67
458.59	306.66
458.96	304.55
459.33	302.69
459.70	300.81
460.07	299.32
460.43	297.65
460.80	296.02
461.17	294.62
461.54	293.15
461.91	291.73
462.27	290.30
462.64	289.07
463.01	287.73
463.38	286.42
463.74	285.09
464.11	283.92
464.48	282.92
464.85	281.86
465.21	280.95
465.58	280.09
465.95	279.00
466.32	278.12
466.68	277.27
467.05	276.41
467.42	275.56
467.78	274.65
468.15	273.77
468.52	273.12
468.88	272.26
469.25	271.48
469.62	270.87
469.98	270.22
470.35	269.60
470.72	269.05
471.08	268.44
471.45	267.93
471.82	267.40
472.18	266.85
472.55	266.41
472.92	265.97
473.28	265.51
473.65	265.06
474.02	264.65
474.38	264.29
474.75	264.02
475.11	263.69
475.48	263.45
475.85	263.27
476.21	263.08
476.58	262.93
476.94	262.83
477.31	262.68
477.67	262.56
478.04	262.46
478.41	262.41
478.77	262.44
479.14	262.41
479.50	262.44
479.87	262.50
480.23	262.58
480.60	262.65
480.96	262.74
481.33	262.95
481.69	263.15
482.06	263.35
482.42	263.55
482.79	263.82
483.15	264.13
483.52	264.50
483.88	264.84
484.25	265.21
484.61	265.61
484.98	266.06
485.34	266.63
485.71	267.23
486.07	267.85
486.44	268.42
486.80	269.10
487.17	269.85
487.53	270.65
487.90	271.49
488.26	272.43
488.62	273.44
488.99	274.40
489.35	275.47
489.72	276.60
490.08	277.79
490.44	279.02
490.81	280.36
491.17	281.69
491.54	283.16
491.90	284.72
492.26	286.34
492.63	288.06
492.99	289.82
493.36	291.68
493.72	293.69
494.08	295.77
494.45	298.01
494.81	300.39
495.17	302.82
495.54	305.41
495.90	308.06
496.26	310.88
496.63	313.84
496.99	316.91
497.35	320.17
497.72	323.60
498.08	327.14
498.44	330.79
498.80	334.70
499.17	338.72
499.53	342.87
499.89	347.28
500.26	351.81
500.62	356.50
500.98	361.47
501.34	366.55
501.71	371.91
502.07	377.37
502.43	382.95
502.79	388.76
503.16	394.84
503.52	401.16
503.88	407.52
504.24	414.20
504.60	421.08
504.97	428.22
505.33	435.44
505.69	443.15
506.05	450.92
506.41	458.80
506.78	467.00
507.14	475.48
507.50	484.19
507.86	493.24
508.22	502.42
508.59	511.66
508.95	521.29
509.31	531.05
509.67	541.15
510.03	551.46
510.39	562.03
510.75	572.82
511.12	583.71
511.48	595.02
511.84	606.45
512.20	617.99
512.56	629.89
512.92	642.14
513.28	654.46
513.64	667.04
514.00	679.77
514.37	692.68
514.73	705.75
515.09	718.73
515.45	731.97
515.81	745.55
516.17	759.54
516.53	773.60
516.89	787.76
517.25	801.90
517.61	816.30
517.97	830.78
518.33	845.12
518.69	859.90
519.05	874.74
519.41	889.85
519.77	905.34
520.13	920.71
520.49	936.11
520.85	951.46
521.21	967.05
521.57	983.30
521.93	999.04
522.29	1015.27
522.65	1031.45
523.01	1047.58
523.37	1063.69
523.73	1079.78
524.09	1095.81
524.45	1112.08
524.81	1128.58
525.17	1145.30
525.53	1161.96
525.89	1178.77
526.25	1195.43
526.61	1211.84
526.97	1228.55
527.33	1244.98
527.68	1261.58
528.04	1277.93
528.40	1294.40
528.76	1311.32
529.12	1327.68
529.48	1344.47
529.84	1360.34
530.20	1376.87
530.56	1393.75
530.91	1410.92
531.27	1427.51
531.63	1443.89
531.99	1460.47
532.35	1476.35
532.71	1492.07
533.07	1508.36
533.42	1524.24
533.78	1540.27
534.14	1556.42
534.50	1571.67
534.86	1587.39
535.21	1602.34
535.57	1618.16
535.93	1633.57
536.29	1648.31
536.65	1663.36
537.00	1677.94
537.36	1693.25
537.72	1707.70
538.08	1722.18
538.44	1735.72
538.79	1749.55
539.15	1763.05
539.51	1776.53
539.87	1790.84
540.22	1804.44
540.58	1818.04
540.94	1831.10
541.29	1843.87
541.65	1856.51
542.01	1869.70
542.37	1881.87
542.72	1894.31
543.08	1906.05
543.44	1918.28
543.79	1929.34
544.15	1940.23
544.51	1951.78
544.87	1962.61
545.22	1973.32
545.58	1983.35
545.94	1993.05
546.29	2002.83
546.65	2012.52
547.01	2021.74
547.36	2030.20
547.72	2038.70
548.07	2046.48
548.43	2054.66
548.79	2062.64
549.14	2069.93
549.50	2077.12
549.86	2084.91
550.21	2092.21
550.57	2099.19
550.92	2105.73
551.28	2112.64
551.64	2119.67
551.99	2126.05
552.35	2132.19
552.70	2138.27
553.06	2144.18
553.41	2150.71
553.77	2156.60
554.13	2162.74
554.48	2168.93
554.84	2174.53
555.19	2179.70
555.55	2184.84
555.90	2189.26
556.26	2194.18
556.61	2198.97
556.97	2203.33
557.32	2207.28
557.68	2211.36
558.03	2215.65
558.39	2219.38
558.74	2224.21
559.10	2228.03
559.45	2231.66
559.81	2235.95
560.16	2239.85
560.52	2243.08
560.87	2246.30
561.23	2249.12
561.58	2252.17
561.94	2254.55
562.29	2256.87
562.64	2259.72
563.00	2262.32
563.35	2265.87
563.71	2268.92
564.06	2272.19
564.42	2275.07
564.77	2277.55
565.12	2279.83
565.48	2281.78
565.83	2283.80
566.19	2285.09
566.54	2285.98
566.89	2287.25
567.25	2287.94
567.60	2289.22
567.96	2290.97
568.31	2292.05
568.66	2293.23
569.02	2293.76
569.37	2294.13
569.72	2295.09
570.08	2295.14
570.43	2295.31
570.78	2294.91
571.14	2293.37
571.49	2292.00
571.84	2291.58
572.20	2290.65
572.55	2289.75
572.90	2288.43
573.26	2287.16
573.61	2285.54
573.96	2283.98
574.31	2281.18
574.67	2278.43
575.02	2275.08
575.37	2271.74
575.72	2267.84
576.08	2264.55
576.43	2261.34
576.78	2257.80
577.13	2254.56
577.49	2251.61
577.84	2248.06
578.19	2244.26
578.54	2240.97
578.90	2236.95
579.25	2231.50
579.60	2226.57
579.95	2221.52
580.30	2216.56
580.66	2211.39
581.01	2206.43
581.36	2201.58
581.71	2197.29
582.06	2192.63
582.42	2188.10
582.77	2183.14
583.12	2178.77
583.47	2174.13
583.82	2169.29
584.17	2164.19
584.53	2158.95
584.88	2153.38
585.23	2147.71
585.58	2142.38
585.93	2136.77
586.28	2131.90
586.63	2127.01
586.98	2122.18
587.34	2117.52
587.69	2112.64
588.04	2107.44
588.39	2101.82
588.74	2095.33
589.09	2089.36
589.44	2082.75
589.79	2076.87
590.14	2071.26
590.49	2064.73
590.84	2058.51
591.19	2052.49
591.54	2046.06
591.89	2038.67
592.25	2031.82
592.60	2024.70
592.95	2017.23
593.30	2010.03
593.65	2002.74
594.00	1995.58
594.35	1988.26
594.70	1980.36
595.05	1973.19
595.40	1966.13
595.75	1958.77
596.10	1952.68
596.45	1945.94
596.80	1939.83
597.15	1933.28
597.50	1926.10
597.85	1919.72
598.19	1912.96
598.54	1905.88
598.89	1899.26
599.24	1893.48
599.59	1886.96
599.94	1880.86
600.29	1874.52
600.64	1867.92
600.99	1860.53
601.34	1853.94
601.69	1847.00
602.04	1840.10
602.39	1832.72
602.74	1825.71
603.08	1818.92
603.43	1812.23
603.78	1804.94
604.13	1797.62
604.48	1790.23
604.83	1783.40
605.18	1776.33
605.53	1768.35
605.87	1760.39
606.22	1753.20
606.57	1745.17
606.92	1737.82
607.27	1730.67
607.62	1723.75
607.96	1716.49
608.31	1709.87
608.66	1702.21
609.01	1694.73
609.36	1687.18
609.70	1679.24
610.05	1671.13
610.40	1663.48
610.75	1655.12
611.10	1647.54
611.44	1639.26
611.79	1631.30
612.14	1622.73
612.49	1613.62
612.83	1605.31
613.18	1597.15
613.53	1589.04
613.88	1580.51
614.22	1572.33
614.57	1563.61
614.92	1555.48
615.27	1547.89
615.61	1539.43
615.96	1531.40
616.31	1523.85
616.65	1516.55
617.00	1508.98
617.35	1501.31
617.70	1493.08
618.04	1484.59
618.39	1476.36
618.74	1468.72
619.08	1460.49
619.43	1452.76
619.78	1445.98
620.12	1438.82
620.47	1431.34
620.82	1423.17
621.16	1415.84
621.51	1408.15
621.85	1400.62
622.20	1392.18
622.55	1383.87
622.89	1376.14
623.24	1368.44
623.59	1360.97
623.93	1353.48
624.28	1346.22
624.62	1338.78
624.97	1331.58
625.32	1324.86
625.66	1317.88
626.01	1310.73
626.35	1303.28
626.70	1295.55
627.04	1287.71
627.39	1279.92
627.73	1272.49
628.08	1265.63
628.43	1258.32
628.77	1251.05
629.12	1243.48
629.46	1236.32
629.81	1229.00
630.15	1221.73
630.50	1214.37
630.84	1206.09
631.19	1198.19
631.53	1190.66
631.88	1183.18
632.22	1175.52
632.57	1168.11
632.91	1160.47
633.26	1153.01
633.60	1145.60
633.95	1138.57
634.29	1131.54
634.64	1124.77
634.98	1117.37
635.32	1110.20
635.67	1103.68
636.01	1097.01
636.36	1090.22
636.70	1083.67
637.05	1076.98
637.39	1070.53
637.73	1063.97
638.08	1058.13
638.42	1052.11
638.77	1045.63
639.11	1038.94
639.45	1032.54
639.80	1025.88
640.14	1019.53
640.49	1013.12
640.83	1006.84
641.17	1000.59
641.52	994.17
641.86	987.69
642.20	981.88
642.55	975.55
642.89	968.98
643.23	962.44
643.58	956.60
643.92	950.33
644.26	944.27
644.61	938.17
644.95	932.14
645.29	925.51
645.64	918.70
645.98	912.44
646.32	906.62
646.66	900.54
647.01	894.75
647.35	889.02
647.69	883.06
648.04	877.43
648.38	871.64
648.72	865.73
649.06	859.77
649.41	853.90
649.75	847.96
650.09	842.00
650.43	836.13
650.78	830.04
651.12	824.18
651.46	818.42
651.80	812.78
652.14	807.46
652.49	802.11
652.83	796.93
653.17	791.22
653.51	785.49
653.85	780.18
654.20	774.55
654.54	768.56
654.88	762.81
655.22	756.96
655.56	751.28
655.90	745.83
656.25	740.56
656.59	735.12
656.93	730.00
657.27	724.83
657.61	719.40
657.95	714.30
658.29	709.27
658.64	704.05
658.98	698.71
659.32	693.18
659.66	687.98
660.00	682.72
660.34	677.81
660.68	672.96
661.02	667.87
661.36	663.13
661.70	658.59
662.05	654.26
662.39	649.91
662.73	645.42
663.07	641.05
663.41	636.59
663.75	632.16
664.09	627.60
664.43	623.25
664.77	619.15
665.11	614.90
665.45	610.72
665.79	606.70
666.13	602.55
666.47	598.48
666.81	594.35
667.15	590.25
667.49	586.33
667.83	582.50
668.17	578.61
668.51	574.57
668.85	570.57
669.19	566.71
669.53	562.88
669.87	559.03
670.21	555.33
670.55	551.67
670.89	548.22
671.23	544.77
671.57	541.22
671.91	537.72
672.25	534.21
672.58	530.71
672.92	527.22
673.26	524.05
673.60	520.90
673.94	517.78
674.28	514.81
674.62	511.84
674.96	508.69
675.30	505.75
675.64	502.83
675.97	500.06
676.31	497.21
676.65	494.25
676.99	491.54
677.33	488.66
677.67	485.86
678.01	482.89
678.34	479.89
678.68	477.03
679.02	474.19
679.36	471.44
679.70	468.67
680.04	465.88
680.37	463.02
680.71	460.21
681.05	457.62
681.39	454.95
681.73	452.26
682.06	449.73
682.40	447.13
682.74	444.62
683.08	442.07
683.42	439.46
683.75	436.98
684.09	434.39
684.43	431.93
684.77	429.47
685.10	427.07
685.44	424.79
685.78	422.51
686.12	420.23
686.45	417.93
686.79	415.66
687.13	413.47
687.46	411.29
687.80	409.09
688.14	406.82
688.48	404.72
688.81	402.47
689.15	400.31
689.49	398.18
689.82	396.08
690.16	393.98
690.50	392.06
690.83	390.14
691.17	388.14
691.51	386.22
691.84	384.37
692.18	382.44
692.52	380.46
692.85	378.47
693.19	376.60
693.52	374.78
693.86	372.95
694.20	371.14
694.53	369.36
694.87	367.53
695.21	365.73
695.54	363.87
695.88	362.14
696.21	360.44
696.55	358.82
696.88	357.11
697.22	355.45
697.56	353.77
697.89	352.10
698.23	350.52
698.56	348.88
698.90	347.27
699.23	345.61
699.57	344.07
699.90	342.53
700.24	340.98
700.58	339.44
700.91	337.94
701.25	336.51
701.58	335.13
701.92	333.80
702.25	332.47
702.59	331.11
702.92	329.81
703.26	328.51
703.59	327.18
703.93	325.99
704.26	324.76
704.60	323.49
704.93	322.25
705.26	320.99
705.60	319.80
705.93	318.63
706.27	317.60
706.60	316.51
706.94	315.47
707.27	314.35
707.61	313.24
707.94	312.23
708.27	311.13
708.61	310.03
708.94	309.02
709.28	308.02
709.61	307.09
709.94	306.12
710.28	305.12
710.61	304.15
710.95	303.04
711.28	302.14
711.61	301.16
711.95	300.21
712.28	299.27
712.61	298.34
712.95	297.39
713.28	296.47
713.61	295.57
713.95	294.68
714.28	293.84
714.61	293.01
714.95	292.15
715.28	291.33
715.61	290.46
715.95	289.56
716.28	288.66
716.61	287.82
716.95	287.06
717.28	286.29
717.61	285.52
717.94	284.84
718.28	284.03
718.61	283.35
718.94	282.65
719.27	281.98
719.61	281.28
719.94	280.64
720.27	279.98
720.60	279.35
720.94	278.73
721.27	278.15
721.60	277.56
721.93	276.94
722.27	276.38
722.60	275.83
722.93	275.28
723.26	274.83
723.59	274.28
723.93	273.67
724.26	273.10
724.59	272.52
724.92	272.00
725.25	271.51
725.59	270.94
725.92	270.42
726.25	269.91
726.58	269.41
726.91	268.93
727.24	268.44
727.57	267.93
727.91	267.40
728.24	266.93
728.57	266.42
728.90	266.00
729.23	265.51
729.56	265.08
729.89	264.62
730.22	264.11
730.55	263.63
730.89	263.19
731.22	262.73
731.55	262.34
731.88	261.87
732.21	261.44
732.54	261.01
732.87	260.58
733.20	260.21
733.53	259.84
733.86	259.46
734.19	259.05
734.52	258.65
734.85	258.33
735.18	257.88
735.51	257.51
735.84	257.10
736.17	256.75
736.50	256.31
736.83	256.04
737.16	255.67
737.49	255.30
737.82	254.97
738.15	254.66
738.48	254.26
738.81	253.92
739.14	253.57
739.47	253.25
739.80	252.97
740.13	252.64
740.46	252.30
740.79	251.94
741.12	251.64
741.45	251.38
741.78	251.05
742.11	250.80
742.44	250.47
742.77	250.20
743.10	249.89
743.43	249.61
743.75	249.21
744.08	249.10
744.41	248.85
744.74	248.58
745.07	248.27
745.40	248.04
745.73	247.81
746.06	247.55
746.39	247.29
746.71	247.02
747.04	246.74
747.37	246.50
747.70	246.28
748.03	246.01
748.36	245.77
748.68	245.52
749.01	245.25
749.34	245.04
749.67	244.78
750.00	244.55
750.33	244.39
750.65	244.21
750.98	243.83
751.31	243.57
751.64	243.35
751.97	243.22
752.29	243.01
752.62	242.76
752.95	242.55
753.28	242.35
753.60	242.13
753.93	241.98
754.26	241.79
754.59	241.55
754.91	241.36
755.24	241.15
755.57	240.97
755.90	240.78
756.22	240.61
756.55	240.44
756.88	240.26
757.20	240.03
757.53	239.85
757.86	239.70
758.19	239.60
758.51	239.43
758.84	239.23
759.17	239.08
759.49	238.93
759.82	238.82
760.15	238.72
760.47	238.57
760.80	238.38
761.13	238.23
761.45	238.11
761.78	237.97
762.11	237.85
762.43	237.65
762.76	237.52
763.08	237.41
763.41	237.31
763.74	237.20
764.06	237.09
764.39	236.94
764.71	236.80
765.04	236.62
765.37	236.50
765.69	236.34
766.02	236.20
766.34	236.05
766.67	235.88
767.00	235.75
767.32	235.69
767.65	235.66
767.97	235.57
768.30	235.46
768.62	235.34
768.95	235.21
769.27	235.13
769.60	235.05
769.92	234.90
770.25	234.75
770.57	234.62
770.90	234.49
771.22	234.38
771.55	234.29
771.87	234.24
772.20	234.15
772.52	234.17
772.85	234.16
773.17	234.06
773.50	233.96
773.82	233.85
774.15	233.72
774.47	233.51
774.80	233.39
775.12	233.28
775.45	233.19
775.77	233.08
776.09	232.99
776.42	232.88
776.74	232.82
777.07	232.73
777.39	232.65
777.72	232.56
778.04	232.50
778.36	232.37
778.69	232.28
779.01	232.19
779.33	232.02
779.66	231.89
779.98	231.86
780.31	231.80
780.63	231.78
780.95	231.71
781.28	231.67
781.60	231.61
781.92	231.55
782.25	231.49
782.57	231.45
782.89	231.39
783.22	231.33
783.54	231.26
783.86	231.23
784.19	231.18
784.51	231.19
784.83	231.13
785.16	231.11
785.48	231.07
785.80	231.02
786.12	230.95
786.45	230.91
786.77	230.85
787.09	230.75
787.42	230.66
787.74	230.62
788.06	230.60
788.38	230.58
788.71	230.50
789.03	230.49
789.35	230.49
789.67	230.44
789.99	230.42
790.32	230.41
790.64	230.37
790.96	230.43
791.28	230.34
791.61	230.31
791.93	230.29
792.25	230.24
792.57	230.29
792.89	230.27
793.21	230.20
793.54	230.16
793.86	230.14
794.18	230.08
794.50	230.05
794.82	230.00
795.14	229.94
795.47	229.98
795.79	229.91
796.11	229.83
796.43	229.81
796.75	229.75
797.07	229.68
797.39	229.64
797.71	229.53
798.04	229.47
798.36	229.42
798.68	229.38
799.00	229.37
799.32	229.29
799.64	229.29
799.96	229.26
800.28	229.25
800.60	229.25
800.92	229.24
801.24	229.21
801.56	229.19
801.89	229.17
802.21	229.13
802.53	229.09
802.85	229.07
803.17	229.10
803.49	229.04
803.81	229.05
804.13	229.01
804.45	228.99
804.77	229.00
805.09	228.97
805.41	228.94
805.73	228.85
806.05	228.82
806.37	228.76
806.69	228.75
807.01	228.72
807.33	228.69
807.65	228.64
807.97	228.68
808.28	228.64
808.60	228.62
808.92	228.55
809.24	228.60
809.56	228.55
809.88	228.47
810.20	228.46
810.52	228.43
810.84	228.41
811.16	228.37
811.48	228.35
811.80	228.37
812.12	228.32
812.43	228.34
812.75	228.31
813.07	228.28
813.39	228.24
813.71	228.21
814.03	228.18
814.35	228.16
814.67	228.08
814.98	228.05
815.30	228.00
815.62	227.95
815.94	227.85
816.26	227.91
816.58	227.87
816.89	227.85
817.21	227.79
817.53	227.74
817.85	227.74
818.17	227.68
818.48	227.60
818.80	227.61
819.12	227.58
819.44	227.53
819.76	227.49
820.07	227.49
820.39	227.47
820.71	227.48
821.03	227.44
821.34	227.42
821.66	227.43
821.98	227.42
822.30	227.44
822.61	227.50
822.93	227.38
823.25	227.35
823.57	227.36
823.88	227.40
824.20	227.39
824.52	227.39
824.83	227.38
825.15	227.37
825.47	227.33
825.79	227.33
826.10	227.31
826.42	227.31
826.74	227.31
827.05	227.29
827.37	227.24
827.69	227.25
828.00	227.22
828.32	227.21
828.64	227.18
828.95	227.20
829.27	227.16
829.58	227.21
829.90	227.22
830.22	227.21
830.53	227.14
830.85	227.12
831.17	227.07
831.48	227.06
831.80	227.07
832.11	227.09
832.43	227.07
832.75	227.05
833.06	227.08
833.38	227.06
833.69	227.05
834.01	227.07
834.32	227.05
834.64	227.02
834.96	227.00
835.27	227.02
835.59	226.99
835.90	226.96
836.22	226.94
836.53	226.93
836.85	226.94
837.16	227.06
837.48	227.07
837.79	227.11
838.11	227.10
838.42	227.08
838.74	227.06
839.05	227.09
839.37	227.09
839.68	227.00
840.00	226.99
840.31	226.99
840.63	226.96
840.94	226.98
841.26	226.96
841.57	226.98
841.88	227.00
842.20	226.98
842.51	226.96
842.83	226.92
843.14	226.99
843.46	226.97
843.77	226.89
844.08	226.89
844.40	226.82
844.71	226.81
845.03	226.82
845.34	226.82
845.65	226.78
845.97	226.77
846.28	226.77
846.60	226.76
846.91	226.72
847.22	226.66
847.54	226.67
847.85	226.65
848.16	226.59
848.48	226.54
848.79	226.59
849.10	226.57
849.42	226.61
849.73	226.51
850.04	226.46
850.36	226.44
850.67	226.46
850.98	226.48
851.30	226.47
851.61	226.44
851.92	226.44
852.23	226.49
852.55	226.46
852.86	226.45
853.17	226.45
853.49	226.48
853.80	226.51
854.11	226.52
854.42	226.54
854.74	226.51
855.05	226.50
855.36	226.44
855.67	226.44
855.99	226.43
856.30	226.54
856.61	226.57
856.92	226.53
857.23	226.50
857.55	226.48
857.86	226.46
858.17	226.48
858.48	226.45
858.79	226.39
859.11	226.44
859.42	226.46
859.73	226.44
860.04	226.44
860.35	226.43
860.66	226.37
860.98	226.33
861.29	226.37
861.60	226.37
861.91	226.39
862.22	226.38
862.53	226.36
862.84	226.26
863.16	226.27
863.47	226.25
863.78	226.26
864.09	226.28
864.40	226.29
864.71	226.28
865.02	226.28
865.33	226.27
865.64	226.25
865.95	226.26
866.27	226.30
866.58	226.30
866.89	226.30
867.20	226.31
867.51	226.33
867.82	226.33
868.13	226.38
868.44	226.36
868.75	226.37
869.06	226.38
869.37	226.38
869.68	226.35
869.99	226.40
870.30	226.40
870.61	226.41
870.92	226.42
871.23	226.43
871.54	226.45
871.85	226.49
872.16	226.45
872.47	226.47
872.78	226.41
873.09	226.41
873.40	226.43
873.71	226.43
874.02	226.43
874.33	226.42
874.64	226.38
874.95	226.40
875.26	226.38
875.56	226.40
875.87	226.42
876.18	226.45
876.49	226.55
876.80	226.57
877.11	226.53
877.42	226.53
877.73	226.55
878.04	226.57
878.35	226.61
878.66	226.64
878.96	226.61
879.27	226.65
879.58	226.62
879.89	226.62
880.20	226.67
880.51	226.69
880.82	226.68
881.12	226.68
881.43	226.70
881.74	226.70
882.05	226.66
882.36	226.64
882.67	226.58
882.97	226.47
883.28	226.46
883.59	226.49
883.90	226.49
884.21	226.50
884.51	226.47
884.82	226.45
885.13	226.44
885.44	226.43
885.74	226.41
886.05	226.42
886.36	226.43
886.67	226.38
886.98	226.40
887.28	226.39
887.59	226.39
887.90	226.34
888.20	226.34
888.51	226.38
888.82	226.35
889.13	226.39
889.43	226.43
889.74	226.40
890.05	226.36
890.35	226.33
890.66	226.31
890.97	226.28
891.28	226.22
891.58	226.24
891.89	226.25
892.20	226.22
892.50	226.19
892.81	226.15
893.12	226.14
893.42	226.09
893.73	226.12
894.04	226.10
894.34	226.11
894.65	226.08
894.95	226.04
895.26	226.04
895.57	226.06
895.87	225.97
896.18	225.99
896.48	226.01
896.79	226.00
897.10	225.99
897.40	225.98
897.71	226.00
898.01	225.97
898.32	225.95
898.63	225.95
898.93	225.99
899.24	226.00
899.54	225.98
899.85	225.94
900.15	225.92
900.46	225.89
900.76	225.90
901.07	225.89
901.38	225.91
901.68	225.92
901.99	225.87
902.29	225.88
902.60	225.85
902.90	225.85
903.21	225.85
903.51	225.83
903.82	225.86
904.12	225.84
904.43	225.85
904.73	225.88
905.03	225.88
905.34	225.98
905.64	225.99
905.95	226.00
906.25	226.06
906.56	226.09
906.86	226.11
907.17	226.12
907.47	226.16
907.77	226.16
908.08	226.15
908.38	226.17
908.69	226.19
908.99	226.21
909.30	226.24
909.60	226.25
909.90	226.25
910.21	226.25
910.51	226.26
910.81	226.30
911.12	226.31
911.42	226.35
911.73	226.25
912.03	226.25
912.33	226.26
912.64	226.24
912.94	226.21
913.24	226.20
913.55	226.18
913.85	226.14
914.15	226.15
914.46	226.17
914.76	226.14
915.06	226.14
915.37	226.13
915.67	226.14
915.97	226.13
916.27	226.15
916.58	226.16
916.88	226.14
917.18	226.10
917.49	226.18
917.79	226.14
918.09	226.15
918.39	226.19
918.70	226.19
919.00	226.19
919.30	226.24
919.60	226.25
919.91	226.24
920.21	226.28
920.51	226.28
920.81	226.27
921.12	226.33
921.42	226.35
921.72	226.37
922.02	226.33
922.32	226.32
922.63	226.36
922.93	226.39
923.23	226.44
923.53	226.45
923.83	226.38
924.13	226.37
924.44	226.35
924.74	226.37
925.04	226.36
925.34	226.37
925.64	226.31
925.94	226.34
926.24	226.38
926.55	226.36
926.85	226.37
927.15	226.36
927.45	226.33
927.75	226.30
928.05	226.28
928.35	226.28
928.65	226.31
928.95	226.29
929.26	226.26
929.56	226.25
929.86	226.22
930.16	226.20
930.46	226.23
930.76	226.22
931.06	226.14
931.36	226.15
931.66	226.17
931.96	226.18
932.26	226.13
932.56	226.11
932.86	226.08
933.16	226.08
933.46	226.07
933.76	226.06
934.06	226.08
934.36	226.11
934.66	226.08
934.96	226.04
935.26	226.02
935.56	226.01
935.86	225.99
936.16	225.97
936.46	225.96
936.76	225.92
937.06	225.91
937.36	225.95
937.66	225.93
937.96	225.91
938.26	225.91
938.56	225.91
938.86	225.91
939.16	225.96
939.46	225.96
939.76	225.97
940.06	225.98
940.35	225.94
940.65	225.89
940.95	225.90
941.25	225.89
941.55	225.92
941.85	225.94
942.15	225.94
942.45	226.00
942.75	225.98
943.04	225.97
943.34	226.01
943.64	225.95
943.94	225.93
944.24	225.92
944.54	225.94
944.84	225.96
945.13	225.93
945.43	225.91
945.73	225.91
946.03	225.92
946.33	225.89
946.62	225.89
946.92	225.89
947.22	225.92
947.52	225.92
947.82	225.92
948.11	225.90
948.41	225.88
948.71	225.81
949.01	225.82
949.31	225.82
949.60	225.82
949.90	225.86
950.20	225.89
950.50	225.91
950.79	225.88
951.09	225.89
951.39	225.90
951.69	225.87
951.98	225.87
952.28	225.86
952.58	225.86
952.87	225.87
953.17	225.88
953.47	225.88
953.76	225.90
954.06	225.89
954.36	225.87
954.66	225.86
954.95	225.91
955.25	225.92
955.55	225.95
955.84	225.92
956.14	225.93
956.44	225.92
956.73	225.90
957.03	225.88
957.32	225.86
957.62	225.87
957.92	225.90
958.21	225.91
958.51	226.01
958.81	226.03
959.10	226.03
959.40	226.08
959.69	226.08
959.99	226.06
960.29	226.02
960.58	226.01
960.88	226.07
961.17	226.07
961.47	226.09
961.76	226.07
962.06	226.08
962.36	226.06
962.65	226.06
962.95	226.08
963.24	226.08
963.54	226.05
963.83	226.06
964.13	226.05
964.42	226.02
964.72	225.92
965.01	225.90
965.31	225.90
965.60	225.86
965.90	225.91
966.19	225.91
966.49	225.96
966.78	225.97
967.08	225.96
967.37	225.96
967.67	225.94
967.96	225.98
968.26	225.95
968.55	225.96
968.85	225.92
969.14	225.89
969.43	225.90
969.73	225.91
970.02	225.90
970.32	225.89
970.61	225.86
970.91	225.81
971.20	225.82
971.49	225.78
971.79	225.75
972.08	225.69
972.38	225.69
972.67	225.63
972.96	225.65
973.26	225.65
973.55	225.64
973.85	225.62
974.14	225.61
974.43	225.61
974.73	225.60
975.02	225.63
975.31	225.66
975.61	225.63
975.90	225.61
976.19	225.60
976.49	225.62
976.78	225.66
977.07	225.69
977.37	225.66
977.66	225.70
977.95	225.71
978.24	225.70
978.54	225.74
978.83	225.72
979.12	225.68
979.42	225.63
979.71	225.63
980.00	225.65
980.29	225.62
980.59	225.60
980.88	225.63
981.17	225.61
981.46	225.61
981.76	225.63
982.05	225.68
982.34	225.68
982.63	225.65
982.93	225.63
983.22	225.63
983.51	225.65
983.80	225.67
984.09	225.69
984.39	225.70
984.68	225.69
984.97	225.73
985.26	225.75
985.55	225.80
985.85	225.79
986.14	225.78
986.43	225.80
986.72	225.85
987.01	225.84
987.30	225.88
987.59	225.87
987.89	225.87
988.18	225.84
988.47	225.84
988.76	225.88
989.05	225.92
989.34	225.97
989.63	226.01
989.92	225.97
990.22	225.97
990.51	225.97
990.80	225.96
991.09	226.00
991.38	226.03
991.67	226.00
991.96	225.99
992.25	226.02
992.54	226.02
992.83	226.01
993.12	226.01
993.41	225.99
993.70	226.05
993.99	226.12
994.28	226.17
994.58	226.22
994.87	226.22
995.16	226.20
995.45	226.19
995.74	226.15
996.03	226.19
996.32	226.20
996.61	226.24
996.90	226.25
997.19	226.23
997.48	226.21
997.77	226.24
998.06	226.26
998.34	226.27
998.63	226.26
998.92	226.27
999.21	226.29
999.50	226.31
999.79	226.27
1000.08	226.25
1000.37	226.24
1000.66	226.21
1000.95	226.21
1001.24	226.20
1001.53	226.18
1001.82	226.18
1002.11	226.18
1002.40	226.20
1002.68	226.20
1002.97	226.27
1003.26	226.25
1003.55	226.26
1003.84	226.27
1004.13	226.27
1004.42	226.25
1004.71	226.28
1004.99	226.25
1005.28	226.25
1005.57	226.22
1005.86	226.22
1006.15	226.20
1006.44	226.17
1006.72	226.17
1007.01	226.15
1007.30	226.15
1007.59	226.16
1007.88	226.13
1008.17	226.08
1008.45	226.07
1008.74	226.02
1009.03	225.95
1009.32	225.96
1009.60	225.92
1009.89	225.86
1010.18	225.81
1010.47	225.79
1010.76	225.76
1011.04	225.77
1011.33	225.75
1011.62	225.76
1011.91	225.74
1012.19	225.71
1012.48	225.72
1012.77	225.72
1013.05	225.75
1013.34	225.74
1013.63	225.73
1013.92	225.77
1014.20	225.80
1014.49	225.76
1014.78	225.77
1015.06	225.73
1015.35	225.73
1015.64	225.73
1015.92	225.74
1016.21	225.77
1016.50	225.77
1016.78	225.76
1017.07	225.73
1017.36	225.73
1017.64	225.72
1017.93	225.72
1018.22	225.74
1018.50	225.75
1018.79	225.75
1019.08	225.70
1019.36	225.71
1019.65	225.70
1019.93	225.71
1020.22	225.69
1020.51	225.75
1020.79	225.75
1021.08	225.68
1021.36	226.08
1021.65	225.92
1021.94	225.69
1022.22	225.78
1022.51	225.71
1022.79	226.34
1023.08	225.41
1023.36	226.86
1023.65	225.79
>>>>>End Processed Spectral Data<<<<<
