SpectraSuite Data File
++++++++++++++++++++++++++++++++++++
Date: Fri Feb 01 17:26:34 EST 2013
User: group
Dark Spectrum Present: No
Reference Spectrum Present: No
Number of Sampled Component Spectra: 1
Spectrometers: USB2E7196
Integration Time (usec): 35000 (USB2E7196)
Spectra Averaged: 100 (USB2E7196)
Boxcar Smoothing: 10 (USB2E7196)
Correct for Electrical Dark: No (USB2E7196)
Strobe/Lamp Enabled: No (USB2E7196)
Correct for Detector Non-linearity: No (USB2E7196)
Correct for Stray Light: No (USB2E7196)
Number of Pixels in Processed Spectrum: 2048
>>>>>Begin Processed Spectral Data<<<<<
339.09	0.00
339.48	212.77
339.86	214.37
340.24	216.43
340.63	216.94
341.01	220.14
341.39	219.77
341.78	221.46
342.16	222.16
342.54	223.12
342.93	211.42
343.31	222.12
343.69	222.67
344.07	223.16
344.46	223.56
344.84	223.95
345.22	224.16
345.60	224.40
345.99	224.60
346.37	224.74
346.75	224.85
347.13	224.89
347.52	224.98
347.90	225.04
348.28	225.07
348.66	225.11
349.05	225.12
349.43	225.12
349.81	225.17
350.19	225.22
350.57	225.27
350.96	225.34
351.34	225.43
351.72	225.52
352.10	225.59
352.48	225.64
352.87	225.70
353.25	225.77
353.63	225.84
354.01	225.89
354.39	225.94
354.77	226.03
355.15	226.13
355.54	226.16
355.92	226.19
356.30	226.29
356.68	226.46
357.06	226.54
357.44	226.61
357.82	226.66
358.20	226.72
358.58	226.78
358.97	226.83
359.35	226.87
359.73	226.94
360.11	226.98
360.49	227.04
360.87	227.07
361.25	227.13
361.63	227.21
362.01	227.26
362.39	227.33
362.77	227.36
363.15	227.41
363.53	227.46
363.91	227.48
364.29	227.45
364.67	227.38
365.05	227.39
365.43	227.42
365.81	227.45
366.19	227.51
366.57	227.54
366.95	227.53
367.33	227.53
367.71	227.52
368.09	227.53
368.47	227.51
368.85	227.51
369.23	227.49
369.61	227.44
369.99	227.42
370.37	227.40
370.75	227.41
371.13	227.33
371.51	227.27
371.89	227.25
372.27	227.24
372.65	227.19
373.03	227.13
373.41	227.09
373.78	227.02
374.16	226.92
374.54	226.84
374.92	226.80
375.30	226.70
375.68	226.63
376.06	226.58
376.44	226.54
376.82	226.47
377.19	226.43
377.57	226.37
377.95	226.28
378.33	226.18
378.71	226.04
379.09	226.03
379.47	226.00
379.84	225.92
380.22	225.84
380.60	225.75
380.98	225.70
381.36	225.64
381.73	225.57
382.11	225.52
382.49	225.48
382.87	225.38
383.25	225.35
383.62	225.41
384.00	225.28
384.38	225.23
384.76	225.19
385.13	225.18
385.51	225.13
385.89	225.04
386.27	225.02
386.64	224.98
387.02	224.90
387.40	224.82
387.78	224.77
388.15	224.75
388.53	224.69
388.91	224.64
389.29	224.58
389.66	224.57
390.04	224.51
390.42	224.50
390.79	224.50
391.17	224.48
391.55	224.36
391.92	224.38
392.30	224.38
392.68	224.40
393.05	224.36
393.43	224.37
393.81	224.40
394.18	224.35
394.56	224.38
394.94	224.43
395.31	224.45
395.69	224.51
396.06	224.55
396.44	224.60
396.82	224.63
397.19	224.70
397.57	224.76
397.95	224.80
398.32	224.80
398.70	224.89
399.07	224.95
399.45	225.01
399.82	225.07
400.20	225.10
400.58	225.12
400.95	225.17
401.33	225.28
401.70	225.41
402.08	225.52
402.45	225.59
402.83	225.67
403.20	225.77
403.58	225.86
403.95	225.95
404.33	226.09
404.71	226.20
405.08	226.38
405.46	226.49
405.83	226.63
406.21	226.77
406.58	226.90
406.96	227.04
407.33	227.21
407.70	227.38
408.08	227.67
408.45	227.89
408.83	228.14
409.20	228.35
409.58	228.54
409.95	228.78
410.33	229.09
410.70	229.35
411.08	229.67
411.45	229.96
411.82	230.30
412.20	230.64
412.57	231.09
412.95	231.38
413.32	231.76
413.69	232.21
414.07	232.68
414.44	233.19
414.82	233.69
415.19	234.27
415.56	234.85
415.94	235.39
416.31	236.05
416.68	236.68
417.06	237.44
417.43	238.15
417.81	238.97
418.18	239.79
418.55	240.64
418.93	241.55
419.30	242.51
419.67	243.47
420.04	244.47
420.42	245.51
420.79	246.74
421.16	247.97
421.54	249.20
421.91	250.42
422.28	251.74
422.66	253.17
423.03	254.50
423.40	255.89
423.77	257.41
424.15	258.89
424.52	260.43
424.89	262.08
425.26	263.71
425.64	265.22
426.01	266.84
426.38	268.60
426.75	270.33
427.13	272.17
427.50	274.04
427.87	276.03
428.24	277.92
428.61	279.75
428.99	281.77
429.36	283.93
429.73	286.11
430.10	288.18
430.47	290.31
430.85	292.54
431.22	294.88
431.59	297.33
431.96	299.69
432.33	302.25
432.70	304.69
433.08	307.61
433.45	310.35
433.82	313.08
434.19	316.06
434.56	318.98
434.93	321.67
435.30	324.39
435.68	327.32
436.05	330.29
436.42	333.14
436.79	335.75
437.16	338.54
437.53	341.49
437.90	344.40
438.27	347.17
438.64	350.12
439.01	352.79
439.38	355.07
439.75	357.30
440.13	359.88
440.50	362.34
440.87	364.22
441.24	366.21
441.61	368.44
441.98	369.95
442.35	371.82
442.72	373.82
443.09	375.73
443.46	376.77
443.83	377.38
444.20	377.99
444.57	378.89
444.94	379.23
445.31	379.59
445.68	380.01
446.05	380.20
446.42	379.79
446.79	379.39
447.16	378.99
447.53	378.68
447.90	377.55
448.27	376.39
448.64	374.77
449.01	373.67
449.37	371.65
449.74	369.72
450.11	367.40
450.48	364.82
450.85	362.20
451.22	359.99
451.59	357.94
451.96	355.93
452.33	353.20
452.70	350.80
453.07	347.87
453.43	344.85
453.80	341.95
454.17	339.18
454.54	336.56
454.91	333.71
455.28	330.91
455.65	328.31
456.02	325.75
456.38	323.53
456.75	320.77
457.12	318.41
457.49	316.10
457.86	313.80
458.23	311.84
458.59	309.66
458.96	307.52
459.33	305.57
459.70	303.59
460.07	302.00
460.43	300.19
460.80	298.48
461.17	296.98
461.54	295.40
461.91	293.92
462.27	292.40
462.64	291.11
463.01	289.73
463.38	288.40
463.74	286.96
464.11	285.76
464.48	284.69
464.85	283.53
465.21	282.64
465.58	281.73
465.95	280.64
466.32	279.76
466.68	278.82
467.05	277.91
467.42	276.99
467.78	276.05
468.15	275.15
468.52	274.48
468.88	273.60
469.25	272.81
469.62	272.15
469.98	271.47
470.35	270.85
470.72	270.21
471.08	269.50
471.45	268.95
471.82	268.40
472.18	267.76
472.55	267.33
472.92	266.84
473.28	266.33
473.65	265.86
474.02	265.41
474.38	265.05
474.75	264.67
475.11	264.30
475.48	264.03
475.85	263.78
476.21	263.50
476.58	263.33
476.94	263.16
477.31	262.98
477.67	262.79
478.04	262.63
478.41	262.56
478.77	262.59
479.14	262.50
479.50	262.50
479.87	262.56
480.23	262.65
480.60	262.67
480.96	262.78
481.33	262.99
481.69	263.15
482.06	263.35
482.42	263.58
482.79	263.85
483.15	264.16
483.52	264.52
483.88	264.93
484.25	265.26
484.61	265.70
484.98	266.15
485.34	266.72
485.71	267.31
486.07	267.93
486.44	268.51
486.80	269.24
487.17	270.01
487.53	270.86
487.90	271.67
488.26	272.63
488.62	273.62
488.99	274.58
489.35	275.62
489.72	276.72
490.08	277.89
490.44	279.14
490.81	280.50
491.17	281.87
491.54	283.29
491.90	284.84
492.26	286.51
492.63	288.24
492.99	290.03
493.36	291.92
493.72	293.96
494.08	296.02
494.45	298.28
494.81	300.60
495.17	302.98
495.54	305.55
495.90	308.19
496.26	310.96
496.63	313.93
496.99	317.06
497.35	320.29
497.72	323.65
498.08	327.16
498.44	330.76
498.80	334.62
499.17	338.67
499.53	342.78
499.89	347.09
500.26	351.53
500.62	356.10
500.98	361.00
501.34	366.01
501.71	371.28
502.07	376.58
502.43	382.08
502.79	387.84
503.16	393.84
503.52	400.00
503.88	406.34
504.24	412.83
504.60	419.58
504.97	426.56
505.33	433.76
505.69	441.28
506.05	448.94
506.41	456.72
506.78	464.68
507.14	473.00
507.50	481.50
507.86	490.33
508.22	499.40
508.59	508.45
508.95	517.84
509.31	527.48
509.67	537.42
510.03	547.51
510.39	557.88
510.75	568.47
511.12	579.16
511.48	590.18
511.84	601.41
512.20	612.71
512.56	624.48
512.92	636.42
513.28	648.57
513.64	660.79
514.00	673.26
514.37	685.86
514.73	698.66
515.09	711.48
515.45	724.44
515.81	737.75
516.17	751.46
516.53	765.21
516.89	779.06
517.25	792.88
517.61	806.95
517.97	821.03
518.33	835.14
518.69	849.54
519.05	864.17
519.41	878.96
519.77	894.03
520.13	909.05
520.49	924.00
520.85	938.83
521.21	954.13
521.57	969.88
521.93	985.28
522.29	1001.15
522.65	1016.94
523.01	1032.70
523.37	1048.24
523.73	1063.85
524.09	1079.55
524.45	1095.32
524.81	1111.59
525.17	1127.93
525.53	1144.30
525.89	1160.60
526.25	1177.15
526.61	1193.07
526.97	1209.35
527.33	1225.42
527.68	1241.52
528.04	1257.59
528.40	1273.81
528.76	1290.44
529.12	1306.56
529.48	1323.02
529.84	1338.63
530.20	1354.90
530.56	1371.37
530.91	1388.24
531.27	1404.69
531.63	1420.70
531.99	1436.94
532.35	1452.47
532.71	1468.02
533.07	1483.98
533.42	1499.54
533.78	1515.07
534.14	1530.95
534.50	1545.95
534.86	1561.43
535.21	1576.31
535.57	1591.92
535.93	1607.07
536.29	1621.53
536.65	1636.30
537.00	1650.77
537.36	1665.82
537.72	1679.97
538.08	1694.28
538.44	1707.89
538.79	1721.47
539.15	1734.90
539.51	1748.37
539.87	1762.42
540.22	1775.90
540.58	1789.36
540.94	1802.38
541.29	1815.07
541.65	1827.72
542.01	1840.72
542.37	1852.94
542.72	1865.21
543.08	1876.95
543.44	1889.30
543.79	1900.52
544.15	1911.56
544.51	1923.15
544.87	1934.04
545.22	1944.94
545.58	1955.29
545.94	1965.14
546.29	1975.00
546.65	1984.98
547.01	1994.40
547.36	2003.20
547.72	2011.81
548.07	2020.06
548.43	2028.44
548.79	2036.47
549.14	2044.14
549.50	2051.53
549.86	2059.37
550.21	2066.76
550.57	2074.12
550.92	2080.93
551.28	2088.17
551.64	2095.27
551.99	2101.89
552.35	2108.34
552.70	2114.63
553.06	2120.80
553.41	2127.55
553.77	2133.77
554.13	2140.04
554.48	2146.28
554.84	2152.32
555.19	2157.71
555.55	2162.95
555.90	2167.74
556.26	2173.18
556.61	2178.16
556.97	2182.99
557.32	2187.56
557.68	2192.18
558.03	2196.69
558.39	2200.62
558.74	2205.44
559.10	2209.70
559.45	2213.73
559.81	2218.23
560.16	2222.38
560.52	2225.80
560.87	2229.39
561.23	2232.48
561.58	2235.74
561.94	2238.67
562.29	2240.98
562.64	2244.21
563.00	2247.21
563.35	2251.19
563.71	2254.68
564.06	2258.08
564.42	2261.44
564.77	2264.30
565.12	2267.04
565.48	2269.42
565.83	2271.70
566.19	2273.54
566.54	2274.75
566.89	2276.54
567.25	2277.67
567.60	2279.30
567.96	2281.64
568.31	2282.86
568.66	2284.41
569.02	2285.48
569.37	2286.31
569.72	2287.65
570.08	2288.38
570.43	2288.75
570.78	2288.54
571.14	2287.36
571.49	2286.44
571.84	2286.20
572.20	2285.47
572.55	2284.62
572.90	2283.41
573.26	2282.57
573.61	2281.16
573.96	2279.97
574.31	2277.25
574.67	2274.66
575.02	2271.49
575.37	2268.27
575.72	2264.98
576.08	2261.90
576.43	2258.92
576.78	2255.67
577.13	2252.78
577.49	2249.72
577.84	2246.61
578.19	2243.05
578.54	2239.88
578.90	2236.24
579.25	2231.23
579.60	2226.61
579.95	2222.11
580.30	2217.40
580.66	2212.51
581.01	2207.74
581.36	2203.01
581.71	2199.11
582.06	2194.97
582.42	2190.93
582.77	2186.12
583.12	2181.88
583.47	2177.69
583.82	2173.22
584.17	2168.22
584.53	2163.29
584.88	2158.07
585.23	2152.66
585.58	2147.50
585.93	2142.12
586.28	2137.44
586.63	2132.60
586.98	2127.73
587.34	2123.12
587.69	2118.49
588.04	2113.54
588.39	2108.33
588.74	2102.20
589.09	2096.38
589.44	2089.92
589.79	2083.90
590.14	2078.43
590.49	2072.07
590.84	2065.58
591.19	2059.53
591.54	2053.28
591.89	2046.10
592.25	2039.63
592.60	2032.57
592.95	2025.43
593.30	2018.32
593.65	2010.89
594.00	2003.97
594.35	1996.97
594.70	1989.19
595.05	1982.26
595.40	1975.01
595.75	1967.71
596.10	1961.63
596.45	1955.00
596.80	1948.95
597.15	1942.58
597.50	1935.80
597.85	1929.40
598.19	1923.16
598.54	1916.32
598.89	1909.76
599.24	1903.85
599.59	1897.40
599.94	1891.25
600.29	1884.87
600.64	1878.41
600.99	1871.19
601.34	1864.59
601.69	1857.54
602.04	1850.86
602.39	1843.53
602.74	1836.86
603.08	1830.17
603.43	1823.53
603.78	1816.36
604.13	1809.15
604.48	1802.11
604.83	1795.30
605.18	1788.57
605.53	1780.64
605.87	1772.63
606.22	1765.35
606.57	1757.46
606.92	1749.89
607.27	1742.94
607.62	1736.16
607.96	1729.07
608.31	1722.62
608.66	1715.01
609.01	1707.62
609.36	1700.05
609.70	1692.03
610.05	1684.03
610.40	1676.42
610.75	1668.14
611.10	1660.43
611.44	1651.96
611.79	1643.74
612.14	1634.99
612.49	1625.64
612.83	1617.04
613.18	1608.89
613.53	1600.86
613.88	1592.38
614.22	1584.13
614.57	1575.23
614.92	1567.16
615.27	1559.45
615.61	1551.00
615.96	1542.93
616.31	1535.18
616.65	1527.67
617.00	1520.08
617.35	1512.25
617.70	1503.88
618.04	1495.29
618.39	1486.84
618.74	1479.24
619.08	1470.95
619.43	1463.27
619.78	1456.22
620.12	1449.14
620.47	1441.51
620.82	1433.21
621.16	1425.53
621.51	1417.77
621.85	1410.11
622.20	1401.45
622.55	1393.02
622.89	1385.03
623.24	1377.24
623.59	1369.68
623.93	1362.10
624.28	1354.75
624.62	1347.23
624.97	1339.83
625.32	1332.88
625.66	1325.73
626.01	1318.45
626.35	1311.01
626.70	1303.16
627.04	1295.47
627.39	1287.42
627.73	1279.89
628.08	1272.91
628.43	1265.70
628.77	1258.31
629.12	1250.67
629.46	1243.46
629.81	1235.84
630.15	1228.41
630.50	1220.92
630.84	1212.77
631.19	1204.64
631.53	1197.03
631.88	1189.38
632.22	1181.70
632.57	1174.27
632.91	1166.69
633.26	1159.18
633.60	1151.61
633.95	1144.26
634.29	1137.01
634.64	1130.24
634.98	1122.79
635.32	1115.59
635.67	1108.85
636.01	1102.10
636.36	1095.38
636.70	1088.70
637.05	1082.08
637.39	1075.57
637.73	1069.07
638.08	1063.00
638.42	1056.96
638.77	1050.41
639.11	1043.88
639.45	1037.44
639.80	1030.82
640.14	1024.46
640.49	1017.88
640.83	1011.48
641.17	1005.36
641.52	999.10
641.86	992.59
642.20	986.69
642.55	980.23
642.89	973.70
643.23	967.03
643.58	961.09
643.92	954.82
644.26	948.70
644.61	942.59
644.95	936.57
645.29	930.04
645.64	923.33
645.98	917.00
646.32	910.90
646.66	904.80
647.01	898.95
647.35	893.20
647.69	887.29
648.04	881.66
648.38	875.77
648.72	869.75
649.06	863.74
649.41	857.78
649.75	851.85
650.09	845.89
650.43	840.14
650.78	833.93
651.12	828.05
651.46	822.38
651.80	816.72
652.14	811.23
652.49	805.82
652.83	800.63
653.17	794.98
653.51	789.36
653.85	783.89
654.20	778.27
654.54	772.18
654.88	766.43
655.22	760.55
655.56	754.85
655.90	749.36
656.25	744.15
656.59	738.80
656.93	733.76
657.27	728.65
657.61	723.18
657.95	718.11
658.29	712.93
658.64	707.61
658.98	702.22
659.32	696.75
659.66	691.55
660.00	686.20
660.34	681.20
660.68	676.18
661.02	671.18
661.36	666.47
661.70	662.06
662.05	657.77
662.39	653.53
662.73	648.98
663.07	644.54
663.41	640.06
663.75	635.58
664.09	630.99
664.43	626.52
664.77	622.42
665.11	618.18
665.45	614.00
665.79	609.97
666.13	605.90
666.47	601.71
666.81	597.56
667.15	593.36
667.49	589.43
667.83	585.56
668.17	581.55
668.51	577.47
668.85	573.33
669.19	569.33
669.53	565.42
669.87	561.66
670.21	557.91
670.55	554.24
670.89	550.75
671.23	547.24
671.57	543.67
671.91	540.17
672.25	536.61
672.58	533.11
672.92	529.65
673.26	526.39
673.60	523.29
673.94	520.12
674.28	517.19
674.62	514.24
674.96	511.11
675.30	508.30
675.64	505.37
675.97	502.54
676.31	499.69
676.65	496.73
676.99	493.96
677.33	491.08
677.67	488.17
678.01	485.14
678.34	482.16
678.68	479.27
679.02	476.40
679.36	473.60
679.70	470.81
680.04	468.02
680.37	465.18
680.71	462.31
681.05	459.64
681.39	456.87
681.73	454.19
682.06	451.67
682.40	449.06
682.74	446.43
683.08	443.84
683.42	441.22
683.75	438.73
684.09	436.06
684.43	433.57
684.77	431.15
685.10	428.76
685.44	426.41
685.78	424.05
686.12	421.73
686.45	419.39
686.79	417.06
687.13	414.84
687.46	412.64
687.80	410.47
688.14	408.24
688.48	406.20
688.81	403.93
689.15	401.73
689.49	399.47
689.82	397.34
690.16	395.28
690.50	393.28
690.83	391.31
691.17	389.36
691.51	387.40
691.84	385.51
692.18	383.59
692.52	381.59
692.85	379.67
693.19	377.77
693.52	375.94
693.86	374.11
694.20	372.28
694.53	370.44
694.87	368.51
695.21	366.69
695.54	364.84
695.88	363.10
696.21	361.42
696.55	359.74
696.88	358.05
697.22	356.32
697.56	354.67
697.89	352.97
698.23	351.32
698.56	349.71
698.90	348.12
699.23	346.48
699.57	344.96
699.90	343.42
700.24	341.88
700.58	340.36
700.91	338.89
701.25	337.45
701.58	336.05
701.92	334.71
702.25	333.33
702.59	331.96
702.92	330.57
703.26	329.24
703.59	327.96
703.93	326.75
704.26	325.56
704.60	324.28
704.93	323.02
705.26	321.78
705.60	320.57
705.93	319.39
706.27	318.32
706.60	317.26
706.94	316.15
707.27	315.00
707.61	313.89
707.94	312.83
708.27	311.72
708.61	310.62
708.94	309.59
709.28	308.59
709.61	307.64
709.94	306.70
710.28	305.64
710.61	304.63
710.95	303.54
711.28	302.57
711.61	301.58
711.95	300.66
712.28	299.71
712.61	298.71
712.95	297.79
713.28	296.86
713.61	295.94
713.95	295.07
714.28	294.20
714.61	293.32
714.95	292.44
715.28	291.58
715.61	290.69
715.95	289.83
716.28	288.93
716.61	288.03
716.95	287.19
717.28	286.47
717.61	285.70
717.94	284.97
718.28	284.13
718.61	283.40
718.94	282.65
719.27	281.98
719.61	281.31
719.94	280.66
720.27	279.94
720.60	279.26
720.94	278.61
721.27	278.00
721.60	277.39
721.93	276.80
722.27	276.21
722.60	275.65
722.93	275.07
723.26	274.55
723.59	273.99
723.93	273.42
724.26	272.78
724.59	272.19
724.92	271.63
725.25	271.14
725.59	270.62
725.92	270.08
726.25	269.52
726.58	269.02
726.91	268.47
727.24	267.98
727.57	267.47
727.91	266.92
728.24	266.44
728.57	265.96
728.90	265.50
729.23	265.00
729.56	264.53
729.89	264.04
730.22	263.55
730.55	263.06
730.89	262.60
731.22	262.20
731.55	261.75
731.88	261.31
732.21	260.82
732.54	260.36
732.87	259.92
733.20	259.51
733.53	259.09
733.86	258.68
734.19	258.24
734.52	257.86
734.85	257.53
735.18	257.11
735.51	256.72
735.84	256.33
736.17	255.99
736.50	255.60
736.83	255.35
737.16	254.98
737.49	254.65
737.82	254.28
738.15	253.93
738.48	253.57
738.81	253.24
739.14	252.95
739.47	252.63
739.80	252.34
740.13	252.03
740.46	251.69
740.79	251.33
741.12	251.04
741.45	250.71
741.78	250.38
742.11	250.08
742.44	249.74
742.77	249.42
743.10	249.11
743.43	248.80
743.75	248.40
744.08	248.26
744.41	247.96
744.74	247.71
745.07	247.40
745.40	247.18
745.73	246.96
746.06	246.66
746.39	246.40
746.71	246.14
747.04	245.87
747.37	245.63
747.70	245.42
748.03	245.20
748.36	245.02
748.68	244.75
749.01	244.51
749.34	244.27
749.67	244.05
750.00	243.81
750.33	243.68
750.65	243.49
750.98	243.16
751.31	242.96
751.64	242.75
751.97	242.58
752.29	242.33
752.62	242.08
752.95	241.90
753.28	241.69
753.60	241.47
753.93	241.29
754.26	241.10
754.59	240.85
754.91	240.61
755.24	240.37
755.57	240.17
755.90	240.00
756.22	239.85
756.55	239.65
756.88	239.44
757.20	239.21
757.53	238.98
757.86	238.80
758.19	238.64
758.51	238.48
758.84	238.31
759.17	238.13
759.49	237.98
759.82	237.86
760.15	237.74
760.47	237.60
760.80	237.42
761.13	237.28
761.45	237.18
761.78	237.05
762.11	236.91
762.43	236.77
762.76	236.62
763.08	236.46
763.41	236.34
763.74	236.20
764.06	236.05
764.39	235.93
764.71	235.79
765.04	235.64
765.37	235.48
765.69	235.34
766.02	235.22
766.34	235.07
766.67	234.91
767.00	234.78
767.32	234.74
767.65	234.67
767.97	234.56
768.30	234.44
768.62	234.29
768.95	234.15
769.27	234.05
769.60	233.97
769.92	233.87
770.25	233.76
770.57	233.67
770.90	233.55
771.22	233.44
771.55	233.33
771.87	233.24
772.20	233.17
772.52	233.14
772.85	233.14
773.17	233.05
773.50	232.94
773.82	232.81
774.15	232.66
774.47	232.53
774.80	232.39
775.12	232.26
775.45	232.18
775.77	232.13
776.09	232.06
776.42	231.94
776.74	231.90
777.07	231.80
777.39	231.72
777.72	231.61
778.04	231.57
778.36	231.51
778.69	231.44
779.01	231.36
779.33	231.24
779.66	231.05
779.98	230.99
780.31	230.91
780.63	230.88
780.95	230.82
781.28	230.74
781.60	230.69
781.92	230.66
782.25	230.61
782.57	230.51
782.89	230.44
783.22	230.35
783.54	230.27
783.86	230.23
784.19	230.17
784.51	230.14
784.83	230.09
785.16	230.02
785.48	229.95
785.80	229.90
786.12	229.85
786.45	229.82
786.77	229.77
787.09	229.71
787.42	229.63
787.74	229.59
788.06	229.55
788.38	229.48
788.71	229.41
789.03	229.35
789.35	229.32
789.67	229.25
789.99	229.25
790.32	229.17
790.64	229.09
790.96	229.10
791.28	229.03
791.61	228.96
791.93	228.93
792.25	228.91
792.57	228.92
792.89	228.80
793.21	228.80
793.54	228.73
793.86	228.68
794.18	228.62
794.50	228.57
794.82	228.52
795.14	228.52
795.47	228.50
795.79	228.46
796.11	228.41
796.43	228.39
796.75	228.34
797.07	228.29
797.39	228.29
797.71	228.22
798.04	228.19
798.36	228.14
798.68	228.11
799.00	228.05
799.32	227.98
799.64	228.00
799.96	227.95
800.28	227.94
800.60	227.95
800.92	227.94
801.24	227.92
801.56	227.89
801.89	227.85
802.21	227.82
802.53	227.79
802.85	227.80
803.17	227.78
803.49	227.75
803.81	227.73
804.13	227.69
804.45	227.66
804.77	227.67
805.09	227.68
805.41	227.65
805.73	227.60
806.05	227.57
806.37	227.54
806.69	227.51
807.01	227.50
807.33	227.49
807.65	227.45
807.97	227.45
808.28	227.43
808.60	227.41
808.92	227.38
809.24	227.42
809.56	227.38
809.88	227.34
810.20	227.34
810.52	227.35
810.84	227.33
811.16	227.30
811.48	227.27
811.80	227.28
812.12	227.27
812.43	227.31
812.75	227.27
813.07	227.26
813.39	227.24
813.71	227.22
814.03	227.18
814.35	227.16
814.67	227.09
814.98	227.08
815.30	227.07
815.62	227.06
815.94	226.97
816.26	227.00
816.58	226.99
816.89	226.96
817.21	226.94
817.53	226.90
817.85	226.87
818.17	226.81
818.48	226.74
818.80	226.73
819.12	226.68
819.44	226.66
819.76	226.63
820.07	226.61
820.39	226.55
820.71	226.54
821.03	226.51
821.34	226.53
821.66	226.51
821.98	226.51
822.30	226.44
822.61	226.49
822.93	226.42
823.25	226.39
823.57	226.36
823.88	226.36
824.20	226.35
824.52	226.36
824.83	226.35
825.15	226.34
825.47	226.31
825.79	226.29
826.10	226.26
826.42	226.24
826.74	226.25
827.05	226.26
827.37	226.24
827.69	226.21
828.00	226.14
828.32	226.12
828.64	226.06
828.95	226.13
829.27	226.08
829.58	226.04
829.90	226.02
830.22	225.99
830.53	225.94
830.85	225.90
831.17	225.83
831.48	225.86
831.80	225.83
832.11	225.84
832.43	225.80
832.75	225.80
833.06	225.84
833.38	225.79
833.69	225.76
834.01	225.74
834.32	225.75
834.64	225.76
834.96	225.74
835.27	225.73
835.59	225.69
835.90	225.66
836.22	225.65
836.53	225.64
836.85	225.64
837.16	225.73
837.48	225.76
837.79	225.81
838.11	225.75
838.42	225.75
838.74	225.73
839.05	225.73
839.37	225.72
839.68	225.64
840.00	225.64
840.31	225.65
840.63	225.64
840.94	225.62
841.26	225.61
841.57	225.62
841.88	225.65
842.20	225.61
842.51	225.61
842.83	225.61
843.14	225.70
843.46	225.70
843.77	225.64
844.08	225.61
844.40	225.56
844.71	225.58
845.03	225.57
845.34	225.56
845.65	225.53
845.97	225.53
846.28	225.55
846.60	225.55
846.91	225.55
847.22	225.57
847.54	225.59
847.85	225.59
848.16	225.59
848.48	225.54
848.79	225.60
849.10	225.59
849.42	225.62
849.73	225.53
850.04	225.54
850.36	225.51
850.67	225.53
850.98	225.58
851.30	225.54
851.61	225.56
851.92	225.58
852.23	225.65
852.55	225.65
852.86	225.64
853.17	225.64
853.49	225.64
853.80	225.64
854.11	225.64
854.42	225.66
854.74	225.63
855.05	225.67
855.36	225.59
855.67	225.61
855.99	225.59
856.30	225.70
856.61	225.71
856.92	225.72
857.23	225.72
857.55	225.68
857.86	225.69
858.17	225.66
858.48	225.62
858.79	225.59
859.11	225.58
859.42	225.59
859.73	225.57
860.04	225.57
860.35	225.52
860.66	225.50
860.98	225.47
861.29	225.45
861.60	225.40
861.91	225.40
862.22	225.37
862.53	225.38
862.84	225.22
863.16	225.23
863.47	225.19
863.78	225.17
864.09	225.18
864.40	225.21
864.71	225.22
865.02	225.22
865.33	225.20
865.64	225.19
865.95	225.17
866.27	225.23
866.58	225.23
866.89	225.25
867.20	225.22
867.51	225.19
867.82	225.22
868.13	225.27
868.44	225.28
868.75	225.31
869.06	225.29
869.37	225.33
869.68	225.29
869.99	225.31
870.30	225.31
870.61	225.30
870.92	225.28
871.23	225.28
871.54	225.30
871.85	225.29
872.16	225.31
872.47	225.32
872.78	225.23
873.09	225.19
873.40	225.19
873.71	225.23
874.02	225.25
874.33	225.22
874.64	225.21
874.95	225.21
875.26	225.17
875.56	225.17
875.87	225.17
876.18	225.17
876.49	225.28
876.80	225.26
877.11	225.27
877.42	225.27
877.73	225.28
878.04	225.27
878.35	225.31
878.66	225.30
878.96	225.34
879.27	225.35
879.58	225.37
879.89	225.34
880.20	225.37
880.51	225.39
880.82	225.38
881.12	225.39
881.43	225.37
881.74	225.37
882.05	225.36
882.36	225.36
882.67	225.39
882.97	225.26
883.28	225.26
883.59	225.26
883.90	225.29
884.21	225.30
884.51	225.32
884.82	225.29
885.13	225.31
885.44	225.27
885.74	225.29
886.05	225.32
886.36	225.34
886.67	225.27
886.98	225.31
887.28	225.35
887.59	225.34
887.90	225.34
888.20	225.33
888.51	225.33
888.82	225.32
889.13	225.30
889.43	225.37
889.74	225.36
890.05	225.36
890.35	225.32
890.66	225.27
890.97	225.25
891.28	225.25
891.58	225.25
891.89	225.22
892.20	225.19
892.50	225.15
892.81	225.12
893.12	225.14
893.42	225.06
893.73	225.06
894.04	225.03
894.34	225.06
894.65	225.08
894.95	225.10
895.26	225.08
895.57	225.14
895.87	225.07
896.18	225.10
896.48	225.09
896.79	225.08
897.10	225.08
897.40	225.08
897.71	225.05
898.01	225.04
898.32	225.09
898.63	225.09
898.93	225.06
899.24	225.05
899.54	225.06
899.85	225.08
900.15	225.07
900.46	225.08
900.76	225.08
901.07	225.05
901.38	225.04
901.68	225.04
901.99	225.00
902.29	224.98
902.60	224.94
902.90	224.90
903.21	224.91
903.51	224.91
903.82	224.93
904.12	224.95
904.43	224.93
904.73	224.89
905.03	224.89
905.34	225.04
905.64	225.06
905.95	225.05
906.25	225.01
906.56	225.01
906.86	225.02
907.17	225.00
907.47	225.00
907.77	225.01
908.08	225.02
908.38	225.02
908.69	225.01
908.99	225.03
909.30	225.07
909.60	225.06
909.90	225.10
910.21	225.07
910.51	225.04
910.81	225.04
911.12	225.03
911.42	225.03
911.73	224.91
912.03	224.93
912.33	224.94
912.64	224.96
912.94	224.96
913.24	224.95
913.55	224.95
913.85	224.98
914.15	224.99
914.46	225.00
914.76	224.97
915.06	225.00
915.37	224.97
915.67	224.97
915.97	224.97
916.27	224.94
916.58	224.94
916.88	224.95
917.18	224.97
917.49	225.06
917.79	225.04
918.09	225.10
918.39	225.07
918.70	225.07
919.00	225.10
919.30	225.16
919.60	225.12
919.91	225.10
920.21	225.10
920.51	225.06
920.81	225.04
921.12	225.05
921.42	225.04
921.72	225.05
922.02	225.03
922.32	225.04
922.63	225.02
922.93	225.09
923.23	225.09
923.53	225.07
923.83	224.97
924.13	225.00
924.44	224.96
924.74	225.01
925.04	225.01
925.34	224.98
925.64	224.91
925.94	224.93
926.24	224.97
926.55	224.93
926.85	224.91
927.15	224.92
927.45	224.90
927.75	224.90
928.05	224.93
928.35	224.91
928.65	224.93
928.95	224.96
929.26	224.88
929.56	224.86
929.86	224.85
930.16	224.85
930.46	224.83
930.76	224.79
931.06	224.76
931.36	224.74
931.66	224.78
931.96	224.76
932.26	224.72
932.56	224.67
932.86	224.69
933.16	224.70
933.46	224.67
933.76	224.66
934.06	224.66
934.36	224.70
934.66	224.72
934.96	224.69
935.26	224.66
935.56	224.69
935.86	224.66
936.16	224.64
936.46	224.66
936.76	224.66
937.06	224.66
937.36	224.65
937.66	224.64
937.96	224.61
938.26	224.61
938.56	224.65
938.86	224.67
939.16	224.67
939.46	224.69
939.76	224.70
940.06	224.70
940.35	224.70
940.65	224.62
940.95	224.62
941.25	224.57
941.55	224.57
941.85	224.58
942.15	224.64
942.45	224.68
942.75	224.65
943.04	224.65
943.34	224.65
943.64	224.64
943.94	224.63
944.24	224.64
944.54	224.65
944.84	224.62
945.13	224.59
945.43	224.59
945.73	224.57
946.03	224.55
946.33	224.51
946.62	224.50
946.92	224.50
947.22	224.50
947.52	224.51
947.82	224.51
948.11	224.52
948.41	224.50
948.71	224.47
949.01	224.49
949.31	224.47
949.60	224.49
949.90	224.49
950.20	224.53
950.50	224.51
950.79	224.52
951.09	224.53
951.39	224.53
951.69	224.54
951.98	224.58
952.28	224.62
952.58	224.63
952.87	224.63
953.17	224.62
953.47	224.61
953.76	224.63
954.06	224.62
954.36	224.56
954.66	224.53
954.95	224.55
955.25	224.52
955.55	224.54
955.84	224.52
956.14	224.50
956.44	224.51
956.73	224.50
957.03	224.47
957.32	224.46
957.62	224.46
957.92	224.46
958.21	224.45
958.51	224.53
958.81	224.56
959.10	224.55
959.40	224.59
959.69	224.61
959.99	224.64
960.29	224.64
960.58	224.64
960.88	224.69
961.17	224.69
961.47	224.72
961.76	224.73
962.06	224.73
962.36	224.76
962.65	224.74
962.95	224.73
963.24	224.74
963.54	224.78
963.83	224.83
964.13	224.82
964.42	224.80
964.72	224.76
965.01	224.76
965.31	224.76
965.60	224.74
965.90	224.77
966.19	224.75
966.49	224.74
966.78	224.73
967.08	224.75
967.37	224.77
967.67	224.75
967.96	224.75
968.26	224.76
968.55	224.76
968.85	224.78
969.14	224.82
969.43	224.82
969.73	224.77
970.02	224.75
970.32	224.70
970.61	224.70
970.91	224.64
971.20	224.62
971.49	224.60
971.79	224.61
972.08	224.56
972.38	224.58
972.67	224.61
972.96	224.66
973.26	224.60
973.55	224.60
973.85	224.59
974.14	224.57
974.43	224.56
974.73	224.54
975.02	224.52
975.31	224.48
975.61	224.46
975.90	224.47
976.19	224.43
976.49	224.46
976.78	224.45
977.07	224.46
977.37	224.49
977.66	224.52
977.95	224.52
978.24	224.52
978.54	224.53
978.83	224.50
979.12	224.43
979.42	224.47
979.71	224.47
980.00	224.47
980.29	224.49
980.59	224.50
980.88	224.51
981.17	224.53
981.46	224.54
981.76	224.52
982.05	224.56
982.34	224.59
982.63	224.59
982.93	224.60
983.22	224.63
983.51	224.62
983.80	224.63
984.09	224.62
984.39	224.62
984.68	224.60
984.97	224.60
985.26	224.61
985.55	224.62
985.85	224.59
986.14	224.59
986.43	224.62
986.72	224.63
987.01	224.61
987.30	224.60
987.59	224.61
987.89	224.59
988.18	224.58
988.47	224.56
988.76	224.57
989.05	224.53
989.34	224.54
989.63	224.57
989.92	224.58
990.22	224.58
990.51	224.58
990.80	224.57
991.09	224.59
991.38	224.59
991.67	224.57
991.96	224.58
992.25	224.61
992.54	224.60
992.83	224.59
993.12	224.60
993.41	224.61
993.70	224.63
993.99	224.70
994.28	224.72
994.58	224.74
994.87	224.74
995.16	224.78
995.45	224.74
995.74	224.70
996.03	224.67
996.32	224.70
996.61	224.71
996.90	224.73
997.19	224.72
997.48	224.76
997.77	224.76
998.06	224.80
998.34	224.80
998.63	224.78
998.92	224.77
999.21	224.77
999.50	224.78
999.79	224.75
1000.08	224.74
1000.37	224.74
1000.66	224.73
1000.95	224.73
1001.24	224.71
1001.53	224.73
1001.82	224.72
1002.11	224.72
1002.40	224.71
1002.68	224.75
1002.97	224.78
1003.26	224.82
1003.55	224.79
1003.84	224.84
1004.13	224.83
1004.42	224.80
1004.71	224.78
1004.99	224.78
1005.28	224.84
1005.57	224.78
1005.86	224.76
1006.15	224.74
1006.44	224.73
1006.72	224.74
1007.01	224.69
1007.30	224.66
1007.59	224.65
1007.88	224.63
1008.17	224.65
1008.45	224.64
1008.74	224.58
1009.03	224.55
1009.32	224.50
1009.60	224.51
1009.89	224.43
1010.18	224.36
1010.47	224.36
1010.76	224.34
1011.04	224.33
1011.33	224.30
1011.62	224.33
1011.91	224.33
1012.19	224.33
1012.48	224.29
1012.77	224.29
1013.05	224.34
1013.34	224.39
1013.63	224.35
1013.92	224.34
1014.20	224.33
1014.49	224.30
1014.78	224.31
1015.06	224.28
1015.35	224.26
1015.64	224.24
1015.92	224.28
1016.21	224.29
1016.50	224.30
1016.78	224.34
1017.07	224.37
1017.36	224.36
1017.64	224.36
1017.93	224.34
1018.22	224.36
1018.50	224.40
1018.79	224.41
1019.08	224.38
1019.36	224.36
1019.65	224.38
1019.93	224.48
1020.22	224.49
1020.51	224.57
1020.79	224.57
1021.08	224.56
1021.36	224.52
1021.65	224.72
1021.94	224.43
1022.22	224.13
1022.51	224.47
1022.79	225.69
1023.08	224.73
1023.36	225.85
1023.65	224.41
>>>>>End Processed Spectral Data<<<<<
