SpectraSuite Data File
++++++++++++++++++++++++++++++++++++
Date: Fri Feb 01 15:20:59 EST 2013
User: group
Dark Spectrum Present: No
Reference Spectrum Present: No
Number of Sampled Component Spectra: 1
Spectrometers: USB2E7196
Integration Time (usec): 35000 (USB2E7196)
Spectra Averaged: 100 (USB2E7196)
Boxcar Smoothing: 10 (USB2E7196)
Correct for Electrical Dark: No (USB2E7196)
Strobe/Lamp Enabled: No (USB2E7196)
Correct for Detector Non-linearity: No (USB2E7196)
Correct for Stray Light: No (USB2E7196)
Number of Pixels in Processed Spectrum: 2048
>>>>>Begin Processed Spectral Data<<<<<
339.09	0.00
339.48	214.81
339.86	216.31
340.24	218.42
340.63	219.87
341.01	221.98
341.39	221.86
341.78	223.84
342.16	224.49
342.54	224.83
342.93	213.45
343.31	224.25
343.69	224.80
344.07	225.30
344.46	225.69
344.84	226.01
345.22	226.25
345.60	226.51
345.99	226.70
346.37	226.85
346.75	226.98
347.13	227.06
347.52	227.13
347.90	227.23
348.28	227.25
348.66	227.30
349.05	227.33
349.43	227.40
349.81	227.43
350.19	227.49
350.57	227.56
350.96	227.64
351.34	227.71
351.72	227.81
352.10	227.90
352.48	228.01
352.87	228.11
353.25	228.19
353.63	228.28
354.01	228.34
354.39	228.38
354.77	228.46
355.15	228.57
355.54	228.66
355.92	228.68
356.30	228.77
356.68	228.93
357.06	228.99
357.44	229.02
357.82	229.10
358.20	229.15
358.58	229.19
358.97	229.28
359.35	229.37
359.73	229.46
360.11	229.52
360.49	229.58
360.87	229.59
361.25	229.67
361.63	229.73
362.01	229.77
362.39	229.80
362.77	229.83
363.15	229.83
363.53	229.82
363.91	229.83
364.29	229.86
364.67	229.74
365.05	229.75
365.43	229.75
365.81	229.75
366.19	229.79
366.57	229.80
366.95	229.76
367.33	229.70
367.71	229.66
368.09	229.66
368.47	229.58
368.85	229.59
369.23	229.56
369.61	229.47
369.99	229.47
370.37	229.46
370.75	229.47
371.13	229.39
371.51	229.33
371.89	229.28
372.27	229.19
372.65	229.16
373.03	229.10
373.41	229.07
373.78	229.03
374.16	228.90
374.54	228.79
374.92	228.69
375.30	228.64
375.68	228.56
376.06	228.46
376.44	228.42
376.82	228.36
377.19	228.27
377.57	228.22
377.95	228.08
378.33	227.99
378.71	227.85
379.09	227.81
379.47	227.75
379.84	227.69
380.22	227.65
380.60	227.56
380.98	227.49
381.36	227.42
381.73	227.33
382.11	227.31
382.49	227.28
382.87	227.23
383.25	227.17
383.62	227.18
384.00	227.11
384.38	227.04
384.76	226.96
385.13	226.97
385.51	226.93
385.89	226.88
386.27	226.86
386.64	226.83
387.02	226.76
387.40	226.71
387.78	226.65
388.15	226.61
388.53	226.59
388.91	226.56
389.29	226.52
389.66	226.48
390.04	226.45
390.42	226.44
390.79	226.44
391.17	226.39
391.55	226.31
391.92	226.31
392.30	226.34
392.68	226.33
393.05	226.32
393.43	226.30
393.81	226.33
394.18	226.30
394.56	226.34
394.94	226.38
395.31	226.42
395.69	226.50
396.06	226.55
396.44	226.59
396.82	226.63
397.19	226.72
397.57	226.82
397.95	226.88
398.32	226.91
398.70	226.97
399.07	227.08
399.45	227.17
399.82	227.23
400.20	227.28
400.58	227.39
400.95	227.42
401.33	227.54
401.70	227.67
402.08	227.78
402.45	227.87
402.83	228.05
403.20	228.19
403.58	228.28
403.95	228.41
404.33	228.54
404.71	228.70
405.08	228.90
405.46	229.03
405.83	229.19
406.21	229.36
406.58	229.54
406.96	229.74
407.33	229.93
407.70	230.14
408.08	230.43
408.45	230.64
408.83	230.89
409.20	231.08
409.58	231.27
409.95	231.56
410.33	231.82
410.70	232.04
411.08	232.34
411.45	232.63
411.82	232.92
412.20	233.30
412.57	233.70
412.95	233.97
413.32	234.37
413.69	234.76
414.07	235.18
414.44	235.63
414.82	236.08
415.19	236.59
415.56	237.12
415.94	237.64
416.31	238.29
416.68	238.89
417.06	239.65
417.43	240.35
417.81	241.10
418.18	241.90
418.55	242.76
418.93	243.61
419.30	244.49
419.67	245.44
420.04	246.37
420.42	247.34
420.79	248.53
421.16	249.68
421.54	250.89
421.91	252.11
422.28	253.39
422.66	254.72
423.03	256.05
423.40	257.38
423.77	258.79
424.15	260.21
424.52	261.72
424.89	263.30
425.26	264.86
425.64	266.29
426.01	267.90
426.38	269.54
426.75	271.20
427.13	272.95
427.50	274.75
427.87	276.62
428.24	278.54
428.61	280.29
428.99	282.24
429.36	284.35
429.73	286.42
430.10	288.46
430.47	290.51
430.85	292.61
431.22	294.88
431.59	297.25
431.96	299.50
432.33	301.96
432.70	304.38
433.08	307.19
433.45	309.87
433.82	312.45
434.19	315.32
434.56	318.14
434.93	320.82
435.30	323.47
435.68	326.40
436.05	329.21
436.42	332.03
436.79	334.54
437.16	337.23
437.53	340.02
437.90	342.83
438.27	345.62
438.64	348.49
439.01	351.07
439.38	353.35
439.75	355.52
440.13	358.04
440.50	360.34
440.87	362.19
441.24	364.13
441.61	366.34
441.98	367.83
442.35	369.66
442.72	371.48
443.09	373.28
443.46	374.25
443.83	374.80
444.20	375.29
444.57	376.11
444.94	376.41
445.31	376.78
445.68	377.11
446.05	377.15
446.42	376.76
446.79	376.39
447.16	375.92
447.53	375.62
447.90	374.44
448.27	373.33
448.64	371.73
449.01	370.59
449.37	368.59
449.74	366.71
450.11	364.48
450.48	362.01
450.85	359.46
451.22	357.32
451.59	355.35
451.96	353.40
452.33	350.81
452.70	348.42
453.07	345.57
453.43	342.68
453.80	339.91
454.17	337.20
454.54	334.63
454.91	331.87
455.28	329.18
455.65	326.71
456.02	324.19
456.38	322.04
456.75	319.38
457.12	317.12
457.49	314.85
457.86	312.65
458.23	310.81
458.59	308.75
458.96	306.64
459.33	304.77
459.70	302.89
460.07	301.40
460.43	299.69
460.80	298.08
461.17	296.66
461.54	295.21
461.91	293.77
462.27	292.29
462.64	291.05
463.01	289.67
463.38	288.33
463.74	286.99
464.11	285.82
464.48	284.79
464.85	283.68
465.21	282.81
465.58	281.88
465.95	280.75
466.32	279.86
466.68	278.93
467.05	278.00
467.42	277.13
467.78	276.19
468.15	275.30
468.52	274.63
468.88	273.74
469.25	272.92
469.62	272.27
469.98	271.61
470.35	271.00
470.72	270.39
471.08	269.76
471.45	269.21
471.82	268.66
472.18	268.03
472.55	267.57
472.92	267.04
473.28	266.56
473.65	266.13
474.02	265.66
474.38	265.31
474.75	264.99
475.11	264.58
475.48	264.28
475.85	264.04
476.21	263.79
476.58	263.63
476.94	263.46
477.31	263.33
477.67	263.15
478.04	263.02
478.41	262.94
478.77	262.96
479.14	262.88
479.50	262.91
479.87	262.97
480.23	263.04
480.60	263.11
480.96	263.24
481.33	263.49
481.69	263.67
482.06	263.88
482.42	264.10
482.79	264.41
483.15	264.74
483.52	265.11
483.88	265.45
484.25	265.81
484.61	266.25
484.98	266.66
485.34	267.21
485.71	267.79
486.07	268.41
486.44	268.98
486.80	269.69
487.17	270.41
487.53	271.23
487.90	272.10
488.26	273.03
488.62	273.98
488.99	274.89
489.35	275.93
489.72	277.03
490.08	278.21
490.44	279.40
490.81	280.70
491.17	282.05
491.54	283.57
491.90	285.14
492.26	286.79
492.63	288.58
492.99	290.36
493.36	292.26
493.72	294.33
494.08	296.46
494.45	298.69
494.81	301.04
495.17	303.49
495.54	306.05
495.90	308.74
496.26	311.54
496.63	314.53
496.99	317.62
497.35	320.89
497.72	324.28
498.08	327.80
498.44	331.48
498.80	335.39
499.17	339.38
499.53	343.50
499.89	347.87
500.26	352.29
500.62	356.97
500.98	361.90
501.34	366.94
501.71	372.26
502.07	377.67
502.43	383.28
502.79	389.10
503.16	395.18
503.52	401.41
503.88	407.87
504.24	414.46
504.60	421.36
504.97	428.48
505.33	435.78
505.69	443.50
506.05	451.25
506.41	459.22
506.78	467.39
507.14	475.85
507.50	484.57
507.86	493.65
508.22	502.89
508.59	512.14
508.95	521.78
509.31	531.58
509.67	541.73
510.03	552.04
510.39	562.51
510.75	573.40
511.12	584.39
511.48	595.70
511.84	607.20
512.20	618.79
512.56	630.74
512.92	642.91
513.28	655.22
513.64	667.75
514.00	680.46
514.37	693.42
514.73	706.54
515.09	719.57
515.45	732.87
515.81	746.40
516.17	760.44
516.53	774.53
516.89	788.68
517.25	802.76
517.61	817.18
517.97	831.74
518.33	846.11
518.69	860.95
519.05	875.95
519.41	891.15
519.77	906.68
520.13	922.15
520.49	937.61
520.85	953.16
521.21	968.91
521.57	985.13
521.93	1000.92
522.29	1017.39
522.65	1033.57
523.01	1049.82
523.37	1065.90
523.73	1082.10
524.09	1098.28
524.45	1114.69
524.81	1131.45
525.17	1148.32
525.53	1165.26
525.89	1182.28
526.25	1199.13
526.61	1215.54
526.97	1232.35
527.33	1248.83
527.68	1265.59
528.04	1282.18
528.40	1298.82
528.76	1315.89
529.12	1332.56
529.48	1349.59
529.84	1365.58
530.20	1382.41
530.56	1399.61
530.91	1417.15
531.27	1433.95
531.63	1450.49
531.99	1467.13
532.35	1483.19
532.71	1499.02
533.07	1515.28
533.42	1531.22
533.78	1547.27
534.14	1563.52
534.50	1578.95
534.86	1594.94
535.21	1610.11
535.57	1626.12
535.93	1641.71
536.29	1656.54
536.65	1671.62
537.00	1686.38
537.36	1701.85
537.72	1716.44
538.08	1730.81
538.44	1744.65
538.79	1758.62
539.15	1772.41
539.51	1786.24
539.87	1800.66
540.22	1814.68
540.58	1828.57
540.94	1841.97
541.29	1855.02
541.65	1868.02
542.01	1881.39
542.37	1893.70
542.72	1906.02
543.08	1917.87
543.44	1930.32
543.79	1941.73
544.15	1952.88
544.51	1964.38
544.87	1975.34
545.22	1986.14
545.58	1996.37
545.94	2006.11
546.29	2015.96
546.65	2025.63
547.01	2034.91
547.36	2043.75
547.72	2052.08
548.07	2059.95
548.43	2068.18
548.79	2076.22
549.14	2083.68
549.50	2090.96
549.86	2098.80
550.21	2106.42
550.57	2113.60
550.92	2120.16
551.28	2127.31
551.64	2134.28
551.99	2140.95
552.35	2147.10
552.70	2153.21
553.06	2159.25
553.41	2165.65
553.77	2171.76
554.13	2178.06
554.48	2184.19
554.84	2189.58
555.19	2195.04
555.55	2200.21
555.90	2204.50
556.26	2209.32
556.61	2214.08
556.97	2218.17
557.32	2222.38
557.68	2226.40
558.03	2230.61
558.39	2234.38
558.74	2238.88
559.10	2242.74
559.45	2246.29
559.81	2250.69
560.16	2254.59
560.52	2257.76
560.87	2261.28
561.23	2263.86
561.58	2266.77
561.94	2269.22
562.29	2271.78
562.64	2274.33
563.00	2276.95
563.35	2280.50
563.71	2283.54
564.06	2286.65
564.42	2289.50
564.77	2291.94
565.12	2294.15
565.48	2296.01
565.83	2297.79
566.19	2299.13
566.54	2300.11
566.89	2301.33
567.25	2301.80
567.60	2303.05
567.96	2304.64
568.31	2305.42
568.66	2306.47
569.02	2306.91
569.37	2307.27
569.72	2307.93
570.08	2308.00
570.43	2307.90
570.78	2307.18
571.14	2305.58
571.49	2304.17
571.84	2303.95
572.20	2302.60
572.55	2301.51
572.90	2299.95
573.26	2298.50
573.61	2296.74
573.96	2294.83
574.31	2291.77
574.67	2288.63
575.02	2284.95
575.37	2281.69
575.72	2277.78
576.08	2274.38
576.43	2270.93
576.78	2267.12
577.13	2263.83
577.49	2260.73
577.84	2257.22
578.19	2253.57
578.54	2249.88
578.90	2245.59
579.25	2239.88
579.60	2234.80
579.95	2229.74
580.30	2224.53
580.66	2219.31
581.01	2214.33
581.36	2209.27
581.71	2204.94
582.06	2200.43
582.42	2195.96
582.77	2190.49
583.12	2185.79
583.47	2180.87
583.82	2175.86
584.17	2170.40
584.53	2164.82
584.88	2159.03
585.23	2153.08
585.58	2147.51
585.93	2142.08
586.28	2137.26
586.63	2132.09
586.98	2126.98
587.34	2122.19
587.69	2117.34
588.04	2111.83
588.39	2105.89
588.74	2099.47
589.09	2093.32
589.44	2086.43
589.79	2080.16
590.14	2074.48
590.49	2067.77
590.84	2061.38
591.19	2055.31
591.54	2048.97
591.89	2041.46
592.25	2034.64
592.60	2027.46
592.95	2019.69
593.30	2012.23
593.65	2004.50
594.00	1997.58
594.35	1990.32
594.70	1982.13
595.05	1974.66
595.40	1967.45
595.75	1959.93
596.10	1953.49
596.45	1946.53
596.80	1940.43
597.15	1933.83
597.50	1926.67
597.85	1920.33
598.19	1913.57
598.54	1906.46
598.89	1899.84
599.24	1893.86
599.59	1887.17
599.94	1880.94
600.29	1874.65
600.64	1867.97
600.99	1860.51
601.34	1853.48
601.69	1846.43
602.04	1839.50
602.39	1832.14
602.74	1825.21
603.08	1818.45
603.43	1811.63
603.78	1804.41
604.13	1797.08
604.48	1789.74
604.83	1782.93
605.18	1775.83
605.53	1767.86
605.87	1759.64
606.22	1752.31
606.57	1744.30
606.92	1736.97
607.27	1729.75
607.62	1722.81
607.96	1715.48
608.31	1708.69
608.66	1701.03
609.01	1693.42
609.36	1685.90
609.70	1677.92
610.05	1669.83
610.40	1662.06
610.75	1653.87
611.10	1646.13
611.44	1637.75
611.79	1629.74
612.14	1620.95
612.49	1611.86
612.83	1603.58
613.18	1595.56
613.53	1587.39
613.88	1578.90
614.22	1570.55
614.57	1561.99
614.92	1553.90
615.27	1546.30
615.61	1538.11
615.96	1530.13
616.31	1522.53
616.65	1515.05
617.00	1507.53
617.35	1499.93
617.70	1491.50
618.04	1482.97
618.39	1474.83
618.74	1467.23
619.08	1458.96
619.43	1451.40
619.78	1444.28
620.12	1437.02
620.47	1429.50
620.82	1421.32
621.16	1414.05
621.51	1406.45
621.85	1398.86
622.20	1390.29
622.55	1381.98
622.89	1374.13
623.24	1366.43
623.59	1359.08
623.93	1351.65
624.28	1344.46
624.62	1336.91
624.97	1329.93
625.32	1323.21
625.66	1316.24
626.01	1308.89
626.35	1301.35
626.70	1293.61
627.04	1285.94
627.39	1278.26
627.73	1270.80
628.08	1263.92
628.43	1256.51
628.77	1249.05
629.12	1241.29
629.46	1234.18
629.81	1226.84
630.15	1219.61
630.50	1212.25
630.84	1204.00
631.19	1196.13
631.53	1188.66
631.88	1181.03
632.22	1173.31
632.57	1165.99
632.91	1158.41
633.26	1151.08
633.60	1143.70
633.95	1136.69
634.29	1129.77
634.64	1123.03
634.98	1115.70
635.32	1108.62
635.67	1102.00
636.01	1095.49
636.36	1088.79
636.70	1082.24
637.05	1075.63
637.39	1069.14
637.73	1062.66
638.08	1056.87
638.42	1050.84
638.77	1044.35
639.11	1037.85
639.45	1031.48
639.80	1024.84
640.14	1018.33
640.49	1011.82
640.83	1005.63
641.17	999.30
641.52	992.93
641.86	986.49
642.20	980.68
642.55	974.38
642.89	967.91
643.23	961.36
643.58	955.61
643.92	949.41
644.26	943.26
644.61	937.22
644.95	931.17
645.29	924.47
645.64	917.69
645.98	911.31
646.32	905.52
646.66	899.50
647.01	893.73
647.35	888.17
647.69	882.38
648.04	876.76
648.38	871.03
648.72	865.04
649.06	858.90
649.41	853.00
649.75	846.93
650.09	840.99
650.43	835.12
650.78	828.94
651.12	823.07
651.46	817.43
651.80	811.71
652.14	806.31
652.49	801.02
652.83	795.91
653.17	790.21
653.51	784.41
653.85	779.03
654.20	773.31
654.54	767.28
654.88	761.58
655.22	755.80
655.56	750.08
655.90	744.55
656.25	739.33
656.59	733.99
656.93	728.97
657.27	723.82
657.61	718.40
657.95	713.28
658.29	708.19
658.64	702.96
658.98	697.71
659.32	692.24
659.66	687.04
660.00	681.71
660.34	676.86
660.68	671.98
661.02	666.99
661.36	662.32
661.70	657.81
662.05	653.40
662.39	649.04
662.73	644.61
663.07	640.28
663.41	635.91
663.75	631.39
664.09	626.85
664.43	622.44
664.77	618.36
665.11	614.17
665.45	610.08
665.79	605.97
666.13	601.77
666.47	597.72
666.81	593.55
667.15	589.49
667.49	585.57
667.83	581.78
668.17	577.80
668.51	573.73
668.85	569.68
669.19	565.83
669.53	561.91
669.87	558.08
670.21	554.39
670.55	550.69
670.89	547.24
671.23	543.79
671.57	540.35
671.91	536.84
672.25	533.34
672.58	529.84
672.92	526.44
673.26	523.32
673.60	520.19
673.94	517.03
674.28	514.09
674.62	511.11
674.96	507.98
675.30	505.02
675.64	502.10
675.97	499.38
676.31	496.53
676.65	493.68
676.99	490.90
677.33	488.11
677.67	485.32
678.01	482.28
678.34	479.27
678.68	476.41
679.02	473.64
679.36	470.85
679.70	468.06
680.04	465.34
680.37	462.44
680.71	459.64
681.05	457.04
681.39	454.33
681.73	451.71
682.06	449.23
682.40	446.77
682.74	444.27
683.08	441.78
683.42	439.20
683.75	436.73
684.09	434.27
684.43	431.77
684.77	429.35
685.10	427.09
685.44	424.82
685.78	422.55
686.12	420.24
686.45	417.99
686.79	415.74
687.13	413.57
687.46	411.53
687.80	409.37
688.14	407.21
688.48	405.15
688.81	402.91
689.15	400.75
689.49	398.62
689.82	396.50
690.16	394.36
690.50	392.43
690.83	390.44
691.17	388.43
691.51	386.55
691.84	384.65
692.18	382.68
692.52	380.78
692.85	378.86
693.19	377.02
693.52	375.21
693.86	373.43
694.20	371.64
694.53	369.75
694.87	367.97
695.21	366.20
695.54	364.39
695.88	362.66
696.21	360.92
696.55	359.24
696.88	357.61
697.22	356.01
697.56	354.38
697.89	352.73
698.23	351.13
698.56	349.49
698.90	347.94
699.23	346.34
699.57	344.73
699.90	343.20
700.24	341.66
700.58	340.11
700.91	338.59
701.25	337.13
701.58	335.79
701.92	334.40
702.25	333.05
702.59	331.69
702.92	330.40
703.26	329.10
703.59	327.82
703.93	326.68
704.26	325.43
704.60	324.10
704.93	322.88
705.26	321.64
705.60	320.46
705.93	319.29
706.27	318.25
706.60	317.24
706.94	316.12
707.27	314.99
707.61	313.95
707.94	312.95
708.27	311.86
708.61	310.80
708.94	309.82
709.28	308.81
709.61	307.88
709.94	306.90
710.28	305.90
710.61	304.89
710.95	303.79
711.28	302.83
711.61	301.94
711.95	301.00
712.28	300.05
712.61	299.08
712.95	298.17
713.28	297.26
713.61	296.29
713.95	295.38
714.28	294.56
714.61	293.67
714.95	292.81
715.28	291.94
715.61	291.06
715.95	290.18
716.28	289.34
716.61	288.51
716.95	287.72
717.28	286.96
717.61	286.22
717.94	285.47
718.28	284.68
718.61	283.92
718.94	283.23
719.27	282.56
719.61	281.88
719.94	281.22
720.27	280.52
720.60	279.89
720.94	279.29
721.27	278.68
721.60	278.10
721.93	277.49
722.27	276.96
722.60	276.43
722.93	275.86
723.26	275.33
723.59	274.74
723.93	274.18
724.26	273.63
724.59	273.10
724.92	272.58
725.25	272.08
725.59	271.57
725.92	271.07
726.25	270.58
726.58	270.14
726.91	269.67
727.24	269.18
727.57	268.72
727.91	268.21
728.24	267.74
728.57	267.29
728.90	266.87
729.23	266.37
729.56	265.94
729.89	265.48
730.22	264.99
730.55	264.54
730.89	264.11
731.22	263.69
731.55	263.26
731.88	262.86
732.21	262.45
732.54	262.05
732.87	261.62
733.20	261.22
733.53	260.79
733.86	260.43
734.19	260.07
734.52	259.70
734.85	259.42
735.18	259.01
735.51	258.66
735.84	258.27
736.17	257.93
736.50	257.54
736.83	257.30
737.16	256.98
737.49	256.66
737.82	256.30
738.15	256.01
738.48	255.65
738.81	255.33
739.14	255.00
739.47	254.69
739.80	254.39
740.13	254.09
740.46	253.78
740.79	253.45
741.12	253.12
741.45	252.80
741.78	252.45
742.11	252.18
742.44	251.88
742.77	251.62
743.10	251.34
743.43	251.04
743.75	250.68
744.08	250.55
744.41	250.26
744.74	250.03
745.07	249.73
745.40	249.52
745.73	249.27
746.06	249.00
746.39	248.74
746.71	248.46
747.04	248.19
747.37	247.95
747.70	247.69
748.03	247.47
748.36	247.26
748.68	247.02
749.01	246.76
749.34	246.51
749.67	246.27
750.00	246.05
750.33	245.91
750.65	245.66
750.98	245.33
751.31	245.11
751.64	244.86
751.97	244.64
752.29	244.40
752.62	244.12
752.95	243.94
753.28	243.71
753.60	243.50
753.93	243.32
754.26	243.12
754.59	242.89
754.91	242.69
755.24	242.49
755.57	242.28
755.90	242.09
756.22	241.89
756.55	241.65
756.88	241.46
757.20	241.21
757.53	241.02
757.86	240.83
758.19	240.68
758.51	240.51
758.84	240.29
759.17	240.12
759.49	239.98
759.82	239.85
760.15	239.72
760.47	239.55
760.80	239.41
761.13	239.30
761.45	239.18
761.78	239.01
762.11	238.83
762.43	238.69
762.76	238.54
763.08	238.40
763.41	238.33
763.74	238.19
764.06	238.03
764.39	237.91
764.71	237.79
765.04	237.65
765.37	237.55
765.69	237.44
766.02	237.30
766.34	237.19
766.67	237.03
767.00	236.89
767.32	236.83
767.65	236.75
767.97	236.61
768.30	236.49
768.62	236.39
768.95	236.29
769.27	236.19
769.60	236.13
769.92	235.98
770.25	235.82
770.57	235.70
770.90	235.61
771.22	235.51
771.55	235.37
771.87	235.27
772.20	235.16
772.52	235.14
772.85	235.17
773.17	235.07
773.50	235.00
773.82	234.93
774.15	234.81
774.47	234.68
774.80	234.56
775.12	234.47
775.45	234.41
775.77	234.32
776.09	234.22
776.42	234.10
776.74	234.09
777.07	234.03
777.39	233.96
777.72	233.87
778.04	233.81
778.36	233.75
778.69	233.71
779.01	233.65
779.33	233.52
779.66	233.34
779.98	233.27
780.31	233.20
780.63	233.15
780.95	233.09
781.28	233.04
781.60	232.99
781.92	232.94
782.25	232.85
782.57	232.79
782.89	232.72
783.22	232.67
783.54	232.60
783.86	232.55
784.19	232.49
784.51	232.48
784.83	232.44
785.16	232.41
785.48	232.37
785.80	232.32
786.12	232.28
786.45	232.23
786.77	232.20
787.09	232.15
787.42	232.09
787.74	232.04
788.06	231.96
788.38	231.90
788.71	231.82
789.03	231.80
789.35	231.78
789.67	231.75
789.99	231.74
790.32	231.67
790.64	231.64
790.96	231.66
791.28	231.56
791.61	231.49
791.93	231.44
792.25	231.37
792.57	231.39
792.89	231.32
793.21	231.28
793.54	231.24
793.86	231.18
794.18	231.14
794.50	231.09
794.82	231.06
795.14	231.04
795.47	231.02
795.79	230.98
796.11	230.90
796.43	230.87
796.75	230.82
797.07	230.80
797.39	230.75
797.71	230.66
798.04	230.63
798.36	230.60
798.68	230.53
799.00	230.50
799.32	230.40
799.64	230.41
799.96	230.37
800.28	230.33
800.60	230.28
800.92	230.26
801.24	230.24
801.56	230.20
801.89	230.17
802.21	230.14
802.53	230.08
802.85	230.08
803.17	230.09
803.49	230.04
803.81	229.96
804.13	229.95
804.45	229.92
804.77	229.91
805.09	229.89
805.41	229.86
805.73	229.82
806.05	229.80
806.37	229.78
806.69	229.77
807.01	229.72
807.33	229.70
807.65	229.63
807.97	229.63
808.28	229.60
808.60	229.57
808.92	229.56
809.24	229.59
809.56	229.54
809.88	229.49
810.20	229.48
810.52	229.50
810.84	229.44
811.16	229.40
811.48	229.35
811.80	229.36
812.12	229.34
812.43	229.33
812.75	229.30
813.07	229.24
813.39	229.20
813.71	229.17
814.03	229.15
814.35	229.13
814.67	229.09
814.98	229.05
815.30	228.99
815.62	228.95
815.94	228.90
816.26	228.96
816.58	228.95
816.89	228.94
817.21	228.90
817.53	228.92
817.85	228.91
818.17	228.93
818.48	228.89
818.80	228.90
819.12	228.92
819.44	228.88
819.76	228.88
820.07	228.87
820.39	228.86
820.71	228.84
821.03	228.85
821.34	228.82
821.66	228.85
821.98	228.87
822.30	228.85
822.61	228.91
822.93	228.81
823.25	228.80
823.57	228.75
823.88	228.73
824.20	228.72
824.52	228.74
824.83	228.72
825.15	228.67
825.47	228.64
825.79	228.61
826.10	228.59
826.42	228.59
826.74	228.59
827.05	228.57
827.37	228.55
827.69	228.52
828.00	228.51
828.32	228.50
828.64	228.49
828.95	228.52
829.27	228.44
829.58	228.45
829.90	228.45
830.22	228.46
830.53	228.44
830.85	228.44
831.17	228.40
831.48	228.40
831.80	228.39
832.11	228.39
832.43	228.32
832.75	228.32
833.06	228.33
833.38	228.27
833.69	228.24
834.01	228.25
834.32	228.25
834.64	228.21
834.96	228.21
835.27	228.20
835.59	228.14
835.90	228.12
836.22	228.11
836.53	228.05
836.85	228.02
837.16	228.09
837.48	228.05
837.79	228.02
838.11	227.99
838.42	227.96
838.74	227.95
839.05	227.97
839.37	227.95
839.68	227.90
840.00	227.93
840.31	227.94
840.63	227.95
840.94	227.91
841.26	227.91
841.57	227.88
841.88	227.88
842.20	227.88
842.51	227.86
842.83	227.87
843.14	227.98
843.46	227.95
843.77	227.89
844.08	227.87
844.40	227.89
844.71	227.89
845.03	227.91
845.34	227.89
845.65	227.93
845.97	227.92
846.28	227.95
846.60	227.93
846.91	227.93
847.22	227.92
847.54	227.96
847.85	227.95
848.16	227.93
848.48	227.91
848.79	227.92
849.10	227.90
849.42	227.87
849.73	227.78
850.04	227.80
850.36	227.78
850.67	227.79
850.98	227.79
851.30	227.79
851.61	227.78
851.92	227.79
852.23	227.79
852.55	227.79
852.86	227.75
853.17	227.77
853.49	227.78
853.80	227.78
854.11	227.79
854.42	227.77
854.74	227.77
855.05	227.80
855.36	227.76
855.67	227.77
855.99	227.81
856.30	227.88
856.61	227.88
856.92	227.89
857.23	227.90
857.55	227.87
857.86	227.86
858.17	227.90
858.48	227.86
858.79	227.83
859.11	227.85
859.42	227.85
859.73	227.83
860.04	227.84
860.35	227.79
860.66	227.74
860.98	227.77
861.29	227.80
861.60	227.77
861.91	227.81
862.22	227.80
862.53	227.78
862.84	227.70
863.16	227.70
863.47	227.68
863.78	227.65
864.09	227.68
864.40	227.68
864.71	227.64
865.02	227.64
865.33	227.58
865.64	227.54
865.95	227.56
866.27	227.64
866.58	227.60
866.89	227.64
867.20	227.66
867.51	227.62
867.82	227.58
868.13	227.64
868.44	227.58
868.75	227.59
869.06	227.59
869.37	227.57
869.68	227.56
869.99	227.56
870.30	227.55
870.61	227.54
870.92	227.50
871.23	227.51
871.54	227.53
871.85	227.57
872.16	227.60
872.47	227.58
872.78	227.52
873.09	227.53
873.40	227.48
873.71	227.45
874.02	227.44
874.33	227.46
874.64	227.40
874.95	227.41
875.26	227.39
875.56	227.38
875.87	227.38
876.18	227.36
876.49	227.45
876.80	227.47
877.11	227.44
877.42	227.48
877.73	227.46
878.04	227.43
878.35	227.42
878.66	227.40
878.96	227.39
879.27	227.35
879.58	227.33
879.89	227.34
880.20	227.36
880.51	227.37
880.82	227.38
881.12	227.39
881.43	227.37
881.74	227.35
882.05	227.33
882.36	227.32
882.67	227.33
882.97	227.22
883.28	227.18
883.59	227.18
883.90	227.20
884.21	227.24
884.51	227.24
884.82	227.22
885.13	227.24
885.44	227.25
885.74	227.24
886.05	227.25
886.36	227.25
886.67	227.25
886.98	227.29
887.28	227.27
887.59	227.27
887.90	227.28
888.20	227.27
888.51	227.27
888.82	227.26
889.13	227.29
889.43	227.37
889.74	227.37
890.05	227.35
890.35	227.29
890.66	227.29
890.97	227.28
891.28	227.29
891.58	227.31
891.89	227.27
892.20	227.32
892.50	227.32
892.81	227.31
893.12	227.30
893.42	227.26
893.73	227.30
894.04	227.31
894.34	227.32
894.65	227.34
894.95	227.36
895.26	227.41
895.57	227.42
895.87	227.36
896.18	227.38
896.48	227.41
896.79	227.41
897.10	227.44
897.40	227.46
897.71	227.50
898.01	227.47
898.32	227.52
898.63	227.47
898.93	227.45
899.24	227.50
899.54	227.52
899.85	227.52
900.15	227.51
900.46	227.52
900.76	227.53
901.07	227.54
901.38	227.53
901.68	227.53
901.99	227.50
902.29	227.49
902.60	227.49
902.90	227.49
903.21	227.49
903.51	227.48
903.82	227.49
904.12	227.50
904.43	227.49
904.73	227.47
905.03	227.53
905.34	227.66
905.64	227.63
905.95	227.64
906.25	227.66
906.56	227.63
906.86	227.62
907.17	227.61
907.47	227.60
907.77	227.57
908.08	227.54
908.38	227.54
908.69	227.56
908.99	227.57
909.30	227.57
909.60	227.57
909.90	227.55
910.21	227.52
910.51	227.48
910.81	227.50
911.12	227.48
911.42	227.44
911.73	227.34
912.03	227.33
912.33	227.34
912.64	227.32
912.94	227.31
913.24	227.30
913.55	227.27
913.85	227.25
914.15	227.29
914.46	227.31
914.76	227.29
915.06	227.29
915.37	227.26
915.67	227.24
915.97	227.26
916.27	227.24
916.58	227.25
916.88	227.27
917.18	227.21
917.49	227.29
917.79	227.27
918.09	227.24
918.39	227.29
918.70	227.24
919.00	227.23
919.30	227.27
919.60	227.24
919.91	227.27
920.21	227.28
920.51	227.25
920.81	227.21
921.12	227.26
921.42	227.26
921.72	227.26
922.02	227.25
922.32	227.22
922.63	227.19
922.93	227.22
923.23	227.20
923.53	227.23
923.83	227.19
924.13	227.20
924.44	227.20
924.74	227.17
925.04	227.18
925.34	227.17
925.64	227.15
925.94	227.14
926.24	227.15
926.55	227.15
926.85	227.15
927.15	227.14
927.45	227.12
927.75	227.08
928.05	227.07
928.35	227.08
928.65	227.10
928.95	227.11
929.26	227.07
929.56	227.07
929.86	227.09
930.16	227.05
930.46	227.05
930.76	227.06
931.06	227.02
931.36	227.05
931.66	227.09
931.96	227.09
932.26	227.12
932.56	227.10
932.86	227.10
933.16	227.10
933.46	227.14
933.76	227.12
934.06	227.15
934.36	227.22
934.66	227.22
934.96	227.25
935.26	227.30
935.56	227.33
935.86	227.36
936.16	227.36
936.46	227.35
936.76	227.37
937.06	227.38
937.36	227.37
937.66	227.36
937.96	227.36
938.26	227.36
938.56	227.34
938.86	227.34
939.16	227.36
939.46	227.39
939.76	227.37
940.06	227.37
940.35	227.37
940.65	227.32
940.95	227.33
941.25	227.30
941.55	227.26
941.85	227.28
942.15	227.30
942.45	227.32
942.75	227.34
943.04	227.37
943.34	227.39
943.64	227.42
943.94	227.40
944.24	227.39
944.54	227.38
944.84	227.38
945.13	227.40
945.43	227.40
945.73	227.39
946.03	227.37
946.33	227.36
946.62	227.38
946.92	227.34
947.22	227.35
947.52	227.35
947.82	227.35
948.11	227.29
948.41	227.25
948.71	227.23
949.01	227.24
949.31	227.20
949.60	227.17
949.90	227.19
950.20	227.17
950.50	227.13
950.79	227.15
951.09	227.16
951.39	227.14
951.69	227.12
951.98	227.12
952.28	227.14
952.58	227.13
952.87	227.12
953.17	227.17
953.47	227.15
953.76	227.15
954.06	227.15
954.36	227.15
954.66	227.12
954.95	227.11
955.25	227.08
955.55	227.06
955.84	227.04
956.14	227.00
956.44	227.02
956.73	227.05
957.03	227.02
957.32	227.02
957.62	227.03
957.92	227.05
958.21	227.03
958.51	227.11
958.81	227.15
959.10	227.11
959.40	227.07
959.69	227.04
959.99	227.03
960.29	227.02
960.58	227.02
960.88	227.07
961.17	227.06
961.47	227.07
961.76	227.07
962.06	227.08
962.36	227.07
962.65	227.08
962.95	227.07
963.24	227.09
963.54	227.08
963.83	227.05
964.13	227.04
964.42	227.05
964.72	227.01
965.01	226.99
965.31	227.00
965.60	227.00
965.90	227.08
966.19	227.06
966.49	227.07
966.78	227.07
967.08	227.04
967.37	227.05
967.67	227.05
967.96	227.04
968.26	227.06
968.55	227.11
968.85	227.10
969.14	227.06
969.43	227.05
969.73	227.06
970.02	227.06
970.32	227.08
970.61	227.04
970.91	227.02
971.20	227.03
971.49	227.03
971.79	227.03
972.08	227.00
972.38	227.02
972.67	227.03
972.96	227.07
973.26	227.07
973.55	227.11
973.85	227.11
974.14	227.14
974.43	227.17
974.73	227.15
975.02	227.13
975.31	227.16
975.61	227.15
975.90	227.13
976.19	227.16
976.49	227.15
976.78	227.20
977.07	227.18
977.37	227.17
977.66	227.19
977.95	227.21
978.24	227.22
978.54	227.26
978.83	227.26
979.12	227.28
979.42	227.29
979.71	227.27
980.00	227.23
980.29	227.24
980.59	227.20
980.88	227.23
981.17	227.25
981.46	227.27
981.76	227.25
982.05	227.29
982.34	227.28
982.63	227.29
982.93	227.29
983.22	227.31
983.51	227.35
983.80	227.41
984.09	227.42
984.39	227.39
984.68	227.35
984.97	227.31
985.26	227.26
985.55	227.26
985.85	227.23
986.14	227.27
986.43	227.28
986.72	227.27
987.01	227.24
987.30	227.23
987.59	227.20
987.89	227.23
988.18	227.23
988.47	227.24
988.76	227.22
989.05	227.18
989.34	227.17
989.63	227.15
989.92	227.11
990.22	227.08
990.51	227.06
990.80	227.09
991.09	227.11
991.38	227.14
991.67	227.12
991.96	227.11
992.25	227.11
992.54	227.07
992.83	227.08
993.12	227.06
993.41	227.08
993.70	227.12
993.99	227.11
994.28	227.09
994.58	227.10
994.87	227.09
995.16	227.10
995.45	227.06
995.74	227.01
996.03	227.00
996.32	227.00
996.61	227.05
996.90	227.02
997.19	227.00
997.48	226.99
997.77	226.99
998.06	226.99
998.34	226.97
998.63	226.98
998.92	226.97
999.21	226.99
999.50	226.97
999.79	226.93
1000.08	226.94
1000.37	226.97
1000.66	226.93
1000.95	226.92
1001.24	226.93
1001.53	226.96
1001.82	226.97
1002.11	226.94
1002.40	226.94
1002.68	226.95
1002.97	227.02
1003.26	227.00
1003.55	226.99
1003.84	227.00
1004.13	227.04
1004.42	227.02
1004.71	226.99
1004.99	226.95
1005.28	226.97
1005.57	226.98
1005.86	226.94
1006.15	226.93
1006.44	226.88
1006.72	226.92
1007.01	226.93
1007.30	226.90
1007.59	226.92
1007.88	226.88
1008.17	226.88
1008.45	226.86
1008.74	226.85
1009.03	226.78
1009.32	226.78
1009.60	226.77
1009.89	226.74
1010.18	226.69
1010.47	226.73
1010.76	226.76
1011.04	226.78
1011.33	226.75
1011.62	226.78
1011.91	226.82
1012.19	226.84
1012.48	226.86
1012.77	226.85
1013.05	226.91
1013.34	226.89
1013.63	226.90
1013.92	226.95
1014.20	226.96
1014.49	226.98
1014.78	226.98
1015.06	226.97
1015.35	226.98
1015.64	226.99
1015.92	227.01
1016.21	227.03
1016.50	227.05
1016.78	227.06
1017.07	227.07
1017.36	227.08
1017.64	227.05
1017.93	227.05
1018.22	227.02
1018.50	227.01
1018.79	227.01
1019.08	226.95
1019.36	226.97
1019.65	226.95
1019.93	226.99
1020.22	226.98
1020.51	227.06
1020.79	227.05
1021.08	226.55
1021.36	226.88
1021.65	226.94
1021.94	227.01
1022.22	226.78
1022.51	226.78
1022.79	228.00
1023.08	226.79
1023.36	228.76
1023.65	226.88
>>>>>End Processed Spectral Data<<<<<
