SpectraSuite Data File
++++++++++++++++++++++++++++++++++++
Date: Fri Feb 01 16:06:01 EST 2013
User: group
Dark Spectrum Present: No
Reference Spectrum Present: No
Number of Sampled Component Spectra: 1
Spectrometers: USB2E7196
Integration Time (usec): 35000 (USB2E7196)
Spectra Averaged: 100 (USB2E7196)
Boxcar Smoothing: 10 (USB2E7196)
Correct for Electrical Dark: No (USB2E7196)
Strobe/Lamp Enabled: No (USB2E7196)
Correct for Detector Non-linearity: No (USB2E7196)
Correct for Stray Light: No (USB2E7196)
Number of Pixels in Processed Spectrum: 2048
>>>>>Begin Processed Spectral Data<<<<<
339.09	0.00
339.48	214.47
339.86	215.75
340.24	217.47
340.63	218.84
341.01	221.54
341.39	220.90
341.78	223.34
342.16	224.09
342.54	224.80
342.93	213.01
343.31	223.80
343.69	224.33
344.07	224.80
344.46	225.23
344.84	225.60
345.22	225.84
345.60	226.12
345.99	226.28
346.37	226.42
346.75	226.54
347.13	226.59
347.52	226.63
347.90	226.70
348.28	226.72
348.66	226.80
349.05	226.80
349.43	226.83
349.81	226.88
350.19	226.89
350.57	226.95
350.96	227.01
351.34	227.06
351.72	227.17
352.10	227.28
352.48	227.36
352.87	227.42
353.25	227.47
353.63	227.52
354.01	227.59
354.39	227.66
354.77	227.72
355.15	227.84
355.54	227.95
355.92	227.94
356.30	228.02
356.68	228.12
357.06	228.18
357.44	228.19
357.82	228.24
358.20	228.32
358.58	228.38
358.97	228.46
359.35	228.53
359.73	228.60
360.11	228.65
360.49	228.68
360.87	228.74
361.25	228.80
361.63	228.90
362.01	228.91
362.39	228.95
362.77	228.99
363.15	228.97
363.53	228.99
363.91	229.06
364.29	229.09
364.67	229.02
365.05	229.04
365.43	229.11
365.81	229.14
366.19	229.20
366.57	229.23
366.95	229.21
367.33	229.16
367.71	229.13
368.09	229.12
368.47	229.09
368.85	229.07
369.23	229.05
369.61	229.01
369.99	229.03
370.37	229.03
370.75	229.02
371.13	229.00
371.51	228.94
371.89	228.89
372.27	228.84
372.65	228.79
373.03	228.73
373.41	228.62
373.78	228.54
374.16	228.43
374.54	228.33
374.92	228.27
375.30	228.22
375.68	228.13
376.06	228.08
376.44	228.00
376.82	227.91
377.19	227.85
377.57	227.75
377.95	227.65
378.33	227.57
378.71	227.44
379.09	227.38
379.47	227.35
379.84	227.25
380.22	227.17
380.60	227.08
380.98	227.05
381.36	227.01
381.73	226.95
382.11	226.91
382.49	226.85
382.87	226.78
383.25	226.70
383.62	226.77
384.00	226.70
384.38	226.67
384.76	226.66
385.13	226.62
385.51	226.56
385.89	226.53
386.27	226.47
386.64	226.44
387.02	226.39
387.40	226.33
387.78	226.29
388.15	226.24
388.53	226.19
388.91	226.14
389.29	226.11
389.66	226.10
390.04	226.06
390.42	226.06
390.79	226.07
391.17	226.08
391.55	225.95
391.92	225.92
392.30	225.90
392.68	225.87
393.05	225.92
393.43	225.93
393.81	225.93
394.18	225.90
394.56	225.91
394.94	225.91
395.31	225.91
395.69	225.97
396.06	226.03
396.44	226.06
396.82	226.09
397.19	226.18
397.57	226.21
397.95	226.26
398.32	226.31
398.70	226.33
399.07	226.39
399.45	226.47
399.82	226.56
400.20	226.63
400.58	226.71
400.95	226.72
401.33	226.82
401.70	226.96
402.08	227.09
402.45	227.18
402.83	227.34
403.20	227.45
403.58	227.55
403.95	227.70
404.33	227.83
404.71	227.93
405.08	228.08
405.46	228.25
405.83	228.41
406.21	228.56
406.58	228.75
406.96	228.92
407.33	229.09
407.70	229.29
408.08	229.55
408.45	229.78
408.83	229.99
409.20	230.23
409.58	230.39
409.95	230.65
410.33	230.93
410.70	231.17
411.08	231.49
411.45	231.80
411.82	232.10
412.20	232.48
412.57	232.91
412.95	233.22
413.32	233.65
413.69	234.04
414.07	234.47
414.44	234.91
414.82	235.41
415.19	235.94
415.56	236.47
415.94	237.02
416.31	237.65
416.68	238.33
417.06	238.99
417.43	239.71
417.81	240.45
418.18	241.22
418.55	242.05
418.93	242.94
419.30	243.84
419.67	244.74
420.04	245.70
420.42	246.68
420.79	247.88
421.16	249.00
421.54	250.16
421.91	251.35
422.28	252.62
422.66	253.94
423.03	255.26
423.40	256.59
423.77	257.99
424.15	259.41
424.52	260.83
424.89	262.49
425.26	264.04
425.64	265.48
426.01	267.07
426.38	268.67
426.75	270.32
427.13	272.05
427.50	273.92
427.87	275.76
428.24	277.63
428.61	279.33
428.99	281.27
429.36	283.38
429.73	285.44
430.10	287.45
430.47	289.49
430.85	291.63
431.22	293.86
431.59	296.25
431.96	298.47
432.33	301.00
432.70	303.34
433.08	306.17
433.45	308.83
433.82	311.45
434.19	314.41
434.56	317.21
434.93	319.86
435.30	322.44
435.68	325.33
436.05	328.14
436.42	330.95
436.79	333.41
437.16	336.11
437.53	338.93
437.90	341.74
438.27	344.49
438.64	347.28
439.01	349.90
439.38	352.15
439.75	354.34
440.13	356.80
440.50	359.12
440.87	360.92
441.24	362.84
441.61	364.99
441.98	366.45
442.35	368.21
442.72	370.04
443.09	371.87
443.46	372.86
443.83	373.44
444.20	373.94
444.57	374.82
444.94	375.13
445.31	375.45
445.68	375.80
446.05	375.91
446.42	375.53
446.79	375.07
447.16	374.63
447.53	374.33
447.90	373.16
448.27	372.02
448.64	370.43
449.01	369.28
449.37	367.34
449.74	365.42
450.11	363.20
450.48	360.76
450.85	358.20
451.22	356.07
451.59	354.06
451.96	352.14
452.33	349.54
452.70	347.15
453.07	344.36
453.43	341.48
453.80	338.70
454.17	336.07
454.54	333.54
454.91	330.80
455.28	328.10
455.65	325.63
456.02	323.22
456.38	321.13
456.75	318.51
457.12	316.27
457.49	314.09
457.86	311.92
458.23	310.08
458.59	308.01
458.96	305.94
459.33	304.11
459.70	302.22
460.07	300.73
460.43	299.07
460.80	297.47
461.17	296.01
461.54	294.52
461.91	293.10
462.27	291.66
462.64	290.43
463.01	289.09
463.38	287.82
463.74	286.41
464.11	285.24
464.48	284.22
464.85	283.11
465.21	282.24
465.58	281.34
465.95	280.23
466.32	279.35
466.68	278.46
467.05	277.56
467.42	276.70
467.78	275.76
468.15	274.85
468.52	274.20
468.88	273.35
469.25	272.54
469.62	271.89
469.98	271.24
470.35	270.61
470.72	270.01
471.08	269.36
471.45	268.82
471.82	268.27
472.18	267.66
472.55	267.19
472.92	266.63
473.28	266.15
473.65	265.69
474.02	265.27
474.38	264.90
474.75	264.54
475.11	264.20
475.48	263.96
475.85	263.73
476.21	263.45
476.58	263.28
476.94	263.14
477.31	262.95
477.67	262.77
478.04	262.66
478.41	262.60
478.77	262.60
479.14	262.56
479.50	262.56
479.87	262.64
480.23	262.71
480.60	262.82
480.96	262.94
481.33	263.17
481.69	263.35
482.06	263.55
482.42	263.73
482.79	264.02
483.15	264.33
483.52	264.74
483.88	265.09
484.25	265.46
484.61	265.91
484.98	266.36
485.34	266.94
485.71	267.53
486.07	268.15
486.44	268.71
486.80	269.42
487.17	270.16
487.53	270.98
487.90	271.83
488.26	272.73
488.62	273.73
488.99	274.65
489.35	275.73
489.72	276.83
490.08	278.05
490.44	279.25
490.81	280.59
491.17	281.93
491.54	283.41
491.90	284.95
492.26	286.62
492.63	288.38
492.99	290.14
493.36	292.05
493.72	294.07
494.08	296.24
494.45	298.46
494.81	300.88
495.17	303.30
495.54	305.88
495.90	308.59
496.26	311.37
496.63	314.40
496.99	317.49
497.35	320.78
497.72	324.19
498.08	327.71
498.44	331.39
498.80	335.31
499.17	339.38
499.53	343.58
499.89	347.98
500.26	352.50
500.62	357.23
500.98	362.20
501.34	367.31
501.71	372.64
502.07	378.10
502.43	383.66
502.79	389.48
503.16	395.57
503.52	401.83
503.88	408.28
504.24	414.84
504.60	421.75
504.97	428.88
505.33	436.24
505.69	443.99
506.05	451.77
506.41	459.70
506.78	467.85
507.14	476.28
507.50	485.01
507.86	494.05
508.22	503.23
508.59	512.43
508.95	522.04
509.31	531.81
509.67	541.99
510.03	552.36
510.39	562.93
510.75	573.73
511.12	584.69
511.48	596.00
511.84	607.45
512.20	618.99
512.56	630.93
512.92	643.06
513.28	655.37
513.64	667.81
514.00	680.51
514.37	693.42
514.73	706.52
515.09	719.55
515.45	732.79
515.81	746.37
516.17	760.37
516.53	774.48
516.89	788.68
517.25	802.79
517.61	817.11
517.97	831.54
518.33	845.96
518.69	860.75
519.05	875.70
519.41	890.87
519.77	906.42
520.13	921.79
520.49	937.14
520.85	952.52
521.21	968.17
521.57	984.46
521.93	1000.21
522.29	1016.58
522.65	1032.83
523.01	1049.07
523.37	1065.08
523.73	1081.24
524.09	1097.19
524.45	1113.37
524.81	1129.99
525.17	1146.88
525.53	1163.78
525.89	1180.54
526.25	1197.33
526.61	1213.75
526.97	1230.50
527.33	1246.85
527.68	1263.59
528.04	1280.03
528.40	1296.52
528.76	1313.61
529.12	1330.10
529.48	1346.93
529.84	1362.83
530.20	1379.38
530.56	1396.27
530.91	1413.71
531.27	1430.41
531.63	1446.94
531.99	1463.54
532.35	1479.58
532.71	1495.34
533.07	1511.56
533.42	1527.47
533.78	1543.50
534.14	1559.55
534.50	1574.76
534.86	1590.65
535.21	1605.65
535.57	1621.53
535.93	1636.98
536.29	1651.78
536.65	1666.72
537.00	1681.59
537.36	1696.85
537.72	1711.39
538.08	1725.82
538.44	1739.44
538.79	1753.17
539.15	1766.69
539.51	1780.40
539.87	1794.64
540.22	1808.33
540.58	1821.92
540.94	1835.24
541.29	1848.10
541.65	1860.84
542.01	1874.11
542.37	1886.37
542.72	1898.87
543.08	1910.72
543.44	1923.17
543.79	1934.41
544.15	1945.51
544.51	1956.96
544.87	1967.86
545.22	1978.59
545.58	1988.80
545.94	1998.55
546.29	2008.39
546.65	2018.29
547.01	2027.63
547.36	2036.16
547.72	2044.59
548.07	2052.49
548.43	2060.55
548.79	2068.57
549.14	2076.05
549.50	2083.26
549.86	2090.92
550.21	2098.06
550.57	2105.22
550.92	2111.89
551.28	2118.76
551.64	2125.74
551.99	2132.29
552.35	2138.36
552.70	2144.47
553.06	2150.36
553.41	2156.71
553.77	2162.77
554.13	2168.79
554.48	2174.84
554.84	2180.43
555.19	2185.71
555.55	2190.82
555.90	2195.39
556.26	2200.24
556.61	2205.03
556.97	2209.35
557.32	2213.37
557.68	2217.60
558.03	2221.79
558.39	2225.40
558.74	2230.16
559.10	2233.90
559.45	2237.55
559.81	2242.05
560.16	2245.88
560.52	2249.20
560.87	2252.73
561.23	2255.41
561.58	2258.52
561.94	2261.01
562.29	2263.45
562.64	2266.08
563.00	2268.70
563.35	2272.18
563.71	2275.27
564.06	2278.55
564.42	2281.47
564.77	2284.10
565.12	2286.35
565.48	2288.29
565.83	2290.16
566.19	2291.38
566.54	2292.47
566.89	2293.58
567.25	2294.15
567.60	2295.54
567.96	2297.19
568.31	2297.87
568.66	2299.03
569.02	2299.48
569.37	2299.84
569.72	2300.61
570.08	2300.96
570.43	2301.02
570.78	2300.46
571.14	2298.88
571.49	2297.50
571.84	2297.14
572.20	2296.07
572.55	2295.03
572.90	2293.54
573.26	2292.17
573.61	2290.49
573.96	2288.68
574.31	2285.72
574.67	2282.63
575.02	2278.94
575.37	2275.65
575.72	2271.83
576.08	2268.38
576.43	2265.05
576.78	2261.41
577.13	2258.28
577.49	2254.99
577.84	2251.50
578.19	2247.88
578.54	2244.29
578.90	2240.03
579.25	2234.60
579.60	2229.59
579.95	2224.61
580.30	2219.58
580.66	2214.39
581.01	2209.56
581.36	2204.60
581.71	2200.46
582.06	2196.08
582.42	2191.63
582.77	2186.27
583.12	2181.93
583.47	2177.39
583.82	2172.48
584.17	2167.24
584.53	2161.74
584.88	2156.21
585.23	2150.49
585.58	2144.98
585.93	2139.49
586.28	2134.75
586.63	2129.65
586.98	2124.69
587.34	2120.06
587.69	2115.21
588.04	2110.05
588.39	2104.41
588.74	2097.97
589.09	2091.85
589.44	2085.14
589.79	2079.10
590.14	2073.55
590.49	2066.94
590.84	2060.48
591.19	2054.52
591.54	2048.00
591.89	2040.64
592.25	2033.81
592.60	2026.66
592.95	2019.04
593.30	2011.85
593.65	2004.16
594.00	1997.24
594.35	1989.89
594.70	1981.80
595.05	1974.64
595.40	1967.37
595.75	1959.75
596.10	1953.77
596.45	1946.94
596.80	1940.79
597.15	1934.21
597.50	1927.24
597.85	1920.73
598.19	1914.19
598.54	1907.08
598.89	1900.42
599.24	1894.56
599.59	1887.96
599.94	1881.70
600.29	1875.44
600.64	1868.84
600.99	1861.45
601.34	1854.51
601.69	1847.66
602.04	1840.78
602.39	1833.41
602.74	1826.57
603.08	1819.90
603.43	1813.04
603.78	1805.73
604.13	1798.43
604.48	1791.17
604.83	1784.19
605.18	1777.26
605.53	1769.18
605.87	1761.17
606.22	1754.00
606.57	1746.09
606.92	1738.80
607.27	1731.66
607.62	1724.68
607.96	1717.43
608.31	1710.95
608.66	1703.42
609.01	1695.80
609.36	1688.30
609.70	1680.16
610.05	1672.17
610.40	1664.51
610.75	1656.21
611.10	1648.62
611.44	1640.19
611.79	1632.16
612.14	1623.50
612.49	1614.39
612.83	1606.10
613.18	1597.96
613.53	1589.91
613.88	1581.27
614.22	1573.00
614.57	1564.38
614.92	1556.44
615.27	1548.83
615.61	1540.32
615.96	1532.14
616.31	1524.55
616.65	1517.12
617.00	1509.64
617.35	1501.90
617.70	1493.54
618.04	1484.96
618.39	1476.79
618.74	1469.26
619.08	1460.97
619.43	1453.45
619.78	1446.56
620.12	1439.27
620.47	1431.73
620.82	1423.49
621.16	1416.10
621.51	1408.45
621.85	1400.84
622.20	1392.30
622.55	1383.88
622.89	1376.18
623.24	1368.65
623.59	1361.35
623.93	1353.74
624.28	1346.51
624.62	1338.99
624.97	1331.81
625.32	1324.96
625.66	1317.91
626.01	1310.81
626.35	1303.38
626.70	1295.59
627.04	1287.84
627.39	1280.20
627.73	1272.78
628.08	1265.96
628.43	1258.65
628.77	1251.23
629.12	1243.68
629.46	1236.48
629.81	1229.09
630.15	1221.83
630.50	1214.35
630.84	1206.02
631.19	1198.15
631.53	1190.63
631.88	1183.01
632.22	1175.44
632.57	1168.25
632.91	1160.63
633.26	1153.15
633.60	1145.79
633.95	1138.70
634.29	1131.64
634.64	1124.84
634.98	1117.49
635.32	1110.27
635.67	1103.74
636.01	1097.12
636.36	1090.32
636.70	1083.84
637.05	1077.27
637.39	1070.83
637.73	1064.39
638.08	1058.52
638.42	1052.50
638.77	1046.09
639.11	1039.62
639.45	1033.25
639.80	1026.62
640.14	1020.24
640.49	1013.71
640.83	1007.36
641.17	1001.14
641.52	994.80
641.86	988.33
642.20	982.50
642.55	976.25
642.89	969.75
643.23	963.19
643.58	957.48
643.92	951.26
644.26	945.25
644.61	939.16
644.95	933.18
645.29	926.59
645.64	919.90
645.98	913.56
646.32	907.65
646.66	901.62
647.01	895.67
647.35	890.04
647.69	884.15
648.04	878.65
648.38	872.80
648.72	866.79
649.06	860.79
649.41	854.89
649.75	848.91
650.09	843.02
650.43	837.23
650.78	831.05
651.12	825.13
651.46	819.42
651.80	813.71
652.14	808.17
652.49	802.77
652.83	797.57
653.17	791.85
653.51	786.13
653.85	780.66
654.20	775.05
654.54	768.99
654.88	763.27
655.22	757.32
655.56	751.67
655.90	746.20
656.25	740.91
656.59	735.52
656.93	730.36
657.27	725.14
657.61	719.67
657.95	714.51
658.29	709.38
658.64	704.10
658.98	698.80
659.32	693.43
659.66	688.26
660.00	682.97
660.34	678.03
660.68	673.10
661.02	668.03
661.36	663.39
661.70	658.90
662.05	654.53
662.39	650.22
662.73	645.69
663.07	641.33
663.41	636.86
663.75	632.40
664.09	627.87
664.43	623.49
664.77	619.38
665.11	615.16
665.45	611.02
665.79	606.91
666.13	602.77
666.47	598.60
666.81	594.39
667.15	590.28
667.49	586.34
667.83	582.49
668.17	578.62
668.51	574.49
668.85	570.44
669.19	566.65
669.53	562.79
669.87	558.93
670.21	555.19
670.55	551.58
670.89	548.12
671.23	544.70
671.57	541.19
671.91	537.67
672.25	534.20
672.58	530.66
672.92	527.22
673.26	524.06
673.60	521.00
673.94	517.93
674.28	515.04
674.62	512.16
674.96	509.04
675.30	506.12
675.64	503.21
675.97	500.42
676.31	497.50
676.65	494.58
676.99	491.87
677.33	489.04
677.67	486.18
678.01	483.18
678.34	480.20
678.68	477.31
679.02	474.48
679.36	471.69
679.70	468.97
680.04	466.25
680.37	463.36
680.71	460.49
681.05	457.89
681.39	455.17
681.73	452.47
682.06	449.98
682.40	447.42
682.74	444.91
683.08	442.30
683.42	439.70
683.75	437.21
684.09	434.68
684.43	432.18
684.77	429.73
685.10	427.30
685.44	425.00
685.78	422.71
686.12	420.48
686.45	418.15
686.79	415.87
687.13	413.68
687.46	411.50
687.80	409.39
688.14	407.13
688.48	405.04
688.81	402.80
689.15	400.63
689.49	398.50
689.82	396.40
690.16	394.38
690.50	392.46
690.83	390.56
691.17	388.55
691.51	386.68
691.84	384.83
692.18	382.94
692.52	380.95
692.85	379.00
693.19	377.07
693.52	375.20
693.86	373.38
694.20	371.55
694.53	369.75
694.87	367.87
695.21	366.11
695.54	364.27
695.88	362.54
696.21	360.83
696.55	359.11
696.88	357.44
697.22	355.76
697.56	354.09
697.89	352.43
698.23	350.88
698.56	349.22
698.90	347.62
699.23	346.00
699.57	344.44
699.90	342.91
700.24	341.45
700.58	339.99
700.91	338.49
701.25	337.06
701.58	335.71
701.92	334.35
702.25	332.92
702.59	331.58
702.92	330.25
703.26	328.97
703.59	327.69
703.93	326.46
704.26	325.22
704.60	323.93
704.93	322.62
705.26	321.33
705.60	320.17
705.93	319.03
706.27	317.97
706.60	316.89
706.94	315.79
707.27	314.65
707.61	313.56
707.94	312.52
708.27	311.45
708.61	310.35
708.94	309.34
709.28	308.37
709.61	307.39
709.94	306.45
710.28	305.41
710.61	304.44
710.95	303.39
711.28	302.46
711.61	301.51
711.95	300.60
712.28	299.63
712.61	298.66
712.95	297.74
713.28	296.82
713.61	295.94
713.95	295.08
714.28	294.19
714.61	293.34
714.95	292.51
715.28	291.61
715.61	290.75
715.95	289.93
716.28	289.07
716.61	288.26
716.95	287.47
717.28	286.70
717.61	285.93
717.94	285.20
718.28	284.41
718.61	283.70
718.94	282.99
719.27	282.35
719.61	281.69
719.94	281.04
720.27	280.36
720.60	279.68
720.94	279.05
721.27	278.49
721.60	277.87
721.93	277.26
722.27	276.75
722.60	276.21
722.93	275.63
723.26	275.07
723.59	274.48
723.93	273.92
724.26	273.40
724.59	272.79
724.92	272.27
725.25	271.78
725.59	271.27
725.92	270.76
726.25	270.22
726.58	269.78
726.91	269.24
727.24	268.80
727.57	268.35
727.91	267.81
728.24	267.32
728.57	266.86
728.90	266.40
729.23	265.91
729.56	265.49
729.89	265.02
730.22	264.56
730.55	264.13
730.89	263.69
731.22	263.25
731.55	262.87
731.88	262.44
732.21	261.99
732.54	261.54
732.87	261.11
733.20	260.75
733.53	260.32
733.86	259.99
734.19	259.55
734.52	259.16
734.85	258.88
735.18	258.50
735.51	258.13
735.84	257.79
736.17	257.41
736.50	256.97
736.83	256.72
737.16	256.41
737.49	256.08
737.82	255.71
738.15	255.39
738.48	255.06
738.81	254.72
739.14	254.40
739.47	254.08
739.80	253.80
740.13	253.49
740.46	253.15
740.79	252.81
741.12	252.53
741.45	252.18
741.78	251.78
742.11	251.48
742.44	251.13
742.77	250.80
743.10	250.51
743.43	250.23
743.75	249.86
744.08	249.70
744.41	249.39
744.74	249.14
745.07	248.81
745.40	248.54
745.73	248.31
746.06	248.02
746.39	247.78
746.71	247.48
747.04	247.22
747.37	246.96
747.70	246.71
748.03	246.46
748.36	246.27
748.68	246.06
749.01	245.81
749.34	245.61
749.67	245.39
750.00	245.16
750.33	244.99
750.65	244.78
750.98	244.45
751.31	244.28
751.64	244.03
751.97	243.92
752.29	243.71
752.62	243.49
752.95	243.28
753.28	243.08
753.60	242.92
753.93	242.73
754.26	242.54
754.59	242.36
754.91	242.15
755.24	241.94
755.57	241.76
755.90	241.58
756.22	241.42
756.55	241.19
756.88	241.02
757.20	240.80
757.53	240.60
757.86	240.40
758.19	240.23
758.51	240.08
758.84	239.85
759.17	239.66
759.49	239.49
759.82	239.38
760.15	239.22
760.47	239.03
760.80	238.85
761.13	238.71
761.45	238.54
761.78	238.39
762.11	238.28
762.43	238.12
762.76	237.96
763.08	237.82
763.41	237.71
763.74	237.54
764.06	237.42
764.39	237.31
764.71	237.19
765.04	237.01
765.37	236.88
765.69	236.77
766.02	236.65
766.34	236.52
766.67	236.39
767.00	236.30
767.32	236.27
767.65	236.21
767.97	236.12
768.30	236.00
768.62	235.90
768.95	235.79
769.27	235.69
769.60	235.61
769.92	235.48
770.25	235.41
770.57	235.32
770.90	235.17
771.22	235.05
771.55	234.98
771.87	234.93
772.20	234.86
772.52	234.85
772.85	234.88
773.17	234.78
773.50	234.68
773.82	234.61
774.15	234.44
774.47	234.30
774.80	234.18
775.12	234.10
775.45	234.00
775.77	233.89
776.09	233.81
776.42	233.75
776.74	233.69
777.07	233.59
777.39	233.50
777.72	233.44
778.04	233.36
778.36	233.27
778.69	233.18
779.01	233.11
779.33	232.94
779.66	232.75
779.98	232.69
780.31	232.60
780.63	232.55
780.95	232.53
781.28	232.45
781.60	232.40
781.92	232.33
782.25	232.27
782.57	232.22
782.89	232.15
783.22	232.04
783.54	232.01
783.86	231.97
784.19	231.93
784.51	231.92
784.83	231.85
785.16	231.81
785.48	231.77
785.80	231.72
786.12	231.70
786.45	231.69
786.77	231.60
787.09	231.57
787.42	231.49
787.74	231.43
788.06	231.41
788.38	231.35
788.71	231.32
789.03	231.31
789.35	231.25
789.67	231.21
789.99	231.18
790.32	231.05
790.64	231.02
790.96	231.07
791.28	231.00
791.61	230.96
791.93	230.94
792.25	230.89
792.57	230.90
792.89	230.86
793.21	230.80
793.54	230.80
793.86	230.74
794.18	230.71
794.50	230.65
794.82	230.61
795.14	230.62
795.47	230.58
795.79	230.52
796.11	230.50
796.43	230.47
796.75	230.44
797.07	230.46
797.39	230.40
797.71	230.25
798.04	230.23
798.36	230.20
798.68	230.12
799.00	230.10
799.32	230.04
799.64	229.99
799.96	229.98
800.28	229.94
800.60	229.91
800.92	229.86
801.24	229.83
801.56	229.80
801.89	229.72
802.21	229.68
802.53	229.61
802.85	229.59
803.17	229.58
803.49	229.52
803.81	229.47
804.13	229.44
804.45	229.43
804.77	229.38
805.09	229.38
805.41	229.39
805.73	229.31
806.05	229.23
806.37	229.21
806.69	229.13
807.01	229.07
807.33	229.04
807.65	229.00
807.97	229.02
808.28	228.97
808.60	228.95
808.92	228.90
809.24	228.95
809.56	228.91
809.88	228.87
810.20	228.84
810.52	228.84
810.84	228.82
811.16	228.76
811.48	228.74
811.80	228.73
812.12	228.67
812.43	228.68
812.75	228.66
813.07	228.61
813.39	228.63
813.71	228.63
814.03	228.61
814.35	228.57
814.67	228.53
814.98	228.52
815.30	228.48
815.62	228.44
815.94	228.38
816.26	228.38
816.58	228.33
816.89	228.35
817.21	228.29
817.53	228.31
817.85	228.33
818.17	228.29
818.48	228.20
818.80	228.21
819.12	228.19
819.44	228.19
819.76	228.17
820.07	228.16
820.39	228.14
820.71	228.15
821.03	228.16
821.34	228.11
821.66	228.10
821.98	228.08
822.30	228.10
822.61	228.13
822.93	228.11
823.25	228.08
823.57	228.06
823.88	228.09
824.20	228.04
824.52	228.04
824.83	228.03
825.15	228.03
825.47	227.98
825.79	227.96
826.10	227.94
826.42	227.91
826.74	227.89
827.05	227.87
827.37	227.86
827.69	227.81
828.00	227.78
828.32	227.78
828.64	227.78
828.95	227.82
829.27	227.79
829.58	227.77
829.90	227.79
830.22	227.77
830.53	227.72
830.85	227.71
831.17	227.69
831.48	227.68
831.80	227.71
832.11	227.72
832.43	227.68
832.75	227.66
833.06	227.73
833.38	227.70
833.69	227.70
834.01	227.67
834.32	227.67
834.64	227.66
834.96	227.65
835.27	227.64
835.59	227.61
835.90	227.56
836.22	227.54
836.53	227.49
836.85	227.48
837.16	227.57
837.48	227.55
837.79	227.59
838.11	227.57
838.42	227.55
838.74	227.56
839.05	227.57
839.37	227.60
839.68	227.51
840.00	227.52
840.31	227.50
840.63	227.50
840.94	227.50
841.26	227.48
841.57	227.49
841.88	227.48
842.20	227.46
842.51	227.44
842.83	227.46
843.14	227.54
843.46	227.56
843.77	227.52
844.08	227.53
844.40	227.47
844.71	227.46
845.03	227.43
845.34	227.42
845.65	227.39
845.97	227.39
846.28	227.41
846.60	227.39
846.91	227.41
847.22	227.40
847.54	227.42
847.85	227.44
848.16	227.45
848.48	227.42
848.79	227.43
849.10	227.45
849.42	227.45
849.73	227.39
850.04	227.37
850.36	227.29
850.67	227.29
850.98	227.29
851.30	227.26
851.61	227.26
851.92	227.24
852.23	227.30
852.55	227.28
852.86	227.26
853.17	227.29
853.49	227.30
853.80	227.32
854.11	227.33
854.42	227.33
854.74	227.30
855.05	227.33
855.36	227.28
855.67	227.27
855.99	227.26
856.30	227.35
856.61	227.34
856.92	227.35
857.23	227.35
857.55	227.33
857.86	227.35
858.17	227.39
858.48	227.37
858.79	227.34
859.11	227.37
859.42	227.36
859.73	227.35
860.04	227.30
860.35	227.27
860.66	227.22
860.98	227.21
861.29	227.22
861.60	227.21
861.91	227.25
862.22	227.25
862.53	227.22
862.84	227.11
863.16	227.11
863.47	227.11
863.78	227.06
864.09	227.06
864.40	227.05
864.71	227.03
865.02	227.01
865.33	226.95
865.64	226.93
865.95	226.93
866.27	226.99
866.58	226.99
866.89	226.98
867.20	226.97
867.51	226.93
867.82	226.91
868.13	226.94
868.44	226.92
868.75	226.95
869.06	226.93
869.37	226.91
869.68	226.88
869.99	226.93
870.30	226.93
870.61	226.92
870.92	226.94
871.23	226.95
871.54	227.00
871.85	227.06
872.16	227.06
872.47	227.02
872.78	226.92
873.09	226.94
873.40	226.95
873.71	226.93
874.02	226.93
874.33	226.94
874.64	226.89
874.95	226.87
875.26	226.85
875.56	226.85
875.87	226.86
876.18	226.88
876.49	226.92
876.80	226.92
877.11	226.91
877.42	226.90
877.73	226.88
878.04	226.83
878.35	226.84
878.66	226.86
878.96	226.89
879.27	226.94
879.58	226.93
879.89	226.96
880.20	227.02
880.51	227.01
880.82	226.99
881.12	227.01
881.43	226.99
881.74	226.95
882.05	226.97
882.36	227.00
882.67	226.99
882.97	226.91
883.28	226.92
883.59	226.95
883.90	226.95
884.21	226.97
884.51	226.98
884.82	226.93
885.13	226.92
885.44	226.91
885.74	226.87
886.05	226.88
886.36	226.83
886.67	226.81
886.98	226.90
887.28	226.89
887.59	226.86
887.90	226.87
888.20	226.90
888.51	226.93
888.82	226.89
889.13	226.91
889.43	226.98
889.74	226.97
890.05	226.98
890.35	226.96
890.66	226.93
890.97	226.95
891.28	226.96
891.58	226.95
891.89	226.94
892.20	226.93
892.50	226.92
892.81	226.92
893.12	226.92
893.42	226.85
893.73	226.89
894.04	226.92
894.34	226.92
894.65	226.92
894.95	226.90
895.26	226.91
895.57	226.92
895.87	226.82
896.18	226.86
896.48	226.84
896.79	226.88
897.10	226.89
897.40	226.88
897.71	226.89
898.01	226.86
898.32	226.89
898.63	226.88
898.93	226.90
899.24	226.91
899.54	226.89
899.85	226.87
900.15	226.85
900.46	226.84
900.76	226.82
901.07	226.79
901.38	226.82
901.68	226.86
901.99	226.82
902.29	226.85
902.60	226.82
902.90	226.82
903.21	226.82
903.51	226.81
903.82	226.84
904.12	226.84
904.43	226.86
904.73	226.84
905.03	226.85
905.34	226.93
905.64	226.88
905.95	226.89
906.25	226.91
906.56	226.93
906.86	226.92
907.17	226.94
907.47	226.97
907.77	226.93
908.08	226.87
908.38	226.89
908.69	226.88
908.99	226.91
909.30	226.92
909.60	226.86
909.90	226.87
910.21	226.81
910.51	226.79
910.81	226.78
911.12	226.78
911.42	226.77
911.73	226.66
912.03	226.73
912.33	226.75
912.64	226.74
912.94	226.72
913.24	226.68
913.55	226.67
913.85	226.66
914.15	226.66
914.46	226.70
914.76	226.67
915.06	226.62
915.37	226.56
915.67	226.53
915.97	226.58
916.27	226.60
916.58	226.63
916.88	226.64
917.18	226.65
917.49	226.69
917.79	226.68
918.09	226.73
918.39	226.70
918.70	226.70
919.00	226.68
919.30	226.70
919.60	226.71
919.91	226.72
920.21	226.73
920.51	226.71
920.81	226.68
921.12	226.70
921.42	226.73
921.72	226.75
922.02	226.75
922.32	226.74
922.63	226.70
922.93	226.73
923.23	226.72
923.53	226.71
923.83	226.69
924.13	226.70
924.44	226.67
924.74	226.71
925.04	226.71
925.34	226.72
925.64	226.69
925.94	226.70
926.24	226.72
926.55	226.71
926.85	226.70
927.15	226.72
927.45	226.75
927.75	226.71
928.05	226.71
928.35	226.71
928.65	226.73
928.95	226.72
929.26	226.67
929.56	226.70
929.86	226.71
930.16	226.65
930.46	226.63
930.76	226.65
931.06	226.60
931.36	226.57
931.66	226.60
931.96	226.57
932.26	226.55
932.56	226.53
932.86	226.56
933.16	226.55
933.46	226.55
933.76	226.53
934.06	226.59
934.36	226.60
934.66	226.59
934.96	226.56
935.26	226.58
935.56	226.62
935.86	226.57
936.16	226.56
936.46	226.58
936.76	226.56
937.06	226.53
937.36	226.51
937.66	226.53
937.96	226.49
938.26	226.51
938.56	226.52
938.86	226.50
939.16	226.49
939.46	226.50
939.76	226.49
940.06	226.48
940.35	226.47
940.65	226.44
940.95	226.47
941.25	226.46
941.55	226.43
941.85	226.40
942.15	226.45
942.45	226.48
942.75	226.47
943.04	226.51
943.34	226.53
943.64	226.50
943.94	226.49
944.24	226.50
944.54	226.48
944.84	226.48
945.13	226.47
945.43	226.46
945.73	226.48
946.03	226.49
946.33	226.48
946.62	226.45
946.92	226.47
947.22	226.47
947.52	226.49
947.82	226.49
948.11	226.48
948.41	226.47
948.71	226.45
949.01	226.43
949.31	226.43
949.60	226.41
949.90	226.46
950.20	226.46
950.50	226.47
950.79	226.48
951.09	226.50
951.39	226.51
951.69	226.52
951.98	226.53
952.28	226.50
952.58	226.51
952.87	226.53
953.17	226.52
953.47	226.50
953.76	226.51
954.06	226.50
954.36	226.51
954.66	226.51
954.95	226.52
955.25	226.56
955.55	226.54
955.84	226.54
956.14	226.56
956.44	226.57
956.73	226.56
957.03	226.57
957.32	226.56
957.62	226.55
957.92	226.57
958.21	226.55
958.51	226.65
958.81	226.65
959.10	226.63
959.40	226.64
959.69	226.63
959.99	226.63
960.29	226.66
960.58	226.64
960.88	226.64
961.17	226.60
961.47	226.61
961.76	226.63
962.06	226.65
962.36	226.63
962.65	226.63
962.95	226.64
963.24	226.63
963.54	226.63
963.83	226.63
964.13	226.59
964.42	226.59
964.72	226.52
965.01	226.52
965.31	226.58
965.60	226.56
965.90	226.65
966.19	226.62
966.49	226.62
966.78	226.61
967.08	226.65
967.37	226.69
967.67	226.66
967.96	226.66
968.26	226.64
968.55	226.65
968.85	226.64
969.14	226.61
969.43	226.63
969.73	226.62
970.02	226.67
970.32	226.67
970.61	226.67
970.91	226.66
971.20	226.65
971.49	226.62
971.79	226.64
972.08	226.56
972.38	226.55
972.67	226.55
972.96	226.54
973.26	226.51
973.55	226.52
973.85	226.50
974.14	226.52
974.43	226.51
974.73	226.47
975.02	226.49
975.31	226.52
975.61	226.50
975.90	226.49
976.19	226.47
976.49	226.49
976.78	226.49
977.07	226.51
977.37	226.54
977.66	226.53
977.95	226.51
978.24	226.53
978.54	226.61
978.83	226.59
979.12	226.62
979.42	226.61
979.71	226.61
980.00	226.64
980.29	226.65
980.59	226.64
980.88	226.68
981.17	226.65
981.46	226.63
981.76	226.63
982.05	226.67
982.34	226.67
982.63	226.67
982.93	226.67
983.22	226.70
983.51	226.70
983.80	226.70
984.09	226.73
984.39	226.72
984.68	226.67
984.97	226.68
985.26	226.64
985.55	226.67
985.85	226.64
986.14	226.64
986.43	226.61
986.72	226.61
987.01	226.58
987.30	226.58
987.59	226.61
987.89	226.61
988.18	226.61
988.47	226.62
988.76	226.62
989.05	226.63
989.34	226.58
989.63	226.60
989.92	226.59
990.22	226.55
990.51	226.56
990.80	226.55
991.09	226.57
991.38	226.60
991.67	226.54
991.96	226.53
992.25	226.54
992.54	226.53
992.83	226.51
993.12	226.50
993.41	226.51
993.70	226.52
993.99	226.52
994.28	226.50
994.58	226.50
994.87	226.48
995.16	226.46
995.45	226.43
995.74	226.34
996.03	226.35
996.32	226.36
996.61	226.38
996.90	226.38
997.19	226.36
997.48	226.37
997.77	226.38
998.06	226.38
998.34	226.35
998.63	226.36
998.92	226.36
999.21	226.40
999.50	226.40
999.79	226.36
1000.08	226.38
1000.37	226.41
1000.66	226.38
1000.95	226.40
1001.24	226.40
1001.53	226.44
1001.82	226.50
1002.11	226.47
1002.40	226.49
1002.68	226.47
1002.97	226.54
1003.26	226.53
1003.55	226.49
1003.84	226.52
1004.13	226.58
1004.42	226.60
1004.71	226.60
1004.99	226.59
1005.28	226.63
1005.57	226.62
1005.86	226.63
1006.15	226.60
1006.44	226.53
1006.72	226.53
1007.01	226.50
1007.30	226.49
1007.59	226.50
1007.88	226.49
1008.17	226.49
1008.45	226.46
1008.74	226.44
1009.03	226.41
1009.32	226.41
1009.60	226.42
1009.89	226.42
1010.18	226.33
1010.47	226.31
1010.76	226.28
1011.04	226.27
1011.33	226.24
1011.62	226.24
1011.91	226.24
1012.19	226.26
1012.48	226.31
1012.77	226.31
1013.05	226.33
1013.34	226.36
1013.63	226.33
1013.92	226.31
1014.20	226.30
1014.49	226.35
1014.78	226.37
1015.06	226.34
1015.35	226.37
1015.64	226.38
1015.92	226.37
1016.21	226.38
1016.50	226.42
1016.78	226.43
1017.07	226.49
1017.36	226.49
1017.64	226.51
1017.93	226.53
1018.22	226.51
1018.50	226.50
1018.79	226.51
1019.08	226.48
1019.36	226.49
1019.65	226.49
1019.93	226.55
1020.22	226.58
1020.51	226.59
1020.79	226.59
1021.08	226.10
1021.36	226.39
1021.65	226.47
1021.94	226.44
1022.22	226.84
1022.51	226.14
1022.79	227.20
1023.08	226.69
1023.36	227.49
1023.65	226.33
>>>>>End Processed Spectral Data<<<<<
