SpectraSuite Data File
++++++++++++++++++++++++++++++++++++
Date: Fri Feb 01 15:11:05 EST 2013
User: group
Dark Spectrum Present: No
Reference Spectrum Present: No
Number of Sampled Component Spectra: 1
Spectrometers: USB2E7196
Integration Time (usec): 35000 (USB2E7196)
Spectra Averaged: 100 (USB2E7196)
Boxcar Smoothing: 10 (USB2E7196)
Correct for Electrical Dark: No (USB2E7196)
Strobe/Lamp Enabled: No (USB2E7196)
Correct for Detector Non-linearity: No (USB2E7196)
Correct for Stray Light: No (USB2E7196)
Number of Pixels in Processed Spectrum: 2048
>>>>>Begin Processed Spectral Data<<<<<
339.09	0.00
339.48	215.23
339.86	216.21
340.24	217.93
340.63	219.27
341.01	222.85
341.39	222.34
341.78	223.20
342.16	224.92
342.54	224.70
342.93	213.48
343.31	224.25
343.69	224.77
344.07	225.24
344.46	225.68
344.84	226.06
345.22	226.25
345.60	226.50
345.99	226.68
346.37	226.77
346.75	226.89
347.13	226.95
347.52	227.00
347.90	227.04
348.28	227.05
348.66	227.08
349.05	227.07
349.43	227.10
349.81	227.16
350.19	227.20
350.57	227.28
350.96	227.35
351.34	227.47
351.72	227.56
352.10	227.66
352.48	227.72
352.87	227.79
353.25	227.86
353.63	227.91
354.01	227.99
354.39	228.10
354.77	228.17
355.15	228.29
355.54	228.33
355.92	228.38
356.30	228.45
356.68	228.58
357.06	228.63
357.44	228.68
357.82	228.73
358.20	228.80
358.58	228.84
358.97	228.87
359.35	228.90
359.73	228.98
360.11	229.05
360.49	229.09
360.87	229.13
361.25	229.19
361.63	229.27
362.01	229.31
362.39	229.31
362.77	229.37
363.15	229.37
363.53	229.42
363.91	229.45
364.29	229.48
364.67	229.41
365.05	229.45
365.43	229.45
365.81	229.46
366.19	229.50
366.57	229.53
366.95	229.55
367.33	229.55
367.71	229.51
368.09	229.47
368.47	229.44
368.85	229.40
369.23	229.40
369.61	229.31
369.99	229.30
370.37	229.30
370.75	229.28
371.13	229.24
371.51	229.17
371.89	229.10
372.27	229.07
372.65	229.04
373.03	228.98
373.41	228.92
373.78	228.90
374.16	228.80
374.54	228.72
374.92	228.65
375.30	228.58
375.68	228.53
376.06	228.48
376.44	228.43
376.82	228.38
377.19	228.27
377.57	228.21
377.95	228.10
378.33	228.01
378.71	227.88
379.09	227.79
379.47	227.75
379.84	227.70
380.22	227.64
380.60	227.55
380.98	227.47
381.36	227.41
381.73	227.30
382.11	227.23
382.49	227.17
382.87	227.08
383.25	227.01
383.62	227.02
384.00	226.94
384.38	226.84
384.76	226.79
385.13	226.78
385.51	226.74
385.89	226.68
386.27	226.65
386.64	226.59
387.02	226.56
387.40	226.51
387.78	226.46
388.15	226.41
388.53	226.38
388.91	226.32
389.29	226.30
389.66	226.28
390.04	226.26
390.42	226.22
390.79	226.19
391.17	226.22
391.55	226.13
391.92	226.12
392.30	226.18
392.68	226.15
393.05	226.16
393.43	226.17
393.81	226.19
394.18	226.20
394.56	226.24
394.94	226.30
395.31	226.32
395.69	226.38
396.06	226.43
396.44	226.49
396.82	226.57
397.19	226.67
397.57	226.70
397.95	226.80
398.32	226.87
398.70	226.96
399.07	227.02
399.45	227.09
399.82	227.15
400.20	227.22
400.58	227.31
400.95	227.36
401.33	227.47
401.70	227.64
402.08	227.75
402.45	227.87
402.83	228.00
403.20	228.07
403.58	228.17
403.95	228.33
404.33	228.44
404.71	228.58
405.08	228.77
405.46	228.94
405.83	229.08
406.21	229.27
406.58	229.45
406.96	229.66
407.33	229.86
407.70	230.09
408.08	230.35
408.45	230.57
408.83	230.84
409.20	231.04
409.58	231.24
409.95	231.50
410.33	231.78
410.70	231.99
411.08	232.31
411.45	232.63
411.82	232.94
412.20	233.31
412.57	233.69
412.95	233.97
413.32	234.40
413.69	234.81
414.07	235.22
414.44	235.67
414.82	236.12
415.19	236.64
415.56	237.19
415.94	237.73
416.31	238.39
416.68	239.01
417.06	239.70
417.43	240.33
417.81	241.08
418.18	241.86
418.55	242.69
418.93	243.55
419.30	244.45
419.67	245.37
420.04	246.30
420.42	247.30
420.79	248.46
421.16	249.60
421.54	250.79
421.91	252.04
422.28	253.29
422.66	254.61
423.03	255.92
423.40	257.26
423.77	258.68
424.15	260.09
424.52	261.57
424.89	263.20
425.26	264.79
425.64	266.22
426.01	267.82
426.38	269.54
426.75	271.25
427.13	272.98
427.50	274.81
427.87	276.71
428.24	278.60
428.61	280.35
428.99	282.29
429.36	284.36
429.73	286.40
430.10	288.40
430.47	290.46
430.85	292.56
431.22	294.79
431.59	297.15
431.96	299.38
432.33	301.87
432.70	304.27
433.08	307.08
433.45	309.78
433.82	312.35
434.19	315.20
434.56	317.99
434.93	320.61
435.30	323.20
435.68	326.09
436.05	328.95
436.42	331.76
436.79	334.29
437.16	337.01
437.53	339.86
437.90	342.68
438.27	345.48
438.64	348.32
439.01	350.96
439.38	353.18
439.75	355.34
440.13	357.85
440.50	360.18
440.87	362.04
441.24	363.95
441.61	366.08
441.98	367.56
442.35	369.41
442.72	371.33
443.09	373.16
443.46	374.16
443.83	374.68
444.20	375.16
444.57	376.02
444.94	376.31
445.31	376.64
445.68	377.01
446.05	377.07
446.42	376.73
446.79	376.29
447.16	375.87
447.53	375.56
447.90	374.35
448.27	373.18
448.64	371.61
449.01	370.52
449.37	368.58
449.74	366.69
450.11	364.42
450.48	361.89
450.85	359.33
451.22	357.18
451.59	355.19
451.96	353.29
452.33	350.65
452.70	348.25
453.07	345.40
453.43	342.51
453.80	339.69
454.17	336.99
454.54	334.42
454.91	331.69
455.28	329.03
455.65	326.59
456.02	324.11
456.38	321.94
456.75	319.27
457.12	317.05
457.49	314.84
457.86	312.67
458.23	310.80
458.59	308.78
458.96	306.70
459.33	304.85
459.70	302.96
460.07	301.46
460.43	299.76
460.80	298.15
461.17	296.70
461.54	295.21
461.91	293.79
462.27	292.36
462.64	291.10
463.01	289.74
463.38	288.46
463.74	287.14
464.11	286.00
464.48	284.95
464.85	283.79
465.21	282.89
465.58	281.99
465.95	280.92
466.32	279.97
466.68	279.05
467.05	278.12
467.42	277.21
467.78	276.25
468.15	275.36
468.52	274.69
468.88	273.79
469.25	273.03
469.62	272.39
469.98	271.73
470.35	271.03
470.72	270.42
471.08	269.68
471.45	269.09
471.82	268.49
472.18	267.86
472.55	267.42
472.92	266.90
473.28	266.38
473.65	265.91
474.02	265.47
474.38	265.08
474.75	264.72
475.11	264.40
475.48	264.12
475.85	263.86
476.21	263.60
476.58	263.40
476.94	263.22
477.31	263.01
477.67	262.80
478.04	262.67
478.41	262.60
478.77	262.66
479.14	262.60
479.50	262.61
479.87	262.70
480.23	262.78
480.60	262.83
480.96	262.91
481.33	263.10
481.69	263.30
482.06	263.48
482.42	263.71
482.79	263.90
483.15	264.19
483.52	264.62
483.88	264.98
484.25	265.38
484.61	265.79
484.98	266.27
485.34	266.86
485.71	267.48
486.07	268.10
486.44	268.68
486.80	269.35
487.17	270.08
487.53	270.87
487.90	271.73
488.26	272.67
488.62	273.67
488.99	274.68
489.35	275.68
489.72	276.81
490.08	278.00
490.44	279.29
490.81	280.66
491.17	281.97
491.54	283.47
491.90	285.01
492.26	286.67
492.63	288.39
492.99	290.17
493.36	292.07
493.72	294.14
494.08	296.24
494.45	298.54
494.81	300.93
495.17	303.35
495.54	305.93
495.90	308.60
496.26	311.37
496.63	314.30
496.99	317.45
497.35	320.72
497.72	324.12
498.08	327.65
498.44	331.33
498.80	335.29
499.17	339.28
499.53	343.46
499.89	347.83
500.26	352.34
500.62	356.95
500.98	361.92
501.34	366.95
501.71	372.29
502.07	377.69
502.43	383.22
502.79	389.05
503.16	395.08
503.52	401.34
503.88	407.73
504.24	414.35
504.60	421.23
504.97	428.35
505.33	435.69
505.69	443.33
506.05	451.06
506.41	458.95
506.78	467.09
507.14	475.52
507.50	484.24
507.86	493.26
508.22	502.46
508.59	511.64
508.95	521.20
509.31	531.02
509.67	541.15
510.03	551.43
510.39	562.05
510.75	572.85
511.12	583.74
511.48	595.07
511.84	606.57
512.20	618.10
512.56	630.08
512.92	642.23
513.28	654.62
513.64	667.18
514.00	679.75
514.37	692.66
514.73	705.75
515.09	718.79
515.45	732.09
515.81	745.72
516.17	759.72
516.53	773.86
516.89	787.95
517.25	802.14
517.61	816.65
517.97	831.03
518.33	845.54
518.69	860.39
519.05	875.34
519.41	890.50
519.77	906.00
520.13	921.39
520.49	936.76
520.85	952.17
521.21	967.82
521.57	984.22
521.93	1000.14
522.29	1016.57
522.65	1032.86
523.01	1049.16
523.37	1065.15
523.73	1081.35
524.09	1097.51
524.45	1113.99
524.81	1130.65
525.17	1147.51
525.53	1164.50
525.89	1181.34
526.25	1198.16
526.61	1214.69
526.97	1231.54
527.33	1248.16
527.68	1264.84
528.04	1281.44
528.40	1298.15
528.76	1315.38
529.12	1331.99
529.48	1348.80
529.84	1364.88
530.20	1381.59
530.56	1398.66
530.91	1416.12
531.27	1432.97
531.63	1449.51
531.99	1466.11
532.35	1482.25
532.71	1498.24
533.07	1514.60
533.42	1530.60
533.78	1546.83
534.14	1563.06
534.50	1578.38
534.86	1594.31
535.21	1609.54
535.57	1625.73
535.93	1641.29
536.29	1656.15
536.65	1671.31
537.00	1686.32
537.36	1701.58
537.72	1716.21
538.08	1730.59
538.44	1744.69
538.79	1758.61
539.15	1772.45
539.51	1786.33
539.87	1800.74
540.22	1814.50
540.58	1828.31
540.94	1841.85
541.29	1854.89
541.65	1867.80
542.01	1881.22
542.37	1893.56
542.72	1906.12
543.08	1917.84
543.44	1930.25
543.79	1941.52
544.15	1952.55
544.51	1964.12
544.87	1975.33
545.22	1986.14
545.58	1996.52
545.94	2006.21
546.29	2016.23
546.65	2026.02
547.01	2035.17
547.36	2043.88
547.72	2052.45
548.07	2060.49
548.43	2068.67
548.79	2076.64
549.14	2084.16
549.50	2091.51
549.86	2099.35
550.21	2106.72
550.57	2113.84
550.92	2120.55
551.28	2127.67
551.64	2134.86
551.99	2141.42
552.35	2147.49
552.70	2153.59
553.06	2159.58
553.41	2165.93
553.77	2171.92
554.13	2178.16
554.48	2184.45
554.84	2189.79
555.19	2195.05
555.55	2200.02
555.90	2204.37
556.26	2209.27
556.61	2213.88
556.97	2217.90
557.32	2222.04
557.68	2226.21
558.03	2230.52
558.39	2234.08
558.74	2238.69
559.10	2242.40
559.45	2246.03
559.81	2250.42
560.16	2254.30
560.52	2257.55
560.87	2261.00
561.23	2263.64
561.58	2266.43
561.94	2268.90
562.29	2271.42
562.64	2273.94
563.00	2276.47
563.35	2279.99
563.71	2283.05
564.06	2286.31
564.42	2289.37
564.77	2291.72
565.12	2293.81
565.48	2295.48
565.83	2297.23
566.19	2298.29
566.54	2299.20
566.89	2300.20
567.25	2300.67
567.60	2301.93
567.96	2303.28
568.31	2303.97
568.66	2304.94
569.02	2305.45
569.37	2305.68
569.72	2306.27
570.08	2306.29
570.43	2306.30
570.78	2305.53
571.14	2303.92
571.49	2302.37
571.84	2301.90
572.20	2300.55
572.55	2299.47
572.90	2297.96
573.26	2296.64
573.61	2295.02
573.96	2293.17
574.31	2290.07
574.67	2286.93
575.02	2283.18
575.37	2279.94
575.72	2275.97
576.08	2272.58
576.43	2269.24
576.78	2265.47
577.13	2262.31
577.49	2259.39
577.84	2255.79
578.19	2252.06
578.54	2248.28
578.90	2244.02
579.25	2238.43
579.60	2233.49
579.95	2228.36
580.30	2223.20
580.66	2217.98
581.01	2212.92
581.36	2207.82
581.71	2203.51
582.06	2198.81
582.42	2194.15
582.77	2188.82
583.12	2184.16
583.47	2179.20
583.82	2173.94
584.17	2168.64
584.53	2162.96
584.88	2157.03
585.23	2151.08
585.58	2145.56
585.93	2140.05
586.28	2135.24
586.63	2130.02
586.98	2124.79
587.34	2120.02
587.69	2115.02
588.04	2109.54
588.39	2103.77
588.74	2097.27
589.09	2091.04
589.44	2084.21
589.79	2078.16
590.14	2072.31
590.49	2065.55
590.84	2059.11
591.19	2053.00
591.54	2046.33
591.89	2038.75
592.25	2031.87
592.60	2024.57
592.95	2016.77
593.30	2009.20
593.65	2001.48
594.00	1994.34
594.35	1986.97
594.70	1978.79
595.05	1971.57
595.40	1964.27
595.75	1956.61
596.10	1950.14
596.45	1943.26
596.80	1937.11
597.15	1930.40
597.50	1923.27
597.85	1916.83
598.19	1910.10
598.54	1902.91
598.89	1896.24
599.24	1890.39
599.59	1883.56
599.94	1877.39
600.29	1871.10
600.64	1864.63
600.99	1857.23
601.34	1850.33
601.69	1843.50
602.04	1836.57
602.39	1829.07
602.74	1822.15
603.08	1815.50
603.43	1808.74
603.78	1801.54
604.13	1794.25
604.48	1786.92
604.83	1780.01
605.18	1773.00
605.53	1765.02
605.87	1756.97
606.22	1749.77
606.57	1741.93
606.92	1734.73
607.27	1727.44
607.62	1720.44
607.96	1712.96
608.31	1706.27
608.66	1698.58
609.01	1690.83
609.36	1683.20
609.70	1675.29
610.05	1667.11
610.40	1659.28
610.75	1651.09
611.10	1643.41
611.44	1635.12
611.79	1627.16
612.14	1618.41
612.49	1609.40
612.83	1601.05
613.18	1592.95
613.53	1584.87
613.88	1576.28
614.22	1567.94
614.57	1559.40
614.92	1551.41
615.27	1543.76
615.61	1535.38
615.96	1527.47
616.31	1519.95
616.65	1512.70
617.00	1505.10
617.35	1497.58
617.70	1489.27
618.04	1480.72
618.39	1472.50
618.74	1464.82
619.08	1456.51
619.43	1448.99
619.78	1442.04
620.12	1434.87
620.47	1427.28
620.82	1419.13
621.16	1411.78
621.51	1404.12
621.85	1396.57
622.20	1387.95
622.55	1379.72
622.89	1372.04
623.24	1364.39
623.59	1357.05
623.93	1349.51
624.28	1342.23
624.62	1334.69
624.97	1327.54
625.32	1320.92
625.66	1313.93
626.01	1306.77
626.35	1299.25
626.70	1291.61
627.04	1283.83
627.39	1276.04
627.73	1268.69
628.08	1261.71
628.43	1254.34
628.77	1246.98
629.12	1239.40
629.46	1232.26
629.81	1224.92
630.15	1217.70
630.50	1210.40
630.84	1202.18
631.19	1194.30
631.53	1186.97
631.88	1179.49
632.22	1171.97
632.57	1164.70
632.91	1157.12
633.26	1149.68
633.60	1142.45
633.95	1135.42
634.29	1128.50
634.64	1121.85
634.98	1114.54
635.32	1107.48
635.67	1100.94
636.01	1094.32
636.36	1087.53
636.70	1081.12
637.05	1074.66
637.39	1068.12
637.73	1061.59
638.08	1055.77
638.42	1049.83
638.77	1043.30
639.11	1036.60
639.45	1030.19
639.80	1023.48
640.14	1017.09
640.49	1010.65
640.83	1004.32
641.17	998.09
641.52	991.68
641.86	985.34
642.20	979.60
642.55	973.34
642.89	966.81
643.23	960.38
643.58	954.63
643.92	948.43
644.26	942.24
644.61	936.28
644.95	930.21
645.29	923.50
645.64	916.71
645.98	910.49
646.32	904.71
646.66	898.71
647.01	892.84
647.35	887.20
647.69	881.37
648.04	875.97
648.38	870.16
648.72	864.23
649.06	858.04
649.41	852.05
649.75	846.05
650.09	840.16
650.43	834.40
650.78	828.25
651.12	822.36
651.46	816.66
651.80	810.84
652.14	805.37
652.49	800.04
652.83	794.85
653.17	789.04
653.51	783.25
653.85	777.86
654.20	772.21
654.54	766.14
654.88	760.40
655.22	754.46
655.56	748.73
655.90	743.33
656.25	738.19
656.59	732.93
656.93	727.84
657.27	722.62
657.61	717.22
657.95	712.09
658.29	706.97
658.64	701.80
658.98	696.54
659.32	691.22
659.66	686.06
660.00	680.79
660.34	675.92
660.68	671.12
661.02	666.10
661.36	661.47
661.70	657.02
662.05	652.67
662.39	648.31
662.73	643.90
663.07	639.50
663.41	635.03
663.75	630.46
664.09	625.91
664.43	621.55
664.77	617.40
665.11	613.17
665.45	609.04
665.79	604.95
666.13	600.85
666.47	596.78
666.81	592.64
667.15	588.54
667.49	584.73
667.83	580.98
668.17	577.06
668.51	572.99
668.85	568.96
669.19	565.16
669.53	561.39
669.87	557.50
670.21	553.82
670.55	550.21
670.89	546.82
671.23	543.38
671.57	539.97
671.91	536.43
672.25	532.99
672.58	529.55
672.92	526.14
673.26	523.03
673.60	519.86
673.94	516.81
674.28	513.92
674.62	510.94
674.96	507.84
675.30	504.99
675.64	502.14
675.97	499.48
676.31	496.61
676.65	493.67
676.99	490.97
677.33	488.12
677.67	485.34
678.01	482.35
678.34	479.38
678.68	476.47
679.02	473.71
679.36	470.91
679.70	468.22
680.04	465.48
680.37	462.59
680.71	459.84
681.05	457.19
681.39	454.50
681.73	451.84
682.06	449.26
682.40	446.66
682.74	444.15
683.08	441.54
683.42	438.96
683.75	436.51
684.09	434.04
684.43	431.68
684.77	429.28
685.10	426.96
685.44	424.71
685.78	422.47
686.12	420.22
686.45	418.01
686.79	415.74
687.13	413.57
687.46	411.41
687.80	409.24
688.14	407.04
688.48	405.04
688.81	402.84
689.15	400.78
689.49	398.64
689.82	396.55
690.16	394.49
690.50	392.58
690.83	390.57
691.17	388.60
691.51	386.67
691.84	384.77
692.18	382.81
692.52	380.82
692.85	378.90
693.19	377.03
693.52	375.18
693.86	373.40
694.20	371.65
694.53	369.86
694.87	368.04
695.21	366.26
695.54	364.39
695.88	362.61
696.21	360.85
696.55	359.16
696.88	357.48
697.22	355.90
697.56	354.18
697.89	352.57
698.23	350.96
698.56	349.29
698.90	347.70
699.23	346.08
699.57	344.53
699.90	343.00
700.24	341.43
700.58	339.89
700.91	338.32
701.25	336.84
701.58	335.46
701.92	334.13
702.25	332.76
702.59	331.43
702.92	330.12
703.26	328.82
703.59	327.56
703.93	326.38
704.26	325.14
704.60	323.92
704.93	322.65
705.26	321.37
705.60	320.20
705.93	319.06
706.27	318.02
706.60	316.98
706.94	315.91
707.27	314.78
707.61	313.78
707.94	312.80
708.27	311.69
708.61	310.68
708.94	309.67
709.28	308.70
709.61	307.71
709.94	306.84
710.28	305.84
710.61	304.87
710.95	303.79
711.28	302.82
711.61	301.89
711.95	300.99
712.28	300.09
712.61	299.13
712.95	298.19
713.28	297.32
713.61	296.44
713.95	295.54
714.28	294.73
714.61	293.85
714.95	292.97
715.28	292.15
715.61	291.24
715.95	290.39
716.28	289.54
716.61	288.71
716.95	287.83
717.28	287.08
717.61	286.31
717.94	285.59
718.28	284.80
718.61	284.09
718.94	283.40
719.27	282.72
719.61	282.10
719.94	281.47
720.27	280.74
720.60	280.05
720.94	279.42
721.27	278.81
721.60	278.23
721.93	277.66
722.27	277.11
722.60	276.56
722.93	275.97
723.26	275.49
723.59	274.96
723.93	274.44
724.26	273.89
724.59	273.34
724.92	272.82
725.25	272.35
725.59	271.82
725.92	271.31
726.25	270.83
726.58	270.33
726.91	269.82
727.24	269.39
727.57	268.95
727.91	268.47
728.24	268.01
728.57	267.54
728.90	267.11
729.23	266.64
729.56	266.26
729.89	265.79
730.22	265.27
730.55	264.78
730.89	264.33
731.22	263.89
731.55	263.46
731.88	263.03
732.21	262.58
732.54	262.15
732.87	261.72
733.20	261.31
733.53	260.93
733.86	260.54
734.19	260.10
734.52	259.73
734.85	259.43
735.18	259.01
735.51	258.67
735.84	258.26
736.17	257.88
736.50	257.43
736.83	257.21
737.16	256.85
737.49	256.56
737.82	256.20
738.15	255.89
738.48	255.58
738.81	255.23
739.14	254.91
739.47	254.58
739.80	254.25
740.13	253.98
740.46	253.62
740.79	253.33
741.12	253.01
741.45	252.68
741.78	252.35
742.11	252.03
742.44	251.67
742.77	251.36
743.10	251.05
743.43	250.77
743.75	250.37
744.08	250.26
744.41	249.95
744.74	249.68
745.07	249.39
745.40	249.11
745.73	248.89
746.06	248.60
746.39	248.35
746.71	248.13
747.04	247.79
747.37	247.53
747.70	247.23
748.03	247.03
748.36	246.84
748.68	246.61
749.01	246.41
749.34	246.22
749.67	246.02
750.00	245.84
750.33	245.68
750.65	245.48
750.98	245.15
751.31	244.92
751.64	244.71
751.97	244.56
752.29	244.37
752.62	244.13
752.95	243.92
753.28	243.71
753.60	243.47
753.93	243.34
754.26	243.16
754.59	242.97
754.91	242.75
755.24	242.51
755.57	242.30
755.90	242.12
756.22	241.93
756.55	241.71
756.88	241.53
757.20	241.30
757.53	241.10
757.86	240.91
758.19	240.76
758.51	240.61
758.84	240.37
759.17	240.19
759.49	240.00
759.82	239.90
760.15	239.75
760.47	239.65
760.80	239.48
761.13	239.33
761.45	239.22
761.78	239.07
762.11	238.95
762.43	238.81
762.76	238.65
763.08	238.49
763.41	238.39
763.74	238.24
764.06	238.09
764.39	237.97
764.71	237.87
765.04	237.72
765.37	237.61
765.69	237.49
766.02	237.37
766.34	237.28
766.67	237.13
767.00	237.04
767.32	236.99
767.65	236.98
767.97	236.88
768.30	236.72
768.62	236.59
768.95	236.47
769.27	236.35
769.60	236.25
769.92	236.15
770.25	236.01
770.57	235.90
770.90	235.79
771.22	235.66
771.55	235.55
771.87	235.49
772.20	235.36
772.52	235.33
772.85	235.36
773.17	235.24
773.50	235.13
773.82	235.00
774.15	234.81
774.47	234.59
774.80	234.46
775.12	234.37
775.45	234.31
775.77	234.22
776.09	234.11
776.42	234.04
776.74	233.97
777.07	233.91
777.39	233.84
777.72	233.77
778.04	233.72
778.36	233.63
778.69	233.54
779.01	233.48
779.33	233.33
779.66	233.12
779.98	233.03
780.31	232.94
780.63	232.92
780.95	232.91
781.28	232.85
781.60	232.81
781.92	232.77
782.25	232.69
782.57	232.63
782.89	232.57
783.22	232.51
783.54	232.46
783.86	232.41
784.19	232.32
784.51	232.29
784.83	232.21
785.16	232.16
785.48	232.10
785.80	232.06
786.12	232.01
786.45	231.98
786.77	231.99
787.09	231.98
787.42	231.90
787.74	231.81
788.06	231.78
788.38	231.73
788.71	231.68
789.03	231.65
789.35	231.62
789.67	231.60
789.99	231.55
790.32	231.47
790.64	231.42
790.96	231.45
791.28	231.37
791.61	231.35
791.93	231.30
792.25	231.23
792.57	231.25
792.89	231.20
793.21	231.16
793.54	231.10
793.86	231.02
794.18	230.99
794.50	230.96
794.82	230.91
795.14	230.90
795.47	230.87
795.79	230.83
796.11	230.75
796.43	230.68
796.75	230.65
797.07	230.64
797.39	230.58
797.71	230.51
798.04	230.50
798.36	230.47
798.68	230.46
799.00	230.44
799.32	230.40
799.64	230.38
799.96	230.36
800.28	230.34
800.60	230.32
800.92	230.30
801.24	230.28
801.56	230.27
801.89	230.24
802.21	230.20
802.53	230.16
802.85	230.18
803.17	230.19
803.49	230.12
803.81	230.08
804.13	230.05
804.45	230.02
804.77	230.00
805.09	229.97
805.41	229.90
805.73	229.87
806.05	229.79
806.37	229.75
806.69	229.73
807.01	229.68
807.33	229.67
807.65	229.64
807.97	229.63
808.28	229.60
808.60	229.55
808.92	229.52
809.24	229.54
809.56	229.49
809.88	229.46
810.20	229.44
810.52	229.45
810.84	229.45
811.16	229.40
811.48	229.38
811.80	229.38
812.12	229.38
812.43	229.40
812.75	229.36
813.07	229.35
813.39	229.31
813.71	229.27
814.03	229.22
814.35	229.17
814.67	229.12
814.98	229.05
815.30	229.03
815.62	229.00
815.94	228.93
816.26	228.94
816.58	228.91
816.89	228.89
817.21	228.82
817.53	228.78
817.85	228.74
818.17	228.70
818.48	228.61
818.80	228.59
819.12	228.54
819.44	228.51
819.76	228.47
820.07	228.46
820.39	228.46
820.71	228.46
821.03	228.44
821.34	228.41
821.66	228.42
821.98	228.42
822.30	228.39
822.61	228.44
822.93	228.37
823.25	228.35
823.57	228.30
823.88	228.32
824.20	228.32
824.52	228.33
824.83	228.33
825.15	228.35
825.47	228.36
825.79	228.34
826.10	228.34
826.42	228.31
826.74	228.31
827.05	228.29
827.37	228.27
827.69	228.27
828.00	228.26
828.32	228.26
828.64	228.24
828.95	228.27
829.27	228.24
829.58	228.24
829.90	228.26
830.22	228.30
830.53	228.24
830.85	228.25
831.17	228.22
831.48	228.18
831.80	228.15
832.11	228.12
832.43	228.11
832.75	228.07
833.06	228.15
833.38	228.11
833.69	228.10
834.01	228.09
834.32	228.07
834.64	228.07
834.96	228.07
835.27	228.05
835.59	228.01
835.90	227.96
836.22	227.93
836.53	227.89
836.85	227.86
837.16	227.95
837.48	227.95
837.79	227.94
838.11	227.97
838.42	227.96
838.74	228.01
839.05	228.00
839.37	228.04
839.68	227.96
840.00	227.97
840.31	228.01
840.63	228.01
840.94	228.00
841.26	227.98
841.57	227.96
841.88	227.98
842.20	228.00
842.51	228.00
842.83	228.02
843.14	228.10
843.46	228.14
843.77	228.11
844.08	228.10
844.40	228.09
844.71	228.07
845.03	228.06
845.34	228.00
845.65	227.98
845.97	227.95
846.28	227.96
846.60	227.95
846.91	227.88
847.22	227.86
847.54	227.84
847.85	227.86
848.16	227.83
848.48	227.81
848.79	227.83
849.10	227.83
849.42	227.85
849.73	227.74
850.04	227.67
850.36	227.62
850.67	227.60
850.98	227.64
851.30	227.64
851.61	227.62
851.92	227.61
852.23	227.64
852.55	227.64
852.86	227.65
853.17	227.65
853.49	227.69
853.80	227.71
854.11	227.75
854.42	227.74
854.74	227.75
855.05	227.73
855.36	227.69
855.67	227.67
855.99	227.62
856.30	227.76
856.61	227.76
856.92	227.75
857.23	227.73
857.55	227.69
857.86	227.69
858.17	227.72
858.48	227.71
858.79	227.67
859.11	227.67
859.42	227.65
859.73	227.64
860.04	227.63
860.35	227.60
860.66	227.58
860.98	227.54
861.29	227.53
861.60	227.54
861.91	227.56
862.22	227.53
862.53	227.55
862.84	227.43
863.16	227.44
863.47	227.41
863.78	227.41
864.09	227.42
864.40	227.42
864.71	227.42
865.02	227.47
865.33	227.47
865.64	227.44
865.95	227.43
866.27	227.50
866.58	227.49
866.89	227.50
867.20	227.49
867.51	227.49
867.82	227.52
868.13	227.52
868.44	227.47
868.75	227.53
869.06	227.55
869.37	227.57
869.68	227.55
869.99	227.61
870.30	227.65
870.61	227.68
870.92	227.71
871.23	227.71
871.54	227.70
871.85	227.78
872.16	227.81
872.47	227.83
872.78	227.74
873.09	227.75
873.40	227.76
873.71	227.78
874.02	227.80
874.33	227.78
874.64	227.78
874.95	227.84
875.26	227.83
875.56	227.81
875.87	227.80
876.18	227.81
876.49	227.88
876.80	227.83
877.11	227.79
877.42	227.75
877.73	227.73
878.04	227.73
878.35	227.66
878.66	227.65
878.96	227.65
879.27	227.68
879.58	227.65
879.89	227.67
880.20	227.70
880.51	227.70
880.82	227.69
881.12	227.71
881.43	227.68
881.74	227.67
882.05	227.65
882.36	227.65
882.67	227.69
882.97	227.59
883.28	227.63
883.59	227.62
883.90	227.63
884.21	227.61
884.51	227.59
884.82	227.59
885.13	227.57
885.44	227.54
885.74	227.56
886.05	227.57
886.36	227.52
886.67	227.48
886.98	227.51
887.28	227.51
887.59	227.50
887.90	227.49
888.20	227.47
888.51	227.49
888.82	227.49
889.13	227.44
889.43	227.51
889.74	227.44
890.05	227.46
890.35	227.43
890.66	227.44
890.97	227.42
891.28	227.37
891.58	227.37
891.89	227.37
892.20	227.34
892.50	227.31
892.81	227.32
893.12	227.30
893.42	227.27
893.73	227.27
894.04	227.27
894.34	227.25
894.65	227.24
894.95	227.22
895.26	227.21
895.57	227.27
895.87	227.15
896.18	227.18
896.48	227.16
896.79	227.16
897.10	227.18
897.40	227.19
897.71	227.20
898.01	227.21
898.32	227.24
898.63	227.22
898.93	227.24
899.24	227.21
899.54	227.23
899.85	227.24
900.15	227.25
900.46	227.22
900.76	227.23
901.07	227.24
901.38	227.26
901.68	227.26
901.99	227.22
902.29	227.25
902.60	227.25
902.90	227.23
903.21	227.25
903.51	227.24
903.82	227.28
904.12	227.29
904.43	227.28
904.73	227.28
905.03	227.31
905.34	227.40
905.64	227.42
905.95	227.40
906.25	227.40
906.56	227.39
906.86	227.38
907.17	227.41
907.47	227.42
907.77	227.42
908.08	227.40
908.38	227.39
908.69	227.41
908.99	227.45
909.30	227.49
909.60	227.47
909.90	227.48
910.21	227.43
910.51	227.46
910.81	227.48
911.12	227.49
911.42	227.49
911.73	227.39
912.03	227.39
912.33	227.43
912.64	227.39
912.94	227.39
913.24	227.41
913.55	227.39
913.85	227.35
914.15	227.35
914.46	227.38
914.76	227.39
915.06	227.38
915.37	227.36
915.67	227.33
915.97	227.35
916.27	227.31
916.58	227.33
916.88	227.32
917.18	227.30
917.49	227.39
917.79	227.37
918.09	227.45
918.39	227.48
918.70	227.47
919.00	227.48
919.30	227.51
919.60	227.49
919.91	227.50
920.21	227.51
920.51	227.51
920.81	227.47
921.12	227.48
921.42	227.46
921.72	227.47
922.02	227.45
922.32	227.45
922.63	227.45
922.93	227.48
923.23	227.47
923.53	227.41
923.83	227.30
924.13	227.32
924.44	227.27
924.74	227.26
925.04	227.27
925.34	227.27
925.64	227.22
925.94	227.20
926.24	227.21
926.55	227.20
926.85	227.19
927.15	227.20
927.45	227.20
927.75	227.21
928.05	227.16
928.35	227.15
928.65	227.15
928.95	227.14
929.26	227.12
929.56	227.14
929.86	227.16
930.16	227.18
930.46	227.17
930.76	227.17
931.06	227.10
931.36	227.07
931.66	227.05
931.96	227.05
932.26	227.07
932.56	227.01
932.86	227.02
933.16	227.02
933.46	227.00
933.76	226.97
934.06	226.97
934.36	227.02
934.66	227.05
934.96	227.01
935.26	227.02
935.56	227.03
935.86	227.02
936.16	227.00
936.46	226.97
936.76	226.94
937.06	226.93
937.36	226.99
937.66	226.98
937.96	227.01
938.26	227.02
938.56	227.01
938.86	227.02
939.16	227.04
939.46	227.05
939.76	227.07
940.06	227.06
940.35	227.07
940.65	227.01
940.95	227.05
941.25	227.06
941.55	227.07
941.85	227.07
942.15	227.06
942.45	227.13
942.75	227.17
943.04	227.18
943.34	227.19
943.64	227.17
943.94	227.20
944.24	227.20
944.54	227.23
944.84	227.24
945.13	227.26
945.43	227.28
945.73	227.28
946.03	227.27
946.33	227.27
946.62	227.26
946.92	227.27
947.22	227.26
947.52	227.27
947.82	227.26
948.11	227.25
948.41	227.25
948.71	227.21
949.01	227.22
949.31	227.22
949.60	227.21
949.90	227.23
950.20	227.21
950.50	227.21
950.79	227.19
951.09	227.21
951.39	227.18
951.69	227.15
951.98	227.19
952.28	227.20
952.58	227.21
952.87	227.20
953.17	227.25
953.47	227.22
953.76	227.24
954.06	227.22
954.36	227.18
954.66	227.19
954.95	227.18
955.25	227.17
955.55	227.18
955.84	227.16
956.14	227.14
956.44	227.15
956.73	227.14
957.03	227.12
957.32	227.12
957.62	227.11
957.92	227.14
958.21	227.11
958.51	227.19
958.81	227.22
959.10	227.24
959.40	227.21
959.69	227.22
959.99	227.21
960.29	227.24
960.58	227.23
960.88	227.26
961.17	227.23
961.47	227.25
961.76	227.22
962.06	227.24
962.36	227.20
962.65	227.17
962.95	227.15
963.24	227.12
963.54	227.10
963.83	227.12
964.13	227.06
964.42	226.99
964.72	226.95
965.01	226.93
965.31	226.94
965.60	226.91
965.90	226.97
966.19	226.93
966.49	226.91
966.78	226.92
967.08	226.94
967.37	226.92
967.67	226.87
967.96	226.90
968.26	226.88
968.55	226.91
968.85	226.94
969.14	226.94
969.43	226.96
969.73	226.93
970.02	226.89
970.32	226.88
970.61	226.91
970.91	226.85
971.20	226.84
971.49	226.79
971.79	226.81
972.08	226.73
972.38	226.74
972.67	226.73
972.96	226.72
973.26	226.70
973.55	226.78
973.85	226.79
974.14	226.79
974.43	226.80
974.73	226.76
975.02	226.73
975.31	226.77
975.61	226.77
975.90	226.79
976.19	226.81
976.49	226.83
976.78	226.87
977.07	226.86
977.37	226.88
977.66	226.87
977.95	226.86
978.24	226.87
978.54	226.88
978.83	226.88
979.12	226.88
979.42	226.88
979.71	226.88
980.00	226.89
980.29	226.90
980.59	226.92
980.88	226.99
981.17	226.99
981.46	226.96
981.76	226.96
982.05	226.99
982.34	227.00
982.63	227.01
982.93	226.99
983.22	227.03
983.51	227.02
983.80	227.09
984.09	227.11
984.39	227.12
984.68	227.14
984.97	227.15
985.26	227.17
985.55	227.13
985.85	227.12
986.14	227.12
986.43	227.12
986.72	227.07
987.01	227.03
987.30	227.04
987.59	227.05
987.89	227.06
988.18	227.02
988.47	227.04
988.76	227.03
989.05	227.03
989.34	226.99
989.63	227.03
989.92	227.01
990.22	226.99
990.51	226.96
990.80	226.95
991.09	226.98
991.38	226.98
991.67	227.02
991.96	227.01
992.25	227.02
992.54	227.02
992.83	227.07
993.12	227.08
993.41	227.11
993.70	227.15
993.99	227.14
994.28	227.15
994.58	227.15
994.87	227.13
995.16	227.15
995.45	227.16
995.74	227.14
996.03	227.15
996.32	227.17
996.61	227.21
996.90	227.21
997.19	227.18
997.48	227.21
997.77	227.17
998.06	227.16
998.34	227.13
998.63	227.13
998.92	227.13
999.21	227.14
999.50	227.12
999.79	227.10
1000.08	227.13
1000.37	227.13
1000.66	227.12
1000.95	227.19
1001.24	227.20
1001.53	227.21
1001.82	227.18
1002.11	227.13
1002.40	227.11
1002.68	227.14
1002.97	227.19
1003.26	227.19
1003.55	227.16
1003.84	227.17
1004.13	227.16
1004.42	227.17
1004.71	227.15
1004.99	227.10
1005.28	227.09
1005.57	227.06
1005.86	227.03
1006.15	226.98
1006.44	226.97
1006.72	226.99
1007.01	226.94
1007.30	226.91
1007.59	226.92
1007.88	226.93
1008.17	226.97
1008.45	226.96
1008.74	226.93
1009.03	226.88
1009.32	226.86
1009.60	226.86
1009.89	226.85
1010.18	226.84
1010.47	226.81
1010.76	226.79
1011.04	226.81
1011.33	226.82
1011.62	226.84
1011.91	226.85
1012.19	226.87
1012.48	226.87
1012.77	226.83
1013.05	226.88
1013.34	226.87
1013.63	226.83
1013.92	226.83
1014.20	226.82
1014.49	226.83
1014.78	226.84
1015.06	226.80
1015.35	226.81
1015.64	226.81
1015.92	226.84
1016.21	226.84
1016.50	226.86
1016.78	226.91
1017.07	226.90
1017.36	226.88
1017.64	226.86
1017.93	226.86
1018.22	226.87
1018.50	226.84
1018.79	226.88
1019.08	226.84
1019.36	226.87
1019.65	226.85
1019.93	226.90
1020.22	226.92
1020.51	226.97
1020.79	226.94
1021.08	227.08
1021.36	226.26
1021.65	227.46
1021.94	227.06
1022.22	227.11
1022.51	226.31
1022.79	227.93
1023.08	227.17
1023.36	228.25
1023.65	226.78
>>>>>End Processed Spectral Data<<<<<
